trial_type,trial_index,time_elapsed,internal_node_id,rocket_sides,red_planet_first_rocket,red_display_order,purple_display_order,interactions,blur_events,focus_events,fullscreenenter_events,fullscreenexit_events,rt,stimulus,key_press,button_pressed,success,duration,valid_pressed,rts,keys,planet_text,right_text,left_text,center_text,chosen_text,reward_text,trial_stage,practice_trial,transition_type,choice,transition,reward,timestamp,subject_id
pavlovia,0,8,0.0-0.0,FALSE,TRUE,TRUE,FALSE,"
","
","
","
","
",NA,NA,NA,NA,NA,NA,NA,NA,NA,NA,NA,NA,NA,NA,NA,NA,NA,NA,NA,NA,NA,NA,sub68
html-keyboard-response,1,1750,0.0-1.0,FALSE,TRUE,TRUE,FALSE,"
","
","
","
","
",1739.8549999998068,Welcome! Press the space bar to begin.,32,NA,NA,NA,NA,NA,NA,NA,NA,NA,NA,NA,NA,NA,NA,NA,NA,NA,NA,NA,sub68
audio-keyboard-response,2,5782,0.0-2.0,FALSE,TRUE,TRUE,FALSE,"
","
","
","
","
",3701,audio/beep_loop.wav,32,NA,NA,NA,NA,NA,NA,NA,NA,NA,NA,NA,NA,NA,NA,NA,NA,NA,NA,NA,sub68
audio-button-response,3,7733,0.0-3.0,FALSE,TRUE,TRUE,FALSE,"
","
","
","
","
",NaN,audio/fish.mp3,NA,1,NA,NA,NA,NA,NA,NA,NA,NA,NA,NA,NA,NA,NA,NA,NA,NA,NA,NA,sub68
audio-button-response,4,10691,0.0-4.0,FALSE,TRUE,TRUE,FALSE,"""event"",""trial"",""time""
""fullscreenenter"",""5"",""46097""
","
","
","""event"",""trial"",""time""
""fullscreenenter"",""5"",""46097""
","
",NaN,audio/tiger.mp3,NA,4,NA,NA,NA,NA,NA,NA,NA,NA,NA,NA,NA,NA,NA,NA,NA,NA,NA,NA,sub68
fullscreen,5,47071,0.0-5.0,FALSE,TRUE,TRUE,FALSE,"""event"",""trial"",""time""
""fullscreenenter"",""5"",""46097""
","
","
","""event"",""trial"",""time""
""fullscreenenter"",""5"",""46097""
","
",NA,NA,NA,NA,TRUE,NA,NA,NA,NA,NA,NA,NA,NA,NA,NA,NA,NA,NA,NA,NA,NA,NA,sub68
d3-instructions,6,65073,0.0-6.0,FALSE,TRUE,TRUE,FALSE,"""event"",""trial"",""time""
""fullscreenenter"",""5"",""46097""
","
","
","""event"",""trial"",""time""
""fullscreenenter"",""5"",""46097""
","
",NA,NA,NA,NA,NA,NA,NA,NA,NA,NA,NA,NA,NA,NA,NA,NA,NA,NA,NA,NA,NA,NA,sub68
d3-instructions,7,74809,0.0-7.0,FALSE,TRUE,TRUE,FALSE,"""event"",""trial"",""time""
""fullscreenenter"",""5"",""46097""
","
","
","""event"",""trial"",""time""
""fullscreenenter"",""5"",""46097""
","
",NA,NA,NA,NA,NA,NA,NA,NA,NA,NA,NA,NA,NA,NA,NA,NA,NA,NA,NA,NA,NA,NA,sub68
d3-instructions,8,85068,0.0-8.0,FALSE,TRUE,TRUE,FALSE,"""event"",""trial"",""time""
""fullscreenenter"",""5"",""46097""
","
","
","""event"",""trial"",""time""
""fullscreenenter"",""5"",""46097""
","
",NA,NA,NA,NA,NA,NA,NA,NA,NA,NA,NA,NA,NA,NA,NA,NA,NA,NA,NA,NA,NA,NA,sub68
d3-instructions,9,96845,0.0-9.0,FALSE,TRUE,TRUE,FALSE,"""event"",""trial"",""time""
""fullscreenenter"",""5"",""46097""
","
","
","""event"",""trial"",""time""
""fullscreenenter"",""5"",""46097""
","
",NA,NA,NA,NA,NA,NA,NA,NA,NA,NA,NA,NA,NA,NA,NA,NA,NA,NA,NA,NA,NA,NA,sub68
d3-instructions,10,118933,0.0-10.0,FALSE,TRUE,TRUE,FALSE,"""event"",""trial"",""time""
""fullscreenenter"",""5"",""46097""
","
","
","""event"",""trial"",""time""
""fullscreenenter"",""5"",""46097""
","
",NA,NA,NA,NA,NA,NA,NA,NA,NA,NA,NA,NA,NA,NA,NA,NA,NA,NA,NA,NA,NA,NA,sub68
d3-animate-choice,11,121918,0.0-11.0,FALSE,TRUE,TRUE,FALSE,"""event"",""trial"",""time""
""fullscreenenter"",""5"",""46097""
","
","
","""event"",""trial"",""time""
""fullscreenenter"",""5"",""46097""
","
",959.8199999963981,NA,49,NA,NA,3000,1,2272.724999995262,48,images/tutgreenplanet.jpg,images/tutalien1,images/tutalien2,null,images/tutalien2,NA,NA,practice,null,NA,NA,NA,NA,sub68
d3-animate-choice,12,125446,0.0-12.0,FALSE,TRUE,TRUE,FALSE,"""event"",""trial"",""time""
""fullscreenenter"",""5"",""46097""
","
","
","""event"",""trial"",""time""
""fullscreenenter"",""5"",""46097""
","
",1518.8649999981862,NA,48,NA,NA,3000,1,NA,NA,images/tutgreenplanet.jpg,images/tutalien1,images/tutalien2,null,images/tutalien1,NA,NA,practice,null,NA,NA,NA,NA,sub68
d3-animate-choice,13,128669,0.0-13.0,FALSE,TRUE,TRUE,FALSE,"""event"",""trial"",""time""
""fullscreenenter"",""5"",""46097""
","
","
","""event"",""trial"",""time""
""fullscreenenter"",""5"",""46097""
","
",1218.1350000028033,NA,49,NA,NA,3000,1,NA,NA,images/tutgreenplanet.jpg,images/tutalien1,images/tutalien2,null,images/tutalien2,NA,NA,practice,null,NA,NA,NA,NA,sub68
d3-animate-choice,14,132380,0.0-14.0,FALSE,TRUE,TRUE,FALSE,"""event"",""trial"",""time""
""fullscreenenter"",""5"",""46097""
","
","
","""event"",""trial"",""time""
""fullscreenenter"",""5"",""46097""
","
",1705.8450000040466,NA,48,NA,NA,3000,1,NA,NA,images/tutgreenplanet.jpg,images/tutalien1,images/tutalien2,null,images/tutalien1,NA,NA,practice,null,NA,NA,NA,NA,sub68
d3-instructions,15,140636,0.0-15.0,FALSE,TRUE,TRUE,FALSE,"""event"",""trial"",""time""
""fullscreenenter"",""5"",""46097""
","
","
","""event"",""trial"",""time""
""fullscreenenter"",""5"",""46097""
","
",NA,NA,NA,NA,NA,NA,NA,NA,NA,NA,NA,NA,NA,NA,NA,NA,NA,NA,NA,NA,NA,NA,sub68
d3-instructions,16,148777,0.0-16.0,FALSE,TRUE,TRUE,FALSE,"""event"",""trial"",""time""
""fullscreenenter"",""5"",""46097""
","
","
","""event"",""trial"",""time""
""fullscreenenter"",""5"",""46097""
","
",NA,NA,NA,NA,NA,NA,NA,NA,NA,NA,NA,NA,NA,NA,NA,NA,NA,NA,NA,NA,NA,NA,sub68
d3-instructions,17,159592,0.0-17.0,FALSE,TRUE,TRUE,FALSE,"""event"",""trial"",""time""
""fullscreenenter"",""5"",""46097""
","
","
","""event"",""trial"",""time""
""fullscreenenter"",""5"",""46097""
","
",NA,NA,NA,NA,NA,NA,NA,NA,NA,NA,NA,NA,NA,NA,NA,NA,NA,NA,NA,NA,NA,NA,sub68
d3-instructions,18,173451,0.0-18.0,FALSE,TRUE,TRUE,FALSE,"""event"",""trial"",""time""
""fullscreenenter"",""5"",""46097""
","
","
","""event"",""trial"",""time""
""fullscreenenter"",""5"",""46097""
","
",NA,NA,NA,NA,NA,NA,NA,NA,NA,NA,NA,NA,NA,NA,NA,NA,NA,NA,NA,NA,NA,NA,sub68
d3-instructions,19,188316,0.0-19.0,FALSE,TRUE,TRUE,FALSE,"""event"",""trial"",""time""
""fullscreenenter"",""5"",""46097""
","
","
","""event"",""trial"",""time""
""fullscreenenter"",""5"",""46097""
","
",NA,NA,NA,NA,NA,NA,NA,NA,NA,NA,NA,NA,NA,NA,NA,NA,NA,NA,NA,NA,NA,NA,sub68
d3-animate-choice,20,191537,0.0-20.0,FALSE,TRUE,TRUE,FALSE,"""event"",""trial"",""time""
""fullscreenenter"",""5"",""46097""
","
","
","""event"",""trial"",""time""
""fullscreenenter"",""5"",""46097""
","
",1211.8800000025658,NA,49,NA,NA,3000,1,NA,NA,images/tutyellowplanet.jpg,null,images/tutalien3,null,images/tutalien3,images/t.png,NA,practice,null,NA,NA,NA,NA,sub68
d3-animate-choice,21,193582,0.0-21.0,FALSE,TRUE,TRUE,FALSE,"""event"",""trial"",""time""
""fullscreenenter"",""5"",""46097""
","
","
","""event"",""trial"",""time""
""fullscreenenter"",""5"",""46097""
","
",37.889999999606516,NA,49,NA,NA,3000,1,NA,NA,images/tutyellowplanet.jpg,null,images/tutalien3,null,images/tutalien3,images/t.png,NA,practice,null,NA,NA,NA,NA,sub68
d3-animate-choice,22,196396,0.0-22.0,FALSE,TRUE,TRUE,FALSE,"""event"",""trial"",""time""
""fullscreenenter"",""5"",""46097""
","
","
","""event"",""trial"",""time""
""fullscreenenter"",""5"",""46097""
","
",806.974999999511,NA,49,NA,NA,3000,1,NA,NA,images/tutyellowplanet.jpg,null,images/tutalien3,null,images/tutalien3,images/nothing.png,NA,practice,null,NA,NA,NA,NA,sub68
d3-animate-choice,23,200305,0.0-23.0,FALSE,TRUE,TRUE,FALSE,"""event"",""trial"",""time""
""fullscreenenter"",""5"",""46097""
","
","
","""event"",""trial"",""time""
""fullscreenenter"",""5"",""46097""
","
",1901.4200000019628,NA,49,NA,NA,3000,1,NA,NA,images/tutyellowplanet.jpg,null,images/tutalien3,null,images/tutalien3,images/t.png,NA,practice,null,NA,NA,NA,NA,sub68
d3-animate-choice,24,202790,0.0-24.0,FALSE,TRUE,TRUE,FALSE,"""event"",""trial"",""time""
""fullscreenenter"",""5"",""46097""
","
","
","""event"",""trial"",""time""
""fullscreenenter"",""5"",""46097""
","
",478.19499999604886,NA,49,NA,NA,3000,1,NA,NA,images/tutyellowplanet.jpg,null,images/tutalien3,null,images/tutalien3,images/nothing.png,NA,practice,null,NA,NA,NA,NA,sub68
d3-animate-choice,25,205286,0.0-25.0,FALSE,TRUE,TRUE,FALSE,"""event"",""trial"",""time""
""fullscreenenter"",""5"",""46097""
","
","
","""event"",""trial"",""time""
""fullscreenenter"",""5"",""46097""
","
",490.220000006957,NA,49,NA,NA,3000,1,NA,NA,images/tutyellowplanet.jpg,null,images/tutalien3,null,images/tutalien3,images/t.png,NA,practice,null,NA,NA,NA,NA,sub68
d3-animate-choice,26,207982,0.0-26.0,FALSE,TRUE,TRUE,FALSE,"""event"",""trial"",""time""
""fullscreenenter"",""5"",""46097""
","
","
","""event"",""trial"",""time""
""fullscreenenter"",""5"",""46097""
","
",688.6950000043726,NA,49,NA,NA,3000,1,NA,NA,images/tutyellowplanet.jpg,null,images/tutalien3,null,images/tutalien3,images/t.png,NA,practice,null,NA,NA,NA,NA,sub68
d3-animate-choice,27,210599,0.0-27.0,FALSE,TRUE,TRUE,FALSE,"""event"",""trial"",""time""
""fullscreenenter"",""5"",""46097""
","
","
","""event"",""trial"",""time""
""fullscreenenter"",""5"",""46097""
","
",608.7299999999232,NA,49,NA,NA,3000,1,NA,NA,images/tutyellowplanet.jpg,null,images/tutalien3,null,images/tutalien3,images/nothing.png,NA,practice,null,NA,NA,NA,NA,sub68
d3-animate-choice,28,212726,0.0-28.0,FALSE,TRUE,TRUE,FALSE,"""event"",""trial"",""time""
""fullscreenenter"",""5"",""46097""
","
","
","""event"",""trial"",""time""
""fullscreenenter"",""5"",""46097""
","
",120.84500000491971,NA,49,NA,NA,3000,1,NA,NA,images/tutyellowplanet.jpg,null,images/tutalien3,null,images/tutalien3,images/t.png,NA,practice,null,NA,NA,NA,NA,sub68
d3-animate-choice,29,215295,0.0-29.0,FALSE,TRUE,TRUE,FALSE,"""event"",""trial"",""time""
""fullscreenenter"",""5"",""46097""
","
","
","""event"",""trial"",""time""
""fullscreenenter"",""5"",""46097""
","
",562.7299999978277,NA,49,NA,NA,3000,1,NA,NA,images/tutyellowplanet.jpg,null,images/tutalien3,null,images/tutalien3,images/t.png,NA,practice,null,NA,NA,NA,NA,sub68
d3-instructions,30,223222,0.0-30.0,FALSE,TRUE,TRUE,FALSE,"""event"",""trial"",""time""
""fullscreenenter"",""5"",""46097""
","
","
","""event"",""trial"",""time""
""fullscreenenter"",""5"",""46097""
","
",NA,NA,NA,NA,NA,NA,NA,NA,NA,NA,NA,NA,NA,NA,NA,NA,NA,NA,NA,NA,NA,NA,sub68
d3-instructions,31,233993,0.0-31.0,FALSE,TRUE,TRUE,FALSE,"""event"",""trial"",""time""
""fullscreenenter"",""5"",""46097""
","
","
","""event"",""trial"",""time""
""fullscreenenter"",""5"",""46097""
","
",NA,NA,NA,NA,NA,NA,NA,NA,NA,NA,NA,NA,NA,NA,NA,NA,NA,NA,NA,NA,NA,NA,sub68
d3-instructions,32,243814,0.0-32.0,FALSE,TRUE,TRUE,FALSE,"""event"",""trial"",""time""
""fullscreenenter"",""5"",""46097""
","
","
","""event"",""trial"",""time""
""fullscreenenter"",""5"",""46097""
","
",NA,NA,NA,NA,NA,NA,NA,NA,NA,NA,NA,NA,NA,NA,NA,NA,NA,NA,NA,NA,NA,NA,sub68
d3-instructions,33,256875,0.0-33.0,FALSE,TRUE,TRUE,FALSE,"""event"",""trial"",""time""
""fullscreenenter"",""5"",""46097""
","
","
","""event"",""trial"",""time""
""fullscreenenter"",""5"",""46097""
","
",NA,NA,NA,NA,NA,NA,NA,NA,NA,NA,NA,NA,NA,NA,NA,NA,NA,NA,NA,NA,NA,NA,sub68
d3-animate-choice,34,260472,0.0-34.0,FALSE,TRUE,TRUE,FALSE,"""event"",""trial"",""time""
""fullscreenenter"",""5"",""46097""
","
","
","""event"",""trial"",""time""
""fullscreenenter"",""5"",""46097""
","
",1592.434999998659,NA,49,NA,NA,3000,1,NA,NA,images/tutgreenplanet.jpg,images/tutalien1,images/tutalien2,null,images/tutalien2,images/t.png,NA,practice,null,NA,NA,NA,NA,sub68
d3-animate-choice,35,265442,0.0-35.0,FALSE,TRUE,TRUE,FALSE,"""event"",""trial"",""time""
""fullscreenenter"",""5"",""46097""
","
","
","""event"",""trial"",""time""
""fullscreenenter"",""5"",""46097""
","
",2964.3550000037067,NA,49,NA,NA,3000,1,NA,NA,images/tutgreenplanet.jpg,images/tutalien1,images/tutalien2,null,images/tutalien2,images/t.png,NA,practice,null,NA,NA,NA,NA,sub68
d3-animate-choice,36,268689,0.0-36.0,FALSE,TRUE,TRUE,FALSE,"""event"",""trial"",""time""
""fullscreenenter"",""5"",""46097""
","
","
","""event"",""trial"",""time""
""fullscreenenter"",""5"",""46097""
","
",1240.4099999985192,NA,49,NA,NA,3000,1,NA,NA,images/tutgreenplanet.jpg,images/tutalien1,images/tutalien2,null,images/tutalien2,images/t.png,NA,practice,null,NA,NA,NA,NA,sub68
d3-animate-choice,37,271698,0.0-37.0,FALSE,TRUE,TRUE,FALSE,"""event"",""trial"",""time""
""fullscreenenter"",""5"",""46097""
","
","
","""event"",""trial"",""time""
""fullscreenenter"",""5"",""46097""
","
",1001.3049999979557,NA,49,NA,NA,3000,1,NA,NA,images/tutgreenplanet.jpg,images/tutalien1,images/tutalien2,null,images/tutalien2,images/t.png,NA,practice,null,NA,NA,NA,NA,sub68
d3-animate-choice,38,274888,0.0-38.0,FALSE,TRUE,TRUE,FALSE,"""event"",""trial"",""time""
""fullscreenenter"",""5"",""46097""
","
","
","""event"",""trial"",""time""
""fullscreenenter"",""5"",""46097""
","
",1184.1099999946891,NA,49,NA,NA,3000,1,NA,NA,images/tutgreenplanet.jpg,images/tutalien1,images/tutalien2,null,images/tutalien2,images/t.png,NA,practice,null,NA,NA,NA,NA,sub68
d3-animate-choice,39,277636,0.0-39.0,FALSE,TRUE,TRUE,FALSE,"""event"",""trial"",""time""
""fullscreenenter"",""5"",""46097""
","
","
","""event"",""trial"",""time""
""fullscreenenter"",""5"",""46097""
","
",743.8699999984237,NA,49,NA,NA,3000,1,NA,NA,images/tutgreenplanet.jpg,images/tutalien1,images/tutalien2,null,images/tutalien2,images/t.png,NA,practice,null,NA,NA,NA,NA,sub68
d3-animate-choice,40,280601,0.0-40.0,FALSE,TRUE,TRUE,FALSE,"""event"",""trial"",""time""
""fullscreenenter"",""5"",""46097""
","
","
","""event"",""trial"",""time""
""fullscreenenter"",""5"",""46097""
","
",957.364999994752,NA,49,NA,NA,3000,1,NA,NA,images/tutgreenplanet.jpg,images/tutalien1,images/tutalien2,null,images/tutalien2,images/t.png,NA,practice,null,NA,NA,NA,NA,sub68
d3-animate-choice,41,283977,0.0-41.0,FALSE,TRUE,TRUE,FALSE,"""event"",""trial"",""time""
""fullscreenenter"",""5"",""46097""
","
","
","""event"",""trial"",""time""
""fullscreenenter"",""5"",""46097""
","
",1368.8750000001164,NA,49,NA,NA,3000,1,NA,NA,images/tutgreenplanet.jpg,images/tutalien1,images/tutalien2,null,images/tutalien2,images/t.png,NA,practice,null,NA,NA,NA,NA,sub68
d3-animate-choice,42,286759,0.0-42.0,FALSE,TRUE,TRUE,FALSE,"""event"",""trial"",""time""
""fullscreenenter"",""5"",""46097""
","
","
","""event"",""trial"",""time""
""fullscreenenter"",""5"",""46097""
","
",775.565000003553,NA,49,NA,NA,3000,1,NA,NA,images/tutgreenplanet.jpg,images/tutalien1,images/tutalien2,null,images/tutalien2,images/t.png,NA,practice,null,NA,NA,NA,NA,sub68
d3-animate-choice,43,289448,0.0-43.0,FALSE,TRUE,TRUE,FALSE,"""event"",""trial"",""time""
""fullscreenenter"",""5"",""46097""
","
","
","""event"",""trial"",""time""
""fullscreenenter"",""5"",""46097""
","
",683.3700000061071,NA,49,NA,NA,3000,1,NA,NA,images/tutgreenplanet.jpg,images/tutalien1,images/tutalien2,null,images/tutalien2,images/t.png,NA,practice,null,NA,NA,NA,NA,sub68
d3-instructions,44,305250,0.0-44.0,FALSE,TRUE,TRUE,FALSE,"""event"",""trial"",""time""
""fullscreenenter"",""5"",""46097""
","
","
","""event"",""trial"",""time""
""fullscreenenter"",""5"",""46097""
","
",NA,NA,NA,NA,NA,NA,NA,NA,NA,NA,NA,NA,NA,NA,NA,NA,NA,NA,NA,NA,NA,NA,sub68
d3-instructions,45,312780,0.0-45.0,FALSE,TRUE,TRUE,FALSE,"""event"",""trial"",""time""
""fullscreenenter"",""5"",""46097""
","
","
","""event"",""trial"",""time""
""fullscreenenter"",""5"",""46097""
","
",NA,NA,NA,NA,NA,NA,NA,NA,NA,NA,NA,NA,NA,NA,NA,NA,NA,NA,NA,NA,NA,NA,sub68
d3-instructions,46,318403,0.0-46.0,FALSE,TRUE,TRUE,FALSE,"""event"",""trial"",""time""
""fullscreenenter"",""5"",""46097""
","
","
","""event"",""trial"",""time""
""fullscreenenter"",""5"",""46097""
","
",NA,NA,NA,NA,NA,NA,NA,NA,NA,NA,NA,NA,NA,NA,NA,NA,NA,NA,NA,NA,NA,NA,sub68
d3-instructions,47,336314,0.0-47.0,FALSE,TRUE,TRUE,FALSE,"""event"",""trial"",""time""
""fullscreenenter"",""5"",""46097""
","
","
","""event"",""trial"",""time""
""fullscreenenter"",""5"",""46097""
","
",NA,NA,NA,NA,NA,NA,NA,NA,NA,NA,NA,NA,NA,NA,NA,NA,NA,NA,NA,NA,NA,NA,sub68
d3-instructions,48,347991,0.0-48.0,FALSE,TRUE,TRUE,FALSE,"""event"",""trial"",""time""
""fullscreenenter"",""5"",""46097""
","
","
","""event"",""trial"",""time""
""fullscreenenter"",""5"",""46097""
","
",NA,NA,NA,NA,NA,NA,NA,NA,NA,NA,NA,NA,NA,NA,NA,NA,NA,NA,NA,NA,NA,NA,sub68
d3-instructions,49,360019,0.0-49.0,FALSE,TRUE,TRUE,FALSE,"""event"",""trial"",""time""
""fullscreenenter"",""5"",""46097""
","
","
","""event"",""trial"",""time""
""fullscreenenter"",""5"",""46097""
","
",NA,NA,NA,NA,NA,NA,NA,NA,NA,NA,NA,NA,NA,NA,NA,NA,NA,NA,NA,NA,NA,NA,sub68
d3-instructions,50,370257,0.0-50.0,FALSE,TRUE,TRUE,FALSE,"""event"",""trial"",""time""
""fullscreenenter"",""5"",""46097""
","
","
","""event"",""trial"",""time""
""fullscreenenter"",""5"",""46097""
","
",NA,NA,NA,NA,NA,NA,NA,NA,NA,NA,NA,NA,NA,NA,NA,NA,NA,NA,NA,NA,NA,NA,sub68
d3-instructions,51,374744,0.0-51.0,FALSE,TRUE,TRUE,FALSE,"""event"",""trial"",""time""
""fullscreenenter"",""5"",""46097""
","
","
","""event"",""trial"",""time""
""fullscreenenter"",""5"",""46097""
","
",NA,NA,NA,NA,NA,NA,NA,NA,NA,NA,NA,NA,NA,NA,NA,NA,NA,NA,NA,NA,NA,NA,sub68
d3-instructions,52,378951,0.0-52.0,FALSE,TRUE,TRUE,FALSE,"""event"",""trial"",""time""
""fullscreenenter"",""5"",""46097""
","
","
","""event"",""trial"",""time""
""fullscreenenter"",""5"",""46097""
","
",NA,NA,NA,NA,NA,NA,NA,NA,NA,NA,NA,NA,NA,NA,NA,NA,NA,NA,NA,NA,NA,NA,sub68
d3-instructions,53,394350,0.0-53.0,FALSE,TRUE,TRUE,FALSE,"""event"",""trial"",""time""
""fullscreenenter"",""5"",""46097""
","
","
","""event"",""trial"",""time""
""fullscreenenter"",""5"",""46097""
","
",NA,NA,NA,NA,NA,NA,NA,NA,NA,NA,NA,NA,NA,NA,NA,NA,NA,NA,NA,NA,NA,NA,sub68
d3-instructions,54,407545,0.0-54.0,FALSE,TRUE,TRUE,FALSE,"""event"",""trial"",""time""
""fullscreenenter"",""5"",""46097""
","
","
","""event"",""trial"",""time""
""fullscreenenter"",""5"",""46097""
","
",NA,NA,NA,NA,NA,NA,NA,NA,NA,NA,NA,NA,NA,NA,NA,NA,NA,NA,NA,NA,NA,NA,sub68
d3-instructions,55,419479,0.0-55.0,FALSE,TRUE,TRUE,FALSE,"""event"",""trial"",""time""
""fullscreenenter"",""5"",""46097""
","
","
","""event"",""trial"",""time""
""fullscreenenter"",""5"",""46097""
","
",NA,NA,NA,NA,NA,NA,NA,NA,NA,NA,NA,NA,NA,NA,NA,NA,NA,NA,NA,NA,NA,NA,sub68
d3-instructions,56,428297,0.0-56.0,FALSE,TRUE,TRUE,FALSE,"""event"",""trial"",""time""
""fullscreenenter"",""5"",""46097""
","
","
","""event"",""trial"",""time""
""fullscreenenter"",""5"",""46097""
","
",NA,NA,NA,NA,NA,NA,NA,NA,NA,NA,NA,NA,NA,NA,NA,NA,NA,NA,NA,NA,NA,NA,sub68
d3-instructions,57,439421,0.0-57.0,FALSE,TRUE,TRUE,FALSE,"""event"",""trial"",""time""
""fullscreenenter"",""5"",""46097""
","
","
","""event"",""trial"",""time""
""fullscreenenter"",""5"",""46097""
","
",NA,NA,NA,NA,NA,NA,NA,NA,NA,NA,NA,NA,NA,NA,NA,NA,NA,NA,NA,NA,NA,NA,sub68
d3-instructions,58,450735,0.0-58.0,FALSE,TRUE,TRUE,FALSE,"""event"",""trial"",""time""
""fullscreenenter"",""5"",""46097""
","
","
","""event"",""trial"",""time""
""fullscreenenter"",""5"",""46097""
","
",NA,NA,NA,NA,NA,NA,NA,NA,NA,NA,NA,NA,NA,NA,NA,NA,NA,NA,NA,NA,NA,NA,sub68
d3-instructions,59,457400,0.0-59.0,FALSE,TRUE,TRUE,FALSE,"""event"",""trial"",""time""
""fullscreenenter"",""5"",""46097""
","
","
","""event"",""trial"",""time""
""fullscreenenter"",""5"",""46097""
","
",NA,NA,NA,NA,NA,NA,NA,NA,NA,NA,NA,NA,NA,NA,NA,NA,NA,NA,NA,NA,NA,NA,sub68
d3-instructions,60,469814,0.0-60.0,FALSE,TRUE,TRUE,FALSE,"""event"",""trial"",""time""
""fullscreenenter"",""5"",""46097""
","
","
","""event"",""trial"",""time""
""fullscreenenter"",""5"",""46097""
","
",NA,NA,NA,NA,NA,NA,NA,NA,NA,NA,NA,NA,NA,NA,NA,NA,NA,NA,NA,NA,NA,NA,sub68
d3-animate-choice,61,473106,0.0-61.0-0.0,FALSE,TRUE,TRUE,FALSE,"""event"",""trial"",""time""
""fullscreenenter"",""5"",""46097""
","
","
","""event"",""trial"",""time""
""fullscreenenter"",""5"",""46097""
","
",1276.610000000801,NA,49,NA,NA,3000,1,NA,NA,images/earth.jpg,images/tutrocket2,images/tutrocket1,null,images/tutrocket1,NA,1,practice,null,1,NA,NA,NA,sub68
d3-animate-choice,62,477117,0.0-61.0-1.0,FALSE,TRUE,TRUE,FALSE,"""event"",""trial"",""time""
""fullscreenenter"",""5"",""46097""
","
","
","""event"",""trial"",""time""
""fullscreenenter"",""5"",""46097""
","
",3358.664999999746,NA,49,NA,NA,3000,0,NA,NA,images/tutgreenplanet.jpg,images/tutalien2,images/tutalien1,images/tutrocket1,NA,NA,2,practice,true,1,common,0,2020-06-20T17:58:54Z,sub68
two-step-fixation,63,478131,0.0-61.0-2.0,FALSE,TRUE,TRUE,FALSE,"""event"",""trial"",""time""
""fullscreenenter"",""5"",""46097""
","
","
","""event"",""trial"",""time""
""fullscreenenter"",""5"",""46097""
","
",NA,images/earth.jpg,NA,NA,NA,NA,NA,NA,NA,NA,NA,NA,NA,NA,NA,fixation,NA,NA,NA,NA,NA,NA,sub68
d3-animate-choice,64,482141,0.0-61.0-0.1,FALSE,TRUE,TRUE,FALSE,"""event"",""trial"",""time""
""fullscreenenter"",""5"",""46097""
","
","
","""event"",""trial"",""time""
""fullscreenenter"",""5"",""46097""
","
",null,NA,null,NA,NA,3000,0,NA,NA,images/earth.jpg,images/tutrocket2,images/tutrocket1,null,NA,NA,1,practice,null,NA,NA,NA,NA,sub68
d3-animate-choice,65,483152,0.0-61.0-1.1,FALSE,TRUE,TRUE,FALSE,"""event"",""trial"",""time""
""fullscreenenter"",""5"",""46097""
","
","
","""event"",""trial"",""time""
""fullscreenenter"",""5"",""46097""
","
",null,NA,null,NA,NA,0,0,NA,NA,images/earth.jpg,images/tutrocket2,images/tutrocket1,null,NA,NA,2,practice,null,NA,NA,0,2020-06-20T17:59:00Z,sub68
two-step-fixation,66,484155,0.0-61.0-2.1,FALSE,TRUE,TRUE,FALSE,"""event"",""trial"",""time""
""fullscreenenter"",""5"",""46097""
","
","
","""event"",""trial"",""time""
""fullscreenenter"",""5"",""46097""
","
",NA,images/earth.jpg,NA,NA,NA,NA,NA,NA,NA,NA,NA,NA,NA,NA,NA,fixation,NA,NA,NA,NA,NA,NA,sub68
d3-animate-choice,67,487873,0.0-61.0-0.2,FALSE,TRUE,TRUE,FALSE,"""event"",""trial"",""time""
""fullscreenenter"",""5"",""46097""
","
","
","""event"",""trial"",""time""
""fullscreenenter"",""5"",""46097""
","
",1714.2650000023423,NA,49,NA,NA,3000,1,NA,NA,images/earth.jpg,images/tutrocket2,images/tutrocket1,null,images/tutrocket1,NA,1,practice,null,1,NA,NA,NA,sub68
d3-animate-choice,68,490873,0.0-61.0-1.2,FALSE,TRUE,TRUE,FALSE,"""event"",""trial"",""time""
""fullscreenenter"",""5"",""46097""
","
","
","""event"",""trial"",""time""
""fullscreenenter"",""5"",""46097""
","
",990.5500000022585,NA,49,NA,NA,3000,1,NA,NA,images/tutgreenplanet.jpg,images/tutalien2,images/tutalien1,images/tutrocket1,images/tutalien1,images/nothing.png,2,practice,true,1,common,0,2020-06-20T17:59:07Z,sub68
two-step-fixation,69,491878,0.0-61.0-2.2,FALSE,TRUE,TRUE,FALSE,"""event"",""trial"",""time""
""fullscreenenter"",""5"",""46097""
","
","
","""event"",""trial"",""time""
""fullscreenenter"",""5"",""46097""
","
",NA,images/earth.jpg,NA,NA,NA,NA,NA,NA,NA,NA,NA,NA,NA,NA,NA,fixation,NA,NA,NA,NA,NA,NA,sub68
d3-animate-choice,70,495885,0.0-61.0-0.3,FALSE,TRUE,TRUE,FALSE,"""event"",""trial"",""time""
""fullscreenenter"",""5"",""46097""
","
","
","""event"",""trial"",""time""
""fullscreenenter"",""5"",""46097""
","
",null,NA,null,NA,NA,3000,0,NA,NA,images/earth.jpg,images/tutrocket2,images/tutrocket1,null,NA,NA,1,practice,null,NA,NA,NA,NA,sub68
d3-animate-choice,71,496901,0.0-61.0-1.3,FALSE,TRUE,TRUE,FALSE,"""event"",""trial"",""time""
""fullscreenenter"",""5"",""46097""
","
","
","""event"",""trial"",""time""
""fullscreenenter"",""5"",""46097""
","
",null,NA,null,NA,NA,0,0,NA,NA,images/earth.jpg,images/tutrocket2,images/tutrocket1,null,NA,NA,2,practice,null,NA,NA,0,2020-06-20T17:59:13Z,sub68
two-step-fixation,72,497911,0.0-61.0-2.3,FALSE,TRUE,TRUE,FALSE,"""event"",""trial"",""time""
""fullscreenenter"",""5"",""46097""
","
","
","""event"",""trial"",""time""
""fullscreenenter"",""5"",""46097""
","
",NA,images/earth.jpg,NA,NA,NA,NA,NA,NA,NA,NA,NA,NA,NA,NA,NA,fixation,NA,NA,NA,NA,NA,NA,sub68
d3-animate-choice,73,500970,0.0-61.0-0.4,FALSE,TRUE,TRUE,FALSE,"""event"",""trial"",""time""
""fullscreenenter"",""5"",""46097""
","
","
","""event"",""trial"",""time""
""fullscreenenter"",""5"",""46097""
","
",1055.419999996957,NA,49,NA,NA,3000,1,NA,NA,images/earth.jpg,images/tutrocket2,images/tutrocket1,null,images/tutrocket1,NA,1,practice,null,1,NA,NA,NA,sub68
d3-animate-choice,74,504727,0.0-61.0-1.4,FALSE,TRUE,TRUE,FALSE,"""event"",""trial"",""time""
""fullscreenenter"",""5"",""46097""
","
","
","""event"",""trial"",""time""
""fullscreenenter"",""5"",""46097""
","
",1749.9549999993178,NA,49,NA,NA,3000,1,NA,NA,images/tutyellowplanet.jpg,images/tutalien4,images/tutalien3,images/tutrocket1,images/tutalien3,images/t.png,2,practice,false,1,rare,1,2020-06-20T17:59:21Z,sub68
two-step-fixation,75,505734,0.0-61.0-2.4,FALSE,TRUE,TRUE,FALSE,"""event"",""trial"",""time""
""fullscreenenter"",""5"",""46097""
","
","
","""event"",""trial"",""time""
""fullscreenenter"",""5"",""46097""
","
",NA,images/earth.jpg,NA,NA,NA,NA,NA,NA,NA,NA,NA,NA,NA,NA,NA,fixation,NA,NA,NA,NA,NA,NA,sub68
d3-animate-choice,76,508932,0.0-61.0-0.5,FALSE,TRUE,TRUE,FALSE,"""event"",""trial"",""time""
""fullscreenenter"",""5"",""46097""
","
","
","""event"",""trial"",""time""
""fullscreenenter"",""5"",""46097""
","
",1191.4899999974295,NA,48,NA,NA,3000,1,NA,NA,images/earth.jpg,images/tutrocket2,images/tutrocket1,null,images/tutrocket2,NA,1,practice,null,2,NA,NA,NA,sub68
d3-animate-choice,77,512218,0.0-61.0-1.5,FALSE,TRUE,TRUE,FALSE,"""event"",""trial"",""time""
""fullscreenenter"",""5"",""46097""
","
","
","""event"",""trial"",""time""
""fullscreenenter"",""5"",""46097""
","
",1278.2650000008289,NA,48,NA,NA,3000,1,NA,NA,images/tutyellowplanet.jpg,images/tutalien4,images/tutalien3,images/tutrocket2,images/tutalien4,images/t.png,2,practice,true,2,common,1,2020-06-20T17:59:29Z,sub68
two-step-fixation,78,513229,0.0-61.0-2.5,FALSE,TRUE,TRUE,FALSE,"""event"",""trial"",""time""
""fullscreenenter"",""5"",""46097""
","
","
","""event"",""trial"",""time""
""fullscreenenter"",""5"",""46097""
","
",NA,images/earth.jpg,NA,NA,NA,NA,NA,NA,NA,NA,NA,NA,NA,NA,NA,fixation,NA,NA,NA,NA,NA,NA,sub68
d3-animate-choice,79,516382,0.0-61.0-0.6,FALSE,TRUE,TRUE,FALSE,"""event"",""trial"",""time""
""fullscreenenter"",""5"",""46097""
","
","
","""event"",""trial"",""time""
""fullscreenenter"",""5"",""46097""
","
",1144.605000001262,NA,49,NA,NA,3000,1,NA,NA,images/earth.jpg,images/tutrocket2,images/tutrocket1,null,images/tutrocket1,NA,1,practice,null,1,NA,NA,NA,sub68
d3-animate-choice,80,520344,0.0-61.0-1.6,FALSE,TRUE,TRUE,FALSE,"""event"",""trial"",""time""
""fullscreenenter"",""5"",""46097""
","
","
","""event"",""trial"",""time""
""fullscreenenter"",""5"",""46097""
","
",1950.8700000005774,NA,48,NA,NA,3000,1,NA,NA,images/tutyellowplanet.jpg,images/tutalien4,images/tutalien3,images/tutrocket1,images/tutalien4,images/nothing.png,2,practice,false,2,rare,0,2020-06-20T17:59:37Z,sub68
two-step-fixation,81,521353,0.0-61.0-2.6,FALSE,TRUE,TRUE,FALSE,"""event"",""trial"",""time""
""fullscreenenter"",""5"",""46097""
","
","
","""event"",""trial"",""time""
""fullscreenenter"",""5"",""46097""
","
",NA,images/earth.jpg,NA,NA,NA,NA,NA,NA,NA,NA,NA,NA,NA,NA,NA,fixation,NA,NA,NA,NA,NA,NA,sub68
d3-animate-choice,82,524824,0.0-61.0-0.7,FALSE,TRUE,TRUE,FALSE,"""event"",""trial"",""time""
""fullscreenenter"",""5"",""46097""
","
","
","""event"",""trial"",""time""
""fullscreenenter"",""5"",""46097""
","
",1464.099999997532,NA,49,NA,NA,3000,1,NA,NA,images/earth.jpg,images/tutrocket2,images/tutrocket1,null,images/tutrocket1,NA,1,practice,null,1,NA,NA,NA,sub68
d3-animate-choice,83,528777,0.0-61.0-1.7,FALSE,TRUE,TRUE,FALSE,"""event"",""trial"",""time""
""fullscreenenter"",""5"",""46097""
","
","
","""event"",""trial"",""time""
""fullscreenenter"",""5"",""46097""
","
",1945.2000000019325,NA,48,NA,NA,3000,1,NA,NA,images/tutgreenplanet.jpg,images/tutalien2,images/tutalien1,images/tutrocket1,images/tutalien2,images/nothing.png,2,practice,true,2,common,0,2020-06-20T17:59:45Z,sub68
two-step-fixation,84,529784,0.0-61.0-2.7,FALSE,TRUE,TRUE,FALSE,"""event"",""trial"",""time""
""fullscreenenter"",""5"",""46097""
","
","
","""event"",""trial"",""time""
""fullscreenenter"",""5"",""46097""
","
",NA,images/earth.jpg,NA,NA,NA,NA,NA,NA,NA,NA,NA,NA,NA,NA,NA,fixation,NA,NA,NA,NA,NA,NA,sub68
d3-animate-choice,85,533299,0.0-61.0-0.8,FALSE,TRUE,TRUE,FALSE,"""event"",""trial"",""time""
""fullscreenenter"",""5"",""46097""
","
","
","""event"",""trial"",""time""
""fullscreenenter"",""5"",""46097""
","
",1508.2349999939324,NA,49,NA,NA,3000,1,NA,NA,images/earth.jpg,images/tutrocket2,images/tutrocket1,null,images/tutrocket1,NA,1,practice,null,1,NA,NA,NA,sub68
d3-animate-choice,86,537079,0.0-61.0-1.8,FALSE,TRUE,TRUE,FALSE,"""event"",""trial"",""time""
""fullscreenenter"",""5"",""46097""
","
","
","""event"",""trial"",""time""
""fullscreenenter"",""5"",""46097""
","
",1773.255000000121,NA,49,NA,NA,3000,1,NA,NA,images/tutgreenplanet.jpg,images/tutalien2,images/tutalien1,images/tutrocket1,images/tutalien1,images/t.png,2,practice,true,1,common,1,2020-06-20T17:59:53Z,sub68
two-step-fixation,87,538087,0.0-61.0-2.8,FALSE,TRUE,TRUE,FALSE,"""event"",""trial"",""time""
""fullscreenenter"",""5"",""46097""
","
","
","""event"",""trial"",""time""
""fullscreenenter"",""5"",""46097""
","
",NA,images/earth.jpg,NA,NA,NA,NA,NA,NA,NA,NA,NA,NA,NA,NA,NA,fixation,NA,NA,NA,NA,NA,NA,sub68
d3-animate-choice,88,540930,0.0-61.0-0.9,FALSE,TRUE,TRUE,FALSE,"""event"",""trial"",""time""
""fullscreenenter"",""5"",""46097""
","
","
","""event"",""trial"",""time""
""fullscreenenter"",""5"",""46097""
","
",835.0500000014435,NA,48,NA,NA,3000,1,NA,NA,images/earth.jpg,images/tutrocket2,images/tutrocket1,null,images/tutrocket2,NA,1,practice,null,2,NA,NA,NA,sub68
d3-animate-choice,89,544419,0.0-61.0-1.9,FALSE,TRUE,TRUE,FALSE,"""event"",""trial"",""time""
""fullscreenenter"",""5"",""46097""
","
","
","""event"",""trial"",""time""
""fullscreenenter"",""5"",""46097""
","
",1482.1249999949941,NA,49,NA,NA,3000,1,NA,NA,images/tutyellowplanet.jpg,images/tutalien4,images/tutalien3,images/tutrocket2,images/tutalien3,images/nothing.png,2,practice,true,1,common,0,2020-06-20T18:00:01Z,sub68
two-step-fixation,90,545426,0.0-61.0-2.9,FALSE,TRUE,TRUE,FALSE,"""event"",""trial"",""time""
""fullscreenenter"",""5"",""46097""
","
","
","""event"",""trial"",""time""
""fullscreenenter"",""5"",""46097""
","
",NA,images/earth.jpg,NA,NA,NA,NA,NA,NA,NA,NA,NA,NA,NA,NA,NA,fixation,NA,NA,NA,NA,NA,NA,sub68
d3-animate-choice,91,549433,0.0-61.0-0.10,FALSE,TRUE,TRUE,FALSE,"""event"",""trial"",""time""
""fullscreenenter"",""5"",""46097""
","
","
","""event"",""trial"",""time""
""fullscreenenter"",""5"",""46097""
","
",2428.3099999957485,NA,49,NA,NA,3000,1,NA,NA,images/earth.jpg,images/tutrocket2,images/tutrocket1,null,images/tutrocket1,NA,1,practice,null,1,NA,NA,NA,sub68
d3-animate-choice,92,552561,0.0-61.0-1.10,FALSE,TRUE,TRUE,FALSE,"""event"",""trial"",""time""
""fullscreenenter"",""5"",""46097""
","
","
","""event"",""trial"",""time""
""fullscreenenter"",""5"",""46097""
","
",1119.9649999981048,NA,49,NA,NA,3000,1,NA,NA,images/tutgreenplanet.jpg,images/tutalien2,images/tutalien1,images/tutrocket1,images/tutalien1,images/nothing.png,2,practice,true,1,common,0,2020-06-20T18:00:09Z,sub68
two-step-fixation,93,553568,0.0-61.0-2.10,FALSE,TRUE,TRUE,FALSE,"""event"",""trial"",""time""
""fullscreenenter"",""5"",""46097""
","
","
","""event"",""trial"",""time""
""fullscreenenter"",""5"",""46097""
","
",NA,images/earth.jpg,NA,NA,NA,NA,NA,NA,NA,NA,NA,NA,NA,NA,NA,fixation,NA,NA,NA,NA,NA,NA,sub68
d3-animate-choice,94,556625,0.0-61.0-0.11,FALSE,TRUE,TRUE,FALSE,"""event"",""trial"",""time""
""fullscreenenter"",""5"",""46097""
","
","
","""event"",""trial"",""time""
""fullscreenenter"",""5"",""46097""
","
",1051.8400000000838,NA,48,NA,NA,3000,1,NA,NA,images/earth.jpg,images/tutrocket2,images/tutrocket1,null,images/tutrocket2,NA,1,practice,null,2,NA,NA,NA,sub68
d3-animate-choice,95,559941,0.0-61.0-1.11,FALSE,TRUE,TRUE,FALSE,"""event"",""trial"",""time""
""fullscreenenter"",""5"",""46097""
","
","
","""event"",""trial"",""time""
""fullscreenenter"",""5"",""46097""
","
",1309.4150000034133,NA,49,NA,NA,3000,1,NA,NA,images/tutyellowplanet.jpg,images/tutalien4,images/tutalien3,images/tutrocket2,images/tutalien3,images/nothing.png,2,practice,true,1,common,0,2020-06-20T18:00:16Z,sub68
two-step-fixation,96,560950,0.0-61.0-2.11,FALSE,TRUE,TRUE,FALSE,"""event"",""trial"",""time""
""fullscreenenter"",""5"",""46097""
","
","
","""event"",""trial"",""time""
""fullscreenenter"",""5"",""46097""
","
",NA,images/earth.jpg,NA,NA,NA,NA,NA,NA,NA,NA,NA,NA,NA,NA,NA,fixation,NA,NA,NA,NA,NA,NA,sub68
d3-animate-choice,97,564713,0.0-61.0-0.12,FALSE,TRUE,TRUE,FALSE,"""event"",""trial"",""time""
""fullscreenenter"",""5"",""46097""
","
","
","""event"",""trial"",""time""
""fullscreenenter"",""5"",""46097""
","
",1736.495000004652,NA,49,NA,NA,3000,1,NA,NA,images/earth.jpg,images/tutrocket2,images/tutrocket1,null,images/tutrocket1,NA,1,practice,null,1,NA,NA,NA,sub68
d3-animate-choice,98,567875,0.0-61.0-1.12,FALSE,TRUE,TRUE,FALSE,"""event"",""trial"",""time""
""fullscreenenter"",""5"",""46097""
","
","
","""event"",""trial"",""time""
""fullscreenenter"",""5"",""46097""
","
",1138.76500000339,NA,48,NA,NA,3000,1,NA,NA,images/tutgreenplanet.jpg,images/tutalien2,images/tutalien1,images/tutrocket1,images/tutalien2,images/nothing.png,2,practice,true,2,common,0,2020-06-20T18:00:24Z,sub68
two-step-fixation,99,568883,0.0-61.0-2.12,FALSE,TRUE,TRUE,FALSE,"""event"",""trial"",""time""
""fullscreenenter"",""5"",""46097""
","
","
","""event"",""trial"",""time""
""fullscreenenter"",""5"",""46097""
","
",NA,images/earth.jpg,NA,NA,NA,NA,NA,NA,NA,NA,NA,NA,NA,NA,NA,fixation,NA,NA,NA,NA,NA,NA,sub68
d3-animate-choice,100,572511,0.0-61.0-0.13,FALSE,TRUE,TRUE,FALSE,"""event"",""trial"",""time""
""fullscreenenter"",""5"",""46097""
","
","
","""event"",""trial"",""time""
""fullscreenenter"",""5"",""46097""
","
",1622.5149999954738,NA,48,NA,NA,3000,1,NA,NA,images/earth.jpg,images/tutrocket2,images/tutrocket1,null,images/tutrocket2,NA,1,practice,null,2,NA,NA,NA,sub68
d3-animate-choice,101,576517,0.0-61.0-1.13,FALSE,TRUE,TRUE,FALSE,"""event"",""trial"",""time""
""fullscreenenter"",""5"",""46097""
","
","
","""event"",""trial"",""time""
""fullscreenenter"",""5"",""46097""
","
",2643.6800000009825,NA,49,NA,NA,3000,1,NA,NA,images/tutyellowplanet.jpg,images/tutalien4,images/tutalien3,images/tutrocket2,images/tutalien3,NA,2,practice,true,1,common,0,2020-06-20T18:00:33Z,sub68
two-step-fixation,102,577525,0.0-61.0-2.13,FALSE,TRUE,TRUE,FALSE,"""event"",""trial"",""time""
""fullscreenenter"",""5"",""46097""
","
","
","""event"",""trial"",""time""
""fullscreenenter"",""5"",""46097""
","
",NA,images/earth.jpg,NA,NA,NA,NA,NA,NA,NA,NA,NA,NA,NA,NA,NA,fixation,NA,NA,NA,NA,NA,NA,sub68
d3-animate-choice,103,581531,0.0-61.0-0.14,FALSE,TRUE,TRUE,FALSE,"""event"",""trial"",""time""
""fullscreenenter"",""5"",""46097""
","
","
","""event"",""trial"",""time""
""fullscreenenter"",""5"",""46097""
","
",2743.5850000038045,NA,49,NA,NA,3000,1,NA,NA,images/earth.jpg,images/tutrocket2,images/tutrocket1,null,images/tutrocket1,NA,1,practice,null,1,NA,NA,NA,sub68
d3-animate-choice,104,585121,0.0-61.0-1.14,FALSE,TRUE,TRUE,FALSE,"""event"",""trial"",""time""
""fullscreenenter"",""5"",""46097""
","
","
","""event"",""trial"",""time""
""fullscreenenter"",""5"",""46097""
","
",1585.7949999991106,NA,49,NA,NA,3000,1,NA,NA,images/tutyellowplanet.jpg,images/tutalien4,images/tutalien3,images/tutrocket1,images/tutalien3,images/nothing.png,2,practice,false,1,rare,0,2020-06-20T18:00:42Z,sub68
two-step-fixation,105,586128,0.0-61.0-2.14,FALSE,TRUE,TRUE,FALSE,"""event"",""trial"",""time""
""fullscreenenter"",""5"",""46097""
","
","
","""event"",""trial"",""time""
""fullscreenenter"",""5"",""46097""
","
",NA,images/earth.jpg,NA,NA,NA,NA,NA,NA,NA,NA,NA,NA,NA,NA,NA,fixation,NA,NA,NA,NA,NA,NA,sub68
d3-animate-choice,106,590124,0.0-61.0-0.15,FALSE,TRUE,TRUE,FALSE,"""event"",""trial"",""time""
""fullscreenenter"",""5"",""46097""
","
","
","""event"",""trial"",""time""
""fullscreenenter"",""5"",""46097""
","
",1988.4200000015553,NA,49,NA,NA,3000,1,NA,NA,images/earth.jpg,images/tutrocket2,images/tutrocket1,null,images/tutrocket1,NA,1,practice,null,1,NA,NA,NA,sub68
d3-animate-choice,107,594130,0.0-61.0-1.15,FALSE,TRUE,TRUE,FALSE,"""event"",""trial"",""time""
""fullscreenenter"",""5"",""46097""
","
","
","""event"",""trial"",""time""
""fullscreenenter"",""5"",""46097""
","
",2047.119999995688,NA,49,NA,NA,3000,1,NA,NA,images/tutgreenplanet.jpg,images/tutalien2,images/tutalien1,images/tutrocket1,images/tutalien1,images/t.png,2,practice,true,1,common,1,2020-06-20T18:00:51Z,sub68
two-step-fixation,108,595138,0.0-61.0-2.15,FALSE,TRUE,TRUE,FALSE,"""event"",""trial"",""time""
""fullscreenenter"",""5"",""46097""
","
","
","""event"",""trial"",""time""
""fullscreenenter"",""5"",""46097""
","
",NA,images/earth.jpg,NA,NA,NA,NA,NA,NA,NA,NA,NA,NA,NA,NA,NA,fixation,NA,NA,NA,NA,NA,NA,sub68
d3-animate-choice,109,598745,0.0-61.0-0.16,FALSE,TRUE,TRUE,FALSE,"""event"",""trial"",""time""
""fullscreenenter"",""5"",""46097""
","
","
","""event"",""trial"",""time""
""fullscreenenter"",""5"",""46097""
","
",1600.1900000047171,NA,49,NA,NA,3000,1,NA,NA,images/earth.jpg,images/tutrocket2,images/tutrocket1,null,images/tutrocket1,NA,1,practice,null,1,NA,NA,NA,sub68
d3-animate-choice,110,601506,0.0-61.0-1.16,FALSE,TRUE,TRUE,FALSE,"""event"",""trial"",""time""
""fullscreenenter"",""5"",""46097""
","
","
","""event"",""trial"",""time""
""fullscreenenter"",""5"",""46097""
","
",754.4400000042515,NA,49,NA,NA,3000,1,NA,NA,images/tutgreenplanet.jpg,images/tutalien2,images/tutalien1,images/tutrocket1,images/tutalien1,images/nothing.png,2,practice,true,1,common,0,2020-06-20T18:00:58Z,sub68
two-step-fixation,111,602510,0.0-61.0-2.16,FALSE,TRUE,TRUE,FALSE,"""event"",""trial"",""time""
""fullscreenenter"",""5"",""46097""
","
","
","""event"",""trial"",""time""
""fullscreenenter"",""5"",""46097""
","
",NA,images/earth.jpg,NA,NA,NA,NA,NA,NA,NA,NA,NA,NA,NA,NA,NA,fixation,NA,NA,NA,NA,NA,NA,sub68
d3-animate-choice,112,605506,0.0-61.0-0.17,FALSE,TRUE,TRUE,FALSE,"""event"",""trial"",""time""
""fullscreenenter"",""5"",""46097""
","
","
","""event"",""trial"",""time""
""fullscreenenter"",""5"",""46097""
","
",991.5649999965681,NA,49,NA,NA,3000,1,NA,NA,images/earth.jpg,images/tutrocket2,images/tutrocket1,null,images/tutrocket1,NA,1,practice,null,1,NA,NA,NA,sub68
d3-animate-choice,113,608539,0.0-61.0-1.17,FALSE,TRUE,TRUE,FALSE,"""event"",""trial"",""time""
""fullscreenenter"",""5"",""46097""
","
","
","""event"",""trial"",""time""
""fullscreenenter"",""5"",""46097""
","
",1024.4400000009919,NA,49,NA,NA,3000,1,NA,NA,images/tutyellowplanet.jpg,images/tutalien4,images/tutalien3,images/tutrocket1,images/tutalien3,images/t.png,2,practice,false,1,rare,1,2020-06-20T18:01:05Z,sub68
two-step-fixation,114,609547,0.0-61.0-2.17,FALSE,TRUE,TRUE,FALSE,"""event"",""trial"",""time""
""fullscreenenter"",""5"",""46097""
","
","
","""event"",""trial"",""time""
""fullscreenenter"",""5"",""46097""
","
",NA,images/earth.jpg,NA,NA,NA,NA,NA,NA,NA,NA,NA,NA,NA,NA,NA,fixation,NA,NA,NA,NA,NA,NA,sub68
d3-animate-choice,115,612535,0.0-61.0-0.18,FALSE,TRUE,TRUE,FALSE,"""event"",""trial"",""time""
""fullscreenenter"",""5"",""46097""
","
","
","""event"",""trial"",""time""
""fullscreenenter"",""5"",""46097""
","
",980.8000000048196,NA,49,NA,NA,3000,1,NA,NA,images/earth.jpg,images/tutrocket2,images/tutrocket1,null,images/tutrocket1,NA,1,practice,null,1,NA,NA,NA,sub68
d3-animate-choice,116,616538,0.0-61.0-1.18,FALSE,TRUE,TRUE,FALSE,"""event"",""trial"",""time""
""fullscreenenter"",""5"",""46097""
","
","
","""event"",""trial"",""time""
""fullscreenenter"",""5"",""46097""
","
",2033.2550000019837,NA,49,NA,NA,3000,1,NA,NA,images/tutyellowplanet.jpg,images/tutalien4,images/tutalien3,images/tutrocket1,images/tutalien3,images/nothing.png,2,practice,false,1,rare,0,2020-06-20T18:01:13Z,sub68
two-step-fixation,117,617545,0.0-61.0-2.18,FALSE,TRUE,TRUE,FALSE,"""event"",""trial"",""time""
""fullscreenenter"",""5"",""46097""
","
","
","""event"",""trial"",""time""
""fullscreenenter"",""5"",""46097""
","
",NA,images/earth.jpg,NA,NA,NA,NA,NA,NA,NA,NA,NA,NA,NA,NA,NA,fixation,NA,NA,NA,NA,NA,NA,sub68
d3-animate-choice,118,621210,0.0-61.0-0.19,FALSE,TRUE,TRUE,FALSE,"""event"",""trial"",""time""
""fullscreenenter"",""5"",""46097""
","
","
","""event"",""trial"",""time""
""fullscreenenter"",""5"",""46097""
","
",1658.049999998184,NA,48,NA,NA,3000,1,NA,NA,images/earth.jpg,images/tutrocket2,images/tutrocket1,null,images/tutrocket2,NA,1,practice,null,2,NA,NA,NA,sub68
d3-animate-choice,119,625219,0.0-61.0-1.19,FALSE,TRUE,TRUE,FALSE,"""event"",""trial"",""time""
""fullscreenenter"",""5"",""46097""
","
","
","""event"",""trial"",""time""
""fullscreenenter"",""5"",""46097""
","
",2101.975000005099,NA,48,NA,NA,3000,1,NA,NA,images/tutyellowplanet.jpg,images/tutalien4,images/tutalien3,images/tutrocket2,images/tutalien4,images/nothing.png,2,practice,true,2,common,0,2020-06-20T18:01:22Z,sub68
two-step-fixation,120,626227,0.0-61.0-2.19,FALSE,TRUE,TRUE,FALSE,"""event"",""trial"",""time""
""fullscreenenter"",""5"",""46097""
","
","
","""event"",""trial"",""time""
""fullscreenenter"",""5"",""46097""
","
",NA,images/earth.jpg,NA,NA,NA,NA,NA,NA,NA,NA,NA,NA,NA,NA,NA,fixation,NA,NA,NA,NA,NA,NA,sub68
d3-instructions,121,634508,0.0-62.0,FALSE,TRUE,TRUE,FALSE,"""event"",""trial"",""time""
""fullscreenenter"",""5"",""46097""
","
","
","""event"",""trial"",""time""
""fullscreenenter"",""5"",""46097""
","
",NA,NA,NA,NA,NA,NA,NA,NA,NA,NA,NA,NA,NA,NA,NA,NA,NA,NA,NA,NA,NA,NA,sub68
audio-keyboard-response,122,640309,0.0-63.0,FALSE,TRUE,TRUE,FALSE,"""event"",""trial"",""time""
""fullscreenenter"",""5"",""46097""
","
","
","""event"",""trial"",""time""
""fullscreenenter"",""5"",""46097""
","
",5789,audio/instructions/treasure_feedback.wav,32,NA,NA,NA,NA,NA,NA,NA,NA,NA,NA,NA,NA,NA,NA,NA,NA,NA,NA,NA,sub68
d3-instructions,123,664912,0.0-64.0,FALSE,TRUE,TRUE,FALSE,"""event"",""trial"",""time""
""fullscreenenter"",""5"",""46097""
","
","
","""event"",""trial"",""time""
""fullscreenenter"",""5"",""46097""
","
",NA,NA,NA,NA,NA,NA,NA,NA,NA,NA,NA,NA,NA,NA,NA,NA,NA,NA,NA,NA,NA,NA,sub68
d3-instructions,124,685852,0.0-65.0,FALSE,TRUE,TRUE,FALSE,"""event"",""trial"",""time""
""fullscreenenter"",""5"",""46097""
","
","
","""event"",""trial"",""time""
""fullscreenenter"",""5"",""46097""
","
",NA,NA,NA,NA,NA,NA,NA,NA,NA,NA,NA,NA,NA,NA,NA,NA,NA,NA,NA,NA,NA,NA,sub68
d3-instructions,125,713960,0.0-66.0,FALSE,TRUE,TRUE,FALSE,"""event"",""trial"",""time""
""fullscreenenter"",""5"",""46097""
","
","
","""event"",""trial"",""time""
""fullscreenenter"",""5"",""46097""
","
",NA,NA,NA,NA,NA,NA,NA,NA,NA,NA,NA,NA,NA,NA,NA,NA,NA,NA,NA,NA,NA,NA,sub68
d3-instructions,126,734347,0.0-67.0,FALSE,TRUE,TRUE,FALSE,"""event"",""trial"",""time""
""fullscreenenter"",""5"",""46097""
","
","
","""event"",""trial"",""time""
""fullscreenenter"",""5"",""46097""
","
",NA,NA,NA,NA,NA,NA,NA,NA,NA,NA,NA,NA,NA,NA,NA,NA,NA,NA,NA,NA,NA,NA,sub68
d3-instructions,127,747012,0.0-68.0,FALSE,TRUE,TRUE,FALSE,"""event"",""trial"",""time""
""fullscreenenter"",""5"",""46097""
","
","
","""event"",""trial"",""time""
""fullscreenenter"",""5"",""46097""
","
",NA,NA,NA,NA,NA,NA,NA,NA,NA,NA,NA,NA,NA,NA,NA,NA,NA,NA,NA,NA,NA,NA,sub68
instructions-quiz,128,750566,0.0-69.0,FALSE,TRUE,TRUE,FALSE,"""event"",""trial"",""time""
""fullscreenenter"",""5"",""46097""
","
","
","""event"",""trial"",""time""
""fullscreenenter"",""5"",""46097""
","
",3550.1750000040047,audio/quiz/Q1_Prompt.wav,NA,1,NA,NA,NA,NA,NA,NA,NA,NA,NA,NA,NA,NA,NA,NA,NA,NA,NA,NA,sub68
audio-keyboard-response,129,759730,0.0-70.0,FALSE,TRUE,TRUE,FALSE,"""event"",""trial"",""time""
""fullscreenenter"",""5"",""46097""
","
","
","""event"",""trial"",""time""
""fullscreenenter"",""5"",""46097""
","
",null,audio/quiz/Q1_Correct.wav,null,NA,NA,NA,NA,NA,NA,NA,NA,NA,NA,NA,NA,NA,NA,NA,NA,NA,NA,NA,sub68
instructions-quiz,130,764916,0.0-71.0,FALSE,TRUE,TRUE,FALSE,"""event"",""trial"",""time""
""fullscreenenter"",""5"",""46097""
","
","
","""event"",""trial"",""time""
""fullscreenenter"",""5"",""46097""
","
",5183.899999996298,audio/quiz/Q2_Prompt.wav,NA,0,NA,NA,NA,NA,NA,NA,NA,NA,NA,NA,NA,NA,NA,NA,NA,NA,NA,NA,sub68
audio-keyboard-response,131,777781,0.0-72.0,FALSE,TRUE,TRUE,FALSE,"""event"",""trial"",""time""
""fullscreenenter"",""5"",""46097""
","
","
","""event"",""trial"",""time""
""fullscreenenter"",""5"",""46097""
","
",null,audio/quiz/Q2_Correct.wav,null,NA,NA,NA,NA,NA,NA,NA,NA,NA,NA,NA,NA,NA,NA,NA,NA,NA,NA,NA,sub68
instructions-quiz,132,782143,0.0-73.0,FALSE,TRUE,TRUE,FALSE,"""event"",""trial"",""time""
""fullscreenenter"",""5"",""46097""
","
","
","""event"",""trial"",""time""
""fullscreenenter"",""5"",""46097""
","
",4359.6399999951245,audio/quiz/Q3_Prompt.wav,NA,1,NA,NA,NA,NA,NA,NA,NA,NA,NA,NA,NA,NA,NA,NA,NA,NA,NA,NA,sub68
audio-keyboard-response,133,787940,0.0-74.0,FALSE,TRUE,TRUE,FALSE,"""event"",""trial"",""time""
""fullscreenenter"",""5"",""46097""
","
","
","""event"",""trial"",""time""
""fullscreenenter"",""5"",""46097""
","
",null,audio/quiz/Q3_Correct.wav,null,NA,NA,NA,NA,NA,NA,NA,NA,NA,NA,NA,NA,NA,NA,NA,NA,NA,NA,NA,sub68
d3-instructions,134,818425,0.0-75.0,FALSE,TRUE,TRUE,FALSE,"""event"",""trial"",""time""
""fullscreenenter"",""5"",""46097""
","
","
","""event"",""trial"",""time""
""fullscreenenter"",""5"",""46097""
","
",NA,NA,NA,NA,NA,NA,NA,NA,NA,NA,NA,NA,NA,NA,NA,NA,NA,NA,NA,NA,NA,NA,sub68
d3-animate-choice,135,821397,0.0-76.0-0.0,FALSE,TRUE,TRUE,FALSE,"""event"",""trial"",""time""
""fullscreenenter"",""5"",""46097""
","
","
","""event"",""trial"",""time""
""fullscreenenter"",""5"",""46097""
","
",963.1149999985937,NA,49,NA,NA,3000,1,NA,NA,images/earth.jpg,images/rocket1,images/rocket2,null,images/rocket2,NA,1,real,null,1,NA,NA,NA,sub68
d3-animate-choice,136,824523,0.0-76.0-1.0,FALSE,TRUE,TRUE,FALSE,"""event"",""trial"",""time""
""fullscreenenter"",""5"",""46097""
","
","
","""event"",""trial"",""time""
""fullscreenenter"",""5"",""46097""
","
",1118.5149999947753,NA,49,NA,NA,3000,1,NA,NA,images/purpleplanet.jpg,images/alien4,images/alien3,images/rocket2,images/alien3,images/nothing.png,2,real,true,1,common,0,2020-06-20T18:04:41Z,sub68
two-step-fixation,137,825530,0.0-76.0-2.0,FALSE,TRUE,TRUE,FALSE,"""event"",""trial"",""time""
""fullscreenenter"",""5"",""46097""
","
","
","""event"",""trial"",""time""
""fullscreenenter"",""5"",""46097""
","
",NA,images/earth.jpg,NA,NA,NA,NA,NA,NA,NA,NA,NA,NA,NA,NA,NA,fixation,NA,NA,NA,NA,NA,NA,sub68
d3-animate-choice,138,829537,0.0-76.0-0.1,FALSE,TRUE,TRUE,FALSE,"""event"",""trial"",""time""
""fullscreenenter"",""5"",""46097""
","
","
","""event"",""trial"",""time""
""fullscreenenter"",""5"",""46097""
","
",2002.3999999975786,NA,48,NA,NA,3000,1,NA,NA,images/earth.jpg,images/rocket1,images/rocket2,null,images/rocket1,NA,1,real,null,2,NA,NA,NA,sub68
d3-animate-choice,139,832263,0.0-76.0-1.1,FALSE,TRUE,TRUE,FALSE,"""event"",""trial"",""time""
""fullscreenenter"",""5"",""46097""
","
","
","""event"",""trial"",""time""
""fullscreenenter"",""5"",""46097""
","
",719.7849999938626,NA,49,NA,NA,3000,1,NA,NA,images/redplanet1.jpg,images/alien2,images/alien1,images/rocket1,images/alien1,images/t.png,2,real,true,1,common,1,2020-06-20T18:04:49Z,sub68
two-step-fixation,140,833270,0.0-76.0-2.1,FALSE,TRUE,TRUE,FALSE,"""event"",""trial"",""time""
""fullscreenenter"",""5"",""46097""
","
","
","""event"",""trial"",""time""
""fullscreenenter"",""5"",""46097""
","
",NA,images/earth.jpg,NA,NA,NA,NA,NA,NA,NA,NA,NA,NA,NA,NA,NA,fixation,NA,NA,NA,NA,NA,NA,sub68
d3-animate-choice,141,836390,0.0-76.0-0.2,FALSE,TRUE,TRUE,FALSE,"""event"",""trial"",""time""
""fullscreenenter"",""5"",""46097""
","
","
","""event"",""trial"",""time""
""fullscreenenter"",""5"",""46097""
","
",1108.704999998794,NA,49,NA,NA,3000,1,NA,NA,images/earth.jpg,images/rocket1,images/rocket2,null,images/rocket2,NA,1,real,null,1,NA,NA,NA,sub68
d3-animate-choice,142,839019,0.0-76.0-1.2,FALSE,TRUE,TRUE,FALSE,"""event"",""trial"",""time""
""fullscreenenter"",""5"",""46097""
","
","
","""event"",""trial"",""time""
""fullscreenenter"",""5"",""46097""
","
",622.1300000033807,NA,48,NA,NA,3000,1,NA,NA,images/redplanet1.jpg,images/alien2,images/alien1,images/rocket2,images/alien2,images/nothing.png,2,real,false,2,rare,0,2020-06-20T18:04:55Z,sub68
two-step-fixation,143,840026,0.0-76.0-2.2,FALSE,TRUE,TRUE,FALSE,"""event"",""trial"",""time""
""fullscreenenter"",""5"",""46097""
","
","
","""event"",""trial"",""time""
""fullscreenenter"",""5"",""46097""
","
",NA,images/earth.jpg,NA,NA,NA,NA,NA,NA,NA,NA,NA,NA,NA,NA,NA,fixation,NA,NA,NA,NA,NA,NA,sub68
d3-animate-choice,144,844015,0.0-76.0-0.3,FALSE,TRUE,TRUE,FALSE,"""event"",""trial"",""time""
""fullscreenenter"",""5"",""46097""
","
","
","""event"",""trial"",""time""
""fullscreenenter"",""5"",""46097""
","
",1970.69499999634,NA,48,NA,NA,3000,1,NA,NA,images/earth.jpg,images/rocket1,images/rocket2,null,images/rocket1,NA,1,real,null,2,NA,NA,NA,sub68
d3-animate-choice,145,846474,0.0-76.0-1.3,FALSE,TRUE,TRUE,FALSE,"""event"",""trial"",""time""
""fullscreenenter"",""5"",""46097""
","
","
","""event"",""trial"",""time""
""fullscreenenter"",""5"",""46097""
","
",440.1949999956414,NA,48,NA,NA,3000,1,NA,NA,images/redplanet1.jpg,images/alien2,images/alien1,images/rocket1,images/alien2,images/t.png,2,real,true,2,common,1,2020-06-20T18:05:03Z,sub68
two-step-fixation,146,847482,0.0-76.0-2.3,FALSE,TRUE,TRUE,FALSE,"""event"",""trial"",""time""
""fullscreenenter"",""5"",""46097""
","
","
","""event"",""trial"",""time""
""fullscreenenter"",""5"",""46097""
","
",NA,images/earth.jpg,NA,NA,NA,NA,NA,NA,NA,NA,NA,NA,NA,NA,NA,fixation,NA,NA,NA,NA,NA,NA,sub68
d3-animate-choice,147,851488,0.0-76.0-0.4,FALSE,TRUE,TRUE,FALSE,"""event"",""trial"",""time""
""fullscreenenter"",""5"",""46097""
","
","
","""event"",""trial"",""time""
""fullscreenenter"",""5"",""46097""
","
",2123.684999998659,NA,48,NA,NA,3000,1,NA,NA,images/earth.jpg,images/rocket1,images/rocket2,null,images/rocket1,NA,1,real,null,2,NA,NA,NA,sub68
d3-animate-choice,148,854226,0.0-76.0-1.4,FALSE,TRUE,TRUE,FALSE,"""event"",""trial"",""time""
""fullscreenenter"",""5"",""46097""
","
","
","""event"",""trial"",""time""
""fullscreenenter"",""5"",""46097""
","
",730.1650000008522,NA,49,NA,NA,3000,1,NA,NA,images/redplanet1.jpg,images/alien2,images/alien1,images/rocket1,images/alien1,images/t.png,2,real,true,1,common,1,2020-06-20T18:05:11Z,sub68
two-step-fixation,149,855234,0.0-76.0-2.4,FALSE,TRUE,TRUE,FALSE,"""event"",""trial"",""time""
""fullscreenenter"",""5"",""46097""
","
","
","""event"",""trial"",""time""
""fullscreenenter"",""5"",""46097""
","
",NA,images/earth.jpg,NA,NA,NA,NA,NA,NA,NA,NA,NA,NA,NA,NA,NA,fixation,NA,NA,NA,NA,NA,NA,sub68
d3-animate-choice,150,858537,0.0-76.0-0.5,FALSE,TRUE,TRUE,FALSE,"""event"",""trial"",""time""
""fullscreenenter"",""5"",""46097""
","
","
","""event"",""trial"",""time""
""fullscreenenter"",""5"",""46097""
","
",1294.4750000024214,NA,48,NA,NA,3000,1,NA,NA,images/earth.jpg,images/rocket1,images/rocket2,null,images/rocket1,NA,1,real,null,2,NA,NA,NA,sub68
d3-animate-choice,151,861511,0.0-76.0-1.5,FALSE,TRUE,TRUE,FALSE,"""event"",""trial"",""time""
""fullscreenenter"",""5"",""46097""
","
","
","""event"",""trial"",""time""
""fullscreenenter"",""5"",""46097""
","
",966.8799999998882,NA,48,NA,NA,3000,1,NA,NA,images/redplanet1.jpg,images/alien2,images/alien1,images/rocket1,images/alien2,images/nothing.png,2,real,true,2,common,0,2020-06-20T18:05:18Z,sub68
two-step-fixation,152,862519,0.0-76.0-2.5,FALSE,TRUE,TRUE,FALSE,"""event"",""trial"",""time""
""fullscreenenter"",""5"",""46097""
","
","
","""event"",""trial"",""time""
""fullscreenenter"",""5"",""46097""
","
",NA,images/earth.jpg,NA,NA,NA,NA,NA,NA,NA,NA,NA,NA,NA,NA,NA,fixation,NA,NA,NA,NA,NA,NA,sub68
d3-animate-choice,153,865863,0.0-76.0-0.6,FALSE,TRUE,TRUE,FALSE,"""event"",""trial"",""time""
""fullscreenenter"",""5"",""46097""
","
","
","""event"",""trial"",""time""
""fullscreenenter"",""5"",""46097""
","
",1336.7050000014715,NA,48,NA,NA,3000,1,NA,NA,images/earth.jpg,images/rocket1,images/rocket2,null,images/rocket1,NA,1,real,null,2,NA,NA,NA,sub68
d3-animate-choice,154,868695,0.0-76.0-1.6,FALSE,TRUE,TRUE,FALSE,"""event"",""trial"",""time""
""fullscreenenter"",""5"",""46097""
","
","
","""event"",""trial"",""time""
""fullscreenenter"",""5"",""46097""
","
",826.6850000000559,NA,49,NA,NA,3000,1,NA,NA,images/redplanet1.jpg,images/alien2,images/alien1,images/rocket1,images/alien1,images/nothing.png,2,real,true,1,common,0,2020-06-20T18:05:25Z,sub68
two-step-fixation,155,869702,0.0-76.0-2.6,FALSE,TRUE,TRUE,FALSE,"""event"",""trial"",""time""
""fullscreenenter"",""5"",""46097""
","
","
","""event"",""trial"",""time""
""fullscreenenter"",""5"",""46097""
","
",NA,images/earth.jpg,NA,NA,NA,NA,NA,NA,NA,NA,NA,NA,NA,NA,NA,fixation,NA,NA,NA,NA,NA,NA,sub68
d3-animate-choice,156,873569,0.0-76.0-0.7,FALSE,TRUE,TRUE,FALSE,"""event"",""trial"",""time""
""fullscreenenter"",""5"",""46097""
","
","
","""event"",""trial"",""time""
""fullscreenenter"",""5"",""46097""
","
",1860.1149999957997,NA,49,NA,NA,3000,1,NA,NA,images/earth.jpg,images/rocket1,images/rocket2,null,images/rocket2,NA,1,real,null,1,NA,NA,NA,sub68
d3-animate-choice,157,876939,0.0-76.0-1.7,FALSE,TRUE,TRUE,FALSE,"""event"",""trial"",""time""
""fullscreenenter"",""5"",""46097""
","
","
","""event"",""trial"",""time""
""fullscreenenter"",""5"",""46097""
","
",1361.4799999996321,NA,49,NA,NA,3000,1,NA,NA,images/purpleplanet.jpg,images/alien4,images/alien3,images/rocket2,images/alien3,images/t.png,2,real,true,1,common,1,2020-06-20T18:05:33Z,sub68
two-step-fixation,158,877946,0.0-76.0-2.7,FALSE,TRUE,TRUE,FALSE,"""event"",""trial"",""time""
""fullscreenenter"",""5"",""46097""
","
","
","""event"",""trial"",""time""
""fullscreenenter"",""5"",""46097""
","
",NA,images/earth.jpg,NA,NA,NA,NA,NA,NA,NA,NA,NA,NA,NA,NA,NA,fixation,NA,NA,NA,NA,NA,NA,sub68
d3-animate-choice,159,881112,0.0-76.0-0.8,FALSE,TRUE,TRUE,FALSE,"""event"",""trial"",""time""
""fullscreenenter"",""5"",""46097""
","
","
","""event"",""trial"",""time""
""fullscreenenter"",""5"",""46097""
","
",1158.5750000013504,NA,49,NA,NA,3000,1,NA,NA,images/earth.jpg,images/rocket1,images/rocket2,null,images/rocket2,NA,1,real,null,1,NA,NA,NA,sub68
d3-animate-choice,160,884498,0.0-76.0-1.8,FALSE,TRUE,TRUE,FALSE,"""event"",""trial"",""time""
""fullscreenenter"",""5"",""46097""
","
","
","""event"",""trial"",""time""
""fullscreenenter"",""5"",""46097""
","
",1378.9249999972526,NA,49,NA,NA,3000,1,NA,NA,images/redplanet1.jpg,images/alien2,images/alien1,images/rocket2,images/alien1,images/t.png,2,real,false,1,rare,1,2020-06-20T18:05:41Z,sub68
two-step-fixation,161,885506,0.0-76.0-2.8,FALSE,TRUE,TRUE,FALSE,"""event"",""trial"",""time""
""fullscreenenter"",""5"",""46097""
","
","
","""event"",""trial"",""time""
""fullscreenenter"",""5"",""46097""
","
",NA,images/earth.jpg,NA,NA,NA,NA,NA,NA,NA,NA,NA,NA,NA,NA,NA,fixation,NA,NA,NA,NA,NA,NA,sub68
d3-animate-choice,162,889513,0.0-76.0-0.9,FALSE,TRUE,TRUE,FALSE,"""event"",""trial"",""time""
""fullscreenenter"",""5"",""46097""
","
","
","""event"",""trial"",""time""
""fullscreenenter"",""5"",""46097""
","
",2122.7999999972526,NA,49,NA,NA,3000,1,NA,NA,images/earth.jpg,images/rocket1,images/rocket2,null,images/rocket2,NA,1,real,null,1,NA,NA,NA,sub68
d3-animate-choice,163,892377,0.0-76.0-1.9,FALSE,TRUE,TRUE,FALSE,"""event"",""trial"",""time""
""fullscreenenter"",""5"",""46097""
","
","
","""event"",""trial"",""time""
""fullscreenenter"",""5"",""46097""
","
",859.9499999982072,NA,49,NA,NA,3000,1,NA,NA,images/purpleplanet.jpg,images/alien4,images/alien3,images/rocket2,images/alien3,images/nothing.png,2,real,true,1,common,0,2020-06-20T18:05:49Z,sub68
two-step-fixation,164,893384,0.0-76.0-2.9,FALSE,TRUE,TRUE,FALSE,"""event"",""trial"",""time""
""fullscreenenter"",""5"",""46097""
","
","
","""event"",""trial"",""time""
""fullscreenenter"",""5"",""46097""
","
",NA,images/earth.jpg,NA,NA,NA,NA,NA,NA,NA,NA,NA,NA,NA,NA,NA,fixation,NA,NA,NA,NA,NA,NA,sub68
d3-animate-choice,165,897392,0.0-76.0-0.10,FALSE,TRUE,TRUE,FALSE,"""event"",""trial"",""time""
""fullscreenenter"",""5"",""46097""
","
","
","""event"",""trial"",""time""
""fullscreenenter"",""5"",""46097""
","
",2554.454999997746,NA,48,NA,NA,3000,1,NA,NA,images/earth.jpg,images/rocket1,images/rocket2,null,images/rocket1,NA,1,real,null,2,NA,NA,NA,sub68
d3-animate-choice,166,901168,0.0-76.0-1.10,FALSE,TRUE,TRUE,FALSE,"""event"",""trial"",""time""
""fullscreenenter"",""5"",""46097""
","
","
","""event"",""trial"",""time""
""fullscreenenter"",""5"",""46097""
","
",1768.884999997681,NA,49,NA,NA,3000,1,NA,NA,images/redplanet1.jpg,images/alien2,images/alien1,images/rocket1,images/alien1,images/t.png,2,real,true,1,common,1,2020-06-20T18:05:58Z,sub68
two-step-fixation,167,902175,0.0-76.0-2.10,FALSE,TRUE,TRUE,FALSE,"""event"",""trial"",""time""
""fullscreenenter"",""5"",""46097""
","
","
","""event"",""trial"",""time""
""fullscreenenter"",""5"",""46097""
","
",NA,images/earth.jpg,NA,NA,NA,NA,NA,NA,NA,NA,NA,NA,NA,NA,NA,fixation,NA,NA,NA,NA,NA,NA,sub68
d3-animate-choice,168,905901,0.0-76.0-0.11,FALSE,TRUE,TRUE,FALSE,"""event"",""trial"",""time""
""fullscreenenter"",""5"",""46097""
","
","
","""event"",""trial"",""time""
""fullscreenenter"",""5"",""46097""
","
",1722.3249999951804,NA,48,NA,NA,3000,1,NA,NA,images/earth.jpg,images/rocket1,images/rocket2,null,images/rocket1,NA,1,real,null,2,NA,NA,NA,sub68
d3-animate-choice,169,908648,0.0-76.0-1.11,FALSE,TRUE,TRUE,FALSE,"""event"",""trial"",""time""
""fullscreenenter"",""5"",""46097""
","
","
","""event"",""trial"",""time""
""fullscreenenter"",""5"",""46097""
","
",737.9849999998696,NA,49,NA,NA,3000,1,NA,NA,images/redplanet1.jpg,images/alien2,images/alien1,images/rocket1,images/alien1,images/nothing.png,2,real,true,1,common,0,2020-06-20T18:06:05Z,sub68
two-step-fixation,170,909656,0.0-76.0-2.11,FALSE,TRUE,TRUE,FALSE,"""event"",""trial"",""time""
""fullscreenenter"",""5"",""46097""
","
","
","""event"",""trial"",""time""
""fullscreenenter"",""5"",""46097""
","
",NA,images/earth.jpg,NA,NA,NA,NA,NA,NA,NA,NA,NA,NA,NA,NA,NA,fixation,NA,NA,NA,NA,NA,NA,sub68
d3-animate-choice,171,912755,0.0-76.0-0.12,FALSE,TRUE,TRUE,FALSE,"""event"",""trial"",""time""
""fullscreenenter"",""5"",""46097""
","
","
","""event"",""trial"",""time""
""fullscreenenter"",""5"",""46097""
","
",1091.5949999981094,NA,49,NA,NA,3000,1,NA,NA,images/earth.jpg,images/rocket1,images/rocket2,null,images/rocket2,NA,1,real,null,1,NA,NA,NA,sub68
d3-animate-choice,172,915284,0.0-76.0-1.12,FALSE,TRUE,TRUE,FALSE,"""event"",""trial"",""time""
""fullscreenenter"",""5"",""46097""
","
","
","""event"",""trial"",""time""
""fullscreenenter"",""5"",""46097""
","
",523.7600000037346,NA,48,NA,NA,3000,1,NA,NA,images/purpleplanet.jpg,images/alien4,images/alien3,images/rocket2,images/alien4,images/nothing.png,2,real,true,2,common,0,2020-06-20T18:06:12Z,sub68
two-step-fixation,173,916292,0.0-76.0-2.12,FALSE,TRUE,TRUE,FALSE,"""event"",""trial"",""time""
""fullscreenenter"",""5"",""46097""
","
","
","""event"",""trial"",""time""
""fullscreenenter"",""5"",""46097""
","
",NA,images/earth.jpg,NA,NA,NA,NA,NA,NA,NA,NA,NA,NA,NA,NA,NA,fixation,NA,NA,NA,NA,NA,NA,sub68
d3-animate-choice,174,919024,0.0-76.0-0.13,FALSE,TRUE,TRUE,FALSE,"""event"",""trial"",""time""
""fullscreenenter"",""5"",""46097""
","
","
","""event"",""trial"",""time""
""fullscreenenter"",""5"",""46097""
","
",725.2200000003213,NA,49,NA,NA,3000,1,NA,NA,images/earth.jpg,images/rocket1,images/rocket2,null,images/rocket2,NA,1,real,null,1,NA,NA,NA,sub68
d3-animate-choice,175,921854,0.0-76.0-1.13,FALSE,TRUE,TRUE,FALSE,"""event"",""trial"",""time""
""fullscreenenter"",""5"",""46097""
","
","
","""event"",""trial"",""time""
""fullscreenenter"",""5"",""46097""
","
",821.5749999943655,NA,49,NA,NA,3000,1,NA,NA,images/purpleplanet.jpg,images/alien4,images/alien3,images/rocket2,images/alien3,images/nothing.png,2,real,true,1,common,0,2020-06-20T18:06:18Z,sub68
two-step-fixation,176,922862,0.0-76.0-2.13,FALSE,TRUE,TRUE,FALSE,"""event"",""trial"",""time""
""fullscreenenter"",""5"",""46097""
","
","
","""event"",""trial"",""time""
""fullscreenenter"",""5"",""46097""
","
",NA,images/earth.jpg,NA,NA,NA,NA,NA,NA,NA,NA,NA,NA,NA,NA,NA,fixation,NA,NA,NA,NA,NA,NA,sub68
d3-animate-choice,177,925930,0.0-76.0-0.14,FALSE,TRUE,TRUE,FALSE,"""event"",""trial"",""time""
""fullscreenenter"",""5"",""46097""
","
","
","""event"",""trial"",""time""
""fullscreenenter"",""5"",""46097""
","
",1057.860000000801,NA,48,NA,NA,3000,1,NA,NA,images/earth.jpg,images/rocket1,images/rocket2,null,images/rocket1,NA,1,real,null,2,NA,NA,NA,sub68
d3-animate-choice,178,928533,0.0-76.0-1.14,FALSE,TRUE,TRUE,FALSE,"""event"",""trial"",""time""
""fullscreenenter"",""5"",""46097""
","
","
","""event"",""trial"",""time""
""fullscreenenter"",""5"",""46097""
","
",596.5149999973364,NA,49,NA,NA,3000,1,NA,NA,images/redplanet1.jpg,images/alien2,images/alien1,images/rocket1,images/alien1,images/nothing.png,2,real,true,1,common,0,2020-06-20T18:06:25Z,sub68
two-step-fixation,179,929540,0.0-76.0-2.14,FALSE,TRUE,TRUE,FALSE,"""event"",""trial"",""time""
""fullscreenenter"",""5"",""46097""
","
","
","""event"",""trial"",""time""
""fullscreenenter"",""5"",""46097""
","
",NA,images/earth.jpg,NA,NA,NA,NA,NA,NA,NA,NA,NA,NA,NA,NA,NA,fixation,NA,NA,NA,NA,NA,NA,sub68
d3-animate-choice,180,933245,0.0-76.0-0.15,FALSE,TRUE,TRUE,FALSE,"""event"",""trial"",""time""
""fullscreenenter"",""5"",""46097""
","
","
","""event"",""trial"",""time""
""fullscreenenter"",""5"",""46097""
","
",1697.7200000038138,NA,49,NA,NA,3000,1,NA,NA,images/earth.jpg,images/rocket1,images/rocket2,null,images/rocket2,NA,1,real,null,1,NA,NA,NA,sub68
d3-animate-choice,181,935760,0.0-76.0-1.15,FALSE,TRUE,TRUE,FALSE,"""event"",""trial"",""time""
""fullscreenenter"",""5"",""46097""
","
","
","""event"",""trial"",""time""
""fullscreenenter"",""5"",""46097""
","
",508.2849999961909,NA,49,NA,NA,3000,1,NA,NA,images/redplanet1.jpg,images/alien2,images/alien1,images/rocket2,images/alien1,images/nothing.png,2,real,false,1,rare,0,2020-06-20T18:06:32Z,sub68
two-step-fixation,182,936767,0.0-76.0-2.15,FALSE,TRUE,TRUE,FALSE,"""event"",""trial"",""time""
""fullscreenenter"",""5"",""46097""
","
","
","""event"",""trial"",""time""
""fullscreenenter"",""5"",""46097""
","
",NA,images/earth.jpg,NA,NA,NA,NA,NA,NA,NA,NA,NA,NA,NA,NA,NA,fixation,NA,NA,NA,NA,NA,NA,sub68
d3-animate-choice,183,940543,0.0-76.0-0.16,FALSE,TRUE,TRUE,FALSE,"""event"",""trial"",""time""
""fullscreenenter"",""5"",""46097""
","
","
","""event"",""trial"",""time""
""fullscreenenter"",""5"",""46097""
","
",1768.9400000018068,NA,48,NA,NA,3000,1,NA,NA,images/earth.jpg,images/rocket1,images/rocket2,null,images/rocket1,NA,1,real,null,2,NA,NA,NA,sub68
d3-animate-choice,184,942940,0.0-76.0-1.16,FALSE,TRUE,TRUE,FALSE,"""event"",""trial"",""time""
""fullscreenenter"",""5"",""46097""
","
","
","""event"",""trial"",""time""
""fullscreenenter"",""5"",""46097""
","
",389.4799999980023,NA,48,NA,NA,3000,1,NA,NA,images/purpleplanet.jpg,images/alien4,images/alien3,images/rocket1,images/alien4,images/t.png,2,real,false,2,rare,1,2020-06-20T18:06:39Z,sub68
two-step-fixation,185,943947,0.0-76.0-2.16,FALSE,TRUE,TRUE,FALSE,"""event"",""trial"",""time""
""fullscreenenter"",""5"",""46097""
","
","
","""event"",""trial"",""time""
""fullscreenenter"",""5"",""46097""
","
",NA,images/earth.jpg,NA,NA,NA,NA,NA,NA,NA,NA,NA,NA,NA,NA,NA,fixation,NA,NA,NA,NA,NA,NA,sub68
d3-animate-choice,186,947285,0.0-76.0-0.17,FALSE,TRUE,TRUE,FALSE,"""event"",""trial"",""time""
""fullscreenenter"",""5"",""46097""
","
","
","""event"",""trial"",""time""
""fullscreenenter"",""5"",""46097""
","
",1329.3049999992363,NA,48,NA,NA,3000,1,NA,NA,images/earth.jpg,images/rocket1,images/rocket2,null,images/rocket1,NA,1,real,null,2,NA,NA,NA,sub68
d3-animate-choice,187,949955,0.0-76.0-1.17,FALSE,TRUE,TRUE,FALSE,"""event"",""trial"",""time""
""fullscreenenter"",""5"",""46097""
","
","
","""event"",""trial"",""time""
""fullscreenenter"",""5"",""46097""
","
",663.1400000043213,NA,48,NA,NA,3000,1,NA,NA,images/purpleplanet.jpg,images/alien4,images/alien3,images/rocket1,images/alien4,images/t.png,2,real,false,2,rare,1,2020-06-20T18:06:46Z,sub68
two-step-fixation,188,950963,0.0-76.0-2.17,FALSE,TRUE,TRUE,FALSE,"""event"",""trial"",""time""
""fullscreenenter"",""5"",""46097""
","
","
","""event"",""trial"",""time""
""fullscreenenter"",""5"",""46097""
","
",NA,images/earth.jpg,NA,NA,NA,NA,NA,NA,NA,NA,NA,NA,NA,NA,NA,fixation,NA,NA,NA,NA,NA,NA,sub68
d3-animate-choice,189,954191,0.0-76.0-0.18,FALSE,TRUE,TRUE,FALSE,"""event"",""trial"",""time""
""fullscreenenter"",""5"",""46097""
","
","
","""event"",""trial"",""time""
""fullscreenenter"",""5"",""46097""
","
",1219.2100000029895,NA,48,NA,NA,3000,1,NA,NA,images/earth.jpg,images/rocket1,images/rocket2,null,images/rocket1,NA,1,real,null,2,NA,NA,NA,sub68
d3-animate-choice,190,957581,0.0-76.0-1.18,FALSE,TRUE,TRUE,FALSE,"""event"",""trial"",""time""
""fullscreenenter"",""5"",""46097""
","
","
","""event"",""trial"",""time""
""fullscreenenter"",""5"",""46097""
","
",1381.1949999944773,NA,48,NA,NA,3000,1,NA,NA,images/redplanet1.jpg,images/alien2,images/alien1,images/rocket1,images/alien2,images/nothing.png,2,real,true,2,common,0,2020-06-20T18:06:54Z,sub68
two-step-fixation,191,958588,0.0-76.0-2.18,FALSE,TRUE,TRUE,FALSE,"""event"",""trial"",""time""
""fullscreenenter"",""5"",""46097""
","
","
","""event"",""trial"",""time""
""fullscreenenter"",""5"",""46097""
","
",NA,images/earth.jpg,NA,NA,NA,NA,NA,NA,NA,NA,NA,NA,NA,NA,NA,fixation,NA,NA,NA,NA,NA,NA,sub68
d3-animate-choice,192,962162,0.0-76.0-0.19,FALSE,TRUE,TRUE,FALSE,"""event"",""trial"",""time""
""fullscreenenter"",""5"",""46097""
","
","
","""event"",""trial"",""time""
""fullscreenenter"",""5"",""46097""
","
",1566.2549999979092,NA,48,NA,NA,3000,1,NA,NA,images/earth.jpg,images/rocket1,images/rocket2,null,images/rocket1,NA,1,real,null,2,NA,NA,NA,sub68
d3-animate-choice,193,964725,0.0-76.0-1.19,FALSE,TRUE,TRUE,FALSE,"""event"",""trial"",""time""
""fullscreenenter"",""5"",""46097""
","
","
","""event"",""trial"",""time""
""fullscreenenter"",""5"",""46097""
","
",554.3000000034226,NA,49,NA,NA,3000,1,NA,NA,images/redplanet1.jpg,images/alien2,images/alien1,images/rocket1,images/alien1,images/t.png,2,real,true,1,common,1,2020-06-20T18:07:01Z,sub68
two-step-fixation,194,965730,0.0-76.0-2.19,FALSE,TRUE,TRUE,FALSE,"""event"",""trial"",""time""
""fullscreenenter"",""5"",""46097""
","
","
","""event"",""trial"",""time""
""fullscreenenter"",""5"",""46097""
","
",NA,images/earth.jpg,NA,NA,NA,NA,NA,NA,NA,NA,NA,NA,NA,NA,NA,fixation,NA,NA,NA,NA,NA,NA,sub68
d3-animate-choice,195,968877,0.0-76.0-0.20,FALSE,TRUE,TRUE,FALSE,"""event"",""trial"",""time""
""fullscreenenter"",""5"",""46097""
","
","
","""event"",""trial"",""time""
""fullscreenenter"",""5"",""46097""
","
",1139.9850000017323,NA,48,NA,NA,3000,1,NA,NA,images/earth.jpg,images/rocket1,images/rocket2,null,images/rocket1,NA,1,real,null,2,NA,NA,NA,sub68
d3-animate-choice,196,971515,0.0-76.0-1.20,FALSE,TRUE,TRUE,FALSE,"""event"",""trial"",""time""
""fullscreenenter"",""5"",""46097""
","
","
","""event"",""trial"",""time""
""fullscreenenter"",""5"",""46097""
","
",630.7100000049686,NA,49,NA,NA,3000,1,NA,NA,images/redplanet1.jpg,images/alien2,images/alien1,images/rocket1,images/alien1,images/nothing.png,2,real,true,1,common,0,2020-06-20T18:07:08Z,sub68
two-step-fixation,197,972522,0.0-76.0-2.20,FALSE,TRUE,TRUE,FALSE,"""event"",""trial"",""time""
""fullscreenenter"",""5"",""46097""
","
","
","""event"",""trial"",""time""
""fullscreenenter"",""5"",""46097""
","
",NA,images/earth.jpg,NA,NA,NA,NA,NA,NA,NA,NA,NA,NA,NA,NA,NA,fixation,NA,NA,NA,NA,NA,NA,sub68
d3-animate-choice,198,975653,0.0-76.0-0.21,FALSE,TRUE,TRUE,FALSE,"""event"",""trial"",""time""
""fullscreenenter"",""5"",""46097""
","
","
","""event"",""trial"",""time""
""fullscreenenter"",""5"",""46097""
","
",1127.1249999990687,NA,49,NA,NA,3000,1,NA,NA,images/earth.jpg,images/rocket1,images/rocket2,null,images/rocket2,NA,1,real,null,1,NA,NA,NA,sub68
d3-animate-choice,199,978423,0.0-76.0-1.21,FALSE,TRUE,TRUE,FALSE,"""event"",""trial"",""time""
""fullscreenenter"",""5"",""46097""
","
","
","""event"",""trial"",""time""
""fullscreenenter"",""5"",""46097""
","
",761.1150000011548,NA,49,NA,NA,3000,1,NA,NA,images/purpleplanet.jpg,images/alien4,images/alien3,images/rocket2,images/alien3,images/nothing.png,2,real,true,1,common,0,2020-06-20T18:07:15Z,sub68
two-step-fixation,200,979430,0.0-76.0-2.21,FALSE,TRUE,TRUE,FALSE,"""event"",""trial"",""time""
""fullscreenenter"",""5"",""46097""
","
","
","""event"",""trial"",""time""
""fullscreenenter"",""5"",""46097""
","
",NA,images/earth.jpg,NA,NA,NA,NA,NA,NA,NA,NA,NA,NA,NA,NA,NA,fixation,NA,NA,NA,NA,NA,NA,sub68
d3-animate-choice,201,983041,0.0-76.0-0.22,FALSE,TRUE,TRUE,FALSE,"""event"",""trial"",""time""
""fullscreenenter"",""5"",""46097""
","
","
","""event"",""trial"",""time""
""fullscreenenter"",""5"",""46097""
","
",1601.7650000066496,NA,48,NA,NA,3000,1,NA,NA,images/earth.jpg,images/rocket1,images/rocket2,null,images/rocket1,NA,1,real,null,2,NA,NA,NA,sub68
d3-animate-choice,202,985566,0.0-76.0-1.22,FALSE,TRUE,TRUE,FALSE,"""event"",""trial"",""time""
""fullscreenenter"",""5"",""46097""
","
","
","""event"",""trial"",""time""
""fullscreenenter"",""5"",""46097""
","
",516.0450000038836,NA,49,NA,NA,3000,1,NA,NA,images/purpleplanet.jpg,images/alien4,images/alien3,images/rocket1,images/alien3,images/t.png,2,real,false,1,rare,1,2020-06-20T18:07:22Z,sub68
two-step-fixation,203,986573,0.0-76.0-2.22,FALSE,TRUE,TRUE,FALSE,"""event"",""trial"",""time""
""fullscreenenter"",""5"",""46097""
","
","
","""event"",""trial"",""time""
""fullscreenenter"",""5"",""46097""
","
",NA,images/earth.jpg,NA,NA,NA,NA,NA,NA,NA,NA,NA,NA,NA,NA,NA,fixation,NA,NA,NA,NA,NA,NA,sub68
d3-animate-choice,204,989326,0.0-76.0-0.23,FALSE,TRUE,TRUE,FALSE,"""event"",""trial"",""time""
""fullscreenenter"",""5"",""46097""
","
","
","""event"",""trial"",""time""
""fullscreenenter"",""5"",""46097""
","
",745.2399999964982,NA,48,NA,NA,3000,1,NA,NA,images/earth.jpg,images/rocket1,images/rocket2,null,images/rocket1,NA,1,real,null,2,NA,NA,NA,sub68
d3-animate-choice,205,992273,0.0-76.0-1.23,FALSE,TRUE,TRUE,FALSE,"""event"",""trial"",""time""
""fullscreenenter"",""5"",""46097""
","
","
","""event"",""trial"",""time""
""fullscreenenter"",""5"",""46097""
","
",937.8700000016252,NA,49,NA,NA,3000,1,NA,NA,images/purpleplanet.jpg,images/alien4,images/alien3,images/rocket1,images/alien3,images/t.png,2,real,false,1,rare,1,2020-06-20T18:07:29Z,sub68
two-step-fixation,206,993281,0.0-76.0-2.23,FALSE,TRUE,TRUE,FALSE,"""event"",""trial"",""time""
""fullscreenenter"",""5"",""46097""
","
","
","""event"",""trial"",""time""
""fullscreenenter"",""5"",""46097""
","
",NA,images/earth.jpg,NA,NA,NA,NA,NA,NA,NA,NA,NA,NA,NA,NA,NA,fixation,NA,NA,NA,NA,NA,NA,sub68
d3-animate-choice,207,995915,0.0-76.0-0.24,FALSE,TRUE,TRUE,FALSE,"""event"",""trial"",""time""
""fullscreenenter"",""5"",""46097""
","
","
","""event"",""trial"",""time""
""fullscreenenter"",""5"",""46097""
","
",626.1149999990594,NA,48,NA,NA,3000,1,NA,NA,images/earth.jpg,images/rocket1,images/rocket2,null,images/rocket1,NA,1,real,null,2,NA,NA,NA,sub68
d3-animate-choice,208,998589,0.0-76.0-1.24,FALSE,TRUE,TRUE,FALSE,"""event"",""trial"",""time""
""fullscreenenter"",""5"",""46097""
","
","
","""event"",""trial"",""time""
""fullscreenenter"",""5"",""46097""
","
",664.6699999982957,NA,49,NA,NA,3000,1,NA,NA,images/redplanet1.jpg,images/alien2,images/alien1,images/rocket1,images/alien1,images/t.png,2,real,true,1,common,1,2020-06-20T18:07:35Z,sub68
two-step-fixation,209,999597,0.0-76.0-2.24,FALSE,TRUE,TRUE,FALSE,"""event"",""trial"",""time""
""fullscreenenter"",""5"",""46097""
","
","
","""event"",""trial"",""time""
""fullscreenenter"",""5"",""46097""
","
",NA,images/earth.jpg,NA,NA,NA,NA,NA,NA,NA,NA,NA,NA,NA,NA,NA,fixation,NA,NA,NA,NA,NA,NA,sub68
d3-animate-choice,210,1002343,0.0-76.0-0.25,FALSE,TRUE,TRUE,FALSE,"""event"",""trial"",""time""
""fullscreenenter"",""5"",""46097""
","
","
","""event"",""trial"",""time""
""fullscreenenter"",""5"",""46097""
","
",738.4900000033667,NA,48,NA,NA,3000,1,NA,NA,images/earth.jpg,images/rocket1,images/rocket2,null,images/rocket1,NA,1,real,null,2,NA,NA,NA,sub68
d3-animate-choice,211,1004868,0.0-76.0-1.25,FALSE,TRUE,TRUE,FALSE,"""event"",""trial"",""time""
""fullscreenenter"",""5"",""46097""
","
","
","""event"",""trial"",""time""
""fullscreenenter"",""5"",""46097""
","
",521.4399999968009,NA,49,NA,NA,3000,1,NA,NA,images/redplanet1.jpg,images/alien2,images/alien1,images/rocket1,images/alien1,images/t.png,2,real,true,1,common,1,2020-06-20T18:07:41Z,sub68
two-step-fixation,212,1005876,0.0-76.0-2.25,FALSE,TRUE,TRUE,FALSE,"""event"",""trial"",""time""
""fullscreenenter"",""5"",""46097""
","
","
","""event"",""trial"",""time""
""fullscreenenter"",""5"",""46097""
","
",NA,images/earth.jpg,NA,NA,NA,NA,NA,NA,NA,NA,NA,NA,NA,NA,NA,fixation,NA,NA,NA,NA,NA,NA,sub68
d3-animate-choice,213,1009310,0.0-76.0-0.26,FALSE,TRUE,TRUE,FALSE,"""event"",""trial"",""time""
""fullscreenenter"",""5"",""46097""
","
","
","""event"",""trial"",""time""
""fullscreenenter"",""5"",""46097""
","
",1426.579999999376,NA,48,NA,NA,3000,1,NA,NA,images/earth.jpg,images/rocket1,images/rocket2,null,images/rocket1,NA,1,real,null,2,NA,NA,NA,sub68
d3-animate-choice,214,1011873,0.0-76.0-1.26,FALSE,TRUE,TRUE,FALSE,"""event"",""trial"",""time""
""fullscreenenter"",""5"",""46097""
","
","
","""event"",""trial"",""time""
""fullscreenenter"",""5"",""46097""
","
",556.9049999975832,NA,49,NA,NA,3000,1,NA,NA,images/redplanet1.jpg,images/alien2,images/alien1,images/rocket1,images/alien1,images/t.png,2,real,true,1,common,1,2020-06-20T18:07:48Z,sub68
two-step-fixation,215,1012878,0.0-76.0-2.26,FALSE,TRUE,TRUE,FALSE,"""event"",""trial"",""time""
""fullscreenenter"",""5"",""46097""
","
","
","""event"",""trial"",""time""
""fullscreenenter"",""5"",""46097""
","
",NA,images/earth.jpg,NA,NA,NA,NA,NA,NA,NA,NA,NA,NA,NA,NA,NA,fixation,NA,NA,NA,NA,NA,NA,sub68
d3-animate-choice,216,1015417,0.0-76.0-0.27,FALSE,TRUE,TRUE,FALSE,"""event"",""trial"",""time""
""fullscreenenter"",""5"",""46097""
","
","
","""event"",""trial"",""time""
""fullscreenenter"",""5"",""46097""
","
",531.6949999979697,NA,48,NA,NA,3000,1,NA,NA,images/earth.jpg,images/rocket1,images/rocket2,null,images/rocket1,NA,1,real,null,2,NA,NA,NA,sub68
d3-animate-choice,217,1017951,0.0-76.0-1.27,FALSE,TRUE,TRUE,FALSE,"""event"",""trial"",""time""
""fullscreenenter"",""5"",""46097""
","
","
","""event"",""trial"",""time""
""fullscreenenter"",""5"",""46097""
","
",526.1150000006892,NA,49,NA,NA,3000,1,NA,NA,images/redplanet1.jpg,images/alien2,images/alien1,images/rocket1,images/alien1,images/t.png,2,real,true,1,common,1,2020-06-20T18:07:54Z,sub68
two-step-fixation,218,1018957,0.0-76.0-2.27,FALSE,TRUE,TRUE,FALSE,"""event"",""trial"",""time""
""fullscreenenter"",""5"",""46097""
","
","
","""event"",""trial"",""time""
""fullscreenenter"",""5"",""46097""
","
",NA,images/earth.jpg,NA,NA,NA,NA,NA,NA,NA,NA,NA,NA,NA,NA,NA,fixation,NA,NA,NA,NA,NA,NA,sub68
d3-animate-choice,219,1021545,0.0-76.0-0.28,FALSE,TRUE,TRUE,FALSE,"""event"",""trial"",""time""
""fullscreenenter"",""5"",""46097""
","
","
","""event"",""trial"",""time""
""fullscreenenter"",""5"",""46097""
","
",583.8399999992689,NA,48,NA,NA,3000,1,NA,NA,images/earth.jpg,images/rocket1,images/rocket2,null,images/rocket1,NA,1,real,null,2,NA,NA,NA,sub68
d3-animate-choice,220,1024470,0.0-76.0-1.28,FALSE,TRUE,TRUE,FALSE,"""event"",""trial"",""time""
""fullscreenenter"",""5"",""46097""
","
","
","""event"",""trial"",""time""
""fullscreenenter"",""5"",""46097""
","
",911.2349999995204,NA,49,NA,NA,3000,1,NA,NA,images/redplanet1.jpg,images/alien2,images/alien1,images/rocket1,images/alien1,images/t.png,2,real,true,1,common,1,2020-06-20T18:08:01Z,sub68
two-step-fixation,221,1025475,0.0-76.0-2.28,FALSE,TRUE,TRUE,FALSE,"""event"",""trial"",""time""
""fullscreenenter"",""5"",""46097""
","
","
","""event"",""trial"",""time""
""fullscreenenter"",""5"",""46097""
","
",NA,images/earth.jpg,NA,NA,NA,NA,NA,NA,NA,NA,NA,NA,NA,NA,NA,fixation,NA,NA,NA,NA,NA,NA,sub68
d3-animate-choice,222,1028085,0.0-76.0-0.29,FALSE,TRUE,TRUE,FALSE,"""event"",""trial"",""time""
""fullscreenenter"",""5"",""46097""
","
","
","""event"",""trial"",""time""
""fullscreenenter"",""5"",""46097""
","
",597.9399999995949,NA,48,NA,NA,3000,1,NA,NA,images/earth.jpg,images/rocket1,images/rocket2,null,images/rocket1,NA,1,real,null,2,NA,NA,NA,sub68
d3-animate-choice,223,1030689,0.0-76.0-1.29,FALSE,TRUE,TRUE,FALSE,"""event"",""trial"",""time""
""fullscreenenter"",""5"",""46097""
","
","
","""event"",""trial"",""time""
""fullscreenenter"",""5"",""46097""
","
",595.8899999968708,NA,49,NA,NA,3000,1,NA,NA,images/redplanet1.jpg,images/alien2,images/alien1,images/rocket1,images/alien1,images/t.png,2,real,true,1,common,1,2020-06-20T18:08:07Z,sub68
two-step-fixation,224,1031696,0.0-76.0-2.29,FALSE,TRUE,TRUE,FALSE,"""event"",""trial"",""time""
""fullscreenenter"",""5"",""46097""
","
","
","""event"",""trial"",""time""
""fullscreenenter"",""5"",""46097""
","
",NA,images/earth.jpg,NA,NA,NA,NA,NA,NA,NA,NA,NA,NA,NA,NA,NA,fixation,NA,NA,NA,NA,NA,NA,sub68
d3-animate-choice,225,1034489,0.0-76.0-0.30,FALSE,TRUE,TRUE,FALSE,"""event"",""trial"",""time""
""fullscreenenter"",""5"",""46097""
","
","
","""event"",""trial"",""time""
""fullscreenenter"",""5"",""46097""
","
",785.6450000035111,NA,48,NA,NA,3000,1,NA,NA,images/earth.jpg,images/rocket1,images/rocket2,null,images/rocket1,NA,1,real,null,2,NA,NA,NA,sub68
d3-animate-choice,226,1037165,0.0-76.0-1.30,FALSE,TRUE,TRUE,FALSE,"""event"",""trial"",""time""
""fullscreenenter"",""5"",""46097""
","
","
","""event"",""trial"",""time""
""fullscreenenter"",""5"",""46097""
","
",671.869999998482,NA,49,NA,NA,3000,1,NA,NA,images/redplanet1.jpg,images/alien2,images/alien1,images/rocket1,images/alien1,images/t.png,2,real,true,1,common,1,2020-06-20T18:08:14Z,sub68
two-step-fixation,227,1038174,0.0-76.0-2.30,FALSE,TRUE,TRUE,FALSE,"""event"",""trial"",""time""
""fullscreenenter"",""5"",""46097""
","
","
","""event"",""trial"",""time""
""fullscreenenter"",""5"",""46097""
","
",NA,images/earth.jpg,NA,NA,NA,NA,NA,NA,NA,NA,NA,NA,NA,NA,NA,fixation,NA,NA,NA,NA,NA,NA,sub68
d3-animate-choice,228,1040963,0.0-76.0-0.31,FALSE,TRUE,TRUE,FALSE,"""event"",""trial"",""time""
""fullscreenenter"",""5"",""46097""
","
","
","""event"",""trial"",""time""
""fullscreenenter"",""5"",""46097""
","
",782.4499999987893,NA,48,NA,NA,3000,1,NA,NA,images/earth.jpg,images/rocket1,images/rocket2,null,images/rocket1,NA,1,real,null,2,NA,NA,NA,sub68
d3-animate-choice,229,1043467,0.0-76.0-1.31,FALSE,TRUE,TRUE,FALSE,"""event"",""trial"",""time""
""fullscreenenter"",""5"",""46097""
","
","
","""event"",""trial"",""time""
""fullscreenenter"",""5"",""46097""
","
",495.3549999992829,NA,49,NA,NA,3000,1,NA,NA,images/purpleplanet.jpg,images/alien4,images/alien3,images/rocket1,images/alien3,images/nothing.png,2,real,false,1,rare,0,2020-06-20T18:08:20Z,sub68
two-step-fixation,230,1044475,0.0-76.0-2.31,FALSE,TRUE,TRUE,FALSE,"""event"",""trial"",""time""
""fullscreenenter"",""5"",""46097""
","
","
","""event"",""trial"",""time""
""fullscreenenter"",""5"",""46097""
","
",NA,images/earth.jpg,NA,NA,NA,NA,NA,NA,NA,NA,NA,NA,NA,NA,NA,fixation,NA,NA,NA,NA,NA,NA,sub68
d3-animate-choice,231,1048245,0.0-76.0-0.32,FALSE,TRUE,TRUE,FALSE,"""event"",""trial"",""time""
""fullscreenenter"",""5"",""46097""
","
","
","""event"",""trial"",""time""
""fullscreenenter"",""5"",""46097""
","
",1764.9250000033062,NA,48,NA,NA,3000,1,NA,NA,images/earth.jpg,images/rocket1,images/rocket2,null,images/rocket1,NA,1,real,null,2,NA,NA,NA,sub68
d3-animate-choice,232,1050870,0.0-76.0-1.32,FALSE,TRUE,TRUE,FALSE,"""event"",""trial"",""time""
""fullscreenenter"",""5"",""46097""
","
","
","""event"",""trial"",""time""
""fullscreenenter"",""5"",""46097""
","
",617.6150000027847,NA,49,NA,NA,3000,1,NA,NA,images/redplanet1.jpg,images/alien2,images/alien1,images/rocket1,images/alien1,images/t.png,2,real,true,1,common,1,2020-06-20T18:08:27Z,sub68
two-step-fixation,233,1051874,0.0-76.0-2.32,FALSE,TRUE,TRUE,FALSE,"""event"",""trial"",""time""
""fullscreenenter"",""5"",""46097""
","
","
","""event"",""trial"",""time""
""fullscreenenter"",""5"",""46097""
","
",NA,images/earth.jpg,NA,NA,NA,NA,NA,NA,NA,NA,NA,NA,NA,NA,NA,fixation,NA,NA,NA,NA,NA,NA,sub68
d3-animate-choice,234,1054710,0.0-76.0-0.33,FALSE,TRUE,TRUE,FALSE,"""event"",""trial"",""time""
""fullscreenenter"",""5"",""46097""
","
","
","""event"",""trial"",""time""
""fullscreenenter"",""5"",""46097""
","
",828.9949999961536,NA,48,NA,NA,3000,1,NA,NA,images/earth.jpg,images/rocket1,images/rocket2,null,images/rocket1,NA,1,real,null,2,NA,NA,NA,sub68
d3-animate-choice,235,1057237,0.0-76.0-1.33,FALSE,TRUE,TRUE,FALSE,"""event"",""trial"",""time""
""fullscreenenter"",""5"",""46097""
","
","
","""event"",""trial"",""time""
""fullscreenenter"",""5"",""46097""
","
",520.0100000000093,NA,49,NA,NA,3000,1,NA,NA,images/redplanet1.jpg,images/alien2,images/alien1,images/rocket1,images/alien1,images/t.png,2,real,true,1,common,1,2020-06-20T18:08:34Z,sub68
two-step-fixation,236,1058247,0.0-76.0-2.33,FALSE,TRUE,TRUE,FALSE,"""event"",""trial"",""time""
""fullscreenenter"",""5"",""46097""
","
","
","""event"",""trial"",""time""
""fullscreenenter"",""5"",""46097""
","
",NA,images/earth.jpg,NA,NA,NA,NA,NA,NA,NA,NA,NA,NA,NA,NA,NA,fixation,NA,NA,NA,NA,NA,NA,sub68
d3-animate-choice,237,1061109,0.0-76.0-0.34,FALSE,TRUE,TRUE,FALSE,"""event"",""trial"",""time""
""fullscreenenter"",""5"",""46097""
","
","
","""event"",""trial"",""time""
""fullscreenenter"",""5"",""46097""
","
",852.1750000000466,NA,48,NA,NA,3000,1,NA,NA,images/earth.jpg,images/rocket1,images/rocket2,null,images/rocket1,NA,1,real,null,2,NA,NA,NA,sub68
d3-animate-choice,238,1063753,0.0-76.0-1.34,FALSE,TRUE,TRUE,FALSE,"""event"",""trial"",""time""
""fullscreenenter"",""5"",""46097""
","
","
","""event"",""trial"",""time""
""fullscreenenter"",""5"",""46097""
","
",635.8949999993201,NA,49,NA,NA,3000,1,NA,NA,images/redplanet1.jpg,images/alien2,images/alien1,images/rocket1,images/alien1,images/t.png,2,real,true,1,common,1,2020-06-20T18:08:40Z,sub68
two-step-fixation,239,1064760,0.0-76.0-2.34,FALSE,TRUE,TRUE,FALSE,"""event"",""trial"",""time""
""fullscreenenter"",""5"",""46097""
","
","
","""event"",""trial"",""time""
""fullscreenenter"",""5"",""46097""
","
",NA,images/earth.jpg,NA,NA,NA,NA,NA,NA,NA,NA,NA,NA,NA,NA,NA,fixation,NA,NA,NA,NA,NA,NA,sub68
d3-animate-choice,240,1067667,0.0-76.0-0.35,FALSE,TRUE,TRUE,FALSE,"""event"",""trial"",""time""
""fullscreenenter"",""5"",""46097""
","
","
","""event"",""trial"",""time""
""fullscreenenter"",""5"",""46097""
","
",900.2699999983888,NA,48,NA,NA,3000,1,NA,NA,images/earth.jpg,images/rocket1,images/rocket2,null,images/rocket1,NA,1,real,null,2,NA,NA,NA,sub68
d3-animate-choice,241,1070369,0.0-76.0-1.35,FALSE,TRUE,TRUE,FALSE,"""event"",""trial"",""time""
""fullscreenenter"",""5"",""46097""
","
","
","""event"",""trial"",""time""
""fullscreenenter"",""5"",""46097""
","
",696.4200000001583,NA,49,NA,NA,3000,1,NA,NA,images/redplanet1.jpg,images/alien2,images/alien1,images/rocket1,images/alien1,images/t.png,2,real,true,1,common,1,2020-06-20T18:08:47Z,sub68
two-step-fixation,242,1071376,0.0-76.0-2.35,FALSE,TRUE,TRUE,FALSE,"""event"",""trial"",""time""
""fullscreenenter"",""5"",""46097""
","
","
","""event"",""trial"",""time""
""fullscreenenter"",""5"",""46097""
","
",NA,images/earth.jpg,NA,NA,NA,NA,NA,NA,NA,NA,NA,NA,NA,NA,NA,fixation,NA,NA,NA,NA,NA,NA,sub68
d3-animate-choice,243,1074521,0.0-76.0-0.36,FALSE,TRUE,TRUE,FALSE,"""event"",""trial"",""time""
""fullscreenenter"",""5"",""46097""
","
","
","""event"",""trial"",""time""
""fullscreenenter"",""5"",""46097""
","
",645.6150000011548,NA,189,NA,NA,3000,1,1137.1950000028592,48,images/earth.jpg,images/rocket1,images/rocket2,null,images/rocket1,NA,1,real,null,NA,NA,NA,NA,sub68
d3-animate-choice,244,1078510,0.0-76.0-1.36,FALSE,TRUE,TRUE,FALSE,"""event"",""trial"",""time""
""fullscreenenter"",""5"",""46097""
""blur"",""245"",""1079146""
","""event"",""trial"",""time""
""blur"",""245"",""1079146""
","
","""event"",""trial"",""time""
""fullscreenenter"",""5"",""46097""
","
",1981.529999997234,NA,49,NA,NA,3000,1,NA,NA,images/purpleplanet.jpg,images/alien4,images/alien3,images/rocket1,images/alien3,images/nothing.png,2,real,false,1,rare,0,2020-06-20T18:08:55Z,sub68
two-step-fixation,245,1079515,0.0-76.0-2.36,FALSE,TRUE,TRUE,FALSE,"""event"",""trial"",""time""
""fullscreenenter"",""5"",""46097""
""blur"",""245"",""1079146""
""focus"",""246"",""1080014""
","""event"",""trial"",""time""
""blur"",""245"",""1079146""
","""event"",""trial"",""time""
""focus"",""246"",""1080014""
","""event"",""trial"",""time""
""fullscreenenter"",""5"",""46097""
","
",NA,images/earth.jpg,NA,NA,NA,NA,NA,NA,NA,NA,NA,NA,NA,NA,NA,fixation,NA,NA,NA,NA,NA,NA,sub68
d3-animate-choice,246,1082833,0.0-76.0-0.37,FALSE,TRUE,TRUE,FALSE,"""event"",""trial"",""time""
""fullscreenenter"",""5"",""46097""
""blur"",""245"",""1079146""
""focus"",""246"",""1080014""
","""event"",""trial"",""time""
""blur"",""245"",""1079146""
","""event"",""trial"",""time""
""focus"",""246"",""1080014""
","""event"",""trial"",""time""
""fullscreenenter"",""5"",""46097""
","
",1311.3000000012107,NA,48,NA,NA,3000,1,NA,NA,images/earth.jpg,images/rocket1,images/rocket2,null,images/rocket1,NA,1,real,null,2,NA,NA,NA,sub68
d3-animate-choice,247,1085430,0.0-76.0-1.37,FALSE,TRUE,TRUE,FALSE,"""event"",""trial"",""time""
""fullscreenenter"",""5"",""46097""
""blur"",""245"",""1079146""
""focus"",""246"",""1080014""
","""event"",""trial"",""time""
""blur"",""245"",""1079146""
","""event"",""trial"",""time""
""focus"",""246"",""1080014""
","""event"",""trial"",""time""
""fullscreenenter"",""5"",""46097""
","
",589.7099999999627,NA,49,NA,NA,3000,1,NA,NA,images/redplanet1.jpg,images/alien2,images/alien1,images/rocket1,images/alien1,images/t.png,2,real,true,1,common,1,2020-06-20T18:09:02Z,sub68
two-step-fixation,248,1086434,0.0-76.0-2.37,FALSE,TRUE,TRUE,FALSE,"""event"",""trial"",""time""
""fullscreenenter"",""5"",""46097""
""blur"",""245"",""1079146""
""focus"",""246"",""1080014""
","""event"",""trial"",""time""
""blur"",""245"",""1079146""
","""event"",""trial"",""time""
""focus"",""246"",""1080014""
","""event"",""trial"",""time""
""fullscreenenter"",""5"",""46097""
","
",NA,images/earth.jpg,NA,NA,NA,NA,NA,NA,NA,NA,NA,NA,NA,NA,NA,fixation,NA,NA,NA,NA,NA,NA,sub68
d3-animate-choice,249,1089982,0.0-76.0-0.38,FALSE,TRUE,TRUE,FALSE,"""event"",""trial"",""time""
""fullscreenenter"",""5"",""46097""
""blur"",""245"",""1079146""
""focus"",""246"",""1080014""
","""event"",""trial"",""time""
""blur"",""245"",""1079146""
","""event"",""trial"",""time""
""focus"",""246"",""1080014""
","""event"",""trial"",""time""
""fullscreenenter"",""5"",""46097""
","
",1542.8099999988917,NA,48,NA,NA,3000,1,NA,NA,images/earth.jpg,images/rocket1,images/rocket2,null,images/rocket1,NA,1,real,null,2,NA,NA,NA,sub68
d3-animate-choice,250,1093516,0.0-76.0-1.38,FALSE,TRUE,TRUE,FALSE,"""event"",""trial"",""time""
""fullscreenenter"",""5"",""46097""
""blur"",""245"",""1079146""
""focus"",""246"",""1080014""
","""event"",""trial"",""time""
""blur"",""245"",""1079146""
","""event"",""trial"",""time""
""focus"",""246"",""1080014""
","""event"",""trial"",""time""
""fullscreenenter"",""5"",""46097""
","
",1526.8149999976158,NA,49,NA,NA,3000,1,NA,NA,images/purpleplanet.jpg,images/alien4,images/alien3,images/rocket1,images/alien3,images/t.png,2,real,false,1,rare,1,2020-06-20T18:09:10Z,sub68
two-step-fixation,251,1094524,0.0-76.0-2.38,FALSE,TRUE,TRUE,FALSE,"""event"",""trial"",""time""
""fullscreenenter"",""5"",""46097""
""blur"",""245"",""1079146""
""focus"",""246"",""1080014""
","""event"",""trial"",""time""
""blur"",""245"",""1079146""
","""event"",""trial"",""time""
""focus"",""246"",""1080014""
","""event"",""trial"",""time""
""fullscreenenter"",""5"",""46097""
","
",NA,images/earth.jpg,NA,NA,NA,NA,NA,NA,NA,NA,NA,NA,NA,NA,NA,fixation,NA,NA,NA,NA,NA,NA,sub68
d3-animate-choice,252,1098296,0.0-76.0-0.39,FALSE,TRUE,TRUE,FALSE,"""event"",""trial"",""time""
""fullscreenenter"",""5"",""46097""
""blur"",""245"",""1079146""
""focus"",""246"",""1080014""
","""event"",""trial"",""time""
""blur"",""245"",""1079146""
","""event"",""trial"",""time""
""focus"",""246"",""1080014""
","""event"",""trial"",""time""
""fullscreenenter"",""5"",""46097""
","
",1764.5950000006706,NA,48,NA,NA,3000,1,NA,NA,images/earth.jpg,images/rocket1,images/rocket2,null,images/rocket1,NA,1,real,null,2,NA,NA,NA,sub68
d3-animate-choice,253,1100894,0.0-76.0-1.39,FALSE,TRUE,TRUE,FALSE,"""event"",""trial"",""time""
""fullscreenenter"",""5"",""46097""
""blur"",""245"",""1079146""
""focus"",""246"",""1080014""
","""event"",""trial"",""time""
""blur"",""245"",""1079146""
","""event"",""trial"",""time""
""focus"",""246"",""1080014""
","""event"",""trial"",""time""
""fullscreenenter"",""5"",""46097""
","
",589.4000000045635,NA,49,NA,NA,3000,1,NA,NA,images/redplanet1.jpg,images/alien2,images/alien1,images/rocket1,images/alien1,images/t.png,2,real,true,1,common,1,2020-06-20T18:09:17Z,sub68
two-step-fixation,254,1101898,0.0-76.0-2.39,FALSE,TRUE,TRUE,FALSE,"""event"",""trial"",""time""
""fullscreenenter"",""5"",""46097""
""blur"",""245"",""1079146""
""focus"",""246"",""1080014""
","""event"",""trial"",""time""
""blur"",""245"",""1079146""
","""event"",""trial"",""time""
""focus"",""246"",""1080014""
","""event"",""trial"",""time""
""fullscreenenter"",""5"",""46097""
","
",NA,images/earth.jpg,NA,NA,NA,NA,NA,NA,NA,NA,NA,NA,NA,NA,NA,fixation,NA,NA,NA,NA,NA,NA,sub68
d3-animate-choice,255,1104813,0.0-76.0-0.40,FALSE,TRUE,TRUE,FALSE,"""event"",""trial"",""time""
""fullscreenenter"",""5"",""46097""
""blur"",""245"",""1079146""
""focus"",""246"",""1080014""
","""event"",""trial"",""time""
""blur"",""245"",""1079146""
","""event"",""trial"",""time""
""focus"",""246"",""1080014""
","""event"",""trial"",""time""
""fullscreenenter"",""5"",""46097""
","
",908.4799999981187,NA,48,NA,NA,3000,1,NA,NA,images/earth.jpg,images/rocket1,images/rocket2,null,images/rocket1,NA,1,real,null,2,NA,NA,NA,sub68
d3-animate-choice,256,1107383,0.0-76.0-1.40,FALSE,TRUE,TRUE,FALSE,"""event"",""trial"",""time""
""fullscreenenter"",""5"",""46097""
""blur"",""245"",""1079146""
""focus"",""246"",""1080014""
","""event"",""trial"",""time""
""blur"",""245"",""1079146""
","""event"",""trial"",""time""
""focus"",""246"",""1080014""
","""event"",""trial"",""time""
""fullscreenenter"",""5"",""46097""
","
",562.5350000048056,NA,49,NA,NA,3000,1,NA,NA,images/redplanet1.jpg,images/alien2,images/alien1,images/rocket1,images/alien1,images/t.png,2,real,true,1,common,1,2020-06-20T18:09:24Z,sub68
two-step-fixation,257,1108392,0.0-76.0-2.40,FALSE,TRUE,TRUE,FALSE,"""event"",""trial"",""time""
""fullscreenenter"",""5"",""46097""
""blur"",""245"",""1079146""
""focus"",""246"",""1080014""
","""event"",""trial"",""time""
""blur"",""245"",""1079146""
","""event"",""trial"",""time""
""focus"",""246"",""1080014""
","""event"",""trial"",""time""
""fullscreenenter"",""5"",""46097""
","
",NA,images/earth.jpg,NA,NA,NA,NA,NA,NA,NA,NA,NA,NA,NA,NA,NA,fixation,NA,NA,NA,NA,NA,NA,sub68
d3-animate-choice,258,1111861,0.0-76.0-0.41,FALSE,TRUE,TRUE,FALSE,"""event"",""trial"",""time""
""fullscreenenter"",""5"",""46097""
""blur"",""245"",""1079146""
""focus"",""246"",""1080014""
","""event"",""trial"",""time""
""blur"",""245"",""1079146""
","""event"",""trial"",""time""
""focus"",""246"",""1080014""
","""event"",""trial"",""time""
""fullscreenenter"",""5"",""46097""
","
",1462.719999996014,NA,48,NA,NA,3000,1,NA,NA,images/earth.jpg,images/rocket1,images/rocket2,null,images/rocket1,NA,1,real,null,2,NA,NA,NA,sub68
d3-animate-choice,259,1114432,0.0-76.0-1.41,FALSE,TRUE,TRUE,FALSE,"""event"",""trial"",""time""
""fullscreenenter"",""5"",""46097""
""blur"",""245"",""1079146""
""focus"",""246"",""1080014""
","""event"",""trial"",""time""
""blur"",""245"",""1079146""
","""event"",""trial"",""time""
""focus"",""246"",""1080014""
","""event"",""trial"",""time""
""fullscreenenter"",""5"",""46097""
","
",562.8499999949709,NA,49,NA,NA,3000,1,NA,NA,images/redplanet1.jpg,images/alien2,images/alien1,images/rocket1,images/alien1,images/t.png,2,real,true,1,common,1,2020-06-20T18:09:31Z,sub68
two-step-fixation,260,1115438,0.0-76.0-2.41,FALSE,TRUE,TRUE,FALSE,"""event"",""trial"",""time""
""fullscreenenter"",""5"",""46097""
""blur"",""245"",""1079146""
""focus"",""246"",""1080014""
","""event"",""trial"",""time""
""blur"",""245"",""1079146""
","""event"",""trial"",""time""
""focus"",""246"",""1080014""
","""event"",""trial"",""time""
""fullscreenenter"",""5"",""46097""
","
",NA,images/earth.jpg,NA,NA,NA,NA,NA,NA,NA,NA,NA,NA,NA,NA,NA,fixation,NA,NA,NA,NA,NA,NA,sub68
d3-animate-choice,261,1117968,0.0-76.0-0.42,FALSE,TRUE,TRUE,FALSE,"""event"",""trial"",""time""
""fullscreenenter"",""5"",""46097""
""blur"",""245"",""1079146""
""focus"",""246"",""1080014""
","""event"",""trial"",""time""
""blur"",""245"",""1079146""
","""event"",""trial"",""time""
""focus"",""246"",""1080014""
","""event"",""trial"",""time""
""fullscreenenter"",""5"",""46097""
","
",521.1549999949057,NA,48,NA,NA,3000,1,NA,NA,images/earth.jpg,images/rocket1,images/rocket2,null,images/rocket1,NA,1,real,null,2,NA,NA,NA,sub68
d3-animate-choice,262,1120469,0.0-76.0-1.42,FALSE,TRUE,TRUE,FALSE,"""event"",""trial"",""time""
""fullscreenenter"",""5"",""46097""
""blur"",""245"",""1079146""
""focus"",""246"",""1080014""
","""event"",""trial"",""time""
""blur"",""245"",""1079146""
","""event"",""trial"",""time""
""focus"",""246"",""1080014""
","""event"",""trial"",""time""
""fullscreenenter"",""5"",""46097""
","
",492.68999999924563,NA,49,NA,NA,3000,1,NA,NA,images/redplanet1.jpg,images/alien2,images/alien1,images/rocket1,images/alien1,images/t.png,2,real,true,1,common,1,2020-06-20T18:09:37Z,sub68
two-step-fixation,263,1121476,0.0-76.0-2.42,FALSE,TRUE,TRUE,FALSE,"""event"",""trial"",""time""
""fullscreenenter"",""5"",""46097""
""blur"",""245"",""1079146""
""focus"",""246"",""1080014""
","""event"",""trial"",""time""
""blur"",""245"",""1079146""
","""event"",""trial"",""time""
""focus"",""246"",""1080014""
","""event"",""trial"",""time""
""fullscreenenter"",""5"",""46097""
","
",NA,images/earth.jpg,NA,NA,NA,NA,NA,NA,NA,NA,NA,NA,NA,NA,NA,fixation,NA,NA,NA,NA,NA,NA,sub68
d3-animate-choice,264,1124180,0.0-76.0-0.43,FALSE,TRUE,TRUE,FALSE,"""event"",""trial"",""time""
""fullscreenenter"",""5"",""46097""
""blur"",""245"",""1079146""
""focus"",""246"",""1080014""
","""event"",""trial"",""time""
""blur"",""245"",""1079146""
","""event"",""trial"",""time""
""focus"",""246"",""1080014""
","""event"",""trial"",""time""
""fullscreenenter"",""5"",""46097""
","
",696.2750000022352,NA,48,NA,NA,3000,1,NA,NA,images/earth.jpg,images/rocket1,images/rocket2,null,images/rocket1,NA,1,real,null,2,NA,NA,NA,sub68
d3-animate-choice,265,1128035,0.0-76.0-1.43,FALSE,TRUE,TRUE,FALSE,"""event"",""trial"",""time""
""fullscreenenter"",""5"",""46097""
""blur"",""245"",""1079146""
""focus"",""246"",""1080014""
","""event"",""trial"",""time""
""blur"",""245"",""1079146""
","""event"",""trial"",""time""
""focus"",""246"",""1080014""
","""event"",""trial"",""time""
""fullscreenenter"",""5"",""46097""
","
",1850.4249999970198,NA,48,NA,NA,3000,1,NA,NA,images/purpleplanet.jpg,images/alien4,images/alien3,images/rocket1,images/alien4,images/t.png,2,real,false,2,rare,1,2020-06-20T18:09:44Z,sub68
two-step-fixation,266,1129040,0.0-76.0-2.43,FALSE,TRUE,TRUE,FALSE,"""event"",""trial"",""time""
""fullscreenenter"",""5"",""46097""
""blur"",""245"",""1079146""
""focus"",""246"",""1080014""
","""event"",""trial"",""time""
""blur"",""245"",""1079146""
","""event"",""trial"",""time""
""focus"",""246"",""1080014""
","""event"",""trial"",""time""
""fullscreenenter"",""5"",""46097""
","
",NA,images/earth.jpg,NA,NA,NA,NA,NA,NA,NA,NA,NA,NA,NA,NA,NA,fixation,NA,NA,NA,NA,NA,NA,sub68
d3-animate-choice,267,1132104,0.0-76.0-0.44,FALSE,TRUE,TRUE,FALSE,"""event"",""trial"",""time""
""fullscreenenter"",""5"",""46097""
""blur"",""245"",""1079146""
""focus"",""246"",""1080014""
","""event"",""trial"",""time""
""blur"",""245"",""1079146""
","""event"",""trial"",""time""
""focus"",""246"",""1080014""
","""event"",""trial"",""time""
""fullscreenenter"",""5"",""46097""
","
",1056.2300000020768,NA,48,NA,NA,3000,1,NA,NA,images/earth.jpg,images/rocket1,images/rocket2,null,images/rocket1,NA,1,real,null,2,NA,NA,NA,sub68
d3-animate-choice,268,1134597,0.0-76.0-1.44,FALSE,TRUE,TRUE,FALSE,"""event"",""trial"",""time""
""fullscreenenter"",""5"",""46097""
""blur"",""245"",""1079146""
""focus"",""246"",""1080014""
","""event"",""trial"",""time""
""blur"",""245"",""1079146""
","""event"",""trial"",""time""
""focus"",""246"",""1080014""
","""event"",""trial"",""time""
""fullscreenenter"",""5"",""46097""
","
",484.8199999977369,NA,49,NA,NA,3000,1,NA,NA,images/redplanet1.jpg,images/alien2,images/alien1,images/rocket1,images/alien1,images/nothing.png,2,real,true,1,common,0,2020-06-20T18:09:51Z,sub68
two-step-fixation,269,1135604,0.0-76.0-2.44,FALSE,TRUE,TRUE,FALSE,"""event"",""trial"",""time""
""fullscreenenter"",""5"",""46097""
""blur"",""245"",""1079146""
""focus"",""246"",""1080014""
","""event"",""trial"",""time""
""blur"",""245"",""1079146""
","""event"",""trial"",""time""
""focus"",""246"",""1080014""
","""event"",""trial"",""time""
""fullscreenenter"",""5"",""46097""
","
",NA,images/earth.jpg,NA,NA,NA,NA,NA,NA,NA,NA,NA,NA,NA,NA,NA,fixation,NA,NA,NA,NA,NA,NA,sub68
d3-animate-choice,270,1138883,0.0-76.0-0.45,FALSE,TRUE,TRUE,FALSE,"""event"",""trial"",""time""
""fullscreenenter"",""5"",""46097""
""blur"",""245"",""1079146""
""focus"",""246"",""1080014""
","""event"",""trial"",""time""
""blur"",""245"",""1079146""
","""event"",""trial"",""time""
""focus"",""246"",""1080014""
","""event"",""trial"",""time""
""fullscreenenter"",""5"",""46097""
","
",1270.734999998007,NA,48,NA,NA,3000,1,NA,NA,images/earth.jpg,images/rocket1,images/rocket2,null,images/rocket1,NA,1,real,null,2,NA,NA,NA,sub68
d3-animate-choice,271,1142376,0.0-76.0-1.45,FALSE,TRUE,TRUE,FALSE,"""event"",""trial"",""time""
""fullscreenenter"",""5"",""46097""
""blur"",""245"",""1079146""
