trial_type,trial_index,time_elapsed,internal_node_id,rocket_sides,red_planet_first_rocket,red_display_order,purple_display_order,interactions,blur_events,focus_events,fullscreenenter_events,fullscreenexit_events,rt,stimulus,key_press,button_pressed,success,duration,valid_pressed,rts,keys,planet_text,right_text,left_text,center_text,chosen_text,reward_text,trial_stage,practice_trial,transition_type,choice,transition,reward,timestamp,subject_id
pavlovia,0,7,0.0-0.0,TRUE,FALSE,TRUE,FALSE,"
","
","
","
","
",NA,NA,NA,NA,NA,NA,NA,NA,NA,NA,NA,NA,NA,NA,NA,NA,NA,NA,NA,NA,NA,NA,sub151
html-keyboard-response,1,8460,0.0-1.0,TRUE,FALSE,TRUE,FALSE,"
","
","
","
","
",8451.554999999644,Welcome! Press the space bar to begin.,32,NA,NA,NA,NA,NA,NA,NA,NA,NA,NA,NA,NA,NA,NA,NA,NA,NA,NA,NA,sub151
audio-keyboard-response,2,12589,0.0-2.0,TRUE,FALSE,TRUE,FALSE,"
","
","
","
","
",3661,audio/beep_loop.wav,32,NA,NA,NA,NA,NA,NA,NA,NA,NA,NA,NA,NA,NA,NA,NA,NA,NA,NA,NA,sub151
audio-button-response,3,14777,0.0-3.0,TRUE,FALSE,TRUE,FALSE,"
","
","
","
","
",NaN,audio/fish.mp3,NA,1,NA,NA,NA,NA,NA,NA,NA,NA,NA,NA,NA,NA,NA,NA,NA,NA,NA,NA,sub151
audio-button-response,4,17290,0.0-4.0,TRUE,FALSE,TRUE,FALSE,"""event"",""trial"",""time""
""fullscreenenter"",""5"",""20950""
","
","
","""event"",""trial"",""time""
""fullscreenenter"",""5"",""20950""
","
",NaN,audio/tiger.mp3,NA,4,NA,NA,NA,NA,NA,NA,NA,NA,NA,NA,NA,NA,NA,NA,NA,NA,NA,NA,sub151
fullscreen,5,21946,0.0-5.0,TRUE,FALSE,TRUE,FALSE,"""event"",""trial"",""time""
""fullscreenenter"",""5"",""20950""
","
","
","""event"",""trial"",""time""
""fullscreenenter"",""5"",""20950""
","
",NA,NA,NA,NA,TRUE,NA,NA,NA,NA,NA,NA,NA,NA,NA,NA,NA,NA,NA,NA,NA,NA,NA,sub151
d3-instructions,6,36138,0.0-6.0,TRUE,FALSE,TRUE,FALSE,"""event"",""trial"",""time""
""fullscreenenter"",""5"",""20950""
","
","
","""event"",""trial"",""time""
""fullscreenenter"",""5"",""20950""
","
",NA,NA,NA,NA,NA,NA,NA,NA,NA,NA,NA,NA,NA,NA,NA,NA,NA,NA,NA,NA,NA,NA,sub151
d3-instructions,7,49190,0.0-7.0,TRUE,FALSE,TRUE,FALSE,"""event"",""trial"",""time""
""fullscreenenter"",""5"",""20950""
","
","
","""event"",""trial"",""time""
""fullscreenenter"",""5"",""20950""
","
",NA,NA,NA,NA,NA,NA,NA,NA,NA,NA,NA,NA,NA,NA,NA,NA,NA,NA,NA,NA,NA,NA,sub151
d3-instructions,8,57025,0.0-8.0,TRUE,FALSE,TRUE,FALSE,"""event"",""trial"",""time""
""fullscreenenter"",""5"",""20950""
","
","
","""event"",""trial"",""time""
""fullscreenenter"",""5"",""20950""
","
",NA,NA,NA,NA,NA,NA,NA,NA,NA,NA,NA,NA,NA,NA,NA,NA,NA,NA,NA,NA,NA,NA,sub151
d3-instructions,9,69475,0.0-9.0,TRUE,FALSE,TRUE,FALSE,"""event"",""trial"",""time""
""fullscreenenter"",""5"",""20950""
","
","
","""event"",""trial"",""time""
""fullscreenenter"",""5"",""20950""
","
",NA,NA,NA,NA,NA,NA,NA,NA,NA,NA,NA,NA,NA,NA,NA,NA,NA,NA,NA,NA,NA,NA,sub151
d3-instructions,10,99441,0.0-10.0,TRUE,FALSE,TRUE,FALSE,"""event"",""trial"",""time""
""fullscreenenter"",""5"",""20950""
","
","
","""event"",""trial"",""time""
""fullscreenenter"",""5"",""20950""
","
",NA,NA,NA,NA,NA,NA,NA,NA,NA,NA,NA,NA,NA,NA,NA,NA,NA,NA,NA,NA,NA,NA,sub151
d3-animate-choice,11,103797,0.0-11.0,TRUE,FALSE,TRUE,FALSE,"""event"",""trial"",""time""
""fullscreenenter"",""5"",""20950""
","
","
","""event"",""trial"",""time""
""fullscreenenter"",""5"",""20950""
","
",2341.4900000061607,NA,49,NA,NA,3000,1,3769.030000003113,48,images/tutgreenplanet.jpg,images/tutalien1,images/tutalien2,null,images/tutalien2,NA,NA,practice,null,NA,NA,NA,NA,sub151
d3-animate-choice,12,106747,0.0-12.0,TRUE,FALSE,TRUE,FALSE,"""event"",""trial"",""time""
""fullscreenenter"",""5"",""20950""
","
","
","""event"",""trial"",""time""
""fullscreenenter"",""5"",""20950""
","
",935.6750000006286,NA,48,NA,NA,3000,1,NA,NA,images/tutgreenplanet.jpg,images/tutalien1,images/tutalien2,null,images/tutalien1,NA,NA,practice,null,NA,NA,NA,NA,sub151
d3-animate-choice,13,109787,0.0-13.0,TRUE,FALSE,TRUE,FALSE,"""event"",""trial"",""time""
""fullscreenenter"",""5"",""20950""
","
","
","""event"",""trial"",""time""
""fullscreenenter"",""5"",""20950""
","
",1025.2049999980954,NA,48,NA,NA,3000,1,NA,NA,images/tutgreenplanet.jpg,images/tutalien1,images/tutalien2,null,images/tutalien1,NA,NA,practice,null,NA,NA,NA,NA,sub151
d3-animate-choice,14,112236,0.0-14.0,TRUE,FALSE,TRUE,FALSE,"""event"",""trial"",""time""
""fullscreenenter"",""5"",""20950""
","
","
","""event"",""trial"",""time""
""fullscreenenter"",""5"",""20950""
","
",439.40999999904307,NA,49,NA,NA,3000,1,NA,NA,images/tutgreenplanet.jpg,images/tutalien1,images/tutalien2,null,images/tutalien2,NA,NA,practice,null,NA,NA,NA,NA,sub151
d3-instructions,15,118440,0.0-15.0,TRUE,FALSE,TRUE,FALSE,"""event"",""trial"",""time""
""fullscreenenter"",""5"",""20950""
","
","
","""event"",""trial"",""time""
""fullscreenenter"",""5"",""20950""
","
",NA,NA,NA,NA,NA,NA,NA,NA,NA,NA,NA,NA,NA,NA,NA,NA,NA,NA,NA,NA,NA,NA,sub151
d3-instructions,16,124462,0.0-16.0,TRUE,FALSE,TRUE,FALSE,"""event"",""trial"",""time""
""fullscreenenter"",""5"",""20950""
","
","
","""event"",""trial"",""time""
""fullscreenenter"",""5"",""20950""
","
",NA,NA,NA,NA,NA,NA,NA,NA,NA,NA,NA,NA,NA,NA,NA,NA,NA,NA,NA,NA,NA,NA,sub151
d3-instructions,17,133126,0.0-17.0,TRUE,FALSE,TRUE,FALSE,"""event"",""trial"",""time""
""fullscreenenter"",""5"",""20950""
","
","
","""event"",""trial"",""time""
""fullscreenenter"",""5"",""20950""
","
",NA,NA,NA,NA,NA,NA,NA,NA,NA,NA,NA,NA,NA,NA,NA,NA,NA,NA,NA,NA,NA,NA,sub151
d3-instructions,18,147937,0.0-18.0,TRUE,FALSE,TRUE,FALSE,"""event"",""trial"",""time""
""fullscreenenter"",""5"",""20950""
","
","
","""event"",""trial"",""time""
""fullscreenenter"",""5"",""20950""
","
",NA,NA,NA,NA,NA,NA,NA,NA,NA,NA,NA,NA,NA,NA,NA,NA,NA,NA,NA,NA,NA,NA,sub151
d3-instructions,19,155582,0.0-19.0,TRUE,FALSE,TRUE,FALSE,"""event"",""trial"",""time""
""fullscreenenter"",""5"",""20950""
","
","
","""event"",""trial"",""time""
""fullscreenenter"",""5"",""20950""
","
",NA,NA,NA,NA,NA,NA,NA,NA,NA,NA,NA,NA,NA,NA,NA,NA,NA,NA,NA,NA,NA,NA,sub151
d3-animate-choice,20,158680,0.0-20.0,TRUE,FALSE,TRUE,FALSE,"""event"",""trial"",""time""
""fullscreenenter"",""5"",""20950""
","
","
","""event"",""trial"",""time""
""fullscreenenter"",""5"",""20950""
","
",1083.119999995688,NA,49,NA,NA,3000,1,2913.649999994959,49,images/tutyellowplanet.jpg,null,images/tutalien3,null,images/tutalien3,images/nothing.png,NA,practice,null,NA,NA,NA,NA,sub151
d3-animate-choice,21,161025,0.0-21.0,TRUE,FALSE,TRUE,FALSE,"""event"",""trial"",""time""
""fullscreenenter"",""5"",""20950""
","
","
","""event"",""trial"",""time""
""fullscreenenter"",""5"",""20950""
","
",320.25000000430737,NA,49,NA,NA,3000,1,NA,NA,images/tutyellowplanet.jpg,null,images/tutalien3,null,images/tutalien3,images/t.png,NA,practice,null,NA,NA,NA,NA,sub151
d3-animate-choice,22,163281,0.0-22.0,TRUE,FALSE,TRUE,FALSE,"""event"",""trial"",""time""
""fullscreenenter"",""5"",""20950""
","
","
","""event"",""trial"",""time""
""fullscreenenter"",""5"",""20950""
","
",249.34500000381377,NA,49,NA,NA,3000,1,2106.755000000703,49,images/tutyellowplanet.jpg,null,images/tutalien3,null,images/tutalien3,images/t.png,NA,practice,null,NA,NA,NA,NA,sub151
d3-animate-choice,23,165546,0.0-23.0,TRUE,FALSE,TRUE,FALSE,"""event"",""trial"",""time""
""fullscreenenter"",""5"",""20950""
","
","
","""event"",""trial"",""time""
""fullscreenenter"",""5"",""20950""
","
",241.2350000013248,NA,49,NA,NA,3000,1,1652.7700000006007,49,images/tutyellowplanet.jpg,null,images/tutalien3,null,images/tutalien3,images/t.png,NA,practice,null,NA,NA,NA,NA,sub151
d3-animate-choice,24,167756,0.0-24.0,TRUE,FALSE,TRUE,FALSE,"""event"",""trial"",""time""
""fullscreenenter"",""5"",""20950""
","
","
","""event"",""trial"",""time""
""fullscreenenter"",""5"",""20950""
","
",188.27500000043074,NA,49,NA,NA,3000,1,NA,NA,images/tutyellowplanet.jpg,null,images/tutalien3,null,images/tutalien3,images/t.png,NA,practice,null,NA,NA,NA,NA,sub151
d3-animate-choice,25,169825,0.0-25.0,TRUE,FALSE,TRUE,FALSE,"""event"",""trial"",""time""
""fullscreenenter"",""5"",""20950""
","
","
","""event"",""trial"",""time""
""fullscreenenter"",""5"",""20950""
","
",57.46999999973923,NA,49,NA,NA,3000,1,285.1699999955599,49,images/tutyellowplanet.jpg,null,images/tutalien3,null,images/tutalien3,images/t.png,NA,practice,null,NA,NA,NA,NA,sub151
d3-animate-choice,26,172095,0.0-26.0,TRUE,FALSE,TRUE,FALSE,"""event"",""trial"",""time""
""fullscreenenter"",""5"",""20950""
","
","
","""event"",""trial"",""time""
""fullscreenenter"",""5"",""20950""
","
",257.7499999970314,NA,49,NA,NA,3000,1,1828.9399999994203,49,images/tutyellowplanet.jpg,null,images/tutalien3,null,images/tutalien3,images/t.png,NA,practice,null,NA,NA,NA,NA,sub151
d3-animate-choice,27,174396,0.0-27.0,TRUE,FALSE,TRUE,FALSE,"""event"",""trial"",""time""
""fullscreenenter"",""5"",""20950""
","
","
","""event"",""trial"",""time""
""fullscreenenter"",""5"",""20950""
","
",292.85499999969034,NA,49,NA,NA,3000,1,NA,NA,images/tutyellowplanet.jpg,null,images/tutalien3,null,images/tutalien3,images/t.png,NA,practice,null,NA,NA,NA,NA,sub151
d3-animate-choice,28,176686,0.0-28.0,TRUE,FALSE,TRUE,FALSE,"""event"",""trial"",""time""
""fullscreenenter"",""5"",""20950""
","
","
","""event"",""trial"",""time""
""fullscreenenter"",""5"",""20950""
","
",275.3599999996368,NA,49,NA,NA,3000,1,NA,NA,images/tutyellowplanet.jpg,null,images/tutalien3,null,images/tutalien3,images/t.png,NA,practice,null,NA,NA,NA,NA,sub151
d3-animate-choice,29,179086,0.0-29.0,TRUE,FALSE,TRUE,FALSE,"""event"",""trial"",""time""
""fullscreenenter"",""5"",""20950""
","
","
","""event"",""trial"",""time""
""fullscreenenter"",""5"",""20950""
","
",380.6750000003376,NA,49,NA,NA,3000,1,NA,NA,images/tutyellowplanet.jpg,null,images/tutalien3,null,images/tutalien3,images/t.png,NA,practice,null,NA,NA,NA,NA,sub151
d3-instructions,30,185649,0.0-30.0,TRUE,FALSE,TRUE,FALSE,"""event"",""trial"",""time""
""fullscreenenter"",""5"",""20950""
","
","
","""event"",""trial"",""time""
""fullscreenenter"",""5"",""20950""
","
",NA,NA,NA,NA,NA,NA,NA,NA,NA,NA,NA,NA,NA,NA,NA,NA,NA,NA,NA,NA,NA,NA,sub151
d3-instructions,31,190038,0.0-31.0,TRUE,FALSE,TRUE,FALSE,"""event"",""trial"",""time""
""fullscreenenter"",""5"",""20950""
","
","
","""event"",""trial"",""time""
""fullscreenenter"",""5"",""20950""
","
",NA,NA,NA,NA,NA,NA,NA,NA,NA,NA,NA,NA,NA,NA,NA,NA,NA,NA,NA,NA,NA,NA,sub151
d3-instructions,32,193510,0.0-32.0,TRUE,FALSE,TRUE,FALSE,"""event"",""trial"",""time""
""fullscreenenter"",""5"",""20950""
","
","
","""event"",""trial"",""time""
""fullscreenenter"",""5"",""20950""
","
",NA,NA,NA,NA,NA,NA,NA,NA,NA,NA,NA,NA,NA,NA,NA,NA,NA,NA,NA,NA,NA,NA,sub151
d3-instructions,33,195582,0.0-33.0,TRUE,FALSE,TRUE,FALSE,"""event"",""trial"",""time""
""fullscreenenter"",""5"",""20950""
","
","
","""event"",""trial"",""time""
""fullscreenenter"",""5"",""20950""
","
",NA,NA,NA,NA,NA,NA,NA,NA,NA,NA,NA,NA,NA,NA,NA,NA,NA,NA,NA,NA,NA,NA,sub151
d3-animate-choice,34,199046,0.0-34.0,TRUE,FALSE,TRUE,FALSE,"""event"",""trial"",""time""
""fullscreenenter"",""5"",""20950""
","
","
","""event"",""trial"",""time""
""fullscreenenter"",""5"",""20950""
","
",1451.294999998936,NA,48,NA,NA,3000,1,NA,NA,images/tutgreenplanet.jpg,images/tutalien1,images/tutalien2,null,images/tutalien1,images/nothing.png,NA,practice,null,NA,NA,NA,NA,sub151
d3-animate-choice,35,201375,0.0-35.0,TRUE,FALSE,TRUE,FALSE,"""event"",""trial"",""time""
""fullscreenenter"",""5"",""20950""
","
","
","""event"",""trial"",""time""
""fullscreenenter"",""5"",""20950""
","
",319.74999999511056,NA,48,NA,NA,3000,1,NA,NA,images/tutgreenplanet.jpg,images/tutalien1,images/tutalien2,null,images/tutalien1,images/nothing.png,NA,practice,null,NA,NA,NA,NA,sub151
d3-animate-choice,36,203636,0.0-36.0,TRUE,FALSE,TRUE,FALSE,"""event"",""trial"",""time""
""fullscreenenter"",""5"",""20950""
","
","
","""event"",""trial"",""time""
""fullscreenenter"",""5"",""20950""
","
",236.19999999937136,NA,48,NA,NA,3000,1,NA,NA,images/tutgreenplanet.jpg,images/tutalien1,images/tutalien2,null,images/tutalien1,images/t.png,NA,practice,null,NA,NA,NA,NA,sub151
d3-animate-choice,37,205895,0.0-37.0,TRUE,FALSE,TRUE,FALSE,"""event"",""trial"",""time""
""fullscreenenter"",""5"",""20950""
","
","
","""event"",""trial"",""time""
""fullscreenenter"",""5"",""20950""
","
",246.09000000054948,NA,49,NA,NA,3000,1,NA,NA,images/tutgreenplanet.jpg,images/tutalien1,images/tutalien2,null,images/tutalien2,images/t.png,NA,practice,null,NA,NA,NA,NA,sub151
d3-animate-choice,38,208166,0.0-38.0,TRUE,FALSE,TRUE,FALSE,"""event"",""trial"",""time""
""fullscreenenter"",""5"",""20950""
","
","
","""event"",""trial"",""time""
""fullscreenenter"",""5"",""20950""
","
",259.859999998298,NA,49,NA,NA,3000,1,NA,NA,images/tutgreenplanet.jpg,images/tutalien1,images/tutalien2,null,images/tutalien2,images/t.png,NA,practice,null,NA,NA,NA,NA,sub151
d3-animate-choice,39,210286,0.0-39.0,TRUE,FALSE,TRUE,FALSE,"""event"",""trial"",""time""
""fullscreenenter"",""5"",""20950""
","
","
","""event"",""trial"",""time""
""fullscreenenter"",""5"",""20950""
","
",111.16500000207452,NA,49,NA,NA,3000,1,NA,NA,images/tutgreenplanet.jpg,images/tutalien1,images/tutalien2,null,images/tutalien2,images/nothing.png,NA,practice,null,NA,NA,NA,NA,sub151
d3-animate-choice,40,212576,0.0-40.0,TRUE,FALSE,TRUE,FALSE,"""event"",""trial"",""time""
""fullscreenenter"",""5"",""20950""
","
","
","""event"",""trial"",""time""
""fullscreenenter"",""5"",""20950""
","
",278.46000000135973,NA,49,NA,NA,3000,1,NA,NA,images/tutgreenplanet.jpg,images/tutalien1,images/tutalien2,null,images/tutalien2,images/t.png,NA,practice,null,NA,NA,NA,NA,sub151
d3-animate-choice,41,214686,0.0-41.0,TRUE,FALSE,TRUE,FALSE,"""event"",""trial"",""time""
""fullscreenenter"",""5"",""20950""
","
","
","""event"",""trial"",""time""
""fullscreenenter"",""5"",""20950""
","
",97.51999999571126,NA,49,NA,NA,3000,1,NA,NA,images/tutgreenplanet.jpg,images/tutalien1,images/tutalien2,null,images/tutalien2,images/t.png,NA,practice,null,NA,NA,NA,NA,sub151
d3-animate-choice,42,216786,0.0-42.0,TRUE,FALSE,TRUE,FALSE,"""event"",""trial"",""time""
""fullscreenenter"",""5"",""20950""
","
","
","""event"",""trial"",""time""
""fullscreenenter"",""5"",""20950""
","
",95.93999999924563,NA,49,NA,NA,3000,1,NA,NA,images/tutgreenplanet.jpg,images/tutalien1,images/tutalien2,null,images/tutalien2,images/t.png,NA,practice,null,NA,NA,NA,NA,sub151
d3-animate-choice,43,218886,0.0-43.0,TRUE,FALSE,TRUE,FALSE,"""event"",""trial"",""time""
""fullscreenenter"",""5"",""20950""
","
","
","""event"",""trial"",""time""
""fullscreenenter"",""5"",""20950""
","
",76.82500000373693,NA,49,NA,NA,3000,1,1624.3350000004284,48,images/tutgreenplanet.jpg,images/tutalien1,images/tutalien2,null,images/tutalien2,images/t.png,NA,practice,null,NA,NA,NA,NA,sub151
d3-instructions,44,231281,0.0-44.0,TRUE,FALSE,TRUE,FALSE,"""event"",""trial"",""time""
""fullscreenenter"",""5"",""20950""
","
","
","""event"",""trial"",""time""
""fullscreenenter"",""5"",""20950""
","
",NA,NA,NA,NA,NA,NA,NA,NA,NA,NA,NA,NA,NA,NA,NA,NA,NA,NA,NA,NA,NA,NA,sub151
d3-instructions,45,232743,0.0-45.0,TRUE,FALSE,TRUE,FALSE,"""event"",""trial"",""time""
""fullscreenenter"",""5"",""20950""
","
","
","""event"",""trial"",""time""
""fullscreenenter"",""5"",""20950""
","
",NA,NA,NA,NA,NA,NA,NA,NA,NA,NA,NA,NA,NA,NA,NA,NA,NA,NA,NA,NA,NA,NA,sub151
d3-instructions,46,235337,0.0-46.0,TRUE,FALSE,TRUE,FALSE,"""event"",""trial"",""time""
""fullscreenenter"",""5"",""20950""
","
","
","""event"",""trial"",""time""
""fullscreenenter"",""5"",""20950""
","
",NA,NA,NA,NA,NA,NA,NA,NA,NA,NA,NA,NA,NA,NA,NA,NA,NA,NA,NA,NA,NA,NA,sub151
d3-instructions,47,240233,0.0-47.0,TRUE,FALSE,TRUE,FALSE,"""event"",""trial"",""time""
""fullscreenenter"",""5"",""20950""
","
","
","""event"",""trial"",""time""
""fullscreenenter"",""5"",""20950""
","
",NA,NA,NA,NA,NA,NA,NA,NA,NA,NA,NA,NA,NA,NA,NA,NA,NA,NA,NA,NA,NA,NA,sub151
d3-instructions,48,244340,0.0-48.0,TRUE,FALSE,TRUE,FALSE,"""event"",""trial"",""time""
""fullscreenenter"",""5"",""20950""
","
","
","""event"",""trial"",""time""
""fullscreenenter"",""5"",""20950""
","
",NA,NA,NA,NA,NA,NA,NA,NA,NA,NA,NA,NA,NA,NA,NA,NA,NA,NA,NA,NA,NA,NA,sub151
d3-instructions,49,249491,0.0-49.0,TRUE,FALSE,TRUE,FALSE,"""event"",""trial"",""time""
""fullscreenenter"",""5"",""20950""
","
","
","""event"",""trial"",""time""
""fullscreenenter"",""5"",""20950""
","
",NA,NA,NA,NA,NA,NA,NA,NA,NA,NA,NA,NA,NA,NA,NA,NA,NA,NA,NA,NA,NA,NA,sub151
d3-instructions,50,253269,0.0-50.0,TRUE,FALSE,TRUE,FALSE,"""event"",""trial"",""time""
""fullscreenenter"",""5"",""20950""
","
","
","""event"",""trial"",""time""
""fullscreenenter"",""5"",""20950""
","
",NA,NA,NA,NA,NA,NA,NA,NA,NA,NA,NA,NA,NA,NA,NA,NA,NA,NA,NA,NA,NA,NA,sub151
d3-instructions,51,257475,0.0-51.0,TRUE,FALSE,TRUE,FALSE,"""event"",""trial"",""time""
""fullscreenenter"",""5"",""20950""
","
","
","""event"",""trial"",""time""
""fullscreenenter"",""5"",""20950""
","
",NA,NA,NA,NA,NA,NA,NA,NA,NA,NA,NA,NA,NA,NA,NA,NA,NA,NA,NA,NA,NA,NA,sub151
d3-instructions,52,264537,0.0-52.0,TRUE,FALSE,TRUE,FALSE,"""event"",""trial"",""time""
""fullscreenenter"",""5"",""20950""
","
","
","""event"",""trial"",""time""
""fullscreenenter"",""5"",""20950""
","
",NA,NA,NA,NA,NA,NA,NA,NA,NA,NA,NA,NA,NA,NA,NA,NA,NA,NA,NA,NA,NA,NA,sub151
d3-instructions,53,276555,0.0-53.0,TRUE,FALSE,TRUE,FALSE,"""event"",""trial"",""time""
""fullscreenenter"",""5"",""20950""
","
","
","""event"",""trial"",""time""
""fullscreenenter"",""5"",""20950""
","
",NA,NA,NA,NA,NA,NA,NA,NA,NA,NA,NA,NA,NA,NA,NA,NA,NA,NA,NA,NA,NA,NA,sub151
d3-instructions,54,285939,0.0-54.0,TRUE,FALSE,TRUE,FALSE,"""event"",""trial"",""time""
""fullscreenenter"",""5"",""20950""
","
","
","""event"",""trial"",""time""
""fullscreenenter"",""5"",""20950""
","
",NA,NA,NA,NA,NA,NA,NA,NA,NA,NA,NA,NA,NA,NA,NA,NA,NA,NA,NA,NA,NA,NA,sub151
d3-instructions,55,294830,0.0-55.0,TRUE,FALSE,TRUE,FALSE,"""event"",""trial"",""time""
""fullscreenenter"",""5"",""20950""
","
","
","""event"",""trial"",""time""
""fullscreenenter"",""5"",""20950""
","
",NA,NA,NA,NA,NA,NA,NA,NA,NA,NA,NA,NA,NA,NA,NA,NA,NA,NA,NA,NA,NA,NA,sub151
d3-instructions,56,299013,0.0-56.0,TRUE,FALSE,TRUE,FALSE,"""event"",""trial"",""time""
""fullscreenenter"",""5"",""20950""
","
","
","""event"",""trial"",""time""
""fullscreenenter"",""5"",""20950""
","
",NA,NA,NA,NA,NA,NA,NA,NA,NA,NA,NA,NA,NA,NA,NA,NA,NA,NA,NA,NA,NA,NA,sub151
d3-instructions,57,309258,0.0-57.0,TRUE,FALSE,TRUE,FALSE,"""event"",""trial"",""time""
""fullscreenenter"",""5"",""20950""
","
","
","""event"",""trial"",""time""
""fullscreenenter"",""5"",""20950""
","
",NA,NA,NA,NA,NA,NA,NA,NA,NA,NA,NA,NA,NA,NA,NA,NA,NA,NA,NA,NA,NA,NA,sub151
d3-instructions,58,322276,0.0-58.0,TRUE,FALSE,TRUE,FALSE,"""event"",""trial"",""time""
""fullscreenenter"",""5"",""20950""
","
","
","""event"",""trial"",""time""
""fullscreenenter"",""5"",""20950""
","
",NA,NA,NA,NA,NA,NA,NA,NA,NA,NA,NA,NA,NA,NA,NA,NA,NA,NA,NA,NA,NA,NA,sub151
d3-instructions,59,327471,0.0-59.0,TRUE,FALSE,TRUE,FALSE,"""event"",""trial"",""time""
""fullscreenenter"",""5"",""20950""
","
","
","""event"",""trial"",""time""
""fullscreenenter"",""5"",""20950""
","
",NA,NA,NA,NA,NA,NA,NA,NA,NA,NA,NA,NA,NA,NA,NA,NA,NA,NA,NA,NA,NA,NA,sub151
d3-instructions,60,332336,0.0-60.0,TRUE,FALSE,TRUE,FALSE,"""event"",""trial"",""time""
""fullscreenenter"",""5"",""20950""
","
","
","""event"",""trial"",""time""
""fullscreenenter"",""5"",""20950""
","
",NA,NA,NA,NA,NA,NA,NA,NA,NA,NA,NA,NA,NA,NA,NA,NA,NA,NA,NA,NA,NA,NA,sub151
d3-animate-choice,61,335676,0.0-61.0-0.0,TRUE,FALSE,TRUE,FALSE,"""event"",""trial"",""time""
""fullscreenenter"",""5"",""20950""
","
","
","""event"",""trial"",""time""
""fullscreenenter"",""5"",""20950""
","
",1324.17500000156,NA,49,NA,NA,3000,1,NA,NA,images/earth.jpg,images/tutrocket2,images/tutrocket1,null,images/tutrocket1,NA,1,practice,null,1,NA,NA,NA,sub151
d3-animate-choice,62,339104,0.0-61.0-1.0,TRUE,FALSE,TRUE,FALSE,"""event"",""trial"",""time""
""fullscreenenter"",""5"",""20950""
","
","
","""event"",""trial"",""time""
""fullscreenenter"",""5"",""20950""
","
",1414.7100000045612,NA,49,NA,NA,3000,1,NA,NA,images/tutgreenplanet.jpg,images/tutalien2,images/tutalien1,images/tutrocket1,images/tutalien1,images/nothing.png,2,practice,false,1,rare,0,2020-07-03T16:43:17Z,sub151
two-step-fixation,63,340117,0.0-61.0-2.0,TRUE,FALSE,TRUE,FALSE,"""event"",""trial"",""time""
""fullscreenenter"",""5"",""20950""
","
","
","""event"",""trial"",""time""
""fullscreenenter"",""5"",""20950""
","
",NA,images/earth.jpg,NA,NA,NA,NA,NA,NA,NA,NA,NA,NA,NA,NA,NA,fixation,NA,NA,NA,NA,NA,NA,sub151
d3-animate-choice,64,342426,0.0-61.0-0.1,TRUE,FALSE,TRUE,FALSE,"""event"",""trial"",""time""
""fullscreenenter"",""5"",""20950""
","
","
","""event"",""trial"",""time""
""fullscreenenter"",""5"",""20950""
","
",297.59000000194646,NA,49,NA,NA,3000,1,NA,NA,images/earth.jpg,images/tutrocket2,images/tutrocket1,null,images/tutrocket1,NA,1,practice,null,1,NA,NA,NA,sub151
d3-animate-choice,65,345306,0.0-61.0-1.1,TRUE,FALSE,TRUE,FALSE,"""event"",""trial"",""time""
""fullscreenenter"",""5"",""20950""
","
","
","""event"",""trial"",""time""
""fullscreenenter"",""5"",""20950""
","
",858.1449999983306,NA,49,NA,NA,3000,1,NA,NA,images/tutyellowplanet.jpg,images/tutalien4,images/tutalien3,images/tutrocket1,images/tutalien3,images/t.png,2,practice,true,1,common,1,2020-07-03T16:43:24Z,sub151
two-step-fixation,66,346316,0.0-61.0-2.1,TRUE,FALSE,TRUE,FALSE,"""event"",""trial"",""time""
""fullscreenenter"",""5"",""20950""
","
","
","""event"",""trial"",""time""
""fullscreenenter"",""5"",""20950""
","
",NA,images/earth.jpg,NA,NA,NA,NA,NA,NA,NA,NA,NA,NA,NA,NA,NA,fixation,NA,NA,NA,NA,NA,NA,sub151
d3-animate-choice,67,348676,0.0-61.0-0.2,TRUE,FALSE,TRUE,FALSE,"""event"",""trial"",""time""
""fullscreenenter"",""5"",""20950""
","
","
","""event"",""trial"",""time""
""fullscreenenter"",""5"",""20950""
","
",348.5149999978603,NA,49,NA,NA,3000,1,NA,NA,images/earth.jpg,images/tutrocket2,images/tutrocket1,null,images/tutrocket1,NA,1,practice,null,1,NA,NA,NA,sub151
d3-animate-choice,68,351396,0.0-61.0-1.2,TRUE,FALSE,TRUE,FALSE,"""event"",""trial"",""time""
""fullscreenenter"",""5"",""20950""
","
","
","""event"",""trial"",""time""
""fullscreenenter"",""5"",""20950""
","
",695.0649999998859,NA,49,NA,NA,3000,1,NA,NA,images/tutyellowplanet.jpg,images/tutalien4,images/tutalien3,images/tutrocket1,images/tutalien3,images/nothing.png,2,practice,true,1,common,0,2020-07-03T16:43:30Z,sub151
two-step-fixation,69,352406,0.0-61.0-2.2,TRUE,FALSE,TRUE,FALSE,"""event"",""trial"",""time""
""fullscreenenter"",""5"",""20950""
","
","
","""event"",""trial"",""time""
""fullscreenenter"",""5"",""20950""
","
",NA,images/earth.jpg,NA,NA,NA,NA,NA,NA,NA,NA,NA,NA,NA,NA,NA,fixation,NA,NA,NA,NA,NA,NA,sub151
d3-animate-choice,70,354696,0.0-61.0-0.3,TRUE,FALSE,TRUE,FALSE,"""event"",""trial"",""time""
""fullscreenenter"",""5"",""20950""
","
","
","""event"",""trial"",""time""
""fullscreenenter"",""5"",""20950""
","
",279.56499999709195,NA,49,NA,NA,3000,1,NA,NA,images/earth.jpg,images/tutrocket2,images/tutrocket1,null,images/tutrocket1,NA,1,practice,null,1,NA,NA,NA,sub151
d3-animate-choice,71,357177,0.0-61.0-1.3,TRUE,FALSE,TRUE,FALSE,"""event"",""trial"",""time""
""fullscreenenter"",""5"",""20950""
","
","
","""event"",""trial"",""time""
""fullscreenenter"",""5"",""20950""
","
",473.81500000483356,NA,49,NA,NA,3000,1,NA,NA,images/tutyellowplanet.jpg,images/tutalien4,images/tutalien3,images/tutrocket1,images/tutalien3,images/t.png,2,practice,true,1,common,1,2020-07-03T16:43:35Z,sub151
two-step-fixation,72,358186,0.0-61.0-2.3,TRUE,FALSE,TRUE,FALSE,"""event"",""trial"",""time""
""fullscreenenter"",""5"",""20950""
","
","
","""event"",""trial"",""time""
""fullscreenenter"",""5"",""20950""
","
",NA,images/earth.jpg,NA,NA,NA,NA,NA,NA,NA,NA,NA,NA,NA,NA,NA,fixation,NA,NA,NA,NA,NA,NA,sub151
d3-animate-choice,73,360526,0.0-61.0-0.4,TRUE,FALSE,TRUE,FALSE,"""event"",""trial"",""time""
""fullscreenenter"",""5"",""20950""
","
","
","""event"",""trial"",""time""
""fullscreenenter"",""5"",""20950""
","
",324.55999999365304,NA,49,NA,NA,3000,1,NA,NA,images/earth.jpg,images/tutrocket2,images/tutrocket1,null,images/tutrocket1,NA,1,practice,null,1,NA,NA,NA,sub151
d3-animate-choice,74,363722,0.0-61.0-1.4,TRUE,FALSE,TRUE,FALSE,"""event"",""trial"",""time""
""fullscreenenter"",""5"",""20950""
","
","
","""event"",""trial"",""time""
""fullscreenenter"",""5"",""20950""
","
",1186.6200000004028,NA,48,NA,NA,3000,1,NA,NA,images/tutgreenplanet.jpg,images/tutalien2,images/tutalien1,images/tutrocket1,images/tutalien2,images/nothing.png,2,practice,false,2,rare,0,2020-07-03T16:43:42Z,sub151
two-step-fixation,75,364729,0.0-61.0-2.4,TRUE,FALSE,TRUE,FALSE,"""event"",""trial"",""time""
""fullscreenenter"",""5"",""20950""
","
","
","""event"",""trial"",""time""
""fullscreenenter"",""5"",""20950""
","
",NA,images/earth.jpg,NA,NA,NA,NA,NA,NA,NA,NA,NA,NA,NA,NA,NA,fixation,NA,NA,NA,NA,NA,NA,sub151
d3-animate-choice,76,367053,0.0-61.0-0.5,TRUE,FALSE,TRUE,FALSE,"""event"",""trial"",""time""
""fullscreenenter"",""5"",""20950""
","
","
","""event"",""trial"",""time""
""fullscreenenter"",""5"",""20950""
","
",311.3949999969918,NA,49,NA,NA,3000,1,NA,NA,images/earth.jpg,images/tutrocket2,images/tutrocket1,null,images/tutrocket1,NA,1,practice,null,1,NA,NA,NA,sub151
d3-animate-choice,77,369537,0.0-61.0-1.5,TRUE,FALSE,TRUE,FALSE,"""event"",""trial"",""time""
""fullscreenenter"",""5"",""20950""
","
","
","""event"",""trial"",""time""
""fullscreenenter"",""5"",""20950""
","
",471.3550000014948,NA,49,NA,NA,3000,1,NA,NA,images/tutyellowplanet.jpg,images/tutalien4,images/tutalien3,images/tutrocket1,images/tutalien3,images/nothing.png,2,practice,true,1,common,0,2020-07-03T16:43:48Z,sub151
two-step-fixation,78,370543,0.0-61.0-2.5,TRUE,FALSE,TRUE,FALSE,"""event"",""trial"",""time""
""fullscreenenter"",""5"",""20950""
","
","
","""event"",""trial"",""time""
""fullscreenenter"",""5"",""20950""
","
",NA,images/earth.jpg,NA,NA,NA,NA,NA,NA,NA,NA,NA,NA,NA,NA,NA,fixation,NA,NA,NA,NA,NA,NA,sub151
d3-animate-choice,79,372969,0.0-61.0-0.6,TRUE,FALSE,TRUE,FALSE,"""event"",""trial"",""time""
""fullscreenenter"",""5"",""20950""
","
","
","""event"",""trial"",""time""
""fullscreenenter"",""5"",""20950""
","
",419.34999999648426,NA,49,NA,NA,3000,1,NA,NA,images/earth.jpg,images/tutrocket2,images/tutrocket1,null,images/tutrocket1,NA,1,practice,null,1,NA,NA,NA,sub151
d3-animate-choice,80,375693,0.0-61.0-1.6,TRUE,FALSE,TRUE,FALSE,"""event"",""trial"",""time""
""fullscreenenter"",""5"",""20950""
","
","
","""event"",""trial"",""time""
""fullscreenenter"",""5"",""20950""
","
",712.2349999990547,NA,49,NA,NA,3000,1,NA,NA,images/tutyellowplanet.jpg,images/tutalien4,images/tutalien3,images/tutrocket1,images/tutalien3,images/nothing.png,2,practice,true,1,common,0,2020-07-03T16:43:54Z,sub151
two-step-fixation,81,376699,0.0-61.0-2.6,TRUE,FALSE,TRUE,FALSE,"""event"",""trial"",""time""
""fullscreenenter"",""5"",""20950""
","
","
","""event"",""trial"",""time""
""fullscreenenter"",""5"",""20950""
","
",NA,images/earth.jpg,NA,NA,NA,NA,NA,NA,NA,NA,NA,NA,NA,NA,NA,fixation,NA,NA,NA,NA,NA,NA,sub151
d3-animate-choice,82,379234,0.0-61.0-0.7,TRUE,FALSE,TRUE,FALSE,"""event"",""trial"",""time""
""fullscreenenter"",""5"",""20950""
","
","
","""event"",""trial"",""time""
""fullscreenenter"",""5"",""20950""
","
",525.099999998929,NA,49,NA,NA,3000,1,NA,NA,images/earth.jpg,images/tutrocket2,images/tutrocket1,null,images/tutrocket1,NA,1,practice,null,1,NA,NA,NA,sub151
d3-animate-choice,83,382322,0.0-61.0-1.7,TRUE,FALSE,TRUE,FALSE,"""event"",""trial"",""time""
""fullscreenenter"",""5"",""20950""
","
","
","""event"",""trial"",""time""
""fullscreenenter"",""5"",""20950""
","
",1075.8900000000722,NA,49,NA,NA,3000,1,NA,NA,images/tutgreenplanet.jpg,images/tutalien2,images/tutalien1,images/tutrocket1,images/tutalien1,images/nothing.png,2,practice,false,1,rare,0,2020-07-03T16:44:01Z,sub151
two-step-fixation,84,383335,0.0-61.0-2.7,TRUE,FALSE,TRUE,FALSE,"""event"",""trial"",""time""
""fullscreenenter"",""5"",""20950""
","
","
","""event"",""trial"",""time""
""fullscreenenter"",""5"",""20950""
","
",NA,images/earth.jpg,NA,NA,NA,NA,NA,NA,NA,NA,NA,NA,NA,NA,NA,fixation,NA,NA,NA,NA,NA,NA,sub151
d3-animate-choice,85,385599,0.0-61.0-0.8,TRUE,FALSE,TRUE,FALSE,"""event"",""trial"",""time""
""fullscreenenter"",""5"",""20950""
","
","
","""event"",""trial"",""time""
""fullscreenenter"",""5"",""20950""
","
",258.0099999977392,NA,49,NA,NA,3000,1,NA,NA,images/earth.jpg,images/tutrocket2,images/tutrocket1,null,images/tutrocket1,NA,1,practice,null,1,NA,NA,NA,sub151
d3-animate-choice,86,388001,0.0-61.0-1.8,TRUE,FALSE,TRUE,FALSE,"""event"",""trial"",""time""
""fullscreenenter"",""5"",""20950""
","
","
","""event"",""trial"",""time""
""fullscreenenter"",""5"",""20950""
","
",392.1750000008615,NA,48,NA,NA,3000,1,NA,NA,images/tutgreenplanet.jpg,images/tutalien2,images/tutalien1,images/tutrocket1,images/tutalien2,images/t.png,2,practice,false,2,rare,1,2020-07-03T16:44:06Z,sub151
two-step-fixation,87,389011,0.0-61.0-2.8,TRUE,FALSE,TRUE,FALSE,"""event"",""trial"",""time""
""fullscreenenter"",""5"",""20950""
","
","
","""event"",""trial"",""time""
""fullscreenenter"",""5"",""20950""
","
",NA,images/earth.jpg,NA,NA,NA,NA,NA,NA,NA,NA,NA,NA,NA,NA,NA,fixation,NA,NA,NA,NA,NA,NA,sub151
d3-animate-choice,88,391312,0.0-61.0-0.9,TRUE,FALSE,TRUE,FALSE,"""event"",""trial"",""time""
""fullscreenenter"",""5"",""20950""
","
","
","""event"",""trial"",""time""
""fullscreenenter"",""5"",""20950""
","
",289.7300000040559,NA,48,NA,NA,3000,1,NA,NA,images/earth.jpg,images/tutrocket2,images/tutrocket1,null,images/tutrocket2,NA,1,practice,null,2,NA,NA,NA,sub151
d3-animate-choice,89,393646,0.0-61.0-1.9,TRUE,FALSE,TRUE,FALSE,"""event"",""trial"",""time""
""fullscreenenter"",""5"",""20950""
","
","
","""event"",""trial"",""time""
""fullscreenenter"",""5"",""20950""
","
",324.7799999953713,NA,48,NA,NA,3000,1,NA,NA,images/tutgreenplanet.jpg,images/tutalien2,images/tutalien1,images/tutrocket2,images/tutalien2,images/nothing.png,2,practice,true,2,common,0,2020-07-03T16:44:12Z,sub151
two-step-fixation,90,394656,0.0-61.0-2.9,TRUE,FALSE,TRUE,FALSE,"""event"",""trial"",""time""
""fullscreenenter"",""5"",""20950""
","
","
","""event"",""trial"",""time""
""fullscreenenter"",""5"",""20950""
","
",NA,images/earth.jpg,NA,NA,NA,NA,NA,NA,NA,NA,NA,NA,NA,NA,NA,fixation,NA,NA,NA,NA,NA,NA,sub151
d3-animate-choice,91,396898,0.0-61.0-0.10,TRUE,FALSE,TRUE,FALSE,"""event"",""trial"",""time""
""fullscreenenter"",""5"",""20950""
","
","
","""event"",""trial"",""time""
""fullscreenenter"",""5"",""20950""
","
",233.58500000176718,NA,48,NA,NA,3000,1,"1579.9100000003818,1821.5300000010757",4848,images/earth.jpg,images/tutrocket2,images/tutrocket1,null,images/tutrocket2,NA,1,practice,null,2,NA,NA,NA,sub151
d3-animate-choice,92,399212,0.0-61.0-1.10,TRUE,FALSE,TRUE,FALSE,"""event"",""trial"",""time""
""fullscreenenter"",""5"",""20950""
","
","
","""event"",""trial"",""time""
""fullscreenenter"",""5"",""20950""
","
",308.2749999957741,NA,48,NA,NA,3000,1,NA,NA,images/tutgreenplanet.jpg,images/tutalien2,images/tutalien1,images/tutrocket2,images/tutalien2,images/nothing.png,2,practice,true,2,common,0,2020-07-03T16:44:17Z,sub151
two-step-fixation,93,400223,0.0-61.0-2.10,TRUE,FALSE,TRUE,FALSE,"""event"",""trial"",""time""
""fullscreenenter"",""5"",""20950""
","
","
","""event"",""trial"",""time""
""fullscreenenter"",""5"",""20950""
","
",NA,images/earth.jpg,NA,NA,NA,NA,NA,NA,NA,NA,NA,NA,NA,NA,NA,fixation,NA,NA,NA,NA,NA,NA,sub151
d3-animate-choice,94,402309,0.0-61.0-0.11,TRUE,FALSE,TRUE,FALSE,"""event"",""trial"",""time""
""fullscreenenter"",""5"",""20950""
","
","
","""event"",""trial"",""time""
""fullscreenenter"",""5"",""20950""
","
",73.44000000011874,NA,49,NA,NA,3000,1,NA,NA,images/earth.jpg,images/tutrocket2,images/tutrocket1,null,images/tutrocket1,NA,1,practice,null,1,NA,NA,NA,sub151
d3-animate-choice,95,405317,0.0-61.0-1.11,TRUE,FALSE,TRUE,FALSE,"""event"",""trial"",""time""
""fullscreenenter"",""5"",""20950""
","
","
","""event"",""trial"",""time""
""fullscreenenter"",""5"",""20950""
","
",998.6700000008568,NA,49,NA,NA,3000,1,NA,NA,images/tutgreenplanet.jpg,images/tutalien2,images/tutalien1,images/tutrocket1,images/tutalien1,images/t.png,2,practice,false,1,rare,1,2020-07-03T16:44:24Z,sub151
two-step-fixation,96,406324,0.0-61.0-2.11,TRUE,FALSE,TRUE,FALSE,"""event"",""trial"",""time""
""fullscreenenter"",""5"",""20950""
","
","
","""event"",""trial"",""time""
""fullscreenenter"",""5"",""20950""
","
",NA,images/earth.jpg,NA,NA,NA,NA,NA,NA,NA,NA,NA,NA,NA,NA,NA,fixation,NA,NA,NA,NA,NA,NA,sub151
d3-animate-choice,97,408653,0.0-61.0-0.12,TRUE,FALSE,TRUE,FALSE,"""event"",""trial"",""time""
""fullscreenenter"",""5"",""20950""
","
","
","""event"",""trial"",""time""
""fullscreenenter"",""5"",""20950""
","
",317.574999993667,NA,49,NA,NA,3000,1,NA,NA,images/earth.jpg,images/tutrocket2,images/tutrocket1,null,images/tutrocket1,NA,1,practice,null,1,NA,NA,NA,sub151
d3-animate-choice,98,411558,0.0-61.0-1.12,TRUE,FALSE,TRUE,FALSE,"""event"",""trial"",""time""
""fullscreenenter"",""5"",""20950""
","
","
","""event"",""trial"",""time""
""fullscreenenter"",""5"",""20950""
","
",897.8250000000116,NA,48,NA,NA,3000,1,NA,NA,images/tutyellowplanet.jpg,images/tutalien4,images/tutalien3,images/tutrocket1,images/tutalien4,images/t.png,2,practice,true,2,common,1,2020-07-03T16:44:30Z,sub151
two-step-fixation,99,412565,0.0-61.0-2.12,TRUE,FALSE,TRUE,FALSE,"""event"",""trial"",""time""
""fullscreenenter"",""5"",""20950""
","
","
","""event"",""trial"",""time""
""fullscreenenter"",""5"",""20950""
","
",NA,images/earth.jpg,NA,NA,NA,NA,NA,NA,NA,NA,NA,NA,NA,NA,NA,fixation,NA,NA,NA,NA,NA,NA,sub151
d3-animate-choice,100,415280,0.0-61.0-0.13,TRUE,FALSE,TRUE,FALSE,"""event"",""trial"",""time""
""fullscreenenter"",""5"",""20950""
","
","
","""event"",""trial"",""time""
""fullscreenenter"",""5"",""20950""
","
",707.2400000033667,NA,48,NA,NA,3000,1,NA,NA,images/earth.jpg,images/tutrocket2,images/tutrocket1,null,images/tutrocket2,NA,1,practice,null,2,NA,NA,NA,sub151
d3-animate-choice,101,418062,0.0-61.0-1.13,TRUE,FALSE,TRUE,FALSE,"""event"",""trial"",""time""
""fullscreenenter"",""5"",""20950""
","
","
","""event"",""trial"",""time""
""fullscreenenter"",""5"",""20950""
","
",772.5449999998091,NA,49,NA,NA,3000,1,NA,NA,images/tutgreenplanet.jpg,images/tutalien2,images/tutalien1,images/tutrocket2,images/tutalien1,images/nothing.png,2,practice,true,1,common,0,2020-07-03T16:44:36Z,sub151
two-step-fixation,102,419071,0.0-61.0-2.13,TRUE,FALSE,TRUE,FALSE,"""event"",""trial"",""time""
""fullscreenenter"",""5"",""20950""
","
","
","""event"",""trial"",""time""
""fullscreenenter"",""5"",""20950""
","
",NA,images/earth.jpg,NA,NA,NA,NA,NA,NA,NA,NA,NA,NA,NA,NA,NA,fixation,NA,NA,NA,NA,NA,NA,sub151
d3-animate-choice,103,421242,0.0-61.0-0.14,TRUE,FALSE,TRUE,FALSE,"""event"",""trial"",""time""
""fullscreenenter"",""5"",""20950""
","
","
","""event"",""trial"",""time""
""fullscreenenter"",""5"",""20950""
","
",161.62500000064028,NA,49,NA,NA,3000,1,NA,NA,images/earth.jpg,images/tutrocket2,images/tutrocket1,null,images/tutrocket1,NA,1,practice,null,1,NA,NA,NA,sub151
d3-animate-choice,104,423552,0.0-61.0-1.14,TRUE,FALSE,TRUE,FALSE,"""event"",""trial"",""time""
""fullscreenenter"",""5"",""20950""
","
","
","""event"",""trial"",""time""
""fullscreenenter"",""5"",""20950""
","
",296.77000000083353,NA,48,NA,NA,3000,1,NA,NA,images/tutyellowplanet.jpg,images/tutalien4,images/tutalien3,images/tutrocket1,images/tutalien4,images/t.png,2,practice,true,2,common,1,2020-07-03T16:44:42Z,sub151
two-step-fixation,105,424559,0.0-61.0-2.14,TRUE,FALSE,TRUE,FALSE,"""event"",""trial"",""time""
""fullscreenenter"",""5"",""20950""
","
","
","""event"",""trial"",""time""
""fullscreenenter"",""5"",""20950""
","
",NA,images/earth.jpg,NA,NA,NA,NA,NA,NA,NA,NA,NA,NA,NA,NA,NA,fixation,NA,NA,NA,NA,NA,NA,sub151
d3-animate-choice,106,426792,0.0-61.0-0.15,TRUE,FALSE,TRUE,FALSE,"""event"",""trial"",""time""
""fullscreenenter"",""5"",""20950""
","
","
","""event"",""trial"",""time""
""fullscreenenter"",""5"",""20950""
","
",223.83499999705236,NA,49,NA,NA,3000,1,NA,NA,images/earth.jpg,images/tutrocket2,images/tutrocket1,null,images/tutrocket1,NA,1,practice,null,1,NA,NA,NA,sub151
d3-animate-choice,107,429029,0.0-61.0-1.15,TRUE,FALSE,TRUE,FALSE,"""event"",""trial"",""time""
""fullscreenenter"",""5"",""20950""
","
","
","""event"",""trial"",""time""
""fullscreenenter"",""5"",""20950""
","
",226.04000000137603,NA,48,NA,NA,3000,1,NA,NA,images/tutyellowplanet.jpg,images/tutalien4,images/tutalien3,images/tutrocket1,images/tutalien4,images/nothing.png,2,practice,true,2,common,0,2020-07-03T16:44:47Z,sub151
two-step-fixation,108,430040,0.0-61.0-2.15,TRUE,FALSE,TRUE,FALSE,"""event"",""trial"",""time""
""fullscreenenter"",""5"",""20950""
","
","
","""event"",""trial"",""time""
""fullscreenenter"",""5"",""20950""
","
",NA,images/earth.jpg,NA,NA,NA,NA,NA,NA,NA,NA,NA,NA,NA,NA,NA,fixation,NA,NA,NA,NA,NA,NA,sub151
d3-animate-choice,109,432278,0.0-61.0-0.16,TRUE,FALSE,TRUE,FALSE,"""event"",""trial"",""time""
""fullscreenenter"",""5"",""20950""
","
","
","""event"",""trial"",""time""
""fullscreenenter"",""5"",""20950""
","
",227.75499999988824,NA,49,NA,NA,3000,1,NA,NA,images/earth.jpg,images/tutrocket2,images/tutrocket1,null,images/tutrocket1,NA,1,practice,null,1,NA,NA,NA,sub151
d3-animate-choice,110,434511,0.0-61.0-1.16,TRUE,FALSE,TRUE,FALSE,"""event"",""trial"",""time""
""fullscreenenter"",""5"",""20950""
","
","
","""event"",""trial"",""time""
""fullscreenenter"",""5"",""20950""
","
",228.02999999839813,NA,48,NA,NA,3000,1,NA,NA,images/tutyellowplanet.jpg,images/tutalien4,images/tutalien3,images/tutrocket1,images/tutalien4,images/nothing.png,2,practice,true,2,common,0,2020-07-03T16:44:53Z,sub151
two-step-fixation,111,435521,0.0-61.0-2.16,TRUE,FALSE,TRUE,FALSE,"""event"",""trial"",""time""
""fullscreenenter"",""5"",""20950""
","
","
","""event"",""trial"",""time""
""fullscreenenter"",""5"",""20950""
","
",NA,images/earth.jpg,NA,NA,NA,NA,NA,NA,NA,NA,NA,NA,NA,NA,NA,fixation,NA,NA,NA,NA,NA,NA,sub151
d3-animate-choice,112,437835,0.0-61.0-0.17,TRUE,FALSE,TRUE,FALSE,"""event"",""trial"",""time""
""fullscreenenter"",""5"",""20950""
","
","
","""event"",""trial"",""time""
""fullscreenenter"",""5"",""20950""
","
",304.77999999857275,NA,49,NA,NA,3000,1,NA,NA,images/earth.jpg,images/tutrocket2,images/tutrocket1,null,images/tutrocket1,NA,1,practice,null,1,NA,NA,NA,sub151
d3-animate-choice,113,440075,0.0-61.0-1.17,TRUE,FALSE,TRUE,FALSE,"""event"",""trial"",""time""
""fullscreenenter"",""5"",""20950""
","
","
","""event"",""trial"",""time""
""fullscreenenter"",""5"",""20950""
","
",229.40999999991618,NA,48,NA,NA,3000,1,NA,NA,images/tutyellowplanet.jpg,images/tutalien4,images/tutalien3,images/tutrocket1,images/tutalien4,images/t.png,2,practice,true,2,common,1,2020-07-03T16:44:58Z,sub151
two-step-fixation,114,441084,0.0-61.0-2.17,TRUE,FALSE,TRUE,FALSE,"""event"",""trial"",""time""
""fullscreenenter"",""5"",""20950""
","
","
","""event"",""trial"",""time""
""fullscreenenter"",""5"",""20950""
","
",NA,images/earth.jpg,NA,NA,NA,NA,NA,NA,NA,NA,NA,NA,NA,NA,NA,fixation,NA,NA,NA,NA,NA,NA,sub151
d3-animate-choice,115,443240,0.0-61.0-0.18,TRUE,FALSE,TRUE,FALSE,"""event"",""trial"",""time""
""fullscreenenter"",""5"",""20950""
","
","
","""event"",""trial"",""time""
""fullscreenenter"",""5"",""20950""
","
",145.86500000586966,NA,49,NA,NA,3000,1,"1688.3149999994203,1902.2150000018883,2132.790000003297",484848,images/earth.jpg,images/tutrocket2,images/tutrocket1,null,images/tutrocket1,NA,1,practice,null,1,NA,NA,NA,sub151
d3-animate-choice,116,445540,0.0-61.0-1.18,TRUE,FALSE,TRUE,FALSE,"""event"",""trial"",""time""
""fullscreenenter"",""5"",""20950""
","
","
","""event"",""trial"",""time""
""fullscreenenter"",""5"",""20950""
","
",294.98000000603497,NA,48,NA,NA,3000,1,NA,NA,images/tutgreenplanet.jpg,images/tutalien2,images/tutalien1,images/tutrocket1,images/tutalien2,images/nothing.png,2,practice,false,2,rare,0,2020-07-03T16:45:04Z,sub151
two-step-fixation,117,446548,0.0-61.0-2.18,TRUE,FALSE,TRUE,FALSE,"""event"",""trial"",""time""
""fullscreenenter"",""5"",""20950""
","
","
","""event"",""trial"",""time""
""fullscreenenter"",""5"",""20950""
","
",NA,images/earth.jpg,NA,NA,NA,NA,NA,NA,NA,NA,NA,NA,NA,NA,NA,fixation,NA,NA,NA,NA,NA,NA,sub151
d3-animate-choice,118,449178,0.0-61.0-0.19,TRUE,FALSE,TRUE,FALSE,"""event"",""trial"",""time""
""fullscreenenter"",""5"",""20950""
","
","
","""event"",""trial"",""time""
""fullscreenenter"",""5"",""20950""
","
",623.7350000010338,NA,49,NA,NA,3000,1,"1985.8450000028824,2187.0750000016415",4848,images/earth.jpg,images/tutrocket2,images/tutrocket1,null,images/tutrocket1,NA,1,practice,null,1,NA,NA,NA,sub151
d3-animate-choice,119,451377,0.0-61.0-1.19,TRUE,FALSE,TRUE,FALSE,"""event"",""trial"",""time""
""fullscreenenter"",""5"",""20950""
","
","
","""event"",""trial"",""time""
""fullscreenenter"",""5"",""20950""
","
",192.04000000172528,NA,48,NA,NA,3000,1,NA,NA,images/tutyellowplanet.jpg,images/tutalien4,images/tutalien3,images/tutrocket1,images/tutalien4,images/nothing.png,2,practice,true,2,common,0,2020-07-03T16:45:10Z,sub151
two-step-fixation,120,452388,0.0-61.0-2.19,TRUE,FALSE,TRUE,FALSE,"""event"",""trial"",""time""
""fullscreenenter"",""5"",""20950""
","
","
","""event"",""trial"",""time""
""fullscreenenter"",""5"",""20950""
","
",NA,images/earth.jpg,NA,NA,NA,NA,NA,NA,NA,NA,NA,NA,NA,NA,NA,fixation,NA,NA,NA,NA,NA,NA,sub151
d3-instructions,121,455926,0.0-62.0,TRUE,FALSE,TRUE,FALSE,"""event"",""trial"",""time""
""fullscreenenter"",""5"",""20950""
","
","
","""event"",""trial"",""time""
""fullscreenenter"",""5"",""20950""
","
",NA,NA,NA,NA,NA,NA,NA,NA,NA,NA,NA,NA,NA,NA,NA,NA,NA,NA,NA,NA,NA,NA,sub151
audio-keyboard-response,122,459996,0.0-63.0,TRUE,FALSE,TRUE,FALSE,"""event"",""trial"",""time""
""fullscreenenter"",""5"",""20950""
","
","
","""event"",""trial"",""time""
""fullscreenenter"",""5"",""20950""
","
",4072,audio/instructions/treasure_feedback.wav,32,NA,NA,NA,NA,NA,NA,NA,NA,NA,NA,NA,NA,NA,NA,NA,NA,NA,NA,NA,sub151
d3-instructions,123,468889,0.0-64.0,TRUE,FALSE,TRUE,FALSE,"""event"",""trial"",""time""
""fullscreenenter"",""5"",""20950""
","
","
","""event"",""trial"",""time""
""fullscreenenter"",""5"",""20950""
","
",NA,NA,NA,NA,NA,NA,NA,NA,NA,NA,NA,NA,NA,NA,NA,NA,NA,NA,NA,NA,NA,NA,sub151
d3-instructions,124,484525,0.0-65.0,TRUE,FALSE,TRUE,FALSE,"""event"",""trial"",""time""
""fullscreenenter"",""5"",""20950""
","
","
","""event"",""trial"",""time""
""fullscreenenter"",""5"",""20950""
","
",NA,NA,NA,NA,NA,NA,NA,NA,NA,NA,NA,NA,NA,NA,NA,NA,NA,NA,NA,NA,NA,NA,sub151
d3-instructions,125,511699,0.0-66.0,TRUE,FALSE,TRUE,FALSE,"""event"",""trial"",""time""
""fullscreenenter"",""5"",""20950""
","
","
","""event"",""trial"",""time""
""fullscreenenter"",""5"",""20950""
","
",NA,NA,NA,NA,NA,NA,NA,NA,NA,NA,NA,NA,NA,NA,NA,NA,NA,NA,NA,NA,NA,NA,sub151
d3-instructions,126,517191,0.0-67.0,TRUE,FALSE,TRUE,FALSE,"""event"",""trial"",""time""
""fullscreenenter"",""5"",""20950""
","
","
","""event"",""trial"",""time""
""fullscreenenter"",""5"",""20950""
","
",NA,NA,NA,NA,NA,NA,NA,NA,NA,NA,NA,NA,NA,NA,NA,NA,NA,NA,NA,NA,NA,NA,sub151
d3-instructions,127,520022,0.0-68.0,TRUE,FALSE,TRUE,FALSE,"""event"",""trial"",""time""
""fullscreenenter"",""5"",""20950""
","
","
","""event"",""trial"",""time""
""fullscreenenter"",""5"",""20950""
","
",NA,NA,NA,NA,NA,NA,NA,NA,NA,NA,NA,NA,NA,NA,NA,NA,NA,NA,NA,NA,NA,NA,sub151
instructions-quiz,128,522530,0.0-69.0,TRUE,FALSE,TRUE,FALSE,"""event"",""trial"",""time""
""fullscreenenter"",""5"",""20950""
","
","
","""event"",""trial"",""time""
""fullscreenenter"",""5"",""20950""
","
",2505.1600000006147,audio/quiz/Q1_Prompt.wav,NA,1,NA,NA,NA,NA,NA,NA,NA,NA,NA,NA,NA,NA,NA,NA,NA,NA,NA,NA,sub151
audio-keyboard-response,129,524113,0.0-70.0,TRUE,FALSE,TRUE,FALSE,"""event"",""trial"",""time""
""fullscreenenter"",""5"",""20950""
","
","
","""event"",""trial"",""time""
""fullscreenenter"",""5"",""20950""
","
",1581,audio/quiz/Q1_Correct.wav,32,NA,NA,NA,NA,NA,NA,NA,NA,NA,NA,NA,NA,NA,NA,NA,NA,NA,NA,NA,sub151
instructions-quiz,130,527026,0.0-71.0,TRUE,FALSE,TRUE,FALSE,"""event"",""trial"",""time""
""fullscreenenter"",""5"",""20950""
","
","
","""event"",""trial"",""time""
""fullscreenenter"",""5"",""20950""
","
",2911.2199999945005,audio/quiz/Q2_Prompt.wav,NA,0,NA,NA,NA,NA,NA,NA,NA,NA,NA,NA,NA,NA,NA,NA,NA,NA,NA,NA,sub151
audio-keyboard-response,131,528143,0.0-72.0,TRUE,FALSE,TRUE,FALSE,"""event"",""trial"",""time""
""fullscreenenter"",""5"",""20950""
","
","
","""event"",""trial"",""time""
""fullscreenenter"",""5"",""20950""
","
",1109,audio/quiz/Q2_Correct.wav,32,NA,NA,NA,NA,NA,NA,NA,NA,NA,NA,NA,NA,NA,NA,NA,NA,NA,NA,NA,sub151
instructions-quiz,132,530063,0.0-73.0,TRUE,FALSE,TRUE,FALSE,"""event"",""trial"",""time""
""fullscreenenter"",""5"",""20950""
","
","
","""event"",""trial"",""time""
""fullscreenenter"",""5"",""20950""
","
",1918.6049999988172,audio/quiz/Q3_Prompt.wav,NA,1,NA,NA,NA,NA,NA,NA,NA,NA,NA,NA,NA,NA,NA,NA,NA,NA,NA,NA,sub151
audio-keyboard-response,133,530973,0.0-74.0,TRUE,FALSE,TRUE,FALSE,"""event"",""trial"",""time""
""fullscreenenter"",""5"",""20950""
","
","
","""event"",""trial"",""time""
""fullscreenenter"",""5"",""20950""
","
",899,audio/quiz/Q3_Correct.wav,32,NA,NA,NA,NA,NA,NA,NA,NA,NA,NA,NA,NA,NA,NA,NA,NA,NA,NA,NA,sub151
d3-instructions,134,534371,0.0-75.0,TRUE,FALSE,TRUE,FALSE,"""event"",""trial"",""time""
""fullscreenenter"",""5"",""20950""
","
","
","""event"",""trial"",""time""
""fullscreenenter"",""5"",""20950""
","
",NA,NA,NA,NA,NA,NA,NA,NA,NA,NA,NA,NA,NA,NA,NA,NA,NA,NA,NA,NA,NA,NA,sub151
d3-animate-choice,135,537141,0.0-76.0-0.0,TRUE,FALSE,TRUE,FALSE,"""event"",""trial"",""time""
""fullscreenenter"",""5"",""20950""
","
","
","""event"",""trial"",""time""
""fullscreenenter"",""5"",""20950""
","
",760.4900000004563,NA,49,NA,NA,3000,1,NA,NA,images/earth.jpg,images/rocket2,images/rocket1,null,images/rocket1,NA,1,real,null,1,NA,NA,NA,sub151
d3-animate-choice,136,539972,0.0-76.0-1.0,TRUE,FALSE,TRUE,FALSE,"""event"",""trial"",""time""
""fullscreenenter"",""5"",""20950""
","
","
","""event"",""trial"",""time""
""fullscreenenter"",""5"",""20950""
","
",817.7100000029895,NA,49,NA,NA,3000,1,NA,NA,images/purpleplanet.jpg,images/alien4,images/alien3,images/rocket1,images/alien3,images/nothing.png,2,real,true,1,common,0,2020-07-03T16:46:38Z,sub151
two-step-fixation,137,540992,0.0-76.0-2.0,TRUE,FALSE,TRUE,FALSE,"""event"",""trial"",""time""
""fullscreenenter"",""5"",""20950""
","
","
","""event"",""trial"",""time""
""fullscreenenter"",""5"",""20950""
","
",NA,images/earth.jpg,NA,NA,NA,NA,NA,NA,NA,NA,NA,NA,NA,NA,NA,fixation,NA,NA,NA,NA,NA,NA,sub151
d3-animate-choice,138,543262,0.0-76.0-0.1,TRUE,FALSE,TRUE,FALSE,"""event"",""trial"",""time""
""fullscreenenter"",""5"",""20950""
","
","
","""event"",""trial"",""time""
""fullscreenenter"",""5"",""20950""
","
",255.37000000628177,NA,49,NA,NA,3000,1,NA,NA,images/earth.jpg,images/rocket2,images/rocket1,null,images/rocket1,NA,1,real,null,1,NA,NA,NA,sub151
d3-animate-choice,139,545641,0.0-76.0-1.1,TRUE,FALSE,TRUE,FALSE,"""event"",""trial"",""time""
""fullscreenenter"",""5"",""20950""
","
","
","""event"",""trial"",""time""
""fullscreenenter"",""5"",""20950""
","
",359.05999999516644,NA,49,NA,NA,3000,1,NA,NA,images/purpleplanet.jpg,images/alien4,images/alien3,images/rocket1,images/alien3,images/nothing.png,2,real,true,1,common,0,2020-07-03T16:46:44Z,sub151
two-step-fixation,140,546661,0.0-76.0-2.1,TRUE,FALSE,TRUE,FALSE,"""event"",""trial"",""time""
""fullscreenenter"",""5"",""20950""
","
","
","""event"",""trial"",""time""
""fullscreenenter"",""5"",""20950""
","
",NA,images/earth.jpg,NA,NA,NA,NA,NA,NA,NA,NA,NA,NA,NA,NA,NA,fixation,NA,NA,NA,NA,NA,NA,sub151
d3-animate-choice,141,549002,0.0-76.0-0.2,TRUE,FALSE,TRUE,FALSE,"""event"",""trial"",""time""
""fullscreenenter"",""5"",""20950""
","
","
","""event"",""trial"",""time""
""fullscreenenter"",""5"",""20950""
","
",322.1899999990128,NA,49,NA,NA,3000,1,NA,NA,images/earth.jpg,images/rocket2,images/rocket1,null,images/rocket1,NA,1,real,null,1,NA,NA,NA,sub151
d3-animate-choice,142,551271,0.0-76.0-1.2,TRUE,FALSE,TRUE,FALSE,"""event"",""trial"",""time""
""fullscreenenter"",""5"",""20950""
","
","
","""event"",""trial"",""time""
""fullscreenenter"",""5"",""20950""
","
",262.8499999991618,NA,49,NA,NA,3000,1,NA,NA,images/purpleplanet.jpg,images/alien4,images/alien3,images/rocket1,images/alien3,images/nothing.png,2,real,true,1,common,0,2020-07-03T16:46:50Z,sub151
two-step-fixation,143,552282,0.0-76.0-2.2,TRUE,FALSE,TRUE,FALSE,"""event"",""trial"",""time""
""fullscreenenter"",""5"",""20950""
","
","
","""event"",""trial"",""time""
""fullscreenenter"",""5"",""20950""
","
",NA,images/earth.jpg,NA,NA,NA,NA,NA,NA,NA,NA,NA,NA,NA,NA,NA,fixation,NA,NA,NA,NA,NA,NA,sub151
d3-animate-choice,144,554622,0.0-76.0-0.3,TRUE,FALSE,TRUE,FALSE,"""event"",""trial"",""time""
""fullscreenenter"",""5"",""20950""
","
","
","""event"",""trial"",""time""
""fullscreenenter"",""5"",""20950""
","
",317.23000000056345,NA,49,NA,NA,3000,1,NA,NA,images/earth.jpg,images/rocket2,images/rocket1,null,images/rocket1,NA,1,real,null,1,NA,NA,NA,sub151
d3-animate-choice,145,557231,0.0-76.0-1.3,TRUE,FALSE,TRUE,FALSE,"""event"",""trial"",""time""
""fullscreenenter"",""5"",""20950""
","
","
","""event"",""trial"",""time""
""fullscreenenter"",""5"",""20950""
","
",597.2699999983888,NA,48,NA,NA,3000,1,NA,NA,images/purpleplanet.jpg,images/alien4,images/alien3,images/rocket1,images/alien4,images/t.png,2,real,true,2,common,1,2020-07-03T16:46:56Z,sub151
two-step-fixation,146,558241,0.0-76.0-2.3,TRUE,FALSE,TRUE,FALSE,"""event"",""trial"",""time""
""fullscreenenter"",""5"",""20950""
","
","
","""event"",""trial"",""time""
""fullscreenenter"",""5"",""20950""
","
",NA,images/earth.jpg,NA,NA,NA,NA,NA,NA,NA,NA,NA,NA,NA,NA,NA,fixation,NA,NA,NA,NA,NA,NA,sub151
d3-animate-choice,147,560582,0.0-76.0-0.4,TRUE,FALSE,TRUE,FALSE,"""event"",""trial"",""time""
""fullscreenenter"",""5"",""20950""
","
","
","""event"",""trial"",""time""
""fullscreenenter"",""5"",""20950""
","
",334.7849999991013,NA,49,NA,NA,3000,1,NA,NA,images/earth.jpg,images/rocket2,images/rocket1,null,images/rocket1,NA,1,real,null,1,NA,NA,NA,sub151
d3-animate-choice,148,563552,0.0-76.0-1.4,TRUE,FALSE,TRUE,FALSE,"""event"",""trial"",""time""
""fullscreenenter"",""5"",""20950""
","
","
","""event"",""trial"",""time""
""fullscreenenter"",""5"",""20950""
","
",946.5299999938579,NA,49,NA,NA,3000,1,NA,NA,images/redplanet1.jpg,images/alien2,images/alien1,images/rocket1,images/alien1,images/nothing.png,2,real,false,1,rare,0,2020-07-03T16:47:02Z,sub151
two-step-fixation,149,564561,0.0-76.0-2.4,TRUE,FALSE,TRUE,FALSE,"""event"",""trial"",""time""
""fullscreenenter"",""5"",""20950""
","
","
","""event"",""trial"",""time""
""fullscreenenter"",""5"",""20950""
","
",NA,images/earth.jpg,NA,NA,NA,NA,NA,NA,NA,NA,NA,NA,NA,NA,NA,fixation,NA,NA,NA,NA,NA,NA,sub151
d3-animate-choice,150,566796,0.0-76.0-0.5,TRUE,FALSE,TRUE,FALSE,"""event"",""trial"",""time""
""fullscreenenter"",""5"",""20950""
","
","
","""event"",""trial"",""time""
""fullscreenenter"",""5"",""20950""
","
",226.45499999634922,NA,49,NA,NA,3000,1,NA,NA,images/earth.jpg,images/rocket2,images/rocket1,null,images/rocket1,NA,1,real,null,1,NA,NA,NA,sub151
d3-animate-choice,151,569486,0.0-76.0-1.5,TRUE,FALSE,TRUE,FALSE,"""event"",""trial"",""time""
""fullscreenenter"",""5"",""20950""
","
","
","""event"",""trial"",""time""
""fullscreenenter"",""5"",""20950""
","
",677.0049999976764,NA,49,NA,NA,3000,1,NA,NA,images/redplanet1.jpg,images/alien2,images/alien1,images/rocket1,images/alien1,images/nothing.png,2,real,false,1,rare,0,2020-07-03T16:47:08Z,sub151
two-step-fixation,152,570494,0.0-76.0-2.5,TRUE,FALSE,TRUE,FALSE,"""event"",""trial"",""time""
""fullscreenenter"",""5"",""20950""
","
","
","""event"",""trial"",""time""
""fullscreenenter"",""5"",""20950""
","
",NA,images/earth.jpg,NA,NA,NA,NA,NA,NA,NA,NA,NA,NA,NA,NA,NA,fixation,NA,NA,NA,NA,NA,NA,sub151
d3-animate-choice,153,572776,0.0-76.0-0.6,TRUE,FALSE,TRUE,FALSE,"""event"",""trial"",""time""
""fullscreenenter"",""5"",""20950""
","
","
","""event"",""trial"",""time""
""fullscreenenter"",""5"",""20950""
","
",274.57999999751337,NA,49,NA,NA,3000,1,NA,NA,images/earth.jpg,images/rocket2,images/rocket1,null,images/rocket1,NA,1,real,null,1,NA,NA,NA,sub151
d3-animate-choice,154,575491,0.0-76.0-1.6,TRUE,FALSE,TRUE,FALSE,"""event"",""trial"",""time""
""fullscreenenter"",""5"",""20950""
","
","
","""event"",""trial"",""time""
""fullscreenenter"",""5"",""20950""
","
",704.4349999995902,NA,48,NA,NA,3000,1,NA,NA,images/purpleplanet.jpg,images/alien4,images/alien3,images/rocket1,images/alien4,images/t.png,2,real,true,2,common,1,2020-07-03T16:47:14Z,sub151
two-step-fixation,155,576501,0.0-76.0-2.6,TRUE,FALSE,TRUE,FALSE,"""event"",""trial"",""time""
""fullscreenenter"",""5"",""20950""
","
","
","""event"",""trial"",""time""
""fullscreenenter"",""5"",""20950""
","
",NA,images/earth.jpg,NA,NA,NA,NA,NA,NA,NA,NA,NA,NA,NA,NA,NA,fixation,NA,NA,NA,NA,NA,NA,sub151
d3-animate-choice,156,578891,0.0-76.0-0.7,TRUE,FALSE,TRUE,FALSE,"""event"",""trial"",""time""
""fullscreenenter"",""5"",""20950""
","
","
","""event"",""trial"",""time""
""fullscreenenter"",""5"",""20950""
","
",384.2549999970943,NA,49,NA,NA,3000,1,NA,NA,images/earth.jpg,images/rocket2,images/rocket1,null,images/rocket1,NA,1,real,null,1,NA,NA,NA,sub151
d3-animate-choice,157,581516,0.0-76.0-1.7,TRUE,FALSE,TRUE,FALSE,"""event"",""trial"",""time""
""fullscreenenter"",""5"",""20950""
","
","
","""event"",""trial"",""time""
""fullscreenenter"",""5"",""20950""
","
",617.4950000058161,NA,49,NA,NA,3000,1,NA,NA,images/redplanet1.jpg,images/alien2,images/alien1,images/rocket1,images/alien1,images/t.png,2,real,false,1,rare,1,2020-07-03T16:47:20Z,sub151
two-step-fixation,158,582530,0.0-76.0-2.7,TRUE,FALSE,TRUE,FALSE,"""event"",""trial"",""time""
""fullscreenenter"",""5"",""20950""
","
","
","""event"",""trial"",""time""
""fullscreenenter"",""5"",""20950""
","
",NA,images/earth.jpg,NA,NA,NA,NA,NA,NA,NA,NA,NA,NA,NA,NA,NA,fixation,NA,NA,NA,NA,NA,NA,sub151
d3-animate-choice,159,585304,0.0-76.0-0.8,TRUE,FALSE,TRUE,FALSE,"""event"",""trial"",""time""
""fullscreenenter"",""5"",""20950""
","
","
","""event"",""trial"",""time""
""fullscreenenter"",""5"",""20950""
","
",761.5250000017695,NA,49,NA,NA,3000,1,NA,NA,images/earth.jpg,images/rocket2,images/rocket1,null,images/rocket1,NA,1,real,null,1,NA,NA,NA,sub151
d3-animate-choice,160,587744,0.0-76.0-1.8,TRUE,FALSE,TRUE,FALSE,"""event"",""trial"",""time""
""fullscreenenter"",""5"",""20950""
","
","
","""event"",""trial"",""time""
""fullscreenenter"",""5"",""20950""
","
",434.6149999983609,NA,48,NA,NA,3000,1,NA,NA,images/redplanet1.jpg,images/alien2,images/alien1,images/rocket1,images/alien2,images/t.png,2,real,false,2,rare,1,2020-07-03T16:47:26Z,sub151
two-step-fixation,161,588753,0.0-76.0-2.8,TRUE,FALSE,TRUE,FALSE,"""event"",""trial"",""time""
""fullscreenenter"",""5"",""20950""
","
","
","""event"",""trial"",""time""
""fullscreenenter"",""5"",""20950""
","
",NA,images/earth.jpg,NA,NA,NA,NA,NA,NA,NA,NA,NA,NA,NA,NA,NA,fixation,NA,NA,NA,NA,NA,NA,sub151
d3-animate-choice,162,591092,0.0-76.0-0.9,TRUE,FALSE,TRUE,FALSE,"""event"",""trial"",""time""
""fullscreenenter"",""5"",""20950""
","
","
","""event"",""trial"",""time""
""fullscreenenter"",""5"",""20950""
","
",330.3200000009965,NA,49,NA,NA,3000,1,NA,NA,images/earth.jpg,images/rocket2,images/rocket1,null,images/rocket1,NA,1,real,null,1,NA,NA,NA,sub151
d3-animate-choice,163,593725,0.0-76.0-1.9,TRUE,FALSE,TRUE,FALSE,"""event"",""trial"",""time""
""fullscreenenter"",""5"",""20950""
","
","
","""event"",""trial"",""time""
""fullscreenenter"",""5"",""20950""
","
",627.7199999968288,NA,48,NA,NA,3000,1,NA,NA,images/purpleplanet.jpg,images/alien4,images/alien3,images/rocket1,images/alien4,images/t.png,2,real,true,2,common,1,2020-07-03T16:47:32Z,sub151
two-step-fixation,164,594732,0.0-76.0-2.9,TRUE,FALSE,TRUE,FALSE,"""event"",""trial"",""time""
""fullscreenenter"",""5"",""20950""
","
","
","""event"",""trial"",""time""
""fullscreenenter"",""5"",""20950""
","
",NA,images/earth.jpg,NA,NA,NA,NA,NA,NA,NA,NA,NA,NA,NA,NA,NA,fixation,NA,NA,NA,NA,NA,NA,sub151
d3-animate-choice,165,597042,0.0-76.0-0.10,TRUE,FALSE,TRUE,FALSE,"""event"",""trial"",""time""
""fullscreenenter"",""5"",""20950""
","
","
","""event"",""trial"",""time""
""fullscreenenter"",""5"",""20950""
","
",303.54000000085216,NA,49,NA,NA,3000,1,NA,NA,images/earth.jpg,images/rocket2,images/rocket1,null,images/rocket1,NA,1,real,null,1,NA,NA,NA,sub151
d3-animate-choice,166,599406,0.0-76.0-1.10,TRUE,FALSE,TRUE,FALSE,"""event"",""trial"",""time""
""fullscreenenter"",""5"",""20950""
","
","
","""event"",""trial"",""time""
""fullscreenenter"",""5"",""20950""
","
",357.830000000773,NA,48,NA,NA,3000,1,NA,NA,images/redplanet1.jpg,images/alien2,images/alien1,images/rocket1,images/alien2,images/nothing.png,2,real,false,2,rare,0,2020-07-03T16:47:38Z,sub151
two-step-fixation,167,600412,0.0-76.0-2.10,TRUE,FALSE,TRUE,FALSE,"""event"",""trial"",""time""
""fullscreenenter"",""5"",""20950""
","
","
","""event"",""trial"",""time""
""fullscreenenter"",""5"",""20950""
","
",NA,images/earth.jpg,NA,NA,NA,NA,NA,NA,NA,NA,NA,NA,NA,NA,NA,fixation,NA,NA,NA,NA,NA,NA,sub151
d3-animate-choice,168,602488,0.0-76.0-0.11,TRUE,FALSE,TRUE,FALSE,"""event"",""trial"",""time""
""fullscreenenter"",""5"",""20950""
","
","
","""event"",""trial"",""time""
""fullscreenenter"",""5"",""20950""
","
",64.2599999991944,NA,49,NA,NA,3000,1,NA,NA,images/earth.jpg,images/rocket2,images/rocket1,null,images/rocket1,NA,1,real,null,1,NA,NA,NA,sub151
d3-animate-choice,169,604977,0.0-76.0-1.11,TRUE,FALSE,TRUE,FALSE,"""event"",""trial"",""time""
""fullscreenenter"",""5"",""20950""
","
","
","""event"",""trial"",""time""
""fullscreenenter"",""5"",""20950""
","
",476.73000000207685,NA,48,NA,NA,3000,1,NA,NA,images/purpleplanet.jpg,images/alien4,images/alien3,images/rocket1,images/alien4,images/nothing.png,2,real,true,2,common,0,2020-07-03T16:47:43Z,sub151
two-step-fixation,170,605987,0.0-76.0-2.11,TRUE,FALSE,TRUE,FALSE,"""event"",""trial"",""time""
""fullscreenenter"",""5"",""20950""
","
","
","""event"",""trial"",""time""
""fullscreenenter"",""5"",""20950""
","
",NA,images/earth.jpg,NA,NA,NA,NA,NA,NA,NA,NA,NA,NA,NA,NA,NA,fixation,NA,NA,NA,NA,NA,NA,sub151
d3-animate-choice,171,608684,0.0-76.0-0.12,TRUE,FALSE,TRUE,FALSE,"""event"",""trial"",""time""
""fullscreenenter"",""5"",""20950""
","
","
","""event"",""trial"",""time""
""fullscreenenter"",""5"",""20950""
","
",690.410000002943,NA,49,NA,NA,3000,1,NA,NA,images/earth.jpg,images/rocket2,images/rocket1,null,images/rocket1,NA,1,real,null,1,NA,NA,NA,sub151
d3-animate-choice,172,611068,0.0-76.0-1.12,TRUE,FALSE,TRUE,FALSE,"""event"",""trial"",""time""
""fullscreenenter"",""5"",""20950""
","
","
","""event"",""trial"",""time""
""fullscreenenter"",""5"",""20950""
","
",372.9299999977229,NA,48,NA,NA,3000,1,NA,NA,images/purpleplanet.jpg,images/alien4,images/alien3,images/rocket1,images/alien4,images/t.png,2,real,true,2,common,1,2020-07-03T16:47:49Z,sub151
two-step-fixation,173,612075,0.0-76.0-2.12,TRUE,FALSE,TRUE,FALSE,"""event"",""trial"",""time""
""fullscreenenter"",""5"",""20950""
","
","
","""event"",""trial"",""time""
""fullscreenenter"",""5"",""20950""
","
",NA,images/earth.jpg,NA,NA,NA,NA,NA,NA,NA,NA,NA,NA,NA,NA,NA,fixation,NA,NA,NA,NA,NA,NA,sub151
d3-animate-choice,174,614331,0.0-76.0-0.13,TRUE,FALSE,TRUE,FALSE,"""event"",""trial"",""time""
""fullscreenenter"",""5"",""20950""
","
","
","""event"",""trial"",""time""
""fullscreenenter"",""5"",""20950""
","
",245.8349999943748,NA,49,NA,NA,3000,1,NA,NA,images/earth.jpg,images/rocket2,images/rocket1,null,images/rocket1,NA,1,real,null,1,NA,NA,NA,sub151
d3-animate-choice,175,616688,0.0-76.0-1.13,TRUE,FALSE,TRUE,FALSE,"""event"",""trial"",""time""
""fullscreenenter"",""5"",""20950""
","
","
","""event"",""trial"",""time""
""fullscreenenter"",""5"",""20950""
","
",351.0549999991199,NA,48,NA,NA,3000,1,NA,NA,images/purpleplanet.jpg,images/alien4,images/alien3,images/rocket1,images/alien4,images/nothing.png,2,real,true,2,common,0,2020-07-03T16:47:55Z,sub151
two-step-fixation,176,617696,0.0-76.0-2.13,TRUE,FALSE,TRUE,FALSE,"""event"",""trial"",""time""
""fullscreenenter"",""5"",""20950""
","
","
","""event"",""trial"",""time""
""fullscreenenter"",""5"",""20950""
","
",NA,images/earth.jpg,NA,NA,NA,NA,NA,NA,NA,NA,NA,NA,NA,NA,NA,fixation,NA,NA,NA,NA,NA,NA,sub151
d3-animate-choice,177,619979,0.0-76.0-0.14,TRUE,FALSE,TRUE,FALSE,"""event"",""trial"",""time""
""fullscreenenter"",""5"",""20950""
","
","
","""event"",""trial"",""time""
""fullscreenenter"",""5"",""20950""
","
",274.1150000001071,NA,49,NA,NA,3000,1,NA,NA,images/earth.jpg,images/rocket2,images/rocket1,null,images/rocket1,NA,1,real,null,1,NA,NA,NA,sub151
d3-animate-choice,178,622258,0.0-76.0-1.14,TRUE,FALSE,TRUE,FALSE,"""event"",""trial"",""time""
""fullscreenenter"",""5"",""20950""
","
","
","""event"",""trial"",""time""
""fullscreenenter"",""5"",""20950""
","
",266.30499999737367,NA,48,NA,NA,3000,1,NA,NA,images/purpleplanet.jpg,images/alien4,images/alien3,images/rocket1,images/alien4,images/nothing.png,2,real,true,2,common,0,2020-07-03T16:48:01Z,sub151
two-step-fixation,179,623268,0.0-76.0-2.14,TRUE,FALSE,TRUE,FALSE,"""event"",""trial"",""time""
""fullscreenenter"",""5"",""20950""
","
","
","""event"",""trial"",""time""
""fullscreenenter"",""5"",""20950""
","
",NA,images/earth.jpg,NA,NA,NA,NA,NA,NA,NA,NA,NA,NA,NA,NA,NA,fixation,NA,NA,NA,NA,NA,NA,sub151
d3-animate-choice,180,625618,0.0-76.0-0.15,TRUE,FALSE,TRUE,FALSE,"""event"",""trial"",""time""
""fullscreenenter"",""5"",""20950""
","
","
","""event"",""trial"",""time""
""fullscreenenter"",""5"",""20950""
","
",339.5999999992782,NA,49,NA,NA,3000,1,NA,NA,images/earth.jpg,images/rocket2,images/rocket1,null,images/rocket1,NA,1,real,null,1,NA,NA,NA,sub151
d3-animate-choice,181,627875,0.0-76.0-1.15,TRUE,FALSE,TRUE,FALSE,"""event"",""trial"",""time""
""fullscreenenter"",""5"",""20950""
","
","
","""event"",""trial"",""time""
""fullscreenenter"",""5"",""20950""
","
",243.28000000247266,NA,48,NA,NA,3000,1,NA,NA,images/purpleplanet.jpg,images/alien4,images/alien3,images/rocket1,images/alien4,images/nothing.png,2,real,true,2,common,0,2020-07-03T16:48:06Z,sub151
two-step-fixation,182,628881,0.0-76.0-2.15,TRUE,FALSE,TRUE,FALSE,"""event"",""trial"",""time""
""fullscreenenter"",""5"",""20950""
","
","
","""event"",""trial"",""time""
""fullscreenenter"",""5"",""20950""
","
",NA,images/earth.jpg,NA,NA,NA,NA,NA,NA,NA,NA,NA,NA,NA,NA,NA,fixation,NA,NA,NA,NA,NA,NA,sub151
d3-animate-choice,183,631380,0.0-76.0-0.16,TRUE,FALSE,TRUE,FALSE,"""event"",""trial"",""time""
""fullscreenenter"",""5"",""20950""
","
","
","""event"",""trial"",""time""
""fullscreenenter"",""5"",""20950""
","
",488.3600000028964,NA,49,NA,NA,3000,1,"1859.7600000065286,2135.7800000041025",4848,images/earth.jpg,images/rocket2,images/rocket1,null,images/rocket1,NA,1,real,null,1,NA,NA,NA,sub151
d3-animate-choice,184,633616,0.0-76.0-1.16,TRUE,FALSE,TRUE,FALSE,"""event"",""trial"",""time""
""fullscreenenter"",""5"",""20950""
","
","
","""event"",""trial"",""time""
""fullscreenenter"",""5"",""20950""
","
",229.76999999803957,NA,48,NA,NA,3000,1,NA,NA,images/purpleplanet.jpg,images/alien4,images/alien3,images/rocket1,images/alien4,images/t.png,2,real,true,2,common,1,2020-07-03T16:48:12Z,sub151
two-step-fixation,185,634623,0.0-76.0-2.16,TRUE,FALSE,TRUE,FALSE,"""event"",""trial"",""time""
""fullscreenenter"",""5"",""20950""
","
","
","""event"",""trial"",""time""
""fullscreenenter"",""5"",""20950""
","
",NA,images/earth.jpg,NA,NA,NA,NA,NA,NA,NA,NA,NA,NA,NA,NA,NA,fixation,NA,NA,NA,NA,NA,NA,sub151
d3-animate-choice,186,636994,0.0-76.0-0.17,TRUE,FALSE,TRUE,FALSE,"""event"",""trial"",""time""
""fullscreenenter"",""5"",""20950""
","
","
","""event"",""trial"",""time""
""fullscreenenter"",""5"",""20950""
","
",362.70499999949243,NA,49,NA,NA,3000,1,NA,NA,images/earth.jpg,images/rocket2,images/rocket1,null,images/rocket1,NA,1,real,null,1,NA,NA,NA,sub151
d3-animate-choice,187,639360,0.0-76.0-1.17,TRUE,FALSE,TRUE,FALSE,"""event"",""trial"",""time""
""fullscreenenter"",""5"",""20950""
","
","
","""event"",""trial"",""time""
""fullscreenenter"",""5"",""20950""
","
",354.2100000049686,NA,48,NA,NA,3000,1,NA,NA,images/purpleplanet.jpg,images/alien4,images/alien3,images/rocket1,images/alien4,images/t.png,2,real,true,2,common,1,2020-07-03T16:48:18Z,sub151
two-step-fixation,188,640369,0.0-76.0-2.17,TRUE,FALSE,TRUE,FALSE,"""event"",""trial"",""time""
""fullscreenenter"",""5"",""20950""
","
","
","""event"",""trial"",""time""
""fullscreenenter"",""5"",""20950""
","
",NA,images/earth.jpg,NA,NA,NA,NA,NA,NA,NA,NA,NA,NA,NA,NA,NA,fixation,NA,NA,NA,NA,NA,NA,sub151
d3-animate-choice,189,642542,0.0-76.0-0.18,TRUE,FALSE,TRUE,FALSE,"""event"",""trial"",""time""
""fullscreenenter"",""5"",""20950""
","
","
","""event"",""trial"",""time""
""fullscreenenter"",""5"",""20950""
","
",161.89999999909196,NA,49,NA,NA,3000,1,NA,NA,images/earth.jpg,images/rocket2,images/rocket1,null,images/rocket1,NA,1,real,null,1,NA,NA,NA,sub151
d3-animate-choice,190,644800,0.0-76.0-1.18,TRUE,FALSE,TRUE,FALSE,"""event"",""trial"",""time""
""fullscreenenter"",""5"",""20950""
","
","
","""event"",""trial"",""time""
""fullscreenenter"",""5"",""20950""
","
",245.89500000001863,NA,48,NA,NA,3000,1,NA,NA,images/purpleplanet.jpg,images/alien4,images/alien3,images/rocket1,images/alien4,images/t.png,2,real,true,2,common,1,2020-07-03T16:48:23Z,sub151
two-step-fixation,191,645815,0.0-76.0-2.18,TRUE,FALSE,TRUE,FALSE,"""event"",""trial"",""time""
""fullscreenenter"",""5"",""20950""
","
","
","""event"",""trial"",""time""
""fullscreenenter"",""5"",""20950""
","
",NA,images/earth.jpg,NA,NA,NA,NA,NA,NA,NA,NA,NA,NA,NA,NA,NA,fixation,NA,NA,NA,NA,NA,NA,sub151
d3-animate-choice,192,648165,0.0-76.0-0.19,TRUE,FALSE,TRUE,FALSE,"""event"",""trial"",""time""
""fullscreenenter"",""5"",""20950""
","
","
","""event"",""trial"",""time""
""fullscreenenter"",""5"",""20950""
","
",340.33500000066124,NA,49,NA,NA,3000,1,NA,NA,images/earth.jpg,images/rocket2,images/rocket1,null,images/rocket1,NA,1,real,null,1,NA,NA,NA,sub151
d3-animate-choice,193,650406,0.0-76.0-1.19,TRUE,FALSE,TRUE,FALSE,"""event"",""trial"",""time""
""fullscreenenter"",""5"",""20950""
","
","
","""event"",""trial"",""time""
""fullscreenenter"",""5"",""20950""
","
",232.93500000005588,NA,48,NA,NA,3000,1,NA,NA,images/purpleplanet.jpg,images/alien4,images/alien3,images/rocket1,images/alien4,images/t.png,2,real,true,2,common,1,2020-07-03T16:48:29Z,sub151
two-step-fixation,194,651415,0.0-76.0-2.19,TRUE,FALSE,TRUE,FALSE,"""event"",""trial"",""time""
""fullscreenenter"",""5"",""20950""
","
","
","""event"",""trial"",""time""
""fullscreenenter"",""5"",""20950""
","
",NA,images/earth.jpg,NA,NA,NA,NA,NA,NA,NA,NA,NA,NA,NA,NA,NA,fixation,NA,NA,NA,NA,NA,NA,sub151
d3-animate-choice,195,653661,0.0-76.0-0.20,TRUE,FALSE,TRUE,FALSE,"""event"",""trial"",""time""
""fullscreenenter"",""5"",""20950""
","
","
","""event"",""trial"",""time""
""fullscreenenter"",""5"",""20950""
","
",233.6799999976065,NA,49,NA,NA,3000,1,NA,NA,images/earth.jpg,images/rocket2,images/rocket1,null,images/rocket1,NA,1,real,null,1,NA,NA,NA,sub151
d3-animate-choice,196,655978,0.0-76.0-1.20,TRUE,FALSE,TRUE,FALSE,"""event"",""trial"",""time""
""fullscreenenter"",""5"",""20950""
","
","
","""event"",""trial"",""time""
""fullscreenenter"",""5"",""20950""
","
",309.0550000052899,NA,48,NA,NA,3000,1,NA,NA,images/purpleplanet.jpg,images/alien4,images/alien3,images/rocket1,images/alien4,images/t.png,2,real,true,2,common,1,2020-07-03T16:48:34Z,sub151
two-step-fixation,197,656985,0.0-76.0-2.20,TRUE,FALSE,TRUE,FALSE,"""event"",""trial"",""time""
""fullscreenenter"",""5"",""20950""
","
","
","""event"",""trial"",""time""
""fullscreenenter"",""5"",""20950""
","
",NA,images/earth.jpg,NA,NA,NA,NA,NA,NA,NA,NA,NA,NA,NA,NA,NA,fixation,NA,NA,NA,NA,NA,NA,sub151
d3-animate-choice,198,659208,0.0-76.0-0.21,TRUE,FALSE,TRUE,FALSE,"""event"",""trial"",""time""
""fullscreenenter"",""5"",""20950""
","
","
","""event"",""trial"",""time""
""fullscreenenter"",""5"",""20950""
","
",213.05500000016764,NA,49,NA,NA,3000,1,NA,NA,images/earth.jpg,images/rocket2,images/rocket1,null,images/rocket1,NA,1,real,null,1,NA,NA,NA,sub151
d3-animate-choice,199,661443,0.0-76.0-1.21,TRUE,FALSE,TRUE,FALSE,"""event"",""trial"",""time""
""fullscreenenter"",""5"",""20950""
","
","
","""event"",""trial"",""time""
""fullscreenenter"",""5"",""20950""
","
",226.62500000291038,NA,48,NA,NA,3000,1,NA,NA,images/redplanet1.jpg,images/alien2,images/alien1,images/rocket1,images/alien2,images/t.png,2,real,false,2,rare,1,2020-07-03T16:48:40Z,sub151
two-step-fixation,200,662449,0.0-76.0-2.21,TRUE,FALSE,TRUE,FALSE,"""event"",""trial"",""time""
""fullscreenenter"",""5"",""20950""
","
","
","""event"",""trial"",""time""
""fullscreenenter"",""5"",""20950""
","
",NA,images/earth.jpg,NA,NA,NA,NA,NA,NA,NA,NA,NA,NA,NA,NA,NA,fixation,NA,NA,NA,NA,NA,NA,sub151
d3-animate-choice,201,664580,0.0-76.0-0.22,TRUE,FALSE,TRUE,FALSE,"""event"",""trial"",""time""
""fullscreenenter"",""5"",""20950""
","
","
","""event"",""trial"",""time""
""fullscreenenter"",""5"",""20950""
","
",117.02499999955762,NA,49,NA,NA,3000,1,201.535000000149,49,images/earth.jpg,images/rocket2,images/rocket1,null,images/rocket1,NA,1,real,null,1,NA,NA,NA,sub151
d3-animate-choice,202,666796,0.0-76.0-1.22,TRUE,FALSE,TRUE,FALSE,"""event"",""trial"",""time""
""fullscreenenter"",""5"",""20950""
","
","
","""event"",""trial"",""time""
""fullscreenenter"",""5"",""20950""
","
",206.40000000281725,NA,48,NA,NA,3000,1,NA,NA,images/redplanet1.jpg,images/alien2,images/alien1,images/rocket1,images/alien2,images/t.png,2,real,false,2,rare,1,2020-07-03T16:48:45Z,sub151
two-step-fixation,203,667805,0.0-76.0-2.22,TRUE,FALSE,TRUE,FALSE,"""event"",""trial"",""time""
""fullscreenenter"",""5"",""20950""
","
","
","""event"",""trial"",""time""
""fullscreenenter"",""5"",""20950""
","
",NA,images/earth.jpg,NA,NA,NA,NA,NA,NA,NA,NA,NA,NA,NA,NA,NA,fixation,NA,NA,NA,NA,NA,NA,sub151
d3-animate-choice,204,670094,0.0-76.0-0.23,TRUE,FALSE,TRUE,FALSE,"""event"",""trial"",""time""
""fullscreenenter"",""5"",""20950""
","
","
","""event"",""trial"",""time""
""fullscreenenter"",""5"",""20950""
","
",278.089999999851,NA,49,NA,NA,3000,1,NA,NA,images/earth.jpg,images/rocket2,images/rocket1,null,images/rocket1,NA,1,real,null,1,NA,NA,NA,sub151
d3-animate-choice,205,672394,0.0-76.0-1.23,TRUE,FALSE,TRUE,FALSE,"""event"",""trial"",""time""
""fullscreenenter"",""5"",""20950""
","
","
","""event"",""trial"",""time""
""fullscreenenter"",""5"",""20950""
","
",290.9750000034692,NA,48,NA,NA,3000,1,NA,NA,images/purpleplanet.jpg,images/alien4,images/alien3,images/rocket1,images/alien4,images/t.png,2,real,true,2,common,1,2020-07-03T16:48:51Z,sub151
two-step-fixation,206,673403,0.0-76.0-2.23,TRUE,FALSE,TRUE,FALSE,"""event"",""trial"",""time""
""fullscreenenter"",""5"",""20950""
","
","
","""event"",""trial"",""time""
""fullscreenenter"",""5"",""20950""
","
",NA,images/earth.jpg,NA,NA,NA,NA,NA,NA,NA,NA,NA,NA,NA,NA,NA,fixation,NA,NA,NA,NA,NA,NA,sub151
d3-animate-choice,207,675701,0.0-76.0-0.24,TRUE,FALSE,TRUE,FALSE,"""event"",""trial"",""time""
""fullscreenenter"",""5"",""20950""
","
","
","""event"",""trial"",""time""
""fullscreenenter"",""5"",""20950""
","
",285.4550000047311,NA,49,NA,NA,3000,1,NA,NA,images/earth.jpg,images/rocket2,images/rocket1,null,images/rocket1,NA,1,real,null,1,NA,NA,NA,sub151
d3-animate-choice,208,677941,0.0-76.0-1.24,TRUE,FALSE,TRUE,FALSE,"""event"",""trial"",""time""
""fullscreenenter"",""5"",""20950""
","
","
","""event"",""trial"",""time""
""fullscreenenter"",""5"",""20950""
","
",228.53000000037719,NA,48,NA,NA,3000,1,NA,NA,images/redplanet1.jpg,images/alien2,images/alien1,images/rocket1,images/alien2,images/nothing.png,2,real,false,2,rare,0,2020-07-03T16:48:56Z,sub151
two-step-fixation,209,678950,0.0-76.0-2.24,TRUE,FALSE,TRUE,FALSE,"""event"",""trial"",""time""
""fullscreenenter"",""5"",""20950""
","
","
","""event"",""trial"",""time""
""fullscreenenter"",""5"",""20950""
","
",NA,images/earth.jpg,NA,NA,NA,NA,NA,NA,NA,NA,NA,NA,NA,NA,NA,fixation,NA,NA,NA,NA,NA,NA,sub151
d3-animate-choice,210,681416,0.0-76.0-0.25,TRUE,FALSE,TRUE,FALSE,"""event"",""trial"",""time""
""fullscreenenter"",""5"",""20950""
","
","
","""event"",""trial"",""time""
""fullscreenenter"",""5"",""20950""
","
",453.7849999978207,NA,49,NA,NA,3000,1,NA,NA,images/earth.jpg,images/rocket2,images/rocket1,null,images/rocket1,NA,1,real,null,1,NA,NA,NA,sub151
d3-animate-choice,211,683757,0.0-76.0-1.25,TRUE,FALSE,TRUE,FALSE,"""event"",""trial"",""time""
""fullscreenenter"",""5"",""20950""
","
","
","""event"",""trial"",""time""
""fullscreenenter"",""5"",""20950""
","
",335.2800000066636,NA,48,NA,NA,3000,1,NA,NA,images/redplanet1.jpg,images/alien2,images/alien1,images/rocket1,images/alien2,images/t.png,2,real,false,2,rare,1,2020-07-03T16:49:02Z,sub151
two-step-fixation,212,684763,0.0-76.0-2.25,TRUE,FALSE,TRUE,FALSE,"""event"",""trial"",""time""
""fullscreenenter"",""5"",""20950""
","
","
","""event"",""trial"",""time""
""fullscreenenter"",""5"",""20950""
","
",NA,images/earth.jpg,NA,NA,NA,NA,NA,NA,NA,NA,NA,NA,NA,NA,NA,fixation,NA,NA,NA,NA,NA,NA,sub151
d3-animate-choice,213,687103,0.0-76.0-0.26,TRUE,FALSE,TRUE,FALSE,"""event"",""trial"",""time""
""fullscreenenter"",""5"",""20950""
","
","
","""event"",""trial"",""time""
""fullscreenenter"",""5"",""20950""
","
",330.1199999987148,NA,49,NA,NA,3000,1,NA,NA,images/earth.jpg,images/rocket2,images/rocket1,null,images/rocket1,NA,1,real,null,1,NA,NA,NA,sub151
d3-animate-choice,214,689402,0.0-76.0-1.26,TRUE,FALSE,TRUE,FALSE,"""event"",""trial"",""time""
""fullscreenenter"",""5"",""20950""
","
","
","""event"",""trial"",""time""
""fullscreenenter"",""5"",""20950""
","
",291.8149999969173,NA,48,NA,NA,3000,1,NA,NA,images/purpleplanet.jpg,images/alien4,images/alien3,images/rocket1,images/alien4,images/t.png,2,real,true,2,common,1,2020-07-03T16:49:08Z,sub151
two-step-fixation,215,690411,0.0-76.0-2.26,TRUE,FALSE,TRUE,FALSE,"""event"",""trial"",""time""
""fullscreenenter"",""5"",""20950""
","
","
","""event"",""trial"",""time""
""fullscreenenter"",""5"",""20950""
","
",NA,images/earth.jpg,NA,NA,NA,NA,NA,NA,NA,NA,NA,NA,NA,NA,NA,fixation,NA,NA,NA,NA,NA,NA,sub151
d3-animate-choice,216,692800,0.0-76.0-0.27,TRUE,FALSE,TRUE,FALSE,"""event"",""trial"",""time""
""fullscreenenter"",""5"",""20950""
","
","
","""event"",""trial"",""time""
""fullscreenenter"",""5"",""20950""
","
",380.87999999686144,NA,49,NA,NA,3000,1,NA,NA,images/earth.jpg,images/rocket2,images/rocket1,null,images/rocket1,NA,1,real,null,1,NA,NA,NA,sub151
d3-animate-choice,217,695026,0.0-76.0-1.27,TRUE,FALSE,TRUE,FALSE,"""event"",""trial"",""time""
""fullscreenenter"",""5"",""20950""
","
","
","""event"",""trial"",""time""
""fullscreenenter"",""5"",""20950""
","
",220.2599999946542,NA,48,NA,NA,3000,1,NA,NA,images/purpleplanet.jpg,images/alien4,images/alien3,images/rocket1,images/alien4,images/t.png,2,real,true,2,common,1,2020-07-03T16:49:13Z,sub151
two-step-fixation,218,696041,0.0-76.0-2.27,TRUE,FALSE,TRUE,FALSE,"""event"",""trial"",""time""
""fullscreenenter"",""5"",""20950""
","
","
","""event"",""trial"",""time""
""fullscreenenter"",""5"",""20950""
","
",NA,images/earth.jpg,NA,NA,NA,NA,NA,NA,NA,NA,NA,NA,NA,NA,NA,fixation,NA,NA,NA,NA,NA,NA,sub151
d3-animate-choice,219,698316,0.0-76.0-0.28,TRUE,FALSE,TRUE,FALSE,"""event"",""trial"",""time""
""fullscreenenter"",""5"",""20950""
","
","
","""event"",""trial"",""time""
""fullscreenenter"",""5"",""20950""
","
",269.4600000032224,NA,49,NA,NA,3000,1,NA,NA,images/earth.jpg,images/rocket2,images/rocket1,null,images/rocket1,NA,1,real,null,1,NA,NA,NA,sub151
d3-animate-choice,220,700586,0.0-76.0-1.28,TRUE,FALSE,TRUE,FALSE,"""event"",""trial"",""time""
""fullscreenenter"",""5"",""20950""
","
","
","""event"",""trial"",""time""
""fullscreenenter"",""5"",""20950""
","
",261.6850000049453,NA,48,NA,NA,3000,1,NA,NA,images/purpleplanet.jpg,images/alien4,images/alien3,images/rocket1,images/alien4,images/t.png,2,real,true,2,common,1,2020-07-03T16:49:19Z,sub151
two-step-fixation,221,701598,0.0-76.0-2.28,TRUE,FALSE,TRUE,FALSE,"""event"",""trial"",""time""
""fullscreenenter"",""5"",""20950""
","
","
","""event"",""trial"",""time""
""fullscreenenter"",""5"",""20950""
","
",NA,images/earth.jpg,NA,NA,NA,NA,NA,NA,NA,NA,NA,NA,NA,NA,NA,fixation,NA,NA,NA,NA,NA,NA,sub151
d3-animate-choice,222,703953,0.0-76.0-0.29,TRUE,FALSE,TRUE,FALSE,"""event"",""trial"",""time""
""fullscreenenter"",""5"",""20950""
","
","
","""event"",""trial"",""time""
""fullscreenenter"",""5"",""20950""
","
",341.88000000000466,NA,49,NA,NA,3000,1,NA,NA,images/earth.jpg,images/rocket2,images/rocket1,null,images/rocket1,NA,1,real,null,1,NA,NA,NA,sub151
d3-animate-choice,223,706187,0.0-76.0-1.29,TRUE,FALSE,TRUE,FALSE,"""event"",""trial"",""time""
""fullscreenenter"",""5"",""20950""
","
","
","""event"",""trial"",""time""
""fullscreenenter"",""5"",""20950""
","
",227.29000000248197,NA,48,NA,NA,3000,1,NA,NA,images/redplanet1.jpg,images/alien2,images/alien1,images/rocket1,images/alien2,images/nothing.png,2,real,false,2,rare,0,2020-07-03T16:49:24Z,sub151
two-step-fixation,224,707193,0.0-76.0-2.29,TRUE,FALSE,TRUE,FALSE,"""event"",""trial"",""time""
""fullscreenenter"",""5"",""20950""
","
","
","""event"",""trial"",""time""
""fullscreenenter"",""5"",""20950""
","
",NA,images/earth.jpg,NA,NA,NA,NA,NA,NA,NA,NA,NA,NA,NA,NA,NA,fixation,NA,NA,NA,NA,NA,NA,sub151
d3-animate-choice,225,709502,0.0-76.0-0.30,TRUE,FALSE,TRUE,FALSE,"""event"",""trial"",""time""
""fullscreenenter"",""5"",""20950""
","
","
","""event"",""trial"",""time""
""fullscreenenter"",""5"",""20950""
","
",295.7849999947939,NA,49,NA,NA,3000,1,NA,NA,images/earth.jpg,images/rocket2,images/rocket1,null,images/rocket1,NA,1,real,null,1,NA,NA,NA,sub151
d3-animate-choice,226,711747,0.0-76.0-1.30,TRUE,FALSE,TRUE,FALSE,"""event"",""trial"",""time""
""fullscreenenter"",""5"",""20950""
","
","
","""event"",""trial"",""time""
""fullscreenenter"",""5"",""20950""
","
",233.11500000278465,NA,48,NA,NA,3000,1,NA,NA,images/purpleplanet.jpg,images/alien4,images/alien3,images/rocket1,images/alien4,images/t.png,2,real,true,2,common,1,2020-07-03T16:49:30Z,sub151
two-step-fixation,227,712757,0.0-76.0-2.30,TRUE,FALSE,TRUE,FALSE,"""event"",""trial"",""time""
""fullscreenenter"",""5"",""20950""
","
","
","""event"",""trial"",""time""
""fullscreenenter"",""5"",""20950""
","
",NA,images/earth.jpg,NA,NA,NA,NA,NA,NA,NA,NA,NA,NA,NA,NA,NA,fixation,NA,NA,NA,NA,NA,NA,sub151
d3-animate-choice,228,715171,0.0-76.0-0.31,TRUE,FALSE,TRUE,FALSE,"""event"",""trial"",""time""
""fullscreenenter"",""5"",""20950""
","
","
","""event"",""trial"",""time""
""fullscreenenter"",""5"",""20950""
","
",396.0949999963632,NA,49,NA,NA,3000,1,NA,NA,images/earth.jpg,images/rocket2,images/rocket1,null,images/rocket1,NA,1,real,null,1,NA,NA,NA,sub151
d3-animate-choice,229,717549,0.0-76.0-1.31,TRUE,FALSE,TRUE,FALSE,"""event"",""trial"",""time""
""fullscreenenter"",""5"",""20950""
","
","
","""event"",""trial"",""time""
""fullscreenenter"",""5"",""20950""
","
",368.59499999985565,NA,48,NA,NA,3000,1,NA,NA,images/purpleplanet.jpg,images/alien4,images/alien3,images/rocket1,images/alien4,images/t.png,2,real,true,2,common,1,2020-07-03T16:49:36Z,sub151
two-step-fixation,230,718557,0.0-76.0-2.31,TRUE,FALSE,TRUE,FALSE,"""event"",""trial"",""time""
""fullscreenenter"",""5"",""20950""
","
","
","""event"",""trial"",""time""
""fullscreenenter"",""5"",""20950""
","
",NA,images/earth.jpg,NA,NA,NA,NA,NA,NA,NA,NA,NA,NA,NA,NA,NA,fixation,NA,NA,NA,NA,NA,NA,sub151
d3-animate-choice,231,720836,0.0-76.0-0.32,TRUE,FALSE,TRUE,FALSE,"""event"",""trial"",""time""
""fullscreenenter"",""5"",""20950""
","
","
","""event"",""trial"",""time""
""fullscreenenter"",""5"",""20950""
","
",274.01499999535736,NA,49,NA,NA,3000,1,NA,NA,images/earth.jpg,images/rocket2,images/rocket1,null,images/rocket1,NA,1,real,null,1,NA,NA,NA,sub151
d3-animate-choice,232,723168,0.0-76.0-1.32,TRUE,FALSE,TRUE,FALSE,"""event"",""trial"",""time""
""fullscreenenter"",""5"",""20950""
","
","
","""event"",""trial"",""time""
""fullscreenenter"",""5"",""20950""
","
",324.130000000936,NA,48,NA,NA,3000,1,NA,NA,images/purpleplanet.jpg,images/alien4,images/alien3,images/rocket1,images/alien4,images/t.png,2,real,true,2,common,1,2020-07-03T16:49:41Z,sub151
two-step-fixation,233,724178,0.0-76.0-2.32,TRUE,FALSE,TRUE,FALSE,"""event"",""trial"",""time""
""fullscreenenter"",""5"",""20950""
","
","
","""event"",""trial"",""time""
""fullscreenenter"",""5"",""20950""
","
",NA,images/earth.jpg,NA,NA,NA,NA,NA,NA,NA,NA,NA,NA,NA,NA,NA,fixation,NA,NA,NA,NA,NA,NA,sub151
d3-animate-choice,234,726482,0.0-76.0-0.33,TRUE,FALSE,TRUE,FALSE,"""event"",""trial"",""time""
""fullscreenenter"",""5"",""20950""
","
","
","""event"",""trial"",""time""
""fullscreenenter"",""5"",""20950""
","
",292.8249999966938,NA,49,NA,NA,3000,1,NA,NA,images/earth.jpg,images/rocket2,images/rocket1,null,images/rocket1,NA,1,real,null,1,NA,NA,NA,sub151
d3-animate-choice,235,729058,0.0-76.0-1.33,TRUE,FALSE,TRUE,FALSE,"""event"",""trial"",""time""
""fullscreenenter"",""5"",""20950""
","
","
","""event"",""trial"",""time""
""fullscreenenter"",""5"",""20950""
","
",562.8849999993108,NA,48,NA,NA,3000,1,NA,NA,images/redplanet1.jpg,images/alien2,images/alien1,images/rocket1,images/alien2,images/nothing.png,2,real,false,2,rare,0,2020-07-03T16:49:47Z,sub151
two-step-fixation,236,730065,0.0-76.0-2.33,TRUE,FALSE,TRUE,FALSE,"""event"",""trial"",""time""
""fullscreenenter"",""5"",""20950""
","
","
","""event"",""trial"",""time""
""fullscreenenter"",""5"",""20950""
","
",NA,images/earth.jpg,NA,NA,NA,NA,NA,NA,NA,NA,NA,NA,NA,NA,NA,fixation,NA,NA,NA,NA,NA,NA,sub151
d3-animate-choice,237,732357,0.0-76.0-0.34,TRUE,FALSE,TRUE,FALSE,"""event"",""trial"",""time""
""fullscreenenter"",""5"",""20950""
","
","
","""event"",""trial"",""time""
""fullscreenenter"",""5"",""20950""
","
",277.0799999998417,NA,49,NA,NA,3000,1,NA,NA,images/earth.jpg,images/rocket2,images/rocket1,null,images/rocket1,NA,1,real,null,1,NA,NA,NA,sub151
d3-animate-choice,238,734496,0.0-76.0-1.34,TRUE,FALSE,TRUE,FALSE,"""event"",""trial"",""time""
""fullscreenenter"",""5"",""20950""
","
","
","""event"",""trial"",""time""
""fullscreenenter"",""5"",""20950""
","
",131.34500000160187,NA,48,NA,NA,3000,1,NA,NA,images/redplanet1.jpg,images/alien2,images/alien1,images/rocket1,images/alien2,images/nothing.png,2,real,false,2,rare,0,2020-07-03T16:49:53Z,sub151
two-step-fixation,239,735506,0.0-76.0-2.34,TRUE,FALSE,TRUE,FALSE,"""event"",""trial"",""time""
""fullscreenenter"",""5"",""20950""
","
","
","""event"",""trial"",""time""
""fullscreenenter"",""5"",""20950""
","
",NA,images/earth.jpg,NA,NA,NA,NA,NA,NA,NA,NA,NA,NA,NA,NA,NA,fixation,NA,NA,NA,NA,NA,NA,sub151
d3-animate-choice,240,737828,0.0-76.0-0.35,TRUE,FALSE,TRUE,FALSE,"""event"",""trial"",""time""
""fullscreenenter"",""5"",""20950""
","
","
","""event"",""trial"",""time""
""fullscreenenter"",""5"",""20950""
","
",315.849999998929,NA,49,NA,NA,3000,1,NA,NA,images/earth.jpg,images/rocket2,images/rocket1,null,images/rocket1,NA,1,real,null,1,NA,NA,NA,sub151
d3-animate-choice,241,740294,0.0-76.0-1.35,TRUE,FALSE,TRUE,FALSE,"""event"",""trial"",""time""
""fullscreenenter"",""5"",""20950""
","
","
","""event"",""trial"",""time""
""fullscreenenter"",""5"",""20950""
","
",456.4700000046287,NA,48,NA,NA,3000,1,NA,NA,images/purpleplanet.jpg,images/alien4,images/alien3,images/rocket1,images/alien4,images/nothing.png,2,real,true,2,common,0,2020-07-03T16:49:59Z,sub151
two-step-fixation,242,741304,0.0-76.0-2.35,TRUE,FALSE,TRUE,FALSE,"""event"",""trial"",""time""
""fullscreenenter"",""5"",""20950""
","
","
","""event"",""trial"",""time""
""fullscreenenter"",""5"",""20950""
","
",NA,images/earth.jpg,NA,NA,NA,NA,NA,NA,NA,NA,NA,NA,NA,NA,NA,fixation,NA,NA,NA,NA,NA,NA,sub151
d3-animate-choice,243,743675,0.0-76.0-0.36,TRUE,FALSE,TRUE,FALSE,"""event"",""trial"",""time""
""fullscreenenter"",""5"",""20950""
","
","
","""event"",""trial"",""time""
""fullscreenenter"",""5"",""20950""
","
",360.845000002766,NA,49,NA,NA,3000,1,NA,NA,images/earth.jpg,images/rocket2,images/rocket1,null,images/rocket1,NA,1,real,null,1,NA,NA,NA,sub151
d3-animate-choice,244,746140,0.0-76.0-1.36,TRUE,FALSE,TRUE,FALSE,"""event"",""trial"",""time""
""fullscreenenter"",""5"",""20950""
","
","
","""event"",""trial"",""time""
""fullscreenenter"",""5"",""20950""
","
",456.2450000011595,NA,48,NA,NA,3000,1,NA,NA,images/purpleplanet.jpg,images/alien4,images/alien3,images/rocket1,images/alien4,images/t.png,2,real,true,2,common,1,2020-07-03T16:50:04Z,sub151
two-step-fixation,245,747149,0.0-76.0-2.36,TRUE,FALSE,TRUE,FALSE,"""event"",""trial"",""time""
""fullscreenenter"",""5"",""20950""
","
","
","""event"",""trial"",""time""
""fullscreenenter"",""5"",""20950""
","
",NA,images/earth.jpg,NA,NA,NA,NA,NA,NA,NA,NA,NA,NA,NA,NA,NA,fixation,NA,NA,NA,NA,NA,NA,sub151
d3-animate-choice,246,749483,0.0-76.0-0.37,TRUE,FALSE,TRUE,FALSE,"""event"",""trial"",""time""
""fullscreenenter"",""5"",""20950""
","
","
","""event"",""trial"",""time""
""fullscreenenter"",""5"",""20950""
","
",330.0549999985378,NA,49,NA,NA,3000,1,NA,NA,images/earth.jpg,images/rocket2,images/rocket1,null,images/rocket1,NA,1,real,null,1,NA,NA,NA,sub151
d3-animate-choice,247,752143,0.0-76.0-1.37,TRUE,FALSE,TRUE,FALSE,"""event"",""trial"",""time""
""fullscreenenter"",""5"",""20950""
","
","
","""event"",""trial"",""time""
""fullscreenenter"",""5"",""20950""
","
",651.4400000015739,NA,48,NA,NA,3000,1,NA,NA,images/purpleplanet.jpg,images/alien4,images/alien3,images/rocket1,images/alien4,images/t.png,2,real,true,2,common,1,2020-07-03T16:50:10Z,sub151
two-step-fixation,248,753148,0.0-76.0-2.37,TRUE,FALSE,TRUE,FALSE,"""event"",""trial"",""time""
""fullscreenenter"",""5"",""20950""
","
","
","""event"",""trial"",""time""
""fullscreenenter"",""5"",""20950""
","
",NA,images/earth.jpg,NA,NA,NA,NA,NA,NA,NA,NA,NA,NA,NA,NA,NA,fixation,NA,NA,NA,NA,NA,NA,sub151
d3-animate-choice,249,755431,0.0-76.0-0.38,TRUE,FALSE,TRUE,FALSE,"""event"",""trial"",""time""
""fullscreenenter"",""5"",""20950""
","
","
","""event"",""trial"",""time""
""fullscreenenter"",""5"",""20950""
","
",273.195000001695,NA,49,NA,NA,3000,1,NA,NA,images/earth.jpg,images/rocket2,images/rocket1,null,images/rocket1,NA,1,real,null,1,NA,NA,NA,sub151
d3-animate-choice,250,757823,0.0-76.0-1.38,TRUE,FALSE,TRUE,FALSE,"""event"",""trial"",""time""
""fullscreenenter"",""5"",""20950""
","
","
","""event"",""trial"",""time""
""fullscreenenter"",""5"",""20950""
","
",386.12499999720603,NA,48,NA,NA,3000,1,NA,NA,images/purpleplanet.jpg,images/alien4,images/alien3,images/rocket1,images/alien4,images/t.png,2,real,true,2,common,1,2020-07-03T16:50:16Z,sub151
two-step-fixation,251,758829,0.0-76.0-2.38,TRUE,FALSE,TRUE,FALSE,"""event"",""trial"",""time""
""fullscreenenter"",""5"",""20950""
","
","
","""event"",""trial"",""time""
""fullscreenenter"",""5"",""20950""
","
",NA,images/earth.jpg,NA,NA,NA,NA,NA,NA,NA,NA,NA,NA,NA,NA,NA,fixation,NA,NA,NA,NA,NA,NA,sub151
d3-animate-choice,252,761144,0.0-76.0-0.39,TRUE,FALSE,TRUE,FALSE,"""event"",""trial"",""time""
""fullscreenenter"",""5"",""20950""
","
","
","""event"",""trial"",""time""
""fullscreenenter"",""5"",""20950""
","
",306.93500000052154,NA,49,NA,NA,3000,1,NA,NA,images/earth.jpg,images/rocket2,images/rocket1,null,images/rocket1,NA,1,real,null,1,NA,NA,NA,sub151
d3-animate-choice,253,763454,0.0-76.0-1.39,TRUE,FALSE,TRUE,FALSE,"""event"",""trial"",""time""
""fullscreenenter"",""5"",""20950""
","
","
","""event"",""trial"",""time""
""fullscreenenter"",""5"",""20950""
","
",303.31999999901745,NA,48,NA,NA,3000,1,NA,NA,images/purpleplanet.jpg,images/alien4,images/alien3,images/rocket1,images/alien4,images/t.png,2,real,true,2,common,1,2020-07-03T16:50:22Z,sub151
two-step-fixation,254,764459,0.0-76.0-2.39,TRUE,FALSE,TRUE,FALSE,"""event"",""trial"",""time""
""fullscreenenter"",""5"",""20950""
","
","
","""event"",""trial"",""time""
""fullscreenenter"",""5"",""20950""
","
",NA,images/earth.jpg,NA,NA,NA,NA,NA,NA,NA,NA,NA,NA,NA,NA,NA,fixation,NA,NA,NA,NA,NA,NA,sub151
d3-animate-choice,255,766618,0.0-76.0-0.40,TRUE,FALSE,TRUE,FALSE,"""event"",""trial"",""time""
""fullscreenenter"",""5"",""20950""
","
","
","""event"",""trial"",""time""
""fullscreenenter"",""5"",""20950""
","
",148.05499999783933,NA,49,NA,NA,3000,1,NA,NA,images/earth.jpg,images/rocket2,images/rocket1,null,images/rocket1,NA,1,real,null,1,NA,NA,NA,sub151
d3-animate-choice,256,769041,0.0-76.0-1.40,TRUE,FALSE,TRUE,FALSE,"""event"",""trial"",""time""
""fullscreenenter"",""5"",""20950""
","
","
","""event"",""trial"",""time""
""fullscreenenter"",""5"",""20950""
","
",411.8049999959767,NA,48,NA,NA,3000,1,NA,NA,images/purpleplanet.jpg,images/alien4,images/alien3,images/rocket1,images/alien4,images/nothing.png,2,real,true,2,common,0,2020-07-03T16:50:27Z,sub151
two-step-fixation,257,770051,0.0-76.0-2.40,TRUE,FALSE,TRUE,FALSE,"""event"",""trial"",""time""
""fullscreenenter"",""5"",""20950""
","
","
","""event"",""trial"",""time""
""fullscreenenter"",""5"",""20950""
","
",NA,images/earth.jpg,NA,NA,NA,NA,NA,NA,NA,NA,NA,NA,NA,NA,NA,fixation,NA,NA,NA,NA,NA,NA,sub151
d3-animate-choice,258,772416,0.0-76.0-0.41,TRUE,FALSE,TRUE,FALSE,"""event"",""trial"",""time""
""fullscreenenter"",""5"",""20950""
","
","
","""event"",""trial"",""time""
""fullscreenenter"",""5"",""20950""
","
",352.5249999947846,NA,49,NA,NA,3000,1,NA,NA,images/earth.jpg,images/rocket2,images/rocket1,null,images/rocket1,NA,1,real,null,1,NA,NA,NA,sub151
d3-animate-choice,259,774831,0.0-76.0-1.41,TRUE,FALSE,TRUE,FALSE,"""event"",""trial"",""time""
""fullscreenenter"",""5"",""20950""
","
","
","""event"",""trial"",""time""
""fullscreenenter"",""5"",""20950""
","
",407.2450000020908,NA,48,NA,NA,3000,1,NA,NA,images/purpleplanet.jpg,images/alien4,images/alien3,images/rocket1,images/alien4,images/nothing.png,2,real,true,2,common,0,2020-07-03T16:50:33Z,sub151
two-step-fixation,260,775837,0.0-76.0-2.41,TRUE,FALSE,TRUE,FALSE,"""event"",""trial"",""time""
""fullscreenenter"",""5"",""20950""
","
","
","""event"",""trial"",""time""
""fullscreenenter"",""5"",""20950""
","
",NA,images/earth.jpg,NA,NA,NA,NA,NA,NA,NA,NA,NA,NA,NA,NA,NA,fixation,NA,NA,NA,NA,NA,NA,sub151
d3-animate-choice,261,778169,0.0-76.0-0.42,TRUE,FALSE,TRUE,FALSE,"""event"",""trial"",""time""
""fullscreenenter"",""5"",""20950""
","
","
","""event"",""trial"",""time""
""fullscreenenter"",""5"",""20950""
","
",324.0200000000186,NA,49,NA,NA,3000,1,NA,NA,images/earth.jpg,images/rocket2,images/rocket1,null,images/rocket1,NA,1,real,null,1,NA,NA,NA,sub151
d3-animate-choice,262,780427,0.0-76.0-1.42,TRUE,FALSE,TRUE,FALSE,"""event"",""trial"",""time""
""fullscreenenter"",""5"",""20950""
","
","
","""event"",""trial"",""time""
""fullscreenenter"",""5"",""20950""
","
",248.35999999777414,NA,48,NA,NA,3000,1,NA,NA,images/purpleplanet.jpg,images/alien4,images/alien3,images/rocket1,images/alien4,images/nothing.png,2,real,true,2,common,0,2020-07-03T16:50:39Z,sub151
two-step-fixation,263,781434,0.0-76.0-2.42,TRUE,FALSE,TRUE,FALSE,"""event"",""trial"",""time""
""fullscreenenter"",""5"",""20950""
","
","
","""event"",""trial"",""time""
""fullscreenenter"",""5"",""20950""
","
",NA,images/earth.jpg,NA,NA,NA,NA,NA,NA,NA,NA,NA,NA,NA,NA,NA,fixation,NA,NA,NA,NA,NA,NA,sub151
d3-animate-choice,264,783767,0.0-76.0-0.43,TRUE,FALSE,TRUE,FALSE,"""event"",""trial"",""time""
""fullscreenenter"",""5"",""20950""
","
","
","""event"",""trial"",""time""
""fullscreenenter"",""5"",""20950""
","
",324.5949999981094,NA,49,NA,NA,3000,1,NA,NA,images/earth.jpg,images/rocket2,images/rocket1,null,images/rocket1,NA,1,real,null,1,NA,NA,NA,sub151
d3-animate-choice,265,786125,0.0-76.0-1.43,TRUE,FALSE,TRUE,FALSE,"""event"",""trial"",""time""
""fullscreenenter"",""5"",""20950""
","
","
","""event"",""trial"",""time""
""fullscreenenter"",""5"",""20950""
","
",347.7400000046473,NA,48,NA,NA,3000,1,NA,NA,images/purpleplanet.jpg,images/alien4,images/alien3,images/rocket1,images/alien4,images/t.png,2,real,true,2,common,1,2020-07-03T16:50:44Z,sub151
two-step-fixation,266,787131,0.0-76.0-2.43,TRUE,FALSE,TRUE,FALSE,"""event"",""trial"",""time""
""fullscreenenter"",""5"",""20950""
","
","
","""event"",""trial"",""time""
""fullscreenenter"",""5"",""20950""
","
",NA,images/earth.jpg,NA,NA,NA,NA,NA,NA,NA,NA,NA,NA,NA,NA,NA,fixation,NA,NA,NA,NA,NA,NA,sub151
d3-animate-choice,267,789475,0.0-76.0-0.44,TRUE,FALSE,TRUE,FALSE,"""event"",""trial"",""time""
""fullscreenenter"",""5"",""20950""
","
","
","""event"",""trial"",""time""
""fullscreenenter"",""5"",""20950""
","
",331.31999999750406,NA,49,NA,NA,3000,1,NA,NA,images/earth.jpg,images/rocket2,images/rocket1,null,images/rocket1,NA,1,real,null,1,NA,NA,NA,sub151
d3-animate-choice,268,791806,0.0-76.0-1.44,TRUE,FALSE,TRUE,FALSE,"""event"",""trial"",""time""
""fullscreenenter"",""5"",""20950""
","
","
","""event"",""trial"",""time""
""fullscreenenter"",""5"",""20950""
","
",322.86500000196975,NA,48,NA,NA,3000,1,NA,NA,images/purpleplanet.jpg,images/alien4,images/alien3,images/rocket1,images/alien4,images/t.png,2,real,true,2,common,1,2020-07-03T16:50:50Z,sub151
two-step-fixation,269,792812,0.0-76.0-2.44,TRUE,FALSE,TRUE,FALSE,"""event"",""trial"",""time""
""fullscreenenter"",""5"",""20950""
","
","
","""event"",""trial"",""time""
""fullscreenenter"",""5"",""20950""
","
",NA,images/earth.jpg,NA,NA,NA,NA,NA,NA,NA,NA,NA,NA,NA,NA,NA,fixation,NA,NA,NA,NA,NA,NA,sub151
d3-animate-choice,270,795144,0.0-76.0-0.45,TRUE,FALSE,TRUE,FALSE,"""event"",""trial"",""time""
""fullscreenenter"",""5"",""20950""
","
","
","""event"",""trial"",""time""
""fullscreenenter"",""5"",""20950""
","
",325.6099999998696,NA,49,NA,NA,3000,1,NA,NA,images/earth.jpg,images/rocket2,images/rocket1,null,images/rocket1,NA,1,real,null,1,NA,NA,NA,sub151
d3-animate-choice,271,797755,0.0-76.0-1.45,TRUE,FALSE,TRUE,FALSE,"""event"",""trial"",""time""
""fullscreenenter"",""5"",""20950""
","
","
","""event"",""trial"",""time""
""fullscreenenter"",""5"",""20950""
","
",602.2949999968987,NA,48,NA,NA,3000,1,NA,NA,images/purpleplanet.jpg,images/alien4,images/alien3,images/rocket1,images/alien4,images/t.png,2,real,true,2,common,1,2020-07-03T16:50:56Z,sub151
two-step-fixation,272,798768,0.0-76.0-2.45,TRUE,FALSE,TRUE,FALSE,"""event"",""trial"",""time""
""fullscreenenter"",""5"",""20950""
","
","
","""event"",""trial"",""time""
""fullscreenenter"",""5"",""20950""
","
",NA,images/earth.jpg,NA,NA,NA,NA,NA,NA,NA,NA,NA,NA,NA,NA,NA,fixation,NA,NA,NA,NA,NA,NA,sub151
d3-animate-choice,273,801035,0.0-76.0-0.46,TRUE,FALSE,TRUE,FALSE,"""event"",""trial"",""time""
""fullscreenenter"",""5"",""20950""
","
","
","""event"",""trial"",""time""
""fullscreenenter"",""5"",""20950""
","
",253.6300000064075,NA,49,NA,NA,3000,1,NA,NA,images/earth.jpg,images/rocket2,images/rocket1,null,images/rocket1,NA,1,real,null,1,NA,NA,NA,sub151
d3-animate-choice,274,803382,0.0-76.0-1.46,TRUE,FALSE,TRUE,FALSE,"""event"",""trial"",""time""
""fullscreenenter"",""5"",""20950""
","
","
","""event"",""trial"",""time""
""fullscreenenter"",""5"",""20950""
","
",337.33000000205357,NA,48,NA,NA,3000,1,NA,NA,images/purpleplanet.jpg,images/alien4,images/alien3,images/rocket1,images/alien4,images/t.png,2,real,true,2,common,1,2020-07-03T16:51:02Z,sub151
two-step-fixation,275,804390,0.0-76.0-2.46,TRUE,FALSE,TRUE,FALSE,"""event"",""trial"",""time""
""fullscreenenter"",""5"",""20950""
","
","
","""event"",""trial"",""time""
""fullscreenenter"",""5"",""20950""
","
",NA,images/earth.jpg,NA,NA,NA,NA,NA,NA,NA,NA,NA,NA,NA,NA,NA,fixation,NA,NA,NA,NA,NA,NA,sub151
d3-animate-choice,276,806672,0.0-76.0-0.47,TRUE,FALSE,TRUE,FALSE,"""event"",""trial"",""time""
""fullscreenenter"",""5"",""20950""
","
","
","""event"",""trial"",""time""
""fullscreenenter"",""5"",""20950""
","
",272.82499999995343,NA,49,NA,NA,3000,1,NA,NA,images/earth.jpg,images/rocket2,images/rocket1,null,images/rocket1,NA,1,real,null,1,NA,NA,NA,sub151
d3-animate-choice,277,808919,0.0-76.0-1.47,TRUE,FALSE,TRUE,FALSE,"""event"",""trial"",""time""
""fullscreenenter"",""5"",""20950""
","
","
","""event"",""trial"",""time""
""fullscreenenter"",""5"",""20950""
","
",236.53500000364147,NA,48,NA,NA,3000,1,NA,NA,images/purpleplanet.jpg,images/alien4,images/alien3,images/rocket1,images/alien4,images/t.png,2,real,true,2,common,1,2020-07-03T16:51:07Z,sub151
two-step-fixation,278,809925,0.0-76.0-2.47,TRUE,FALSE,TRUE,FALSE,"""event"",""trial"",""time""
""fullscreenenter"",""5"",""20950""
","
","
","""event"",""trial"",""time""
""fullscreenenter"",""5"",""20950""
","
",NA,images/earth.jpg,NA,NA,NA,NA,NA,NA,NA,NA,NA,NA,NA,NA,NA,fixation,NA,NA,NA,NA,NA,NA,sub151
d3-animate-choice,279,811985,0.0-76.0-0.48,TRUE,FALSE,TRUE,FALSE,"""event"",""trial"",""time""
""fullscreenenter"",""5"",""20950""
","
","
","""event"",""trial"",""time""
""fullscreenenter"",""5"",""20950""
","
",51.8149999990128,NA,49,NA,NA,3000,1,1823.644999996759,48,images/earth.jpg,images/rocket2,images/rocket1,null,images/rocket1,NA,1,real,null,1,NA,NA,NA,sub151
d3-animate-choice,280,814351,0.0-76.0-1.48,TRUE,FALSE,TRUE,FALSE,"""event"",""trial"",""time""
""fullscreenenter"",""5"",""20950""
","
","
","""event"",""trial"",""time""
""fullscreenenter"",""5"",""20950""
","
",358.7600000028033,NA,48,NA,NA,3000,1,NA,NA,images/purpleplanet.jpg,images/alien4,images/alien3,images/rocket1,images/alien4,images/t.png,2,real,true,2,common,1,2020-07-03T16:51:13Z,sub151
two-step-fixation,281,815358,0.0-76.0-2.48,TRUE,FALSE,TRUE,FALSE,"""event"",""trial"",""time""
""fullscreenenter"",""5"",""20950""
","
","
","""event"",""trial"",""time""
""fullscreenenter"",""5"",""20950""
","
",NA,images/earth.jpg,NA,NA,NA,NA,NA,NA,NA,NA,NA,NA,NA,NA,NA,fixation,NA,NA,NA,NA,NA,NA,sub151
d3-animate-choice,282,817721,0.0-76.0-0.49,TRUE,FALSE,TRUE,FALSE,"""event"",""trial"",""time""
""fullscreenenter"",""5"",""20950""
","
","
