trial_type,trial_index,time_elapsed,internal_node_id,rocket_sides,red_planet_first_rocket,red_display_order,purple_display_order,interactions,blur_events,focus_events,fullscreenenter_events,fullscreenexit_events,rt,stimulus,key_press,button_pressed,success,duration,valid_pressed,rts,keys,planet_text,right_text,left_text,center_text,chosen_text,reward_text,trial_stage,practice_trial,transition_type,choice,transition,reward,timestamp,subject_id
pavlovia,0,6,0.0-0.0,FALSE,TRUE,FALSE,FALSE,"
","
","
","
","
",NA,NA,NA,NA,NA,NA,NA,NA,NA,NA,NA,NA,NA,NA,NA,NA,NA,NA,NA,NA,NA,NA,sub71
html-keyboard-response,1,1803,0.0-1.0,FALSE,TRUE,FALSE,FALSE,"
","
","
","
","
",1795,Welcome! Press the space bar to begin.,32,NA,NA,NA,NA,NA,NA,NA,NA,NA,NA,NA,NA,NA,NA,NA,NA,NA,NA,NA,sub71
audio-keyboard-response,2,4387,0.0-2.0,FALSE,TRUE,FALSE,FALSE,"
","
","
","
","
",2525,audio/beep_loop.wav,32,NA,NA,NA,NA,NA,NA,NA,NA,NA,NA,NA,NA,NA,NA,NA,NA,NA,NA,NA,sub71
audio-button-response,3,8099,0.0-3.0,FALSE,TRUE,FALSE,FALSE,"
","
","
","
","
",NaN,audio/fish.mp3,NA,1,NA,NA,NA,NA,NA,NA,NA,NA,NA,NA,NA,NA,NA,NA,NA,NA,NA,NA,sub71
audio-button-response,4,10819,0.0-4.0,FALSE,TRUE,FALSE,FALSE,"""event"",""trial"",""time""
""fullscreenenter"",""5"",""15383""
","
","
","""event"",""trial"",""time""
""fullscreenenter"",""5"",""15383""
","
",NaN,audio/tiger.mp3,NA,4,NA,NA,NA,NA,NA,NA,NA,NA,NA,NA,NA,NA,NA,NA,NA,NA,NA,NA,sub71
fullscreen,5,16349,0.0-5.0,FALSE,TRUE,FALSE,FALSE,"""event"",""trial"",""time""
""fullscreenenter"",""5"",""15383""
","
","
","""event"",""trial"",""time""
""fullscreenenter"",""5"",""15383""
","
",NA,NA,NA,NA,TRUE,NA,NA,NA,NA,NA,NA,NA,NA,NA,NA,NA,NA,NA,NA,NA,NA,NA,sub71
d3-instructions,6,30474,0.0-6.0,FALSE,TRUE,FALSE,FALSE,"""event"",""trial"",""time""
""fullscreenenter"",""5"",""15383""
","
","
","""event"",""trial"",""time""
""fullscreenenter"",""5"",""15383""
","
",NA,NA,NA,NA,NA,NA,NA,NA,NA,NA,NA,NA,NA,NA,NA,NA,NA,NA,NA,NA,NA,NA,sub71
d3-instructions,7,42306,0.0-7.0,FALSE,TRUE,FALSE,FALSE,"""event"",""trial"",""time""
""fullscreenenter"",""5"",""15383""
","
","
","""event"",""trial"",""time""
""fullscreenenter"",""5"",""15383""
","
",NA,NA,NA,NA,NA,NA,NA,NA,NA,NA,NA,NA,NA,NA,NA,NA,NA,NA,NA,NA,NA,NA,sub71
d3-instructions,8,49610,0.0-8.0,FALSE,TRUE,FALSE,FALSE,"""event"",""trial"",""time""
""fullscreenenter"",""5"",""15383""
","
","
","""event"",""trial"",""time""
""fullscreenenter"",""5"",""15383""
","
",NA,NA,NA,NA,NA,NA,NA,NA,NA,NA,NA,NA,NA,NA,NA,NA,NA,NA,NA,NA,NA,NA,sub71
d3-instructions,9,60722,0.0-9.0,FALSE,TRUE,FALSE,FALSE,"""event"",""trial"",""time""
""fullscreenenter"",""5"",""15383""
","
","
","""event"",""trial"",""time""
""fullscreenenter"",""5"",""15383""
","
",NA,NA,NA,NA,NA,NA,NA,NA,NA,NA,NA,NA,NA,NA,NA,NA,NA,NA,NA,NA,NA,NA,sub71
d3-instructions,10,81177,0.0-10.0,FALSE,TRUE,FALSE,FALSE,"""event"",""trial"",""time""
""fullscreenenter"",""5"",""15383""
","
","
","""event"",""trial"",""time""
""fullscreenenter"",""5"",""15383""
","
",NA,NA,NA,NA,NA,NA,NA,NA,NA,NA,NA,NA,NA,NA,NA,NA,NA,NA,NA,NA,NA,NA,sub71
d3-animate-choice,11,84438,0.0-11.0,FALSE,TRUE,FALSE,FALSE,"""event"",""trial"",""time""
""fullscreenenter"",""5"",""15383""
","
","
","""event"",""trial"",""time""
""fullscreenenter"",""5"",""15383""
","
",1254,NA,49,NA,NA,3000,1,2461,48,images/tutgreenplanet.jpg,images/tutalien1,images/tutalien2,null,images/tutalien2,NA,NA,practice,null,NA,NA,NA,NA,sub71
d3-animate-choice,12,87282,0.0-12.0,FALSE,TRUE,FALSE,FALSE,"""event"",""trial"",""time""
""fullscreenenter"",""5"",""15383""
","
","
","""event"",""trial"",""time""
""fullscreenenter"",""5"",""15383""
","
",841,NA,48,NA,NA,3000,1,NA,NA,images/tutgreenplanet.jpg,images/tutalien1,images/tutalien2,null,images/tutalien1,NA,NA,practice,null,NA,NA,NA,NA,sub71
d3-animate-choice,13,90739,0.0-13.0,FALSE,TRUE,FALSE,FALSE,"""event"",""trial"",""time""
""fullscreenenter"",""5"",""15383""
","
","
","""event"",""trial"",""time""
""fullscreenenter"",""5"",""15383""
","
",1454.0000000000146,NA,49,NA,NA,3000,1,NA,NA,images/tutgreenplanet.jpg,images/tutalien1,images/tutalien2,null,images/tutalien2,NA,NA,practice,null,NA,NA,NA,NA,sub71
d3-animate-choice,14,93595,0.0-14.0,FALSE,TRUE,FALSE,FALSE,"""event"",""trial"",""time""
""fullscreenenter"",""5"",""15383""
","
","
","""event"",""trial"",""time""
""fullscreenenter"",""5"",""15383""
","
",852.9999999999854,NA,48,NA,NA,3000,1,NA,NA,images/tutgreenplanet.jpg,images/tutalien1,images/tutalien2,null,images/tutalien1,NA,NA,practice,null,NA,NA,NA,NA,sub71
d3-instructions,15,101105,0.0-15.0,FALSE,TRUE,FALSE,FALSE,"""event"",""trial"",""time""
""fullscreenenter"",""5"",""15383""
","
","
","""event"",""trial"",""time""
""fullscreenenter"",""5"",""15383""
","
",NA,NA,NA,NA,NA,NA,NA,NA,NA,NA,NA,NA,NA,NA,NA,NA,NA,NA,NA,NA,NA,NA,sub71
d3-instructions,16,108369,0.0-16.0,FALSE,TRUE,FALSE,FALSE,"""event"",""trial"",""time""
""fullscreenenter"",""5"",""15383""
","
","
","""event"",""trial"",""time""
""fullscreenenter"",""5"",""15383""
","
",NA,NA,NA,NA,NA,NA,NA,NA,NA,NA,NA,NA,NA,NA,NA,NA,NA,NA,NA,NA,NA,NA,sub71
d3-instructions,17,117105,0.0-17.0,FALSE,TRUE,FALSE,FALSE,"""event"",""trial"",""time""
""fullscreenenter"",""5"",""15383""
","
","
","""event"",""trial"",""time""
""fullscreenenter"",""5"",""15383""
","
",NA,NA,NA,NA,NA,NA,NA,NA,NA,NA,NA,NA,NA,NA,NA,NA,NA,NA,NA,NA,NA,NA,sub71
d3-instructions,18,131481,0.0-18.0,FALSE,TRUE,FALSE,FALSE,"""event"",""trial"",""time""
""fullscreenenter"",""5"",""15383""
","
","
","""event"",""trial"",""time""
""fullscreenenter"",""5"",""15383""
","
",NA,NA,NA,NA,NA,NA,NA,NA,NA,NA,NA,NA,NA,NA,NA,NA,NA,NA,NA,NA,NA,NA,sub71
d3-instructions,19,141185,0.0-19.0,FALSE,TRUE,FALSE,FALSE,"""event"",""trial"",""time""
""fullscreenenter"",""5"",""15383""
","
","
","""event"",""trial"",""time""
""fullscreenenter"",""5"",""15383""
","
",NA,NA,NA,NA,NA,NA,NA,NA,NA,NA,NA,NA,NA,NA,NA,NA,NA,NA,NA,NA,NA,NA,sub71
d3-animate-choice,20,144345,0.0-20.0,FALSE,TRUE,FALSE,FALSE,"""event"",""trial"",""time""
""fullscreenenter"",""5"",""15383""
","
","
","""event"",""trial"",""time""
""fullscreenenter"",""5"",""15383""
","
",1157,NA,49,NA,NA,3000,1,NA,NA,images/tutyellowplanet.jpg,null,images/tutalien3,null,images/tutalien3,images/t.png,NA,practice,null,NA,NA,NA,NA,sub71
d3-animate-choice,21,147002,0.0-21.0,FALSE,TRUE,FALSE,FALSE,"""event"",""trial"",""time""
""fullscreenenter"",""5"",""15383""
","
","
","""event"",""trial"",""time""
""fullscreenenter"",""5"",""15383""
","
",654,NA,49,NA,NA,3000,1,NA,NA,images/tutyellowplanet.jpg,null,images/tutalien3,null,images/tutalien3,images/t.png,NA,practice,null,NA,NA,NA,NA,sub71
d3-animate-choice,22,149337,0.0-22.0,FALSE,TRUE,FALSE,FALSE,"""event"",""trial"",""time""
""fullscreenenter"",""5"",""15383""
","
","
","""event"",""trial"",""time""
""fullscreenenter"",""5"",""15383""
","
",333.0000000000291,NA,49,NA,NA,3000,1,NA,NA,images/tutyellowplanet.jpg,null,images/tutalien3,null,images/tutalien3,images/t.png,NA,practice,null,NA,NA,NA,NA,sub71
d3-animate-choice,23,151714,0.0-23.0,FALSE,TRUE,FALSE,FALSE,"""event"",""trial"",""time""
""fullscreenenter"",""5"",""15383""
","
","
","""event"",""trial"",""time""
""fullscreenenter"",""5"",""15383""
","
",374,NA,49,NA,NA,3000,1,NA,NA,images/tutyellowplanet.jpg,null,images/tutalien3,null,images/tutalien3,images/t.png,NA,practice,null,NA,NA,NA,NA,sub71
d3-animate-choice,24,154090,0.0-24.0,FALSE,TRUE,FALSE,FALSE,"""event"",""trial"",""time""
""fullscreenenter"",""5"",""15383""
","
","
","""event"",""trial"",""time""
""fullscreenenter"",""5"",""15383""
","
",373,NA,49,NA,NA,3000,1,NA,NA,images/tutyellowplanet.jpg,null,images/tutalien3,null,images/tutalien3,images/t.png,NA,practice,null,NA,NA,NA,NA,sub71
d3-animate-choice,25,156425,0.0-25.0,FALSE,TRUE,FALSE,FALSE,"""event"",""trial"",""time""
""fullscreenenter"",""5"",""15383""
","
","
","""event"",""trial"",""time""
""fullscreenenter"",""5"",""15383""
","
",332,NA,49,NA,NA,3000,1,NA,NA,images/tutyellowplanet.jpg,null,images/tutalien3,null,images/tutalien3,images/nothing.png,NA,practice,null,NA,NA,NA,NA,sub71
d3-animate-choice,26,158745,0.0-26.0,FALSE,TRUE,FALSE,FALSE,"""event"",""trial"",""time""
""fullscreenenter"",""5"",""15383""
","
","
","""event"",""trial"",""time""
""fullscreenenter"",""5"",""15383""
","
",318,NA,49,NA,NA,3000,1,NA,NA,images/tutyellowplanet.jpg,null,images/tutalien3,null,images/tutalien3,images/t.png,NA,practice,null,NA,NA,NA,NA,sub71
d3-animate-choice,27,161184,0.0-27.0,FALSE,TRUE,FALSE,FALSE,"""event"",""trial"",""time""
""fullscreenenter"",""5"",""15383""
","
","
","""event"",""trial"",""time""
""fullscreenenter"",""5"",""15383""
","
",437,NA,49,NA,NA,3000,1,NA,NA,images/tutyellowplanet.jpg,null,images/tutalien3,null,images/tutalien3,images/t.png,NA,practice,null,NA,NA,NA,NA,sub71
d3-animate-choice,28,163497,0.0-28.0,FALSE,TRUE,FALSE,FALSE,"""event"",""trial"",""time""
""fullscreenenter"",""5"",""15383""
","
","
","""event"",""trial"",""time""
""fullscreenenter"",""5"",""15383""
","
",310,NA,49,NA,NA,3000,1,NA,NA,images/tutyellowplanet.jpg,null,images/tutalien3,null,images/tutalien3,images/nothing.png,NA,practice,null,NA,NA,NA,NA,sub71
d3-animate-choice,29,165985,0.0-29.0,FALSE,TRUE,FALSE,FALSE,"""event"",""trial"",""time""
""fullscreenenter"",""5"",""15383""
","
","
","""event"",""trial"",""time""
""fullscreenenter"",""5"",""15383""
","
",486,NA,49,NA,NA,3000,1,NA,NA,images/tutyellowplanet.jpg,null,images/tutalien3,null,images/tutalien3,images/t.png,NA,practice,null,NA,NA,NA,NA,sub71
d3-instructions,30,173424,0.0-30.0,FALSE,TRUE,FALSE,FALSE,"""event"",""trial"",""time""
""fullscreenenter"",""5"",""15383""
","
","
","""event"",""trial"",""time""
""fullscreenenter"",""5"",""15383""
","
",NA,NA,NA,NA,NA,NA,NA,NA,NA,NA,NA,NA,NA,NA,NA,NA,NA,NA,NA,NA,NA,NA,sub71
d3-instructions,31,183328,0.0-31.0,FALSE,TRUE,FALSE,FALSE,"""event"",""trial"",""time""
""fullscreenenter"",""5"",""15383""
","
","
","""event"",""trial"",""time""
""fullscreenenter"",""5"",""15383""
","
",NA,NA,NA,NA,NA,NA,NA,NA,NA,NA,NA,NA,NA,NA,NA,NA,NA,NA,NA,NA,NA,NA,sub71
d3-instructions,32,190976,0.0-32.0,FALSE,TRUE,FALSE,FALSE,"""event"",""trial"",""time""
""fullscreenenter"",""5"",""15383""
","
","
","""event"",""trial"",""time""
""fullscreenenter"",""5"",""15383""
","
",NA,NA,NA,NA,NA,NA,NA,NA,NA,NA,NA,NA,NA,NA,NA,NA,NA,NA,NA,NA,NA,NA,sub71
d3-instructions,33,196703,0.0-33.0,FALSE,TRUE,FALSE,FALSE,"""event"",""trial"",""time""
""fullscreenenter"",""5"",""15383""
","
","
","""event"",""trial"",""time""
""fullscreenenter"",""5"",""15383""
","
",NA,NA,NA,NA,NA,NA,NA,NA,NA,NA,NA,NA,NA,NA,NA,NA,NA,NA,NA,NA,NA,NA,sub71
d3-animate-choice,34,200985,0.0-34.0,FALSE,TRUE,FALSE,FALSE,"""event"",""trial"",""time""
""fullscreenenter"",""5"",""15383""
","
","
","""event"",""trial"",""time""
""fullscreenenter"",""5"",""15383""
","
",2278.999999999971,NA,49,NA,NA,3000,1,NA,NA,images/tutgreenplanet.jpg,images/tutalien1,images/tutalien2,null,images/tutalien2,images/t.png,NA,practice,null,NA,NA,NA,NA,sub71
d3-animate-choice,35,203408,0.0-35.0,FALSE,TRUE,FALSE,FALSE,"""event"",""trial"",""time""
""fullscreenenter"",""5"",""15383""
","
","
","""event"",""trial"",""time""
""fullscreenenter"",""5"",""15383""
","
",422,NA,49,NA,NA,3000,1,NA,NA,images/tutgreenplanet.jpg,images/tutalien1,images/tutalien2,null,images/tutalien2,images/t.png,NA,practice,null,NA,NA,NA,NA,sub71
d3-animate-choice,36,205769,0.0-36.0,FALSE,TRUE,FALSE,FALSE,"""event"",""trial"",""time""
""fullscreenenter"",""5"",""15383""
","
","
","""event"",""trial"",""time""
""fullscreenenter"",""5"",""15383""
","
",359,NA,49,NA,NA,3000,1,NA,NA,images/tutgreenplanet.jpg,images/tutalien1,images/tutalien2,null,images/tutalien2,images/t.png,NA,practice,null,NA,NA,NA,NA,sub71
d3-animate-choice,37,208080,0.0-37.0,FALSE,TRUE,FALSE,FALSE,"""event"",""trial"",""time""
""fullscreenenter"",""5"",""15383""
","
","
","""event"",""trial"",""time""
""fullscreenenter"",""5"",""15383""
","
",310,NA,49,NA,NA,3000,1,NA,NA,images/tutgreenplanet.jpg,images/tutalien1,images/tutalien2,null,images/tutalien2,images/t.png,NA,practice,null,NA,NA,NA,NA,sub71
d3-animate-choice,38,210352,0.0-38.0,FALSE,TRUE,FALSE,FALSE,"""event"",""trial"",""time""
""fullscreenenter"",""5"",""15383""
","
","
","""event"",""trial"",""time""
""fullscreenenter"",""5"",""15383""
","
",270,NA,49,NA,NA,3000,1,NA,NA,images/tutgreenplanet.jpg,images/tutalien1,images/tutalien2,null,images/tutalien2,images/nothing.png,NA,practice,null,NA,NA,NA,NA,sub71
d3-animate-choice,39,212801,0.0-39.0,FALSE,TRUE,FALSE,FALSE,"""event"",""trial"",""time""
""fullscreenenter"",""5"",""15383""
","
","
","""event"",""trial"",""time""
""fullscreenenter"",""5"",""15383""
","
",446,NA,48,NA,NA,3000,1,NA,NA,images/tutgreenplanet.jpg,images/tutalien1,images/tutalien2,null,images/tutalien1,images/nothing.png,NA,practice,null,NA,NA,NA,NA,sub71
d3-animate-choice,40,215193,0.0-40.0,FALSE,TRUE,FALSE,FALSE,"""event"",""trial"",""time""
""fullscreenenter"",""5"",""15383""
","
","
","""event"",""trial"",""time""
""fullscreenenter"",""5"",""15383""
","
",390,NA,49,NA,NA,3000,1,NA,NA,images/tutgreenplanet.jpg,images/tutalien1,images/tutalien2,null,images/tutalien2,images/t.png,NA,practice,null,NA,NA,NA,NA,sub71
d3-animate-choice,41,217456,0.0-41.0,FALSE,TRUE,FALSE,FALSE,"""event"",""trial"",""time""
""fullscreenenter"",""5"",""15383""
","
","
","""event"",""trial"",""time""
""fullscreenenter"",""5"",""15383""
","
",261.0000000000291,NA,49,NA,NA,3000,1,NA,NA,images/tutgreenplanet.jpg,images/tutalien1,images/tutalien2,null,images/tutalien2,images/t.png,NA,practice,null,NA,NA,NA,NA,sub71
d3-animate-choice,42,219793,0.0-42.0,FALSE,TRUE,FALSE,FALSE,"""event"",""trial"",""time""
""fullscreenenter"",""5"",""15383""
","
","
","""event"",""trial"",""time""
""fullscreenenter"",""5"",""15383""
","
",333,NA,49,NA,NA,3000,1,NA,NA,images/tutgreenplanet.jpg,images/tutalien1,images/tutalien2,null,images/tutalien2,images/t.png,NA,practice,null,NA,NA,NA,NA,sub71
d3-animate-choice,43,222080,0.0-43.0,FALSE,TRUE,FALSE,FALSE,"""event"",""trial"",""time""
""fullscreenenter"",""5"",""15383""
","
","
","""event"",""trial"",""time""
""fullscreenenter"",""5"",""15383""
","
",284.9999999999709,NA,49,NA,NA,3000,1,NA,NA,images/tutgreenplanet.jpg,images/tutalien1,images/tutalien2,null,images/tutalien2,images/t.png,NA,practice,null,NA,NA,NA,NA,sub71
d3-instructions,44,230799,0.0-44.0,FALSE,TRUE,FALSE,FALSE,"""event"",""trial"",""time""
""fullscreenenter"",""5"",""15383""
","
","
","""event"",""trial"",""time""
""fullscreenenter"",""5"",""15383""
","
",NA,NA,NA,NA,NA,NA,NA,NA,NA,NA,NA,NA,NA,NA,NA,NA,NA,NA,NA,NA,NA,NA,sub71
d3-instructions,45,234927,0.0-45.0,FALSE,TRUE,FALSE,FALSE,"""event"",""trial"",""time""
""fullscreenenter"",""5"",""15383""
","
","
","""event"",""trial"",""time""
""fullscreenenter"",""5"",""15383""
","
",NA,NA,NA,NA,NA,NA,NA,NA,NA,NA,NA,NA,NA,NA,NA,NA,NA,NA,NA,NA,NA,NA,sub71
d3-instructions,46,236719,0.0-46.0,FALSE,TRUE,FALSE,FALSE,"""event"",""trial"",""time""
""fullscreenenter"",""5"",""15383""
","
","
","""event"",""trial"",""time""
""fullscreenenter"",""5"",""15383""
","
",NA,NA,NA,NA,NA,NA,NA,NA,NA,NA,NA,NA,NA,NA,NA,NA,NA,NA,NA,NA,NA,NA,sub71
d3-instructions,47,250791,0.0-47.0,FALSE,TRUE,FALSE,FALSE,"""event"",""trial"",""time""
""fullscreenenter"",""5"",""15383""
","
","
","""event"",""trial"",""time""
""fullscreenenter"",""5"",""15383""
","
",NA,NA,NA,NA,NA,NA,NA,NA,NA,NA,NA,NA,NA,NA,NA,NA,NA,NA,NA,NA,NA,NA,sub71
d3-instructions,48,252487,0.0-48.0,FALSE,TRUE,FALSE,FALSE,"""event"",""trial"",""time""
""fullscreenenter"",""5"",""15383""
","
","
","""event"",""trial"",""time""
""fullscreenenter"",""5"",""15383""
","
",NA,NA,NA,NA,NA,NA,NA,NA,NA,NA,NA,NA,NA,NA,NA,NA,NA,NA,NA,NA,NA,NA,sub71
d3-instructions,49,260047,0.0-49.0,FALSE,TRUE,FALSE,FALSE,"""event"",""trial"",""time""
""fullscreenenter"",""5"",""15383""
","
","
","""event"",""trial"",""time""
""fullscreenenter"",""5"",""15383""
","
",NA,NA,NA,NA,NA,NA,NA,NA,NA,NA,NA,NA,NA,NA,NA,NA,NA,NA,NA,NA,NA,NA,sub71
d3-instructions,50,268927,0.0-50.0,FALSE,TRUE,FALSE,FALSE,"""event"",""trial"",""time""
""fullscreenenter"",""5"",""15383""
","
","
","""event"",""trial"",""time""
""fullscreenenter"",""5"",""15383""
","
",NA,NA,NA,NA,NA,NA,NA,NA,NA,NA,NA,NA,NA,NA,NA,NA,NA,NA,NA,NA,NA,NA,sub71
d3-instructions,51,270367,0.0-51.0,FALSE,TRUE,FALSE,FALSE,"""event"",""trial"",""time""
""fullscreenenter"",""5"",""15383""
","
","
","""event"",""trial"",""time""
""fullscreenenter"",""5"",""15383""
","
",NA,NA,NA,NA,NA,NA,NA,NA,NA,NA,NA,NA,NA,NA,NA,NA,NA,NA,NA,NA,NA,NA,sub71
d3-instructions,52,271718,0.0-52.0,FALSE,TRUE,FALSE,FALSE,"""event"",""trial"",""time""
""fullscreenenter"",""5"",""15383""
","
","
","""event"",""trial"",""time""
""fullscreenenter"",""5"",""15383""
","
",NA,NA,NA,NA,NA,NA,NA,NA,NA,NA,NA,NA,NA,NA,NA,NA,NA,NA,NA,NA,NA,NA,sub71
d3-instructions,53,282982,0.0-53.0,FALSE,TRUE,FALSE,FALSE,"""event"",""trial"",""time""
""fullscreenenter"",""5"",""15383""
","
","
","""event"",""trial"",""time""
""fullscreenenter"",""5"",""15383""
","
",NA,NA,NA,NA,NA,NA,NA,NA,NA,NA,NA,NA,NA,NA,NA,NA,NA,NA,NA,NA,NA,NA,sub71
d3-instructions,54,292654,0.0-54.0,FALSE,TRUE,FALSE,FALSE,"""event"",""trial"",""time""
""fullscreenenter"",""5"",""15383""
","
","
","""event"",""trial"",""time""
""fullscreenenter"",""5"",""15383""
","
",NA,NA,NA,NA,NA,NA,NA,NA,NA,NA,NA,NA,NA,NA,NA,NA,NA,NA,NA,NA,NA,NA,sub71
d3-instructions,55,294742,0.0-55.0,FALSE,TRUE,FALSE,FALSE,"""event"",""trial"",""time""
""fullscreenenter"",""5"",""15383""
","
","
","""event"",""trial"",""time""
""fullscreenenter"",""5"",""15383""
","
",NA,NA,NA,NA,NA,NA,NA,NA,NA,NA,NA,NA,NA,NA,NA,NA,NA,NA,NA,NA,NA,NA,sub71
d3-instructions,56,297342,0.0-56.0,FALSE,TRUE,FALSE,FALSE,"""event"",""trial"",""time""
""fullscreenenter"",""5"",""15383""
","
","
","""event"",""trial"",""time""
""fullscreenenter"",""5"",""15383""
","
",NA,NA,NA,NA,NA,NA,NA,NA,NA,NA,NA,NA,NA,NA,NA,NA,NA,NA,NA,NA,NA,NA,sub71
d3-instructions,57,310142,0.0-57.0,FALSE,TRUE,FALSE,FALSE,"""event"",""trial"",""time""
""fullscreenenter"",""5"",""15383""
","
","
","""event"",""trial"",""time""
""fullscreenenter"",""5"",""15383""
","
",NA,NA,NA,NA,NA,NA,NA,NA,NA,NA,NA,NA,NA,NA,NA,NA,NA,NA,NA,NA,NA,NA,sub71
d3-instructions,58,320390,0.0-58.0,FALSE,TRUE,FALSE,FALSE,"""event"",""trial"",""time""
""fullscreenenter"",""5"",""15383""
","
","
","""event"",""trial"",""time""
""fullscreenenter"",""5"",""15383""
","
",NA,NA,NA,NA,NA,NA,NA,NA,NA,NA,NA,NA,NA,NA,NA,NA,NA,NA,NA,NA,NA,NA,sub71
d3-instructions,59,325118,0.0-59.0,FALSE,TRUE,FALSE,FALSE,"""event"",""trial"",""time""
""fullscreenenter"",""5"",""15383""
","
","
","""event"",""trial"",""time""
""fullscreenenter"",""5"",""15383""
","
",NA,NA,NA,NA,NA,NA,NA,NA,NA,NA,NA,NA,NA,NA,NA,NA,NA,NA,NA,NA,NA,NA,sub71
d3-instructions,60,331582,0.0-60.0,FALSE,TRUE,FALSE,FALSE,"""event"",""trial"",""time""
""fullscreenenter"",""5"",""15383""
","
","
","""event"",""trial"",""time""
""fullscreenenter"",""5"",""15383""
","
",NA,NA,NA,NA,NA,NA,NA,NA,NA,NA,NA,NA,NA,NA,NA,NA,NA,NA,NA,NA,NA,NA,sub71
d3-animate-choice,61,334231,0.0-61.0-0.0,FALSE,TRUE,FALSE,FALSE,"""event"",""trial"",""time""
""fullscreenenter"",""5"",""15383""
","
","
","""event"",""trial"",""time""
""fullscreenenter"",""5"",""15383""
","
",646,NA,49,NA,NA,3000,1,NA,NA,images/earth.jpg,images/tutrocket1,images/tutrocket2,null,images/tutrocket2,NA,1,practice,null,1,NA,NA,NA,sub71
d3-animate-choice,62,337567,0.0-61.0-1.0,FALSE,TRUE,FALSE,FALSE,"""event"",""trial"",""time""
""fullscreenenter"",""5"",""15383""
","
","
","""event"",""trial"",""time""
""fullscreenenter"",""5"",""15383""
","
",1332,NA,49,NA,NA,3000,1,NA,NA,images/tutyellowplanet.jpg,images/tutalien4,images/tutalien3,images/tutrocket2,images/tutalien3,images/t.png,2,practice,true,1,common,1,2020-06-16T17:52:49Z,sub71
two-step-fixation,63,338570,0.0-61.0-2.0,FALSE,TRUE,FALSE,FALSE,"""event"",""trial"",""time""
""fullscreenenter"",""5"",""15383""
","
","
","""event"",""trial"",""time""
""fullscreenenter"",""5"",""15383""
","
",NA,images/earth.jpg,NA,NA,NA,NA,NA,NA,NA,NA,NA,NA,NA,NA,NA,fixation,NA,NA,NA,NA,NA,NA,sub71
d3-animate-choice,64,342175,0.0-61.0-0.1,FALSE,TRUE,FALSE,FALSE,"""event"",""trial"",""time""
""fullscreenenter"",""5"",""15383""
","
","
","""event"",""trial"",""time""
""fullscreenenter"",""5"",""15383""
","
",1602,NA,48,NA,NA,3000,1,NA,NA,images/earth.jpg,images/tutrocket1,images/tutrocket2,null,images/tutrocket1,NA,1,practice,null,2,NA,NA,NA,sub71
d3-animate-choice,65,346176,0.0-61.0-1.1,FALSE,TRUE,FALSE,FALSE,"""event"",""trial"",""time""
""fullscreenenter"",""5"",""15383""
","
","
","""event"",""trial"",""time""
""fullscreenenter"",""5"",""15383""
","
",2061,NA,48,NA,NA,3000,1,NA,NA,images/tutgreenplanet.jpg,images/tutalien2,images/tutalien1,images/tutrocket1,images/tutalien2,images/nothing.png,2,practice,true,2,common,0,2020-06-16T17:52:57Z,sub71
two-step-fixation,66,347178,0.0-61.0-2.1,FALSE,TRUE,FALSE,FALSE,"""event"",""trial"",""time""
""fullscreenenter"",""5"",""15383""
","
","
","""event"",""trial"",""time""
""fullscreenenter"",""5"",""15383""
","
",NA,images/earth.jpg,NA,NA,NA,NA,NA,NA,NA,NA,NA,NA,NA,NA,NA,fixation,NA,NA,NA,NA,NA,NA,sub71
d3-animate-choice,67,349878,0.0-61.0-0.2,FALSE,TRUE,FALSE,FALSE,"""event"",""trial"",""time""
""fullscreenenter"",""5"",""15383""
","
","
","""event"",""trial"",""time""
""fullscreenenter"",""5"",""15383""
","
",698,NA,49,NA,NA,3000,1,NA,NA,images/earth.jpg,images/tutrocket1,images/tutrocket2,null,images/tutrocket2,NA,1,practice,null,1,NA,NA,NA,sub71
d3-animate-choice,68,353881,0.0-61.0-1.2,FALSE,TRUE,FALSE,FALSE,"""event"",""trial"",""time""
""fullscreenenter"",""5"",""15383""
","
","
","""event"",""trial"",""time""
""fullscreenenter"",""5"",""15383""
","
",806,NA,50,NA,NA,3000,1,3189.000000000058,48,images/tutyellowplanet.jpg,images/tutalien4,images/tutalien3,images/tutrocket2,images/tutalien4,NA,2,practice,true,NA,common,0,2020-06-16T17:53:05Z,sub71
two-step-fixation,69,354883,0.0-61.0-2.2,FALSE,TRUE,FALSE,FALSE,"""event"",""trial"",""time""
""fullscreenenter"",""5"",""15383""
","
","
","""event"",""trial"",""time""
""fullscreenenter"",""5"",""15383""
","
",NA,images/earth.jpg,NA,NA,NA,NA,NA,NA,NA,NA,NA,NA,NA,NA,NA,fixation,NA,NA,NA,NA,NA,NA,sub71
d3-animate-choice,70,358574,0.0-61.0-0.3,FALSE,TRUE,FALSE,FALSE,"""event"",""trial"",""time""
""fullscreenenter"",""5"",""15383""
","
","
","""event"",""trial"",""time""
""fullscreenenter"",""5"",""15383""
","
",1689,NA,49,NA,NA,3000,1,NA,NA,images/earth.jpg,images/tutrocket1,images/tutrocket2,null,images/tutrocket2,NA,1,practice,null,1,NA,NA,NA,sub71
d3-animate-choice,71,361119,0.0-61.0-1.3,FALSE,TRUE,FALSE,FALSE,"""event"",""trial"",""time""
""fullscreenenter"",""5"",""15383""
","
","
","""event"",""trial"",""time""
""fullscreenenter"",""5"",""15383""
","
",541,NA,48,NA,NA,3000,1,NA,NA,images/tutyellowplanet.jpg,images/tutalien4,images/tutalien3,images/tutrocket2,images/tutalien4,images/t.png,2,practice,true,2,common,1,2020-06-16T17:53:12Z,sub71
two-step-fixation,72,362120,0.0-61.0-2.3,FALSE,TRUE,FALSE,FALSE,"""event"",""trial"",""time""
""fullscreenenter"",""5"",""15383""
","
","
","""event"",""trial"",""time""
""fullscreenenter"",""5"",""15383""
","
",NA,images/earth.jpg,NA,NA,NA,NA,NA,NA,NA,NA,NA,NA,NA,NA,NA,fixation,NA,NA,NA,NA,NA,NA,sub71
d3-animate-choice,73,364550,0.0-61.0-0.4,FALSE,TRUE,FALSE,FALSE,"""event"",""trial"",""time""
""fullscreenenter"",""5"",""15383""
","
","
","""event"",""trial"",""time""
""fullscreenenter"",""5"",""15383""
","
",427,NA,49,NA,NA,3000,1,NA,NA,images/earth.jpg,images/tutrocket1,images/tutrocket2,null,images/tutrocket2,NA,1,practice,null,1,NA,NA,NA,sub71
d3-animate-choice,74,367198,0.0-61.0-1.4,FALSE,TRUE,FALSE,FALSE,"""event"",""trial"",""time""
""fullscreenenter"",""5"",""15383""
","
","
","""event"",""trial"",""time""
""fullscreenenter"",""5"",""15383""
","
",646,NA,49,NA,NA,3000,1,NA,NA,images/tutyellowplanet.jpg,images/tutalien4,images/tutalien3,images/tutrocket2,images/tutalien3,images/t.png,2,practice,true,1,common,1,2020-06-16T17:53:18Z,sub71
two-step-fixation,75,368200,0.0-61.0-2.4,FALSE,TRUE,FALSE,FALSE,"""event"",""trial"",""time""
""fullscreenenter"",""5"",""15383""
","
","
","""event"",""trial"",""time""
""fullscreenenter"",""5"",""15383""
","
",NA,images/earth.jpg,NA,NA,NA,NA,NA,NA,NA,NA,NA,NA,NA,NA,NA,fixation,NA,NA,NA,NA,NA,NA,sub71
d3-animate-choice,76,370614,0.0-61.0-0.5,FALSE,TRUE,FALSE,FALSE,"""event"",""trial"",""time""
""fullscreenenter"",""5"",""15383""
","
","
","""event"",""trial"",""time""
""fullscreenenter"",""5"",""15383""
","
",411.9999999999418,NA,49,NA,NA,3000,1,NA,NA,images/earth.jpg,images/tutrocket1,images/tutrocket2,null,images/tutrocket2,NA,1,practice,null,1,NA,NA,NA,sub71
d3-animate-choice,77,373062,0.0-61.0-1.5,FALSE,TRUE,FALSE,FALSE,"""event"",""trial"",""time""
""fullscreenenter"",""5"",""15383""
","
","
","""event"",""trial"",""time""
""fullscreenenter"",""5"",""15383""
","
",446,NA,49,NA,NA,3000,1,NA,NA,images/tutgreenplanet.jpg,images/tutalien2,images/tutalien1,images/tutrocket2,images/tutalien1,images/nothing.png,2,practice,false,1,rare,0,2020-06-16T17:53:24Z,sub71
two-step-fixation,78,374064,0.0-61.0-2.5,FALSE,TRUE,FALSE,FALSE,"""event"",""trial"",""time""
""fullscreenenter"",""5"",""15383""
","
","
","""event"",""trial"",""time""
""fullscreenenter"",""5"",""15383""
","
",NA,images/earth.jpg,NA,NA,NA,NA,NA,NA,NA,NA,NA,NA,NA,NA,NA,fixation,NA,NA,NA,NA,NA,NA,sub71
d3-animate-choice,79,376446,0.0-61.0-0.6,FALSE,TRUE,FALSE,FALSE,"""event"",""trial"",""time""
""fullscreenenter"",""5"",""15383""
","
","
","""event"",""trial"",""time""
""fullscreenenter"",""5"",""15383""
","
",379,NA,49,NA,NA,3000,1,NA,NA,images/earth.jpg,images/tutrocket1,images/tutrocket2,null,images/tutrocket2,NA,1,practice,null,1,NA,NA,NA,sub71
d3-animate-choice,80,379423,0.0-61.0-1.6,FALSE,TRUE,FALSE,FALSE,"""event"",""trial"",""time""
""fullscreenenter"",""5"",""15383""
","
","
","""event"",""trial"",""time""
""fullscreenenter"",""5"",""15383""
","
",974,NA,48,NA,NA,3000,1,NA,NA,images/tutgreenplanet.jpg,images/tutalien2,images/tutalien1,images/tutrocket2,images/tutalien2,images/nothing.png,2,practice,false,2,rare,0,2020-06-16T17:53:31Z,sub71
two-step-fixation,81,380425,0.0-61.0-2.6,FALSE,TRUE,FALSE,FALSE,"""event"",""trial"",""time""
""fullscreenenter"",""5"",""15383""
","
","
","""event"",""trial"",""time""
""fullscreenenter"",""5"",""15383""
","
",NA,images/earth.jpg,NA,NA,NA,NA,NA,NA,NA,NA,NA,NA,NA,NA,NA,fixation,NA,NA,NA,NA,NA,NA,sub71
d3-animate-choice,82,383110,0.0-61.0-0.7,FALSE,TRUE,FALSE,FALSE,"""event"",""trial"",""time""
""fullscreenenter"",""5"",""15383""
","
","
","""event"",""trial"",""time""
""fullscreenenter"",""5"",""15383""
","
",683,NA,49,NA,NA,3000,1,NA,NA,images/earth.jpg,images/tutrocket1,images/tutrocket2,null,images/tutrocket2,NA,1,practice,null,1,NA,NA,NA,sub71
d3-animate-choice,83,385782,0.0-61.0-1.7,FALSE,TRUE,FALSE,FALSE,"""event"",""trial"",""time""
""fullscreenenter"",""5"",""15383""
","
","
","""event"",""trial"",""time""
""fullscreenenter"",""5"",""15383""
","
",670,NA,49,NA,NA,3000,1,NA,NA,images/tutyellowplanet.jpg,images/tutalien4,images/tutalien3,images/tutrocket2,images/tutalien3,images/nothing.png,2,practice,true,1,common,0,2020-06-16T17:53:37Z,sub71
two-step-fixation,84,386784,0.0-61.0-2.7,FALSE,TRUE,FALSE,FALSE,"""event"",""trial"",""time""
""fullscreenenter"",""5"",""15383""
","
","
","""event"",""trial"",""time""
""fullscreenenter"",""5"",""15383""
","
",NA,images/earth.jpg,NA,NA,NA,NA,NA,NA,NA,NA,NA,NA,NA,NA,NA,fixation,NA,NA,NA,NA,NA,NA,sub71
d3-animate-choice,85,389294,0.0-61.0-0.8,FALSE,TRUE,FALSE,FALSE,"""event"",""trial"",""time""
""fullscreenenter"",""5"",""15383""
","
","
","""event"",""trial"",""time""
""fullscreenenter"",""5"",""15383""
","
",508,NA,49,NA,NA,3000,1,NA,NA,images/earth.jpg,images/tutrocket1,images/tutrocket2,null,images/tutrocket2,NA,1,practice,null,1,NA,NA,NA,sub71
d3-animate-choice,86,391838,0.0-61.0-1.8,FALSE,TRUE,FALSE,FALSE,"""event"",""trial"",""time""
""fullscreenenter"",""5"",""15383""
","
","
","""event"",""trial"",""time""
""fullscreenenter"",""5"",""15383""
","
",541,NA,49,NA,NA,3000,1,NA,NA,images/tutyellowplanet.jpg,images/tutalien4,images/tutalien3,images/tutrocket2,images/tutalien3,images/nothing.png,2,practice,true,1,common,0,2020-06-16T17:53:43Z,sub71
two-step-fixation,87,392840,0.0-61.0-2.8,FALSE,TRUE,FALSE,FALSE,"""event"",""trial"",""time""
""fullscreenenter"",""5"",""15383""
","
","
","""event"",""trial"",""time""
""fullscreenenter"",""5"",""15383""
","
",NA,images/earth.jpg,NA,NA,NA,NA,NA,NA,NA,NA,NA,NA,NA,NA,NA,fixation,NA,NA,NA,NA,NA,NA,sub71
d3-animate-choice,88,395182,0.0-61.0-0.9,FALSE,TRUE,FALSE,FALSE,"""event"",""trial"",""time""
""fullscreenenter"",""5"",""15383""
","
","
","""event"",""trial"",""time""
""fullscreenenter"",""5"",""15383""
","
",339,NA,49,NA,NA,3000,1,NA,NA,images/earth.jpg,images/tutrocket1,images/tutrocket2,null,images/tutrocket2,NA,1,practice,null,1,NA,NA,NA,sub71
d3-animate-choice,89,398094,0.0-61.0-1.9,FALSE,TRUE,FALSE,FALSE,"""event"",""trial"",""time""
""fullscreenenter"",""5"",""15383""
","
","
","""event"",""trial"",""time""
""fullscreenenter"",""5"",""15383""
","
",909.0000000000582,NA,48,NA,NA,3000,1,NA,NA,images/tutyellowplanet.jpg,images/tutalien4,images/tutalien3,images/tutrocket2,images/tutalien4,images/nothing.png,2,practice,true,2,common,0,2020-06-16T17:53:49Z,sub71
two-step-fixation,90,399096,0.0-61.0-2.9,FALSE,TRUE,FALSE,FALSE,"""event"",""trial"",""time""
""fullscreenenter"",""5"",""15383""
","
","
","""event"",""trial"",""time""
""fullscreenenter"",""5"",""15383""
","
",NA,images/earth.jpg,NA,NA,NA,NA,NA,NA,NA,NA,NA,NA,NA,NA,NA,fixation,NA,NA,NA,NA,NA,NA,sub71
d3-animate-choice,91,401414,0.0-61.0-0.10,FALSE,TRUE,FALSE,FALSE,"""event"",""trial"",""time""
""fullscreenenter"",""5"",""15383""
","
","
","""event"",""trial"",""time""
""fullscreenenter"",""5"",""15383""
","
",315,NA,49,NA,NA,3000,1,NA,NA,images/earth.jpg,images/tutrocket1,images/tutrocket2,null,images/tutrocket2,NA,1,practice,null,1,NA,NA,NA,sub71
d3-animate-choice,92,404166,0.0-61.0-1.10,FALSE,TRUE,FALSE,FALSE,"""event"",""trial"",""time""
""fullscreenenter"",""5"",""15383""
","
","
","""event"",""trial"",""time""
""fullscreenenter"",""5"",""15383""
","
",749.0000000000582,NA,48,NA,NA,3000,1,NA,NA,images/tutyellowplanet.jpg,images/tutalien4,images/tutalien3,images/tutrocket2,images/tutalien4,images/t.png,2,practice,true,2,common,1,2020-06-16T17:53:55Z,sub71
two-step-fixation,93,405167,0.0-61.0-2.10,FALSE,TRUE,FALSE,FALSE,"""event"",""trial"",""time""
""fullscreenenter"",""5"",""15383""
","
","
","""event"",""trial"",""time""
""fullscreenenter"",""5"",""15383""
","
",NA,images/earth.jpg,NA,NA,NA,NA,NA,NA,NA,NA,NA,NA,NA,NA,NA,fixation,NA,NA,NA,NA,NA,NA,sub71
d3-animate-choice,94,408015,0.0-61.0-0.11,FALSE,TRUE,FALSE,FALSE,"""event"",""trial"",""time""
""fullscreenenter"",""5"",""15383""
","
","
","""event"",""trial"",""time""
""fullscreenenter"",""5"",""15383""
","
",845,NA,48,NA,NA,3000,1,NA,NA,images/earth.jpg,images/tutrocket1,images/tutrocket2,null,images/tutrocket1,NA,1,practice,null,2,NA,NA,NA,sub71
d3-animate-choice,95,410422,0.0-61.0-1.11,FALSE,TRUE,FALSE,FALSE,"""event"",""trial"",""time""
""fullscreenenter"",""5"",""15383""
","
","
","""event"",""trial"",""time""
""fullscreenenter"",""5"",""15383""
","
",404.9999999999418,NA,49,NA,NA,3000,1,NA,NA,images/tutyellowplanet.jpg,images/tutalien4,images/tutalien3,images/tutrocket1,images/tutalien3,images/nothing.png,2,practice,false,1,rare,0,2020-06-16T17:54:02Z,sub71
two-step-fixation,96,411423,0.0-61.0-2.11,FALSE,TRUE,FALSE,FALSE,"""event"",""trial"",""time""
""fullscreenenter"",""5"",""15383""
","
","
","""event"",""trial"",""time""
""fullscreenenter"",""5"",""15383""
","
",NA,images/earth.jpg,NA,NA,NA,NA,NA,NA,NA,NA,NA,NA,NA,NA,NA,fixation,NA,NA,NA,NA,NA,NA,sub71
d3-animate-choice,97,413782,0.0-61.0-0.12,FALSE,TRUE,FALSE,FALSE,"""event"",""trial"",""time""
""fullscreenenter"",""5"",""15383""
","
","
","""event"",""trial"",""time""
""fullscreenenter"",""5"",""15383""
","
",356,NA,49,NA,NA,3000,1,NA,NA,images/earth.jpg,images/tutrocket1,images/tutrocket2,null,images/tutrocket2,NA,1,practice,null,1,NA,NA,NA,sub71
d3-animate-choice,98,416350,0.0-61.0-1.12,FALSE,TRUE,FALSE,FALSE,"""event"",""trial"",""time""
""fullscreenenter"",""5"",""15383""
","
","
","""event"",""trial"",""time""
""fullscreenenter"",""5"",""15383""
","
",565,NA,48,NA,NA,3000,1,NA,NA,images/tutyellowplanet.jpg,images/tutalien4,images/tutalien3,images/tutrocket2,images/tutalien4,images/t.png,2,practice,true,2,common,1,2020-06-16T17:54:08Z,sub71
two-step-fixation,99,417352,0.0-61.0-2.12,FALSE,TRUE,FALSE,FALSE,"""event"",""trial"",""time""
""fullscreenenter"",""5"",""15383""
","
","
","""event"",""trial"",""time""
""fullscreenenter"",""5"",""15383""
","
",NA,images/earth.jpg,NA,NA,NA,NA,NA,NA,NA,NA,NA,NA,NA,NA,NA,fixation,NA,NA,NA,NA,NA,NA,sub71
d3-animate-choice,100,419750,0.0-61.0-0.13,FALSE,TRUE,FALSE,FALSE,"""event"",""trial"",""time""
""fullscreenenter"",""5"",""15383""
","
","
","""event"",""trial"",""time""
""fullscreenenter"",""5"",""15383""
","
",395,NA,49,NA,NA,3000,1,NA,NA,images/earth.jpg,images/tutrocket1,images/tutrocket2,null,images/tutrocket2,NA,1,practice,null,1,NA,NA,NA,sub71
d3-animate-choice,101,423398,0.0-61.0-1.13,FALSE,TRUE,FALSE,FALSE,"""event"",""trial"",""time""
""fullscreenenter"",""5"",""15383""
","
","
","""event"",""trial"",""time""
""fullscreenenter"",""5"",""15383""
","
",1645,NA,48,NA,NA,3000,1,NA,NA,images/tutgreenplanet.jpg,images/tutalien2,images/tutalien1,images/tutrocket2,images/tutalien2,images/t.png,2,practice,false,2,rare,1,2020-06-16T17:54:15Z,sub71
two-step-fixation,102,424400,0.0-61.0-2.13,FALSE,TRUE,FALSE,FALSE,"""event"",""trial"",""time""
""fullscreenenter"",""5"",""15383""
","
","
","""event"",""trial"",""time""
""fullscreenenter"",""5"",""15383""
","
",NA,images/earth.jpg,NA,NA,NA,NA,NA,NA,NA,NA,NA,NA,NA,NA,NA,fixation,NA,NA,NA,NA,NA,NA,sub71
d3-animate-choice,103,426757,0.0-61.0-0.14,FALSE,TRUE,FALSE,FALSE,"""event"",""trial"",""time""
""fullscreenenter"",""5"",""15383""
","
","
","""event"",""trial"",""time""
""fullscreenenter"",""5"",""15383""
","
",355,NA,49,NA,NA,3000,1,NA,NA,images/earth.jpg,images/tutrocket1,images/tutrocket2,null,images/tutrocket2,NA,1,practice,null,1,NA,NA,NA,sub71
d3-animate-choice,104,429214,0.0-61.0-1.14,FALSE,TRUE,FALSE,FALSE,"""event"",""trial"",""time""
""fullscreenenter"",""5"",""15383""
","
","
","""event"",""trial"",""time""
""fullscreenenter"",""5"",""15383""
","
",455,NA,48,NA,NA,3000,1,NA,NA,images/tutyellowplanet.jpg,images/tutalien4,images/tutalien3,images/tutrocket2,images/tutalien4,images/t.png,2,practice,true,2,common,1,2020-06-16T17:54:21Z,sub71
two-step-fixation,105,430216,0.0-61.0-2.14,FALSE,TRUE,FALSE,FALSE,"""event"",""trial"",""time""
""fullscreenenter"",""5"",""15383""
","
","
","""event"",""trial"",""time""
""fullscreenenter"",""5"",""15383""
","
",NA,images/earth.jpg,NA,NA,NA,NA,NA,NA,NA,NA,NA,NA,NA,NA,NA,fixation,NA,NA,NA,NA,NA,NA,sub71
d3-animate-choice,106,432541,0.0-61.0-0.15,FALSE,TRUE,FALSE,FALSE,"""event"",""trial"",""time""
""fullscreenenter"",""5"",""15383""
","
","
","""event"",""trial"",""time""
""fullscreenenter"",""5"",""15383""
","
",322.9999999999418,NA,48,NA,NA,3000,1,NA,NA,images/earth.jpg,images/tutrocket1,images/tutrocket2,null,images/tutrocket1,NA,1,practice,null,2,NA,NA,NA,sub71
d3-animate-choice,107,435557,0.0-61.0-1.15,FALSE,TRUE,FALSE,FALSE,"""event"",""trial"",""time""
""fullscreenenter"",""5"",""15383""
","
","
","""event"",""trial"",""time""
""fullscreenenter"",""5"",""15383""
","
",1014.0000000000582,NA,48,NA,NA,3000,1,NA,NA,images/tutyellowplanet.jpg,images/tutalien4,images/tutalien3,images/tutrocket1,images/tutalien4,images/nothing.png,2,practice,false,2,rare,0,2020-06-16T17:54:27Z,sub71
two-step-fixation,108,436558,0.0-61.0-2.15,FALSE,TRUE,FALSE,FALSE,"""event"",""trial"",""time""
""fullscreenenter"",""5"",""15383""
","
","
","""event"",""trial"",""time""
""fullscreenenter"",""5"",""15383""
","
",NA,images/earth.jpg,NA,NA,NA,NA,NA,NA,NA,NA,NA,NA,NA,NA,NA,fixation,NA,NA,NA,NA,NA,NA,sub71
d3-animate-choice,109,438886,0.0-61.0-0.16,FALSE,TRUE,FALSE,FALSE,"""event"",""trial"",""time""
""fullscreenenter"",""5"",""15383""
","
","
","""event"",""trial"",""time""
""fullscreenenter"",""5"",""15383""
","
",325,NA,49,NA,NA,3000,1,NA,NA,images/earth.jpg,images/tutrocket1,images/tutrocket2,null,images/tutrocket2,NA,1,practice,null,1,NA,NA,NA,sub71
d3-animate-choice,110,441246,0.0-61.0-1.16,FALSE,TRUE,FALSE,FALSE,"""event"",""trial"",""time""
""fullscreenenter"",""5"",""15383""
","
","
","""event"",""trial"",""time""
""fullscreenenter"",""5"",""15383""
","
",357,NA,48,NA,NA,3000,1,NA,NA,images/tutgreenplanet.jpg,images/tutalien2,images/tutalien1,images/tutrocket2,images/tutalien2,images/t.png,2,practice,false,2,rare,1,2020-06-16T17:54:33Z,sub71
two-step-fixation,111,442247,0.0-61.0-2.16,FALSE,TRUE,FALSE,FALSE,"""event"",""trial"",""time""
""fullscreenenter"",""5"",""15383""
","
","
","""event"",""trial"",""time""
""fullscreenenter"",""5"",""15383""
","
",NA,images/earth.jpg,NA,NA,NA,NA,NA,NA,NA,NA,NA,NA,NA,NA,NA,fixation,NA,NA,NA,NA,NA,NA,sub71
d3-animate-choice,112,444565,0.0-61.0-0.17,FALSE,TRUE,FALSE,FALSE,"""event"",""trial"",""time""
""fullscreenenter"",""5"",""15383""
","
","
","""event"",""trial"",""time""
""fullscreenenter"",""5"",""15383""
","
",315.9999999999418,NA,49,NA,NA,3000,1,NA,NA,images/earth.jpg,images/tutrocket1,images/tutrocket2,null,images/tutrocket2,NA,1,practice,null,1,NA,NA,NA,sub71
d3-animate-choice,113,447245,0.0-61.0-1.17,FALSE,TRUE,FALSE,FALSE,"""event"",""trial"",""time""
""fullscreenenter"",""5"",""15383""
","
","
","""event"",""trial"",""time""
""fullscreenenter"",""5"",""15383""
","
",679,NA,48,NA,NA,3000,1,NA,NA,images/tutyellowplanet.jpg,images/tutalien4,images/tutalien3,images/tutrocket2,images/tutalien4,images/nothing.png,2,practice,true,2,common,0,2020-06-16T17:54:39Z,sub71
two-step-fixation,114,448247,0.0-61.0-2.17,FALSE,TRUE,FALSE,FALSE,"""event"",""trial"",""time""
""fullscreenenter"",""5"",""15383""
","
","
","""event"",""trial"",""time""
""fullscreenenter"",""5"",""15383""
","
",NA,images/earth.jpg,NA,NA,NA,NA,NA,NA,NA,NA,NA,NA,NA,NA,NA,fixation,NA,NA,NA,NA,NA,NA,sub71
d3-animate-choice,115,450573,0.0-61.0-0.18,FALSE,TRUE,FALSE,FALSE,"""event"",""trial"",""time""
""fullscreenenter"",""5"",""15383""
","
","
","""event"",""trial"",""time""
""fullscreenenter"",""5"",""15383""
","
",323.9999999999418,NA,49,NA,NA,3000,1,NA,NA,images/earth.jpg,images/tutrocket1,images/tutrocket2,null,images/tutrocket2,NA,1,practice,null,1,NA,NA,NA,sub71
d3-animate-choice,116,452941,0.0-61.0-1.18,FALSE,TRUE,FALSE,FALSE,"""event"",""trial"",""time""
""fullscreenenter"",""5"",""15383""
","
","
","""event"",""trial"",""time""
""fullscreenenter"",""5"",""15383""
","
",367,NA,48,NA,NA,3000,1,NA,NA,images/tutyellowplanet.jpg,images/tutalien4,images/tutalien3,images/tutrocket2,images/tutalien4,images/t.png,2,practice,true,2,common,1,2020-06-16T17:54:44Z,sub71
two-step-fixation,117,453943,0.0-61.0-2.18,FALSE,TRUE,FALSE,FALSE,"""event"",""trial"",""time""
""fullscreenenter"",""5"",""15383""
","
","
","""event"",""trial"",""time""
""fullscreenenter"",""5"",""15383""
","
",NA,images/earth.jpg,NA,NA,NA,NA,NA,NA,NA,NA,NA,NA,NA,NA,NA,fixation,NA,NA,NA,NA,NA,NA,sub71
d3-animate-choice,118,456253,0.0-61.0-0.19,FALSE,TRUE,FALSE,FALSE,"""event"",""trial"",""time""
""fullscreenenter"",""5"",""15383""
","
","
","""event"",""trial"",""time""
""fullscreenenter"",""5"",""15383""
","
",308,NA,49,NA,NA,3000,1,NA,NA,images/earth.jpg,images/tutrocket1,images/tutrocket2,null,images/tutrocket2,NA,1,practice,null,1,NA,NA,NA,sub71
d3-animate-choice,119,458694,0.0-61.0-1.19,FALSE,TRUE,FALSE,FALSE,"""event"",""trial"",""time""
""fullscreenenter"",""5"",""15383""
","
","
","""event"",""trial"",""time""
""fullscreenenter"",""5"",""15383""
","
",438,NA,48,NA,NA,3000,1,NA,NA,images/tutyellowplanet.jpg,images/tutalien4,images/tutalien3,images/tutrocket2,images/tutalien4,images/t.png,2,practice,true,2,common,1,2020-06-16T17:54:50Z,sub71
two-step-fixation,120,459695,0.0-61.0-2.19,FALSE,TRUE,FALSE,FALSE,"""event"",""trial"",""time""
""fullscreenenter"",""5"",""15383""
","
","
","""event"",""trial"",""time""
""fullscreenenter"",""5"",""15383""
","
",NA,images/earth.jpg,NA,NA,NA,NA,NA,NA,NA,NA,NA,NA,NA,NA,NA,fixation,NA,NA,NA,NA,NA,NA,sub71
d3-instructions,121,465636,0.0-62.0,FALSE,TRUE,FALSE,FALSE,"""event"",""trial"",""time""
""fullscreenenter"",""5"",""15383""
","
","
","""event"",""trial"",""time""
""fullscreenenter"",""5"",""15383""
","
",NA,NA,NA,NA,NA,NA,NA,NA,NA,NA,NA,NA,NA,NA,NA,NA,NA,NA,NA,NA,NA,NA,sub71
audio-keyboard-response,122,471620,0.0-63.0,FALSE,TRUE,FALSE,FALSE,"""event"",""trial"",""time""
""fullscreenenter"",""5"",""15383""
","
","
","""event"",""trial"",""time""
""fullscreenenter"",""5"",""15383""
","
",5985,audio/instructions/treasure_feedback.wav,32,NA,NA,NA,NA,NA,NA,NA,NA,NA,NA,NA,NA,NA,NA,NA,NA,NA,NA,NA,sub71
d3-instructions,123,489260,0.0-64.0,FALSE,TRUE,FALSE,FALSE,"""event"",""trial"",""time""
""fullscreenenter"",""5"",""15383""
","
","
","""event"",""trial"",""time""
""fullscreenenter"",""5"",""15383""
","
",NA,NA,NA,NA,NA,NA,NA,NA,NA,NA,NA,NA,NA,NA,NA,NA,NA,NA,NA,NA,NA,NA,sub71
d3-instructions,124,496756,0.0-65.0,FALSE,TRUE,FALSE,FALSE,"""event"",""trial"",""time""
""fullscreenenter"",""5"",""15383""
","
","
","""event"",""trial"",""time""
""fullscreenenter"",""5"",""15383""
","
",NA,NA,NA,NA,NA,NA,NA,NA,NA,NA,NA,NA,NA,NA,NA,NA,NA,NA,NA,NA,NA,NA,sub71
d3-instructions,125,509068,0.0-66.0,FALSE,TRUE,FALSE,FALSE,"""event"",""trial"",""time""
""fullscreenenter"",""5"",""15383""
","
","
","""event"",""trial"",""time""
""fullscreenenter"",""5"",""15383""
","
",NA,NA,NA,NA,NA,NA,NA,NA,NA,NA,NA,NA,NA,NA,NA,NA,NA,NA,NA,NA,NA,NA,sub71
d3-instructions,126,519515,0.0-67.0,FALSE,TRUE,FALSE,FALSE,"""event"",""trial"",""time""
""fullscreenenter"",""5"",""15383""
","
","
","""event"",""trial"",""time""
""fullscreenenter"",""5"",""15383""
","
",NA,NA,NA,NA,NA,NA,NA,NA,NA,NA,NA,NA,NA,NA,NA,NA,NA,NA,NA,NA,NA,NA,sub71
d3-instructions,127,522388,0.0-68.0,FALSE,TRUE,FALSE,FALSE,"""event"",""trial"",""time""
""fullscreenenter"",""5"",""15383""
","
","
","""event"",""trial"",""time""
""fullscreenenter"",""5"",""15383""
","
",NA,NA,NA,NA,NA,NA,NA,NA,NA,NA,NA,NA,NA,NA,NA,NA,NA,NA,NA,NA,NA,NA,sub71
instructions-quiz,128,524517,0.0-69.0,FALSE,TRUE,FALSE,FALSE,"""event"",""trial"",""time""
""fullscreenenter"",""5"",""15383""
","
","
","""event"",""trial"",""time""
""fullscreenenter"",""5"",""15383""
","
",2128,audio/quiz/Q1_Prompt.wav,NA,1,NA,NA,NA,NA,NA,NA,NA,NA,NA,NA,NA,NA,NA,NA,NA,NA,NA,NA,sub71
audio-keyboard-response,129,533686,0.0-70.0,FALSE,TRUE,FALSE,FALSE,"""event"",""trial"",""time""
""fullscreenenter"",""5"",""15383""
","
","
","""event"",""trial"",""time""
""fullscreenenter"",""5"",""15383""
","
",null,audio/quiz/Q1_Correct.wav,null,NA,NA,NA,NA,NA,NA,NA,NA,NA,NA,NA,NA,NA,NA,NA,NA,NA,NA,NA,sub71
instructions-quiz,130,536988,0.0-71.0,FALSE,TRUE,FALSE,FALSE,"""event"",""trial"",""time""
""fullscreenenter"",""5"",""15383""
","
","
","""event"",""trial"",""time""
""fullscreenenter"",""5"",""15383""
","
",3301,audio/quiz/Q2_Prompt.wav,NA,0,NA,NA,NA,NA,NA,NA,NA,NA,NA,NA,NA,NA,NA,NA,NA,NA,NA,NA,sub71
audio-keyboard-response,131,549859,0.0-72.0,FALSE,TRUE,FALSE,FALSE,"""event"",""trial"",""time""
""fullscreenenter"",""5"",""15383""
","
","
","""event"",""trial"",""time""
""fullscreenenter"",""5"",""15383""
","
",null,audio/quiz/Q2_Correct.wav,null,NA,NA,NA,NA,NA,NA,NA,NA,NA,NA,NA,NA,NA,NA,NA,NA,NA,NA,NA,sub71
instructions-quiz,132,551956,0.0-73.0,FALSE,TRUE,FALSE,FALSE,"""event"",""trial"",""time""
""fullscreenenter"",""5"",""15383""
","
","
","""event"",""trial"",""time""
""fullscreenenter"",""5"",""15383""
","
",2097,audio/quiz/Q3_Prompt.wav,NA,1,NA,NA,NA,NA,NA,NA,NA,NA,NA,NA,NA,NA,NA,NA,NA,NA,NA,NA,sub71
audio-keyboard-response,133,557753,0.0-74.0,FALSE,TRUE,FALSE,FALSE,"""event"",""trial"",""time""
""fullscreenenter"",""5"",""15383""
","
","
","""event"",""trial"",""time""
""fullscreenenter"",""5"",""15383""
","
",null,audio/quiz/Q3_Correct.wav,null,NA,NA,NA,NA,NA,NA,NA,NA,NA,NA,NA,NA,NA,NA,NA,NA,NA,NA,NA,sub71
d3-instructions,134,572947,0.0-75.0,FALSE,TRUE,FALSE,FALSE,"""event"",""trial"",""time""
""fullscreenenter"",""5"",""15383""
","
","
","""event"",""trial"",""time""
""fullscreenenter"",""5"",""15383""
","
",NA,NA,NA,NA,NA,NA,NA,NA,NA,NA,NA,NA,NA,NA,NA,NA,NA,NA,NA,NA,NA,NA,sub71
d3-animate-choice,135,576004,0.0-76.0-0.0,FALSE,TRUE,FALSE,FALSE,"""event"",""trial"",""time""
""fullscreenenter"",""5"",""15383""
","
","
","""event"",""trial"",""time""
""fullscreenenter"",""5"",""15383""
","
",1054.0000000001164,NA,49,NA,NA,3000,1,NA,NA,images/earth.jpg,images/rocket1,images/rocket2,null,images/rocket2,NA,1,real,null,1,NA,NA,NA,sub71
d3-animate-choice,136,578771,0.0-76.0-1.0,FALSE,TRUE,FALSE,FALSE,"""event"",""trial"",""time""
""fullscreenenter"",""5"",""15383""
","
","
","""event"",""trial"",""time""
""fullscreenenter"",""5"",""15383""
","
",765,NA,48,NA,NA,3000,1,NA,NA,images/purpleplanet.jpg,images/alien4,images/alien3,images/rocket2,images/alien4,images/nothing.png,2,real,true,2,common,0,2020-06-16T17:56:50Z,sub71
two-step-fixation,137,579773,0.0-76.0-2.0,FALSE,TRUE,FALSE,FALSE,"""event"",""trial"",""time""
""fullscreenenter"",""5"",""15383""
","
","
","""event"",""trial"",""time""
""fullscreenenter"",""5"",""15383""
","
",NA,images/earth.jpg,NA,NA,NA,NA,NA,NA,NA,NA,NA,NA,NA,NA,NA,fixation,NA,NA,NA,NA,NA,NA,sub71
d3-animate-choice,138,582124,0.0-76.0-0.1,FALSE,TRUE,FALSE,FALSE,"""event"",""trial"",""time""
""fullscreenenter"",""5"",""15383""
","
","
","""event"",""trial"",""time""
""fullscreenenter"",""5"",""15383""
","
",349,NA,49,NA,NA,3000,1,NA,NA,images/earth.jpg,images/rocket1,images/rocket2,null,images/rocket2,NA,1,real,null,1,NA,NA,NA,sub71
d3-animate-choice,139,584788,0.0-76.0-1.1,FALSE,TRUE,FALSE,FALSE,"""event"",""trial"",""time""
""fullscreenenter"",""5"",""15383""
","
","
","""event"",""trial"",""time""
""fullscreenenter"",""5"",""15383""
","
",661,NA,49,NA,NA,3000,1,NA,NA,images/redplanet1.jpg,images/alien2,images/alien1,images/rocket2,images/alien1,images/t.png,2,real,false,1,rare,1,2020-06-16T17:56:56Z,sub71
two-step-fixation,140,585790,0.0-76.0-2.1,FALSE,TRUE,FALSE,FALSE,"""event"",""trial"",""time""
""fullscreenenter"",""5"",""15383""
","
","
","""event"",""trial"",""time""
""fullscreenenter"",""5"",""15383""
","
",NA,images/earth.jpg,NA,NA,NA,NA,NA,NA,NA,NA,NA,NA,NA,NA,NA,fixation,NA,NA,NA,NA,NA,NA,sub71
d3-animate-choice,141,588092,0.0-76.0-0.2,FALSE,TRUE,FALSE,FALSE,"""event"",""trial"",""time""
""fullscreenenter"",""5"",""15383""
","
","
","""event"",""trial"",""time""
""fullscreenenter"",""5"",""15383""
","
",300,NA,49,NA,NA,3000,1,NA,NA,images/earth.jpg,images/rocket1,images/rocket2,null,images/rocket2,NA,1,real,null,1,NA,NA,NA,sub71
d3-animate-choice,142,591052,0.0-76.0-1.2,FALSE,TRUE,FALSE,FALSE,"""event"",""trial"",""time""
""fullscreenenter"",""5"",""15383""
","
","
","""event"",""trial"",""time""
""fullscreenenter"",""5"",""15383""
","
",957.0000000001164,NA,48,NA,NA,3000,1,NA,NA,images/purpleplanet.jpg,images/alien4,images/alien3,images/rocket2,images/alien4,images/nothing.png,2,real,true,2,common,0,2020-06-16T17:57:02Z,sub71
two-step-fixation,143,592054,0.0-76.0-2.2,FALSE,TRUE,FALSE,FALSE,"""event"",""trial"",""time""
""fullscreenenter"",""5"",""15383""
","
","
","""event"",""trial"",""time""
""fullscreenenter"",""5"",""15383""
","
",NA,images/earth.jpg,NA,NA,NA,NA,NA,NA,NA,NA,NA,NA,NA,NA,NA,fixation,NA,NA,NA,NA,NA,NA,sub71
d3-animate-choice,144,594348,0.0-76.0-0.3,FALSE,TRUE,FALSE,FALSE,"""event"",""trial"",""time""
""fullscreenenter"",""5"",""15383""
","
","
","""event"",""trial"",""time""
""fullscreenenter"",""5"",""15383""
","
",290.9999999998836,NA,49,NA,NA,3000,1,NA,NA,images/earth.jpg,images/rocket1,images/rocket2,null,images/rocket2,NA,1,real,null,1,NA,NA,NA,sub71
d3-animate-choice,145,597099,0.0-76.0-1.3,FALSE,TRUE,FALSE,FALSE,"""event"",""trial"",""time""
""fullscreenenter"",""5"",""15383""
","
","
","""event"",""trial"",""time""
""fullscreenenter"",""5"",""15383""
","
",749,NA,49,NA,NA,3000,1,NA,NA,images/purpleplanet.jpg,images/alien4,images/alien3,images/rocket2,images/alien3,images/nothing.png,2,real,true,1,common,0,2020-06-16T17:57:08Z,sub71
two-step-fixation,146,598101,0.0-76.0-2.3,FALSE,TRUE,FALSE,FALSE,"""event"",""trial"",""time""
""fullscreenenter"",""5"",""15383""
","
","
","""event"",""trial"",""time""
""fullscreenenter"",""5"",""15383""
","
",NA,images/earth.jpg,NA,NA,NA,NA,NA,NA,NA,NA,NA,NA,NA,NA,NA,fixation,NA,NA,NA,NA,NA,NA,sub71
d3-animate-choice,147,600388,0.0-76.0-0.4,FALSE,TRUE,FALSE,FALSE,"""event"",""trial"",""time""
""fullscreenenter"",""5"",""15383""
","
","
","""event"",""trial"",""time""
""fullscreenenter"",""5"",""15383""
","
",286,NA,48,NA,NA,3000,1,NA,NA,images/earth.jpg,images/rocket1,images/rocket2,null,images/rocket1,NA,1,real,null,2,NA,NA,NA,sub71
d3-animate-choice,148,603460,0.0-76.0-1.4,FALSE,TRUE,FALSE,FALSE,"""event"",""trial"",""time""
""fullscreenenter"",""5"",""15383""
","
","
","""event"",""trial"",""time""
""fullscreenenter"",""5"",""15383""
","
",1069,NA,49,NA,NA,3000,1,NA,NA,images/redplanet1.jpg,images/alien2,images/alien1,images/rocket1,images/alien1,images/nothing.png,2,real,true,1,common,0,2020-06-16T17:57:15Z,sub71
two-step-fixation,149,604462,0.0-76.0-2.4,FALSE,TRUE,FALSE,FALSE,"""event"",""trial"",""time""
""fullscreenenter"",""5"",""15383""
","
","
","""event"",""trial"",""time""
""fullscreenenter"",""5"",""15383""
","
",NA,images/earth.jpg,NA,NA,NA,NA,NA,NA,NA,NA,NA,NA,NA,NA,NA,fixation,NA,NA,NA,NA,NA,NA,sub71
d3-animate-choice,150,607380,0.0-76.0-0.5,FALSE,TRUE,FALSE,FALSE,"""event"",""trial"",""time""
""fullscreenenter"",""5"",""15383""
","
","
","""event"",""trial"",""time""
""fullscreenenter"",""5"",""15383""
","
",915,NA,48,NA,NA,3000,1,NA,NA,images/earth.jpg,images/rocket1,images/rocket2,null,images/rocket1,NA,1,real,null,2,NA,NA,NA,sub71
d3-animate-choice,151,609819,0.0-76.0-1.5,FALSE,TRUE,FALSE,FALSE,"""event"",""trial"",""time""
""fullscreenenter"",""5"",""15383""
","
","
","""event"",""trial"",""time""
""fullscreenenter"",""5"",""15383""
","
",437,NA,48,NA,NA,3000,1,NA,NA,images/redplanet1.jpg,images/alien2,images/alien1,images/rocket1,images/alien2,images/t.png,2,real,true,2,common,1,2020-06-16T17:57:21Z,sub71
two-step-fixation,152,610821,0.0-76.0-2.5,FALSE,TRUE,FALSE,FALSE,"""event"",""trial"",""time""
""fullscreenenter"",""5"",""15383""
","
","
","""event"",""trial"",""time""
""fullscreenenter"",""5"",""15383""
","
",NA,images/earth.jpg,NA,NA,NA,NA,NA,NA,NA,NA,NA,NA,NA,NA,NA,fixation,NA,NA,NA,NA,NA,NA,sub71
d3-animate-choice,153,613179,0.0-76.0-0.6,FALSE,TRUE,FALSE,FALSE,"""event"",""trial"",""time""
""fullscreenenter"",""5"",""15383""
","
","
","""event"",""trial"",""time""
""fullscreenenter"",""5"",""15383""
","
",356,NA,48,NA,NA,3000,1,NA,NA,images/earth.jpg,images/rocket1,images/rocket2,null,images/rocket1,NA,1,real,null,2,NA,NA,NA,sub71
d3-animate-choice,154,616171,0.0-76.0-1.6,FALSE,TRUE,FALSE,FALSE,"""event"",""trial"",""time""
""fullscreenenter"",""5"",""15383""
","
","
","""event"",""trial"",""time""
""fullscreenenter"",""5"",""15383""
","
",989.9999999998836,NA,49,NA,NA,3000,1,NA,NA,images/purpleplanet.jpg,images/alien4,images/alien3,images/rocket1,images/alien3,images/nothing.png,2,real,false,1,rare,0,2020-06-16T17:57:27Z,sub71
two-step-fixation,155,617173,0.0-76.0-2.6,FALSE,TRUE,FALSE,FALSE,"""event"",""trial"",""time""
""fullscreenenter"",""5"",""15383""
","
","
","""event"",""trial"",""time""
""fullscreenenter"",""5"",""15383""
","
",NA,images/earth.jpg,NA,NA,NA,NA,NA,NA,NA,NA,NA,NA,NA,NA,NA,fixation,NA,NA,NA,NA,NA,NA,sub71
d3-animate-choice,156,619444,0.0-76.0-0.7,FALSE,TRUE,FALSE,FALSE,"""event"",""trial"",""time""
""fullscreenenter"",""5"",""15383""
","
","
","""event"",""trial"",""time""
""fullscreenenter"",""5"",""15383""
","
",268,NA,48,NA,NA,3000,1,NA,NA,images/earth.jpg,images/rocket1,images/rocket2,null,images/rocket1,NA,1,real,null,2,NA,NA,NA,sub71
d3-animate-choice,157,621836,0.0-76.0-1.7,FALSE,TRUE,FALSE,FALSE,"""event"",""trial"",""time""
""fullscreenenter"",""5"",""15383""
","
","
","""event"",""trial"",""time""
""fullscreenenter"",""5"",""15383""
","
",389.0000000001164,NA,48,NA,NA,3000,1,NA,NA,images/purpleplanet.jpg,images/alien4,images/alien3,images/rocket1,images/alien4,images/t.png,2,real,false,2,rare,1,2020-06-16T17:57:33Z,sub71
two-step-fixation,158,622838,0.0-76.0-2.7,FALSE,TRUE,FALSE,FALSE,"""event"",""trial"",""time""
""fullscreenenter"",""5"",""15383""
","
","
","""event"",""trial"",""time""
""fullscreenenter"",""5"",""15383""
","
",NA,images/earth.jpg,NA,NA,NA,NA,NA,NA,NA,NA,NA,NA,NA,NA,NA,fixation,NA,NA,NA,NA,NA,NA,sub71
d3-animate-choice,159,625147,0.0-76.0-0.8,FALSE,TRUE,FALSE,FALSE,"""event"",""trial"",""time""
""fullscreenenter"",""5"",""15383""
","
","
","""event"",""trial"",""time""
""fullscreenenter"",""5"",""15383""
","
",307,NA,48,NA,NA,3000,1,NA,NA,images/earth.jpg,images/rocket1,images/rocket2,null,images/rocket1,NA,1,real,null,2,NA,NA,NA,sub71
d3-animate-choice,160,627539,0.0-76.0-1.8,FALSE,TRUE,FALSE,FALSE,"""event"",""trial"",""time""
""fullscreenenter"",""5"",""15383""
","
","
","""event"",""trial"",""time""
""fullscreenenter"",""5"",""15383""
","
",389,NA,48,NA,NA,3000,1,NA,NA,images/redplanet1.jpg,images/alien2,images/alien1,images/rocket1,images/alien2,images/t.png,2,real,true,2,common,1,2020-06-16T17:57:39Z,sub71
two-step-fixation,161,628541,0.0-76.0-2.8,FALSE,TRUE,FALSE,FALSE,"""event"",""trial"",""time""
""fullscreenenter"",""5"",""15383""
","
","
","""event"",""trial"",""time""
""fullscreenenter"",""5"",""15383""
","
",NA,images/earth.jpg,NA,NA,NA,NA,NA,NA,NA,NA,NA,NA,NA,NA,NA,fixation,NA,NA,NA,NA,NA,NA,sub71
d3-animate-choice,162,630843,0.0-76.0-0.9,FALSE,TRUE,FALSE,FALSE,"""event"",""trial"",""time""
""fullscreenenter"",""5"",""15383""
","
","
","""event"",""trial"",""time""
""fullscreenenter"",""5"",""15383""
","
",300,NA,48,NA,NA,3000,1,NA,NA,images/earth.jpg,images/rocket1,images/rocket2,null,images/rocket1,NA,1,real,null,2,NA,NA,NA,sub71
d3-animate-choice,163,633540,0.0-76.0-1.9,FALSE,TRUE,FALSE,FALSE,"""event"",""trial"",""time""
""fullscreenenter"",""5"",""15383""
","
","
","""event"",""trial"",""time""
""fullscreenenter"",""5"",""15383""
","
",693,NA,48,NA,NA,3000,1,NA,NA,images/purpleplanet.jpg,images/alien4,images/alien3,images/rocket1,images/alien4,images/nothing.png,2,real,false,2,rare,0,2020-06-16T17:57:45Z,sub71
two-step-fixation,164,634541,0.0-76.0-2.9,FALSE,TRUE,FALSE,FALSE,"""event"",""trial"",""time""
""fullscreenenter"",""5"",""15383""
","
","
","""event"",""trial"",""time""
""fullscreenenter"",""5"",""15383""
","
",NA,images/earth.jpg,NA,NA,NA,NA,NA,NA,NA,NA,NA,NA,NA,NA,NA,fixation,NA,NA,NA,NA,NA,NA,sub71
d3-animate-choice,165,636827,0.0-76.0-0.10,FALSE,TRUE,FALSE,FALSE,"""event"",""trial"",""time""
""fullscreenenter"",""5"",""15383""
","
","
","""event"",""trial"",""time""
""fullscreenenter"",""5"",""15383""
","
",285,NA,48,NA,NA,3000,1,NA,NA,images/earth.jpg,images/rocket1,images/rocket2,null,images/rocket1,NA,1,real,null,2,NA,NA,NA,sub71
d3-animate-choice,166,639283,0.0-76.0-1.10,FALSE,TRUE,FALSE,FALSE,"""event"",""trial"",""time""
""fullscreenenter"",""5"",""15383""
","
","
","""event"",""trial"",""time""
""fullscreenenter"",""5"",""15383""
","
",454,NA,48,NA,NA,3000,1,NA,NA,images/redplanet1.jpg,images/alien2,images/alien1,images/rocket1,images/alien2,images/t.png,2,real,true,2,common,1,2020-06-16T17:57:51Z,sub71
two-step-fixation,167,640285,0.0-76.0-2.10,FALSE,TRUE,FALSE,FALSE,"""event"",""trial"",""time""
""fullscreenenter"",""5"",""15383""
","
","
","""event"",""trial"",""time""
""fullscreenenter"",""5"",""15383""
","
",NA,images/earth.jpg,NA,NA,NA,NA,NA,NA,NA,NA,NA,NA,NA,NA,NA,fixation,NA,NA,NA,NA,NA,NA,sub71
d3-animate-choice,168,642548,0.0-76.0-0.11,FALSE,TRUE,FALSE,FALSE,"""event"",""trial"",""time""
""fullscreenenter"",""5"",""15383""
","
","
","""event"",""trial"",""time""
""fullscreenenter"",""5"",""15383""
","
",259,NA,48,NA,NA,3000,1,NA,NA,images/earth.jpg,images/rocket1,images/rocket2,null,images/rocket1,NA,1,real,null,2,NA,NA,NA,sub71
d3-animate-choice,169,646003,0.0-76.0-1.11,FALSE,TRUE,FALSE,FALSE,"""event"",""trial"",""time""
""fullscreenenter"",""5"",""15383""
","
","
","""event"",""trial"",""time""
""fullscreenenter"",""5"",""15383""
","
",1454,NA,49,NA,NA,3000,1,NA,NA,images/purpleplanet.jpg,images/alien4,images/alien3,images/rocket1,images/alien3,images/nothing.png,2,real,false,1,rare,0,2020-06-16T17:57:57Z,sub71
two-step-fixation,170,647004,0.0-76.0-2.11,FALSE,TRUE,FALSE,FALSE,"""event"",""trial"",""time""
""fullscreenenter"",""5"",""15383""
","
","
","""event"",""trial"",""time""
""fullscreenenter"",""5"",""15383""
","
",NA,images/earth.jpg,NA,NA,NA,NA,NA,NA,NA,NA,NA,NA,NA,NA,NA,fixation,NA,NA,NA,NA,NA,NA,sub71
d3-animate-choice,171,649275,0.0-76.0-0.12,FALSE,TRUE,FALSE,FALSE,"""event"",""trial"",""time""
""fullscreenenter"",""5"",""15383""
","
","
","""event"",""trial"",""time""
""fullscreenenter"",""5"",""15383""
","
",269,NA,49,NA,NA,3000,1,NA,NA,images/earth.jpg,images/rocket1,images/rocket2,null,images/rocket2,NA,1,real,null,1,NA,NA,NA,sub71
d3-animate-choice,172,651610,0.0-76.0-1.12,FALSE,TRUE,FALSE,FALSE,"""event"",""trial"",""time""
""fullscreenenter"",""5"",""15383""
","
","
","""event"",""trial"",""time""
""fullscreenenter"",""5"",""15383""
","
",333.9999999998836,NA,48,NA,NA,3000,1,NA,NA,images/redplanet1.jpg,images/alien2,images/alien1,images/rocket2,images/alien2,images/nothing.png,2,real,false,2,rare,0,2020-06-16T17:58:03Z,sub71
two-step-fixation,173,652612,0.0-76.0-2.12,FALSE,TRUE,FALSE,FALSE,"""event"",""trial"",""time""
""fullscreenenter"",""5"",""15383""
","
","
","""event"",""trial"",""time""
""fullscreenenter"",""5"",""15383""
","
",NA,images/earth.jpg,NA,NA,NA,NA,NA,NA,NA,NA,NA,NA,NA,NA,NA,fixation,NA,NA,NA,NA,NA,NA,sub71
d3-animate-choice,174,654899,0.0-76.0-0.13,FALSE,TRUE,FALSE,FALSE,"""event"",""trial"",""time""
""fullscreenenter"",""5"",""15383""
","
","
","""event"",""trial"",""time""
""fullscreenenter"",""5"",""15383""
","
",285,NA,49,NA,NA,3000,1,NA,NA,images/earth.jpg,images/rocket1,images/rocket2,null,images/rocket2,NA,1,real,null,1,NA,NA,NA,sub71
d3-animate-choice,175,657843,0.0-76.0-1.13,FALSE,TRUE,FALSE,FALSE,"""event"",""trial"",""time""
""fullscreenenter"",""5"",""15383""
","
","
","""event"",""trial"",""time""
""fullscreenenter"",""5"",""15383""
","
",942,NA,48,NA,NA,3000,1,NA,NA,images/purpleplanet.jpg,images/alien4,images/alien3,images/rocket2,images/alien4,images/nothing.png,2,real,true,2,common,0,2020-06-16T17:58:09Z,sub71
two-step-fixation,176,658845,0.0-76.0-2.13,FALSE,TRUE,FALSE,FALSE,"""event"",""trial"",""time""
""fullscreenenter"",""5"",""15383""
","
","
","""event"",""trial"",""time""
""fullscreenenter"",""5"",""15383""
","
",NA,images/earth.jpg,NA,NA,NA,NA,NA,NA,NA,NA,NA,NA,NA,NA,NA,fixation,NA,NA,NA,NA,NA,NA,sub71
d3-animate-choice,177,661162,0.0-76.0-0.14,FALSE,TRUE,FALSE,FALSE,"""event"",""trial"",""time""
""fullscreenenter"",""5"",""15383""
","
","
","""event"",""trial"",""time""
""fullscreenenter"",""5"",""15383""
","
",315,NA,48,NA,NA,3000,1,NA,NA,images/earth.jpg,images/rocket1,images/rocket2,null,images/rocket1,NA,1,real,null,2,NA,NA,NA,sub71
d3-animate-choice,178,663514,0.0-76.0-1.14,FALSE,TRUE,FALSE,FALSE,"""event"",""trial"",""time""
""fullscreenenter"",""5"",""15383""
","
","
","""event"",""trial"",""time""
""fullscreenenter"",""5"",""15383""
","
",351,NA,48,NA,NA,3000,1,NA,NA,images/redplanet1.jpg,images/alien2,images/alien1,images/rocket1,images/alien2,images/t.png,2,real,true,2,common,1,2020-06-16T17:58:15Z,sub71
two-step-fixation,179,664516,0.0-76.0-2.14,FALSE,TRUE,FALSE,FALSE,"""event"",""trial"",""time""
""fullscreenenter"",""5"",""15383""
","
","
","""event"",""trial"",""time""
""fullscreenenter"",""5"",""15383""
","
",NA,images/earth.jpg,NA,NA,NA,NA,NA,NA,NA,NA,NA,NA,NA,NA,NA,fixation,NA,NA,NA,NA,NA,NA,sub71
d3-animate-choice,180,666851,0.0-76.0-0.15,FALSE,TRUE,FALSE,FALSE,"""event"",""trial"",""time""
""fullscreenenter"",""5"",""15383""
","
","
","""event"",""trial"",""time""
""fullscreenenter"",""5"",""15383""
","
",332,NA,48,NA,NA,3000,1,NA,NA,images/earth.jpg,images/rocket1,images/rocket2,null,images/rocket1,NA,1,real,null,2,NA,NA,NA,sub71
d3-animate-choice,181,669291,0.0-76.0-1.15,FALSE,TRUE,FALSE,FALSE,"""event"",""trial"",""time""
""fullscreenenter"",""5"",""15383""
","
","
","""event"",""trial"",""time""
""fullscreenenter"",""5"",""15383""
","
",436.9999999998836,NA,48,NA,NA,3000,1,NA,NA,images/redplanet1.jpg,images/alien2,images/alien1,images/rocket1,images/alien2,images/nothing.png,2,real,true,2,common,0,2020-06-16T17:58:21Z,sub71
two-step-fixation,182,670293,0.0-76.0-2.15,FALSE,TRUE,FALSE,FALSE,"""event"",""trial"",""time""
""fullscreenenter"",""5"",""15383""
","
","
","""event"",""trial"",""time""
""fullscreenenter"",""5"",""15383""
","
",NA,images/earth.jpg,NA,NA,NA,NA,NA,NA,NA,NA,NA,NA,NA,NA,NA,fixation,NA,NA,NA,NA,NA,NA,sub71
d3-animate-choice,183,672603,0.0-76.0-0.16,FALSE,TRUE,FALSE,FALSE,"""event"",""trial"",""time""
""fullscreenenter"",""5"",""15383""
","
","
","""event"",""trial"",""time""
""fullscreenenter"",""5"",""15383""
","
",307,NA,48,NA,NA,3000,1,NA,NA,images/earth.jpg,images/rocket1,images/rocket2,null,images/rocket1,NA,1,real,null,2,NA,NA,NA,sub71
d3-animate-choice,184,675011,0.0-76.0-1.16,FALSE,TRUE,FALSE,FALSE,"""event"",""trial"",""time""
""fullscreenenter"",""5"",""15383""
","
","
","""event"",""trial"",""time""
""fullscreenenter"",""5"",""15383""
","
",405,NA,48,NA,NA,3000,1,NA,NA,images/redplanet1.jpg,images/alien2,images/alien1,images/rocket1,images/alien2,images/nothing.png,2,real,true,2,common,0,2020-06-16T17:58:26Z,sub71
two-step-fixation,185,676013,0.0-76.0-2.16,FALSE,TRUE,FALSE,FALSE,"""event"",""trial"",""time""
""fullscreenenter"",""5"",""15383""
","
","
","""event"",""trial"",""time""
""fullscreenenter"",""5"",""15383""
","
",NA,images/earth.jpg,NA,NA,NA,NA,NA,NA,NA,NA,NA,NA,NA,NA,NA,fixation,NA,NA,NA,NA,NA,NA,sub71
d3-animate-choice,186,678323,0.0-76.0-0.17,FALSE,TRUE,FALSE,FALSE,"""event"",""trial"",""time""
""fullscreenenter"",""5"",""15383""
","
","
","""event"",""trial"",""time""
""fullscreenenter"",""5"",""15383""
","
",308,NA,48,NA,NA,3000,1,NA,NA,images/earth.jpg,images/rocket1,images/rocket2,null,images/rocket1,NA,1,real,null,2,NA,NA,NA,sub71
d3-animate-choice,187,680690,0.0-76.0-1.17,FALSE,TRUE,FALSE,FALSE,"""event"",""trial"",""time""
""fullscreenenter"",""5"",""15383""
","
","
","""event"",""trial"",""time""
""fullscreenenter"",""5"",""15383""
","
",365,NA,48,NA,NA,3000,1,NA,NA,images/redplanet1.jpg,images/alien2,images/alien1,images/rocket1,images/alien2,images/t.png,2,real,true,2,common,1,2020-06-16T17:58:32Z,sub71
two-step-fixation,188,681691,0.0-76.0-2.17,FALSE,TRUE,FALSE,FALSE,"""event"",""trial"",""time""
""fullscreenenter"",""5"",""15383""
","
","
","""event"",""trial"",""time""
""fullscreenenter"",""5"",""15383""
","
",NA,images/earth.jpg,NA,NA,NA,NA,NA,NA,NA,NA,NA,NA,NA,NA,NA,fixation,NA,NA,NA,NA,NA,NA,sub71
d3-animate-choice,189,683994,0.0-76.0-0.18,FALSE,TRUE,FALSE,FALSE,"""event"",""trial"",""time""
""fullscreenenter"",""5"",""15383""
","
","
","""event"",""trial"",""time""
""fullscreenenter"",""5"",""15383""
","
",302,NA,48,NA,NA,3000,1,NA,NA,images/earth.jpg,images/rocket1,images/rocket2,null,images/rocket1,NA,1,real,null,2,NA,NA,NA,sub71
d3-animate-choice,190,686306,0.0-76.0-1.18,FALSE,TRUE,FALSE,FALSE,"""event"",""trial"",""time""
""fullscreenenter"",""5"",""15383""
","
","
","""event"",""trial"",""time""
""fullscreenenter"",""5"",""15383""
","
",310,NA,48,NA,NA,3000,1,NA,NA,images/redplanet1.jpg,images/alien2,images/alien1,images/rocket1,images/alien2,images/t.png,2,real,true,2,common,1,2020-06-16T17:58:38Z,sub71
two-step-fixation,191,687308,0.0-76.0-2.18,FALSE,TRUE,FALSE,FALSE,"""event"",""trial"",""time""
""fullscreenenter"",""5"",""15383""
","
","
","""event"",""trial"",""time""
""fullscreenenter"",""5"",""15383""
","
",NA,images/earth.jpg,NA,NA,NA,NA,NA,NA,NA,NA,NA,NA,NA,NA,NA,fixation,NA,NA,NA,NA,NA,NA,sub71
d3-animate-choice,192,689586,0.0-76.0-0.19,FALSE,TRUE,FALSE,FALSE,"""event"",""trial"",""time""
""fullscreenenter"",""5"",""15383""
","
","
","""event"",""trial"",""time""
""fullscreenenter"",""5"",""15383""
","
",275.9999999998836,NA,48,NA,NA,3000,1,NA,NA,images/earth.jpg,images/rocket1,images/rocket2,null,images/rocket1,NA,1,real,null,2,NA,NA,NA,sub71
d3-animate-choice,193,692050,0.0-76.0-1.19,FALSE,TRUE,FALSE,FALSE,"""event"",""trial"",""time""
""fullscreenenter"",""5"",""15383""
","
","
","""event"",""trial"",""time""
""fullscreenenter"",""5"",""15383""
","
",462.0000000001164,NA,48,NA,NA,3000,1,NA,NA,images/redplanet1.jpg,images/alien2,images/alien1,images/rocket1,images/alien2,images/t.png,2,real,true,2,common,1,2020-06-16T17:58:43Z,sub71
two-step-fixation,194,693052,0.0-76.0-2.19,FALSE,TRUE,FALSE,FALSE,"""event"",""trial"",""time""
""fullscreenenter"",""5"",""15383""
","
","
","""event"",""trial"",""time""
""fullscreenenter"",""5"",""15383""
","
",NA,images/earth.jpg,NA,NA,NA,NA,NA,NA,NA,NA,NA,NA,NA,NA,NA,fixation,NA,NA,NA,NA,NA,NA,sub71
d3-animate-choice,195,695450,0.0-76.0-0.20,FALSE,TRUE,FALSE,FALSE,"""event"",""trial"",""time""
""fullscreenenter"",""5"",""15383""
","
","
","""event"",""trial"",""time""
""fullscreenenter"",""5"",""15383""
","
",396,NA,48,NA,NA,3000,1,NA,NA,images/earth.jpg,images/rocket1,images/rocket2,null,images/rocket1,NA,1,real,null,2,NA,NA,NA,sub71
d3-animate-choice,196,698539,0.0-76.0-1.20,FALSE,TRUE,FALSE,FALSE,"""event"",""trial"",""time""
""fullscreenenter"",""5"",""15383""
","
","
","""event"",""trial"",""time""
""fullscreenenter"",""5"",""15383""
","
",1086,NA,49,NA,NA,3000,1,NA,NA,images/purpleplanet.jpg,images/alien4,images/alien3,images/rocket1,images/alien3,images/nothing.png,2,real,false,1,rare,0,2020-06-16T17:58:50Z,sub71
two-step-fixation,197,699541,0.0-76.0-2.20,FALSE,TRUE,FALSE,FALSE,"""event"",""trial"",""time""
""fullscreenenter"",""5"",""15383""
","
","
","""event"",""trial"",""time""
""fullscreenenter"",""5"",""15383""
","
",NA,images/earth.jpg,NA,NA,NA,NA,NA,NA,NA,NA,NA,NA,NA,NA,NA,fixation,NA,NA,NA,NA,NA,NA,sub71
d3-animate-choice,198,701810,0.0-76.0-0.21,FALSE,TRUE,FALSE,FALSE,"""event"",""trial"",""time""
""fullscreenenter"",""5"",""15383""
","
","
","""event"",""trial"",""time""
""fullscreenenter"",""5"",""15383""
","
",267.0000000001164,NA,48,NA,NA,3000,1,NA,NA,images/earth.jpg,images/rocket1,images/rocket2,null,images/rocket1,NA,1,real,null,2,NA,NA,NA,sub71
d3-animate-choice,199,704146,0.0-76.0-1.21,FALSE,TRUE,FALSE,FALSE,"""event"",""trial"",""time""
""fullscreenenter"",""5"",""15383""
","
","
","""event"",""trial"",""time""
""fullscreenenter"",""5"",""15383""
","
",333,NA,48,NA,NA,3000,1,NA,NA,images/redplanet1.jpg,images/alien2,images/alien1,images/rocket1,images/alien2,images/t.png,2,real,true,2,common,1,2020-06-16T17:58:55Z,sub71
two-step-fixation,200,705148,0.0-76.0-2.21,FALSE,TRUE,FALSE,FALSE,"""event"",""trial"",""time""
""fullscreenenter"",""5"",""15383""
","
","
","""event"",""trial"",""time""
""fullscreenenter"",""5"",""15383""
","
",NA,images/earth.jpg,NA,NA,NA,NA,NA,NA,NA,NA,NA,NA,NA,NA,NA,fixation,NA,NA,NA,NA,NA,NA,sub71
d3-animate-choice,201,707442,0.0-76.0-0.22,FALSE,TRUE,FALSE,FALSE,"""event"",""trial"",""time""
""fullscreenenter"",""5"",""15383""
","
","
","""event"",""trial"",""time""
""fullscreenenter"",""5"",""15383""
","
",292,NA,48,NA,NA,3000,1,NA,NA,images/earth.jpg,images/rocket1,images/rocket2,null,images/rocket1,NA,1,real,null,2,NA,NA,NA,sub71
d3-animate-choice,202,709874,0.0-76.0-1.22,FALSE,TRUE,FALSE,FALSE,"""event"",""trial"",""time""
""fullscreenenter"",""5"",""15383""
","
","
","""event"",""trial"",""time""
""fullscreenenter"",""5"",""15383""
","
",430,NA,48,NA,NA,3000,1,NA,NA,images/redplanet1.jpg,images/alien2,images/alien1,images/rocket1,images/alien2,images/nothing.png,2,real,true,2,common,0,2020-06-16T17:59:01Z,sub71
two-step-fixation,203,710876,0.0-76.0-2.22,FALSE,TRUE,FALSE,FALSE,"""event"",""trial"",""time""
""fullscreenenter"",""5"",""15383""
","
","
","""event"",""trial"",""time""
""fullscreenenter"",""5"",""15383""
","
",NA,images/earth.jpg,NA,NA,NA,NA,NA,NA,NA,NA,NA,NA,NA,NA,NA,fixation,NA,NA,NA,NA,NA,NA,sub71
d3-animate-choice,204,713154,0.0-76.0-0.23,FALSE,TRUE,FALSE,FALSE,"""event"",""trial"",""time""
""fullscreenenter"",""5"",""15383""
","
","
","""event"",""trial"",""time""
""fullscreenenter"",""5"",""15383""
","
",276,NA,48,NA,NA,3000,1,NA,NA,images/earth.jpg,images/rocket1,images/rocket2,null,images/rocket1,NA,1,real,null,2,NA,NA,NA,sub71
d3-animate-choice,205,715523,0.0-76.0-1.23,FALSE,TRUE,FALSE,FALSE,"""event"",""trial"",""time""
""fullscreenenter"",""5"",""15383""
","
","
","""event"",""trial"",""time""
""fullscreenenter"",""5"",""15383""
","
",365.9999999998836,NA,48,NA,NA,3000,1,NA,NA,images/redplanet1.jpg,images/alien2,images/alien1,images/rocket1,images/alien2,images/t.png,2,real,true,2,common,1,2020-06-16T17:59:07Z,sub71
two-step-fixation,206,716524,0.0-76.0-2.23,FALSE,TRUE,FALSE,FALSE,"""event"",""trial"",""time""
""fullscreenenter"",""5"",""15383""
","
","
","""event"",""trial"",""time""
""fullscreenenter"",""5"",""15383""
","
",NA,images/earth.jpg,NA,NA,NA,NA,NA,NA,NA,NA,NA,NA,NA,NA,NA,fixation,NA,NA,NA,NA,NA,NA,sub71
d3-animate-choice,207,718859,0.0-76.0-0.24,FALSE,TRUE,FALSE,FALSE,"""event"",""trial"",""time""
""fullscreenenter"",""5"",""15383""
","
","
","""event"",""trial"",""time""
""fullscreenenter"",""5"",""15383""
","
",332,NA,48,NA,NA,3000,1,NA,NA,images/earth.jpg,images/rocket1,images/rocket2,null,images/rocket1,NA,1,real,null,2,NA,NA,NA,sub71
d3-animate-choice,208,721226,0.0-76.0-1.24,FALSE,TRUE,FALSE,FALSE,"""event"",""trial"",""time""
""fullscreenenter"",""5"",""15383""
","
","
","""event"",""trial"",""time""
""fullscreenenter"",""5"",""15383""
","
",365,NA,48,NA,NA,3000,1,NA,NA,images/redplanet1.jpg,images/alien2,images/alien1,images/rocket1,images/alien2,images/nothing.png,2,real,true,2,common,0,2020-06-16T17:59:13Z,sub71
two-step-fixation,209,722227,0.0-76.0-2.24,FALSE,TRUE,FALSE,FALSE,"""event"",""trial"",""time""
""fullscreenenter"",""5"",""15383""
","
","
","""event"",""trial"",""time""
""fullscreenenter"",""5"",""15383""
","
",NA,images/earth.jpg,NA,NA,NA,NA,NA,NA,NA,NA,NA,NA,NA,NA,NA,fixation,NA,NA,NA,NA,NA,NA,sub71
d3-animate-choice,210,724514,0.0-76.0-0.25,FALSE,TRUE,FALSE,FALSE,"""event"",""trial"",""time""
""fullscreenenter"",""5"",""15383""
","
","
","""event"",""trial"",""time""
""fullscreenenter"",""5"",""15383""
","
",284,NA,48,NA,NA,3000,1,NA,NA,images/earth.jpg,images/rocket1,images/rocket2,null,images/rocket1,NA,1,real,null,2,NA,NA,NA,sub71
d3-animate-choice,211,726953,0.0-76.0-1.25,FALSE,TRUE,FALSE,FALSE,"""event"",""trial"",""time""
""fullscreenenter"",""5"",""15383""
","
","
","""event"",""trial"",""time""
""fullscreenenter"",""5"",""15383""
","
",437.0000000001164,NA,48,NA,NA,3000,1,NA,NA,images/purpleplanet.jpg,images/alien4,images/alien3,images/rocket1,images/alien4,images/t.png,2,real,false,2,rare,1,2020-06-16T17:59:18Z,sub71
two-step-fixation,212,727955,0.0-76.0-2.25,FALSE,TRUE,FALSE,FALSE,"""event"",""trial"",""time""
""fullscreenenter"",""5"",""15383""
","
","
","""event"",""trial"",""time""
""fullscreenenter"",""5"",""15383""
","
",NA,images/earth.jpg,NA,NA,NA,NA,NA,NA,NA,NA,NA,NA,NA,NA,NA,fixation,NA,NA,NA,NA,NA,NA,sub71
d3-animate-choice,213,730250,0.0-76.0-0.26,FALSE,TRUE,FALSE,FALSE,"""event"",""trial"",""time""
""fullscreenenter"",""5"",""15383""
","
","
","""event"",""trial"",""time""
""fullscreenenter"",""5"",""15383""
","
",293,NA,48,NA,NA,3000,1,NA,NA,images/earth.jpg,images/rocket1,images/rocket2,null,images/rocket1,NA,1,real,null,2,NA,NA,NA,sub71
d3-animate-choice,214,732642,0.0-76.0-1.26,FALSE,TRUE,FALSE,FALSE,"""event"",""trial"",""time""
""fullscreenenter"",""5"",""15383""
","
","
","""event"",""trial"",""time""
""fullscreenenter"",""5"",""15383""
","
",389.9999999998836,NA,48,NA,NA,3000,1,NA,NA,images/purpleplanet.jpg,images/alien4,images/alien3,images/rocket1,images/alien4,images/nothing.png,2,real,false,2,rare,0,2020-06-16T17:59:24Z,sub71
two-step-fixation,215,733644,0.0-76.0-2.26,FALSE,TRUE,FALSE,FALSE,"""event"",""trial"",""time""
""fullscreenenter"",""5"",""15383""
","
","
","""event"",""trial"",""time""
""fullscreenenter"",""5"",""15383""
","
",NA,images/earth.jpg,NA,NA,NA,NA,NA,NA,NA,NA,NA,NA,NA,NA,NA,fixation,NA,NA,NA,NA,NA,NA,sub71
d3-animate-choice,216,735954,0.0-76.0-0.27,FALSE,TRUE,FALSE,FALSE,"""event"",""trial"",""time""
""fullscreenenter"",""5"",""15383""
","
","
","""event"",""trial"",""time""
""fullscreenenter"",""5"",""15383""
","
",307.0000000001164,NA,48,NA,NA,3000,1,NA,NA,images/earth.jpg,images/rocket1,images/rocket2,null,images/rocket1,NA,1,real,null,2,NA,NA,NA,sub71
d3-animate-choice,217,738378,0.0-76.0-1.27,FALSE,TRUE,FALSE,FALSE,"""event"",""trial"",""time""
""fullscreenenter"",""5"",""15383""
","
","
","""event"",""trial"",""time""
""fullscreenenter"",""5"",""15383""
","
",421,NA,48,NA,NA,3000,1,NA,NA,images/redplanet1.jpg,images/alien2,images/alien1,images/rocket1,images/alien2,images/t.png,2,real,true,2,common,1,2020-06-16T17:59:30Z,sub71
two-step-fixation,218,739380,0.0-76.0-2.27,FALSE,TRUE,FALSE,FALSE,"""event"",""trial"",""time""
""fullscreenenter"",""5"",""15383""
","
","
","""event"",""trial"",""time""
""fullscreenenter"",""5"",""15383""
","
",NA,images/earth.jpg,NA,NA,NA,NA,NA,NA,NA,NA,NA,NA,NA,NA,NA,fixation,NA,NA,NA,NA,NA,NA,sub71
d3-animate-choice,219,741722,0.0-76.0-0.28,FALSE,TRUE,FALSE,FALSE,"""event"",""trial"",""time""
""fullscreenenter"",""5"",""15383""
","
","
","""event"",""trial"",""time""
""fullscreenenter"",""5"",""15383""
","
",339.9999999998836,NA,48,NA,NA,3000,1,NA,NA,images/earth.jpg,images/rocket1,images/rocket2,null,images/rocket1,NA,1,real,null,2,NA,NA,NA,sub71
d3-animate-choice,220,744682,0.0-76.0-1.28,FALSE,TRUE,FALSE,FALSE,"""event"",""trial"",""time""
""fullscreenenter"",""5"",""15383""
","
","
","""event"",""trial"",""time""
""fullscreenenter"",""5"",""15383""
","
",959,NA,48,NA,NA,3000,1,NA,NA,images/purpleplanet.jpg,images/alien4,images/alien3,images/rocket1,images/alien4,images/t.png,2,real,false,2,rare,1,2020-06-16T17:59:36Z,sub71
two-step-fixation,221,745683,0.0-76.0-2.28,FALSE,TRUE,FALSE,FALSE,"""event"",""trial"",""time""
""fullscreenenter"",""5"",""15383""
","
","
","""event"",""trial"",""time""
""fullscreenenter"",""5"",""15383""
","
",NA,images/earth.jpg,NA,NA,NA,NA,NA,NA,NA,NA,NA,NA,NA,NA,NA,fixation,NA,NA,NA,NA,NA,NA,sub71
d3-animate-choice,222,748034,0.0-76.0-0.29,FALSE,TRUE,FALSE,FALSE,"""event"",""trial"",""time""
""fullscreenenter"",""5"",""15383""
","
","
","""event"",""trial"",""time""
""fullscreenenter"",""5"",""15383""
","
",348,NA,48,NA,NA,3000,1,NA,NA,images/earth.jpg,images/rocket1,images/rocket2,null,images/rocket1,NA,1,real,null,2,NA,NA,NA,sub71
d3-animate-choice,223,750458,0.0-76.0-1.29,FALSE,TRUE,FALSE,FALSE,"""event"",""trial"",""time""
""fullscreenenter"",""5"",""15383""
","
","
","""event"",""trial"",""time""
""fullscreenenter"",""5"",""15383""
","
",421,NA,48,NA,NA,3000,1,NA,NA,images/redplanet1.jpg,images/alien2,images/alien1,images/rocket1,images/alien2,images/nothing.png,2,real,true,2,common,0,2020-06-16T17:59:42Z,sub71
two-step-fixation,224,751459,0.0-76.0-2.29,FALSE,TRUE,FALSE,FALSE,"""event"",""trial"",""time""
""fullscreenenter"",""5"",""15383""
","
","
","""event"",""trial"",""time""
""fullscreenenter"",""5"",""15383""
","
",NA,images/earth.jpg,NA,NA,NA,NA,NA,NA,NA,NA,NA,NA,NA,NA,NA,fixation,NA,NA,NA,NA,NA,NA,sub71
d3-animate-choice,225,753794,0.0-76.0-0.30,FALSE,TRUE,FALSE,FALSE,"""event"",""trial"",""time""
""fullscreenenter"",""5"",""15383""
","
","
","""event"",""trial"",""time""
""fullscreenenter"",""5"",""15383""
","
",332,NA,48,NA,NA,3000,1,NA,NA,images/earth.jpg,images/rocket1,images/rocket2,null,images/rocket1,NA,1,real,null,2,NA,NA,NA,sub71
d3-animate-choice,226,756177,0.0-76.0-1.30,FALSE,TRUE,FALSE,FALSE,"""event"",""trial"",""time""
""fullscreenenter"",""5"",""15383""
","
","
","""event"",""trial"",""time""
""fullscreenenter"",""5"",""15383""
","
",381,NA,48,NA,NA,3000,1,NA,NA,images/redplanet1.jpg,images/alien2,images/alien1,images/rocket1,images/alien2,images/t.png,2,real,true,2,common,1,2020-06-16T17:59:47Z,sub71
two-step-fixation,227,757179,0.0-76.0-2.30,FALSE,TRUE,FALSE,FALSE,"""event"",""trial"",""time""
""fullscreenenter"",""5"",""15383""
","
","
","""event"",""trial"",""time""
""fullscreenenter"",""5"",""15383""
","
",NA,images/earth.jpg,NA,NA,NA,NA,NA,NA,NA,NA,NA,NA,NA,NA,NA,fixation,NA,NA,NA,NA,NA,NA,sub71
d3-animate-choice,228,759449,0.0-76.0-0.31,FALSE,TRUE,FALSE,FALSE,"""event"",""trial"",""time""
""fullscreenenter"",""5"",""15383""
","
","
","""event"",""trial"",""time""
""fullscreenenter"",""5"",""15383""
","
",269,NA,48,NA,NA,3000,1,NA,NA,images/earth.jpg,images/rocket1,images/rocket2,null,images/rocket1,NA,1,real,null,2,NA,NA,NA,sub71
d3-animate-choice,229,761921,0.0-76.0-1.31,FALSE,TRUE,FALSE,FALSE,"""event"",""trial"",""time""
""fullscreenenter"",""5"",""15383""
","
","
","""event"",""trial"",""time""
""fullscreenenter"",""5"",""15383""
","
",470,NA,48,NA,NA,3000,1,NA,NA,images/redplanet1.jpg,images/alien2,images/alien1,images/rocket1,images/alien2,images/t.png,2,real,true,2,common,1,2020-06-16T17:59:53Z,sub71
two-step-fixation,230,762923,0.0-76.0-2.31,FALSE,TRUE,FALSE,FALSE,"""event"",""trial"",""time""
""fullscreenenter"",""5"",""15383""
","
","
","""event"",""trial"",""time""
""fullscreenenter"",""5"",""15383""
","
",NA,images/earth.jpg,NA,NA,NA,NA,NA,NA,NA,NA,NA,NA,NA,NA,NA,fixation,NA,NA,NA,NA,NA,NA,sub71
d3-animate-choice,231,765218,0.0-76.0-0.32,FALSE,TRUE,FALSE,FALSE,"""event"",""trial"",""time""
""fullscreenenter"",""5"",""15383""
","
","
","""event"",""trial"",""time""
""fullscreenenter"",""5"",""15383""
","
",292.9999999998836,NA,48,NA,NA,3000,1,NA,NA,images/earth.jpg,images/rocket1,images/rocket2,null,images/rocket1,NA,1,real,null,2,NA,NA,NA,sub71
d3-animate-choice,232,767682,0.0-76.0-1.32,FALSE,TRUE,FALSE,FALSE,"""event"",""trial"",""time""
""fullscreenenter"",""5"",""15383""
","
","
","""event"",""trial"",""time""
""fullscreenenter"",""5"",""15383""
","
",461,NA,48,NA,NA,3000,1,NA,NA,images/redplanet1.jpg,images/alien2,images/alien1,images/rocket1,images/alien2,images/t.png,2,real,true,2,common,1,2020-06-16T17:59:59Z,sub71
two-step-fixation,233,768684,0.0-76.0-2.32,FALSE,TRUE,FALSE,FALSE,"""event"",""trial"",""time""
""fullscreenenter"",""5"",""15383""
","
","
","""event"",""trial"",""time""
""fullscreenenter"",""5"",""15383""
","
",NA,images/earth.jpg,NA,NA,NA,NA,NA,NA,NA,NA,NA,NA,NA,NA,NA,fixation,NA,NA,NA,NA,NA,NA,sub71
d3-animate-choice,234,771026,0.0-76.0-0.33,FALSE,TRUE,FALSE,FALSE,"""event"",""trial"",""time""
""fullscreenenter"",""5"",""15383""
","
","
","""event"",""trial"",""time""
""fullscreenenter"",""5"",""15383""
","
",340,NA,48,NA,NA,3000,1,NA,NA,images/earth.jpg,images/rocket1,images/rocket2,null,images/rocket1,NA,1,real,null,2,NA,NA,NA,sub71
d3-animate-choice,235,773426,0.0-76.0-1.33,FALSE,TRUE,FALSE,FALSE,"""event"",""trial"",""time""
""fullscreenenter"",""5"",""15383""
","
","
","""event"",""trial"",""time""
""fullscreenenter"",""5"",""15383""
","
",397,NA,48,NA,NA,3000,1,NA,NA,images/redplanet1.jpg,images/alien2,images/alien1,images/rocket1,images/alien2,images/nothing.png,2,real,true,2,common,0,2020-06-16T18:00:05Z,sub71
two-step-fixation,236,774427,0.0-76.0-2.33,FALSE,TRUE,FALSE,FALSE,"""event"",""trial"",""time""
""fullscreenenter"",""5"",""15383""
","
","
","""event"",""trial"",""time""
""fullscreenenter"",""5"",""15383""
","
",NA,images/earth.jpg,NA,NA,NA,NA,NA,NA,NA,NA,NA,NA,NA,NA,NA,fixation,NA,NA,NA,NA,NA,NA,sub71
d3-animate-choice,237,776714,0.0-76.0-0.34,FALSE,TRUE,FALSE,FALSE,"""event"",""trial"",""time""
""fullscreenenter"",""5"",""15383""
","
","
","""event"",""trial"",""time""
""fullscreenenter"",""5"",""15383""
","
",284.9999999998836,NA,48,NA,NA,3000,1,NA,NA,images/earth.jpg,images/rocket1,images/rocket2,null,images/rocket1,NA,1,real,null,2,NA,NA,NA,sub71
d3-animate-choice,238,779146,0.0-76.0-1.34,FALSE,TRUE,FALSE,FALSE,"""event"",""trial"",""time""
""fullscreenenter"",""5"",""15383""
","
","
","""event"",""trial"",""time""
""fullscreenenter"",""5"",""15383""
","
",429.0000000001164,NA,48,NA,NA,3000,1,NA,NA,images/redplanet1.jpg,images/alien2,images/alien1,images/rocket1,images/alien2,images/t.png,2,real,true,2,common,1,2020-06-16T18:00:10Z,sub71
two-step-fixation,239,780148,0.0-76.0-2.34,FALSE,TRUE,FALSE,FALSE,"""event"",""trial"",""time""
""fullscreenenter"",""5"",""15383""
","
","
","""event"",""trial"",""time""
""fullscreenenter"",""5"",""15383""
","
",NA,images/earth.jpg,NA,NA,NA,NA,NA,NA,NA,NA,NA,NA,NA,NA,NA,fixation,NA,NA,NA,NA,NA,NA,sub71
d3-animate-choice,240,782450,0.0-76.0-0.35,FALSE,TRUE,FALSE,FALSE,"""event"",""trial"",""time""
""fullscreenenter"",""5"",""15383""
","
","
","""event"",""trial"",""time""
""fullscreenenter"",""5"",""15383""
","
",298.9999999998836,NA,48,NA,NA,3000,1,NA,NA,images/earth.jpg,images/rocket1,images/rocket2,null,images/rocket1,NA,1,real,null,2,NA,NA,NA,sub71
d3-animate-choice,241,784842,0.0-76.0-1.35,FALSE,TRUE,FALSE,FALSE,"""event"",""trial"",""time""
""fullscreenenter"",""5"",""15383""
","
","
","""event"",""trial"",""time""
""fullscreenenter"",""5"",""15383""
","
",389,NA,48,NA,NA,3000,1,NA,NA,images/redplanet1.jpg,images/alien2,images/alien1,images/rocket1,images/alien2,images/nothing.png,2,real,true,2,common,0,2020-06-16T18:00:16Z,sub71
two-step-fixation,242,785843,0.0-76.0-2.35,FALSE,TRUE,FALSE,FALSE,"""event"",""trial"",""time""
""fullscreenenter"",""5"",""15383""
","
","
","""event"",""trial"",""time""
""fullscreenenter"",""5"",""15383""
","
",NA,images/earth.jpg,NA,NA,NA,NA,NA,NA,NA,NA,NA,NA,NA,NA,NA,fixation,NA,NA,NA,NA,NA,NA,sub71
d3-animate-choice,243,788162,0.0-76.0-0.36,FALSE,TRUE,FALSE,FALSE,"""event"",""trial"",""time""
""fullscreenenter"",""5"",""15383""
","
","
","""event"",""trial"",""time""
""fullscreenenter"",""5"",""15383""
","
",316,NA,48,NA,NA,3000,1,NA,NA,images/earth.jpg,images/rocket1,images/rocket2,null,images/rocket1,NA,1,real,null,2,NA,NA,NA,sub71
d3-animate-choice,244,790537,0.0-76.0-1.36,FALSE,TRUE,FALSE,FALSE,"""event"",""trial"",""time""
""fullscreenenter"",""5"",""15383""
","
","
","""event"",""trial"",""time""
""fullscreenenter"",""5"",""15383""
","
",373,NA,48,NA,NA,3000,1,NA,NA,images/purpleplanet.jpg,images/alien4,images/alien3,images/rocket1,images/alien4,images/t.png,2,real,false,2,rare,1,2020-06-16T18:00:22Z,sub71
two-step-fixation,245,791538,0.0-76.0-2.36,FALSE,TRUE,FALSE,FALSE,"""event"",""trial"",""time""
""fullscreenenter"",""5"",""15383""
","
","
","""event"",""trial"",""time""
""fullscreenenter"",""5"",""15383""
","
",NA,images/earth.jpg,NA,NA,NA,NA,NA,NA,NA,NA,NA,NA,NA,NA,NA,fixation,NA,NA,NA,NA,NA,NA,sub71
d3-animate-choice,246,794034,0.0-76.0-0.37,FALSE,TRUE,FALSE,FALSE,"""event"",""trial"",""time""
""fullscreenenter"",""5"",""15383""
","
","
","""event"",""trial"",""time""
""fullscreenenter"",""5"",""15383""
","
",493,NA,48,NA,NA,3000,1,NA,NA,images/earth.jpg,images/rocket1,images/rocket2,null,images/rocket1,NA,1,real,null,2,NA,NA,NA,sub71
d3-animate-choice,247,796402,0.0-76.0-1.37,FALSE,TRUE,FALSE,FALSE,"""event"",""trial"",""time""
""fullscreenenter"",""5"",""15383""
","
","
","""event"",""trial"",""time""
""fullscreenenter"",""5"",""15383""
","
",365,NA,48,NA,NA,3000,1,NA,NA,images/redplanet1.jpg,images/alien2,images/alien1,images/rocket1,images/alien2,images/nothing.png,2,real,true,2,common,0,2020-06-16T18:00:28Z,sub71
two-step-fixation,248,797403,0.0-76.0-2.37,FALSE,TRUE,FALSE,FALSE,"""event"",""trial"",""time""
""fullscreenenter"",""5"",""15383""
","
","
","""event"",""trial"",""time""
""fullscreenenter"",""5"",""15383""
","
",NA,images/earth.jpg,NA,NA,NA,NA,NA,NA,NA,NA,NA,NA,NA,NA,NA,fixation,NA,NA,NA,NA,NA,NA,sub71
d3-animate-choice,249,799705,0.0-76.0-0.38,FALSE,TRUE,FALSE,FALSE,"""event"",""trial"",""time""
""fullscreenenter"",""5"",""15383""
","
","
","""event"",""trial"",""time""
""fullscreenenter"",""5"",""15383""
","
",299.9999999998836,NA,48,NA,NA,3000,1,NA,NA,images/earth.jpg,images/rocket1,images/rocket2,null,images/rocket1,NA,1,real,null,2,NA,NA,NA,sub71
d3-animate-choice,250,802593,0.0-76.0-1.38,FALSE,TRUE,FALSE,FALSE,"""event"",""trial"",""time""
""fullscreenenter"",""5"",""15383""
","
","
","""event"",""trial"",""time""
""fullscreenenter"",""5"",""15383""
","
",884.9999999998836,NA,49,NA,NA,3000,1,NA,NA,images/redplanet1.jpg,images/alien2,images/alien1,images/rocket1,images/alien1,images/nothing.png,2,real,true,1,common,0,2020-06-16T18:00:34Z,sub71
two-step-fixation,251,803595,0.0-76.0-2.38,FALSE,TRUE,FALSE,FALSE,"""event"",""trial"",""time""
""fullscreenenter"",""5"",""15383""
","
","
","""event"",""trial"",""time""
""fullscreenenter"",""5"",""15383""
","
",NA,images/earth.jpg,NA,NA,NA,NA,NA,NA,NA,NA,NA,NA,NA,NA,NA,fixation,NA,NA,NA,NA,NA,NA,sub71
d3-animate-choice,252,805889,0.0-76.0-0.39,FALSE,TRUE,FALSE,FALSE,"""event"",""trial"",""time""
""fullscreenenter"",""5"",""15383""
","
","
","""event"",""trial"",""time""
""fullscreenenter"",""5"",""15383""
","
",291.9999999998836,NA,48,NA,NA,3000,1,NA,NA,images/earth.jpg,images/rocket1,images/rocket2,null,images/rocket1,NA,1,real,null,2,NA,NA,NA,sub71
d3-animate-choice,253,808313,0.0-76.0-1.39,FALSE,TRUE,FALSE,FALSE,"""event"",""trial"",""time""
""fullscreenenter"",""5"",""15383""
","
","
","""event"",""trial"",""time""
""fullscreenenter"",""5"",""15383""
","
",421,NA,48,NA,NA,3000,1,NA,NA,images/redplanet1.jpg,images/alien2,images/alien1,images/rocket1,images/alien2,images/nothing.png,2,real,true,2,common,0,2020-06-16T18:00:40Z,sub71
two-step-fixation,254,809316,0.0-76.0-2.39,FALSE,TRUE,FALSE,FALSE,"""event"",""trial"",""time""
""fullscreenenter"",""5"",""15383""
","
","
","""event"",""trial"",""time""
""fullscreenenter"",""5"",""15383""
","
",NA,images/earth.jpg,NA,NA,NA,NA,NA,NA,NA,NA,NA,NA,NA,NA,NA,fixation,NA,NA,NA,NA,NA,NA,sub71
d3-animate-choice,255,812873,0.0-76.0-0.40,FALSE,TRUE,FALSE,FALSE,"""event"",""trial"",""time""
""fullscreenenter"",""5"",""15383""
","
","
","""event"",""trial"",""time""
""fullscreenenter"",""5"",""15383""
","
",1554.9999999998836,NA,49,NA,NA,3000,1,NA,NA,images/earth.jpg,images/rocket1,images/rocket2,null,images/rocket2,NA,1,real,null,1,NA,NA,NA,sub71
d3-animate-choice,256,815273,0.0-76.0-1.40,FALSE,TRUE,FALSE,FALSE,"""event"",""trial"",""time""
""fullscreenenter"",""5"",""15383""
","
","
","""event"",""trial"",""time""
""fullscreenenter"",""5"",""15383""
","
",396.9999999998836,NA,48,NA,NA,3000,1,NA,NA,images/redplanet1.jpg,images/alien2,images/alien1,images/rocket2,images/alien2,images/nothing.png,2,real,false,2,rare,0,2020-06-16T18:00:47Z,sub71
two-step-fixation,257,816274,0.0-76.0-2.40,FALSE,TRUE,FALSE,FALSE,"""event"",""trial"",""time""
""fullscreenenter"",""5"",""15383""
","
","
","""event"",""trial"",""time""
""fullscreenenter"",""5"",""15383""
","
",NA,images/earth.jpg,NA,NA,NA,NA,NA,NA,NA,NA,NA,NA,NA,NA,NA,fixation,NA,NA,NA,NA,NA,NA,sub71
d3-animate-choice,258,818601,0.0-76.0-0.41,FALSE,TRUE,FALSE,FALSE,"""event"",""trial"",""time""
""fullscreenenter"",""5"",""15383""
","
","
","""event"",""trial"",""time""
""fullscreenenter"",""5"",""15383""
","
",325,NA,49,NA,NA,3000,1,NA,NA,images/earth.jpg,images/rocket1,images/rocket2,null,images/rocket2,NA,1,real,null,1,NA,NA,NA,sub71
d3-animate-choice,259,821017,0.0-76.0-1.41,FALSE,TRUE,FALSE,FALSE,"""event"",""trial"",""time""
""fullscreenenter"",""5"",""15383""
","
","
","""event"",""trial"",""time""
""fullscreenenter"",""5"",""15383""
","
",414,NA,48,NA,NA,3000,1,NA,NA,images/purpleplanet.jpg,images/alien4,images/alien3,images/rocket2,images/alien4,images/t.png,2,real,true,2,common,1,2020-06-16T18:00:52Z,sub71
two-step-fixation,260,822019,0.0-76.0-2.41,FALSE,TRUE,FALSE,FALSE,"""event"",""trial"",""time""
""fullscreenenter"",""5"",""15383""
","
","
","""event"",""trial"",""time""
""fullscreenenter"",""5"",""15383""
","
",NA,images/earth.jpg,NA,NA,NA,NA,NA,NA,NA,NA,NA,NA,NA,NA,NA,fixation,NA,NA,NA,NA,NA,NA,sub71
d3-animate-choice,261,824401,0.0-76.0-0.42,FALSE,TRUE,FALSE,FALSE,"""event"",""trial"",""time""
""fullscreenenter"",""5"",""15383""
","
","
","""event"",""trial"",""time""
""fullscreenenter"",""5"",""15383""
","
",379,NA,49,NA,NA,3000,1,NA,NA,images/earth.jpg,images/rocket1,images/rocket2,null,images/rocket2,NA,1,real,null,1,NA,NA,NA,sub71
d3-animate-choice,262,826769,0.0-76.0-1.42,FALSE,TRUE,FALSE,FALSE,"""event"",""trial"",""time""
""fullscreenenter"",""5"",""15383""
","
","
","""event"",""trial"",""time""
""fullscreenenter"",""5"",""15383""
","
",365,NA,48,NA,NA,3000,1,NA,NA,images/purpleplanet.jpg,images/alien4,images/alien3,images/rocket2,images/alien4,images/t.png,2,real,true,2,common,1,2020-06-16T18:00:58Z,sub71
two-step-fixation,263,827774,0.0-76.0-2.42,FALSE,TRUE,FALSE,FALSE,"""event"",""trial"",""time""
""fullscreenenter"",""5"",""15383""
","
","
","""event"",""trial"",""time""
""fullscreenenter"",""5"",""15383""
","
",NA,images/earth.jpg,NA,NA,NA,NA,NA,NA,NA,NA,NA,NA,NA,NA,NA,fixation,NA,NA,NA,NA,NA,NA,sub71
d3-animate-choice,264,830074,0.0-76.0-0.43,FALSE,TRUE,FALSE,FALSE,"""event"",""trial"",""time""
""fullscreenenter"",""5"",""15383""
","
","
","""event"",""trial"",""time""
""fullscreenenter"",""5"",""15383""
","
",296.0000000001164,NA,49,NA,NA,3000,1,NA,NA,images/earth.jpg,images/rocket1,images/rocket2,null,images/rocket2,NA,1,real,null,1,NA,NA,NA,sub71
d3-animate-choice,265,832433,0.0-76.0-1.43,FALSE,TRUE,FALSE,FALSE,"""event"",""trial"",""time""
""fullscreenenter"",""5"",""15383""
","
","
","""event"",""trial"",""time""
""fullscreenenter"",""5"",""15383""
","
",357,NA,48,NA,NA,3000,1,NA,NA,images/purpleplanet.jpg,images/alien4,images/alien3,images/rocket2,images/alien4,images/t.png,2,real,true,2,common,1,2020-06-16T18:01:04Z,sub71
two-step-fixation,266,833435,0.0-76.0-2.43,FALSE,TRUE,FALSE,FALSE,"""event"",""trial"",""time""
""fullscreenenter"",""5"",""15383""
","
","
","""event"",""trial"",""time""
""fullscreenenter"",""5"",""15383""
","
",NA,images/earth.jpg,NA,NA,NA,NA,NA,NA,NA,NA,NA,NA,NA,NA,NA,fixation,NA,NA,NA,NA,NA,NA,sub71
d3-animate-choice,267,835777,0.0-76.0-0.44,FALSE,TRUE,FALSE,FALSE,"""event"",""trial"",""time""
""fullscreenenter"",""5"",""15383""
","
","
","""event"",""trial"",""time""
""fullscreenenter"",""5"",""15383""
","
",340,NA,49,NA,NA,3000,1,NA,NA,images/earth.jpg,images/rocket1,images/rocket2,null,images/rocket2,NA,1,real,null,1,NA,NA,NA,sub71
d3-animate-choice,268,838089,0.0-76.0-1.44,FALSE,TRUE,FALSE,FALSE,"""event"",""trial"",""time""
""fullscreenenter"",""5"",""15383""
","
","
","""event"",""trial"",""time""
""fullscreenenter"",""5"",""15383""
","
",308.9999999998836,NA,48,NA,NA,3000,1,NA,NA,images/redplanet1.jpg,images/alien2,images/alien1,images/rocket2,images/alien2,images/nothing.png,2,real,false,2,rare,0,2020-06-16T18:01:09Z,sub71
two-step-fixation,269,839091,0.0-76.0-2.44,FALSE,TRUE,FALSE,FALSE,"""event"",""trial"",""time""
""fullscreenenter"",""5"",""15383""
","
","
","""event"",""trial"",""time""
""fullscreenenter"",""5"",""15383""
","
",NA,images/earth.jpg,NA,NA,NA,NA,NA,NA,NA,NA,NA,NA,NA,NA,NA,fixation,NA,NA,NA,NA,NA,NA,sub71
d3-animate-choice,270,841393,0.0-76.0-0.45,FALSE,TRUE,FALSE,FALSE,"""event"",""trial"",""time""
""fullscreenenter"",""5"",""15383""
","
","
","""event"",""trial"",""time""
""fullscreenenter"",""5"",""15383""
","
",299,NA,49,NA,NA,3000,1,NA,NA,images/earth.jpg,images/rocket1,images/rocket2,null,images/rocket2,NA,1,real,null,1,NA,NA,NA,sub71
d3-animate-choice,271,844601,0.0-76.0-1.45,FALSE,TRUE,FALSE,FALSE,"""event"",""trial"",""time""
""fullscreenenter"",""5"",""15383""
","
","
","""event"",""trial"",""time""
""fullscreenenter"",""5"",""15383""
","
",1205,NA,49,NA,NA,3000,1,NA,NA,images/redplanet1.jpg,images/alien2,images/alien1,images/rocket2,images/alien1,images/t.png,2,real,false,1,rare,1,2020-06-16T18:01:16Z,sub71
two-step-fixation,272,845602,0.0-76.0-2.45,FALSE,TRUE,FALSE,FALSE,"""event"",""trial"",""time""
""fullscreenenter"",""5"",""15383""
","
","
","""event"",""trial"",""time""
""fullscreenenter"",""5"",""15383""
","
",NA,images/earth.jpg,NA,NA,NA,NA,NA,NA,NA,NA,NA,NA,NA,NA,NA,fixation,NA,NA,NA,NA,NA,NA,sub71
d3-animate-choice,273,847976,0.0-76.0-0.46,FALSE,TRUE,FALSE,FALSE,"""event"",""trial"",""time""
""fullscreenenter"",""5"",""15383""
","
","
","""event"",""trial"",""time""
""fullscreenenter"",""5"",""15383""
","
",372.0000000001164,NA,49,NA,NA,3000,1,NA,NA,images/earth.jpg,images/rocket1,images/rocket2,null,images/rocket2,NA,1,real,null,1,NA,NA,NA,sub71
d3-animate-choice,274,851128,0.0-76.0-1.46,FALSE,TRUE,FALSE,FALSE,"""event"",""trial"",""time""
""fullscreenenter"",""5"",""15383""
","
","
","""event"",""trial"",""time""
""fullscreenenter"",""5"",""15383""
","
",1150,NA,49,NA,NA,3000,1,NA,NA,images/redplanet1.jpg,images/alien2,images/alien1,images/rocket2,images/alien1,images/t.png,2,real,false,1,rare,1,2020-06-16T18:01:22Z,sub71
two-step-fixation,275,852130,0.0-76.0-2.46,FALSE,TRUE,FALSE,FALSE,"""event"",""trial"",""time""
""fullscreenenter"",""5"",""15383""
","
","
","""event"",""trial"",""time""
""fullscreenenter"",""5"",""15383""
","
",NA,images/earth.jpg,NA,NA,NA,NA,NA,NA,NA,NA,NA,NA,NA,NA,NA,fixation,NA,NA,NA,NA,NA,NA,sub71
d3-animate-choice,276,854472,0.0-76.0-0.47,FALSE,TRUE,FALSE,FALSE,"""event"",""trial"",""time""
""fullscreenenter"",""5"",""15383""
","
","
","""event"",""trial"",""time""
""fullscreenenter"",""5"",""15383""
","
",340,NA,49,NA,NA,3000,1,NA,NA,images/earth.jpg,images/rocket1,images/rocket2,null,images/rocket2,NA,1,real,null,1,NA,NA,NA,sub71
d3-animate-choice,277,857321,0.0-76.0-1.47,FALSE,TRUE,FALSE,FALSE,"""event"",""trial"",""time""
""fullscreenenter"",""5"",""15383""
","
","
","""event"",""trial"",""time""
""fullscreenenter"",""5"",""15383""
","
",846,NA,48,NA,NA,3000,1,NA,NA,images/purpleplanet.jpg,images/alien4,images/alien3,images/rocket2,images/alien4,images/nothing.png,2,real,true,2,common,0,2020-06-16T18:01:29Z,sub71
two-step-fixation,278,858323,0.0-76.0-2.47,FALSE,TRUE,FALSE,FALSE,"""event"",""trial"",""time""
""fullscreenenter"",""5"",""15383""
","
","
","""event"",""trial"",""time""
""fullscreenenter"",""5"",""15383""
","
",NA,images/earth.jpg,NA,NA,NA,NA,NA,NA,NA,NA,NA,NA,NA,NA,NA,fixation,NA,NA,NA,NA,NA,NA,sub71
d3-animate-choice,279,860673,0.0-76.0-0.48,FALSE,TRUE,FALSE,FALSE,"""event"",""trial"",""time""
""fullscreenenter"",""5"",""15383""
","
","
","""event"",""trial"",""time""
""fullscreenenter"",""5"",""15383""
","
",347,NA,49,NA,NA,3000,1,NA,NA,images/earth.jpg,images/rocket1,images/rocket2,null,images/rocket2,NA,1,real,null,1,NA,NA,NA,sub71
d3-animate-choice,280,864361,0.0-76.0-1.48,FALSE,TRUE,FALSE,FALSE,"""event"",""trial"",""time""
""fullscreenenter"",""5"",""15383""
","
","
","""event"",""trial"",""time""
""fullscreenenter"",""5"",""15383""
","
",1229.0000000001164,NA,50,NA,NA,3000,1,1685,49,images/redplanet1.jpg,images/alien2,images/alien1,images/rocket2,images/alien1,images/t.png,2,real,false,NA,rare,1,2020-06-16T18:01:36Z,sub71
two-step-fixation,281,865362,0.0-76.0-2.48,FALSE,TRUE,FALSE,FALSE,"""event"",""trial"",""time""
""fullscreenenter"",""5"",""15383""
","
","
","""event"",""trial"",""time""
""fullscreenenter"",""5"",""15383""
","
",NA,images/earth.jpg,NA,NA,NA,NA,NA,NA,NA,NA,NA,NA,NA,NA,NA,fixation,NA,NA,NA,NA,NA,NA,sub71
d3-animate-choice,282,867761,0.0-76.0-0.49,FALSE,TRUE,FALSE,FALSE,"""event"",""trial"",""time""
""fullscreenenter"",""5"",""15383""
","
","
","""event"",""trial"",""time""
""fullscreenenter"",""5"",""15383""
","
",396,NA,49,NA,NA,3000,1,NA,NA,images/earth.jpg,images/rocket1,images/rocket2,null,images/rocket2,NA,1,real,null,1,NA,NA,NA,sub71
d3-animate-choice,283,870744,0.0-76.0-1.49,FALSE,TRUE,FALSE,FALSE,"""event"",""trial"",""time""
""fullscreenenter"",""5"",""15383""
","
","
","""event"",""trial"",""time""
""fullscreenenter"",""5"",""15383""
","
",981,NA,49,NA,NA,3000,1,NA,NA,images/redplanet1.jpg,images/alien2,images/alien1,images/rocket2,images/alien1,images/t.png,2,real,false,1,rare,1,2020-06-16T18:01:42Z,sub71
two-step-fixation,284,871746,0.0-76.0-2.49,FALSE,TRUE,FALSE,FALSE,"""event"",""trial"",""time""
""fullscreenenter"",""5"",""15383""
","
","
","""event"",""trial"",""time""
""fullscreenenter"",""5"",""15383""
","
",NA,images/earth.jpg,NA,NA,NA,NA,NA,NA,NA,NA,NA,NA,NA,NA,NA,fixation,NA,NA,NA,NA,NA,NA,sub71
audio-button-response-2,285,891152,0.0-77.0,FALSE,TRUE,FALSE,FALSE,"""event"",""trial"",""time""
""fullscreenenter"",""5"",""15383""
","
","
","""event"",""trial"",""time""
""fullscreenenter"",""5"",""15383""
","
",19405,audio/instructions/break_1.wav,NA,0,NA,NA,NA,NA,NA,NA,NA,NA,NA,NA,NA,NA,NA,NA,NA,NA,NA,NA,sub71
d3-animate-choice,286,894065,0.0-78.0-0.0,FALSE,TRUE,FALSE,FALSE,"""event"",""trial"",""time""
""fullscreenenter"",""5"",""15383""
","
","
","""event"",""trial"",""time""
""fullscreenenter"",""5"",""15383""
","
",909,NA,49,NA,NA,3000,1,NA,NA,images/earth.jpg,images/rocket1,images/rocket2,null,images/rocket2,NA,1,real,null,1,NA,NA,NA,sub71
d3-animate-choice,287,896825,0.0-78.0-1.0,FALSE,TRUE,FALSE,FALSE,"""event"",""trial"",""time""
""fullscreenenter"",""5"",""15383""
","
","
","""event"",""trial"",""time""
""fullscreenenter"",""5"",""15383""
","
",756.9999999998836,NA,49,NA,NA,3000,1,NA,NA,images/purpleplanet.jpg,images/alien4,images/alien3,images/rocket2,images/alien3,images/nothing.png,2,real,true,1,common,0,2020-06-16T18:02:08Z,sub71
two-step-fixation,288,897826,0.0-78.0-2.0,FALSE,TRUE,FALSE,FALSE,"""event"",""trial"",""time""
