trial_type,trial_index,time_elapsed,internal_node_id,rocket_sides,red_planet_first_rocket,red_display_order,purple_display_order,interactions,blur_events,focus_events,fullscreenenter_events,fullscreenexit_events,rt,stimulus,key_press,button_pressed,success,duration,valid_pressed,rts,keys,planet_text,right_text,left_text,center_text,chosen_text,reward_text,trial_stage,practice_trial,transition_type,choice,transition,reward,timestamp,subject_id
pavlovia,0,8,0.0-0.0,FALSE,FALSE,FALSE,FALSE,"
","
","
","
","
",NA,NA,NA,NA,NA,NA,NA,NA,NA,NA,NA,NA,NA,NA,NA,NA,NA,NA,NA,NA,NA,NA,sub127
html-keyboard-response,1,1618,0.0-1.0,FALSE,FALSE,FALSE,FALSE,"
","
","
","
","
",1608.074999996461,Welcome! Press the space bar to begin.,32,NA,NA,NA,NA,NA,NA,NA,NA,NA,NA,NA,NA,NA,NA,NA,NA,NA,NA,NA,sub127
audio-keyboard-response,2,7856,0.0-2.0,FALSE,FALSE,FALSE,FALSE,"
","
","
","
","
",6021,audio/beep_loop.wav,32,NA,NA,NA,NA,NA,NA,NA,NA,NA,NA,NA,NA,NA,NA,NA,NA,NA,NA,NA,sub127
audio-button-response,3,10001,0.0-3.0,FALSE,FALSE,FALSE,FALSE,"
","
","
","
","
",NaN,audio/fish.mp3,NA,1,NA,NA,NA,NA,NA,NA,NA,NA,NA,NA,NA,NA,NA,NA,NA,NA,NA,NA,sub127
audio-button-response,4,12888,0.0-4.0,FALSE,FALSE,FALSE,FALSE,"""event"",""trial"",""time""
""fullscreenenter"",""5"",""16303""
","
","
","""event"",""trial"",""time""
""fullscreenenter"",""5"",""16303""
","
",NaN,audio/tiger.mp3,NA,4,NA,NA,NA,NA,NA,NA,NA,NA,NA,NA,NA,NA,NA,NA,NA,NA,NA,NA,sub127
fullscreen,5,17273,0.0-5.0,FALSE,FALSE,FALSE,FALSE,"""event"",""trial"",""time""
""fullscreenenter"",""5"",""16303""
","
","
","""event"",""trial"",""time""
""fullscreenenter"",""5"",""16303""
","
",NA,NA,NA,NA,TRUE,NA,NA,NA,NA,NA,NA,NA,NA,NA,NA,NA,NA,NA,NA,NA,NA,NA,sub127
d3-instructions,6,26328,0.0-6.0,FALSE,FALSE,FALSE,FALSE,"""event"",""trial"",""time""
""fullscreenenter"",""5"",""16303""
","
","
","""event"",""trial"",""time""
""fullscreenenter"",""5"",""16303""
","
",NA,NA,NA,NA,NA,NA,NA,NA,NA,NA,NA,NA,NA,NA,NA,NA,NA,NA,NA,NA,NA,NA,sub127
d3-instructions,7,36432,0.0-7.0,FALSE,FALSE,FALSE,FALSE,"""event"",""trial"",""time""
""fullscreenenter"",""5"",""16303""
","
","
","""event"",""trial"",""time""
""fullscreenenter"",""5"",""16303""
","
",NA,NA,NA,NA,NA,NA,NA,NA,NA,NA,NA,NA,NA,NA,NA,NA,NA,NA,NA,NA,NA,NA,sub127
d3-instructions,8,44729,0.0-8.0,FALSE,FALSE,FALSE,FALSE,"""event"",""trial"",""time""
""fullscreenenter"",""5"",""16303""
","
","
","""event"",""trial"",""time""
""fullscreenenter"",""5"",""16303""
","
",NA,NA,NA,NA,NA,NA,NA,NA,NA,NA,NA,NA,NA,NA,NA,NA,NA,NA,NA,NA,NA,NA,sub127
d3-instructions,9,56152,0.0-9.0,FALSE,FALSE,FALSE,FALSE,"""event"",""trial"",""time""
""fullscreenenter"",""5"",""16303""
","
","
","""event"",""trial"",""time""
""fullscreenenter"",""5"",""16303""
","
",NA,NA,NA,NA,NA,NA,NA,NA,NA,NA,NA,NA,NA,NA,NA,NA,NA,NA,NA,NA,NA,NA,sub127
d3-instructions,10,74745,0.0-10.0,FALSE,FALSE,FALSE,FALSE,"""event"",""trial"",""time""
""fullscreenenter"",""5"",""16303""
","
","
","""event"",""trial"",""time""
""fullscreenenter"",""5"",""16303""
","
",NA,NA,NA,NA,NA,NA,NA,NA,NA,NA,NA,NA,NA,NA,NA,NA,NA,NA,NA,NA,NA,NA,sub127
d3-animate-choice,11,77718,0.0-11.0,FALSE,FALSE,FALSE,FALSE,"""event"",""trial"",""time""
""fullscreenenter"",""5"",""16303""
","
","
","""event"",""trial"",""time""
""fullscreenenter"",""5"",""16303""
","
",965.1600000215694,NA,49,NA,NA,3000,1,"1140.8850000007078,2020.9150000009686,2789.1250000102445",484948,images/tutgreenplanet.jpg,images/tutalien1,images/tutalien2,null,images/tutalien2,NA,NA,practice,null,NA,NA,NA,NA,sub127
d3-animate-choice,12,80706,0.0-12.0,FALSE,FALSE,FALSE,FALSE,"""event"",""trial"",""time""
""fullscreenenter"",""5"",""16303""
","
","
","""event"",""trial"",""time""
""fullscreenenter"",""5"",""16303""
","
",983.5599999642,NA,48,NA,NA,3000,1,NA,NA,images/tutgreenplanet.jpg,images/tutalien1,images/tutalien2,null,images/tutalien1,NA,NA,practice,null,NA,NA,NA,NA,sub127
d3-animate-choice,13,84442,0.0-13.0,FALSE,FALSE,FALSE,FALSE,"""event"",""trial"",""time""
""fullscreenenter"",""5"",""16303""
","
","
","""event"",""trial"",""time""
""fullscreenenter"",""5"",""16303""
","
",1732.2949999943376,NA,49,NA,NA,3000,1,NA,NA,images/tutgreenplanet.jpg,images/tutalien1,images/tutalien2,null,images/tutalien2,NA,NA,practice,null,NA,NA,NA,NA,sub127
d3-animate-choice,14,86929,0.0-14.0,FALSE,FALSE,FALSE,FALSE,"""event"",""trial"",""time""
""fullscreenenter"",""5"",""16303""
","
","
","""event"",""trial"",""time""
""fullscreenenter"",""5"",""16303""
","
",484.61499996483326,NA,48,NA,NA,3000,1,NA,NA,images/tutgreenplanet.jpg,images/tutalien1,images/tutalien2,null,images/tutalien1,NA,NA,practice,null,NA,NA,NA,NA,sub127
d3-instructions,15,95474,0.0-15.0,FALSE,FALSE,FALSE,FALSE,"""event"",""trial"",""time""
""fullscreenenter"",""5"",""16303""
","
","
","""event"",""trial"",""time""
""fullscreenenter"",""5"",""16303""
","
",NA,NA,NA,NA,NA,NA,NA,NA,NA,NA,NA,NA,NA,NA,NA,NA,NA,NA,NA,NA,NA,NA,sub127
d3-instructions,16,102300,0.0-16.0,FALSE,FALSE,FALSE,FALSE,"""event"",""trial"",""time""
""fullscreenenter"",""5"",""16303""
","
","
","""event"",""trial"",""time""
""fullscreenenter"",""5"",""16303""
","
",NA,NA,NA,NA,NA,NA,NA,NA,NA,NA,NA,NA,NA,NA,NA,NA,NA,NA,NA,NA,NA,NA,sub127
d3-instructions,17,107075,0.0-17.0,FALSE,FALSE,FALSE,FALSE,"""event"",""trial"",""time""
""fullscreenenter"",""5"",""16303""
","
","
","""event"",""trial"",""time""
""fullscreenenter"",""5"",""16303""
","
",NA,NA,NA,NA,NA,NA,NA,NA,NA,NA,NA,NA,NA,NA,NA,NA,NA,NA,NA,NA,NA,NA,sub127
d3-instructions,18,117785,0.0-18.0,FALSE,FALSE,FALSE,FALSE,"""event"",""trial"",""time""
""fullscreenenter"",""5"",""16303""
","
","
","""event"",""trial"",""time""
""fullscreenenter"",""5"",""16303""
","
",NA,NA,NA,NA,NA,NA,NA,NA,NA,NA,NA,NA,NA,NA,NA,NA,NA,NA,NA,NA,NA,NA,sub127
d3-instructions,19,127497,0.0-19.0,FALSE,FALSE,FALSE,FALSE,"""event"",""trial"",""time""
""fullscreenenter"",""5"",""16303""
","
","
","""event"",""trial"",""time""
""fullscreenenter"",""5"",""16303""
","
",NA,NA,NA,NA,NA,NA,NA,NA,NA,NA,NA,NA,NA,NA,NA,NA,NA,NA,NA,NA,NA,NA,sub127
d3-animate-choice,20,130372,0.0-20.0,FALSE,FALSE,FALSE,FALSE,"""event"",""trial"",""time""
""fullscreenenter"",""5"",""16303""
","
","
","""event"",""trial"",""time""
""fullscreenenter"",""5"",""16303""
","
",871.5650000376627,NA,49,NA,NA,3000,1,NA,NA,images/tutyellowplanet.jpg,null,images/tutalien3,null,images/tutalien3,images/t.png,NA,practice,null,NA,NA,NA,NA,sub127
d3-animate-choice,21,132867,0.0-21.0,FALSE,FALSE,FALSE,FALSE,"""event"",""trial"",""time""
""fullscreenenter"",""5"",""16303""
","
","
","""event"",""trial"",""time""
""fullscreenenter"",""5"",""16303""
","
",482.14500001631677,NA,49,NA,NA,3000,1,1961.1499999882653,49,images/tutyellowplanet.jpg,null,images/tutalien3,null,images/tutalien3,images/t.png,NA,practice,null,NA,NA,NA,NA,sub127
d3-animate-choice,22,135098,0.0-22.0,FALSE,FALSE,FALSE,FALSE,"""event"",""trial"",""time""
""fullscreenenter"",""5"",""16303""
","
","
","""event"",""trial"",""time""
""fullscreenenter"",""5"",""16303""
","
",226.43000003881752,NA,49,NA,NA,3000,1,1666.9649999821559,49,images/tutyellowplanet.jpg,null,images/tutalien3,null,images/tutalien3,images/t.png,NA,practice,null,NA,NA,NA,NA,sub127
d3-animate-choice,23,137355,0.0-23.0,FALSE,FALSE,FALSE,FALSE,"""event"",""trial"",""time""
""fullscreenenter"",""5"",""16303""
","
","
","""event"",""trial"",""time""
""fullscreenenter"",""5"",""16303""
","
",250.89499994646758,NA,49,NA,NA,3000,1,1858.7999999290332,49,images/tutyellowplanet.jpg,null,images/tutalien3,null,images/tutalien3,images/t.png,NA,practice,null,NA,NA,NA,NA,sub127
d3-animate-choice,24,139594,0.0-24.0,FALSE,FALSE,FALSE,FALSE,"""event"",""trial"",""time""
""fullscreenenter"",""5"",""16303""
","
","
","""event"",""trial"",""time""
""fullscreenenter"",""5"",""16303""
","
",236.8350001052022,NA,49,NA,NA,3000,1,NA,NA,images/tutyellowplanet.jpg,null,images/tutalien3,null,images/tutalien3,images/t.png,NA,practice,null,NA,NA,NA,NA,sub127
d3-animate-choice,25,141683,0.0-25.0,FALSE,FALSE,FALSE,FALSE,"""event"",""trial"",""time""
""fullscreenenter"",""5"",""16303""
","
","
","""event"",""trial"",""time""
""fullscreenenter"",""5"",""16303""
","
",85.26000007987022,NA,49,NA,NA,3000,1,NA,NA,images/tutyellowplanet.jpg,null,images/tutalien3,null,images/tutalien3,images/t.png,NA,practice,null,NA,NA,NA,NA,sub127
d3-animate-choice,26,143749,0.0-26.0,FALSE,FALSE,FALSE,FALSE,"""event"",""trial"",""time""
""fullscreenenter"",""5"",""16303""
","
","
","""event"",""trial"",""time""
""fullscreenenter"",""5"",""16303""
","
",57.26499995216727,NA,49,NA,NA,3000,1,"1529.3100000126287,2016.2850000197068",4949,images/tutyellowplanet.jpg,null,images/tutalien3,null,images/tutalien3,images/t.png,NA,practice,null,NA,NA,NA,NA,sub127
d3-animate-choice,27,146178,0.0-27.0,FALSE,FALSE,FALSE,FALSE,"""event"",""trial"",""time""
""fullscreenenter"",""5"",""16303""
","
","
","""event"",""trial"",""time""
""fullscreenenter"",""5"",""16303""
","
",426.0200000135228,NA,49,NA,NA,3000,1,NA,NA,images/tutyellowplanet.jpg,null,images/tutalien3,null,images/tutalien3,images/t.png,NA,practice,null,NA,NA,NA,NA,sub127
d3-animate-choice,28,148458,0.0-28.0,FALSE,FALSE,FALSE,FALSE,"""event"",""trial"",""time""
""fullscreenenter"",""5"",""16303""
","
","
","""event"",""trial"",""time""
""fullscreenenter"",""5"",""16303""
","
",275.7650000276044,NA,49,NA,NA,3000,1,NA,NA,images/tutyellowplanet.jpg,null,images/tutalien3,null,images/tutalien3,images/t.png,NA,practice,null,NA,NA,NA,NA,sub127
d3-animate-choice,29,150850,0.0-29.0,FALSE,FALSE,FALSE,FALSE,"""event"",""trial"",""time""
""fullscreenenter"",""5"",""16303""
","
","
","""event"",""trial"",""time""
""fullscreenenter"",""5"",""16303""
","
",388.52500007487833,NA,49,NA,NA,3000,1,NA,NA,images/tutyellowplanet.jpg,null,images/tutalien3,null,images/tutalien3,images/t.png,NA,practice,null,NA,NA,NA,NA,sub127
d3-instructions,30,158745,0.0-30.0,FALSE,FALSE,FALSE,FALSE,"""event"",""trial"",""time""
""fullscreenenter"",""5"",""16303""
","
","
","""event"",""trial"",""time""
""fullscreenenter"",""5"",""16303""
","
",NA,NA,NA,NA,NA,NA,NA,NA,NA,NA,NA,NA,NA,NA,NA,NA,NA,NA,NA,NA,NA,NA,sub127
d3-instructions,31,167874,0.0-31.0,FALSE,FALSE,FALSE,FALSE,"""event"",""trial"",""time""
""fullscreenenter"",""5"",""16303""
","
","
","""event"",""trial"",""time""
""fullscreenenter"",""5"",""16303""
","
",NA,NA,NA,NA,NA,NA,NA,NA,NA,NA,NA,NA,NA,NA,NA,NA,NA,NA,NA,NA,NA,NA,sub127
d3-instructions,32,174505,0.0-32.0,FALSE,FALSE,FALSE,FALSE,"""event"",""trial"",""time""
""fullscreenenter"",""5"",""16303""
","
","
","""event"",""trial"",""time""
""fullscreenenter"",""5"",""16303""
","
",NA,NA,NA,NA,NA,NA,NA,NA,NA,NA,NA,NA,NA,NA,NA,NA,NA,NA,NA,NA,NA,NA,sub127
d3-instructions,33,176809,0.0-33.0,FALSE,FALSE,FALSE,FALSE,"""event"",""trial"",""time""
""fullscreenenter"",""5"",""16303""
","
","
","""event"",""trial"",""time""
""fullscreenenter"",""5"",""16303""
","
",NA,NA,NA,NA,NA,NA,NA,NA,NA,NA,NA,NA,NA,NA,NA,NA,NA,NA,NA,NA,NA,NA,sub127
d3-animate-choice,34,180450,0.0-34.0,FALSE,FALSE,FALSE,FALSE,"""event"",""trial"",""time""
""fullscreenenter"",""5"",""16303""
","
","
","""event"",""trial"",""time""
""fullscreenenter"",""5"",""16303""
","
",1638.3249999489635,NA,49,NA,NA,3000,1,NA,NA,images/tutgreenplanet.jpg,images/tutalien1,images/tutalien2,null,images/tutalien2,images/t.png,NA,practice,null,NA,NA,NA,NA,sub127
d3-animate-choice,35,182828,0.0-35.0,FALSE,FALSE,FALSE,FALSE,"""event"",""trial"",""time""
""fullscreenenter"",""5"",""16303""
","
","
","""event"",""trial"",""time""
""fullscreenenter"",""5"",""16303""
","
",325.13000001199543,NA,49,NA,NA,3000,1,NA,NA,images/tutgreenplanet.jpg,images/tutalien1,images/tutalien2,null,images/tutalien2,images/t.png,NA,practice,null,NA,NA,NA,NA,sub127
d3-animate-choice,36,185172,0.0-36.0,FALSE,FALSE,FALSE,FALSE,"""event"",""trial"",""time""
""fullscreenenter"",""5"",""16303""
","
","
","""event"",""trial"",""time""
""fullscreenenter"",""5"",""16303""
","
",338.1150000495836,NA,49,NA,NA,3000,1,NA,NA,images/tutgreenplanet.jpg,images/tutalien1,images/tutalien2,null,images/tutalien2,images/t.png,NA,practice,null,NA,NA,NA,NA,sub127
d3-animate-choice,37,187523,0.0-37.0,FALSE,FALSE,FALSE,FALSE,"""event"",""trial"",""time""
""fullscreenenter"",""5"",""16303""
","
","
","""event"",""trial"",""time""
""fullscreenenter"",""5"",""16303""
","
",346.8049999792129,NA,49,NA,NA,3000,1,NA,NA,images/tutgreenplanet.jpg,images/tutalien1,images/tutalien2,null,images/tutalien2,images/t.png,NA,practice,null,NA,NA,NA,NA,sub127
d3-animate-choice,38,189875,0.0-38.0,FALSE,FALSE,FALSE,FALSE,"""event"",""trial"",""time""
""fullscreenenter"",""5"",""16303""
","
","
","""event"",""trial"",""time""
""fullscreenenter"",""5"",""16303""
","
",347.33000001870096,NA,49,NA,NA,3000,1,NA,NA,images/tutgreenplanet.jpg,images/tutalien1,images/tutalien2,null,images/tutalien2,images/t.png,NA,practice,null,NA,NA,NA,NA,sub127
d3-animate-choice,39,192500,0.0-39.0,FALSE,FALSE,FALSE,FALSE,"""event"",""trial"",""time""
""fullscreenenter"",""5"",""16303""
","
","
","""event"",""trial"",""time""
""fullscreenenter"",""5"",""16303""
","
",618.724999949336,NA,49,NA,NA,3000,1,NA,NA,images/tutgreenplanet.jpg,images/tutalien1,images/tutalien2,null,images/tutalien2,images/t.png,NA,practice,null,NA,NA,NA,NA,sub127
d3-animate-choice,40,194909,0.0-40.0,FALSE,FALSE,FALSE,FALSE,"""event"",""trial"",""time""
""fullscreenenter"",""5"",""16303""
","
","
","""event"",""trial"",""time""
""fullscreenenter"",""5"",""16303""
","
",384.47500008624047,NA,49,NA,NA,3000,1,NA,NA,images/tutgreenplanet.jpg,images/tutalien1,images/tutalien2,null,images/tutalien2,images/t.png,NA,practice,null,NA,NA,NA,NA,sub127
d3-animate-choice,41,197340,0.0-41.0,FALSE,FALSE,FALSE,FALSE,"""event"",""trial"",""time""
""fullscreenenter"",""5"",""16303""
","
","
","""event"",""trial"",""time""
""fullscreenenter"",""5"",""16303""
","
",423.19500003941357,NA,49,NA,NA,3000,1,NA,NA,images/tutgreenplanet.jpg,images/tutalien1,images/tutalien2,null,images/tutalien2,images/t.png,NA,practice,null,NA,NA,NA,NA,sub127
d3-animate-choice,42,199809,0.0-42.0,FALSE,FALSE,FALSE,FALSE,"""event"",""trial"",""time""
""fullscreenenter"",""5"",""16303""
","
","
","""event"",""trial"",""time""
""fullscreenenter"",""5"",""16303""
","
",466.14999999292195,NA,49,NA,NA,3000,1,NA,NA,images/tutgreenplanet.jpg,images/tutalien1,images/tutalien2,null,images/tutalien2,images/nothing.png,NA,practice,null,NA,NA,NA,NA,sub127
d3-animate-choice,43,202474,0.0-43.0,FALSE,FALSE,FALSE,FALSE,"""event"",""trial"",""time""
""fullscreenenter"",""5"",""16303""
","
","
","""event"",""trial"",""time""
""fullscreenenter"",""5"",""16303""
","
",660.7450000010431,NA,49,NA,NA,3000,1,NA,NA,images/tutgreenplanet.jpg,images/tutalien1,images/tutalien2,null,images/tutalien2,images/t.png,NA,practice,null,NA,NA,NA,NA,sub127
d3-instructions,44,217448,0.0-44.0,FALSE,FALSE,FALSE,FALSE,"""event"",""trial"",""time""
""fullscreenenter"",""5"",""16303""
","
","
","""event"",""trial"",""time""
""fullscreenenter"",""5"",""16303""
","
",NA,NA,NA,NA,NA,NA,NA,NA,NA,NA,NA,NA,NA,NA,NA,NA,NA,NA,NA,NA,NA,NA,sub127
d3-instructions,45,220704,0.0-45.0,FALSE,FALSE,FALSE,FALSE,"""event"",""trial"",""time""
""fullscreenenter"",""5"",""16303""
","
","
","""event"",""trial"",""time""
""fullscreenenter"",""5"",""16303""
","
",NA,NA,NA,NA,NA,NA,NA,NA,NA,NA,NA,NA,NA,NA,NA,NA,NA,NA,NA,NA,NA,NA,sub127
d3-instructions,46,225376,0.0-46.0,FALSE,FALSE,FALSE,FALSE,"""event"",""trial"",""time""
""fullscreenenter"",""5"",""16303""
","
","
","""event"",""trial"",""time""
""fullscreenenter"",""5"",""16303""
","
",NA,NA,NA,NA,NA,NA,NA,NA,NA,NA,NA,NA,NA,NA,NA,NA,NA,NA,NA,NA,NA,NA,sub127
d3-instructions,47,241952,0.0-47.0,FALSE,FALSE,FALSE,FALSE,"""event"",""trial"",""time""
""fullscreenenter"",""5"",""16303""
","
","
","""event"",""trial"",""time""
""fullscreenenter"",""5"",""16303""
","
",NA,NA,NA,NA,NA,NA,NA,NA,NA,NA,NA,NA,NA,NA,NA,NA,NA,NA,NA,NA,NA,NA,sub127
d3-instructions,48,249449,0.0-48.0,FALSE,FALSE,FALSE,FALSE,"""event"",""trial"",""time""
""fullscreenenter"",""5"",""16303""
","
","
","""event"",""trial"",""time""
""fullscreenenter"",""5"",""16303""
","
",NA,NA,NA,NA,NA,NA,NA,NA,NA,NA,NA,NA,NA,NA,NA,NA,NA,NA,NA,NA,NA,NA,sub127
d3-instructions,49,257568,0.0-49.0,FALSE,FALSE,FALSE,FALSE,"""event"",""trial"",""time""
""fullscreenenter"",""5"",""16303""
","
","
","""event"",""trial"",""time""
""fullscreenenter"",""5"",""16303""
","
",NA,NA,NA,NA,NA,NA,NA,NA,NA,NA,NA,NA,NA,NA,NA,NA,NA,NA,NA,NA,NA,NA,sub127
d3-instructions,50,261249,0.0-50.0,FALSE,FALSE,FALSE,FALSE,"""event"",""trial"",""time""
""fullscreenenter"",""5"",""16303""
","
","
","""event"",""trial"",""time""
""fullscreenenter"",""5"",""16303""
","
",NA,NA,NA,NA,NA,NA,NA,NA,NA,NA,NA,NA,NA,NA,NA,NA,NA,NA,NA,NA,NA,NA,sub127
d3-instructions,51,263089,0.0-51.0,FALSE,FALSE,FALSE,FALSE,"""event"",""trial"",""time""
""fullscreenenter"",""5"",""16303""
","
","
","""event"",""trial"",""time""
""fullscreenenter"",""5"",""16303""
","
",NA,NA,NA,NA,NA,NA,NA,NA,NA,NA,NA,NA,NA,NA,NA,NA,NA,NA,NA,NA,NA,NA,sub127
d3-instructions,52,264464,0.0-52.0,FALSE,FALSE,FALSE,FALSE,"""event"",""trial"",""time""
""fullscreenenter"",""5"",""16303""
","
","
","""event"",""trial"",""time""
""fullscreenenter"",""5"",""16303""
","
",NA,NA,NA,NA,NA,NA,NA,NA,NA,NA,NA,NA,NA,NA,NA,NA,NA,NA,NA,NA,NA,NA,sub127
d3-instructions,53,277018,0.0-53.0,FALSE,FALSE,FALSE,FALSE,"""event"",""trial"",""time""
""fullscreenenter"",""5"",""16303""
","
","
","""event"",""trial"",""time""
""fullscreenenter"",""5"",""16303""
","
",NA,NA,NA,NA,NA,NA,NA,NA,NA,NA,NA,NA,NA,NA,NA,NA,NA,NA,NA,NA,NA,NA,sub127
d3-instructions,54,289418,0.0-54.0,FALSE,FALSE,FALSE,FALSE,"""event"",""trial"",""time""
""fullscreenenter"",""5"",""16303""
","
","
","""event"",""trial"",""time""
""fullscreenenter"",""5"",""16303""
","
",NA,NA,NA,NA,NA,NA,NA,NA,NA,NA,NA,NA,NA,NA,NA,NA,NA,NA,NA,NA,NA,NA,sub127
d3-instructions,55,293914,0.0-55.0,FALSE,FALSE,FALSE,FALSE,"""event"",""trial"",""time""
""fullscreenenter"",""5"",""16303""
","
","
","""event"",""trial"",""time""
""fullscreenenter"",""5"",""16303""
","
",NA,NA,NA,NA,NA,NA,NA,NA,NA,NA,NA,NA,NA,NA,NA,NA,NA,NA,NA,NA,NA,NA,sub127
d3-instructions,56,300418,0.0-56.0,FALSE,FALSE,FALSE,FALSE,"""event"",""trial"",""time""
""fullscreenenter"",""5"",""16303""
","
","
","""event"",""trial"",""time""
""fullscreenenter"",""5"",""16303""
","
",NA,NA,NA,NA,NA,NA,NA,NA,NA,NA,NA,NA,NA,NA,NA,NA,NA,NA,NA,NA,NA,NA,sub127
d3-instructions,57,308433,0.0-57.0,FALSE,FALSE,FALSE,FALSE,"""event"",""trial"",""time""
""fullscreenenter"",""5"",""16303""
","
","
","""event"",""trial"",""time""
""fullscreenenter"",""5"",""16303""
","
",NA,NA,NA,NA,NA,NA,NA,NA,NA,NA,NA,NA,NA,NA,NA,NA,NA,NA,NA,NA,NA,NA,sub127
d3-instructions,58,315488,0.0-58.0,FALSE,FALSE,FALSE,FALSE,"""event"",""trial"",""time""
""fullscreenenter"",""5"",""16303""
","
","
","""event"",""trial"",""time""
""fullscreenenter"",""5"",""16303""
","
",NA,NA,NA,NA,NA,NA,NA,NA,NA,NA,NA,NA,NA,NA,NA,NA,NA,NA,NA,NA,NA,NA,sub127
d3-instructions,59,318258,0.0-59.0,FALSE,FALSE,FALSE,FALSE,"""event"",""trial"",""time""
""fullscreenenter"",""5"",""16303""
","
","
","""event"",""trial"",""time""
""fullscreenenter"",""5"",""16303""
","
",NA,NA,NA,NA,NA,NA,NA,NA,NA,NA,NA,NA,NA,NA,NA,NA,NA,NA,NA,NA,NA,NA,sub127
d3-instructions,60,320465,0.0-60.0,FALSE,FALSE,FALSE,FALSE,"""event"",""trial"",""time""
""fullscreenenter"",""5"",""16303""
","
","
","""event"",""trial"",""time""
""fullscreenenter"",""5"",""16303""
","
",NA,NA,NA,NA,NA,NA,NA,NA,NA,NA,NA,NA,NA,NA,NA,NA,NA,NA,NA,NA,NA,NA,sub127
d3-animate-choice,61,323274,0.0-61.0-0.0,FALSE,FALSE,FALSE,FALSE,"""event"",""trial"",""time""
""fullscreenenter"",""5"",""16303""
","
","
","""event"",""trial"",""time""
""fullscreenenter"",""5"",""16303""
","
",804.865000071004,NA,49,NA,NA,3000,1,NA,NA,images/earth.jpg,images/tutrocket2,images/tutrocket1,null,images/tutrocket1,NA,1,practice,null,1,NA,NA,NA,sub127
d3-animate-choice,62,326349,0.0-61.0-1.0,FALSE,FALSE,FALSE,FALSE,"""event"",""trial"",""time""
""fullscreenenter"",""5"",""16303""
","
","
","""event"",""trial"",""time""
""fullscreenenter"",""5"",""16303""
","
",1068.8200000440702,NA,49,NA,NA,3000,1,NA,NA,images/tutyellowplanet.jpg,images/tutalien4,images/tutalien3,images/tutrocket1,images/tutalien3,images/nothing.png,2,practice,true,1,common,0,2020-06-23T20:53:08Z,sub127
two-step-fixation,63,327355,0.0-61.0-2.0,FALSE,FALSE,FALSE,FALSE,"""event"",""trial"",""time""
""fullscreenenter"",""5"",""16303""
","
","
","""event"",""trial"",""time""
""fullscreenenter"",""5"",""16303""
","
",NA,images/earth.jpg,NA,NA,NA,NA,NA,NA,NA,NA,NA,NA,NA,NA,NA,fixation,NA,NA,NA,NA,NA,NA,sub127
d3-animate-choice,64,330390,0.0-61.0-0.1,FALSE,FALSE,FALSE,FALSE,"""event"",""trial"",""time""
""fullscreenenter"",""5"",""16303""
","
","
","""event"",""trial"",""time""
""fullscreenenter"",""5"",""16303""
","
",1029.8100000945851,NA,49,NA,NA,3000,1,NA,NA,images/earth.jpg,images/tutrocket2,images/tutrocket1,null,images/tutrocket1,NA,1,practice,null,1,NA,NA,NA,sub127
d3-animate-choice,65,333202,0.0-61.0-1.1,FALSE,FALSE,FALSE,FALSE,"""event"",""trial"",""time""
""fullscreenenter"",""5"",""16303""
","
","
","""event"",""trial"",""time""
""fullscreenenter"",""5"",""16303""
","
",809.2100000940263,NA,49,NA,NA,3000,1,NA,NA,images/tutyellowplanet.jpg,images/tutalien4,images/tutalien3,images/tutrocket1,images/tutalien3,images/t.png,2,practice,true,1,common,1,2020-06-23T20:53:15Z,sub127
two-step-fixation,66,334207,0.0-61.0-2.1,FALSE,FALSE,FALSE,FALSE,"""event"",""trial"",""time""
""fullscreenenter"",""5"",""16303""
","
","
","""event"",""trial"",""time""
""fullscreenenter"",""5"",""16303""
","
",NA,images/earth.jpg,NA,NA,NA,NA,NA,NA,NA,NA,NA,NA,NA,NA,NA,fixation,NA,NA,NA,NA,NA,NA,sub127
d3-animate-choice,67,336578,0.0-61.0-0.2,FALSE,FALSE,FALSE,FALSE,"""event"",""trial"",""time""
""fullscreenenter"",""5"",""16303""
","
","
","""event"",""trial"",""time""
""fullscreenenter"",""5"",""16303""
","
",367.57500004023314,NA,49,NA,NA,3000,1,NA,NA,images/earth.jpg,images/tutrocket2,images/tutrocket1,null,images/tutrocket1,NA,1,practice,null,1,NA,NA,NA,sub127
d3-animate-choice,68,338868,0.0-61.0-1.2,FALSE,FALSE,FALSE,FALSE,"""event"",""trial"",""time""
""fullscreenenter"",""5"",""16303""
","
","
","""event"",""trial"",""time""
""fullscreenenter"",""5"",""16303""
","
",279.8500000499189,NA,49,NA,NA,3000,1,NA,NA,images/tutyellowplanet.jpg,images/tutalien4,images/tutalien3,images/tutrocket1,images/tutalien3,images/t.png,2,practice,true,1,common,1,2020-06-23T20:53:21Z,sub127
two-step-fixation,69,339872,0.0-61.0-2.2,FALSE,FALSE,FALSE,FALSE,"""event"",""trial"",""time""
""fullscreenenter"",""5"",""16303""
","
","
","""event"",""trial"",""time""
""fullscreenenter"",""5"",""16303""
","
",NA,images/earth.jpg,NA,NA,NA,NA,NA,NA,NA,NA,NA,NA,NA,NA,NA,fixation,NA,NA,NA,NA,NA,NA,sub127
d3-animate-choice,70,342227,0.0-61.0-0.3,FALSE,FALSE,FALSE,FALSE,"""event"",""trial"",""time""
""fullscreenenter"",""5"",""16303""
","
","
","""event"",""trial"",""time""
""fullscreenenter"",""5"",""16303""
","
",347.47999999672174,NA,49,NA,NA,3000,1,NA,NA,images/earth.jpg,images/tutrocket2,images/tutrocket1,null,images/tutrocket1,NA,1,practice,null,1,NA,NA,NA,sub127
d3-animate-choice,71,344587,0.0-61.0-1.3,FALSE,FALSE,FALSE,FALSE,"""event"",""trial"",""time""
""fullscreenenter"",""5"",""16303""
","
","
","""event"",""trial"",""time""
""fullscreenenter"",""5"",""16303""
","
",356.6950000822544,NA,49,NA,NA,3000,1,NA,NA,images/tutyellowplanet.jpg,images/tutalien4,images/tutalien3,images/tutrocket1,images/tutalien3,images/nothing.png,2,practice,true,1,common,0,2020-06-23T20:53:27Z,sub127
two-step-fixation,72,345590,0.0-61.0-2.3,FALSE,FALSE,FALSE,FALSE,"""event"",""trial"",""time""
""fullscreenenter"",""5"",""16303""
","
","
","""event"",""trial"",""time""
""fullscreenenter"",""5"",""16303""
","
",NA,images/earth.jpg,NA,NA,NA,NA,NA,NA,NA,NA,NA,NA,NA,NA,NA,fixation,NA,NA,NA,NA,NA,NA,sub127
d3-animate-choice,73,347611,0.0-61.0-0.4,FALSE,FALSE,FALSE,FALSE,"""event"",""trial"",""time""
""fullscreenenter"",""5"",""16303""
","
","
","""event"",""trial"",""time""
""fullscreenenter"",""5"",""16303""
","
",14.070000033825636,NA,48,NA,NA,3000,1,NA,NA,images/earth.jpg,images/tutrocket2,images/tutrocket1,null,images/tutrocket2,NA,1,practice,null,2,NA,NA,NA,sub127
d3-animate-choice,74,350109,0.0-61.0-1.4,FALSE,FALSE,FALSE,FALSE,"""event"",""trial"",""time""
""fullscreenenter"",""5"",""16303""
","
","
","""event"",""trial"",""time""
""fullscreenenter"",""5"",""16303""
","
",493.1499999947846,NA,49,NA,NA,3000,1,NA,NA,images/tutgreenplanet.jpg,images/tutalien2,images/tutalien1,images/tutrocket2,images/tutalien1,images/nothing.png,2,practice,true,1,common,0,2020-06-23T20:53:32Z,sub127
two-step-fixation,75,351113,0.0-61.0-2.4,FALSE,FALSE,FALSE,FALSE,"""event"",""trial"",""time""
""fullscreenenter"",""5"",""16303""
","
","
","""event"",""trial"",""time""
""fullscreenenter"",""5"",""16303""
","
",NA,images/earth.jpg,NA,NA,NA,NA,NA,NA,NA,NA,NA,NA,NA,NA,NA,fixation,NA,NA,NA,NA,NA,NA,sub127
d3-animate-choice,76,353141,0.0-61.0-0.5,FALSE,FALSE,FALSE,FALSE,"""event"",""trial"",""time""
""fullscreenenter"",""5"",""16303""
","
","
","""event"",""trial"",""time""
""fullscreenenter"",""5"",""16303""
","
",17.83999998588115,NA,48,NA,NA,3000,1,NA,NA,images/earth.jpg,images/tutrocket2,images/tutrocket1,null,images/tutrocket2,NA,1,practice,null,2,NA,NA,NA,sub127
d3-animate-choice,77,355490,0.0-61.0-1.5,FALSE,FALSE,FALSE,FALSE,"""event"",""trial"",""time""
""fullscreenenter"",""5"",""16303""
","
","
","""event"",""trial"",""time""
""fullscreenenter"",""5"",""16303""
","
",342.51499990932643,NA,48,NA,NA,3000,1,NA,NA,images/tutyellowplanet.jpg,images/tutalien4,images/tutalien3,images/tutrocket2,images/tutalien4,images/t.png,2,practice,false,2,rare,1,2020-06-23T20:53:37Z,sub127
two-step-fixation,78,356498,0.0-61.0-2.5,FALSE,FALSE,FALSE,FALSE,"""event"",""trial"",""time""
""fullscreenenter"",""5"",""16303""
","
","
","""event"",""trial"",""time""
""fullscreenenter"",""5"",""16303""
","
",NA,images/earth.jpg,NA,NA,NA,NA,NA,NA,NA,NA,NA,NA,NA,NA,NA,fixation,NA,NA,NA,NA,NA,NA,sub127
d3-animate-choice,79,358905,0.0-61.0-0.6,FALSE,FALSE,FALSE,FALSE,"""event"",""trial"",""time""
""fullscreenenter"",""5"",""16303""
","
","
","""event"",""trial"",""time""
""fullscreenenter"",""5"",""16303""
","
",404.89999996498227,NA,48,NA,NA,3000,1,NA,NA,images/earth.jpg,images/tutrocket2,images/tutrocket1,null,images/tutrocket2,NA,1,practice,null,2,NA,NA,NA,sub127
d3-animate-choice,80,361307,0.0-61.0-1.6,FALSE,FALSE,FALSE,FALSE,"""event"",""trial"",""time""
""fullscreenenter"",""5"",""16303""
","
","
","""event"",""trial"",""time""
""fullscreenenter"",""5"",""16303""
","
",397.6150000235066,NA,48,NA,NA,3000,1,NA,NA,images/tutyellowplanet.jpg,images/tutalien4,images/tutalien3,images/tutrocket2,images/tutalien4,images/t.png,2,practice,false,2,rare,1,2020-06-23T20:53:43Z,sub127
two-step-fixation,81,362315,0.0-61.0-2.6,FALSE,FALSE,FALSE,FALSE,"""event"",""trial"",""time""
""fullscreenenter"",""5"",""16303""
","
","
","""event"",""trial"",""time""
""fullscreenenter"",""5"",""16303""
","
",NA,images/earth.jpg,NA,NA,NA,NA,NA,NA,NA,NA,NA,NA,NA,NA,NA,fixation,NA,NA,NA,NA,NA,NA,sub127
d3-animate-choice,82,364594,0.0-61.0-0.7,FALSE,FALSE,FALSE,FALSE,"""event"",""trial"",""time""
""fullscreenenter"",""5"",""16303""
","
","
","""event"",""trial"",""time""
""fullscreenenter"",""5"",""16303""
","
",276.1900000041351,NA,48,NA,NA,3000,1,NA,NA,images/earth.jpg,images/tutrocket2,images/tutrocket1,null,images/tutrocket2,NA,1,practice,null,2,NA,NA,NA,sub127
d3-animate-choice,83,366995,0.0-61.0-1.7,FALSE,FALSE,FALSE,FALSE,"""event"",""trial"",""time""
""fullscreenenter"",""5"",""16303""
","
","
","""event"",""trial"",""time""
""fullscreenenter"",""5"",""16303""
","
",395.2700000954792,NA,48,NA,NA,3000,1,NA,NA,images/tutgreenplanet.jpg,images/tutalien2,images/tutalien1,images/tutrocket2,images/tutalien2,images/t.png,2,practice,true,2,common,1,2020-06-23T20:53:49Z,sub127
two-step-fixation,84,367999,0.0-61.0-2.7,FALSE,FALSE,FALSE,FALSE,"""event"",""trial"",""time""
""fullscreenenter"",""5"",""16303""
","
","
","""event"",""trial"",""time""
""fullscreenenter"",""5"",""16303""
","
",NA,images/earth.jpg,NA,NA,NA,NA,NA,NA,NA,NA,NA,NA,NA,NA,NA,fixation,NA,NA,NA,NA,NA,NA,sub127
d3-animate-choice,85,370434,0.0-61.0-0.8,FALSE,FALSE,FALSE,FALSE,"""event"",""trial"",""time""
""fullscreenenter"",""5"",""16303""
","
","
","""event"",""trial"",""time""
""fullscreenenter"",""5"",""16303""
","
",430.92000007163733,NA,48,NA,NA,3000,1,NA,NA,images/earth.jpg,images/tutrocket2,images/tutrocket1,null,images/tutrocket2,NA,1,practice,null,2,NA,NA,NA,sub127
d3-animate-choice,86,373108,0.0-61.0-1.8,FALSE,FALSE,FALSE,FALSE,"""event"",""trial"",""time""
""fullscreenenter"",""5"",""16303""
","
","
","""event"",""trial"",""time""
""fullscreenenter"",""5"",""16303""
","
",668.7249999959022,NA,48,NA,NA,3000,1,NA,NA,images/tutyellowplanet.jpg,images/tutalien4,images/tutalien3,images/tutrocket2,images/tutalien4,images/t.png,2,practice,false,2,rare,1,2020-06-23T20:53:55Z,sub127
two-step-fixation,87,374116,0.0-61.0-2.8,FALSE,FALSE,FALSE,FALSE,"""event"",""trial"",""time""
""fullscreenenter"",""5"",""16303""
","
","
","""event"",""trial"",""time""
""fullscreenenter"",""5"",""16303""
","
",NA,images/earth.jpg,NA,NA,NA,NA,NA,NA,NA,NA,NA,NA,NA,NA,NA,fixation,NA,NA,NA,NA,NA,NA,sub127
d3-animate-choice,88,376882,0.0-61.0-0.9,FALSE,FALSE,FALSE,FALSE,"""event"",""trial"",""time""
""fullscreenenter"",""5"",""16303""
","
","
","""event"",""trial"",""time""
""fullscreenenter"",""5"",""16303""
","
",761.339999968186,NA,48,NA,NA,3000,1,NA,NA,images/earth.jpg,images/tutrocket2,images/tutrocket1,null,images/tutrocket2,NA,1,practice,null,2,NA,NA,NA,sub127
d3-animate-choice,89,379435,0.0-61.0-1.9,FALSE,FALSE,FALSE,FALSE,"""event"",""trial"",""time""
""fullscreenenter"",""5"",""16303""
","
","
","""event"",""trial"",""time""
""fullscreenenter"",""5"",""16303""
","
",548.9450000459328,NA,48,NA,NA,3000,1,NA,NA,images/tutyellowplanet.jpg,images/tutalien4,images/tutalien3,images/tutrocket2,images/tutalien4,images/t.png,2,practice,false,2,rare,1,2020-06-23T20:54:01Z,sub127
two-step-fixation,90,380445,0.0-61.0-2.9,FALSE,FALSE,FALSE,FALSE,"""event"",""trial"",""time""
""fullscreenenter"",""5"",""16303""
","
","
","""event"",""trial"",""time""
""fullscreenenter"",""5"",""16303""
","
",NA,images/earth.jpg,NA,NA,NA,NA,NA,NA,NA,NA,NA,NA,NA,NA,NA,fixation,NA,NA,NA,NA,NA,NA,sub127
d3-animate-choice,91,382738,0.0-61.0-0.10,FALSE,FALSE,FALSE,FALSE,"""event"",""trial"",""time""
""fullscreenenter"",""5"",""16303""
","
","
","""event"",""trial"",""time""
""fullscreenenter"",""5"",""16303""
","
",288.71500003151596,NA,48,NA,NA,3000,1,NA,NA,images/earth.jpg,images/tutrocket2,images/tutrocket1,null,images/tutrocket2,NA,1,practice,null,2,NA,NA,NA,sub127
d3-animate-choice,92,385099,0.0-61.0-1.10,FALSE,FALSE,FALSE,FALSE,"""event"",""trial"",""time""
""fullscreenenter"",""5"",""16303""
","
","
","""event"",""trial"",""time""
""fullscreenenter"",""5"",""16303""
","
",357.4749999679625,NA,48,NA,NA,3000,1,NA,NA,images/tutgreenplanet.jpg,images/tutalien2,images/tutalien1,images/tutrocket2,images/tutalien2,images/t.png,2,practice,true,2,common,1,2020-06-23T20:54:07Z,sub127
two-step-fixation,93,386106,0.0-61.0-2.10,FALSE,FALSE,FALSE,FALSE,"""event"",""trial"",""time""
""fullscreenenter"",""5"",""16303""
","
","
","""event"",""trial"",""time""
""fullscreenenter"",""5"",""16303""
","
",NA,images/earth.jpg,NA,NA,NA,NA,NA,NA,NA,NA,NA,NA,NA,NA,NA,fixation,NA,NA,NA,NA,NA,NA,sub127
d3-animate-choice,94,388475,0.0-61.0-0.11,FALSE,FALSE,FALSE,FALSE,"""event"",""trial"",""time""
""fullscreenenter"",""5"",""16303""
","
","
","""event"",""trial"",""time""
""fullscreenenter"",""5"",""16303""
","
",361.7450000019744,NA,48,NA,NA,3000,1,NA,NA,images/earth.jpg,images/tutrocket2,images/tutrocket1,null,images/tutrocket2,NA,1,practice,null,2,NA,NA,NA,sub127
d3-animate-choice,95,390820,0.0-61.0-1.11,FALSE,FALSE,FALSE,FALSE,"""event"",""trial"",""time""
""fullscreenenter"",""5"",""16303""
","
","
","""event"",""trial"",""time""
""fullscreenenter"",""5"",""16303""
","
",336.7149999830872,NA,48,NA,NA,3000,1,NA,NA,images/tutyellowplanet.jpg,images/tutalien4,images/tutalien3,images/tutrocket2,images/tutalien4,images/t.png,2,practice,false,2,rare,1,2020-06-23T20:54:13Z,sub127
two-step-fixation,96,391824,0.0-61.0-2.11,FALSE,FALSE,FALSE,FALSE,"""event"",""trial"",""time""
""fullscreenenter"",""5"",""16303""
","
","
","""event"",""trial"",""time""
""fullscreenenter"",""5"",""16303""
","
",NA,images/earth.jpg,NA,NA,NA,NA,NA,NA,NA,NA,NA,NA,NA,NA,NA,fixation,NA,NA,NA,NA,NA,NA,sub127
d3-animate-choice,97,394241,0.0-61.0-0.12,FALSE,FALSE,FALSE,FALSE,"""event"",""trial"",""time""
""fullscreenenter"",""5"",""16303""
","
","
","""event"",""trial"",""time""
""fullscreenenter"",""5"",""16303""
","
",410.70999996736646,NA,48,NA,NA,3000,1,NA,NA,images/earth.jpg,images/tutrocket2,images/tutrocket1,null,images/tutrocket2,NA,1,practice,null,2,NA,NA,NA,sub127
d3-animate-choice,98,396689,0.0-61.0-1.12,FALSE,FALSE,FALSE,FALSE,"""event"",""trial"",""time""
""fullscreenenter"",""5"",""16303""
","
","
","""event"",""trial"",""time""
""fullscreenenter"",""5"",""16303""
","
",442.32000003103167,NA,48,NA,NA,3000,1,NA,NA,images/tutyellowplanet.jpg,images/tutalien4,images/tutalien3,images/tutrocket2,images/tutalien4,images/t.png,2,practice,false,2,rare,1,2020-06-23T20:54:19Z,sub127
two-step-fixation,99,397692,0.0-61.0-2.12,FALSE,FALSE,FALSE,FALSE,"""event"",""trial"",""time""
""fullscreenenter"",""5"",""16303""
","
","
","""event"",""trial"",""time""
""fullscreenenter"",""5"",""16303""
","
",NA,images/earth.jpg,NA,NA,NA,NA,NA,NA,NA,NA,NA,NA,NA,NA,NA,fixation,NA,NA,NA,NA,NA,NA,sub127
d3-animate-choice,100,399987,0.0-61.0-0.13,FALSE,FALSE,FALSE,FALSE,"""event"",""trial"",""time""
""fullscreenenter"",""5"",""16303""
","
","
","""event"",""trial"",""time""
""fullscreenenter"",""5"",""16303""
","
",289.90499989595264,NA,48,NA,NA,3000,1,NA,NA,images/earth.jpg,images/tutrocket2,images/tutrocket1,null,images/tutrocket2,NA,1,practice,null,2,NA,NA,NA,sub127
d3-animate-choice,101,402337,0.0-61.0-1.13,FALSE,FALSE,FALSE,FALSE,"""event"",""trial"",""time""
""fullscreenenter"",""5"",""16303""
","
","
","""event"",""trial"",""time""
""fullscreenenter"",""5"",""16303""
","
",346.3050000136718,NA,48,NA,NA,3000,1,NA,NA,images/tutgreenplanet.jpg,images/tutalien2,images/tutalien1,images/tutrocket2,images/tutalien2,images/t.png,2,practice,true,2,common,1,2020-06-23T20:54:24Z,sub127
two-step-fixation,102,403341,0.0-61.0-2.13,FALSE,FALSE,FALSE,FALSE,"""event"",""trial"",""time""
""fullscreenenter"",""5"",""16303""
","
","
","""event"",""trial"",""time""
""fullscreenenter"",""5"",""16303""
","
",NA,images/earth.jpg,NA,NA,NA,NA,NA,NA,NA,NA,NA,NA,NA,NA,NA,fixation,NA,NA,NA,NA,NA,NA,sub127
d3-animate-choice,103,405642,0.0-61.0-0.14,FALSE,FALSE,FALSE,FALSE,"""event"",""trial"",""time""
""fullscreenenter"",""5"",""16303""
","
","
","""event"",""trial"",""time""
""fullscreenenter"",""5"",""16303""
","
",294.0250000683591,NA,48,NA,NA,3000,1,NA,NA,images/earth.jpg,images/tutrocket2,images/tutrocket1,null,images/tutrocket2,NA,1,practice,null,2,NA,NA,NA,sub127
d3-animate-choice,104,408060,0.0-61.0-1.14,FALSE,FALSE,FALSE,FALSE,"""event"",""trial"",""time""
""fullscreenenter"",""5"",""16303""
","
","
","""event"",""trial"",""time""
""fullscreenenter"",""5"",""16303""
","
",409.25000002607703,NA,48,NA,NA,3000,1,NA,NA,images/tutyellowplanet.jpg,images/tutalien4,images/tutalien3,images/tutrocket2,images/tutalien4,images/nothing.png,2,practice,false,2,rare,0,2020-06-23T20:54:30Z,sub127
two-step-fixation,105,409064,0.0-61.0-2.14,FALSE,FALSE,FALSE,FALSE,"""event"",""trial"",""time""
""fullscreenenter"",""5"",""16303""
","
","
","""event"",""trial"",""time""
""fullscreenenter"",""5"",""16303""
","
",NA,images/earth.jpg,NA,NA,NA,NA,NA,NA,NA,NA,NA,NA,NA,NA,NA,fixation,NA,NA,NA,NA,NA,NA,sub127
d3-animate-choice,106,411414,0.0-61.0-0.15,FALSE,FALSE,FALSE,FALSE,"""event"",""trial"",""time""
""fullscreenenter"",""5"",""16303""
","
","
","""event"",""trial"",""time""
""fullscreenenter"",""5"",""16303""
","
",344.7900000028312,NA,48,NA,NA,3000,1,NA,NA,images/earth.jpg,images/tutrocket2,images/tutrocket1,null,images/tutrocket2,NA,1,practice,null,2,NA,NA,NA,sub127
d3-animate-choice,107,413850,0.0-61.0-1.15,FALSE,FALSE,FALSE,FALSE,"""event"",""trial"",""time""
""fullscreenenter"",""5"",""16303""
","
","
","""event"",""trial"",""time""
""fullscreenenter"",""5"",""16303""
","
",433.1800000509247,NA,48,NA,NA,3000,1,NA,NA,images/tutgreenplanet.jpg,images/tutalien2,images/tutalien1,images/tutrocket2,images/tutalien2,images/nothing.png,2,practice,true,2,common,0,2020-06-23T20:54:36Z,sub127
two-step-fixation,108,414855,0.0-61.0-2.15,FALSE,FALSE,FALSE,FALSE,"""event"",""trial"",""time""
""fullscreenenter"",""5"",""16303""
","
","
","""event"",""trial"",""time""
""fullscreenenter"",""5"",""16303""
","
",NA,images/earth.jpg,NA,NA,NA,NA,NA,NA,NA,NA,NA,NA,NA,NA,NA,fixation,NA,NA,NA,NA,NA,NA,sub127
d3-animate-choice,109,417218,0.0-61.0-0.16,FALSE,FALSE,FALSE,FALSE,"""event"",""trial"",""time""
""fullscreenenter"",""5"",""16303""
","
","
","""event"",""trial"",""time""
""fullscreenenter"",""5"",""16303""
","
",358.8299999246374,NA,49,NA,NA,3000,1,NA,NA,images/earth.jpg,images/tutrocket2,images/tutrocket1,null,images/tutrocket1,NA,1,practice,null,1,NA,NA,NA,sub127
d3-animate-choice,110,419531,0.0-61.0-1.16,FALSE,FALSE,FALSE,FALSE,"""event"",""trial"",""time""
""fullscreenenter"",""5"",""16303""
","
","
","""event"",""trial"",""time""
""fullscreenenter"",""5"",""16303""
","
",302.24500002805144,NA,49,NA,NA,3000,1,NA,NA,images/tutyellowplanet.jpg,images/tutalien4,images/tutalien3,images/tutrocket1,images/tutalien3,images/nothing.png,2,practice,true,1,common,0,2020-06-23T20:54:41Z,sub127
two-step-fixation,111,420536,0.0-61.0-2.16,FALSE,FALSE,FALSE,FALSE,"""event"",""trial"",""time""
""fullscreenenter"",""5"",""16303""
","
","
","""event"",""trial"",""time""
""fullscreenenter"",""5"",""16303""
","
",NA,images/earth.jpg,NA,NA,NA,NA,NA,NA,NA,NA,NA,NA,NA,NA,NA,fixation,NA,NA,NA,NA,NA,NA,sub127
d3-animate-choice,112,423243,0.0-61.0-0.17,FALSE,FALSE,FALSE,FALSE,"""event"",""trial"",""time""
""fullscreenenter"",""5"",""16303""
","
","
","""event"",""trial"",""time""
""fullscreenenter"",""5"",""16303""
","
",700.6449999753386,NA,49,NA,NA,3000,1,NA,NA,images/earth.jpg,images/tutrocket2,images/tutrocket1,null,images/tutrocket1,NA,1,practice,null,1,NA,NA,NA,sub127
d3-animate-choice,113,426321,0.0-61.0-1.17,FALSE,FALSE,FALSE,FALSE,"""event"",""trial"",""time""
""fullscreenenter"",""5"",""16303""
","
","
","""event"",""trial"",""time""
""fullscreenenter"",""5"",""16303""
","
",1074.6549998875707,NA,49,NA,NA,3000,1,NA,NA,images/tutgreenplanet.jpg,images/tutalien2,images/tutalien1,images/tutrocket1,images/tutalien1,images/t.png,2,practice,false,1,rare,1,2020-06-23T20:54:48Z,sub127
two-step-fixation,114,427327,0.0-61.0-2.17,FALSE,FALSE,FALSE,FALSE,"""event"",""trial"",""time""
""fullscreenenter"",""5"",""16303""
","
","
","""event"",""trial"",""time""
""fullscreenenter"",""5"",""16303""
","
",NA,images/earth.jpg,NA,NA,NA,NA,NA,NA,NA,NA,NA,NA,NA,NA,NA,fixation,NA,NA,NA,NA,NA,NA,sub127
d3-animate-choice,115,429747,0.0-61.0-0.18,FALSE,FALSE,FALSE,FALSE,"""event"",""trial"",""time""
""fullscreenenter"",""5"",""16303""
","
","
","""event"",""trial"",""time""
""fullscreenenter"",""5"",""16303""
","
",416.8150000041351,NA,49,NA,NA,3000,1,NA,NA,images/earth.jpg,images/tutrocket2,images/tutrocket1,null,images/tutrocket1,NA,1,practice,null,1,NA,NA,NA,sub127
d3-animate-choice,116,432686,0.0-61.0-1.18,FALSE,FALSE,FALSE,FALSE,"""event"",""trial"",""time""
""fullscreenenter"",""5"",""16303""
","
","
","""event"",""trial"",""time""
""fullscreenenter"",""5"",""16303""
","
",934.3449999578297,NA,49,NA,NA,3000,1,NA,NA,images/tutyellowplanet.jpg,images/tutalien4,images/tutalien3,images/tutrocket1,images/tutalien3,images/nothing.png,2,practice,true,1,common,0,2020-06-23T20:54:55Z,sub127
two-step-fixation,117,433691,0.0-61.0-2.18,FALSE,FALSE,FALSE,FALSE,"""event"",""trial"",""time""
""fullscreenenter"",""5"",""16303""
","
","
","""event"",""trial"",""time""
""fullscreenenter"",""5"",""16303""
","
",NA,images/earth.jpg,NA,NA,NA,NA,NA,NA,NA,NA,NA,NA,NA,NA,NA,fixation,NA,NA,NA,NA,NA,NA,sub127
d3-animate-choice,118,436373,0.0-61.0-0.19,FALSE,FALSE,FALSE,FALSE,"""event"",""trial"",""time""
""fullscreenenter"",""5"",""16303""
","
","
","""event"",""trial"",""time""
""fullscreenenter"",""5"",""16303""
","
",676.5599999343976,NA,49,NA,NA,3000,1,NA,NA,images/earth.jpg,images/tutrocket2,images/tutrocket1,null,images/tutrocket1,NA,1,practice,null,1,NA,NA,NA,sub127
d3-animate-choice,119,439244,0.0-61.0-1.19,FALSE,FALSE,FALSE,FALSE,"""event"",""trial"",""time""
""fullscreenenter"",""5"",""16303""
","
","
","""event"",""trial"",""time""
""fullscreenenter"",""5"",""16303""
","
",865.2599999913946,NA,49,NA,NA,3000,1,NA,NA,images/tutgreenplanet.jpg,images/tutalien2,images/tutalien1,images/tutrocket1,images/tutalien1,images/t.png,2,practice,false,1,rare,1,2020-06-23T20:55:01Z,sub127
two-step-fixation,120,440246,0.0-61.0-2.19,FALSE,FALSE,FALSE,FALSE,"""event"",""trial"",""time""
""fullscreenenter"",""5"",""16303""
","
","
","""event"",""trial"",""time""
""fullscreenenter"",""5"",""16303""
","
",NA,images/earth.jpg,NA,NA,NA,NA,NA,NA,NA,NA,NA,NA,NA,NA,NA,fixation,NA,NA,NA,NA,NA,NA,sub127
d3-instructions,121,443793,0.0-62.0,FALSE,FALSE,FALSE,FALSE,"""event"",""trial"",""time""
""fullscreenenter"",""5"",""16303""
","
","
","""event"",""trial"",""time""
""fullscreenenter"",""5"",""16303""
","
",NA,NA,NA,NA,NA,NA,NA,NA,NA,NA,NA,NA,NA,NA,NA,NA,NA,NA,NA,NA,NA,NA,sub127
audio-keyboard-response,122,445864,0.0-63.0,FALSE,FALSE,FALSE,FALSE,"""event"",""trial"",""time""
""fullscreenenter"",""5"",""16303""
","
","
","""event"",""trial"",""time""
""fullscreenenter"",""5"",""16303""
","
",2069,audio/instructions/treasure_feedback.wav,32,NA,NA,NA,NA,NA,NA,NA,NA,NA,NA,NA,NA,NA,NA,NA,NA,NA,NA,NA,sub127
d3-instructions,123,456176,0.0-64.0,FALSE,FALSE,FALSE,FALSE,"""event"",""trial"",""time""
""fullscreenenter"",""5"",""16303""
","
","
","""event"",""trial"",""time""
""fullscreenenter"",""5"",""16303""
","
",NA,NA,NA,NA,NA,NA,NA,NA,NA,NA,NA,NA,NA,NA,NA,NA,NA,NA,NA,NA,NA,NA,sub127
d3-instructions,124,470904,0.0-65.0,FALSE,FALSE,FALSE,FALSE,"""event"",""trial"",""time""
""fullscreenenter"",""5"",""16303""
","
","
","""event"",""trial"",""time""
""fullscreenenter"",""5"",""16303""
","
",NA,NA,NA,NA,NA,NA,NA,NA,NA,NA,NA,NA,NA,NA,NA,NA,NA,NA,NA,NA,NA,NA,sub127
d3-instructions,125,488107,0.0-66.0,FALSE,FALSE,FALSE,FALSE,"""event"",""trial"",""time""
""fullscreenenter"",""5"",""16303""
","
","
","""event"",""trial"",""time""
""fullscreenenter"",""5"",""16303""
","
",NA,NA,NA,NA,NA,NA,NA,NA,NA,NA,NA,NA,NA,NA,NA,NA,NA,NA,NA,NA,NA,NA,sub127
d3-instructions,126,500240,0.0-67.0,FALSE,FALSE,FALSE,FALSE,"""event"",""trial"",""time""
""fullscreenenter"",""5"",""16303""
","
","
","""event"",""trial"",""time""
""fullscreenenter"",""5"",""16303""
","
",NA,NA,NA,NA,NA,NA,NA,NA,NA,NA,NA,NA,NA,NA,NA,NA,NA,NA,NA,NA,NA,NA,sub127
d3-instructions,127,504376,0.0-68.0,FALSE,FALSE,FALSE,FALSE,"""event"",""trial"",""time""
""fullscreenenter"",""5"",""16303""
","
","
","""event"",""trial"",""time""
""fullscreenenter"",""5"",""16303""
","
",NA,NA,NA,NA,NA,NA,NA,NA,NA,NA,NA,NA,NA,NA,NA,NA,NA,NA,NA,NA,NA,NA,sub127
instructions-quiz,128,507481,0.0-69.0,FALSE,FALSE,FALSE,FALSE,"""event"",""trial"",""time""
""fullscreenenter"",""5"",""16303""
","
","
","""event"",""trial"",""time""
""fullscreenenter"",""5"",""16303""
","
",3103.385000023991,audio/quiz/Q1_Prompt.wav,NA,1,NA,NA,NA,NA,NA,NA,NA,NA,NA,NA,NA,NA,NA,NA,NA,NA,NA,NA,sub127
audio-keyboard-response,129,516650,0.0-70.0,FALSE,FALSE,FALSE,FALSE,"""event"",""trial"",""time""
""fullscreenenter"",""5"",""16303""
","
","
","""event"",""trial"",""time""
""fullscreenenter"",""5"",""16303""
","
",null,audio/quiz/Q1_Correct.wav,null,NA,NA,NA,NA,NA,NA,NA,NA,NA,NA,NA,NA,NA,NA,NA,NA,NA,NA,NA,sub127
instructions-quiz,130,521065,0.0-71.0,FALSE,FALSE,FALSE,FALSE,"""event"",""trial"",""time""
""fullscreenenter"",""5"",""16303""
","
","
","""event"",""trial"",""time""
""fullscreenenter"",""5"",""16303""
","
",4413.304999936372,audio/quiz/Q2_Prompt.wav,NA,0,NA,NA,NA,NA,NA,NA,NA,NA,NA,NA,NA,NA,NA,NA,NA,NA,NA,NA,sub127
audio-keyboard-response,131,533930,0.0-72.0,FALSE,FALSE,FALSE,FALSE,"""event"",""trial"",""time""
""fullscreenenter"",""5"",""16303""
","
","
","""event"",""trial"",""time""
""fullscreenenter"",""5"",""16303""
","
",null,audio/quiz/Q2_Correct.wav,null,NA,NA,NA,NA,NA,NA,NA,NA,NA,NA,NA,NA,NA,NA,NA,NA,NA,NA,NA,sub127
instructions-quiz,132,537504,0.0-73.0,FALSE,FALSE,FALSE,FALSE,"""event"",""trial"",""time""
""fullscreenenter"",""5"",""16303""
","
","
","""event"",""trial"",""time""
""fullscreenenter"",""5"",""16303""
","
",3572.9450000217184,audio/quiz/Q3_Prompt.wav,NA,1,NA,NA,NA,NA,NA,NA,NA,NA,NA,NA,NA,NA,NA,NA,NA,NA,NA,NA,sub127
audio-keyboard-response,133,543301,0.0-74.0,FALSE,FALSE,FALSE,FALSE,"""event"",""trial"",""time""
""fullscreenenter"",""5"",""16303""
","
","
","""event"",""trial"",""time""
""fullscreenenter"",""5"",""16303""
","
",null,audio/quiz/Q3_Correct.wav,null,NA,NA,NA,NA,NA,NA,NA,NA,NA,NA,NA,NA,NA,NA,NA,NA,NA,NA,NA,sub127
d3-instructions,134,547450,0.0-75.0,FALSE,FALSE,FALSE,FALSE,"""event"",""trial"",""time""
""fullscreenenter"",""5"",""16303""
","
","
","""event"",""trial"",""time""
""fullscreenenter"",""5"",""16303""
","
",NA,NA,NA,NA,NA,NA,NA,NA,NA,NA,NA,NA,NA,NA,NA,NA,NA,NA,NA,NA,NA,NA,sub127
d3-animate-choice,135,550771,0.0-76.0-0.0,FALSE,FALSE,FALSE,FALSE,"""event"",""trial"",""time""
""fullscreenenter"",""5"",""16303""
","
","
","""event"",""trial"",""time""
""fullscreenenter"",""5"",""16303""
","
",1317.8299999563023,NA,49,NA,NA,3000,1,NA,NA,images/earth.jpg,images/rocket1,images/rocket2,null,images/rocket2,NA,1,real,null,1,NA,NA,NA,sub127
d3-animate-choice,136,553843,0.0-76.0-1.0,FALSE,FALSE,FALSE,FALSE,"""event"",""trial"",""time""
""fullscreenenter"",""5"",""16303""
","
","
","""event"",""trial"",""time""
""fullscreenenter"",""5"",""16303""
","
",1067.0800000661984,NA,49,NA,NA,3000,1,NA,NA,images/redplanet1.jpg,images/alien2,images/alien1,images/rocket2,images/alien1,images/nothing.png,2,real,true,1,common,0,2020-06-23T20:56:56Z,sub127
two-step-fixation,137,554848,0.0-76.0-2.0,FALSE,FALSE,FALSE,FALSE,"""event"",""trial"",""time""
""fullscreenenter"",""5"",""16303""
","
","
","""event"",""trial"",""time""
""fullscreenenter"",""5"",""16303""
","
",NA,images/earth.jpg,NA,NA,NA,NA,NA,NA,NA,NA,NA,NA,NA,NA,NA,fixation,NA,NA,NA,NA,NA,NA,sub127
d3-animate-choice,138,557186,0.0-76.0-0.1,FALSE,FALSE,FALSE,FALSE,"""event"",""trial"",""time""
""fullscreenenter"",""5"",""16303""
","
","
","""event"",""trial"",""time""
""fullscreenenter"",""5"",""16303""
","
",331.5400000428781,NA,49,NA,NA,3000,1,NA,NA,images/earth.jpg,images/rocket1,images/rocket2,null,images/rocket2,NA,1,real,null,1,NA,NA,NA,sub127
d3-animate-choice,139,560211,0.0-76.0-1.1,FALSE,FALSE,FALSE,FALSE,"""event"",""trial"",""time""
""fullscreenenter"",""5"",""16303""
","
","
","""event"",""trial"",""time""
""fullscreenenter"",""5"",""16303""
","
",1020.9249999606982,NA,48,NA,NA,3000,1,NA,NA,images/redplanet1.jpg,images/alien2,images/alien1,images/rocket2,images/alien2,images/t.png,2,real,true,2,common,1,2020-06-23T20:57:02Z,sub127
two-step-fixation,140,561220,0.0-76.0-2.1,FALSE,FALSE,FALSE,FALSE,"""event"",""trial"",""time""
""fullscreenenter"",""5"",""16303""
","
","
","""event"",""trial"",""time""
""fullscreenenter"",""5"",""16303""
","
",NA,images/earth.jpg,NA,NA,NA,NA,NA,NA,NA,NA,NA,NA,NA,NA,NA,fixation,NA,NA,NA,NA,NA,NA,sub127
d3-animate-choice,141,564027,0.0-76.0-0.2,FALSE,FALSE,FALSE,FALSE,"""event"",""trial"",""time""
""fullscreenenter"",""5"",""16303""
","
","
","""event"",""trial"",""time""
""fullscreenenter"",""5"",""16303""
","
",803.6150000989437,NA,48,NA,NA,3000,1,NA,NA,images/earth.jpg,images/rocket1,images/rocket2,null,images/rocket1,NA,1,real,null,2,NA,NA,NA,sub127
d3-animate-choice,142,567058,0.0-76.0-1.2,FALSE,FALSE,FALSE,FALSE,"""event"",""trial"",""time""
""fullscreenenter"",""5"",""16303""
","
","
","""event"",""trial"",""time""
""fullscreenenter"",""5"",""16303""
","
",1027.4350000545382,NA,49,NA,NA,3000,1,NA,NA,images/purpleplanet.jpg,images/alien4,images/alien3,images/rocket1,images/alien3,images/t.png,2,real,true,1,common,1,2020-06-23T20:57:09Z,sub127
two-step-fixation,143,568061,0.0-76.0-2.2,FALSE,FALSE,FALSE,FALSE,"""event"",""trial"",""time""
""fullscreenenter"",""5"",""16303""
","
","
","""event"",""trial"",""time""
""fullscreenenter"",""5"",""16303""
","
",NA,images/earth.jpg,NA,NA,NA,NA,NA,NA,NA,NA,NA,NA,NA,NA,NA,fixation,NA,NA,NA,NA,NA,NA,sub127
d3-animate-choice,144,570910,0.0-76.0-0.3,FALSE,FALSE,FALSE,FALSE,"""event"",""trial"",""time""
""fullscreenenter"",""5"",""16303""
","
","
","""event"",""trial"",""time""
""fullscreenenter"",""5"",""16303""
","
",840.8050000434741,NA,49,NA,NA,3000,1,NA,NA,images/earth.jpg,images/rocket1,images/rocket2,null,images/rocket2,NA,1,real,null,1,NA,NA,NA,sub127
d3-animate-choice,145,573282,0.0-76.0-1.3,FALSE,FALSE,FALSE,FALSE,"""event"",""trial"",""time""
""fullscreenenter"",""5"",""16303""
","
","
","""event"",""trial"",""time""
""fullscreenenter"",""5"",""16303""
","
",363.9999999431893,NA,48,NA,NA,3000,1,NA,NA,images/purpleplanet.jpg,images/alien4,images/alien3,images/rocket2,images/alien4,images/t.png,2,real,false,2,rare,1,2020-06-23T20:57:15Z,sub127
two-step-fixation,146,574284,0.0-76.0-2.3,FALSE,FALSE,FALSE,FALSE,"""event"",""trial"",""time""
""fullscreenenter"",""5"",""16303""
","
","
","""event"",""trial"",""time""
""fullscreenenter"",""5"",""16303""
","
",NA,images/earth.jpg,NA,NA,NA,NA,NA,NA,NA,NA,NA,NA,NA,NA,NA,fixation,NA,NA,NA,NA,NA,NA,sub127
d3-animate-choice,147,576674,0.0-76.0-0.4,FALSE,FALSE,FALSE,FALSE,"""event"",""trial"",""time""
""fullscreenenter"",""5"",""16303""
","
","
","""event"",""trial"",""time""
""fullscreenenter"",""5"",""16303""
","
",386.75000006332994,NA,49,NA,NA,3000,1,NA,NA,images/earth.jpg,images/rocket1,images/rocket2,null,images/rocket2,NA,1,real,null,1,NA,NA,NA,sub127
d3-animate-choice,148,579634,0.0-76.0-1.4,FALSE,FALSE,FALSE,FALSE,"""event"",""trial"",""time""
""fullscreenenter"",""5"",""16303""
","
","
","""event"",""trial"",""time""
""fullscreenenter"",""5"",""16303""
","
",955.3150000283495,NA,48,NA,NA,3000,1,NA,NA,images/redplanet1.jpg,images/alien2,images/alien1,images/rocket2,images/alien2,images/t.png,2,real,true,2,common,1,2020-06-23T20:57:22Z,sub127
two-step-fixation,149,580637,0.0-76.0-2.4,FALSE,FALSE,FALSE,FALSE,"""event"",""trial"",""time""
""fullscreenenter"",""5"",""16303""
","
","
","""event"",""trial"",""time""
""fullscreenenter"",""5"",""16303""
","
",NA,images/earth.jpg,NA,NA,NA,NA,NA,NA,NA,NA,NA,NA,NA,NA,NA,fixation,NA,NA,NA,NA,NA,NA,sub127
d3-animate-choice,150,583914,0.0-76.0-0.5,FALSE,FALSE,FALSE,FALSE,"""event"",""trial"",""time""
""fullscreenenter"",""5"",""16303""
","
","
","""event"",""trial"",""time""
""fullscreenenter"",""5"",""16303""
","
",1274.0950000006706,NA,48,NA,NA,3000,1,NA,NA,images/earth.jpg,images/rocket1,images/rocket2,null,images/rocket1,NA,1,real,null,2,NA,NA,NA,sub127
d3-animate-choice,151,586315,0.0-76.0-1.5,FALSE,FALSE,FALSE,FALSE,"""event"",""trial"",""time""
""fullscreenenter"",""5"",""16303""
","
","
","""event"",""trial"",""time""
""fullscreenenter"",""5"",""16303""
","
",397.7599999634549,NA,49,NA,NA,3000,1,NA,NA,images/purpleplanet.jpg,images/alien4,images/alien3,images/rocket1,images/alien3,images/nothing.png,2,real,true,1,common,0,2020-06-23T20:57:28Z,sub127
two-step-fixation,152,587319,0.0-76.0-2.5,FALSE,FALSE,FALSE,FALSE,"""event"",""trial"",""time""
""fullscreenenter"",""5"",""16303""
","
","
","""event"",""trial"",""time""
""fullscreenenter"",""5"",""16303""
","
",NA,images/earth.jpg,NA,NA,NA,NA,NA,NA,NA,NA,NA,NA,NA,NA,NA,fixation,NA,NA,NA,NA,NA,NA,sub127
d3-animate-choice,153,589369,0.0-76.0-0.6,FALSE,FALSE,FALSE,FALSE,"""event"",""trial"",""time""
""fullscreenenter"",""5"",""16303""
","
","
","""event"",""trial"",""time""
""fullscreenenter"",""5"",""16303""
","
",47.37000004388392,NA,49,NA,NA,3000,1,NA,NA,images/earth.jpg,images/rocket1,images/rocket2,null,images/rocket2,NA,1,real,null,1,NA,NA,NA,sub127
d3-animate-choice,154,591730,0.0-76.0-1.6,FALSE,FALSE,FALSE,FALSE,"""event"",""trial"",""time""
""fullscreenenter"",""5"",""16303""
","
","
","""event"",""trial"",""time""
""fullscreenenter"",""5"",""16303""
","
",354.9549999879673,NA,48,NA,NA,3000,1,NA,NA,images/redplanet1.jpg,images/alien2,images/alien1,images/rocket2,images/alien2,images/nothing.png,2,real,true,2,common,0,2020-06-23T20:57:34Z,sub127
two-step-fixation,155,592733,0.0-76.0-2.6,FALSE,FALSE,FALSE,FALSE,"""event"",""trial"",""time""
""fullscreenenter"",""5"",""16303""
","
","
","""event"",""trial"",""time""
""fullscreenenter"",""5"",""16303""
","
",NA,images/earth.jpg,NA,NA,NA,NA,NA,NA,NA,NA,NA,NA,NA,NA,NA,fixation,NA,NA,NA,NA,NA,NA,sub127
d3-animate-choice,156,595066,0.0-76.0-0.7,FALSE,FALSE,FALSE,FALSE,"""event"",""trial"",""time""
""fullscreenenter"",""5"",""16303""
","
","
","""event"",""trial"",""time""
""fullscreenenter"",""5"",""16303""
","
",329.1650000028312,NA,48,NA,NA,3000,1,NA,NA,images/earth.jpg,images/rocket1,images/rocket2,null,images/rocket1,NA,1,real,null,2,NA,NA,NA,sub127
d3-animate-choice,157,597401,0.0-76.0-1.7,FALSE,FALSE,FALSE,FALSE,"""event"",""trial"",""time""
""fullscreenenter"",""5"",""16303""
","
","
","""event"",""trial"",""time""
""fullscreenenter"",""5"",""16303""
","
",330.61499998439103,NA,48,NA,NA,3000,1,NA,NA,images/purpleplanet.jpg,images/alien4,images/alien3,images/rocket1,images/alien4,images/t.png,2,real,true,2,common,1,2020-06-23T20:57:39Z,sub127
two-step-fixation,158,598404,0.0-76.0-2.7,FALSE,FALSE,FALSE,FALSE,"""event"",""trial"",""time""
""fullscreenenter"",""5"",""16303""
","
","
","""event"",""trial"",""time""
""fullscreenenter"",""5"",""16303""
","
",NA,images/earth.jpg,NA,NA,NA,NA,NA,NA,NA,NA,NA,NA,NA,NA,NA,fixation,NA,NA,NA,NA,NA,NA,sub127
d3-animate-choice,159,600763,0.0-76.0-0.8,FALSE,FALSE,FALSE,FALSE,"""event"",""trial"",""time""
""fullscreenenter"",""5"",""16303""
","
","
","""event"",""trial"",""time""
""fullscreenenter"",""5"",""16303""
","
",351.84999997727573,NA,48,NA,NA,3000,1,NA,NA,images/earth.jpg,images/rocket1,images/rocket2,null,images/rocket1,NA,1,real,null,2,NA,NA,NA,sub127
d3-animate-choice,160,603435,0.0-76.0-1.8,FALSE,FALSE,FALSE,FALSE,"""event"",""trial"",""time""
""fullscreenenter"",""5"",""16303""
","
","
","""event"",""trial"",""time""
""fullscreenenter"",""5"",""16303""
","
",667.7299999864772,NA,48,NA,NA,3000,1,NA,NA,images/purpleplanet.jpg,images/alien4,images/alien3,images/rocket1,images/alien4,images/nothing.png,2,real,true,2,common,0,2020-06-23T20:57:45Z,sub127
two-step-fixation,161,604442,0.0-76.0-2.8,FALSE,FALSE,FALSE,FALSE,"""event"",""trial"",""time""
""fullscreenenter"",""5"",""16303""
","
","
","""event"",""trial"",""time""
""fullscreenenter"",""5"",""16303""
","
",NA,images/earth.jpg,NA,NA,NA,NA,NA,NA,NA,NA,NA,NA,NA,NA,NA,fixation,NA,NA,NA,NA,NA,NA,sub127
d3-animate-choice,162,606898,0.0-76.0-0.9,FALSE,FALSE,FALSE,FALSE,"""event"",""trial"",""time""
""fullscreenenter"",""5"",""16303""
","
","
","""event"",""trial"",""time""
""fullscreenenter"",""5"",""16303""
","
",449.2549999849871,NA,48,NA,NA,3000,1,NA,NA,images/earth.jpg,images/rocket1,images/rocket2,null,images/rocket1,NA,1,real,null,2,NA,NA,NA,sub127
d3-animate-choice,163,609329,0.0-76.0-1.9,FALSE,FALSE,FALSE,FALSE,"""event"",""trial"",""time""
""fullscreenenter"",""5"",""16303""
","
","
","""event"",""trial"",""time""
""fullscreenenter"",""5"",""16303""
","
",428.0600000638515,NA,49,NA,NA,3000,1,NA,NA,images/purpleplanet.jpg,images/alien4,images/alien3,images/rocket1,images/alien3,images/nothing.png,2,real,true,1,common,0,2020-06-23T20:57:51Z,sub127
two-step-fixation,164,610333,0.0-76.0-2.9,FALSE,FALSE,FALSE,FALSE,"""event"",""trial"",""time""
""fullscreenenter"",""5"",""16303""
","
","
","""event"",""trial"",""time""
""fullscreenenter"",""5"",""16303""
","
",NA,images/earth.jpg,NA,NA,NA,NA,NA,NA,NA,NA,NA,NA,NA,NA,NA,fixation,NA,NA,NA,NA,NA,NA,sub127
d3-animate-choice,165,612625,0.0-76.0-0.10,FALSE,FALSE,FALSE,FALSE,"""event"",""trial"",""time""
""fullscreenenter"",""5"",""16303""
","
","
","""event"",""trial"",""time""
""fullscreenenter"",""5"",""16303""
","
",288.5849999729544,NA,49,NA,NA,3000,1,NA,NA,images/earth.jpg,images/rocket1,images/rocket2,null,images/rocket2,NA,1,real,null,1,NA,NA,NA,sub127
d3-animate-choice,166,615233,0.0-76.0-1.10,FALSE,FALSE,FALSE,FALSE,"""event"",""trial"",""time""
""fullscreenenter"",""5"",""16303""
","
","
","""event"",""trial"",""time""
""fullscreenenter"",""5"",""16303""
","
",604.9600000260398,NA,49,NA,NA,3000,1,NA,NA,images/redplanet1.jpg,images/alien2,images/alien1,images/rocket2,images/alien1,images/t.png,2,real,true,1,common,1,2020-06-23T20:57:57Z,sub127
two-step-fixation,167,616237,0.0-76.0-2.10,FALSE,FALSE,FALSE,FALSE,"""event"",""trial"",""time""
""fullscreenenter"",""5"",""16303""
","
","
","""event"",""trial"",""time""
""fullscreenenter"",""5"",""16303""
","
",NA,images/earth.jpg,NA,NA,NA,NA,NA,NA,NA,NA,NA,NA,NA,NA,NA,fixation,NA,NA,NA,NA,NA,NA,sub127
d3-animate-choice,168,618552,0.0-76.0-0.11,FALSE,FALSE,FALSE,FALSE,"""event"",""trial"",""time""
""fullscreenenter"",""5"",""16303""
","
","
","""event"",""trial"",""time""
""fullscreenenter"",""5"",""16303""
","
",296.23499989975244,NA,49,NA,NA,3000,1,NA,NA,images/earth.jpg,images/rocket1,images/rocket2,null,images/rocket2,NA,1,real,null,1,NA,NA,NA,sub127
d3-animate-choice,169,620977,0.0-76.0-1.11,FALSE,FALSE,FALSE,FALSE,"""event"",""trial"",""time""
""fullscreenenter"",""5"",""16303""
","
","
","""event"",""trial"",""time""
""fullscreenenter"",""5"",""16303""
","
",418.7349999556318,NA,49,NA,NA,3000,1,NA,NA,images/redplanet1.jpg,images/alien2,images/alien1,images/rocket2,images/alien1,images/nothing.png,2,real,true,1,common,0,2020-06-23T20:58:03Z,sub127
two-step-fixation,170,621980,0.0-76.0-2.11,FALSE,FALSE,FALSE,FALSE,"""event"",""trial"",""time""
""fullscreenenter"",""5"",""16303""
","
","
","""event"",""trial"",""time""
""fullscreenenter"",""5"",""16303""
","
",NA,images/earth.jpg,NA,NA,NA,NA,NA,NA,NA,NA,NA,NA,NA,NA,NA,fixation,NA,NA,NA,NA,NA,NA,sub127
d3-animate-choice,171,624280,0.0-76.0-0.12,FALSE,FALSE,FALSE,FALSE,"""event"",""trial"",""time""
""fullscreenenter"",""5"",""16303""
","
","
","""event"",""trial"",""time""
""fullscreenenter"",""5"",""16303""
","
",298.2649999903515,NA,48,NA,NA,3000,1,NA,NA,images/earth.jpg,images/rocket1,images/rocket2,null,images/rocket1,NA,1,real,null,2,NA,NA,NA,sub127
d3-animate-choice,172,626745,0.0-76.0-1.12,FALSE,FALSE,FALSE,FALSE,"""event"",""trial"",""time""
""fullscreenenter"",""5"",""16303""
","
","
","""event"",""trial"",""time""
""fullscreenenter"",""5"",""16303""
","
",461.43500006292015,NA,48,NA,NA,3000,1,NA,NA,images/purpleplanet.jpg,images/alien4,images/alien3,images/rocket1,images/alien4,images/t.png,2,real,true,2,common,1,2020-06-23T20:58:09Z,sub127
two-step-fixation,173,627748,0.0-76.0-2.12,FALSE,FALSE,FALSE,FALSE,"""event"",""trial"",""time""
""fullscreenenter"",""5"",""16303""
","
","
","""event"",""trial"",""time""
""fullscreenenter"",""5"",""16303""
","
",NA,images/earth.jpg,NA,NA,NA,NA,NA,NA,NA,NA,NA,NA,NA,NA,NA,fixation,NA,NA,NA,NA,NA,NA,sub127
d3-animate-choice,174,630170,0.0-76.0-0.13,FALSE,FALSE,FALSE,FALSE,"""event"",""trial"",""time""
""fullscreenenter"",""5"",""16303""
","
","
","""event"",""trial"",""time""
""fullscreenenter"",""5"",""16303""
","
",417.39000007510185,NA,49,NA,NA,3000,1,NA,NA,images/earth.jpg,images/rocket1,images/rocket2,null,images/rocket2,NA,1,real,null,1,NA,NA,NA,sub127
d3-animate-choice,175,632995,0.0-76.0-1.13,FALSE,FALSE,FALSE,FALSE,"""event"",""trial"",""time""
""fullscreenenter"",""5"",""16303""
","
","
","""event"",""trial"",""time""
""fullscreenenter"",""5"",""16303""
","
",820.090000052005,NA,48,NA,NA,3000,1,NA,NA,images/redplanet1.jpg,images/alien2,images/alien1,images/rocket2,images/alien2,images/t.png,2,real,true,2,common,1,2020-06-23T20:58:15Z,sub127
two-step-fixation,176,634001,0.0-76.0-2.13,FALSE,FALSE,FALSE,FALSE,"""event"",""trial"",""time""
""fullscreenenter"",""5"",""16303""
","
","
","""event"",""trial"",""time""
""fullscreenenter"",""5"",""16303""
","
",NA,images/earth.jpg,NA,NA,NA,NA,NA,NA,NA,NA,NA,NA,NA,NA,NA,fixation,NA,NA,NA,NA,NA,NA,sub127
d3-animate-choice,177,636298,0.0-76.0-0.14,FALSE,FALSE,FALSE,FALSE,"""event"",""trial"",""time""
""fullscreenenter"",""5"",""16303""
","
","
","""event"",""trial"",""time""
""fullscreenenter"",""5"",""16303""
","
",292.1199999982491,NA,49,NA,NA,3000,1,NA,NA,images/earth.jpg,images/rocket1,images/rocket2,null,images/rocket2,NA,1,real,null,1,NA,NA,NA,sub127
d3-animate-choice,178,638730,0.0-76.0-1.14,FALSE,FALSE,FALSE,FALSE,"""event"",""trial"",""time""
""fullscreenenter"",""5"",""16303""
","
","
","""event"",""trial"",""time""
""fullscreenenter"",""5"",""16303""
","
",428.6149999825284,NA,48,NA,NA,3000,1,NA,NA,images/redplanet1.jpg,images/alien2,images/alien1,images/rocket2,images/alien2,images/nothing.png,2,real,true,2,common,0,2020-06-23T20:58:21Z,sub127
two-step-fixation,179,639733,0.0-76.0-2.14,FALSE,FALSE,FALSE,FALSE,"""event"",""trial"",""time""
""fullscreenenter"",""5"",""16303""
","
","
","""event"",""trial"",""time""
""fullscreenenter"",""5"",""16303""
","
",NA,images/earth.jpg,NA,NA,NA,NA,NA,NA,NA,NA,NA,NA,NA,NA,NA,fixation,NA,NA,NA,NA,NA,NA,sub127
d3-animate-choice,180,642057,0.0-76.0-0.15,FALSE,FALSE,FALSE,FALSE,"""event"",""trial"",""time""
""fullscreenenter"",""5"",""16303""
","
","
","""event"",""trial"",""time""
""fullscreenenter"",""5"",""16303""
","
",320.84499998018146,NA,49,NA,NA,3000,1,NA,NA,images/earth.jpg,images/rocket1,images/rocket2,null,images/rocket2,NA,1,real,null,1,NA,NA,NA,sub127
d3-animate-choice,181,644329,0.0-76.0-1.15,FALSE,FALSE,FALSE,FALSE,"""event"",""trial"",""time""
""fullscreenenter"",""5"",""16303""
","
","
","""event"",""trial"",""time""
""fullscreenenter"",""5"",""16303""
","
",268.6150000663474,NA,48,NA,NA,3000,1,NA,NA,images/redplanet1.jpg,images/alien2,images/alien1,images/rocket2,images/alien2,images/nothing.png,2,real,true,2,common,0,2020-06-23T20:58:26Z,sub127
two-step-fixation,182,645333,0.0-76.0-2.15,FALSE,FALSE,FALSE,FALSE,"""event"",""trial"",""time""
""fullscreenenter"",""5"",""16303""
","
","
","""event"",""trial"",""time""
""fullscreenenter"",""5"",""16303""
","
",NA,images/earth.jpg,NA,NA,NA,NA,NA,NA,NA,NA,NA,NA,NA,NA,NA,fixation,NA,NA,NA,NA,NA,NA,sub127
d3-animate-choice,183,647657,0.0-76.0-0.16,FALSE,FALSE,FALSE,FALSE,"""event"",""trial"",""time""
""fullscreenenter"",""5"",""16303""
","
","
","""event"",""trial"",""time""
""fullscreenenter"",""5"",""16303""
","
",316.7350000003353,NA,49,NA,NA,3000,1,NA,NA,images/earth.jpg,images/rocket1,images/rocket2,null,images/rocket2,NA,1,real,null,1,NA,NA,NA,sub127
d3-animate-choice,184,651261,0.0-76.0-1.16,FALSE,FALSE,FALSE,FALSE,"""event"",""trial"",""time""
""fullscreenenter"",""5"",""16303""
","
","
","""event"",""trial"",""time""
""fullscreenenter"",""5"",""16303""
","
",1601.2849999824539,NA,48,NA,NA,3000,1,NA,NA,images/purpleplanet.jpg,images/alien4,images/alien3,images/rocket2,images/alien4,images/nothing.png,2,real,false,2,rare,0,2020-06-23T20:58:33Z,sub127
two-step-fixation,185,652266,0.0-76.0-2.16,FALSE,FALSE,FALSE,FALSE,"""event"",""trial"",""time""
""fullscreenenter"",""5"",""16303""
","
","
","""event"",""trial"",""time""
""fullscreenenter"",""5"",""16303""
","
",NA,images/earth.jpg,NA,NA,NA,NA,NA,NA,NA,NA,NA,NA,NA,NA,NA,fixation,NA,NA,NA,NA,NA,NA,sub127
d3-animate-choice,186,654713,0.0-76.0-0.17,FALSE,FALSE,FALSE,FALSE,"""event"",""trial"",""time""
""fullscreenenter"",""5"",""16303""
","
","
","""event"",""trial"",""time""
""fullscreenenter"",""5"",""16303""
","
",443.46500001847744,NA,48,NA,NA,3000,1,NA,NA,images/earth.jpg,images/rocket1,images/rocket2,null,images/rocket1,NA,1,real,null,2,NA,NA,NA,sub127
d3-animate-choice,187,657857,0.0-76.0-1.17,FALSE,FALSE,FALSE,FALSE,"""event"",""trial"",""time""
""fullscreenenter"",""5"",""16303""
","
","
","""event"",""trial"",""time""
""fullscreenenter"",""5"",""16303""
","
",1140.445000026375,NA,49,NA,NA,3000,1,NA,NA,images/redplanet1.jpg,images/alien2,images/alien1,images/rocket1,images/alien1,images/nothing.png,2,real,false,1,rare,0,2020-06-23T20:58:40Z,sub127
two-step-fixation,188,658865,0.0-76.0-2.17,FALSE,FALSE,FALSE,FALSE,"""event"",""trial"",""time""
""fullscreenenter"",""5"",""16303""
","
","
","""event"",""trial"",""time""
""fullscreenenter"",""5"",""16303""
","
",NA,images/earth.jpg,NA,NA,NA,NA,NA,NA,NA,NA,NA,NA,NA,NA,NA,fixation,NA,NA,NA,NA,NA,NA,sub127
d3-animate-choice,189,661333,0.0-76.0-0.18,FALSE,FALSE,FALSE,FALSE,"""event"",""trial"",""time""
""fullscreenenter"",""5"",""16303""
","
","
","""event"",""trial"",""time""
""fullscreenenter"",""5"",""16303""
","
",462.8549999324605,NA,48,NA,NA,3000,1,NA,NA,images/earth.jpg,images/rocket1,images/rocket2,null,images/rocket1,NA,1,real,null,2,NA,NA,NA,sub127
d3-animate-choice,190,663730,0.0-76.0-1.18,FALSE,FALSE,FALSE,FALSE,"""event"",""trial"",""time""
""fullscreenenter"",""5"",""16303""
","
","
","""event"",""trial"",""time""
""fullscreenenter"",""5"",""16303""
","
",393.8900000648573,NA,49,NA,NA,3000,1,NA,NA,images/purpleplanet.jpg,images/alien4,images/alien3,images/rocket1,images/alien3,images/nothing.png,2,real,true,1,common,0,2020-06-23T20:58:46Z,sub127
two-step-fixation,191,664734,0.0-76.0-2.18,FALSE,FALSE,FALSE,FALSE,"""event"",""trial"",""time""
""fullscreenenter"",""5"",""16303""
","
","
","""event"",""trial"",""time""
""fullscreenenter"",""5"",""16303""
","
",NA,images/earth.jpg,NA,NA,NA,NA,NA,NA,NA,NA,NA,NA,NA,NA,NA,fixation,NA,NA,NA,NA,NA,NA,sub127
d3-animate-choice,192,667124,0.0-76.0-0.19,FALSE,FALSE,FALSE,FALSE,"""event"",""trial"",""time""
""fullscreenenter"",""5"",""16303""
","
","
","""event"",""trial"",""time""
""fullscreenenter"",""5"",""16303""
","
",385.1900000590831,NA,49,NA,NA,3000,1,NA,NA,images/earth.jpg,images/rocket1,images/rocket2,null,images/rocket2,NA,1,real,null,1,NA,NA,NA,sub127
d3-animate-choice,193,669457,0.0-76.0-1.19,FALSE,FALSE,FALSE,FALSE,"""event"",""trial"",""time""
""fullscreenenter"",""5"",""16303""
","
","
","""event"",""trial"",""time""
""fullscreenenter"",""5"",""16303""
","
",326.60500006750226,NA,49,NA,NA,3000,1,NA,NA,images/redplanet1.jpg,images/alien2,images/alien1,images/rocket2,images/alien1,images/nothing.png,2,real,true,1,common,0,2020-06-23T20:58:51Z,sub127
two-step-fixation,194,670460,0.0-76.0-2.19,FALSE,FALSE,FALSE,FALSE,"""event"",""trial"",""time""
""fullscreenenter"",""5"",""16303""
","
","
","""event"",""trial"",""time""
""fullscreenenter"",""5"",""16303""
","
",NA,images/earth.jpg,NA,NA,NA,NA,NA,NA,NA,NA,NA,NA,NA,NA,NA,fixation,NA,NA,NA,NA,NA,NA,sub127
d3-animate-choice,195,672786,0.0-76.0-0.20,FALSE,FALSE,FALSE,FALSE,"""event"",""trial"",""time""
""fullscreenenter"",""5"",""16303""
","
","
","""event"",""trial"",""time""
""fullscreenenter"",""5"",""16303""
","
",321.96500001009554,NA,49,NA,NA,3000,1,NA,NA,images/earth.jpg,images/rocket1,images/rocket2,null,images/rocket2,NA,1,real,null,1,NA,NA,NA,sub127
d3-animate-choice,196,675252,0.0-76.0-1.20,FALSE,FALSE,FALSE,FALSE,"""event"",""trial"",""time""
""fullscreenenter"",""5"",""16303""
","
","
","""event"",""trial"",""time""
""fullscreenenter"",""5"",""16303""
","
",460.8299999963492,NA,49,NA,NA,3000,1,NA,NA,images/redplanet1.jpg,images/alien2,images/alien1,images/rocket2,images/alien1,images/t.png,2,real,true,1,common,1,2020-06-23T20:58:57Z,sub127
two-step-fixation,197,676256,0.0-76.0-2.20,FALSE,FALSE,FALSE,FALSE,"""event"",""trial"",""time""
""fullscreenenter"",""5"",""16303""
","
","
","""event"",""trial"",""time""
""fullscreenenter"",""5"",""16303""
","
",NA,images/earth.jpg,NA,NA,NA,NA,NA,NA,NA,NA,NA,NA,NA,NA,NA,fixation,NA,NA,NA,NA,NA,NA,sub127
d3-animate-choice,198,678573,0.0-76.0-0.21,FALSE,FALSE,FALSE,FALSE,"""event"",""trial"",""time""
""fullscreenenter"",""5"",""16303""
","
","
","""event"",""trial"",""time""
""fullscreenenter"",""5"",""16303""
","
",311.9400000432506,NA,49,NA,NA,3000,1,NA,NA,images/earth.jpg,images/rocket1,images/rocket2,null,images/rocket2,NA,1,real,null,1,NA,NA,NA,sub127
d3-animate-choice,199,680858,0.0-76.0-1.21,FALSE,FALSE,FALSE,FALSE,"""event"",""trial"",""time""
""fullscreenenter"",""5"",""16303""
","
","
","""event"",""trial"",""time""
""fullscreenenter"",""5"",""16303""
","
",281.3849999802187,NA,49,NA,NA,3000,1,NA,NA,images/redplanet1.jpg,images/alien2,images/alien1,images/rocket2,images/alien1,images/nothing.png,2,real,true,1,common,0,2020-06-23T20:59:03Z,sub127
two-step-fixation,200,681867,0.0-76.0-2.21,FALSE,FALSE,FALSE,FALSE,"""event"",""trial"",""time""
""fullscreenenter"",""5"",""16303""
","
","
","""event"",""trial"",""time""
""fullscreenenter"",""5"",""16303""
","
",NA,images/earth.jpg,NA,NA,NA,NA,NA,NA,NA,NA,NA,NA,NA,NA,NA,fixation,NA,NA,NA,NA,NA,NA,sub127
d3-animate-choice,201,684164,0.0-76.0-0.22,FALSE,FALSE,FALSE,FALSE,"""event"",""trial"",""time""
""fullscreenenter"",""5"",""16303""
","
","
","""event"",""trial"",""time""
""fullscreenenter"",""5"",""16303""
","
",293.91500004567206,NA,49,NA,NA,3000,1,NA,NA,images/earth.jpg,images/rocket1,images/rocket2,null,images/rocket2,NA,1,real,null,1,NA,NA,NA,sub127
d3-animate-choice,202,686585,0.0-76.0-1.22,FALSE,FALSE,FALSE,FALSE,"""event"",""trial"",""time""
""fullscreenenter"",""5"",""16303""
","
","
","""event"",""trial"",""time""
""fullscreenenter"",""5"",""16303""
","
",417.3200000077486,NA,48,NA,NA,3000,1,NA,NA,images/purpleplanet.jpg,images/alien4,images/alien3,images/rocket2,images/alien4,images/nothing.png,2,real,false,2,rare,0,2020-06-23T20:59:09Z,sub127
two-step-fixation,203,687590,0.0-76.0-2.22,FALSE,FALSE,FALSE,FALSE,"""event"",""trial"",""time""
""fullscreenenter"",""5"",""16303""
","
","
","""event"",""trial"",""time""
""fullscreenenter"",""5"",""16303""
","
",NA,images/earth.jpg,NA,NA,NA,NA,NA,NA,NA,NA,NA,NA,NA,NA,NA,fixation,NA,NA,NA,NA,NA,NA,sub127
d3-animate-choice,204,689908,0.0-76.0-0.23,FALSE,FALSE,FALSE,FALSE,"""event"",""trial"",""time""
""fullscreenenter"",""5"",""16303""
","
","
","""event"",""trial"",""time""
""fullscreenenter"",""5"",""16303""
","
",313.01499996334314,NA,49,NA,NA,3000,1,NA,NA,images/earth.jpg,images/rocket1,images/rocket2,null,images/rocket2,NA,1,real,null,1,NA,NA,NA,sub127
d3-animate-choice,205,692339,0.0-76.0-1.23,FALSE,FALSE,FALSE,FALSE,"""event"",""trial"",""time""
""fullscreenenter"",""5"",""16303""
","
","
","""event"",""trial"",""time""
""fullscreenenter"",""5"",""16303""
","
",424.37499994412065,NA,48,NA,NA,3000,1,NA,NA,images/redplanet1.jpg,images/alien2,images/alien1,images/rocket2,images/alien2,images/t.png,2,real,true,2,common,1,2020-06-23T20:59:14Z,sub127
two-step-fixation,206,693346,0.0-76.0-2.23,FALSE,FALSE,FALSE,FALSE,"""event"",""trial"",""time""
""fullscreenenter"",""5"",""16303""
","
","
","""event"",""trial"",""time""
""fullscreenenter"",""5"",""16303""
","
",NA,images/earth.jpg,NA,NA,NA,NA,NA,NA,NA,NA,NA,NA,NA,NA,NA,fixation,NA,NA,NA,NA,NA,NA,sub127
d3-animate-choice,207,695610,0.0-76.0-0.24,FALSE,FALSE,FALSE,FALSE,"""event"",""trial"",""time""
""fullscreenenter"",""5"",""16303""
","
","
","""event"",""trial"",""time""
""fullscreenenter"",""5"",""16303""
","
",260.0300000049174,NA,49,NA,NA,3000,1,NA,NA,images/earth.jpg,images/rocket1,images/rocket2,null,images/rocket2,NA,1,real,null,1,NA,NA,NA,sub127
d3-animate-choice,208,697962,0.0-76.0-1.24,FALSE,FALSE,FALSE,FALSE,"""event"",""trial"",""time""
""fullscreenenter"",""5"",""16303""
","
","
","""event"",""trial"",""time""
""fullscreenenter"",""5"",""16303""
","
",343.72000000439584,NA,48,NA,NA,3000,1,NA,NA,images/redplanet1.jpg,images/alien2,images/alien1,images/rocket2,images/alien2,images/t.png,2,real,true,2,common,1,2020-06-23T20:59:20Z,sub127
two-step-fixation,209,698968,0.0-76.0-2.24,FALSE,FALSE,FALSE,FALSE,"""event"",""trial"",""time""
""fullscreenenter"",""5"",""16303""
","
","
","""event"",""trial"",""time""
""fullscreenenter"",""5"",""16303""
","
",NA,images/earth.jpg,NA,NA,NA,NA,NA,NA,NA,NA,NA,NA,NA,NA,NA,fixation,NA,NA,NA,NA,NA,NA,sub127
d3-animate-choice,210,701241,0.0-76.0-0.25,FALSE,FALSE,FALSE,FALSE,"""event"",""trial"",""time""
""fullscreenenter"",""5"",""16303""
","
","
","""event"",""trial"",""time""
""fullscreenenter"",""5"",""16303""
","
",270.51999990362674,NA,49,NA,NA,3000,1,NA,NA,images/earth.jpg,images/rocket1,images/rocket2,null,images/rocket2,NA,1,real,null,1,NA,NA,NA,sub127
d3-animate-choice,211,703674,0.0-76.0-1.25,FALSE,FALSE,FALSE,FALSE,"""event"",""trial"",""time""
""fullscreenenter"",""5"",""16303""
","
","
","""event"",""trial"",""time""
""fullscreenenter"",""5"",""16303""
","
",429.2750000022352,NA,48,NA,NA,3000,1,NA,NA,images/purpleplanet.jpg,images/alien4,images/alien3,images/rocket2,images/alien4,images/t.png,2,real,false,2,rare,1,2020-06-23T20:59:26Z,sub127
two-step-fixation,212,704679,0.0-76.0-2.25,FALSE,FALSE,FALSE,FALSE,"""event"",""trial"",""time""
""fullscreenenter"",""5"",""16303""
","
","
","""event"",""trial"",""time""
""fullscreenenter"",""5"",""16303""
","
",NA,images/earth.jpg,NA,NA,NA,NA,NA,NA,NA,NA,NA,NA,NA,NA,NA,fixation,NA,NA,NA,NA,NA,NA,sub127
d3-animate-choice,213,706976,0.0-76.0-0.26,FALSE,FALSE,FALSE,FALSE,"""event"",""trial"",""time""
""fullscreenenter"",""5"",""16303""
","
","
","""event"",""trial"",""time""
""fullscreenenter"",""5"",""16303""
","
",286.5050000837073,NA,49,NA,NA,3000,1,NA,NA,images/earth.jpg,images/rocket1,images/rocket2,null,images/rocket2,NA,1,real,null,1,NA,NA,NA,sub127
d3-animate-choice,214,709394,0.0-76.0-1.26,FALSE,FALSE,FALSE,FALSE,"""event"",""trial"",""time""
""fullscreenenter"",""5"",""16303""
","
","
","""event"",""trial"",""time""
""fullscreenenter"",""5"",""16303""
","
",409.5349999843165,NA,48,NA,NA,3000,1,NA,NA,images/redplanet1.jpg,images/alien2,images/alien1,images/rocket2,images/alien2,images/t.png,2,real,true,2,common,1,2020-06-23T20:59:31Z,sub127
two-step-fixation,215,710397,0.0-76.0-2.26,FALSE,FALSE,FALSE,FALSE,"""event"",""trial"",""time""
""fullscreenenter"",""5"",""16303""
","
","
","""event"",""trial"",""time""
""fullscreenenter"",""5"",""16303""
","
",NA,images/earth.jpg,NA,NA,NA,NA,NA,NA,NA,NA,NA,NA,NA,NA,NA,fixation,NA,NA,NA,NA,NA,NA,sub127
d3-animate-choice,216,712691,0.0-76.0-0.27,FALSE,FALSE,FALSE,FALSE,"""event"",""trial"",""time""
""fullscreenenter"",""5"",""16303""
","
","
","""event"",""trial"",""time""
""fullscreenenter"",""5"",""16303""
","
",289.5450000651181,NA,49,NA,NA,3000,1,NA,NA,images/earth.jpg,images/rocket1,images/rocket2,null,images/rocket2,NA,1,real,null,1,NA,NA,NA,sub127
d3-animate-choice,217,715571,0.0-76.0-1.27,FALSE,FALSE,FALSE,FALSE,"""event"",""trial"",""time""
""fullscreenenter"",""5"",""16303""
","
","
","""event"",""trial"",""time""
""fullscreenenter"",""5"",""16303""
","
",870.7299999659881,NA,49,NA,NA,3000,1,NA,NA,images/purpleplanet.jpg,images/alien4,images/alien3,images/rocket2,images/alien3,images/nothing.png,2,real,false,1,rare,0,2020-06-23T20:59:38Z,sub127
two-step-fixation,218,716579,0.0-76.0-2.27,FALSE,FALSE,FALSE,FALSE,"""event"",""trial"",""time""
""fullscreenenter"",""5"",""16303""
","
","
","""event"",""trial"",""time""
""fullscreenenter"",""5"",""16303""
","
",NA,images/earth.jpg,NA,NA,NA,NA,NA,NA,NA,NA,NA,NA,NA,NA,NA,fixation,NA,NA,NA,NA,NA,NA,sub127
d3-animate-choice,219,719258,0.0-76.0-0.28,FALSE,FALSE,FALSE,FALSE,"""event"",""trial"",""time""
""fullscreenenter"",""5"",""16303""
","
","
","""event"",""trial"",""time""
""fullscreenenter"",""5"",""16303""
","
",675.4499999806285,NA,49,NA,NA,3000,1,NA,NA,images/earth.jpg,images/rocket1,images/rocket2,null,images/rocket2,NA,1,real,null,1,NA,NA,NA,sub127
d3-animate-choice,220,721778,0.0-76.0-1.28,FALSE,FALSE,FALSE,FALSE,"""event"",""trial"",""time""
""fullscreenenter"",""5"",""16303""
","
","
","""event"",""trial"",""time""
""fullscreenenter"",""5"",""16303""
","
",516.8350000167266,NA,48,NA,NA,3000,1,NA,NA,images/redplanet1.jpg,images/alien2,images/alien1,images/rocket2,images/alien2,images/nothing.png,2,real,true,2,common,0,2020-06-23T20:59:44Z,sub127
two-step-fixation,221,722783,0.0-76.0-2.28,FALSE,FALSE,FALSE,FALSE,"""event"",""trial"",""time""
""fullscreenenter"",""5"",""16303""
","
","
","""event"",""trial"",""time""
""fullscreenenter"",""5"",""16303""
","
",NA,images/earth.jpg,NA,NA,NA,NA,NA,NA,NA,NA,NA,NA,NA,NA,NA,fixation,NA,NA,NA,NA,NA,NA,sub127
d3-animate-choice,222,724874,0.0-76.0-0.29,FALSE,FALSE,FALSE,FALSE,"""event"",""trial"",""time""
""fullscreenenter"",""5"",""16303""
","
","
","""event"",""trial"",""time""
""fullscreenenter"",""5"",""16303""
","
",87.80000009573996,NA,49,NA,NA,3000,1,NA,NA,images/earth.jpg,images/rocket1,images/rocket2,null,images/rocket2,NA,1,real,null,1,NA,NA,NA,sub127
d3-animate-choice,223,727412,0.0-76.0-1.29,FALSE,FALSE,FALSE,FALSE,"""event"",""trial"",""time""
""fullscreenenter"",""5"",""16303""
","
","
","""event"",""trial"",""time""
""fullscreenenter"",""5"",""16303""
","
",533.4899999434128,NA,48,NA,NA,3000,1,NA,NA,images/redplanet1.jpg,images/alien2,images/alien1,images/rocket2,images/alien2,images/t.png,2,real,true,2,common,1,2020-06-23T20:59:49Z,sub127
two-step-fixation,224,728417,0.0-76.0-2.29,FALSE,FALSE,FALSE,FALSE,"""event"",""trial"",""time""
""fullscreenenter"",""5"",""16303""
","
","
","""event"",""trial"",""time""
""fullscreenenter"",""5"",""16303""
","
",NA,images/earth.jpg,NA,NA,NA,NA,NA,NA,NA,NA,NA,NA,NA,NA,NA,fixation,NA,NA,NA,NA,NA,NA,sub127
d3-animate-choice,225,730714,0.0-76.0-0.30,FALSE,FALSE,FALSE,FALSE,"""event"",""trial"",""time""
""fullscreenenter"",""5"",""16303""
","
","
","""event"",""trial"",""time""
""fullscreenenter"",""5"",""16303""
","
",292.589999968186,NA,49,NA,NA,3000,1,NA,NA,images/earth.jpg,images/rocket1,images/rocket2,null,images/rocket2,NA,1,real,null,1,NA,NA,NA,sub127
d3-animate-choice,226,733209,0.0-76.0-1.30,FALSE,FALSE,FALSE,FALSE,"""event"",""trial"",""time""
""fullscreenenter"",""5"",""16303""
","
","
","""event"",""trial"",""time""
""fullscreenenter"",""5"",""16303""
","
",492.4449999816716,NA,48,NA,NA,3000,1,NA,NA,images/redplanet1.jpg,images/alien2,images/alien1,images/rocket2,images/alien2,images/t.png,2,real,true,2,common,1,2020-06-23T20:59:55Z,sub127
two-step-fixation,227,734213,0.0-76.0-2.30,FALSE,FALSE,FALSE,FALSE,"""event"",""trial"",""time""
""fullscreenenter"",""5"",""16303""
","
","
","""event"",""trial"",""time""
""fullscreenenter"",""5"",""16303""
","
",NA,images/earth.jpg,NA,NA,NA,NA,NA,NA,NA,NA,NA,NA,NA,NA,NA,fixation,NA,NA,NA,NA,NA,NA,sub127
d3-animate-choice,228,736275,0.0-76.0-0.31,FALSE,FALSE,FALSE,FALSE,"""event"",""trial"",""time""
""fullscreenenter"",""5"",""16303""
","
","
","""event"",""trial"",""time""
""fullscreenenter"",""5"",""16303""
","
",57.40499997045845,NA,49,NA,NA,3000,1,NA,NA,images/earth.jpg,images/rocket1,images/rocket2,null,images/rocket2,NA,1,real,null,1,NA,NA,NA,sub127
d3-animate-choice,229,739489,0.0-76.0-1.31,FALSE,FALSE,FALSE,FALSE,"""event"",""trial"",""time""
""fullscreenenter"",""5"",""16303""
","
","
","""event"",""trial"",""time""
""fullscreenenter"",""5"",""16303""
","
",1207.605000003241,NA,48,NA,NA,3000,1,NA,NA,images/purpleplanet.jpg,images/alien4,images/alien3,images/rocket2,images/alien4,images/t.png,2,real,false,2,rare,1,2020-06-23T21:00:01Z,sub127
two-step-fixation,230,740492,0.0-76.0-2.31,FALSE,FALSE,FALSE,FALSE,"""event"",""trial"",""time""
""fullscreenenter"",""5"",""16303""
","
","
","""event"",""trial"",""time""
""fullscreenenter"",""5"",""16303""
","
",NA,images/earth.jpg,NA,NA,NA,NA,NA,NA,NA,NA,NA,NA,NA,NA,NA,fixation,NA,NA,NA,NA,NA,NA,sub127
d3-animate-choice,231,742562,0.0-76.0-0.32,FALSE,FALSE,FALSE,FALSE,"""event"",""trial"",""time""
""fullscreenenter"",""5"",""16303""
","
","
","""event"",""trial"",""time""
""fullscreenenter"",""5"",""16303""
","
",67.2649999614805,NA,49,NA,NA,3000,1,NA,NA,images/earth.jpg,images/rocket1,images/rocket2,null,images/rocket2,NA,1,real,null,1,NA,NA,NA,sub127
d3-animate-choice,232,744884,0.0-76.0-1.32,FALSE,FALSE,FALSE,FALSE,"""event"",""trial"",""time""
""fullscreenenter"",""5"",""16303""
","
","
","""event"",""trial"",""time""
""fullscreenenter"",""5"",""16303""
","
",314.1250000335276,NA,48,NA,NA,3000,1,NA,NA,images/redplanet1.jpg,images/alien2,images/alien1,images/rocket2,images/alien2,images/t.png,2,real,true,2,common,1,2020-06-23T21:00:07Z,sub127
two-step-fixation,233,745887,0.0-76.0-2.32,FALSE,FALSE,FALSE,FALSE,"""event"",""trial"",""time""
""fullscreenenter"",""5"",""16303""
","
","
","""event"",""trial"",""time""
""fullscreenenter"",""5"",""16303""
","
",NA,images/earth.jpg,NA,NA,NA,NA,NA,NA,NA,NA,NA,NA,NA,NA,NA,fixation,NA,NA,NA,NA,NA,NA,sub127
d3-animate-choice,234,747922,0.0-76.0-0.33,FALSE,FALSE,FALSE,FALSE,"""event"",""trial"",""time""
""fullscreenenter"",""5"",""16303""
","
","
","""event"",""trial"",""time""
""fullscreenenter"",""5"",""16303""
","
",30.390000087209046,NA,49,NA,NA,3000,1,NA,NA,images/earth.jpg,images/rocket1,images/rocket2,null,images/rocket2,NA,1,real,null,1,NA,NA,NA,sub127
d3-animate-choice,235,750707,0.0-76.0-1.33,FALSE,FALSE,FALSE,FALSE,"""event"",""trial"",""time""
""fullscreenenter"",""5"",""16303""
","
","
","""event"",""trial"",""time""
""fullscreenenter"",""5"",""16303""
","
",779.2899999767542,NA,48,NA,NA,3000,1,NA,NA,images/purpleplanet.jpg,images/alien4,images/alien3,images/rocket2,images/alien4,images/t.png,2,real,false,2,rare,1,2020-06-23T21:00:13Z,sub127
two-step-fixation,236,751714,0.0-76.0-2.33,FALSE,FALSE,FALSE,FALSE,"""event"",""trial"",""time""
""fullscreenenter"",""5"",""16303""
","
","
","""event"",""trial"",""time""
""fullscreenenter"",""5"",""16303""
","
",NA,images/earth.jpg,NA,NA,NA,NA,NA,NA,NA,NA,NA,NA,NA,NA,NA,fixation,NA,NA,NA,NA,NA,NA,sub127
d3-animate-choice,237,754035,0.0-76.0-0.34,FALSE,FALSE,FALSE,FALSE,"""event"",""trial"",""time""
""fullscreenenter"",""5"",""16303""
","
","
","""event"",""trial"",""time""
""fullscreenenter"",""5"",""16303""
","
",315.99500006996095,NA,49,NA,NA,3000,1,NA,NA,images/earth.jpg,images/rocket1,images/rocket2,null,images/rocket2,NA,1,real,null,1,NA,NA,NA,sub127
d3-animate-choice,238,756450,0.0-76.0-1.34,FALSE,FALSE,FALSE,FALSE,"""event"",""trial"",""time""
""fullscreenenter"",""5"",""16303""
","
","
","""event"",""trial"",""time""
""fullscreenenter"",""5"",""16303""
","
",406.650000018999,NA,48,NA,NA,3000,1,NA,NA,images/redplanet1.jpg,images/alien2,images/alien1,images/rocket2,images/alien2,images/t.png,2,real,true,2,common,1,2020-06-23T21:00:18Z,sub127
two-step-fixation,239,757454,0.0-76.0-2.34,FALSE,FALSE,FALSE,FALSE,"""event"",""trial"",""time""
""fullscreenenter"",""5"",""16303""
","
","
","""event"",""trial"",""time""
""fullscreenenter"",""5"",""16303""
","
",NA,images/earth.jpg,NA,NA,NA,NA,NA,NA,NA,NA,NA,NA,NA,NA,NA,fixation,NA,NA,NA,NA,NA,NA,sub127
d3-animate-choice,240,759694,0.0-76.0-0.35,FALSE,FALSE,FALSE,FALSE,"""event"",""trial"",""time""
""fullscreenenter"",""5"",""16303""
","
","
","""event"",""trial"",""time""
""fullscreenenter"",""5"",""16303""
","
",231.13999993074685,NA,49,NA,NA,3000,1,2226.2549999868497,48,images/earth.jpg,images/rocket1,images/rocket2,null,images/rocket2,NA,1,real,null,1,NA,NA,NA,sub127
d3-animate-choice,241,762027,0.0-76.0-1.35,FALSE,FALSE,FALSE,FALSE,"""event"",""trial"",""time""
""fullscreenenter"",""5"",""16303""
","
","
","""event"",""trial"",""time""
""fullscreenenter"",""5"",""16303""
","
",325.4000000888482,NA,48,NA,NA,3000,1,NA,NA,images/purpleplanet.jpg,images/alien4,images/alien3,images/rocket2,images/alien4,images/nothing.png,2,real,false,2,rare,0,2020-06-23T21:00:24Z,sub127
two-step-fixation,242,763030,0.0-76.0-2.35,FALSE,FALSE,FALSE,FALSE,"""event"",""trial"",""time""
""fullscreenenter"",""5"",""16303""
","
","
","""event"",""trial"",""time""
""fullscreenenter"",""5"",""16303""
","
",NA,images/earth.jpg,NA,NA,NA,NA,NA,NA,NA,NA,NA,NA,NA,NA,NA,fixation,NA,NA,NA,NA,NA,NA,sub127
d3-animate-choice,243,765330,0.0-76.0-0.36,FALSE,FALSE,FALSE,FALSE,"""event"",""trial"",""time""
""fullscreenenter"",""5"",""16303""
","
","
","""event"",""trial"",""time""
""fullscreenenter"",""5"",""16303""
","
",295.51500000525266,NA,49,NA,NA,3000,1,NA,NA,images/earth.jpg,images/rocket1,images/rocket2,null,images/rocket2,NA,1,real,null,1,NA,NA,NA,sub127
d3-animate-choice,244,767498,0.0-76.0-1.36,FALSE,FALSE,FALSE,FALSE,"""event"",""trial"",""time""
""fullscreenenter"",""5"",""16303""
","
","
","""event"",""trial"",""time""
""fullscreenenter"",""5"",""16303""
","
",160.3850000537932,NA,48,NA,NA,3000,1,NA,NA,images/redplanet1.jpg,images/alien2,images/alien1,images/rocket2,images/alien2,images/t.png,2,real,true,2,common,1,2020-06-23T21:00:29Z,sub127
two-step-fixation,245,768504,0.0-76.0-2.36,FALSE,FALSE,FALSE,FALSE,"""event"",""trial"",""time""
""fullscreenenter"",""5"",""16303""
","
","
","""event"",""trial"",""time""
""fullscreenenter"",""5"",""16303""
","
",NA,images/earth.jpg,NA,NA,NA,NA,NA,NA,NA,NA,NA,NA,NA,NA,NA,fixation,NA,NA,NA,NA,NA,NA,sub127
d3-animate-choice,246,770514,0.0-76.0-0.37,FALSE,FALSE,FALSE,FALSE,"""event"",""trial"",""time""
""fullscreenenter"",""5"",""16303""
","
","
","""event"",""trial"",""time""
""fullscreenenter"",""5"",""16303""
","
",6.984999985434115,NA,49,NA,NA,3000,1,NA,NA,images/earth.jpg,images/rocket1,images/rocket2,null,images/rocket2,NA,1,real,null,1,NA,NA,NA,sub127
d3-animate-choice,247,772787,0.0-76.0-1.37,FALSE,FALSE,FALSE,FALSE,"""event"",""trial"",""time""
""fullscreenenter"",""5"",""16303""
","
","
","""event"",""trial"",""time""
""fullscreenenter"",""5"",""16303""
","
",268.9649999374524,NA,48,NA,NA,3000,1,NA,NA,images/redplanet1.jpg,images/alien2,images/alien1,images/rocket2,images/alien2,images/nothing.png,2,real,true,2,common,0,2020-06-23T21:00:35Z,sub127
two-step-fixation,248,773790,0.0-76.0-2.37,FALSE,FALSE,FALSE,FALSE,"""event"",""trial"",""time""
""fullscreenenter"",""5"",""16303""
","
","
","""event"",""trial"",""time""
""fullscreenenter"",""5"",""16303""
","
",NA,images/earth.jpg,NA,NA,NA,NA,NA,NA,NA,NA,NA,NA,NA,NA,NA,fixation,NA,NA,NA,NA,NA,NA,sub127
d3-animate-choice,249,775835,0.0-76.0-0.38,FALSE,FALSE,FALSE,FALSE,"""event"",""trial"",""time""
""fullscreenenter"",""5"",""16303""
","
","
","""event"",""trial"",""time""
""fullscreenenter"",""5"",""16303""
","
",41.54000000562519,NA,49,NA,NA,3000,1,NA,NA,images/earth.jpg,images/rocket1,images/rocket2,null,images/rocket2,NA,1,real,null,1,NA,NA,NA,sub127
d3-animate-choice,250,777987,0.0-76.0-1.38,FALSE,FALSE,FALSE,FALSE,"""event"",""trial"",""time""
""fullscreenenter"",""5"",""16303""
","
","
","""event"",""trial"",""time""
""fullscreenenter"",""5"",""16303""
","
",148.42500002123415,NA,48,NA,NA,3000,1,NA,NA,images/purpleplanet.jpg,images/alien4,images/alien3,images/rocket2,images/alien4,images/t.png,2,real,false,2,rare,1,2020-06-23T21:00:40Z,sub127
two-step-fixation,251,778991,0.0-76.0-2.38,FALSE,FALSE,FALSE,FALSE,"""event"",""trial"",""time""
""fullscreenenter"",""5"",""16303""
","
","
","""event"",""trial"",""time""
""fullscreenenter"",""5"",""16303""
","
",NA,images/earth.jpg,NA,NA,NA,NA,NA,NA,NA,NA,NA,NA,NA,NA,NA,fixation,NA,NA,NA,NA,NA,NA,sub127
d3-animate-choice,252,781330,0.0-76.0-0.39,FALSE,FALSE,FALSE,FALSE,"""event"",""trial"",""time""
""fullscreenenter"",""5"",""16303""
","
","
","""event"",""trial"",""time""
""fullscreenenter"",""5"",""16303""
","
",333.4850000683218,NA,49,NA,NA,3000,1,NA,NA,images/earth.jpg,images/rocket1,images/rocket2,null,images/rocket2,NA,1,real,null,1,NA,NA,NA,sub127
d3-animate-choice,253,784268,0.0-76.0-1.39,FALSE,FALSE,FALSE,FALSE,"""event"",""trial"",""time""
""fullscreenenter"",""5"",""16303""
","
","
","""event"",""trial"",""time""
""fullscreenenter"",""5"",""16303""
","
",933.504999964498,NA,48,NA,NA,3000,1,NA,NA,images/purpleplanet.jpg,images/alien4,images/alien3,images/rocket2,images/alien4,images/nothing.png,2,real,false,2,rare,0,2020-06-23T21:00:46Z,sub127
two-step-fixation,254,785275,0.0-76.0-2.39,FALSE,FALSE,FALSE,FALSE,"""event"",""trial"",""time""
""fullscreenenter"",""5"",""16303""
","
","
","""event"",""trial"",""time""
""fullscreenenter"",""5"",""16303""
","
",NA,images/earth.jpg,NA,NA,NA,NA,NA,NA,NA,NA,NA,NA,NA,NA,NA,fixation,NA,NA,NA,NA,NA,NA,sub127
d3-animate-choice,255,787470,0.0-76.0-0.40,FALSE,FALSE,FALSE,FALSE,"""event"",""trial"",""time""
""fullscreenenter"",""5"",""16303""
","
","
","""event"",""trial"",""time""
""fullscreenenter"",""5"",""16303""
","
",186.24000006821007,NA,49,NA,NA,3000,1,NA,NA,images/earth.jpg,images/rocket1,images/rocket2,null,images/rocket2,NA,1,real,null,1,NA,NA,NA,sub127
d3-animate-choice,256,789859,0.0-76.0-1.40,FALSE,FALSE,FALSE,FALSE,"""event"",""trial"",""time""
""fullscreenenter"",""5"",""16303""
","
","
","""event"",""trial"",""time""
""fullscreenenter"",""5"",""16303""
","
",382.97499995678663,NA,48,NA,NA,3000,1,NA,NA,images/redplanet1.jpg,images/alien2,images/alien1,images/rocket2,images/alien2,images/t.png,2,real,true,2,common,1,2020-06-23T21:00:52Z,sub127
two-step-fixation,257,790862,0.0-76.0-2.40,FALSE,FALSE,FALSE,FALSE,"""event"",""trial"",""time""
""fullscreenenter"",""5"",""16303""
","
","
","""event"",""trial"",""time""
""fullscreenenter"",""5"",""16303""
","
",NA,images/earth.jpg,NA,NA,NA,NA,NA,NA,NA,NA,NA,NA,NA,NA,NA,fixation,NA,NA,NA,NA,NA,NA,sub127
d3-animate-choice,258,793177,0.0-76.0-0.41,FALSE,FALSE,FALSE,FALSE,"""event"",""trial"",""time""
""fullscreenenter"",""5"",""16303""
","
","
","""event"",""trial"",""time""
""fullscreenenter"",""5"",""16303""
","
",310.8999999240041,NA,49,NA,NA,3000,1,NA,NA,images/earth.jpg,images/rocket1,images/rocket2,null,images/rocket2,NA,1,real,null,1,NA,NA,NA,sub127
d3-animate-choice,259,795473,0.0-76.0-1.41,FALSE,FALSE,FALSE,FALSE,"""event"",""trial"",""time""
""fullscreenenter"",""5"",""16303""
","
","
","""event"",""trial"",""time""
""fullscreenenter"",""5"",""16303""
","
",293.13500004354864,NA,48,NA,NA,3000,1,NA,NA,images/redplanet1.jpg,images/alien2,images/alien1,images/rocket2,images/alien2,images/nothing.png,2,real,true,2,common,0,2020-06-23T21:00:57Z,sub127
two-step-fixation,260,796476,0.0-76.0-2.41,FALSE,FALSE,FALSE,FALSE,"""event"",""trial"",""time""
""fullscreenenter"",""5"",""16303""
","
","
","""event"",""trial"",""time""
""fullscreenenter"",""5"",""16303""
","
",NA,images/earth.jpg,NA,NA,NA,NA,NA,NA,NA,NA,NA,NA,NA,NA,NA,fixation,NA,NA,NA,NA,NA,NA,sub127
d3-animate-choice,261,798619,0.0-76.0-0.42,FALSE,FALSE,FALSE,FALSE,"""event"",""trial"",""time""
""fullscreenenter"",""5"",""16303""
","
","
","""event"",""trial"",""time""
""fullscreenenter"",""5"",""16303""
","
",137.9200000083074,NA,49,NA,NA,3000,1,NA,NA,images/earth.jpg,images/rocket1,images/rocket2,null,images/rocket2,NA,1,real,null,1,NA,NA,NA,sub127
d3-animate-choice,262,801594,0.0-76.0-1.42,FALSE,FALSE,FALSE,FALSE,"""event"",""trial"",""time""
""fullscreenenter"",""5"",""16303""
","
","
","""event"",""trial"",""time""
""fullscreenenter"",""5"",""16303""
","
",970.9000000730157,NA,48,NA,NA,3000,1,NA,NA,images/purpleplanet.jpg,images/alien4,images/alien3,images/rocket2,images/alien4,images/nothing.png,2,real,false,2,rare,0,2020-06-23T21:01:04Z,sub127
two-step-fixation,263,802599,0.0-76.0-2.42,FALSE,FALSE,FALSE,FALSE,"""event"",""trial"",""time""
""fullscreenenter"",""5"",""16303""
","
","
","""event"",""trial"",""time""
""fullscreenenter"",""5"",""16303""
","
",NA,images/earth.jpg,NA,NA,NA,NA,NA,NA,NA,NA,NA,NA,NA,NA,NA,fixation,NA,NA,NA,NA,NA,NA,sub127
d3-animate-choice,264,804953,0.0-76.0-0.43,FALSE,FALSE,FALSE,FALSE,"""event"",""trial"",""time""
""fullscreenenter"",""5"",""16303""
","
","
","""event"",""trial"",""time""
""fullscreenenter"",""5"",""16303""
","
",346.4549999916926,NA,49,NA,NA,3000,1,NA,NA,images/earth.jpg,images/rocket1,images/rocket2,null,images/rocket2,NA,1,real,null,1,NA,NA,NA,sub127
d3-animate-choice,265,807578,0.0-76.0-1.43,FALSE,FALSE,FALSE,FALSE,"""event"",""trial"",""time""
""fullscreenenter"",""5"",""16303""
","
","
","""event"",""trial"",""time""
""fullscreenenter"",""5"",""16303""
","
",618.1750000687316,NA,48,NA,NA,3000,1,NA,NA,images/redplanet1.jpg,images/alien2,images/alien1,images/rocket2,images/alien2,images/nothing.png,2,real,true,2,common,0,2020-06-23T21:01:10Z,sub127
two-step-fixation,266,808580,0.0-76.0-2.43,FALSE,FALSE,FALSE,FALSE,"""event"",""trial"",""time""
""fullscreenenter"",""5"",""16303""
","
","
","""event"",""trial"",""time""
""fullscreenenter"",""5"",""16303""
","
",NA,images/earth.jpg,NA,NA,NA,NA,NA,NA,NA,NA,NA,NA,NA,NA,NA,fixation,NA,NA,NA,NA,NA,NA,sub127
d3-animate-choice,267,810777,0.0-76.0-0.44,FALSE,FALSE,FALSE,FALSE,"""event"",""trial"",""time""
""fullscreenenter"",""5"",""16303""
","
","
","""event"",""trial"",""time""
""fullscreenenter"",""5"",""16303""
","
",193.69999994523823,NA,49,NA,NA,3000,1,NA,NA,images/earth.jpg,images/rocket1,images/rocket2,null,images/rocket2,NA,1,real,null,1,NA,NA,NA,sub127
d3-animate-choice,268,813122,0.0-76.0-1.44,FALSE,FALSE,FALSE,FALSE,"""event"",""trial"",""time""
""fullscreenenter"",""5"",""16303""
","
","
","""event"",""trial"",""time""
""fullscreenenter"",""5"",""16303""
","
",338.54499994777143,NA,48,NA,NA,3000,1,NA,NA,images/redplanet1.jpg,images/alien2,images/alien1,images/rocket2,images/alien2,images/t.png,2,real,true,2,common,1,2020-06-23T21:01:15Z,sub127
two-step-fixation,269,814129,0.0-76.0-2.44,FALSE,FALSE,FALSE,FALSE,"""event"",""trial"",""time""
""fullscreenenter"",""5"",""16303""
","
","
","""event"",""trial"",""time""
""fullscreenenter"",""5"",""16303""
","
",NA,images/earth.jpg,NA,NA,NA,NA,NA,NA,NA,NA,NA,NA,NA,NA,NA,fixation,NA,NA,NA,NA,NA,NA,sub127
d3-animate-choice,270,816153,0.0-76.0-0.45,FALSE,FALSE,FALSE,FALSE,"""event"",""trial"",""time""
""fullscreenenter"",""5"",""16303""
","
","
","""event"",""trial"",""time""
""fullscreenenter"",""5"",""16303""
","
",20.099999965168536,NA,49,NA,NA,3000,1,NA,NA,images/earth.jpg,images/rocket1,images/rocket2,null,images/rocket2,NA,1,real,null,1,NA,NA,NA,sub127
d3-animate-choice,271,819154,0.0-76.0-1.45,FALSE,FALSE,FALSE,FALSE,"""event"",""trial"",""time""
""fullscreenenter"",""5"",""16303""
","
","
","""event"",""trial"",""time""
""fullscreenenter"",""5"",""16303""
","
",998.09499992989,NA,48,NA,NA,3000,1,NA,NA,images/purpleplanet.jpg,images/alien4,images/alien3,images/rocket2,images/alien4,images/nothing.png,2,real,false,2,rare,0,2020-06-23T21:01:21Z,sub127
two-step-fixation,272,820157,0.0-76.0-2.45,FALSE,FALSE,FALSE,FALSE,"""event"",""trial"",""time""
""fullscreenenter"",""5"",""16303""
","
","
","""event"",""trial"",""time""
""fullscreenenter"",""5"",""16303""
","
",NA,images/earth.jpg,NA,NA,NA,NA,NA,NA,NA,NA,NA,NA,NA,NA,NA,fixation,NA,NA,NA,NA,NA,NA,sub127
d3-animate-choice,273,822309,0.0-76.0-0.46,FALSE,FALSE,FALSE,FALSE,"""event"",""trial"",""time""
""fullscreenenter"",""5"",""16303""
","
","
","""event"",""trial"",""time""
""fullscreenenter"",""5"",""16303""
","
",143.86999991256744,NA,49,NA,NA,3000,1,NA,NA,images/earth.jpg,images/rocket1,images/rocket2,null,images/rocket2,NA,1,real,null,1,NA,NA,NA,sub127
d3-animate-choice,274,825082,0.0-76.0-1.46,FALSE,FALSE,FALSE,FALSE,"""event"",""trial"",""time""
""fullscreenenter"",""5"",""16303""
","
","
","""event"",""trial"",""time""
""fullscreenenter"",""5"",""16303""
","
",766.5150000248104,NA,49,NA,NA,3000,1,NA,NA,images/purpleplanet.jpg,images/alien4,images/alien3,images/rocket2,images/alien3,images/t.png,2,real,false,1,rare,1,2020-06-23T21:01:27Z,sub127
two-step-fixation,275,826087,0.0-76.0-2.46,FALSE,FALSE,FALSE,FALSE,"""event"",""trial"",""time""
""fullscreenenter"",""5"",""16303""
","
","
","""event"",""trial"",""time""
""fullscreenenter"",""5"",""16303""
","
",NA,images/earth.jpg,NA,NA,NA,NA,NA,NA,NA,NA,NA,NA,NA,NA,NA,fixation,NA,NA,NA,NA,NA,NA,sub127
d3-animate-choice,276,828658,0.0-76.0-0.47,FALSE,FALSE,FALSE,FALSE,"""event"",""trial"",""time""
""fullscreenenter"",""5"",""16303""
","
","
","""event"",""trial"",""time""
""fullscreenenter"",""5"",""16303""
","
",566.5700000245124,NA,49,NA,NA,3000,1,NA,NA,images/earth.jpg,images/rocket1,images/rocket2,null,images/rocket2,NA,1,real,null,1,NA,NA,NA,sub127
d3-animate-choice,277,831121,0.0-76.0-1.47,FALSE,FALSE,FALSE,FALSE,"""event"",""trial"",""time""
""fullscreenenter"",""5"",""16303""
","
","
","""event"",""trial"",""time""
""fullscreenenter"",""5"",""16303""
","
",459.8499999847263,NA,49,NA,NA,3000,1,NA,NA,images/purpleplanet.jpg,images/alien4,images/alien3,images/rocket2,images/alien3,images/nothing.png,2,real,false,1,rare,0,2020-06-23T21:01:33Z,sub127
two-step-fixation,278,832126,0.0-76.0-2.47,FALSE,FALSE,FALSE,FALSE,"""event"",""trial"",""time""
""fullscreenenter"",""5"",""16303""
","
","
","""event"",""trial"",""time""
""fullscreenenter"",""5"",""16303""
","
",NA,images/earth.jpg,NA,NA,NA,NA,NA,NA,NA,NA,NA,NA,NA,NA,NA,fixation,NA,NA,NA,NA,NA,NA,sub127
d3-animate-choice,279,834369,0.0-76.0-0.48,FALSE,FALSE,FALSE,FALSE,"""event"",""trial"",""time""
""fullscreenenter"",""5"",""16303""
","
","
","""event"",""trial"",""time""
""fullscreenenter"",""5"",""16303""
","
",239.1649999190122,NA,49,NA,NA,3000,1,NA,NA,images/earth.jpg,images/rocket1,images/rocket2,null,images/rocket2,NA,1,real,null,1,NA,NA,NA,sub127
d3-animate-choice,280,836779,0.0-76.0-1.48,FALSE,FALSE,FALSE,FALSE,"""event"",""trial"",""time""
""fullscreenenter"",""5"",""16303""
","
","
","""event"",""trial"",""time""
""fullscreenenter"",""5"",""16303""
","
",405.67500004544854,NA,48,NA,NA,3000,1,NA,NA,images/redplanet1.jpg,images/alien2,images/alien1,images/rocket2,images/alien2,images/t.png,2,real,true,2,common,1,2020-06-23T21:01:39Z,sub127
two-step-fixation,281,837781,0.0-76.0-2.48,FALSE,FALSE,FALSE,FALSE,"""event"",""trial"",""time""
