trial_type,trial_index,time_elapsed,internal_node_id,rocket_sides,red_planet_first_rocket,red_display_order,purple_display_order,interactions,blur_events,focus_events,fullscreenenter_events,fullscreenexit_events,rt,stimulus,key_press,button_pressed,success,duration,valid_pressed,rts,keys,planet_text,right_text,left_text,center_text,chosen_text,reward_text,trial_stage,practice_trial,transition_type,choice,transition,reward,timestamp,subject_id
pavlovia,0,5,0.0-0.0,FALSE,FALSE,FALSE,FALSE,"
","
","
","
","
",NA,NA,NA,NA,NA,NA,NA,NA,NA,NA,NA,NA,NA,NA,NA,NA,NA,NA,NA,NA,NA,NA,sub135
html-keyboard-response,1,6918,0.0-1.0,FALSE,FALSE,FALSE,FALSE,"
","
","
","
","
",6914.794999873266,Welcome! Press the space bar to begin.,32,NA,NA,NA,NA,NA,NA,NA,NA,NA,NA,NA,NA,NA,NA,NA,NA,NA,NA,NA,sub135
audio-keyboard-response,2,9104,0.0-2.0,FALSE,FALSE,FALSE,FALSE,"
","
","
","
","
",2165,audio/beep_loop.wav,32,NA,NA,NA,NA,NA,NA,NA,NA,NA,NA,NA,NA,NA,NA,NA,NA,NA,NA,NA,sub135
audio-button-response,3,11502,0.0-3.0,FALSE,FALSE,FALSE,FALSE,"
","
","
","
","
",NaN,audio/fish.mp3,NA,1,NA,NA,NA,NA,NA,NA,NA,NA,NA,NA,NA,NA,NA,NA,NA,NA,NA,NA,sub135
audio-button-response,4,14038,0.0-4.0,FALSE,FALSE,FALSE,FALSE,"""event"",""trial"",""time""
""fullscreenenter"",""5"",""17920""
","
","
","""event"",""trial"",""time""
""fullscreenenter"",""5"",""17920""
","
",NaN,audio/tiger.mp3,NA,4,NA,NA,NA,NA,NA,NA,NA,NA,NA,NA,NA,NA,NA,NA,NA,NA,NA,NA,sub135
fullscreen,5,18828,0.0-5.0,FALSE,FALSE,FALSE,FALSE,"""event"",""trial"",""time""
""fullscreenenter"",""5"",""17920""
","
","
","""event"",""trial"",""time""
""fullscreenenter"",""5"",""17920""
","
",NA,NA,NA,NA,TRUE,NA,NA,NA,NA,NA,NA,NA,NA,NA,NA,NA,NA,NA,NA,NA,NA,NA,sub135
d3-instructions,6,27357,0.0-6.0,FALSE,FALSE,FALSE,FALSE,"""event"",""trial"",""time""
""fullscreenenter"",""5"",""17920""
","
","
","""event"",""trial"",""time""
""fullscreenenter"",""5"",""17920""
","
",NA,NA,NA,NA,NA,NA,NA,NA,NA,NA,NA,NA,NA,NA,NA,NA,NA,NA,NA,NA,NA,NA,sub135
d3-instructions,7,32442,0.0-7.0,FALSE,FALSE,FALSE,FALSE,"""event"",""trial"",""time""
""fullscreenenter"",""5"",""17920""
","
","
","""event"",""trial"",""time""
""fullscreenenter"",""5"",""17920""
","
",NA,NA,NA,NA,NA,NA,NA,NA,NA,NA,NA,NA,NA,NA,NA,NA,NA,NA,NA,NA,NA,NA,sub135
d3-instructions,8,36865,0.0-8.0,FALSE,FALSE,FALSE,FALSE,"""event"",""trial"",""time""
""fullscreenenter"",""5"",""17920""
","
","
","""event"",""trial"",""time""
""fullscreenenter"",""5"",""17920""
","
",NA,NA,NA,NA,NA,NA,NA,NA,NA,NA,NA,NA,NA,NA,NA,NA,NA,NA,NA,NA,NA,NA,sub135
d3-instructions,9,41302,0.0-9.0,FALSE,FALSE,FALSE,FALSE,"""event"",""trial"",""time""
""fullscreenenter"",""5"",""17920""
","
","
","""event"",""trial"",""time""
""fullscreenenter"",""5"",""17920""
","
",NA,NA,NA,NA,NA,NA,NA,NA,NA,NA,NA,NA,NA,NA,NA,NA,NA,NA,NA,NA,NA,NA,sub135
d3-instructions,10,51213,0.0-10.0,FALSE,FALSE,FALSE,FALSE,"""event"",""trial"",""time""
""fullscreenenter"",""5"",""17920""
","
","
","""event"",""trial"",""time""
""fullscreenenter"",""5"",""17920""
","
",NA,NA,NA,NA,NA,NA,NA,NA,NA,NA,NA,NA,NA,NA,NA,NA,NA,NA,NA,NA,NA,NA,sub135
d3-animate-choice,11,56728,0.0-11.0,FALSE,FALSE,FALSE,FALSE,"""event"",""trial"",""time""
""fullscreenenter"",""5"",""17920""
","
","
","""event"",""trial"",""time""
""fullscreenenter"",""5"",""17920""
","
",3507.4399998411536,NA,49,NA,NA,3000,1,NA,NA,images/tutgreenplanet.jpg,images/tutalien1,images/tutalien2,null,images/tutalien2,NA,NA,practice,null,NA,NA,NA,NA,sub135
d3-animate-choice,12,59936,0.0-12.0,FALSE,FALSE,FALSE,FALSE,"""event"",""trial"",""time""
""fullscreenenter"",""5"",""17920""
","
","
","""event"",""trial"",""time""
""fullscreenenter"",""5"",""17920""
","
",1203.3700000029057,NA,48,NA,NA,3000,1,NA,NA,images/tutgreenplanet.jpg,images/tutalien1,images/tutalien2,null,images/tutalien1,NA,NA,practice,null,NA,NA,NA,NA,sub135
d3-animate-choice,13,63744,0.0-13.0,FALSE,FALSE,FALSE,FALSE,"""event"",""trial"",""time""
""fullscreenenter"",""5"",""17920""
","
","
","""event"",""trial"",""time""
""fullscreenenter"",""5"",""17920""
","
",1800.2599999308586,NA,49,NA,NA,3000,1,NA,NA,images/tutgreenplanet.jpg,images/tutalien1,images/tutalien2,null,images/tutalien2,NA,NA,practice,null,NA,NA,NA,NA,sub135
d3-animate-choice,14,66733,0.0-14.0,FALSE,FALSE,FALSE,FALSE,"""event"",""trial"",""time""
""fullscreenenter"",""5"",""17920""
","
","
","""event"",""trial"",""time""
""fullscreenenter"",""5"",""17920""
","
",984.8849999252707,NA,48,NA,NA,3000,1,NA,NA,images/tutgreenplanet.jpg,images/tutalien1,images/tutalien2,null,images/tutalien1,NA,NA,practice,null,NA,NA,NA,NA,sub135
d3-instructions,15,71110,0.0-15.0,FALSE,FALSE,FALSE,FALSE,"""event"",""trial"",""time""
""fullscreenenter"",""5"",""17920""
","
","
","""event"",""trial"",""time""
""fullscreenenter"",""5"",""17920""
","
",NA,NA,NA,NA,NA,NA,NA,NA,NA,NA,NA,NA,NA,NA,NA,NA,NA,NA,NA,NA,NA,NA,sub135
d3-instructions,16,73922,0.0-16.0,FALSE,FALSE,FALSE,FALSE,"""event"",""trial"",""time""
""fullscreenenter"",""5"",""17920""
","
","
","""event"",""trial"",""time""
""fullscreenenter"",""5"",""17920""
","
",NA,NA,NA,NA,NA,NA,NA,NA,NA,NA,NA,NA,NA,NA,NA,NA,NA,NA,NA,NA,NA,NA,sub135
d3-instructions,17,78750,0.0-17.0,FALSE,FALSE,FALSE,FALSE,"""event"",""trial"",""time""
""fullscreenenter"",""5"",""17920""
","
","
","""event"",""trial"",""time""
""fullscreenenter"",""5"",""17920""
","
",NA,NA,NA,NA,NA,NA,NA,NA,NA,NA,NA,NA,NA,NA,NA,NA,NA,NA,NA,NA,NA,NA,sub135
d3-instructions,18,82832,0.0-18.0,FALSE,FALSE,FALSE,FALSE,"""event"",""trial"",""time""
""fullscreenenter"",""5"",""17920""
","
","
","""event"",""trial"",""time""
""fullscreenenter"",""5"",""17920""
","
",NA,NA,NA,NA,NA,NA,NA,NA,NA,NA,NA,NA,NA,NA,NA,NA,NA,NA,NA,NA,NA,NA,sub135
d3-instructions,19,88505,0.0-19.0,FALSE,FALSE,FALSE,FALSE,"""event"",""trial"",""time""
""fullscreenenter"",""5"",""17920""
","
","
","""event"",""trial"",""time""
""fullscreenenter"",""5"",""17920""
","
",NA,NA,NA,NA,NA,NA,NA,NA,NA,NA,NA,NA,NA,NA,NA,NA,NA,NA,NA,NA,NA,NA,sub135
d3-animate-choice,20,91632,0.0-20.0,FALSE,FALSE,FALSE,FALSE,"""event"",""trial"",""time""
""fullscreenenter"",""5"",""17920""
","
","
","""event"",""trial"",""time""
""fullscreenenter"",""5"",""17920""
","
",1117.4850000534207,NA,49,NA,NA,3000,1,NA,NA,images/tutyellowplanet.jpg,null,images/tutalien3,null,images/tutalien3,images/t.png,NA,practice,null,NA,NA,NA,NA,sub135
d3-animate-choice,21,94022,0.0-21.0,FALSE,FALSE,FALSE,FALSE,"""event"",""trial"",""time""
""fullscreenenter"",""5"",""17920""
","
","
","""event"",""trial"",""time""
""fullscreenenter"",""5"",""17920""
","
",386.60999992862344,NA,49,NA,NA,3000,1,NA,NA,images/tutyellowplanet.jpg,null,images/tutalien3,null,images/tutalien3,images/nothing.png,NA,practice,null,NA,NA,NA,NA,sub135
d3-animate-choice,22,96284,0.0-22.0,FALSE,FALSE,FALSE,FALSE,"""event"",""trial"",""time""
""fullscreenenter"",""5"",""17920""
","
","
","""event"",""trial"",""time""
""fullscreenenter"",""5"",""17920""
","
",257.68500007689,NA,49,NA,NA,3000,1,NA,NA,images/tutyellowplanet.jpg,null,images/tutalien3,null,images/tutalien3,images/t.png,NA,practice,null,NA,NA,NA,NA,sub135
d3-animate-choice,23,98571,0.0-23.0,FALSE,FALSE,FALSE,FALSE,"""event"",""trial"",""time""
""fullscreenenter"",""5"",""17920""
","
","
","""event"",""trial"",""time""
""fullscreenenter"",""5"",""17920""
","
",280.6649999693036,NA,49,NA,NA,3000,1,NA,NA,images/tutyellowplanet.jpg,null,images/tutalien3,null,images/tutalien3,images/t.png,NA,practice,null,NA,NA,NA,NA,sub135
d3-animate-choice,24,100926,0.0-24.0,FALSE,FALSE,FALSE,FALSE,"""event"",""trial"",""time""
""fullscreenenter"",""5"",""17920""
","
","
","""event"",""trial"",""time""
""fullscreenenter"",""5"",""17920""
","
",351.1750001925975,NA,49,NA,NA,3000,1,NA,NA,images/tutyellowplanet.jpg,null,images/tutalien3,null,images/tutalien3,images/t.png,NA,practice,null,NA,NA,NA,NA,sub135
d3-animate-choice,25,103206,0.0-25.0,FALSE,FALSE,FALSE,FALSE,"""event"",""trial"",""time""
""fullscreenenter"",""5"",""17920""
","
","
","""event"",""trial"",""time""
""fullscreenenter"",""5"",""17920""
","
",274.0400000475347,NA,49,NA,NA,3000,1,NA,NA,images/tutyellowplanet.jpg,null,images/tutalien3,null,images/tutalien3,images/t.png,NA,practice,null,NA,NA,NA,NA,sub135
d3-animate-choice,26,105695,0.0-26.0,FALSE,FALSE,FALSE,FALSE,"""event"",""trial"",""time""
""fullscreenenter"",""5"",""17920""
","
","
","""event"",""trial"",""time""
""fullscreenenter"",""5"",""17920""
","
",479.6599999535829,NA,49,NA,NA,3000,1,NA,NA,images/tutyellowplanet.jpg,null,images/tutalien3,null,images/tutalien3,images/nothing.png,NA,practice,null,NA,NA,NA,NA,sub135
d3-animate-choice,27,107989,0.0-27.0,FALSE,FALSE,FALSE,FALSE,"""event"",""trial"",""time""
""fullscreenenter"",""5"",""17920""
","
","
","""event"",""trial"",""time""
""fullscreenenter"",""5"",""17920""
","
",287.345000077039,NA,49,NA,NA,3000,1,NA,NA,images/tutyellowplanet.jpg,null,images/tutalien3,null,images/tutalien3,images/t.png,NA,practice,null,NA,NA,NA,NA,sub135
d3-animate-choice,28,110363,0.0-28.0,FALSE,FALSE,FALSE,FALSE,"""event"",""trial"",""time""
""fullscreenenter"",""5"",""17920""
","
","
","""event"",""trial"",""time""
""fullscreenenter"",""5"",""17920""
","
",369.8150001000613,NA,49,NA,NA,3000,1,NA,NA,images/tutyellowplanet.jpg,null,images/tutalien3,null,images/tutalien3,images/nothing.png,NA,practice,null,NA,NA,NA,NA,sub135
d3-animate-choice,29,112635,0.0-29.0,FALSE,FALSE,FALSE,FALSE,"""event"",""trial"",""time""
""fullscreenenter"",""5"",""17920""
","
","
","""event"",""trial"",""time""
""fullscreenenter"",""5"",""17920""
","
",267.60499994270504,NA,49,NA,NA,3000,1,NA,NA,images/tutyellowplanet.jpg,null,images/tutalien3,null,images/tutalien3,images/nothing.png,NA,practice,null,NA,NA,NA,NA,sub135
d3-instructions,30,115847,0.0-30.0,FALSE,FALSE,FALSE,FALSE,"""event"",""trial"",""time""
""fullscreenenter"",""5"",""17920""
","
","
","""event"",""trial"",""time""
""fullscreenenter"",""5"",""17920""
","
",NA,NA,NA,NA,NA,NA,NA,NA,NA,NA,NA,NA,NA,NA,NA,NA,NA,NA,NA,NA,NA,NA,sub135
d3-instructions,31,118444,0.0-31.0,FALSE,FALSE,FALSE,FALSE,"""event"",""trial"",""time""
""fullscreenenter"",""5"",""17920""
","
","
","""event"",""trial"",""time""
""fullscreenenter"",""5"",""17920""
","
",NA,NA,NA,NA,NA,NA,NA,NA,NA,NA,NA,NA,NA,NA,NA,NA,NA,NA,NA,NA,NA,NA,sub135
d3-instructions,32,121459,0.0-32.0,FALSE,FALSE,FALSE,FALSE,"""event"",""trial"",""time""
""fullscreenenter"",""5"",""17920""
","
","
","""event"",""trial"",""time""
""fullscreenenter"",""5"",""17920""
","
",NA,NA,NA,NA,NA,NA,NA,NA,NA,NA,NA,NA,NA,NA,NA,NA,NA,NA,NA,NA,NA,NA,sub135
d3-instructions,33,124089,0.0-33.0,FALSE,FALSE,FALSE,FALSE,"""event"",""trial"",""time""
""fullscreenenter"",""5"",""17920""
","
","
","""event"",""trial"",""time""
""fullscreenenter"",""5"",""17920""
","
",NA,NA,NA,NA,NA,NA,NA,NA,NA,NA,NA,NA,NA,NA,NA,NA,NA,NA,NA,NA,NA,NA,sub135
d3-animate-choice,34,127431,0.0-34.0,FALSE,FALSE,FALSE,FALSE,"""event"",""trial"",""time""
""fullscreenenter"",""5"",""17920""
","
","
","""event"",""trial"",""time""
""fullscreenenter"",""5"",""17920""
","
",1333.6549999658018,NA,49,NA,NA,3000,1,NA,NA,images/tutgreenplanet.jpg,images/tutalien1,images/tutalien2,null,images/tutalien2,images/t.png,NA,practice,null,NA,NA,NA,NA,sub135
d3-animate-choice,35,129996,0.0-35.0,FALSE,FALSE,FALSE,FALSE,"""event"",""trial"",""time""
""fullscreenenter"",""5"",""17920""
","
","
","""event"",""trial"",""time""
""fullscreenenter"",""5"",""17920""
","
",558.2900000736117,NA,49,NA,NA,3000,1,NA,NA,images/tutgreenplanet.jpg,images/tutalien1,images/tutalien2,null,images/tutalien2,images/t.png,NA,practice,null,NA,NA,NA,NA,sub135
d3-animate-choice,36,132428,0.0-36.0,FALSE,FALSE,FALSE,FALSE,"""event"",""trial"",""time""
""fullscreenenter"",""5"",""17920""
","
","
","""event"",""trial"",""time""
""fullscreenenter"",""5"",""17920""
","
",425.6100000347942,NA,49,NA,NA,3000,1,NA,NA,images/tutgreenplanet.jpg,images/tutalien1,images/tutalien2,null,images/tutalien2,images/t.png,NA,practice,null,NA,NA,NA,NA,sub135
d3-animate-choice,37,134871,0.0-37.0,FALSE,FALSE,FALSE,FALSE,"""event"",""trial"",""time""
""fullscreenenter"",""5"",""17920""
","
","
","""event"",""trial"",""time""
""fullscreenenter"",""5"",""17920""
","
",438.7300000526011,NA,49,NA,NA,3000,1,NA,NA,images/tutgreenplanet.jpg,images/tutalien1,images/tutalien2,null,images/tutalien2,images/t.png,NA,practice,null,NA,NA,NA,NA,sub135
d3-animate-choice,38,137335,0.0-38.0,FALSE,FALSE,FALSE,FALSE,"""event"",""trial"",""time""
""fullscreenenter"",""5"",""17920""
","
","
","""event"",""trial"",""time""
""fullscreenenter"",""5"",""17920""
","
",460.1500001735985,NA,49,NA,NA,3000,1,NA,NA,images/tutgreenplanet.jpg,images/tutalien1,images/tutalien2,null,images/tutalien2,images/t.png,NA,practice,null,NA,NA,NA,NA,sub135
d3-animate-choice,39,139618,0.0-39.0,FALSE,FALSE,FALSE,FALSE,"""event"",""trial"",""time""
""fullscreenenter"",""5"",""17920""
","
","
","""event"",""trial"",""time""
""fullscreenenter"",""5"",""17920""
","
",279.5649999752641,NA,49,NA,NA,3000,1,NA,NA,images/tutgreenplanet.jpg,images/tutalien1,images/tutalien2,null,images/tutalien2,images/nothing.png,NA,practice,null,NA,NA,NA,NA,sub135
d3-animate-choice,40,142252,0.0-40.0,FALSE,FALSE,FALSE,FALSE,"""event"",""trial"",""time""
""fullscreenenter"",""5"",""17920""
","
","
","""event"",""trial"",""time""
""fullscreenenter"",""5"",""17920""
","
",627.9050000011921,NA,49,NA,NA,3000,1,NA,NA,images/tutgreenplanet.jpg,images/tutalien1,images/tutalien2,null,images/tutalien2,images/t.png,NA,practice,null,NA,NA,NA,NA,sub135
d3-animate-choice,41,144697,0.0-41.0,FALSE,FALSE,FALSE,FALSE,"""event"",""trial"",""time""
""fullscreenenter"",""5"",""17920""
","
","
","""event"",""trial"",""time""
""fullscreenenter"",""5"",""17920""
","
",441.4549998473376,NA,49,NA,NA,3000,1,NA,NA,images/tutgreenplanet.jpg,images/tutalien1,images/tutalien2,null,images/tutalien2,images/t.png,NA,practice,null,NA,NA,NA,NA,sub135
d3-animate-choice,42,147015,0.0-42.0,FALSE,FALSE,FALSE,FALSE,"""event"",""trial"",""time""
""fullscreenenter"",""5"",""17920""
","
","
","""event"",""trial"",""time""
""fullscreenenter"",""5"",""17920""
","
",314.3649999983609,NA,49,NA,NA,3000,1,NA,NA,images/tutgreenplanet.jpg,images/tutalien1,images/tutalien2,null,images/tutalien2,images/t.png,NA,practice,null,NA,NA,NA,NA,sub135
d3-animate-choice,43,149340,0.0-43.0,FALSE,FALSE,FALSE,FALSE,"""event"",""trial"",""time""
""fullscreenenter"",""5"",""17920""
","
","
","""event"",""trial"",""time""
""fullscreenenter"",""5"",""17920""
","
",320.5699999816716,NA,49,NA,NA,3000,1,NA,NA,images/tutgreenplanet.jpg,images/tutalien1,images/tutalien2,null,images/tutalien2,images/t.png,NA,practice,null,NA,NA,NA,NA,sub135
d3-instructions,44,155024,0.0-44.0,FALSE,FALSE,FALSE,FALSE,"""event"",""trial"",""time""
""fullscreenenter"",""5"",""17920""
","
","
","""event"",""trial"",""time""
""fullscreenenter"",""5"",""17920""
","
",NA,NA,NA,NA,NA,NA,NA,NA,NA,NA,NA,NA,NA,NA,NA,NA,NA,NA,NA,NA,NA,NA,sub135
d3-instructions,45,157176,0.0-45.0,FALSE,FALSE,FALSE,FALSE,"""event"",""trial"",""time""
""fullscreenenter"",""5"",""17920""
","
","
","""event"",""trial"",""time""
""fullscreenenter"",""5"",""17920""
","
",NA,NA,NA,NA,NA,NA,NA,NA,NA,NA,NA,NA,NA,NA,NA,NA,NA,NA,NA,NA,NA,NA,sub135
d3-instructions,46,159899,0.0-46.0,FALSE,FALSE,FALSE,FALSE,"""event"",""trial"",""time""
""fullscreenenter"",""5"",""17920""
","
","
","""event"",""trial"",""time""
""fullscreenenter"",""5"",""17920""
","
",NA,NA,NA,NA,NA,NA,NA,NA,NA,NA,NA,NA,NA,NA,NA,NA,NA,NA,NA,NA,NA,NA,sub135
d3-instructions,47,167771,0.0-47.0,FALSE,FALSE,FALSE,FALSE,"""event"",""trial"",""time""
""fullscreenenter"",""5"",""17920""
","
","
","""event"",""trial"",""time""
""fullscreenenter"",""5"",""17920""
","
",NA,NA,NA,NA,NA,NA,NA,NA,NA,NA,NA,NA,NA,NA,NA,NA,NA,NA,NA,NA,NA,NA,sub135
d3-instructions,48,171805,0.0-48.0,FALSE,FALSE,FALSE,FALSE,"""event"",""trial"",""time""
""fullscreenenter"",""5"",""17920""
","
","
","""event"",""trial"",""time""
""fullscreenenter"",""5"",""17920""
","
",NA,NA,NA,NA,NA,NA,NA,NA,NA,NA,NA,NA,NA,NA,NA,NA,NA,NA,NA,NA,NA,NA,sub135
d3-instructions,49,174745,0.0-49.0,FALSE,FALSE,FALSE,FALSE,"""event"",""trial"",""time""
""fullscreenenter"",""5"",""17920""
","
","
","""event"",""trial"",""time""
""fullscreenenter"",""5"",""17920""
","
",NA,NA,NA,NA,NA,NA,NA,NA,NA,NA,NA,NA,NA,NA,NA,NA,NA,NA,NA,NA,NA,NA,sub135
d3-instructions,50,178676,0.0-50.0,FALSE,FALSE,FALSE,FALSE,"""event"",""trial"",""time""
""fullscreenenter"",""5"",""17920""
","
","
","""event"",""trial"",""time""
""fullscreenenter"",""5"",""17920""
","
",NA,NA,NA,NA,NA,NA,NA,NA,NA,NA,NA,NA,NA,NA,NA,NA,NA,NA,NA,NA,NA,NA,sub135
d3-instructions,51,181251,0.0-51.0,FALSE,FALSE,FALSE,FALSE,"""event"",""trial"",""time""
""fullscreenenter"",""5"",""17920""
","
","
","""event"",""trial"",""time""
""fullscreenenter"",""5"",""17920""
","
",NA,NA,NA,NA,NA,NA,NA,NA,NA,NA,NA,NA,NA,NA,NA,NA,NA,NA,NA,NA,NA,NA,sub135
d3-instructions,52,182727,0.0-52.0,FALSE,FALSE,FALSE,FALSE,"""event"",""trial"",""time""
""fullscreenenter"",""5"",""17920""
","
","
","""event"",""trial"",""time""
""fullscreenenter"",""5"",""17920""
","
",NA,NA,NA,NA,NA,NA,NA,NA,NA,NA,NA,NA,NA,NA,NA,NA,NA,NA,NA,NA,NA,NA,sub135
d3-instructions,53,189257,0.0-53.0,FALSE,FALSE,FALSE,FALSE,"""event"",""trial"",""time""
""fullscreenenter"",""5"",""17920""
","
","
","""event"",""trial"",""time""
""fullscreenenter"",""5"",""17920""
","
",NA,NA,NA,NA,NA,NA,NA,NA,NA,NA,NA,NA,NA,NA,NA,NA,NA,NA,NA,NA,NA,NA,sub135
d3-instructions,54,194051,0.0-54.0,FALSE,FALSE,FALSE,FALSE,"""event"",""trial"",""time""
""fullscreenenter"",""5"",""17920""
","
","
","""event"",""trial"",""time""
""fullscreenenter"",""5"",""17920""
","
",NA,NA,NA,NA,NA,NA,NA,NA,NA,NA,NA,NA,NA,NA,NA,NA,NA,NA,NA,NA,NA,NA,sub135
d3-instructions,55,198746,0.0-55.0,FALSE,FALSE,FALSE,FALSE,"""event"",""trial"",""time""
""fullscreenenter"",""5"",""17920""
","
","
","""event"",""trial"",""time""
""fullscreenenter"",""5"",""17920""
","
",NA,NA,NA,NA,NA,NA,NA,NA,NA,NA,NA,NA,NA,NA,NA,NA,NA,NA,NA,NA,NA,NA,sub135
d3-instructions,56,202657,0.0-56.0,FALSE,FALSE,FALSE,FALSE,"""event"",""trial"",""time""
""fullscreenenter"",""5"",""17920""
","
","
","""event"",""trial"",""time""
""fullscreenenter"",""5"",""17920""
","
",NA,NA,NA,NA,NA,NA,NA,NA,NA,NA,NA,NA,NA,NA,NA,NA,NA,NA,NA,NA,NA,NA,sub135
d3-instructions,57,207467,0.0-57.0,FALSE,FALSE,FALSE,FALSE,"""event"",""trial"",""time""
""fullscreenenter"",""5"",""17920""
","
","
","""event"",""trial"",""time""
""fullscreenenter"",""5"",""17920""
","
",NA,NA,NA,NA,NA,NA,NA,NA,NA,NA,NA,NA,NA,NA,NA,NA,NA,NA,NA,NA,NA,NA,sub135
d3-instructions,58,211357,0.0-58.0,FALSE,FALSE,FALSE,FALSE,"""event"",""trial"",""time""
""fullscreenenter"",""5"",""17920""
","
","
","""event"",""trial"",""time""
""fullscreenenter"",""5"",""17920""
","
",NA,NA,NA,NA,NA,NA,NA,NA,NA,NA,NA,NA,NA,NA,NA,NA,NA,NA,NA,NA,NA,NA,sub135
d3-instructions,59,213251,0.0-59.0,FALSE,FALSE,FALSE,FALSE,"""event"",""trial"",""time""
""fullscreenenter"",""5"",""17920""
","
","
","""event"",""trial"",""time""
""fullscreenenter"",""5"",""17920""
","
",NA,NA,NA,NA,NA,NA,NA,NA,NA,NA,NA,NA,NA,NA,NA,NA,NA,NA,NA,NA,NA,NA,sub135
d3-instructions,60,217071,0.0-60.0,FALSE,FALSE,FALSE,FALSE,"""event"",""trial"",""time""
""fullscreenenter"",""5"",""17920""
","
","
","""event"",""trial"",""time""
""fullscreenenter"",""5"",""17920""
","
",NA,NA,NA,NA,NA,NA,NA,NA,NA,NA,NA,NA,NA,NA,NA,NA,NA,NA,NA,NA,NA,NA,sub135
d3-animate-choice,61,219980,0.0-61.0-0.0,FALSE,FALSE,FALSE,FALSE,"""event"",""trial"",""time""
""fullscreenenter"",""5"",""17920""
","
","
","""event"",""trial"",""time""
""fullscreenenter"",""5"",""17920""
","
",901.6950000077486,NA,49,NA,NA,3000,1,NA,NA,images/earth.jpg,images/tutrocket2,images/tutrocket1,null,images/tutrocket1,NA,1,practice,null,1,NA,NA,NA,sub135
d3-animate-choice,62,223092,0.0-61.0-1.0,FALSE,FALSE,FALSE,FALSE,"""event"",""trial"",""time""
""fullscreenenter"",""5"",""17920""
","
","
","""event"",""trial"",""time""
""fullscreenenter"",""5"",""17920""
","
",1105.1499999593943,NA,48,NA,NA,3000,1,NA,NA,images/tutyellowplanet.jpg,images/tutalien4,images/tutalien3,images/tutrocket1,images/tutalien4,images/nothing.png,2,practice,true,2,common,0,2020-06-26T19:32:50Z,sub135
two-step-fixation,63,224100,0.0-61.0-2.0,FALSE,FALSE,FALSE,FALSE,"""event"",""trial"",""time""
""fullscreenenter"",""5"",""17920""
","
","
","""event"",""trial"",""time""
""fullscreenenter"",""5"",""17920""
","
",NA,images/earth.jpg,NA,NA,NA,NA,NA,NA,NA,NA,NA,NA,NA,NA,NA,fixation,NA,NA,NA,NA,NA,NA,sub135
d3-animate-choice,64,227462,0.0-61.0-0.1,FALSE,FALSE,FALSE,FALSE,"""event"",""trial"",""time""
""fullscreenenter"",""5"",""17920""
","
","
","""event"",""trial"",""time""
""fullscreenenter"",""5"",""17920""
","
",1358.0300000030547,NA,48,NA,NA,3000,1,NA,NA,images/earth.jpg,images/tutrocket2,images/tutrocket1,null,images/tutrocket2,NA,1,practice,null,2,NA,NA,NA,sub135
d3-animate-choice,65,230015,0.0-61.0-1.1,FALSE,FALSE,FALSE,FALSE,"""event"",""trial"",""time""
""fullscreenenter"",""5"",""17920""
","
","
","""event"",""trial"",""time""
""fullscreenenter"",""5"",""17920""
","
",544.9900000821799,NA,48,NA,NA,3000,1,NA,NA,images/tutyellowplanet.jpg,images/tutalien4,images/tutalien3,images/tutrocket2,images/tutalien4,images/nothing.png,2,practice,false,2,rare,0,2020-06-26T19:32:57Z,sub135
two-step-fixation,66,231018,0.0-61.0-2.1,FALSE,FALSE,FALSE,FALSE,"""event"",""trial"",""time""
""fullscreenenter"",""5"",""17920""
","
","
","""event"",""trial"",""time""
""fullscreenenter"",""5"",""17920""
","
",NA,images/earth.jpg,NA,NA,NA,NA,NA,NA,NA,NA,NA,NA,NA,NA,NA,fixation,NA,NA,NA,NA,NA,NA,sub135
d3-animate-choice,67,233534,0.0-61.0-0.2,FALSE,FALSE,FALSE,FALSE,"""event"",""trial"",""time""
""fullscreenenter"",""5"",""17920""
","
","
","""event"",""trial"",""time""
""fullscreenenter"",""5"",""17920""
","
",512.9499998874962,NA,49,NA,NA,3000,1,NA,NA,images/earth.jpg,images/tutrocket2,images/tutrocket1,null,images/tutrocket1,NA,1,practice,null,1,NA,NA,NA,sub135
d3-animate-choice,68,236154,0.0-61.0-1.2,FALSE,FALSE,FALSE,FALSE,"""event"",""trial"",""time""
""fullscreenenter"",""5"",""17920""
","
","
","""event"",""trial"",""time""
""fullscreenenter"",""5"",""17920""
","
",615.4600000008941,NA,49,NA,NA,3000,1,NA,NA,images/tutyellowplanet.jpg,images/tutalien4,images/tutalien3,images/tutrocket1,images/tutalien3,images/t.png,2,practice,true,1,common,1,2020-06-26T19:33:03Z,sub135
two-step-fixation,69,237160,0.0-61.0-2.2,FALSE,FALSE,FALSE,FALSE,"""event"",""trial"",""time""
""fullscreenenter"",""5"",""17920""
","
","
","""event"",""trial"",""time""
""fullscreenenter"",""5"",""17920""
","
",NA,images/earth.jpg,NA,NA,NA,NA,NA,NA,NA,NA,NA,NA,NA,NA,NA,fixation,NA,NA,NA,NA,NA,NA,sub135
d3-animate-choice,70,239534,0.0-61.0-0.3,FALSE,FALSE,FALSE,FALSE,"""event"",""trial"",""time""
""fullscreenenter"",""5"",""17920""
","
","
","""event"",""trial"",""time""
""fullscreenenter"",""5"",""17920""
","
",368.91499999910593,NA,49,NA,NA,3000,1,NA,NA,images/earth.jpg,images/tutrocket2,images/tutrocket1,null,images/tutrocket1,NA,1,practice,null,1,NA,NA,NA,sub135
d3-animate-choice,71,241977,0.0-61.0-1.3,FALSE,FALSE,FALSE,FALSE,"""event"",""trial"",""time""
""fullscreenenter"",""5"",""17920""
","
","
","""event"",""trial"",""time""
""fullscreenenter"",""5"",""17920""
","
",437.92000017128885,NA,49,NA,NA,3000,1,NA,NA,images/tutgreenplanet.jpg,images/tutalien2,images/tutalien1,images/tutrocket1,images/tutalien1,images/t.png,2,practice,false,1,rare,1,2020-06-26T19:33:09Z,sub135
two-step-fixation,72,242981,0.0-61.0-2.3,FALSE,FALSE,FALSE,FALSE,"""event"",""trial"",""time""
""fullscreenenter"",""5"",""17920""
","
","
","""event"",""trial"",""time""
""fullscreenenter"",""5"",""17920""
","
",NA,images/earth.jpg,NA,NA,NA,NA,NA,NA,NA,NA,NA,NA,NA,NA,NA,fixation,NA,NA,NA,NA,NA,NA,sub135
d3-animate-choice,73,245791,0.0-61.0-0.4,FALSE,FALSE,FALSE,FALSE,"""event"",""trial"",""time""
""fullscreenenter"",""5"",""17920""
","
","
","""event"",""trial"",""time""
""fullscreenenter"",""5"",""17920""
","
",804.3700000271201,NA,49,NA,NA,3000,1,NA,NA,images/earth.jpg,images/tutrocket2,images/tutrocket1,null,images/tutrocket1,NA,1,practice,null,1,NA,NA,NA,sub135
d3-animate-choice,74,248145,0.0-61.0-1.4,FALSE,FALSE,FALSE,FALSE,"""event"",""trial"",""time""
""fullscreenenter"",""5"",""17920""
","
","
","""event"",""trial"",""time""
""fullscreenenter"",""5"",""17920""
","
",347.4449999630451,NA,49,NA,NA,3000,1,NA,NA,images/tutyellowplanet.jpg,images/tutalien4,images/tutalien3,images/tutrocket1,images/tutalien3,images/t.png,2,practice,true,1,common,1,2020-06-26T19:33:15Z,sub135
two-step-fixation,75,249151,0.0-61.0-2.4,FALSE,FALSE,FALSE,FALSE,"""event"",""trial"",""time""
""fullscreenenter"",""5"",""17920""
","
","
","""event"",""trial"",""time""
""fullscreenenter"",""5"",""17920""
","
",NA,images/earth.jpg,NA,NA,NA,NA,NA,NA,NA,NA,NA,NA,NA,NA,NA,fixation,NA,NA,NA,NA,NA,NA,sub135
d3-animate-choice,76,251516,0.0-61.0-0.5,FALSE,FALSE,FALSE,FALSE,"""event"",""trial"",""time""
""fullscreenenter"",""5"",""17920""
","
","
","""event"",""trial"",""time""
""fullscreenenter"",""5"",""17920""
","
",360.2749998681247,NA,49,NA,NA,3000,1,NA,NA,images/earth.jpg,images/tutrocket2,images/tutrocket1,null,images/tutrocket1,NA,1,practice,null,1,NA,NA,NA,sub135
d3-animate-choice,77,254010,0.0-61.0-1.5,FALSE,FALSE,FALSE,FALSE,"""event"",""trial"",""time""
""fullscreenenter"",""5"",""17920""
","
","
","""event"",""trial"",""time""
""fullscreenenter"",""5"",""17920""
","
",484.1650000307709,NA,49,NA,NA,3000,1,NA,NA,images/tutgreenplanet.jpg,images/tutalien2,images/tutalien1,images/tutrocket1,images/tutalien1,images/nothing.png,2,practice,false,1,rare,0,2020-06-26T19:33:21Z,sub135
two-step-fixation,78,255018,0.0-61.0-2.5,FALSE,FALSE,FALSE,FALSE,"""event"",""trial"",""time""
""fullscreenenter"",""5"",""17920""
","
","
","""event"",""trial"",""time""
""fullscreenenter"",""5"",""17920""
","
",NA,images/earth.jpg,NA,NA,NA,NA,NA,NA,NA,NA,NA,NA,NA,NA,NA,fixation,NA,NA,NA,NA,NA,NA,sub135
d3-animate-choice,79,257393,0.0-61.0-0.6,FALSE,FALSE,FALSE,FALSE,"""event"",""trial"",""time""
""fullscreenenter"",""5"",""17920""
","
","
","""event"",""trial"",""time""
""fullscreenenter"",""5"",""17920""
","
",369.21500018797815,NA,49,NA,NA,3000,1,NA,NA,images/earth.jpg,images/tutrocket2,images/tutrocket1,null,images/tutrocket1,NA,1,practice,null,1,NA,NA,NA,sub135
d3-animate-choice,80,260006,0.0-61.0-1.6,FALSE,FALSE,FALSE,FALSE,"""event"",""trial"",""time""
""fullscreenenter"",""5"",""17920""
","
","
","""event"",""trial"",""time""
""fullscreenenter"",""5"",""17920""
","
",607.8999999444932,NA,49,NA,NA,3000,1,NA,NA,images/tutyellowplanet.jpg,images/tutalien4,images/tutalien3,images/tutrocket1,images/tutalien3,images/t.png,2,practice,true,1,common,1,2020-06-26T19:33:27Z,sub135
two-step-fixation,81,261010,0.0-61.0-2.6,FALSE,FALSE,FALSE,FALSE,"""event"",""trial"",""time""
""fullscreenenter"",""5"",""17920""
","
","
","""event"",""trial"",""time""
""fullscreenenter"",""5"",""17920""
","
",NA,images/earth.jpg,NA,NA,NA,NA,NA,NA,NA,NA,NA,NA,NA,NA,NA,fixation,NA,NA,NA,NA,NA,NA,sub135
d3-animate-choice,82,263412,0.0-61.0-0.7,FALSE,FALSE,FALSE,FALSE,"""event"",""trial"",""time""
""fullscreenenter"",""5"",""17920""
","
","
","""event"",""trial"",""time""
""fullscreenenter"",""5"",""17920""
","
",396.52499998919666,NA,48,NA,NA,3000,1,NA,NA,images/earth.jpg,images/tutrocket2,images/tutrocket1,null,images/tutrocket2,NA,1,practice,null,2,NA,NA,NA,sub135
d3-animate-choice,83,266018,0.0-61.0-1.7,FALSE,FALSE,FALSE,FALSE,"""event"",""trial"",""time""
""fullscreenenter"",""5"",""17920""
","
","
","""event"",""trial"",""time""
""fullscreenenter"",""5"",""17920""
","
",596.9449998810887,NA,49,NA,NA,3000,1,NA,NA,images/tutgreenplanet.jpg,images/tutalien2,images/tutalien1,images/tutrocket2,images/tutalien1,images/nothing.png,2,practice,true,1,common,0,2020-06-26T19:33:33Z,sub135
two-step-fixation,84,267020,0.0-61.0-2.7,FALSE,FALSE,FALSE,FALSE,"""event"",""trial"",""time""
""fullscreenenter"",""5"",""17920""
","
","
","""event"",""trial"",""time""
""fullscreenenter"",""5"",""17920""
","
",NA,images/earth.jpg,NA,NA,NA,NA,NA,NA,NA,NA,NA,NA,NA,NA,NA,fixation,NA,NA,NA,NA,NA,NA,sub135
d3-animate-choice,85,269445,0.0-61.0-0.8,FALSE,FALSE,FALSE,FALSE,"""event"",""trial"",""time""
""fullscreenenter"",""5"",""17920""
","
","
","""event"",""trial"",""time""
""fullscreenenter"",""5"",""17920""
","
",418.5999999754131,NA,49,NA,NA,3000,1,NA,NA,images/earth.jpg,images/tutrocket2,images/tutrocket1,null,images/tutrocket1,NA,1,practice,null,1,NA,NA,NA,sub135
d3-animate-choice,86,271971,0.0-61.0-1.8,FALSE,FALSE,FALSE,FALSE,"""event"",""trial"",""time""
""fullscreenenter"",""5"",""17920""
","
","
","""event"",""trial"",""time""
""fullscreenenter"",""5"",""17920""
","
",516.2249999120831,NA,49,NA,NA,3000,1,NA,NA,images/tutyellowplanet.jpg,images/tutalien4,images/tutalien3,images/tutrocket1,images/tutalien3,images/t.png,2,practice,true,1,common,1,2020-06-26T19:33:39Z,sub135
two-step-fixation,87,272974,0.0-61.0-2.8,FALSE,FALSE,FALSE,FALSE,"""event"",""trial"",""time""
""fullscreenenter"",""5"",""17920""
","
","
","""event"",""trial"",""time""
""fullscreenenter"",""5"",""17920""
","
",NA,images/earth.jpg,NA,NA,NA,NA,NA,NA,NA,NA,NA,NA,NA,NA,NA,fixation,NA,NA,NA,NA,NA,NA,sub135
d3-animate-choice,88,275599,0.0-61.0-0.9,FALSE,FALSE,FALSE,FALSE,"""event"",""trial"",""time""
""fullscreenenter"",""5"",""17920""
","
","
","""event"",""trial"",""time""
""fullscreenenter"",""5"",""17920""
","
",617.934999987483,NA,49,NA,NA,3000,1,NA,NA,images/earth.jpg,images/tutrocket2,images/tutrocket1,null,images/tutrocket1,NA,1,practice,null,1,NA,NA,NA,sub135
d3-animate-choice,89,278071,0.0-61.0-1.9,FALSE,FALSE,FALSE,FALSE,"""event"",""trial"",""time""
""fullscreenenter"",""5"",""17920""
","
","
","""event"",""trial"",""time""
""fullscreenenter"",""5"",""17920""
","
",462.6050000078976,NA,49,NA,NA,3000,1,NA,NA,images/tutgreenplanet.jpg,images/tutalien2,images/tutalien1,images/tutrocket1,images/tutalien1,images/nothing.png,2,practice,false,1,rare,0,2020-06-26T19:33:45Z,sub135
two-step-fixation,90,279074,0.0-61.0-2.9,FALSE,FALSE,FALSE,FALSE,"""event"",""trial"",""time""
""fullscreenenter"",""5"",""17920""
","
","
","""event"",""trial"",""time""
""fullscreenenter"",""5"",""17920""
","
",NA,images/earth.jpg,NA,NA,NA,NA,NA,NA,NA,NA,NA,NA,NA,NA,NA,fixation,NA,NA,NA,NA,NA,NA,sub135
d3-animate-choice,91,281789,0.0-61.0-0.10,FALSE,FALSE,FALSE,FALSE,"""event"",""trial"",""time""
""fullscreenenter"",""5"",""17920""
","
","
","""event"",""trial"",""time""
""fullscreenenter"",""5"",""17920""
","
",708.0600000917912,NA,48,NA,NA,3000,1,NA,NA,images/earth.jpg,images/tutrocket2,images/tutrocket1,null,images/tutrocket2,NA,1,practice,null,2,NA,NA,NA,sub135
d3-animate-choice,92,284483,0.0-61.0-1.10,FALSE,FALSE,FALSE,FALSE,"""event"",""trial"",""time""
""fullscreenenter"",""5"",""17920""
","
","
","""event"",""trial"",""time""
""fullscreenenter"",""5"",""17920""
","
",687.8599999472499,NA,48,NA,NA,3000,1,NA,NA,images/tutgreenplanet.jpg,images/tutalien2,images/tutalien1,images/tutrocket2,images/tutalien2,images/nothing.png,2,practice,true,2,common,0,2020-06-26T19:33:51Z,sub135
two-step-fixation,93,285490,0.0-61.0-2.10,FALSE,FALSE,FALSE,FALSE,"""event"",""trial"",""time""
""fullscreenenter"",""5"",""17920""
","
","
","""event"",""trial"",""time""
""fullscreenenter"",""5"",""17920""
","
",NA,images/earth.jpg,NA,NA,NA,NA,NA,NA,NA,NA,NA,NA,NA,NA,NA,fixation,NA,NA,NA,NA,NA,NA,sub135
d3-animate-choice,94,287939,0.0-61.0-0.11,FALSE,FALSE,FALSE,FALSE,"""event"",""trial"",""time""
""fullscreenenter"",""5"",""17920""
","
","
","""event"",""trial"",""time""
""fullscreenenter"",""5"",""17920""
","
",443.3000001590699,NA,49,NA,NA,3000,1,NA,NA,images/earth.jpg,images/tutrocket2,images/tutrocket1,null,images/tutrocket1,NA,1,practice,null,1,NA,NA,NA,sub135
d3-animate-choice,95,290518,0.0-61.0-1.11,FALSE,FALSE,FALSE,FALSE,"""event"",""trial"",""time""
""fullscreenenter"",""5"",""17920""
","
","
","""event"",""trial"",""time""
""fullscreenenter"",""5"",""17920""
","
",573.7699999008328,NA,49,NA,NA,3000,1,NA,NA,images/tutyellowplanet.jpg,images/tutalien4,images/tutalien3,images/tutrocket1,images/tutalien3,images/t.png,2,practice,true,1,common,1,2020-06-26T19:33:57Z,sub135
two-step-fixation,96,291522,0.0-61.0-2.11,FALSE,FALSE,FALSE,FALSE,"""event"",""trial"",""time""
""fullscreenenter"",""5"",""17920""
","
","
","""event"",""trial"",""time""
""fullscreenenter"",""5"",""17920""
","
",NA,images/earth.jpg,NA,NA,NA,NA,NA,NA,NA,NA,NA,NA,NA,NA,NA,fixation,NA,NA,NA,NA,NA,NA,sub135
d3-animate-choice,97,293933,0.0-61.0-0.12,FALSE,FALSE,FALSE,FALSE,"""event"",""trial"",""time""
""fullscreenenter"",""5"",""17920""
","
","
","""event"",""trial"",""time""
""fullscreenenter"",""5"",""17920""
","
",402.81499992124736,NA,49,NA,NA,3000,1,NA,NA,images/earth.jpg,images/tutrocket2,images/tutrocket1,null,images/tutrocket1,NA,1,practice,null,1,NA,NA,NA,sub135
d3-animate-choice,98,296452,0.0-61.0-1.12,FALSE,FALSE,FALSE,FALSE,"""event"",""trial"",""time""
""fullscreenenter"",""5"",""17920""
","
","
","""event"",""trial"",""time""
""fullscreenenter"",""5"",""17920""
","
",513.5799997951835,NA,49,NA,NA,3000,1,NA,NA,images/tutyellowplanet.jpg,images/tutalien4,images/tutalien3,images/tutrocket1,images/tutalien3,images/t.png,2,practice,true,1,common,1,2020-06-26T19:34:03Z,sub135
two-step-fixation,99,297456,0.0-61.0-2.12,FALSE,FALSE,FALSE,FALSE,"""event"",""trial"",""time""
""fullscreenenter"",""5"",""17920""
","
","
","""event"",""trial"",""time""
""fullscreenenter"",""5"",""17920""
","
",NA,images/earth.jpg,NA,NA,NA,NA,NA,NA,NA,NA,NA,NA,NA,NA,NA,fixation,NA,NA,NA,NA,NA,NA,sub135
d3-animate-choice,100,299821,0.0-61.0-0.13,FALSE,FALSE,FALSE,FALSE,"""event"",""trial"",""time""
""fullscreenenter"",""5"",""17920""
","
","
","""event"",""trial"",""time""
""fullscreenenter"",""5"",""17920""
","
",357.85500006750226,NA,49,NA,NA,3000,1,NA,NA,images/earth.jpg,images/tutrocket2,images/tutrocket1,null,images/tutrocket1,NA,1,practice,null,1,NA,NA,NA,sub135
d3-animate-choice,101,302663,0.0-61.0-1.13,FALSE,FALSE,FALSE,FALSE,"""event"",""trial"",""time""
""fullscreenenter"",""5"",""17920""
","
","
","""event"",""trial"",""time""
""fullscreenenter"",""5"",""17920""
","
",838.0199999082834,NA,48,NA,NA,3000,1,NA,NA,images/tutgreenplanet.jpg,images/tutalien2,images/tutalien1,images/tutrocket1,images/tutalien2,images/nothing.png,2,practice,false,2,rare,0,2020-06-26T19:34:09Z,sub135
two-step-fixation,102,303671,0.0-61.0-2.13,FALSE,FALSE,FALSE,FALSE,"""event"",""trial"",""time""
""fullscreenenter"",""5"",""17920""
","
","
","""event"",""trial"",""time""
""fullscreenenter"",""5"",""17920""
","
",NA,images/earth.jpg,NA,NA,NA,NA,NA,NA,NA,NA,NA,NA,NA,NA,NA,fixation,NA,NA,NA,NA,NA,NA,sub135
d3-animate-choice,103,306037,0.0-61.0-0.14,FALSE,FALSE,FALSE,FALSE,"""event"",""trial"",""time""
""fullscreenenter"",""5"",""17920""
","
","
","""event"",""trial"",""time""
""fullscreenenter"",""5"",""17920""
","
",360.24000006727874,NA,49,NA,NA,3000,1,NA,NA,images/earth.jpg,images/tutrocket2,images/tutrocket1,null,images/tutrocket1,NA,1,practice,null,1,NA,NA,NA,sub135
d3-animate-choice,104,308490,0.0-61.0-1.14,FALSE,FALSE,FALSE,FALSE,"""event"",""trial"",""time""
""fullscreenenter"",""5"",""17920""
","
","
","""event"",""trial"",""time""
""fullscreenenter"",""5"",""17920""
","
",448.06499988771975,NA,49,NA,NA,3000,1,NA,NA,images/tutyellowplanet.jpg,images/tutalien4,images/tutalien3,images/tutrocket1,images/tutalien3,images/nothing.png,2,practice,true,1,common,0,2020-06-26T19:34:15Z,sub135
two-step-fixation,105,309496,0.0-61.0-2.14,FALSE,FALSE,FALSE,FALSE,"""event"",""trial"",""time""
""fullscreenenter"",""5"",""17920""
","
","
","""event"",""trial"",""time""
""fullscreenenter"",""5"",""17920""
","
",NA,images/earth.jpg,NA,NA,NA,NA,NA,NA,NA,NA,NA,NA,NA,NA,NA,fixation,NA,NA,NA,NA,NA,NA,sub135
d3-animate-choice,106,311912,0.0-61.0-0.15,FALSE,FALSE,FALSE,FALSE,"""event"",""trial"",""time""
""fullscreenenter"",""5"",""17920""
","
","
","""event"",""trial"",""time""
""fullscreenenter"",""5"",""17920""
","
",409.68000004068017,NA,49,NA,NA,3000,1,NA,NA,images/earth.jpg,images/tutrocket2,images/tutrocket1,null,images/tutrocket1,NA,1,practice,null,1,NA,NA,NA,sub135
d3-animate-choice,107,314356,0.0-61.0-1.15,FALSE,FALSE,FALSE,FALSE,"""event"",""trial"",""time""
""fullscreenenter"",""5"",""17920""
","
","
","""event"",""trial"",""time""
""fullscreenenter"",""5"",""17920""
","
",438.04999999701977,NA,49,NA,NA,3000,1,NA,NA,images/tutyellowplanet.jpg,images/tutalien4,images/tutalien3,images/tutrocket1,images/tutalien3,images/t.png,2,practice,true,1,common,1,2020-06-26T19:34:21Z,sub135
two-step-fixation,108,315358,0.0-61.0-2.15,FALSE,FALSE,FALSE,FALSE,"""event"",""trial"",""time""
""fullscreenenter"",""5"",""17920""
","
","
","""event"",""trial"",""time""
""fullscreenenter"",""5"",""17920""
","
",NA,images/earth.jpg,NA,NA,NA,NA,NA,NA,NA,NA,NA,NA,NA,NA,NA,fixation,NA,NA,NA,NA,NA,NA,sub135
d3-animate-choice,109,317736,0.0-61.0-0.16,FALSE,FALSE,FALSE,FALSE,"""event"",""trial"",""time""
""fullscreenenter"",""5"",""17920""
","
","
","""event"",""trial"",""time""
""fullscreenenter"",""5"",""17920""
","
",372.92999983765185,NA,49,NA,NA,3000,1,NA,NA,images/earth.jpg,images/tutrocket2,images/tutrocket1,null,images/tutrocket1,NA,1,practice,null,1,NA,NA,NA,sub135
d3-animate-choice,110,320169,0.0-61.0-1.16,FALSE,FALSE,FALSE,FALSE,"""event"",""trial"",""time""
""fullscreenenter"",""5"",""17920""
","
","
","""event"",""trial"",""time""
""fullscreenenter"",""5"",""17920""
","
",424.5649999938905,NA,49,NA,NA,3000,1,NA,NA,images/tutyellowplanet.jpg,images/tutalien4,images/tutalien3,images/tutrocket1,images/tutalien3,images/t.png,2,practice,true,1,common,1,2020-06-26T19:34:27Z,sub135
two-step-fixation,111,321172,0.0-61.0-2.16,FALSE,FALSE,FALSE,FALSE,"""event"",""trial"",""time""
""fullscreenenter"",""5"",""17920""
","
","
","""event"",""trial"",""time""
""fullscreenenter"",""5"",""17920""
","
",NA,images/earth.jpg,NA,NA,NA,NA,NA,NA,NA,NA,NA,NA,NA,NA,NA,fixation,NA,NA,NA,NA,NA,NA,sub135
d3-animate-choice,112,323510,0.0-61.0-0.17,FALSE,FALSE,FALSE,FALSE,"""event"",""trial"",""time""
""fullscreenenter"",""5"",""17920""
","
","
","""event"",""trial"",""time""
""fullscreenenter"",""5"",""17920""
","
",332.9650000669062,NA,49,NA,NA,3000,1,NA,NA,images/earth.jpg,images/tutrocket2,images/tutrocket1,null,images/tutrocket1,NA,1,practice,null,1,NA,NA,NA,sub135
d3-animate-choice,113,326028,0.0-61.0-1.17,FALSE,FALSE,FALSE,FALSE,"""event"",""trial"",""time""
""fullscreenenter"",""5"",""17920""
","
","
","""event"",""trial"",""time""
""fullscreenenter"",""5"",""17920""
","
",507.4399998411536,NA,49,NA,NA,3000,1,NA,NA,images/tutyellowplanet.jpg,images/tutalien4,images/tutalien3,images/tutrocket1,images/tutalien3,images/nothing.png,2,practice,true,1,common,0,2020-06-26T19:34:33Z,sub135
two-step-fixation,114,327031,0.0-61.0-2.17,FALSE,FALSE,FALSE,FALSE,"""event"",""trial"",""time""
""fullscreenenter"",""5"",""17920""
","
","
","""event"",""trial"",""time""
""fullscreenenter"",""5"",""17920""
","
",NA,images/earth.jpg,NA,NA,NA,NA,NA,NA,NA,NA,NA,NA,NA,NA,NA,fixation,NA,NA,NA,NA,NA,NA,sub135
d3-animate-choice,115,329408,0.0-61.0-0.18,FALSE,FALSE,FALSE,FALSE,"""event"",""trial"",""time""
""fullscreenenter"",""5"",""17920""
","
","
","""event"",""trial"",""time""
""fullscreenenter"",""5"",""17920""
","
",370.59000018052757,NA,49,NA,NA,3000,1,NA,NA,images/earth.jpg,images/tutrocket2,images/tutrocket1,null,images/tutrocket1,NA,1,practice,null,1,NA,NA,NA,sub135
d3-animate-choice,116,332091,0.0-61.0-1.18,FALSE,FALSE,FALSE,FALSE,"""event"",""trial"",""time""
""fullscreenenter"",""5"",""17920""
","
","
","""event"",""trial"",""time""
""fullscreenenter"",""5"",""17920""
","
",673.1399998534471,NA,49,NA,NA,3000,1,NA,NA,images/tutyellowplanet.jpg,images/tutalien4,images/tutalien3,images/tutrocket1,images/tutalien3,images/nothing.png,2,practice,true,1,common,0,2020-06-26T19:34:39Z,sub135
two-step-fixation,117,333095,0.0-61.0-2.18,FALSE,FALSE,FALSE,FALSE,"""event"",""trial"",""time""
""fullscreenenter"",""5"",""17920""
","
","
","""event"",""trial"",""time""
""fullscreenenter"",""5"",""17920""
","
",NA,images/earth.jpg,NA,NA,NA,NA,NA,NA,NA,NA,NA,NA,NA,NA,NA,fixation,NA,NA,NA,NA,NA,NA,sub135
d3-animate-choice,118,335503,0.0-61.0-0.19,FALSE,FALSE,FALSE,FALSE,"""event"",""trial"",""time""
""fullscreenenter"",""5"",""17920""
","
","
","""event"",""trial"",""time""
""fullscreenenter"",""5"",""17920""
","
",400.58499993756413,NA,49,NA,NA,3000,1,NA,NA,images/earth.jpg,images/tutrocket2,images/tutrocket1,null,images/tutrocket1,NA,1,practice,null,1,NA,NA,NA,sub135
d3-animate-choice,119,337997,0.0-61.0-1.19,FALSE,FALSE,FALSE,FALSE,"""event"",""trial"",""time""
""fullscreenenter"",""5"",""17920""
","
","
","""event"",""trial"",""time""
""fullscreenenter"",""5"",""17920""
","
",483.9300001040101,NA,48,NA,NA,3000,1,NA,NA,images/tutyellowplanet.jpg,images/tutalien4,images/tutalien3,images/tutrocket1,images/tutalien4,images/t.png,2,practice,true,2,common,1,2020-06-26T19:34:45Z,sub135
two-step-fixation,120,339005,0.0-61.0-2.19,FALSE,FALSE,FALSE,FALSE,"""event"",""trial"",""time""
""fullscreenenter"",""5"",""17920""
","
","
","""event"",""trial"",""time""
""fullscreenenter"",""5"",""17920""
","
",NA,images/earth.jpg,NA,NA,NA,NA,NA,NA,NA,NA,NA,NA,NA,NA,NA,fixation,NA,NA,NA,NA,NA,NA,sub135
d3-instructions,121,341928,0.0-62.0,FALSE,FALSE,FALSE,FALSE,"""event"",""trial"",""time""
""fullscreenenter"",""5"",""17920""
","
","
","""event"",""trial"",""time""
""fullscreenenter"",""5"",""17920""
","
",NA,NA,NA,NA,NA,NA,NA,NA,NA,NA,NA,NA,NA,NA,NA,NA,NA,NA,NA,NA,NA,NA,sub135
audio-keyboard-response,122,344818,0.0-63.0,FALSE,FALSE,FALSE,FALSE,"""event"",""trial"",""time""
""fullscreenenter"",""5"",""17920""
","
","
","""event"",""trial"",""time""
""fullscreenenter"",""5"",""17920""
","
",2891,audio/instructions/treasure_feedback.wav,32,NA,NA,NA,NA,NA,NA,NA,NA,NA,NA,NA,NA,NA,NA,NA,NA,NA,NA,NA,sub135
d3-instructions,123,350975,0.0-64.0,FALSE,FALSE,FALSE,FALSE,"""event"",""trial"",""time""
""fullscreenenter"",""5"",""17920""
","
","
","""event"",""trial"",""time""
""fullscreenenter"",""5"",""17920""
","
",NA,NA,NA,NA,NA,NA,NA,NA,NA,NA,NA,NA,NA,NA,NA,NA,NA,NA,NA,NA,NA,NA,sub135
d3-instructions,124,354960,0.0-65.0,FALSE,FALSE,FALSE,FALSE,"""event"",""trial"",""time""
""fullscreenenter"",""5"",""17920""
","
","
","""event"",""trial"",""time""
""fullscreenenter"",""5"",""17920""
","
",NA,NA,NA,NA,NA,NA,NA,NA,NA,NA,NA,NA,NA,NA,NA,NA,NA,NA,NA,NA,NA,NA,sub135
d3-instructions,125,363009,0.0-66.0,FALSE,FALSE,FALSE,FALSE,"""event"",""trial"",""time""
""fullscreenenter"",""5"",""17920""
","
","
","""event"",""trial"",""time""
""fullscreenenter"",""5"",""17920""
","
",NA,NA,NA,NA,NA,NA,NA,NA,NA,NA,NA,NA,NA,NA,NA,NA,NA,NA,NA,NA,NA,NA,sub135
d3-instructions,126,368742,0.0-67.0,FALSE,FALSE,FALSE,FALSE,"""event"",""trial"",""time""
""fullscreenenter"",""5"",""17920""
","
","
","""event"",""trial"",""time""
""fullscreenenter"",""5"",""17920""
","
",NA,NA,NA,NA,NA,NA,NA,NA,NA,NA,NA,NA,NA,NA,NA,NA,NA,NA,NA,NA,NA,NA,sub135
d3-instructions,127,373118,0.0-68.0,FALSE,FALSE,FALSE,FALSE,"""event"",""trial"",""time""
""fullscreenenter"",""5"",""17920""
","
","
","""event"",""trial"",""time""
""fullscreenenter"",""5"",""17920""
","
",NA,NA,NA,NA,NA,NA,NA,NA,NA,NA,NA,NA,NA,NA,NA,NA,NA,NA,NA,NA,NA,NA,sub135
instructions-quiz,128,377628,0.0-69.0,FALSE,FALSE,FALSE,FALSE,"""event"",""trial"",""time""
""fullscreenenter"",""5"",""17920""
","
","
","""event"",""trial"",""time""
""fullscreenenter"",""5"",""17920""
","
",4507.4599999934435,audio/quiz/Q1_Prompt.wav,NA,1,NA,NA,NA,NA,NA,NA,NA,NA,NA,NA,NA,NA,NA,NA,NA,NA,NA,NA,sub135
audio-keyboard-response,129,379428,0.0-70.0,FALSE,FALSE,FALSE,FALSE,"""event"",""trial"",""time""
""fullscreenenter"",""5"",""17920""
","
","
","""event"",""trial"",""time""
""fullscreenenter"",""5"",""17920""
","
",1797,audio/quiz/Q1_Correct.wav,32,NA,NA,NA,NA,NA,NA,NA,NA,NA,NA,NA,NA,NA,NA,NA,NA,NA,NA,NA,sub135
instructions-quiz,130,383003,0.0-71.0,FALSE,FALSE,FALSE,FALSE,"""event"",""trial"",""time""
""fullscreenenter"",""5"",""17920""
","
","
","""event"",""trial"",""time""
""fullscreenenter"",""5"",""17920""
","
",3574.2450000252575,audio/quiz/Q2_Prompt.wav,NA,0,NA,NA,NA,NA,NA,NA,NA,NA,NA,NA,NA,NA,NA,NA,NA,NA,NA,NA,sub135
audio-keyboard-response,131,384043,0.0-72.0,FALSE,FALSE,FALSE,FALSE,"""event"",""trial"",""time""
""fullscreenenter"",""5"",""17920""
","
","
","""event"",""trial"",""time""
""fullscreenenter"",""5"",""17920""
","
",1040,audio/quiz/Q2_Correct.wav,32,NA,NA,NA,NA,NA,NA,NA,NA,NA,NA,NA,NA,NA,NA,NA,NA,NA,NA,NA,sub135
instructions-quiz,132,386237,0.0-73.0,FALSE,FALSE,FALSE,FALSE,"""event"",""trial"",""time""
""fullscreenenter"",""5"",""17920""
","
","
","""event"",""trial"",""time""
""fullscreenenter"",""5"",""17920""
","
",2192.0500001870096,audio/quiz/Q3_Prompt.wav,NA,1,NA,NA,NA,NA,NA,NA,NA,NA,NA,NA,NA,NA,NA,NA,NA,NA,NA,NA,sub135
audio-keyboard-response,133,386988,0.0-74.0,FALSE,FALSE,FALSE,FALSE,"""event"",""trial"",""time""
""fullscreenenter"",""5"",""17920""
","
","
","""event"",""trial"",""time""
""fullscreenenter"",""5"",""17920""
","
",752,audio/quiz/Q3_Correct.wav,32,NA,NA,NA,NA,NA,NA,NA,NA,NA,NA,NA,NA,NA,NA,NA,NA,NA,NA,NA,sub135
d3-instructions,134,389287,0.0-75.0,FALSE,FALSE,FALSE,FALSE,"""event"",""trial"",""time""
""fullscreenenter"",""5"",""17920""
","
","
","""event"",""trial"",""time""
""fullscreenenter"",""5"",""17920""
","
",NA,NA,NA,NA,NA,NA,NA,NA,NA,NA,NA,NA,NA,NA,NA,NA,NA,NA,NA,NA,NA,NA,sub135
d3-animate-choice,135,392177,0.0-76.0-0.0,FALSE,FALSE,FALSE,FALSE,"""event"",""trial"",""time""
""fullscreenenter"",""5"",""17920""
","
","
","""event"",""trial"",""time""
""fullscreenenter"",""5"",""17920""
","
",882.9349998850375,NA,49,NA,NA,3000,1,NA,NA,images/earth.jpg,images/rocket1,images/rocket2,null,images/rocket2,NA,1,real,null,1,NA,NA,NA,sub135
d3-animate-choice,136,394630,0.0-76.0-1.0,FALSE,FALSE,FALSE,FALSE,"""event"",""trial"",""time""
""fullscreenenter"",""5"",""17920""
","
","
","""event"",""trial"",""time""
""fullscreenenter"",""5"",""17920""
","
",448.5700000077486,NA,49,NA,NA,3000,1,NA,NA,images/redplanet1.jpg,images/alien2,images/alien1,images/rocket2,images/alien1,images/t.png,2,real,true,1,common,1,2020-06-26T19:35:41Z,sub135
two-step-fixation,137,395637,0.0-76.0-2.0,FALSE,FALSE,FALSE,FALSE,"""event"",""trial"",""time""
""fullscreenenter"",""5"",""17920""
","
","
","""event"",""trial"",""time""
""fullscreenenter"",""5"",""17920""
","
",NA,images/earth.jpg,NA,NA,NA,NA,NA,NA,NA,NA,NA,NA,NA,NA,NA,fixation,NA,NA,NA,NA,NA,NA,sub135
d3-animate-choice,138,398046,0.0-76.0-0.1,FALSE,FALSE,FALSE,FALSE,"""event"",""trial"",""time""
""fullscreenenter"",""5"",""17920""
","
","
","""event"",""trial"",""time""
""fullscreenenter"",""5"",""17920""
","
",403.5950000397861,NA,49,NA,NA,3000,1,NA,NA,images/earth.jpg,images/rocket1,images/rocket2,null,images/rocket2,NA,1,real,null,1,NA,NA,NA,sub135
d3-animate-choice,139,400427,0.0-76.0-1.1,FALSE,FALSE,FALSE,FALSE,"""event"",""trial"",""time""
""fullscreenenter"",""5"",""17920""
","
","
","""event"",""trial"",""time""
""fullscreenenter"",""5"",""17920""
","
",375.84999995306134,NA,49,NA,NA,3000,1,NA,NA,images/redplanet1.jpg,images/alien2,images/alien1,images/rocket2,images/alien1,images/nothing.png,2,real,true,1,common,0,2020-06-26T19:35:47Z,sub135
two-step-fixation,140,401430,0.0-76.0-2.1,FALSE,FALSE,FALSE,FALSE,"""event"",""trial"",""time""
""fullscreenenter"",""5"",""17920""
","
","
","""event"",""trial"",""time""
""fullscreenenter"",""5"",""17920""
","
",NA,images/earth.jpg,NA,NA,NA,NA,NA,NA,NA,NA,NA,NA,NA,NA,NA,fixation,NA,NA,NA,NA,NA,NA,sub135
d3-animate-choice,141,403809,0.0-76.0-0.2,FALSE,FALSE,FALSE,FALSE,"""event"",""trial"",""time""
""fullscreenenter"",""5"",""17920""
","
","
","""event"",""trial"",""time""
""fullscreenenter"",""5"",""17920""
","
",373.8500000908971,NA,49,NA,NA,3000,1,NA,NA,images/earth.jpg,images/rocket1,images/rocket2,null,images/rocket2,NA,1,real,null,1,NA,NA,NA,sub135
d3-animate-choice,142,406235,0.0-76.0-1.2,FALSE,FALSE,FALSE,FALSE,"""event"",""trial"",""time""
""fullscreenenter"",""5"",""17920""
","
","
","""event"",""trial"",""time""
""fullscreenenter"",""5"",""17920""
","
",420.98499997518957,NA,48,NA,NA,3000,1,NA,NA,images/redplanet1.jpg,images/alien2,images/alien1,images/rocket2,images/alien2,images/t.png,2,real,true,2,common,1,2020-06-26T19:35:53Z,sub135
two-step-fixation,143,407241,0.0-76.0-2.2,FALSE,FALSE,FALSE,FALSE,"""event"",""trial"",""time""
""fullscreenenter"",""5"",""17920""
","
","
","""event"",""trial"",""time""
""fullscreenenter"",""5"",""17920""
","
",NA,images/earth.jpg,NA,NA,NA,NA,NA,NA,NA,NA,NA,NA,NA,NA,NA,fixation,NA,NA,NA,NA,NA,NA,sub135
d3-animate-choice,144,409655,0.0-76.0-0.3,FALSE,FALSE,FALSE,FALSE,"""event"",""trial"",""time""
""fullscreenenter"",""5"",""17920""
","
","
","""event"",""trial"",""time""
""fullscreenenter"",""5"",""17920""
","
",407.839999999851,NA,49,NA,NA,3000,1,NA,NA,images/earth.jpg,images/rocket1,images/rocket2,null,images/rocket2,NA,1,real,null,1,NA,NA,NA,sub135
d3-animate-choice,145,412091,0.0-76.0-1.3,FALSE,FALSE,FALSE,FALSE,"""event"",""trial"",""time""
""fullscreenenter"",""5"",""17920""
","
","
","""event"",""trial"",""time""
""fullscreenenter"",""5"",""17920""
","
",429.1499999817461,NA,48,NA,NA,3000,1,NA,NA,images/redplanet1.jpg,images/alien2,images/alien1,images/rocket2,images/alien2,images/t.png,2,real,true,2,common,1,2020-06-26T19:35:59Z,sub135
two-step-fixation,146,413097,0.0-76.0-2.3,FALSE,FALSE,FALSE,FALSE,"""event"",""trial"",""time""
""fullscreenenter"",""5"",""17920""
","
","
","""event"",""trial"",""time""
""fullscreenenter"",""5"",""17920""
","
",NA,images/earth.jpg,NA,NA,NA,NA,NA,NA,NA,NA,NA,NA,NA,NA,NA,fixation,NA,NA,NA,NA,NA,NA,sub135
d3-animate-choice,147,415455,0.0-76.0-0.4,FALSE,FALSE,FALSE,FALSE,"""event"",""trial"",""time""
""fullscreenenter"",""5"",""17920""
","
","
","""event"",""trial"",""time""
""fullscreenenter"",""5"",""17920""
","
",353.83499995805323,NA,49,NA,NA,3000,1,NA,NA,images/earth.jpg,images/rocket1,images/rocket2,null,images/rocket2,NA,1,real,null,1,NA,NA,NA,sub135
d3-animate-choice,148,417866,0.0-76.0-1.4,FALSE,FALSE,FALSE,FALSE,"""event"",""trial"",""time""
""fullscreenenter"",""5"",""17920""
","
","
","""event"",""trial"",""time""
""fullscreenenter"",""5"",""17920""
","
",405.8649998623878,NA,48,NA,NA,3000,1,NA,NA,images/redplanet1.jpg,images/alien2,images/alien1,images/rocket2,images/alien2,images/t.png,2,real,true,2,common,1,2020-06-26T19:36:05Z,sub135
two-step-fixation,149,418871,0.0-76.0-2.4,FALSE,FALSE,FALSE,FALSE,"""event"",""trial"",""time""
""fullscreenenter"",""5"",""17920""
","
","
","""event"",""trial"",""time""
""fullscreenenter"",""5"",""17920""
","
",NA,images/earth.jpg,NA,NA,NA,NA,NA,NA,NA,NA,NA,NA,NA,NA,NA,fixation,NA,NA,NA,NA,NA,NA,sub135
d3-animate-choice,150,421225,0.0-76.0-0.5,FALSE,FALSE,FALSE,FALSE,"""event"",""trial"",""time""
""fullscreenenter"",""5"",""17920""
","
","
","""event"",""trial"",""time""
""fullscreenenter"",""5"",""17920""
","
",345.1050000730902,NA,49,NA,NA,3000,1,NA,NA,images/earth.jpg,images/rocket1,images/rocket2,null,images/rocket2,NA,1,real,null,1,NA,NA,NA,sub135
d3-animate-choice,151,423660,0.0-76.0-1.5,FALSE,FALSE,FALSE,FALSE,"""event"",""trial"",""time""
""fullscreenenter"",""5"",""17920""
","
","
","""event"",""trial"",""time""
""fullscreenenter"",""5"",""17920""
","
",426.41999991610646,NA,48,NA,NA,3000,1,NA,NA,images/redplanet1.jpg,images/alien2,images/alien1,images/rocket2,images/alien2,images/nothing.png,2,real,true,2,common,0,2020-06-26T19:36:10Z,sub135
two-step-fixation,152,424668,0.0-76.0-2.5,FALSE,FALSE,FALSE,FALSE,"""event"",""trial"",""time""
""fullscreenenter"",""5"",""17920""
","
","
","""event"",""trial"",""time""
""fullscreenenter"",""5"",""17920""
","
",NA,images/earth.jpg,NA,NA,NA,NA,NA,NA,NA,NA,NA,NA,NA,NA,NA,fixation,NA,NA,NA,NA,NA,NA,sub135
d3-animate-choice,153,427187,0.0-76.0-0.6,FALSE,FALSE,FALSE,FALSE,"""event"",""trial"",""time""
""fullscreenenter"",""5"",""17920""
","
","
","""event"",""trial"",""time""
""fullscreenenter"",""5"",""17920""
","
",511.29499985836446,NA,48,NA,NA,3000,1,NA,NA,images/earth.jpg,images/rocket1,images/rocket2,null,images/rocket1,NA,1,real,null,2,NA,NA,NA,sub135
d3-animate-choice,154,429813,0.0-76.0-1.6,FALSE,FALSE,FALSE,FALSE,"""event"",""trial"",""time""
""fullscreenenter"",""5"",""17920""
","
","
","""event"",""trial"",""time""
""fullscreenenter"",""5"",""17920""
","
",620.094999903813,NA,49,NA,NA,3000,1,NA,NA,images/purpleplanet.jpg,images/alien4,images/alien3,images/rocket1,images/alien3,images/nothing.png,2,real,true,1,common,0,2020-06-26T19:36:17Z,sub135
two-step-fixation,155,430816,0.0-76.0-2.6,FALSE,FALSE,FALSE,FALSE,"""event"",""trial"",""time""
""fullscreenenter"",""5"",""17920""
","
","
","""event"",""trial"",""time""
""fullscreenenter"",""5"",""17920""
","
",NA,images/earth.jpg,NA,NA,NA,NA,NA,NA,NA,NA,NA,NA,NA,NA,NA,fixation,NA,NA,NA,NA,NA,NA,sub135
d3-animate-choice,156,433232,0.0-76.0-0.7,FALSE,FALSE,FALSE,FALSE,"""event"",""trial"",""time""
""fullscreenenter"",""5"",""17920""
","
","
","""event"",""trial"",""time""
""fullscreenenter"",""5"",""17920""
","
",409.8650000523776,NA,48,NA,NA,3000,1,NA,NA,images/earth.jpg,images/rocket1,images/rocket2,null,images/rocket1,NA,1,real,null,2,NA,NA,NA,sub135
d3-animate-choice,157,435631,0.0-76.0-1.7,FALSE,FALSE,FALSE,FALSE,"""event"",""trial"",""time""
""fullscreenenter"",""5"",""17920""
","
","
","""event"",""trial"",""time""
""fullscreenenter"",""5"",""17920""
","
",389.5550000015646,NA,48,NA,NA,3000,1,NA,NA,images/purpleplanet.jpg,images/alien4,images/alien3,images/rocket1,images/alien4,images/t.png,2,real,true,2,common,1,2020-06-26T19:36:22Z,sub135
two-step-fixation,158,436638,0.0-76.0-2.7,FALSE,FALSE,FALSE,FALSE,"""event"",""trial"",""time""
""fullscreenenter"",""5"",""17920""
","
","
","""event"",""trial"",""time""
""fullscreenenter"",""5"",""17920""
","
",NA,images/earth.jpg,NA,NA,NA,NA,NA,NA,NA,NA,NA,NA,NA,NA,NA,fixation,NA,NA,NA,NA,NA,NA,sub135
d3-animate-choice,159,439014,0.0-76.0-0.8,FALSE,FALSE,FALSE,FALSE,"""event"",""trial"",""time""
""fullscreenenter"",""5"",""17920""
","
","
","""event"",""trial"",""time""
""fullscreenenter"",""5"",""17920""
","
",369.21999999322,NA,48,NA,NA,3000,1,NA,NA,images/earth.jpg,images/rocket1,images/rocket2,null,images/rocket1,NA,1,real,null,2,NA,NA,NA,sub135
d3-animate-choice,160,441433,0.0-76.0-1.8,FALSE,FALSE,FALSE,FALSE,"""event"",""trial"",""time""
""fullscreenenter"",""5"",""17920""
","
","
","""event"",""trial"",""time""
""fullscreenenter"",""5"",""17920""
","
",414.2200001515448,NA,48,NA,NA,3000,1,NA,NA,images/purpleplanet.jpg,images/alien4,images/alien3,images/rocket1,images/alien4,images/t.png,2,real,true,2,common,1,2020-06-26T19:36:28Z,sub135
two-step-fixation,161,442438,0.0-76.0-2.8,FALSE,FALSE,FALSE,FALSE,"""event"",""trial"",""time""
""fullscreenenter"",""5"",""17920""
","
","
","""event"",""trial"",""time""
""fullscreenenter"",""5"",""17920""
","
",NA,images/earth.jpg,NA,NA,NA,NA,NA,NA,NA,NA,NA,NA,NA,NA,NA,fixation,NA,NA,NA,NA,NA,NA,sub135
d3-animate-choice,162,444825,0.0-76.0-0.9,FALSE,FALSE,FALSE,FALSE,"""event"",""trial"",""time""
""fullscreenenter"",""5"",""17920""
","
","
","""event"",""trial"",""time""
""fullscreenenter"",""5"",""17920""
","
",380.58000011369586,NA,48,NA,NA,3000,1,NA,NA,images/earth.jpg,images/rocket1,images/rocket2,null,images/rocket1,NA,1,real,null,2,NA,NA,NA,sub135
d3-animate-choice,163,447284,0.0-76.0-1.9,FALSE,FALSE,FALSE,FALSE,"""event"",""trial"",""time""
""fullscreenenter"",""5"",""17920""
","
","
","""event"",""trial"",""time""
""fullscreenenter"",""5"",""17920""
","
",448.8049999345094,NA,48,NA,NA,3000,1,NA,NA,images/redplanet1.jpg,images/alien2,images/alien1,images/rocket1,images/alien2,images/t.png,2,real,false,2,rare,1,2020-06-26T19:36:34Z,sub135
two-step-fixation,164,448287,0.0-76.0-2.9,FALSE,FALSE,FALSE,FALSE,"""event"",""trial"",""time""
""fullscreenenter"",""5"",""17920""
","
","
","""event"",""trial"",""time""
""fullscreenenter"",""5"",""17920""
","
",NA,images/earth.jpg,NA,NA,NA,NA,NA,NA,NA,NA,NA,NA,NA,NA,NA,fixation,NA,NA,NA,NA,NA,NA,sub135
d3-animate-choice,165,450689,0.0-76.0-0.10,FALSE,FALSE,FALSE,FALSE,"""event"",""trial"",""time""
""fullscreenenter"",""5"",""17920""
","
","
","""event"",""trial"",""time""
""fullscreenenter"",""5"",""17920""
","
",396.2650001049042,NA,48,NA,NA,3000,1,NA,NA,images/earth.jpg,images/rocket1,images/rocket2,null,images/rocket1,NA,1,real,null,2,NA,NA,NA,sub135
d3-animate-choice,166,453158,0.0-76.0-1.10,FALSE,FALSE,FALSE,FALSE,"""event"",""trial"",""time""
""fullscreenenter"",""5"",""17920""
","
","
","""event"",""trial"",""time""
""fullscreenenter"",""5"",""17920""
","
",461.86999999918044,NA,48,NA,NA,3000,1,NA,NA,images/purpleplanet.jpg,images/alien4,images/alien3,images/rocket1,images/alien4,images/nothing.png,2,real,true,2,common,0,2020-06-26T19:36:40Z,sub135
two-step-fixation,167,454163,0.0-76.0-2.10,FALSE,FALSE,FALSE,FALSE,"""event"",""trial"",""time""
""fullscreenenter"",""5"",""17920""
","
","
","""event"",""trial"",""time""
""fullscreenenter"",""5"",""17920""
","
",NA,images/earth.jpg,NA,NA,NA,NA,NA,NA,NA,NA,NA,NA,NA,NA,NA,fixation,NA,NA,NA,NA,NA,NA,sub135
d3-animate-choice,168,456532,0.0-76.0-0.11,FALSE,FALSE,FALSE,FALSE,"""event"",""trial"",""time""
""fullscreenenter"",""5"",""17920""
","
","
","""event"",""trial"",""time""
""fullscreenenter"",""5"",""17920""
","
",363.1150000728667,NA,48,NA,NA,3000,1,NA,NA,images/earth.jpg,images/rocket1,images/rocket2,null,images/rocket1,NA,1,real,null,2,NA,NA,NA,sub135
d3-animate-choice,169,459124,0.0-76.0-1.11,FALSE,FALSE,FALSE,FALSE,"""event"",""trial"",""time""
""fullscreenenter"",""5"",""17920""
","
","
","""event"",""trial"",""time""
""fullscreenenter"",""5"",""17920""
","
",585.2349998895079,NA,48,NA,NA,3000,1,NA,NA,images/redplanet1.jpg,images/alien2,images/alien1,images/rocket1,images/alien2,images/nothing.png,2,real,false,2,rare,0,2020-06-26T19:36:46Z,sub135
two-step-fixation,170,460126,0.0-76.0-2.11,FALSE,FALSE,FALSE,FALSE,"""event"",""trial"",""time""
""fullscreenenter"",""5"",""17920""
","
","
","""event"",""trial"",""time""
""fullscreenenter"",""5"",""17920""
","
",NA,images/earth.jpg,NA,NA,NA,NA,NA,NA,NA,NA,NA,NA,NA,NA,NA,fixation,NA,NA,NA,NA,NA,NA,sub135
d3-animate-choice,171,462516,0.0-76.0-0.12,FALSE,FALSE,FALSE,FALSE,"""event"",""trial"",""time""
""fullscreenenter"",""5"",""17920""
","
","
","""event"",""trial"",""time""
""fullscreenenter"",""5"",""17920""
","
",384.3300000298768,NA,49,NA,NA,3000,1,NA,NA,images/earth.jpg,images/rocket1,images/rocket2,null,images/rocket2,NA,1,real,null,1,NA,NA,NA,sub135
d3-animate-choice,172,465330,0.0-76.0-1.12,FALSE,FALSE,FALSE,FALSE,"""event"",""trial"",""time""
""fullscreenenter"",""5"",""17920""
","
","
","""event"",""trial"",""time""
""fullscreenenter"",""5"",""17920""
","
",806.2799999024719,NA,49,NA,NA,3000,1,NA,NA,images/purpleplanet.jpg,images/alien4,images/alien3,images/rocket2,images/alien3,images/t.png,2,real,false,1,rare,1,2020-06-26T19:36:52Z,sub135
two-step-fixation,173,466334,0.0-76.0-2.12,FALSE,FALSE,FALSE,FALSE,"""event"",""trial"",""time""
""fullscreenenter"",""5"",""17920""
","
","
","""event"",""trial"",""time""
""fullscreenenter"",""5"",""17920""
","
",NA,images/earth.jpg,NA,NA,NA,NA,NA,NA,NA,NA,NA,NA,NA,NA,NA,fixation,NA,NA,NA,NA,NA,NA,sub135
d3-animate-choice,174,468982,0.0-76.0-0.13,FALSE,FALSE,FALSE,FALSE,"""event"",""trial"",""time""
""fullscreenenter"",""5"",""17920""
","
","
","""event"",""trial"",""time""
""fullscreenenter"",""5"",""17920""
","
",641.4249998051673,NA,49,NA,NA,3000,1,NA,NA,images/earth.jpg,images/rocket1,images/rocket2,null,images/rocket2,NA,1,real,null,1,NA,NA,NA,sub135
d3-animate-choice,175,471636,0.0-76.0-1.13,FALSE,FALSE,FALSE,FALSE,"""event"",""trial"",""time""
""fullscreenenter"",""5"",""17920""
","
","
","""event"",""trial"",""time""
""fullscreenenter"",""5"",""17920""
","
",646.57499990426,NA,49,NA,NA,3000,1,NA,NA,images/redplanet1.jpg,images/alien2,images/alien1,images/rocket2,images/alien1,images/t.png,2,real,true,1,common,1,2020-06-26T19:36:58Z,sub135
two-step-fixation,176,472645,0.0-76.0-2.13,FALSE,FALSE,FALSE,FALSE,"""event"",""trial"",""time""
""fullscreenenter"",""5"",""17920""
","
","
","""event"",""trial"",""time""
""fullscreenenter"",""5"",""17920""
","
",NA,images/earth.jpg,NA,NA,NA,NA,NA,NA,NA,NA,NA,NA,NA,NA,NA,fixation,NA,NA,NA,NA,NA,NA,sub135
d3-animate-choice,177,474996,0.0-76.0-0.14,FALSE,FALSE,FALSE,FALSE,"""event"",""trial"",""time""
""fullscreenenter"",""5"",""17920""
","
","
","""event"",""trial"",""time""
""fullscreenenter"",""5"",""17920""
","
",346.4949999470264,NA,49,NA,NA,3000,1,NA,NA,images/earth.jpg,images/rocket1,images/rocket2,null,images/rocket2,NA,1,real,null,1,NA,NA,NA,sub135
d3-animate-choice,178,477362,0.0-76.0-1.14,FALSE,FALSE,FALSE,FALSE,"""event"",""trial"",""time""
""fullscreenenter"",""5"",""17920""
","
","
","""event"",""trial"",""time""
""fullscreenenter"",""5"",""17920""
","
",358.4500001743436,NA,49,NA,NA,3000,1,NA,NA,images/redplanet1.jpg,images/alien2,images/alien1,images/rocket2,images/alien1,images/nothing.png,2,real,true,1,common,0,2020-06-26T19:37:04Z,sub135
two-step-fixation,179,478364,0.0-76.0-2.14,FALSE,FALSE,FALSE,FALSE,"""event"",""trial"",""time""
""fullscreenenter"",""5"",""17920""
","
","
","""event"",""trial"",""time""
""fullscreenenter"",""5"",""17920""
","
",NA,images/earth.jpg,NA,NA,NA,NA,NA,NA,NA,NA,NA,NA,NA,NA,NA,fixation,NA,NA,NA,NA,NA,NA,sub135
d3-animate-choice,180,480729,0.0-76.0-0.15,FALSE,FALSE,FALSE,FALSE,"""event"",""trial"",""time""
""fullscreenenter"",""5"",""17920""
","
","
","""event"",""trial"",""time""
""fullscreenenter"",""5"",""17920""
","
",357.6900002080947,NA,48,NA,NA,3000,1,NA,NA,images/earth.jpg,images/rocket1,images/rocket2,null,images/rocket1,NA,1,real,null,2,NA,NA,NA,sub135
d3-animate-choice,181,483242,0.0-76.0-1.15,FALSE,FALSE,FALSE,FALSE,"""event"",""trial"",""time""
""fullscreenenter"",""5"",""17920""
","
","
","""event"",""trial"",""time""
""fullscreenenter"",""5"",""17920""
","
",505.5150000844151,NA,49,NA,NA,3000,1,NA,NA,images/purpleplanet.jpg,images/alien4,images/alien3,images/rocket1,images/alien3,images/nothing.png,2,real,true,1,common,0,2020-06-26T19:37:10Z,sub135
two-step-fixation,182,484247,0.0-76.0-2.15,FALSE,FALSE,FALSE,FALSE,"""event"",""trial"",""time""
""fullscreenenter"",""5"",""17920""
","
","
","""event"",""trial"",""time""
""fullscreenenter"",""5"",""17920""
","
",NA,images/earth.jpg,NA,NA,NA,NA,NA,NA,NA,NA,NA,NA,NA,NA,NA,fixation,NA,NA,NA,NA,NA,NA,sub135
d3-animate-choice,183,486644,0.0-76.0-0.16,FALSE,FALSE,FALSE,FALSE,"""event"",""trial"",""time""
""fullscreenenter"",""5"",""17920""
","
","
","""event"",""trial"",""time""
""fullscreenenter"",""5"",""17920""
","
",388.16999993287027,NA,48,NA,NA,3000,1,NA,NA,images/earth.jpg,images/rocket1,images/rocket2,null,images/rocket1,NA,1,real,null,2,NA,NA,NA,sub135
d3-animate-choice,184,489099,0.0-76.0-1.16,FALSE,FALSE,FALSE,FALSE,"""event"",""trial"",""time""
""fullscreenenter"",""5"",""17920""
","
","
","""event"",""trial"",""time""
""fullscreenenter"",""5"",""17920""
","
",447.18499993905425,NA,48,NA,NA,3000,1,NA,NA,images/purpleplanet.jpg,images/alien4,images/alien3,images/rocket1,images/alien4,images/nothing.png,2,real,true,2,common,0,2020-06-26T19:37:16Z,sub135
two-step-fixation,185,490106,0.0-76.0-2.16,FALSE,FALSE,FALSE,FALSE,"""event"",""trial"",""time""
""fullscreenenter"",""5"",""17920""
","
","
","""event"",""trial"",""time""
""fullscreenenter"",""5"",""17920""
","
",NA,images/earth.jpg,NA,NA,NA,NA,NA,NA,NA,NA,NA,NA,NA,NA,NA,fixation,NA,NA,NA,NA,NA,NA,sub135
d3-animate-choice,186,492508,0.0-76.0-0.17,FALSE,FALSE,FALSE,FALSE,"""event"",""trial"",""time""
""fullscreenenter"",""5"",""17920""
","
","
","""event"",""trial"",""time""
""fullscreenenter"",""5"",""17920""
","
",396.2449999526143,NA,49,NA,NA,3000,1,NA,NA,images/earth.jpg,images/rocket1,images/rocket2,null,images/rocket2,NA,1,real,null,1,NA,NA,NA,sub135
d3-animate-choice,187,495353,0.0-76.0-1.17,FALSE,FALSE,FALSE,FALSE,"""event"",""trial"",""time""
""fullscreenenter"",""5"",""17920""
","
","
","""event"",""trial"",""time""
""fullscreenenter"",""5"",""17920""
","
",837.9950001835823,NA,49,NA,NA,3000,1,NA,NA,images/redplanet1.jpg,images/alien2,images/alien1,images/rocket2,images/alien1,images/t.png,2,real,true,1,common,1,2020-06-26T19:37:22Z,sub135
two-step-fixation,188,496356,0.0-76.0-2.17,FALSE,FALSE,FALSE,FALSE,"""event"",""trial"",""time""
""fullscreenenter"",""5"",""17920""
","
","
","""event"",""trial"",""time""
""fullscreenenter"",""5"",""17920""
","
",NA,images/earth.jpg,NA,NA,NA,NA,NA,NA,NA,NA,NA,NA,NA,NA,NA,fixation,NA,NA,NA,NA,NA,NA,sub135
d3-animate-choice,189,498724,0.0-76.0-0.18,FALSE,FALSE,FALSE,FALSE,"""event"",""trial"",""time""
""fullscreenenter"",""5"",""17920""
","
","
","""event"",""trial"",""time""
""fullscreenenter"",""5"",""17920""
","
",361.670000012964,NA,49,NA,NA,3000,1,NA,NA,images/earth.jpg,images/rocket1,images/rocket2,null,images/rocket2,NA,1,real,null,1,NA,NA,NA,sub135
d3-animate-choice,190,501097,0.0-76.0-1.18,FALSE,FALSE,FALSE,FALSE,"""event"",""trial"",""time""
""fullscreenenter"",""5"",""17920""
","
","
","""event"",""trial"",""time""
""fullscreenenter"",""5"",""17920""
","
",363.95500018261373,NA,49,NA,NA,3000,1,NA,NA,images/redplanet1.jpg,images/alien2,images/alien1,images/rocket2,images/alien1,images/nothing.png,2,real,true,1,common,0,2020-06-26T19:37:28Z,sub135
two-step-fixation,191,502103,0.0-76.0-2.18,FALSE,FALSE,FALSE,FALSE,"""event"",""trial"",""time""
""fullscreenenter"",""5"",""17920""
","
","
","""event"",""trial"",""time""
""fullscreenenter"",""5"",""17920""
","
",NA,images/earth.jpg,NA,NA,NA,NA,NA,NA,NA,NA,NA,NA,NA,NA,NA,fixation,NA,NA,NA,NA,NA,NA,sub135
d3-animate-choice,192,504426,0.0-76.0-0.19,FALSE,FALSE,FALSE,FALSE,"""event"",""trial"",""time""
""fullscreenenter"",""5"",""17920""
","
","
","""event"",""trial"",""time""
""fullscreenenter"",""5"",""17920""
","
",317.64500006102026,NA,49,NA,NA,3000,1,NA,NA,images/earth.jpg,images/rocket1,images/rocket2,null,images/rocket2,NA,1,real,null,1,NA,NA,NA,sub135
d3-animate-choice,193,506891,0.0-76.0-1.19,FALSE,FALSE,FALSE,FALSE,"""event"",""trial"",""time""
""fullscreenenter"",""5"",""17920""
","
","
","""event"",""trial"",""time""
""fullscreenenter"",""5"",""17920""
","
",458.37000012397766,NA,48,NA,NA,3000,1,NA,NA,images/redplanet1.jpg,images/alien2,images/alien1,images/rocket2,images/alien2,images/nothing.png,2,real,true,2,common,0,2020-06-26T19:37:34Z,sub135
two-step-fixation,194,507894,0.0-76.0-2.19,FALSE,FALSE,FALSE,FALSE,"""event"",""trial"",""time""
""fullscreenenter"",""5"",""17920""
","
","
","""event"",""trial"",""time""
""fullscreenenter"",""5"",""17920""
","
",NA,images/earth.jpg,NA,NA,NA,NA,NA,NA,NA,NA,NA,NA,NA,NA,NA,fixation,NA,NA,NA,NA,NA,NA,sub135
d3-animate-choice,195,510273,0.0-76.0-0.20,FALSE,FALSE,FALSE,FALSE,"""event"",""trial"",""time""
""fullscreenenter"",""5"",""17920""
","
","
","""event"",""trial"",""time""
""fullscreenenter"",""5"",""17920""
","
",375.87499991059303,NA,48,NA,NA,3000,1,NA,NA,images/earth.jpg,images/rocket1,images/rocket2,null,images/rocket1,NA,1,real,null,2,NA,NA,NA,sub135
d3-animate-choice,196,512870,0.0-76.0-1.20,FALSE,FALSE,FALSE,FALSE,"""event"",""trial"",""time""
""fullscreenenter"",""5"",""17920""
","
","
","""event"",""trial"",""time""
""fullscreenenter"",""5"",""17920""
","
",589.7900001145899,NA,48,NA,NA,3000,1,NA,NA,images/purpleplanet.jpg,images/alien4,images/alien3,images/rocket1,images/alien4,images/t.png,2,real,true,2,common,1,2020-06-26T19:37:40Z,sub135
two-step-fixation,197,513873,0.0-76.0-2.20,FALSE,FALSE,FALSE,FALSE,"""event"",""trial"",""time""
""fullscreenenter"",""5"",""17920""
","
","
","""event"",""trial"",""time""
""fullscreenenter"",""5"",""17920""
","
",NA,images/earth.jpg,NA,NA,NA,NA,NA,NA,NA,NA,NA,NA,NA,NA,NA,fixation,NA,NA,NA,NA,NA,NA,sub135
d3-animate-choice,198,516230,0.0-76.0-0.21,FALSE,FALSE,FALSE,FALSE,"""event"",""trial"",""time""
""fullscreenenter"",""5"",""17920""
","
","
","""event"",""trial"",""time""
""fullscreenenter"",""5"",""17920""
","
",349.6799999848008,NA,48,NA,NA,3000,1,NA,NA,images/earth.jpg,images/rocket1,images/rocket2,null,images/rocket1,NA,1,real,null,2,NA,NA,NA,sub135
d3-animate-choice,199,518636,0.0-76.0-1.21,FALSE,FALSE,FALSE,FALSE,"""event"",""trial"",""time""
""fullscreenenter"",""5"",""17920""
","
","
","""event"",""trial"",""time""
""fullscreenenter"",""5"",""17920""
","
",399.9600000679493,NA,48,NA,NA,3000,1,NA,NA,images/purpleplanet.jpg,images/alien4,images/alien3,images/rocket1,images/alien4,images/t.png,2,real,true,2,common,1,2020-06-26T19:37:45Z,sub135
two-step-fixation,200,519643,0.0-76.0-2.21,FALSE,FALSE,FALSE,FALSE,"""event"",""trial"",""time""
""fullscreenenter"",""5"",""17920""
","
","
","""event"",""trial"",""time""
""fullscreenenter"",""5"",""17920""
","
",NA,images/earth.jpg,NA,NA,NA,NA,NA,NA,NA,NA,NA,NA,NA,NA,NA,fixation,NA,NA,NA,NA,NA,NA,sub135
d3-animate-choice,201,521988,0.0-76.0-0.22,FALSE,FALSE,FALSE,FALSE,"""event"",""trial"",""time""
""fullscreenenter"",""5"",""17920""
","
","
","""event"",""trial"",""time""
""fullscreenenter"",""5"",""17920""
","
",337.88500004447997,NA,48,NA,NA,3000,1,NA,NA,images/earth.jpg,images/rocket1,images/rocket2,null,images/rocket1,NA,1,real,null,2,NA,NA,NA,sub135
d3-animate-choice,202,524373,0.0-76.0-1.22,FALSE,FALSE,FALSE,FALSE,"""event"",""trial"",""time""
""fullscreenenter"",""5"",""17920""
","
","
","""event"",""trial"",""time""
""fullscreenenter"",""5"",""17920""
","
",379.6350001357496,NA,48,NA,NA,3000,1,NA,NA,images/purpleplanet.jpg,images/alien4,images/alien3,images/rocket1,images/alien4,images/t.png,2,real,true,2,common,1,2020-06-26T19:37:51Z,sub135
two-step-fixation,203,525377,0.0-76.0-2.22,FALSE,FALSE,FALSE,FALSE,"""event"",""trial"",""time""
""fullscreenenter"",""5"",""17920""
","
","
","""event"",""trial"",""time""
""fullscreenenter"",""5"",""17920""
","
",NA,images/earth.jpg,NA,NA,NA,NA,NA,NA,NA,NA,NA,NA,NA,NA,NA,fixation,NA,NA,NA,NA,NA,NA,sub135
d3-animate-choice,204,527734,0.0-76.0-0.23,FALSE,FALSE,FALSE,FALSE,"""event"",""trial"",""time""
""fullscreenenter"",""5"",""17920""
","
","
","""event"",""trial"",""time""
""fullscreenenter"",""5"",""17920""
","
",351.1600000783801,NA,48,NA,NA,3000,1,NA,NA,images/earth.jpg,images/rocket1,images/rocket2,null,images/rocket1,NA,1,real,null,2,NA,NA,NA,sub135
d3-animate-choice,205,530185,0.0-76.0-1.23,FALSE,FALSE,FALSE,FALSE,"""event"",""trial"",""time""
""fullscreenenter"",""5"",""17920""
","
","
","""event"",""trial"",""time""
""fullscreenenter"",""5"",""17920""
","
",442.21999985165894,NA,48,NA,NA,3000,1,NA,NA,images/purpleplanet.jpg,images/alien4,images/alien3,images/rocket1,images/alien4,images/t.png,2,real,true,2,common,1,2020-06-26T19:37:57Z,sub135
two-step-fixation,206,531188,0.0-76.0-2.23,FALSE,FALSE,FALSE,FALSE,"""event"",""trial"",""time""
""fullscreenenter"",""5"",""17920""
","
","
","""event"",""trial"",""time""
""fullscreenenter"",""5"",""17920""
","
",NA,images/earth.jpg,NA,NA,NA,NA,NA,NA,NA,NA,NA,NA,NA,NA,NA,fixation,NA,NA,NA,NA,NA,NA,sub135
d3-animate-choice,207,533526,0.0-76.0-0.24,FALSE,FALSE,FALSE,FALSE,"""event"",""trial"",""time""
""fullscreenenter"",""5"",""17920""
","
","
","""event"",""trial"",""time""
""fullscreenenter"",""5"",""17920""
","
",331.4499999396503,NA,48,NA,NA,3000,1,NA,NA,images/earth.jpg,images/rocket1,images/rocket2,null,images/rocket1,NA,1,real,null,2,NA,NA,NA,sub135
d3-animate-choice,208,535977,0.0-76.0-1.24,FALSE,FALSE,FALSE,FALSE,"""event"",""trial"",""time""
""fullscreenenter"",""5"",""17920""
","
","
","""event"",""trial"",""time""
""fullscreenenter"",""5"",""17920""
","
",442.1149999834597,NA,48,NA,NA,3000,1,NA,NA,images/purpleplanet.jpg,images/alien4,images/alien3,images/rocket1,images/alien4,images/nothing.png,2,real,true,2,common,0,2020-06-26T19:38:03Z,sub135
two-step-fixation,209,536980,0.0-76.0-2.24,FALSE,FALSE,FALSE,FALSE,"""event"",""trial"",""time""
""fullscreenenter"",""5"",""17920""
","
","
","""event"",""trial"",""time""
""fullscreenenter"",""5"",""17920""
","
",NA,images/earth.jpg,NA,NA,NA,NA,NA,NA,NA,NA,NA,NA,NA,NA,NA,fixation,NA,NA,NA,NA,NA,NA,sub135
d3-animate-choice,210,539339,0.0-76.0-0.25,FALSE,FALSE,FALSE,FALSE,"""event"",""trial"",""time""
""fullscreenenter"",""5"",""17920""
","
","
","""event"",""trial"",""time""
""fullscreenenter"",""5"",""17920""
","
",353.91999990679324,NA,48,NA,NA,3000,1,NA,NA,images/earth.jpg,images/rocket1,images/rocket2,null,images/rocket1,NA,1,real,null,2,NA,NA,NA,sub135
d3-animate-choice,211,541927,0.0-76.0-1.25,FALSE,FALSE,FALSE,FALSE,"""event"",""trial"",""time""
""fullscreenenter"",""5"",""17920""
","
","
","""event"",""trial"",""time""
""fullscreenenter"",""5"",""17920""
","
",578.074999852106,NA,48,NA,NA,3000,1,NA,NA,images/purpleplanet.jpg,images/alien4,images/alien3,images/rocket1,images/alien4,images/nothing.png,2,real,true,2,common,0,2020-06-26T19:38:09Z,sub135
two-step-fixation,212,542929,0.0-76.0-2.25,FALSE,FALSE,FALSE,FALSE,"""event"",""trial"",""time""
""fullscreenenter"",""5"",""17920""
","
","
","""event"",""trial"",""time""
""fullscreenenter"",""5"",""17920""
","
",NA,images/earth.jpg,NA,NA,NA,NA,NA,NA,NA,NA,NA,NA,NA,NA,NA,fixation,NA,NA,NA,NA,NA,NA,sub135
d3-animate-choice,213,545290,0.0-76.0-0.26,FALSE,FALSE,FALSE,FALSE,"""event"",""trial"",""time""
""fullscreenenter"",""5"",""17920""
","
","
","""event"",""trial"",""time""
""fullscreenenter"",""5"",""17920""
","
",354.35499995946884,NA,48,NA,NA,3000,1,NA,NA,images/earth.jpg,images/rocket1,images/rocket2,null,images/rocket1,NA,1,real,null,2,NA,NA,NA,sub135
d3-animate-choice,214,547757,0.0-76.0-1.26,FALSE,FALSE,FALSE,FALSE,"""event"",""trial"",""time""
""fullscreenenter"",""5"",""17920""
","
","
","""event"",""trial"",""time""
""fullscreenenter"",""5"",""17920""
","
",460.9049998689443,NA,49,NA,NA,3000,1,NA,NA,images/purpleplanet.jpg,images/alien4,images/alien3,images/rocket1,images/alien3,images/nothing.png,2,real,true,1,common,0,2020-06-26T19:38:15Z,sub135
two-step-fixation,215,548761,0.0-76.0-2.26,FALSE,FALSE,FALSE,FALSE,"""event"",""trial"",""time""
""fullscreenenter"",""5"",""17920""
","
","
","""event"",""trial"",""time""
""fullscreenenter"",""5"",""17920""
","
",NA,images/earth.jpg,NA,NA,NA,NA,NA,NA,NA,NA,NA,NA,NA,NA,NA,fixation,NA,NA,NA,NA,NA,NA,sub135
d3-animate-choice,216,551134,0.0-76.0-0.27,FALSE,FALSE,FALSE,FALSE,"""event"",""trial"",""time""
""fullscreenenter"",""5"",""17920""
","
","
","""event"",""trial"",""time""
""fullscreenenter"",""5"",""17920""
","
",367.21500009298325,NA,49,NA,NA,3000,1,NA,NA,images/earth.jpg,images/rocket1,images/rocket2,null,images/rocket2,NA,1,real,null,1,NA,NA,NA,sub135
d3-animate-choice,217,553509,0.0-76.0-1.27,FALSE,FALSE,FALSE,FALSE,"""event"",""trial"",""time""
""fullscreenenter"",""5"",""17920""
","
","
","""event"",""trial"",""time""
""fullscreenenter"",""5"",""17920""
","
",368.6850001104176,NA,48,NA,NA,3000,1,NA,NA,images/redplanet1.jpg,images/alien2,images/alien1,images/rocket2,images/alien2,images/t.png,2,real,true,2,common,1,2020-06-26T19:38:20Z,sub135
two-step-fixation,218,554514,0.0-76.0-2.27,FALSE,FALSE,FALSE,FALSE,"""event"",""trial"",""time""
""fullscreenenter"",""5"",""17920""
","
","
","""event"",""trial"",""time""
""fullscreenenter"",""5"",""17920""
","
",NA,images/earth.jpg,NA,NA,NA,NA,NA,NA,NA,NA,NA,NA,NA,NA,NA,fixation,NA,NA,NA,NA,NA,NA,sub135
d3-animate-choice,219,556864,0.0-76.0-0.28,FALSE,FALSE,FALSE,FALSE,"""event"",""trial"",""time""
""fullscreenenter"",""5"",""17920""
","
","
","""event"",""trial"",""time""
""fullscreenenter"",""5"",""17920""
","
",343.800000147894,NA,49,NA,NA,3000,1,NA,NA,images/earth.jpg,images/rocket1,images/rocket2,null,images/rocket2,NA,1,real,null,1,NA,NA,NA,sub135
d3-animate-choice,220,560058,0.0-76.0-1.28,FALSE,FALSE,FALSE,FALSE,"""event"",""trial"",""time""
""fullscreenenter"",""5"",""17920""
","
","
","""event"",""trial"",""time""
""fullscreenenter"",""5"",""17920""
","
",1187.2649998404086,NA,49,NA,NA,3000,1,NA,NA,images/purpleplanet.jpg,images/alien4,images/alien3,images/rocket2,images/alien3,images/t.png,2,real,false,1,rare,1,2020-06-26T19:38:27Z,sub135
two-step-fixation,221,561063,0.0-76.0-2.28,FALSE,FALSE,FALSE,FALSE,"""event"",""trial"",""time""
""fullscreenenter"",""5"",""17920""
","
","
","""event"",""trial"",""time""
""fullscreenenter"",""5"",""17920""
","
",NA,images/earth.jpg,NA,NA,NA,NA,NA,NA,NA,NA,NA,NA,NA,NA,NA,fixation,NA,NA,NA,NA,NA,NA,sub135
d3-animate-choice,222,563450,0.0-76.0-0.29,FALSE,FALSE,FALSE,FALSE,"""event"",""trial"",""time""
""fullscreenenter"",""5"",""17920""
","
","
","""event"",""trial"",""time""
""fullscreenenter"",""5"",""17920""
","
",379.9349998589605,NA,49,NA,NA,3000,1,NA,NA,images/earth.jpg,images/rocket1,images/rocket2,null,images/rocket2,NA,1,real,null,1,NA,NA,NA,sub135
d3-animate-choice,223,565912,0.0-76.0-1.29,FALSE,FALSE,FALSE,FALSE,"""event"",""trial"",""time""
""fullscreenenter"",""5"",""17920""
","
","
","""event"",""trial"",""time""
""fullscreenenter"",""5"",""17920""
","
",454.4649999588728,NA,48,NA,NA,3000,1,NA,NA,images/redplanet1.jpg,images/alien2,images/alien1,images/rocket2,images/alien2,images/t.png,2,real,true,2,common,1,2020-06-26T19:38:33Z,sub135
two-step-fixation,224,566914,0.0-76.0-2.29,FALSE,FALSE,FALSE,FALSE,"""event"",""trial"",""time""
""fullscreenenter"",""5"",""17920""
","
","
","""event"",""trial"",""time""
""fullscreenenter"",""5"",""17920""
","
",NA,images/earth.jpg,NA,NA,NA,NA,NA,NA,NA,NA,NA,NA,NA,NA,NA,fixation,NA,NA,NA,NA,NA,NA,sub135
d3-animate-choice,225,569300,0.0-76.0-0.30,FALSE,FALSE,FALSE,FALSE,"""event"",""trial"",""time""
""fullscreenenter"",""5"",""17920""
","
","
","""event"",""trial"",""time""
""fullscreenenter"",""5"",""17920""
","
",380.31000015325844,NA,49,NA,NA,3000,1,NA,NA,images/earth.jpg,images/rocket1,images/rocket2,null,images/rocket2,NA,1,real,null,1,NA,NA,NA,sub135
d3-animate-choice,226,571747,0.0-76.0-1.30,FALSE,FALSE,FALSE,FALSE,"""event"",""trial"",""time""
""fullscreenenter"",""5"",""17920""
","
","
","""event"",""trial"",""time""
""fullscreenenter"",""5"",""17920""
","
",440.1350000407547,NA,48,NA,NA,3000,1,NA,NA,images/redplanet1.jpg,images/alien2,images/alien1,images/rocket2,images/alien2,images/t.png,2,real,true,2,common,1,2020-06-26T19:38:39Z,sub135
two-step-fixation,227,572749,0.0-76.0-2.30,FALSE,FALSE,FALSE,FALSE,"""event"",""trial"",""time""
""fullscreenenter"",""5"",""17920""
","
","
","""event"",""trial"",""time""
""fullscreenenter"",""5"",""17920""
","
",NA,images/earth.jpg,NA,NA,NA,NA,NA,NA,NA,NA,NA,NA,NA,NA,NA,fixation,NA,NA,NA,NA,NA,NA,sub135
d3-animate-choice,228,575152,0.0-76.0-0.31,FALSE,FALSE,FALSE,FALSE,"""event"",""trial"",""time""
""fullscreenenter"",""5"",""17920""
","
","
","""event"",""trial"",""time""
""fullscreenenter"",""5"",""17920""
","
",396.6100001707673,NA,49,NA,NA,3000,1,NA,NA,images/earth.jpg,images/rocket1,images/rocket2,null,images/rocket2,NA,1,real,null,1,NA,NA,NA,sub135
d3-animate-choice,229,577597,0.0-76.0-1.31,FALSE,FALSE,FALSE,FALSE,"""event"",""trial"",""time""
""fullscreenenter"",""5"",""17920""
","
","
","""event"",""trial"",""time""
""fullscreenenter"",""5"",""17920""
","
",437.00999999418855,NA,48,NA,NA,3000,1,NA,NA,images/purpleplanet.jpg,images/alien4,images/alien3,images/rocket2,images/alien4,images/nothing.png,2,real,false,2,rare,0,2020-06-26T19:38:44Z,sub135
two-step-fixation,230,578600,0.0-76.0-2.31,FALSE,FALSE,FALSE,FALSE,"""event"",""trial"",""time""
""fullscreenenter"",""5"",""17920""
","
","
","""event"",""trial"",""time""
""fullscreenenter"",""5"",""17920""
","
",NA,images/earth.jpg,NA,NA,NA,NA,NA,NA,NA,NA,NA,NA,NA,NA,NA,fixation,NA,NA,NA,NA,NA,NA,sub135
d3-animate-choice,231,581046,0.0-76.0-0.32,FALSE,FALSE,FALSE,FALSE,"""event"",""trial"",""time""
""fullscreenenter"",""5"",""17920""
","
","
","""event"",""trial"",""time""
""fullscreenenter"",""5"",""17920""
","
",438.1000001449138,NA,49,NA,NA,3000,1,NA,NA,images/earth.jpg,images/rocket1,images/rocket2,null,images/rocket2,NA,1,real,null,1,NA,NA,NA,sub135
d3-animate-choice,232,583533,0.0-76.0-1.32,FALSE,FALSE,FALSE,FALSE,"""event"",""trial"",""time""
""fullscreenenter"",""5"",""17920""
","
","
","""event"",""trial"",""time""
""fullscreenenter"",""5"",""17920""
","
",480.4400000721216,NA,48,NA,NA,3000,1,NA,NA,images/redplanet1.jpg,images/alien2,images/alien1,images/rocket2,images/alien2,images/nothing.png,2,real,true,2,common,0,2020-06-26T19:38:50Z,sub135
two-step-fixation,233,584536,0.0-76.0-2.32,FALSE,FALSE,FALSE,FALSE,"""event"",""trial"",""time""
""fullscreenenter"",""5"",""17920""
","
","
","""event"",""trial"",""time""
""fullscreenenter"",""5"",""17920""
","
",NA,images/earth.jpg,NA,NA,NA,NA,NA,NA,NA,NA,NA,NA,NA,NA,NA,fixation,NA,NA,NA,NA,NA,NA,sub135
d3-animate-choice,234,587085,0.0-76.0-0.33,FALSE,FALSE,FALSE,FALSE,"""event"",""trial"",""time""
""fullscreenenter"",""5"",""17920""
","
","
","""event"",""trial"",""time""
""fullscreenenter"",""5"",""17920""
","
",540.0849999859929,NA,48,NA,NA,3000,1,NA,NA,images/earth.jpg,images/rocket1,images/rocket2,null,images/rocket1,NA,1,real,null,2,NA,NA,NA,sub135
d3-animate-choice,235,589551,0.0-76.0-1.33,FALSE,FALSE,FALSE,FALSE,"""event"",""trial"",""time""
""fullscreenenter"",""5"",""17920""
","
","
","""event"",""trial"",""time""
""fullscreenenter"",""5"",""17920""
","
",459.90000013262033,NA,49,NA,NA,3000,1,NA,NA,images/purpleplanet.jpg,images/alien4,images/alien3,images/rocket1,images/alien3,images/nothing.png,2,real,true,1,common,0,2020-06-26T19:38:56Z,sub135
two-step-fixation,236,590554,0.0-76.0-2.33,FALSE,FALSE,FALSE,FALSE,"""event"",""trial"",""time""
""fullscreenenter"",""5"",""17920""
","
","
","""event"",""trial"",""time""
""fullscreenenter"",""5"",""17920""
","
",NA,images/earth.jpg,NA,NA,NA,NA,NA,NA,NA,NA,NA,NA,NA,NA,NA,fixation,NA,NA,NA,NA,NA,NA,sub135
d3-animate-choice,237,593299,0.0-76.0-0.34,FALSE,FALSE,FALSE,FALSE,"""event"",""trial"",""time""
""fullscreenenter"",""5"",""17920""
","
","
","""event"",""trial"",""time""
""fullscreenenter"",""5"",""17920""
","
",738.9950000215322,NA,48,NA,NA,3000,1,NA,NA,images/earth.jpg,images/rocket1,images/rocket2,null,images/rocket1,NA,1,real,null,2,NA,NA,NA,sub135
d3-animate-choice,238,596590,0.0-76.0-1.34,FALSE,FALSE,FALSE,FALSE,"""event"",""trial"",""time""
""fullscreenenter"",""5"",""17920""
","
","
","""event"",""trial"",""time""
""fullscreenenter"",""5"",""17920""
","
",1285.0450000260025,NA,49,NA,NA,3000,1,NA,NA,images/redplanet1.jpg,images/alien2,images/alien1,images/rocket1,images/alien1,images/t.png,2,real,false,1,rare,1,2020-06-26T19:39:03Z,sub135
two-step-fixation,239,597595,0.0-76.0-2.34,FALSE,FALSE,FALSE,FALSE,"""event"",""trial"",""time""
""fullscreenenter"",""5"",""17920""
","
","
","""event"",""trial"",""time""
""fullscreenenter"",""5"",""17920""
","
",NA,images/earth.jpg,NA,NA,NA,NA,NA,NA,NA,NA,NA,NA,NA,NA,NA,fixation,NA,NA,NA,NA,NA,NA,sub135
d3-animate-choice,240,600016,0.0-76.0-0.35,FALSE,FALSE,FALSE,FALSE,"""event"",""trial"",""time""
""fullscreenenter"",""5"",""17920""
","
","
","""event"",""trial"",""time""
""fullscreenenter"",""5"",""17920""
","
",415.2750000357628,NA,49,NA,NA,3000,1,NA,NA,images/earth.jpg,images/rocket1,images/rocket2,null,images/rocket2,NA,1,real,null,1,NA,NA,NA,sub135
d3-animate-choice,241,602425,0.0-76.0-1.35,FALSE,FALSE,FALSE,FALSE,"""event"",""trial"",""time""
""fullscreenenter"",""5"",""17920""
","
","
","""event"",""trial"",""time""
""fullscreenenter"",""5"",""17920""
","
",400.5050000268966,NA,49,NA,NA,3000,1,NA,NA,images/redplanet1.jpg,images/alien2,images/alien1,images/rocket2,images/alien1,images/t.png,2,real,true,1,common,1,2020-06-26T19:39:09Z,sub135
two-step-fixation,242,603428,0.0-76.0-2.35,FALSE,FALSE,FALSE,FALSE,"""event"",""trial"",""time""
""fullscreenenter"",""5"",""17920""
","
","
","""event"",""trial"",""time""
""fullscreenenter"",""5"",""17920""
","
",NA,images/earth.jpg,NA,NA,NA,NA,NA,NA,NA,NA,NA,NA,NA,NA,NA,fixation,NA,NA,NA,NA,NA,NA,sub135
d3-animate-choice,243,605779,0.0-76.0-0.36,FALSE,FALSE,FALSE,FALSE,"""event"",""trial"",""time""
""fullscreenenter"",""5"",""17920""
","
","
","""event"",""trial"",""time""
""fullscreenenter"",""5"",""17920""
","
",343.0049999151379,NA,49,NA,NA,3000,1,NA,NA,images/earth.jpg,images/rocket1,images/rocket2,null,images/rocket2,NA,1,real,null,1,NA,NA,NA,sub135
d3-animate-choice,244,608211,0.0-76.0-1.36,FALSE,FALSE,FALSE,FALSE,"""event"",""trial"",""time""
""fullscreenenter"",""5"",""17920""
","
","
","""event"",""trial"",""time""
""fullscreenenter"",""5"",""17920""
","
",424.485000083223,NA,49,NA,NA,3000,1,NA,NA,images/redplanet1.jpg,images/alien2,images/alien1,images/rocket2,images/alien1,images/t.png,2,real,true,1,common,1,2020-06-26T19:39:15Z,sub135
two-step-fixation,245,609219,0.0-76.0-2.36,FALSE,FALSE,FALSE,FALSE,"""event"",""trial"",""time""
""fullscreenenter"",""5"",""17920""
","
","
","""event"",""trial"",""time""
""fullscreenenter"",""5"",""17920""
","
",NA,images/earth.jpg,NA,NA,NA,NA,NA,NA,NA,NA,NA,NA,NA,NA,NA,fixation,NA,NA,NA,NA,NA,NA,sub135
d3-animate-choice,246,611624,0.0-76.0-0.37,FALSE,FALSE,FALSE,FALSE,"""event"",""trial"",""time""
""fullscreenenter"",""5"",""17920""
","
","
","""event"",""trial"",""time""
""fullscreenenter"",""5"",""17920""
","
",399.26999993622303,NA,49,NA,NA,3000,1,NA,NA,images/earth.jpg,images/rocket1,images/rocket2,null,images/rocket2,NA,1,real,null,1,NA,NA,NA,sub135
d3-animate-choice,247,614034,0.0-76.0-1.37,FALSE,FALSE,FALSE,FALSE,"""event"",""trial"",""time""
""fullscreenenter"",""5"",""17920""
","
","
","""event"",""trial"",""time""
""fullscreenenter"",""5"",""17920""
","
",403.29000004567206,NA,49,NA,NA,3000,1,NA,NA,images/redplanet1.jpg,images/alien2,images/alien1,images/rocket2,images/alien1,images/nothing.png,2,real,true,1,common,0,2020-06-26T19:39:21Z,sub135
two-step-fixation,248,615038,0.0-76.0-2.37,FALSE,FALSE,FALSE,FALSE,"""event"",""trial"",""time""
""fullscreenenter"",""5"",""17920""
","
","
","""event"",""trial"",""time""
""fullscreenenter"",""5"",""17920""
","
",NA,images/earth.jpg,NA,NA,NA,NA,NA,NA,NA,NA,NA,NA,NA,NA,NA,fixation,NA,NA,NA,NA,NA,NA,sub135
d3-animate-choice,249,617811,0.0-76.0-0.38,FALSE,FALSE,FALSE,FALSE,"""event"",""trial"",""time""
""fullscreenenter"",""5"",""17920""
","
","
","""event"",""trial"",""time""
""fullscreenenter"",""5"",""17920""
","
",766.4100001566112,NA,48,NA,NA,3000,1,NA,NA,images/earth.jpg,images/rocket1,images/rocket2,null,images/rocket1,NA,1,real,null,2,NA,NA,NA,sub135
d3-animate-choice,250,621079,0.0-76.0-1.38,FALSE,FALSE,FALSE,FALSE,"""event"",""trial"",""time""
""fullscreenenter"",""5"",""17920""
","
","
","""event"",""trial"",""time""
""fullscreenenter"",""5"",""17920""
","
",1259.8149999976158,NA,48,NA,NA,3000,1,NA,NA,images/redplanet1.jpg,images/alien2,images/alien1,images/rocket1,images/alien2,images/nothing.png,2,real,false,2,rare,0,2020-06-26T19:39:28Z,sub135
two-step-fixation,251,622084,0.0-76.0-2.38,FALSE,FALSE,FALSE,FALSE,"""event"",""trial"",""time""
""fullscreenenter"",""5"",""17920""
","
","
","""event"",""trial"",""time""
""fullscreenenter"",""5"",""17920""
","
",NA,images/earth.jpg,NA,NA,NA,NA,NA,NA,NA,NA,NA,NA,NA,NA,NA,fixation,NA,NA,NA,NA,NA,NA,sub135
d3-animate-choice,252,624675,0.0-76.0-0.39,FALSE,FALSE,FALSE,FALSE,"""event"",""trial"",""time""
""fullscreenenter"",""5"",""17920""
","
","
","""event"",""trial"",""time""
""fullscreenenter"",""5"",""17920""
","
",583.0900000873953,NA,48,NA,NA,3000,1,NA,NA,images/earth.jpg,images/rocket1,images/rocket2,null,images/rocket1,NA,1,real,null,2,NA,NA,NA,sub135
d3-animate-choice,253,627182,0.0-76.0-1.39,FALSE,FALSE,FALSE,FALSE,"""event"",""trial"",""time""
""fullscreenenter"",""5"",""17920""
","
","
","""event"",""trial"",""time""
""fullscreenenter"",""5"",""17920""
","
",497.2449999768287,NA,49,NA,NA,3000,1,NA,NA,images/purpleplanet.jpg,images/alien4,images/alien3,images/rocket1,images/alien3,images/nothing.png,2,real,true,1,common,0,2020-06-26T19:39:34Z,sub135
two-step-fixation,254,628185,0.0-76.0-2.39,FALSE,FALSE,FALSE,FALSE,"""event"",""trial"",""time""
""fullscreenenter"",""5"",""17920""
","
","
","""event"",""trial"",""time""
""fullscreenenter"",""5"",""17920""
","
",NA,images/earth.jpg,NA,NA,NA,NA,NA,NA,NA,NA,NA,NA,NA,NA,NA,fixation,NA,NA,NA,NA,NA,NA,sub135
d3-animate-choice,255,630664,0.0-76.0-0.40,FALSE,FALSE,FALSE,FALSE,"""event"",""trial"",""time""
""fullscreenenter"",""5"",""17920""
","
","
","""event"",""trial"",""time""
""fullscreenenter"",""5"",""17920""
","
",472.5600001402199,NA,48,NA,NA,3000,1,NA,NA,images/earth.jpg,images/rocket1,images/rocket2,null,images/rocket1,NA,1,real,null,2,NA,NA,NA,sub135
d3-animate-choice,256,633725,0.0-76.0-1.40,FALSE,FALSE,FALSE,FALSE,"""event"",""trial"",""time""
""fullscreenenter"",""5"",""17920""
","
","
","""event"",""trial"",""time""
""fullscreenenter"",""5"",""17920""
","
",1054.719999898225,NA,49,NA,NA,3000,1,NA,NA,images/redplanet1.jpg,images/alien2,images/alien1,images/rocket1,images/alien1,images/nothing.png,2,real,false,1,rare,0,2020-06-26T19:39:41Z,sub135
two-step-fixation,257,634728,0.0-76.0-2.40,FALSE,FALSE,FALSE,FALSE,"""event"",""trial"",""time""
""fullscreenenter"",""5"",""17920""
","
","
","""event"",""trial"",""time""
""fullscreenenter"",""5"",""17920""
","
",NA,images/earth.jpg,NA,NA,NA,NA,NA,NA,NA,NA,NA,NA,NA,NA,NA,fixation,NA,NA,NA,NA,NA,NA,sub135
d3-animate-choice,258,637091,0.0-76.0-0.41,FALSE,FALSE,FALSE,FALSE,"""event"",""trial"",""time""
""fullscreenenter"",""5"",""17920""
","
","
","""event"",""trial"",""time""
""fullscreenenter"",""5"",""17920""
","
",356.82499990798533,NA,48,NA,NA,3000,1,NA,NA,images/earth.jpg,images/rocket1,images/rocket2,null,images/rocket1,NA,1,real,null,2,NA,NA,NA,sub135
d3-animate-choice,259,639795,0.0-76.0-1.41,FALSE,FALSE,FALSE,FALSE,"""event"",""trial"",""time""
""fullscreenenter"",""5"",""17920""
","
","
","""event"",""trial"",""time""
""fullscreenenter"",""5"",""17920""
","
",699.0350000560284,NA,48,NA,NA,3000,1,NA,NA,images/purpleplanet.jpg,images/alien4,images/alien3,images/rocket1,images/alien4,images/t.png,2,real,true,2,common,1,2020-06-26T19:39:47Z,sub135
two-step-fixation,260,640798,0.0-76.0-2.41,FALSE,FALSE,FALSE,FALSE,"""event"",""trial"",""time""
""fullscreenenter"",""5"",""17920""
","
","
","""event"",""trial"",""time""
""fullscreenenter"",""5"",""17920""
","
",NA,images/earth.jpg,NA,NA,NA,NA,NA,NA,NA,NA,NA,NA,NA,NA,NA,fixation,NA,NA,NA,NA,NA,NA,sub135
d3-animate-choice,261,643476,0.0-76.0-0.42,FALSE,FALSE,FALSE,FALSE,"""event"",""trial"",""time""
""fullscreenenter"",""5"",""17920""
","
","
","""event"",""trial"",""time""
""fullscreenenter"",""5"",""17920""
","
",670.5750001128763,NA,48,NA,NA,3000,1,NA,NA,images/earth.jpg,images/rocket1,images/rocket2,null,images/rocket1,NA,1,real,null,2,NA,NA,NA,sub135
d3-animate-choice,262,645943,0.0-76.0-1.42,FALSE,FALSE,FALSE,FALSE,"""event"",""trial"",""time""
""fullscreenenter"",""5"",""17920""
","
","
","""event"",""trial"",""time""
""fullscreenenter"",""5"",""17920""
","
",460.325000109151,NA,48,NA,NA,3000,1,NA,NA,images/purpleplanet.jpg,images/alien4,images/alien3,images/rocket1,images/alien4,images/t.png,2,real,true,2,common,1,2020-06-26T19:39:53Z,sub135
two-step-fixation,263,646949,0.0-76.0-2.42,FALSE,FALSE,FALSE,FALSE,"""event"",""trial"",""time""
""fullscreenenter"",""5"",""17920""
","
","
","""event"",""trial"",""time""
""fullscreenenter"",""5"",""17920""
","
",NA,images/earth.jpg,NA,NA,NA,NA,NA,NA,NA,NA,NA,NA,NA,NA,NA,fixation,NA,NA,NA,NA,NA,NA,sub135
d3-animate-choice,264,649524,0.0-76.0-0.43,FALSE,FALSE,FALSE,FALSE,"""event"",""trial"",""time""
""fullscreenenter"",""5"",""17920""
","
","
","""event"",""trial"",""time""
""fullscreenenter"",""5"",""17920""
","
",570.2500001061708,NA,48,NA,NA,3000,1,NA,NA,images/earth.jpg,images/rocket1,images/rocket2,null,images/rocket1,NA,1,real,null,2,NA,NA,NA,sub135
d3-animate-choice,265,652114,0.0-76.0-1.43,FALSE,FALSE,FALSE,FALSE,"""event"",""trial"",""time""
""fullscreenenter"",""5"",""17920""
","
","
","""event"",""trial"",""time""
""fullscreenenter"",""5"",""17920""
","
",583.430000115186,NA,48,NA,NA,3000,1,NA,NA,images/purpleplanet.jpg,images/alien4,images/alien3,images/rocket1,images/alien4,images/t.png,2,real,true,2,common,1,2020-06-26T19:39:59Z,sub135
two-step-fixation,266,653119,0.0-76.0-2.43,FALSE,FALSE,FALSE,FALSE,"""event"",""trial"",""time""
""fullscreenenter"",""5"",""17920""
","
","
","""event"",""trial"",""time""
""fullscreenenter"",""5"",""17920""
","
",NA,images/earth.jpg,NA,NA,NA,NA,NA,NA,NA,NA,NA,NA,NA,NA,NA,fixation,NA,NA,NA,NA,NA,NA,sub135
d3-animate-choice,267,655522,0.0-76.0-0.44,FALSE,FALSE,FALSE,FALSE,"""event"",""trial"",""time""
""fullscreenenter"",""5"",""17920""
","
","
","""event"",""trial"",""time""
""fullscreenenter"",""5"",""17920""
","
",397.1049999818206,NA,48,NA,NA,3000,1,NA,NA,images/earth.jpg,images/rocket1,images/rocket2,null,images/rocket1,NA,1,real,null,2,NA,NA,NA,sub135
d3-animate-choice,268,657998,0.0-76.0-1.44,FALSE,FALSE,FALSE,FALSE,"""event"",""trial"",""time""
""fullscreenenter"",""5"",""17920""
","
","
","""event"",""trial"",""time""
""fullscreenenter"",""5"",""17920""
","
",466.9300001114607,NA,48,NA,NA,3000,1,NA,NA,images/redplanet1.jpg,images/alien2,images/alien1,images/rocket1,images/alien2,images/nothing.png,2,real,false,2,rare,0,2020-06-26T19:40:05Z,sub135
two-step-fixation,269,659002,0.0-76.0-2.44,FALSE,FALSE,FALSE,FALSE,"""event"",""trial"",""time""
""fullscreenenter"",""5"",""17920""
","
","
","""event"",""trial"",""time""
""fullscreenenter"",""5"",""17920""
","
",NA,images/earth.jpg,NA,NA,NA,NA,NA,NA,NA,NA,NA,NA,NA,NA,NA,fixation,NA,NA,NA,NA,NA,NA,sub135
d3-animate-choice,270,661425,0.0-76.0-0.45,FALSE,FALSE,FALSE,FALSE,"""event"",""trial"",""time""
""fullscreenenter"",""5"",""17920""
","
","
","""event"",""trial"",""time""
""fullscreenenter"",""5"",""17920""
","
",416.62999987602234,NA,48,NA,NA,3000,1,NA,NA,images/earth.jpg,images/rocket1,images/rocket2,null,images/rocket1,NA,1,real,null,2,NA,NA,NA,sub135
d3-animate-choice,271,663946,0.0-76.0-1.45,FALSE,FALSE,FALSE,FALSE,"""event"",""trial"",""time""
""fullscreenenter"",""5"",""17920""
","
","
","""event"",""trial"",""time""
""fullscreenenter"",""5"",""17920""
","
",516.6599999647588,NA,48,NA,NA,3000,1,NA,NA,images/purpleplanet.jpg,images/alien4,images/alien3,images/rocket1,images/alien4,images/nothing.png,2,real,true,2,common,0,2020-06-26T19:40:11Z,sub135
two-step-fixation,272,664950,0.0-76.0-2.45,FALSE,FALSE,FALSE,FALSE,"""event"",""trial"",""time""
""fullscreenenter"",""5"",""17920""
","
","
","""event"",""trial"",""time""
""fullscreenenter"",""5"",""17920""
","
",NA,images/earth.jpg,NA,NA,NA,NA,NA,NA,NA,NA,NA,NA,NA,NA,NA,fixation,NA,NA,NA,NA,NA,NA,sub135
d3-animate-choice,273,667337,0.0-76.0-0.46,FALSE,FALSE,FALSE,FALSE,"""event"",""trial"",""time""
""fullscreenenter"",""5"",""17920""
","
","
","""event"",""trial"",""time""
""fullscreenenter"",""5"",""17920""
","
",381.4550000242889,NA,49,NA,NA,3000,1,NA,NA,images/earth.jpg,images/rocket1,images/rocket2,null,images/rocket2,NA,1,real,null,1,NA,NA,NA,sub135
d3-animate-choice,274,670000,0.0-76.0-1.46,FALSE,FALSE,FALSE,FALSE,"""event"",""trial"",""time""
""fullscreenenter"",""5"",""17920""
","
","
","""event"",""trial"",""time""
""fullscreenenter"",""5"",""17920""
","
",656.0049999970943,NA,49,NA,NA,3000,1,NA,NA,images/redplanet1.jpg,images/alien2,images/alien1,images/rocket2,images/alien1,images/t.png,2,real,true,1,common,1,2020-06-26T19:40:17Z,sub135
two-step-fixation,275,671005,0.0-76.0-2.46,FALSE,FALSE,FALSE,FALSE,"""event"",""trial"",""time""
""fullscreenenter"",""5"",""17920""
","
","
","""event"",""trial"",""time""
""fullscreenenter"",""5"",""17920""
","
",NA,images/earth.jpg,NA,NA,NA,NA,NA,NA,NA,NA,NA,NA,NA,NA,NA,fixation,NA,NA,NA,NA,NA,NA,sub135
d3-animate-choice,276,673377,0.0-76.0-0.47,FALSE,FALSE,FALSE,FALSE,"""event"",""trial"",""time""
""fullscreenenter"",""5"",""17920""
","
","
","""event"",""trial"",""time""
""fullscreenenter"",""5"",""17920""
","
",366.48500012233853,NA,49,NA,NA,3000,1,NA,NA,images/earth.jpg,images/rocket1,images/rocket2,null,images/rocket2,NA,1,real,null,1,NA,NA,NA,sub135
d3-animate-choice,277,675824,0.0-76.0-1.47,FALSE,FALSE,FALSE,FALSE,"""event"",""trial"",""time""
""fullscreenenter"",""5"",""17920""
","
","
","""event"",""trial"",""time""
""fullscreenenter"",""5"",""17920""
","
",443.5550000052899,NA,49,NA,NA,3000,1,NA,NA,images/purpleplanet.jpg,images/alien4,images/alien3,images/rocket2,images/alien3,images/t.png,2,real,false,1,rare,1,2020-06-26T19:40:23Z,sub135
two-step-fixation,278,676827,0.0-76.0-2.47,FALSE,FALSE,FALSE,FALSE,"""event"",""trial"",""time""
""fullscreenenter"",""5"",""17920""
","
","
","""event"",""trial"",""time""
""fullscreenenter"",""5"",""17920""
","
",NA,images/earth.jpg,NA,NA,NA,NA,NA,NA,NA,NA,NA,NA,NA,NA,NA,fixation,NA,NA,NA,NA,NA,NA,sub135
d3-animate-choice,279,679453,0.0-76.0-0.48,FALSE,FALSE,FALSE,FALSE,"""event"",""trial"",""time""
""fullscreenenter"",""5"",""17920""
","
","
","""event"",""trial"",""time""
""fullscreenenter"",""5"",""17920""
","
",620.4399999696761,NA,49,NA,NA,3000,1,NA,NA,images/earth.jpg,images/rocket1,images/rocket2,null,images/rocket2,NA,1,real,null,1,NA,NA,NA,sub135
d3-animate-choice,280,682108,0.0-76.0-1.48,FALSE,FALSE,FALSE,FALSE,"""event"",""trial"",""time""
""fullscreenenter"",""5"",""17920""
","
","
","""event"",""trial"",""time""
""fullscreenenter"",""5"",""17920""
","
",651.1999999638647,NA,49,NA,NA,3000,1,NA,NA,images/purpleplanet.jpg,images/alien4,images/alien3,images/rocket2,images/alien3,images/nothing.png,2,real,false,1,rare,0,2020-06-26T19:40:29Z,sub135
two-step-fixation,281,683110,0.0-76.0-2.48,FALSE,FALSE,FALSE,FALSE,"""event"",""trial"",""time""
""fullscreenenter"",""5"",""17920""
","
","
","""event"",""trial"",""time""
""fullscreenenter"",""5"",""17920""
","
