trial_type,trial_index,time_elapsed,internal_node_id,rocket_sides,red_planet_first_rocket,red_display_order,purple_display_order,interactions,blur_events,focus_events,fullscreenenter_events,fullscreenexit_events,rt,stimulus,key_press,button_pressed,success,duration,valid_pressed,rts,keys,planet_text,right_text,left_text,center_text,chosen_text,reward_text,trial_stage,practice_trial,transition_type,reward,timestamp,choice,transition,subject_id
pavlovia,0,3,0.0-0.0,TRUE,TRUE,FALSE,TRUE,"
","
","
","
","
",NA,NA,NA,NA,NA,NA,NA,NA,NA,NA,NA,NA,NA,NA,NA,NA,NA,NA,NA,NA,NA,NA,sub15
html-keyboard-response,1,6000,0.0-1.0,TRUE,TRUE,FALSE,TRUE,"
","
","
","
","
",5995.214999999973,Welcome! Press the space bar to begin.,32,NA,NA,NA,NA,NA,NA,NA,NA,NA,NA,NA,NA,NA,NA,NA,NA,NA,NA,NA,sub15
audio-keyboard-response,2,15665,0.0-2.0,TRUE,TRUE,FALSE,TRUE,"
","
","
","
","
",9538,audio/beep_loop.wav,32,NA,NA,NA,NA,NA,NA,NA,NA,NA,NA,NA,NA,NA,NA,NA,NA,NA,NA,NA,sub15
audio-button-response,3,19464,0.0-3.0,TRUE,TRUE,FALSE,TRUE,"
","
","
","
","
",NaN,audio/fish.mp3,NA,1,NA,NA,NA,NA,NA,NA,NA,NA,NA,NA,NA,NA,NA,NA,NA,NA,NA,NA,sub15
audio-button-response,4,22879,0.0-4.0,TRUE,TRUE,FALSE,TRUE,"""event"",""trial"",""time""
""fullscreenenter"",""5"",""28244""
","
","
","""event"",""trial"",""time""
""fullscreenenter"",""5"",""28244""
","
",NaN,audio/tiger.mp3,NA,4,NA,NA,NA,NA,NA,NA,NA,NA,NA,NA,NA,NA,NA,NA,NA,NA,NA,NA,sub15
fullscreen,5,29216,0.0-5.0,TRUE,TRUE,FALSE,TRUE,"""event"",""trial"",""time""
""fullscreenenter"",""5"",""28244""
","
","
","""event"",""trial"",""time""
""fullscreenenter"",""5"",""28244""
","
",NA,NA,NA,NA,TRUE,NA,NA,NA,NA,NA,NA,NA,NA,NA,NA,NA,NA,NA,NA,NA,NA,NA,sub15
d3-instructions,6,42674,0.0-6.0,TRUE,TRUE,FALSE,TRUE,"""event"",""trial"",""time""
""fullscreenenter"",""5"",""28244""
","
","
","""event"",""trial"",""time""
""fullscreenenter"",""5"",""28244""
","
",NA,NA,NA,NA,NA,NA,NA,NA,NA,NA,NA,NA,NA,NA,NA,NA,NA,NA,NA,NA,NA,NA,sub15
d3-instructions,7,51748,0.0-7.0,TRUE,TRUE,FALSE,TRUE,"""event"",""trial"",""time""
""fullscreenenter"",""5"",""28244""
","
","
","""event"",""trial"",""time""
""fullscreenenter"",""5"",""28244""
","
",NA,NA,NA,NA,NA,NA,NA,NA,NA,NA,NA,NA,NA,NA,NA,NA,NA,NA,NA,NA,NA,NA,sub15
d3-instructions,8,58673,0.0-8.0,TRUE,TRUE,FALSE,TRUE,"""event"",""trial"",""time""
""fullscreenenter"",""5"",""28244""
","
","
","""event"",""trial"",""time""
""fullscreenenter"",""5"",""28244""
","
",NA,NA,NA,NA,NA,NA,NA,NA,NA,NA,NA,NA,NA,NA,NA,NA,NA,NA,NA,NA,NA,NA,sub15
d3-instructions,9,69988,0.0-9.0,TRUE,TRUE,FALSE,TRUE,"""event"",""trial"",""time""
""fullscreenenter"",""5"",""28244""
","
","
","""event"",""trial"",""time""
""fullscreenenter"",""5"",""28244""
","
",NA,NA,NA,NA,NA,NA,NA,NA,NA,NA,NA,NA,NA,NA,NA,NA,NA,NA,NA,NA,NA,NA,sub15
d3-instructions,10,91611,0.0-10.0,TRUE,TRUE,FALSE,TRUE,"""event"",""trial"",""time""
""fullscreenenter"",""5"",""28244""
","
","
","""event"",""trial"",""time""
""fullscreenenter"",""5"",""28244""
","
",NA,NA,NA,NA,NA,NA,NA,NA,NA,NA,NA,NA,NA,NA,NA,NA,NA,NA,NA,NA,NA,NA,sub15
d3-animate-choice,11,95003,0.0-11.0,TRUE,TRUE,FALSE,TRUE,"""event"",""trial"",""time""
""fullscreenenter"",""5"",""28244""
","
","
","""event"",""trial"",""time""
""fullscreenenter"",""5"",""28244""
","
",1381.8600000000151,NA,49,NA,NA,3000,1,3109.8300000000454,48,images/tutgreenplanet.jpg,images/tutalien1,images/tutalien2,null,images/tutalien2,NA,NA,practice,null,NA,NA,NA,NA,sub15
d3-animate-choice,12,98870,0.0-12.0,TRUE,TRUE,FALSE,TRUE,"""event"",""trial"",""time""
""fullscreenenter"",""5"",""28244""
","
","
","""event"",""trial"",""time""
""fullscreenenter"",""5"",""28244""
","
",1864.8200000000215,NA,48,NA,NA,3000,1,NA,NA,images/tutgreenplanet.jpg,images/tutalien1,images/tutalien2,null,images/tutalien1,NA,NA,practice,null,NA,NA,NA,NA,sub15
d3-animate-choice,13,102533,0.0-13.0,TRUE,TRUE,FALSE,TRUE,"""event"",""trial"",""time""
""fullscreenenter"",""5"",""28244""
","
","
","""event"",""trial"",""time""
""fullscreenenter"",""5"",""28244""
","
",1660.5050000000047,NA,49,NA,NA,3000,1,NA,NA,images/tutgreenplanet.jpg,images/tutalien1,images/tutalien2,null,images/tutalien2,NA,NA,practice,null,NA,NA,NA,NA,sub15
d3-animate-choice,14,105200,0.0-14.0,TRUE,TRUE,FALSE,TRUE,"""event"",""trial"",""time""
""fullscreenenter"",""5"",""28244""
","
","
","""event"",""trial"",""time""
""fullscreenenter"",""5"",""28244""
","
",661.6299999999464,NA,48,NA,NA,3000,1,NA,NA,images/tutgreenplanet.jpg,images/tutalien1,images/tutalien2,null,images/tutalien1,NA,NA,practice,null,NA,NA,NA,NA,sub15
d3-instructions,15,113136,0.0-15.0,TRUE,TRUE,FALSE,TRUE,"""event"",""trial"",""time""
""fullscreenenter"",""5"",""28244""
","
","
","""event"",""trial"",""time""
""fullscreenenter"",""5"",""28244""
","
",NA,NA,NA,NA,NA,NA,NA,NA,NA,NA,NA,NA,NA,NA,NA,NA,NA,NA,NA,NA,NA,NA,sub15
d3-instructions,16,120443,0.0-16.0,TRUE,TRUE,FALSE,TRUE,"""event"",""trial"",""time""
""fullscreenenter"",""5"",""28244""
","
","
","""event"",""trial"",""time""
""fullscreenenter"",""5"",""28244""
","
",NA,NA,NA,NA,NA,NA,NA,NA,NA,NA,NA,NA,NA,NA,NA,NA,NA,NA,NA,NA,NA,NA,sub15
d3-instructions,17,129281,0.0-17.0,TRUE,TRUE,FALSE,TRUE,"""event"",""trial"",""time""
""fullscreenenter"",""5"",""28244""
","
","
","""event"",""trial"",""time""
""fullscreenenter"",""5"",""28244""
","
",NA,NA,NA,NA,NA,NA,NA,NA,NA,NA,NA,NA,NA,NA,NA,NA,NA,NA,NA,NA,NA,NA,sub15
d3-instructions,18,142812,0.0-18.0,TRUE,TRUE,FALSE,TRUE,"""event"",""trial"",""time""
""fullscreenenter"",""5"",""28244""
","
","
","""event"",""trial"",""time""
""fullscreenenter"",""5"",""28244""
","
",NA,NA,NA,NA,NA,NA,NA,NA,NA,NA,NA,NA,NA,NA,NA,NA,NA,NA,NA,NA,NA,NA,sub15
d3-instructions,19,158394,0.0-19.0,TRUE,TRUE,FALSE,TRUE,"""event"",""trial"",""time""
""fullscreenenter"",""5"",""28244""
","
","
","""event"",""trial"",""time""
""fullscreenenter"",""5"",""28244""
","
",NA,NA,NA,NA,NA,NA,NA,NA,NA,NA,NA,NA,NA,NA,NA,NA,NA,NA,NA,NA,NA,NA,sub15
d3-animate-choice,20,161080,0.0-20.0,TRUE,TRUE,FALSE,TRUE,"""event"",""trial"",""time""
""fullscreenenter"",""5"",""28244""
","
","
","""event"",""trial"",""time""
""fullscreenenter"",""5"",""28244""
","
",679.890000000014,NA,49,NA,NA,3000,1,1350.195000000007,49,images/tutyellowplanet.jpg,null,images/tutalien3,null,images/tutalien3,images/t.png,NA,practice,null,NA,NA,NA,NA,sub15
d3-animate-choice,21,163804,0.0-21.0,TRUE,TRUE,FALSE,TRUE,"""event"",""trial"",""time""
""fullscreenenter"",""5"",""28244""
","
","
","""event"",""trial"",""time""
""fullscreenenter"",""5"",""28244""
","
",721.8349999999627,NA,49,NA,NA,3000,1,NA,NA,images/tutyellowplanet.jpg,null,images/tutalien3,null,images/tutalien3,images/t.png,NA,practice,null,NA,NA,NA,NA,sub15
d3-animate-choice,22,166498,0.0-22.0,TRUE,TRUE,FALSE,TRUE,"""event"",""trial"",""time""
""fullscreenenter"",""5"",""28244""
","
","
","""event"",""trial"",""time""
""fullscreenenter"",""5"",""28244""
","
",691.5400000000373,NA,49,NA,NA,3000,1,NA,NA,images/tutyellowplanet.jpg,null,images/tutalien3,null,images/tutalien3,images/nothing.png,NA,practice,null,NA,NA,NA,NA,sub15
d3-animate-choice,23,169145,0.0-23.0,TRUE,TRUE,FALSE,TRUE,"""event"",""trial"",""time""
""fullscreenenter"",""5"",""28244""
","
","
","""event"",""trial"",""time""
""fullscreenenter"",""5"",""28244""
","
",640.7350000000733,NA,49,NA,NA,3000,1,2598.2600000000093,49,images/tutyellowplanet.jpg,null,images/tutalien3,null,images/tutalien3,images/nothing.png,NA,practice,null,NA,NA,NA,NA,sub15
d3-animate-choice,24,173156,0.0-24.0,TRUE,TRUE,FALSE,TRUE,"""event"",""trial"",""time""
""fullscreenenter"",""5"",""28244""
","
","
","""event"",""trial"",""time""
""fullscreenenter"",""5"",""28244""
","
",2009.585000000021,NA,49,NA,NA,3000,1,NA,NA,images/tutyellowplanet.jpg,null,images/tutalien3,null,images/tutalien3,images/t.png,NA,practice,null,NA,NA,NA,NA,sub15
d3-animate-choice,25,176843,0.0-25.0,TRUE,TRUE,FALSE,TRUE,"""event"",""trial"",""time""
""fullscreenenter"",""5"",""28244""
","
","
","""event"",""trial"",""time""
""fullscreenenter"",""5"",""28244""
","
",1684.0849999999919,NA,49,NA,NA,3000,1,NA,NA,images/tutyellowplanet.jpg,null,images/tutalien3,null,images/tutalien3,images/t.png,NA,practice,null,NA,NA,NA,NA,sub15
d3-animate-choice,26,179391,0.0-26.0,TRUE,TRUE,FALSE,TRUE,"""event"",""trial"",""time""
""fullscreenenter"",""5"",""28244""
","
","
","""event"",""trial"",""time""
""fullscreenenter"",""5"",""28244""
","
",544.5099999999511,NA,49,NA,NA,3000,1,NA,NA,images/tutyellowplanet.jpg,null,images/tutalien3,null,images/tutalien3,images/t.png,NA,practice,null,NA,NA,NA,NA,sub15
d3-animate-choice,27,181835,0.0-27.0,TRUE,TRUE,FALSE,TRUE,"""event"",""trial"",""time""
""fullscreenenter"",""5"",""28244""
","
","
","""event"",""trial"",""time""
""fullscreenenter"",""5"",""28244""
","
",442.06500000006054,NA,49,NA,NA,3000,1,2284.0899999999965,49,images/tutyellowplanet.jpg,null,images/tutalien3,null,images/tutalien3,images/t.png,NA,practice,null,NA,NA,NA,NA,sub15
d3-animate-choice,28,185539,0.0-28.0,TRUE,TRUE,FALSE,TRUE,"""event"",""trial"",""time""
""fullscreenenter"",""5"",""28244""
","
","
","""event"",""trial"",""time""
""fullscreenenter"",""5"",""28244""
","
",1701.7700000000186,NA,49,NA,NA,3000,1,3616.390000000014,49,images/tutyellowplanet.jpg,null,images/tutalien3,null,images/tutalien3,images/t.png,NA,practice,null,NA,NA,NA,NA,sub15
d3-animate-choice,29,189176,0.0-29.0,TRUE,TRUE,FALSE,TRUE,"""event"",""trial"",""time""
""fullscreenenter"",""5"",""28244""
","
","
","""event"",""trial"",""time""
""fullscreenenter"",""5"",""28244""
","
",1630.7399999999325,NA,49,NA,NA,3000,1,3433.5699999999197,49,images/tutyellowplanet.jpg,null,images/tutalien3,null,images/tutalien3,images/t.png,NA,practice,null,NA,NA,NA,NA,sub15
d3-instructions,30,196361,0.0-30.0,TRUE,TRUE,FALSE,TRUE,"""event"",""trial"",""time""
""fullscreenenter"",""5"",""28244""
","
","
","""event"",""trial"",""time""
""fullscreenenter"",""5"",""28244""
","
",NA,NA,NA,NA,NA,NA,NA,NA,NA,NA,NA,NA,NA,NA,NA,NA,NA,NA,NA,NA,NA,NA,sub15
d3-instructions,31,207284,0.0-31.0,TRUE,TRUE,FALSE,TRUE,"""event"",""trial"",""time""
""fullscreenenter"",""5"",""28244""
","
","
","""event"",""trial"",""time""
""fullscreenenter"",""5"",""28244""
","
",NA,NA,NA,NA,NA,NA,NA,NA,NA,NA,NA,NA,NA,NA,NA,NA,NA,NA,NA,NA,NA,NA,sub15
d3-instructions,32,215987,0.0-32.0,TRUE,TRUE,FALSE,TRUE,"""event"",""trial"",""time""
""fullscreenenter"",""5"",""28244""
","
","
","""event"",""trial"",""time""
""fullscreenenter"",""5"",""28244""
","
",NA,NA,NA,NA,NA,NA,NA,NA,NA,NA,NA,NA,NA,NA,NA,NA,NA,NA,NA,NA,NA,NA,sub15
d3-instructions,33,227127,0.0-33.0,TRUE,TRUE,FALSE,TRUE,"""event"",""trial"",""time""
""fullscreenenter"",""5"",""28244""
","
","
","""event"",""trial"",""time""
""fullscreenenter"",""5"",""28244""
","
",NA,NA,NA,NA,NA,NA,NA,NA,NA,NA,NA,NA,NA,NA,NA,NA,NA,NA,NA,NA,NA,NA,sub15
d3-animate-choice,34,232090,0.0-34.0,TRUE,TRUE,FALSE,TRUE,"""event"",""trial"",""time""
""fullscreenenter"",""5"",""28244""
","
","
","""event"",""trial"",""time""
""fullscreenenter"",""5"",""28244""
","
",2956.49000000002,NA,49,NA,NA,3000,1,NA,NA,images/tutgreenplanet.jpg,images/tutalien1,images/tutalien2,null,images/tutalien2,images/t.png,NA,practice,null,NA,NA,NA,NA,sub15
d3-animate-choice,35,236032,0.0-35.0,TRUE,TRUE,FALSE,TRUE,"""event"",""trial"",""time""
""fullscreenenter"",""5"",""28244""
","
","
","""event"",""trial"",""time""
""fullscreenenter"",""5"",""28244""
","
",1934.8700000000536,NA,48,NA,NA,3000,1,NA,NA,images/tutgreenplanet.jpg,images/tutalien1,images/tutalien2,null,images/tutalien1,images/nothing.png,NA,practice,null,NA,NA,NA,NA,sub15
d3-animate-choice,36,239062,0.0-36.0,TRUE,TRUE,FALSE,TRUE,"""event"",""trial"",""time""
""fullscreenenter"",""5"",""28244""
","
","
","""event"",""trial"",""time""
""fullscreenenter"",""5"",""28244""
","
",1025.7699999999895,NA,49,NA,NA,3000,1,NA,NA,images/tutgreenplanet.jpg,images/tutalien1,images/tutalien2,null,images/tutalien2,images/nothing.png,NA,practice,null,NA,NA,NA,NA,sub15
d3-animate-choice,37,242023,0.0-37.0,TRUE,TRUE,FALSE,TRUE,"""event"",""trial"",""time""
""fullscreenenter"",""5"",""28244""
","
","
","""event"",""trial"",""time""
""fullscreenenter"",""5"",""28244""
","
",955.2949999999837,NA,48,NA,NA,3000,1,NA,NA,images/tutgreenplanet.jpg,images/tutalien1,images/tutalien2,null,images/tutalien1,images/nothing.png,NA,practice,null,NA,NA,NA,NA,sub15
d3-animate-choice,38,244844,0.0-38.0,TRUE,TRUE,FALSE,TRUE,"""event"",""trial"",""time""
""fullscreenenter"",""5"",""28244""
","
","
","""event"",""trial"",""time""
""fullscreenenter"",""5"",""28244""
","
",818.5950000000594,NA,49,NA,NA,3000,1,NA,NA,images/tutgreenplanet.jpg,images/tutalien1,images/tutalien2,null,images/tutalien2,images/t.png,NA,practice,null,NA,NA,NA,NA,sub15
d3-animate-choice,39,248014,0.0-39.0,TRUE,TRUE,FALSE,TRUE,"""event"",""trial"",""time""
""fullscreenenter"",""5"",""28244""
","
","
","""event"",""trial"",""time""
""fullscreenenter"",""5"",""28244""
","
",1165.490000000078,NA,48,NA,NA,3000,1,NA,NA,images/tutgreenplanet.jpg,images/tutalien1,images/tutalien2,null,images/tutalien1,images/nothing.png,NA,practice,null,NA,NA,NA,NA,sub15
d3-animate-choice,40,250643,0.0-40.0,TRUE,TRUE,FALSE,TRUE,"""event"",""trial"",""time""
""fullscreenenter"",""5"",""28244""
","
","
","""event"",""trial"",""time""
""fullscreenenter"",""5"",""28244""
","
",627.8049999999639,NA,49,NA,NA,3000,1,NA,NA,images/tutgreenplanet.jpg,images/tutalien1,images/tutalien2,null,images/tutalien2,images/nothing.png,NA,practice,null,NA,NA,NA,NA,sub15
d3-animate-choice,41,253126,0.0-41.0,TRUE,TRUE,FALSE,TRUE,"""event"",""trial"",""time""
""fullscreenenter"",""5"",""28244""
","
","
","""event"",""trial"",""time""
""fullscreenenter"",""5"",""28244""
","
",480.07499999992433,NA,49,NA,NA,3000,1,NA,NA,images/tutgreenplanet.jpg,images/tutalien1,images/tutalien2,null,images/tutalien2,images/t.png,NA,practice,null,NA,NA,NA,NA,sub15
d3-animate-choice,42,255990,0.0-42.0,TRUE,TRUE,FALSE,TRUE,"""event"",""trial"",""time""
""fullscreenenter"",""5"",""28244""
","
","
","""event"",""trial"",""time""
""fullscreenenter"",""5"",""28244""
","
",859.2349999999278,NA,49,NA,NA,3000,1,NA,NA,images/tutgreenplanet.jpg,images/tutalien1,images/tutalien2,null,images/tutalien2,images/t.png,NA,practice,null,NA,NA,NA,NA,sub15
d3-animate-choice,43,259067,0.0-43.0,TRUE,TRUE,FALSE,TRUE,"""event"",""trial"",""time""
""fullscreenenter"",""5"",""28244""
","
","
","""event"",""trial"",""time""
""fullscreenenter"",""5"",""28244""
","
",1070.9150000000373,NA,49,NA,NA,3000,1,NA,NA,images/tutgreenplanet.jpg,images/tutalien1,images/tutalien2,null,images/tutalien2,images/t.png,NA,practice,null,NA,NA,NA,NA,sub15
d3-instructions,44,272582,0.0-44.0,TRUE,TRUE,FALSE,TRUE,"""event"",""trial"",""time""
""fullscreenenter"",""5"",""28244""
","
","
","""event"",""trial"",""time""
""fullscreenenter"",""5"",""28244""
","
",NA,NA,NA,NA,NA,NA,NA,NA,NA,NA,NA,NA,NA,NA,NA,NA,NA,NA,NA,NA,NA,NA,sub15
d3-instructions,45,278946,0.0-45.0,TRUE,TRUE,FALSE,TRUE,"""event"",""trial"",""time""
""fullscreenenter"",""5"",""28244""
","
","
","""event"",""trial"",""time""
""fullscreenenter"",""5"",""28244""
","
",NA,NA,NA,NA,NA,NA,NA,NA,NA,NA,NA,NA,NA,NA,NA,NA,NA,NA,NA,NA,NA,NA,sub15
d3-instructions,46,285046,0.0-46.0,TRUE,TRUE,FALSE,TRUE,"""event"",""trial"",""time""
""fullscreenenter"",""5"",""28244""
","
","
","""event"",""trial"",""time""
""fullscreenenter"",""5"",""28244""
","
",NA,NA,NA,NA,NA,NA,NA,NA,NA,NA,NA,NA,NA,NA,NA,NA,NA,NA,NA,NA,NA,NA,sub15
d3-instructions,47,303125,0.0-47.0,TRUE,TRUE,FALSE,TRUE,"""event"",""trial"",""time""
""fullscreenenter"",""5"",""28244""
","
","
","""event"",""trial"",""time""
""fullscreenenter"",""5"",""28244""
","
",NA,NA,NA,NA,NA,NA,NA,NA,NA,NA,NA,NA,NA,NA,NA,NA,NA,NA,NA,NA,NA,NA,sub15
d3-instructions,48,310212,0.0-48.0,TRUE,TRUE,FALSE,TRUE,"""event"",""trial"",""time""
""fullscreenenter"",""5"",""28244""
","
","
","""event"",""trial"",""time""
""fullscreenenter"",""5"",""28244""
","
",NA,NA,NA,NA,NA,NA,NA,NA,NA,NA,NA,NA,NA,NA,NA,NA,NA,NA,NA,NA,NA,NA,sub15
d3-instructions,49,321982,0.0-49.0,TRUE,TRUE,FALSE,TRUE,"""event"",""trial"",""time""
""fullscreenenter"",""5"",""28244""
","
","
","""event"",""trial"",""time""
""fullscreenenter"",""5"",""28244""
","
",NA,NA,NA,NA,NA,NA,NA,NA,NA,NA,NA,NA,NA,NA,NA,NA,NA,NA,NA,NA,NA,NA,sub15
d3-instructions,50,331362,0.0-50.0,TRUE,TRUE,FALSE,TRUE,"""event"",""trial"",""time""
""fullscreenenter"",""5"",""28244""
","
","
","""event"",""trial"",""time""
""fullscreenenter"",""5"",""28244""
","
",NA,NA,NA,NA,NA,NA,NA,NA,NA,NA,NA,NA,NA,NA,NA,NA,NA,NA,NA,NA,NA,NA,sub15
d3-instructions,51,334148,0.0-51.0,TRUE,TRUE,FALSE,TRUE,"""event"",""trial"",""time""
""fullscreenenter"",""5"",""28244""
","
","
","""event"",""trial"",""time""
""fullscreenenter"",""5"",""28244""
","
",NA,NA,NA,NA,NA,NA,NA,NA,NA,NA,NA,NA,NA,NA,NA,NA,NA,NA,NA,NA,NA,NA,sub15
d3-instructions,52,336914,0.0-52.0,TRUE,TRUE,FALSE,TRUE,"""event"",""trial"",""time""
""fullscreenenter"",""5"",""28244""
","
","
","""event"",""trial"",""time""
""fullscreenenter"",""5"",""28244""
","
",NA,NA,NA,NA,NA,NA,NA,NA,NA,NA,NA,NA,NA,NA,NA,NA,NA,NA,NA,NA,NA,NA,sub15
d3-instructions,53,349380,0.0-53.0,TRUE,TRUE,FALSE,TRUE,"""event"",""trial"",""time""
""fullscreenenter"",""5"",""28244""
","
","
","""event"",""trial"",""time""
""fullscreenenter"",""5"",""28244""
","
",NA,NA,NA,NA,NA,NA,NA,NA,NA,NA,NA,NA,NA,NA,NA,NA,NA,NA,NA,NA,NA,NA,sub15
d3-instructions,54,365338,0.0-54.0,TRUE,TRUE,FALSE,TRUE,"""event"",""trial"",""time""
""fullscreenenter"",""5"",""28244""
","
","
","""event"",""trial"",""time""
""fullscreenenter"",""5"",""28244""
","
",NA,NA,NA,NA,NA,NA,NA,NA,NA,NA,NA,NA,NA,NA,NA,NA,NA,NA,NA,NA,NA,NA,sub15
d3-instructions,55,375700,0.0-55.0,TRUE,TRUE,FALSE,TRUE,"""event"",""trial"",""time""
""fullscreenenter"",""5"",""28244""
","
","
","""event"",""trial"",""time""
""fullscreenenter"",""5"",""28244""
","
",NA,NA,NA,NA,NA,NA,NA,NA,NA,NA,NA,NA,NA,NA,NA,NA,NA,NA,NA,NA,NA,NA,sub15
d3-instructions,56,384450,0.0-56.0,TRUE,TRUE,FALSE,TRUE,"""event"",""trial"",""time""
""fullscreenenter"",""5"",""28244""
","
","
","""event"",""trial"",""time""
""fullscreenenter"",""5"",""28244""
","
",NA,NA,NA,NA,NA,NA,NA,NA,NA,NA,NA,NA,NA,NA,NA,NA,NA,NA,NA,NA,NA,NA,sub15
d3-instructions,57,394667,0.0-57.0,TRUE,TRUE,FALSE,TRUE,"""event"",""trial"",""time""
""fullscreenenter"",""5"",""28244""
","
","
","""event"",""trial"",""time""
""fullscreenenter"",""5"",""28244""
","
",NA,NA,NA,NA,NA,NA,NA,NA,NA,NA,NA,NA,NA,NA,NA,NA,NA,NA,NA,NA,NA,NA,sub15
d3-instructions,58,407058,0.0-58.0,TRUE,TRUE,FALSE,TRUE,"""event"",""trial"",""time""
""fullscreenenter"",""5"",""28244""
","
","
","""event"",""trial"",""time""
""fullscreenenter"",""5"",""28244""
","
",NA,NA,NA,NA,NA,NA,NA,NA,NA,NA,NA,NA,NA,NA,NA,NA,NA,NA,NA,NA,NA,NA,sub15
d3-instructions,59,411979,0.0-59.0,TRUE,TRUE,FALSE,TRUE,"""event"",""trial"",""time""
""fullscreenenter"",""5"",""28244""
","
","
","""event"",""trial"",""time""
""fullscreenenter"",""5"",""28244""
","
",NA,NA,NA,NA,NA,NA,NA,NA,NA,NA,NA,NA,NA,NA,NA,NA,NA,NA,NA,NA,NA,NA,sub15
d3-instructions,60,421800,0.0-60.0,TRUE,TRUE,FALSE,TRUE,"""event"",""trial"",""time""
""fullscreenenter"",""5"",""28244""
","
","
","""event"",""trial"",""time""
""fullscreenenter"",""5"",""28244""
","
",NA,NA,NA,NA,NA,NA,NA,NA,NA,NA,NA,NA,NA,NA,NA,NA,NA,NA,NA,NA,NA,NA,sub15
d3-animate-choice,61,425805,0.0-61.0-0.0,TRUE,TRUE,FALSE,TRUE,"""event"",""trial"",""time""
""fullscreenenter"",""5"",""28244""
","
","
","""event"",""trial"",""time""
""fullscreenenter"",""5"",""28244""
","
",null,NA,null,NA,NA,3000,0,NA,NA,images/earth.jpg,images/tutrocket1,images/tutrocket2,null,NA,NA,1,practice,null,NA,NA,NA,NA,sub15
d3-animate-choice,62,426810,0.0-61.0-1.0,TRUE,TRUE,FALSE,TRUE,"""event"",""trial"",""time""
""fullscreenenter"",""5"",""28244""
","
","
","""event"",""trial"",""time""
""fullscreenenter"",""5"",""28244""
","
",null,NA,null,NA,NA,0,0,NA,NA,images/earth.jpg,images/tutrocket1,images/tutrocket2,null,NA,NA,2,practice,null,0,2020-06-14T17:41:50Z,NA,NA,sub15
two-step-fixation,63,427815,0.0-61.0-2.0,TRUE,TRUE,FALSE,TRUE,"""event"",""trial"",""time""
""fullscreenenter"",""5"",""28244""
","
","
","""event"",""trial"",""time""
""fullscreenenter"",""5"",""28244""
","
",NA,images/earth.jpg,NA,NA,NA,NA,NA,NA,NA,NA,NA,NA,NA,NA,NA,fixation,NA,NA,NA,NA,NA,NA,sub15
d3-animate-choice,64,431822,0.0-61.0-0.1,TRUE,TRUE,FALSE,TRUE,"""event"",""trial"",""time""
""fullscreenenter"",""5"",""28244""
","
","
","""event"",""trial"",""time""
""fullscreenenter"",""5"",""28244""
","
",null,NA,null,NA,NA,3000,0,NA,NA,images/earth.jpg,images/tutrocket1,images/tutrocket2,null,NA,NA,1,practice,null,NA,NA,NA,NA,sub15
d3-animate-choice,65,432830,0.0-61.0-1.1,TRUE,TRUE,FALSE,TRUE,"""event"",""trial"",""time""
""fullscreenenter"",""5"",""28244""
","
","
","""event"",""trial"",""time""
""fullscreenenter"",""5"",""28244""
","
",null,NA,null,NA,NA,0,0,NA,NA,images/earth.jpg,images/tutrocket1,images/tutrocket2,null,NA,NA,2,practice,null,0,2020-06-14T17:41:56Z,NA,NA,sub15
two-step-fixation,66,433834,0.0-61.0-2.1,TRUE,TRUE,FALSE,TRUE,"""event"",""trial"",""time""
""fullscreenenter"",""5"",""28244""
","
","
","""event"",""trial"",""time""
""fullscreenenter"",""5"",""28244""
","
",NA,images/earth.jpg,NA,NA,NA,NA,NA,NA,NA,NA,NA,NA,NA,NA,NA,fixation,NA,NA,NA,NA,NA,NA,sub15
d3-animate-choice,67,437845,0.0-61.0-0.2,TRUE,TRUE,FALSE,TRUE,"""event"",""trial"",""time""
""fullscreenenter"",""5"",""28244""
","
","
","""event"",""trial"",""time""
""fullscreenenter"",""5"",""28244""
","
",2787.6200000001118,NA,49,NA,NA,3000,1,NA,NA,images/earth.jpg,images/tutrocket1,images/tutrocket2,null,images/tutrocket2,NA,1,practice,null,NA,NA,1,NA,sub15
d3-animate-choice,68,441853,0.0-61.0-1.2,TRUE,TRUE,FALSE,TRUE,"""event"",""trial"",""time""
""fullscreenenter"",""5"",""28244""
","
","
","""event"",""trial"",""time""
""fullscreenenter"",""5"",""28244""
","
",3084.055000000051,NA,49,NA,NA,3000,0,NA,NA,images/tutgreenplanet.jpg,images/tutalien2,images/tutalien1,images/tutrocket2,NA,NA,2,practice,false,0,2020-06-14T17:42:05Z,1,rare,sub15
two-step-fixation,69,442861,0.0-61.0-2.2,TRUE,TRUE,FALSE,TRUE,"""event"",""trial"",""time""
""fullscreenenter"",""5"",""28244""
","
","
","""event"",""trial"",""time""
""fullscreenenter"",""5"",""28244""
","
",NA,images/earth.jpg,NA,NA,NA,NA,NA,NA,NA,NA,NA,NA,NA,NA,NA,fixation,NA,NA,NA,NA,NA,NA,sub15
d3-animate-choice,70,445978,0.0-61.0-0.3,TRUE,TRUE,FALSE,TRUE,"""event"",""trial"",""time""
""fullscreenenter"",""5"",""28244""
","
","
","""event"",""trial"",""time""
""fullscreenenter"",""5"",""28244""
","
",1114.2000000000116,NA,48,NA,NA,3000,1,NA,NA,images/earth.jpg,images/tutrocket1,images/tutrocket2,null,images/tutrocket1,NA,1,practice,null,NA,NA,2,NA,sub15
d3-animate-choice,71,449987,0.0-61.0-1.3,TRUE,TRUE,FALSE,TRUE,"""event"",""trial"",""time""
""fullscreenenter"",""5"",""28244""
","
","
","""event"",""trial"",""time""
""fullscreenenter"",""5"",""28244""
","
",2103.909999999916,NA,48,NA,NA,3000,1,NA,NA,images/tutgreenplanet.jpg,images/tutalien2,images/tutalien1,images/tutrocket1,images/tutalien2,images/nothing.png,2,practice,true,0,2020-06-14T17:42:14Z,2,common,sub15
two-step-fixation,72,450989,0.0-61.0-2.3,TRUE,TRUE,FALSE,TRUE,"""event"",""trial"",""time""
""fullscreenenter"",""5"",""28244""
","
","
","""event"",""trial"",""time""
""fullscreenenter"",""5"",""28244""
","
",NA,images/earth.jpg,NA,NA,NA,NA,NA,NA,NA,NA,NA,NA,NA,NA,NA,fixation,NA,NA,NA,NA,NA,NA,sub15
d3-animate-choice,73,454212,0.0-61.0-0.4,TRUE,TRUE,FALSE,TRUE,"""event"",""trial"",""time""
""fullscreenenter"",""5"",""28244""
","
","
","""event"",""trial"",""time""
""fullscreenenter"",""5"",""28244""
","
",1218.1600000000326,NA,49,NA,NA,3000,1,NA,NA,images/earth.jpg,images/tutrocket1,images/tutrocket2,null,images/tutrocket2,NA,1,practice,null,NA,NA,1,NA,sub15
d3-animate-choice,74,458218,0.0-61.0-1.4,TRUE,TRUE,FALSE,TRUE,"""event"",""trial"",""time""
""fullscreenenter"",""5"",""28244""
","
","
","""event"",""trial"",""time""
""fullscreenenter"",""5"",""28244""
","
",2059.6699999999837,NA,48,NA,NA,3000,1,NA,NA,images/tutgreenplanet.jpg,images/tutalien2,images/tutalien1,images/tutrocket2,images/tutalien2,images/nothing.png,2,practice,false,0,2020-06-14T17:42:22Z,2,rare,sub15
two-step-fixation,75,459221,0.0-61.0-2.4,TRUE,TRUE,FALSE,TRUE,"""event"",""trial"",""time""
""fullscreenenter"",""5"",""28244""
","
","
","""event"",""trial"",""time""
""fullscreenenter"",""5"",""28244""
","
",NA,images/earth.jpg,NA,NA,NA,NA,NA,NA,NA,NA,NA,NA,NA,NA,NA,fixation,NA,NA,NA,NA,NA,NA,sub15
d3-animate-choice,76,462877,0.0-61.0-0.5,TRUE,TRUE,FALSE,TRUE,"""event"",""trial"",""time""
""fullscreenenter"",""5"",""28244""
","
","
","""event"",""trial"",""time""
""fullscreenenter"",""5"",""28244""
","
",1647.8450000000885,NA,49,NA,NA,3000,1,NA,NA,images/earth.jpg,images/tutrocket1,images/tutrocket2,null,images/tutrocket2,NA,1,practice,null,NA,NA,1,NA,sub15
d3-animate-choice,77,466767,0.0-61.0-1.5,TRUE,TRUE,FALSE,TRUE,"""event"",""trial"",""time""
""fullscreenenter"",""5"",""28244""
","
","
","""event"",""trial"",""time""
""fullscreenenter"",""5"",""28244""
","
",1882.024999999965,NA,49,NA,NA,3000,1,NA,NA,images/tutyellowplanet.jpg,images/tutalien4,images/tutalien3,images/tutrocket2,images/tutalien3,images/t.png,2,practice,true,1,2020-06-14T17:42:30Z,1,common,sub15
two-step-fixation,78,467772,0.0-61.0-2.5,TRUE,TRUE,FALSE,TRUE,"""event"",""trial"",""time""
""fullscreenenter"",""5"",""28244""
","
","
","""event"",""trial"",""time""
""fullscreenenter"",""5"",""28244""
","
",NA,images/earth.jpg,NA,NA,NA,NA,NA,NA,NA,NA,NA,NA,NA,NA,NA,fixation,NA,NA,NA,NA,NA,NA,sub15
d3-animate-choice,79,470424,0.0-61.0-0.6,TRUE,TRUE,FALSE,TRUE,"""event"",""trial"",""time""
""fullscreenenter"",""5"",""28244""
","
","
","""event"",""trial"",""time""
""fullscreenenter"",""5"",""28244""
","
",644.5600000000559,NA,48,NA,NA,3000,1,NA,NA,images/earth.jpg,images/tutrocket1,images/tutrocket2,null,images/tutrocket1,NA,1,practice,null,NA,NA,2,NA,sub15
d3-animate-choice,80,473470,0.0-61.0-1.6,TRUE,TRUE,FALSE,TRUE,"""event"",""trial"",""time""
""fullscreenenter"",""5"",""28244""
","
","
","""event"",""trial"",""time""
""fullscreenenter"",""5"",""28244""
","
",1040.320000000007,NA,49,NA,NA,3000,1,NA,NA,images/tutgreenplanet.jpg,images/tutalien2,images/tutalien1,images/tutrocket1,images/tutalien1,images/t.png,2,practice,true,1,2020-06-14T17:42:37Z,1,common,sub15
two-step-fixation,81,474478,0.0-61.0-2.6,TRUE,TRUE,FALSE,TRUE,"""event"",""trial"",""time""
""fullscreenenter"",""5"",""28244""
","
","
","""event"",""trial"",""time""
""fullscreenenter"",""5"",""28244""
","
",NA,images/earth.jpg,NA,NA,NA,NA,NA,NA,NA,NA,NA,NA,NA,NA,NA,fixation,NA,NA,NA,NA,NA,NA,sub15
d3-animate-choice,82,477288,0.0-61.0-0.7,TRUE,TRUE,FALSE,TRUE,"""event"",""trial"",""time""
""fullscreenenter"",""5"",""28244""
","
","
","""event"",""trial"",""time""
""fullscreenenter"",""5"",""28244""
","
",806.2399999999907,NA,48,NA,NA,3000,1,NA,NA,images/earth.jpg,images/tutrocket1,images/tutrocket2,null,images/tutrocket1,NA,1,practice,null,NA,NA,2,NA,sub15
d3-animate-choice,83,480128,0.0-61.0-1.7,TRUE,TRUE,FALSE,TRUE,"""event"",""trial"",""time""
""fullscreenenter"",""5"",""28244""
","
","
","""event"",""trial"",""time""
""fullscreenenter"",""5"",""28244""
","
",836.0499999999884,NA,49,NA,NA,3000,1,NA,NA,images/tutyellowplanet.jpg,images/tutalien4,images/tutalien3,images/tutrocket1,images/tutalien3,images/nothing.png,2,practice,false,0,2020-06-14T17:42:44Z,1,rare,sub15
two-step-fixation,84,481133,0.0-61.0-2.7,TRUE,TRUE,FALSE,TRUE,"""event"",""trial"",""time""
""fullscreenenter"",""5"",""28244""
","
","
","""event"",""trial"",""time""
""fullscreenenter"",""5"",""28244""
","
",NA,images/earth.jpg,NA,NA,NA,NA,NA,NA,NA,NA,NA,NA,NA,NA,NA,fixation,NA,NA,NA,NA,NA,NA,sub15
d3-animate-choice,85,483724,0.0-61.0-0.8,TRUE,TRUE,FALSE,TRUE,"""event"",""trial"",""time""
""fullscreenenter"",""5"",""28244""
","
","
","""event"",""trial"",""time""
""fullscreenenter"",""5"",""28244""
","
",587.5250000000233,NA,48,NA,NA,3000,1,NA,NA,images/earth.jpg,images/tutrocket1,images/tutrocket2,null,images/tutrocket1,NA,1,practice,null,NA,NA,2,NA,sub15
d3-animate-choice,86,486678,0.0-61.0-1.8,TRUE,TRUE,FALSE,TRUE,"""event"",""trial"",""time""
""fullscreenenter"",""5"",""28244""
","
","
","""event"",""trial"",""time""
""fullscreenenter"",""5"",""28244""
","
",949.2000000000116,NA,49,NA,NA,3000,1,NA,NA,images/tutyellowplanet.jpg,images/tutalien4,images/tutalien3,images/tutrocket1,images/tutalien3,images/nothing.png,2,practice,false,0,2020-06-14T17:42:50Z,1,rare,sub15
two-step-fixation,87,487683,0.0-61.0-2.8,TRUE,TRUE,FALSE,TRUE,"""event"",""trial"",""time""
""fullscreenenter"",""5"",""28244""
","
","
","""event"",""trial"",""time""
""fullscreenenter"",""5"",""28244""
","
",NA,images/earth.jpg,NA,NA,NA,NA,NA,NA,NA,NA,NA,NA,NA,NA,NA,fixation,NA,NA,NA,NA,NA,NA,sub15
d3-animate-choice,88,490383,0.0-61.0-0.9,TRUE,TRUE,FALSE,TRUE,"""event"",""trial"",""time""
""fullscreenenter"",""5"",""28244""
","
","
","""event"",""trial"",""time""
""fullscreenenter"",""5"",""28244""
","
",691.7999999999302,NA,49,NA,NA,3000,1,NA,NA,images/earth.jpg,images/tutrocket1,images/tutrocket2,null,images/tutrocket2,NA,1,practice,null,NA,NA,1,NA,sub15
d3-animate-choice,89,493513,0.0-61.0-1.9,TRUE,TRUE,FALSE,TRUE,"""event"",""trial"",""time""
""fullscreenenter"",""5"",""28244""
","
","
","""event"",""trial"",""time""
""fullscreenenter"",""5"",""28244""
","
",1125.7999999999302,NA,48,NA,NA,3000,1,NA,NA,images/tutyellowplanet.jpg,images/tutalien4,images/tutalien3,images/tutrocket2,images/tutalien4,images/t.png,2,practice,true,1,2020-06-14T17:42:57Z,2,common,sub15
two-step-fixation,90,494516,0.0-61.0-2.9,TRUE,TRUE,FALSE,TRUE,"""event"",""trial"",""time""
""fullscreenenter"",""5"",""28244""
","
","
","""event"",""trial"",""time""
""fullscreenenter"",""5"",""28244""
","
",NA,images/earth.jpg,NA,NA,NA,NA,NA,NA,NA,NA,NA,NA,NA,NA,NA,fixation,NA,NA,NA,NA,NA,NA,sub15
d3-animate-choice,91,497297,0.0-61.0-0.10,TRUE,TRUE,FALSE,TRUE,"""event"",""trial"",""time""
""fullscreenenter"",""5"",""28244""
","
","
","""event"",""trial"",""time""
""fullscreenenter"",""5"",""28244""
","
",776.3650000000489,NA,49,NA,NA,3000,1,NA,NA,images/earth.jpg,images/tutrocket1,images/tutrocket2,null,images/tutrocket2,NA,1,practice,null,NA,NA,1,NA,sub15
d3-animate-choice,92,500318,0.0-61.0-1.10,TRUE,TRUE,FALSE,TRUE,"""event"",""trial"",""time""
""fullscreenenter"",""5"",""28244""
","
","
","""event"",""trial"",""time""
""fullscreenenter"",""5"",""28244""
","
",1014.8800000000629,NA,49,NA,NA,3000,1,NA,NA,images/tutyellowplanet.jpg,images/tutalien4,images/tutalien3,images/tutrocket2,images/tutalien3,images/nothing.png,2,practice,true,0,2020-06-14T17:43:04Z,1,common,sub15
two-step-fixation,93,501324,0.0-61.0-2.10,TRUE,TRUE,FALSE,TRUE,"""event"",""trial"",""time""
""fullscreenenter"",""5"",""28244""
","
","
","""event"",""trial"",""time""
""fullscreenenter"",""5"",""28244""
","
",NA,images/earth.jpg,NA,NA,NA,NA,NA,NA,NA,NA,NA,NA,NA,NA,NA,fixation,NA,NA,NA,NA,NA,NA,sub15
d3-animate-choice,94,504222,0.0-61.0-0.11,TRUE,TRUE,FALSE,TRUE,"""event"",""trial"",""time""
""fullscreenenter"",""5"",""28244""
","
","
","""event"",""trial"",""time""
""fullscreenenter"",""5"",""28244""
","
",890.1400000000722,NA,48,NA,NA,3000,1,NA,NA,images/earth.jpg,images/tutrocket1,images/tutrocket2,null,images/tutrocket1,NA,1,practice,null,NA,NA,2,NA,sub15
d3-animate-choice,95,507414,0.0-61.0-1.11,TRUE,TRUE,FALSE,TRUE,"""event"",""trial"",""time""
""fullscreenenter"",""5"",""28244""
","
","
","""event"",""trial"",""time""
""fullscreenenter"",""5"",""28244""
","
",1187.3099999999977,NA,48,NA,NA,3000,1,NA,NA,images/tutgreenplanet.jpg,images/tutalien2,images/tutalien1,images/tutrocket1,images/tutalien2,images/nothing.png,2,practice,true,0,2020-06-14T17:43:11Z,2,common,sub15
two-step-fixation,96,508418,0.0-61.0-2.11,TRUE,TRUE,FALSE,TRUE,"""event"",""trial"",""time""
""fullscreenenter"",""5"",""28244""
","
","
","""event"",""trial"",""time""
""fullscreenenter"",""5"",""28244""
","
",NA,images/earth.jpg,NA,NA,NA,NA,NA,NA,NA,NA,NA,NA,NA,NA,NA,fixation,NA,NA,NA,NA,NA,NA,sub15
d3-animate-choice,97,510879,0.0-61.0-0.12,TRUE,TRUE,FALSE,TRUE,"""event"",""trial"",""time""
""fullscreenenter"",""5"",""28244""
","
","
","""event"",""trial"",""time""
""fullscreenenter"",""5"",""28244""
","
",452.04999999987194,NA,49,NA,NA,3000,1,NA,NA,images/earth.jpg,images/tutrocket1,images/tutrocket2,null,images/tutrocket2,NA,1,practice,null,NA,NA,1,NA,sub15
d3-animate-choice,98,514187,0.0-61.0-1.12,TRUE,TRUE,FALSE,TRUE,"""event"",""trial"",""time""
""fullscreenenter"",""5"",""28244""
","
","
","""event"",""trial"",""time""
""fullscreenenter"",""5"",""28244""
","
",1303.6350000000093,NA,48,NA,NA,3000,1,NA,NA,images/tutyellowplanet.jpg,images/tutalien4,images/tutalien3,images/tutrocket2,images/tutalien4,images/nothing.png,2,practice,true,0,2020-06-14T17:43:18Z,2,common,sub15
two-step-fixation,99,515193,0.0-61.0-2.12,TRUE,TRUE,FALSE,TRUE,"""event"",""trial"",""time""
""fullscreenenter"",""5"",""28244""
","
","
","""event"",""trial"",""time""
""fullscreenenter"",""5"",""28244""
","
",NA,images/earth.jpg,NA,NA,NA,NA,NA,NA,NA,NA,NA,NA,NA,NA,NA,fixation,NA,NA,NA,NA,NA,NA,sub15
d3-animate-choice,100,517260,0.0-61.0-0.13,TRUE,TRUE,FALSE,TRUE,"""event"",""trial"",""time""
""fullscreenenter"",""5"",""28244""
","
","
","""event"",""trial"",""time""
""fullscreenenter"",""5"",""28244""
","
",61.86499999987427,NA,49,NA,NA,3000,1,NA,NA,images/earth.jpg,images/tutrocket1,images/tutrocket2,null,images/tutrocket2,NA,1,practice,null,NA,NA,1,NA,sub15
d3-animate-choice,101,520382,0.0-61.0-1.13,TRUE,TRUE,FALSE,TRUE,"""event"",""trial"",""time""
""fullscreenenter"",""5"",""28244""
","
","
","""event"",""trial"",""time""
""fullscreenenter"",""5"",""28244""
","
",1117.589999999851,NA,49,NA,NA,3000,1,NA,NA,images/tutyellowplanet.jpg,images/tutalien4,images/tutalien3,images/tutrocket2,images/tutalien3,images/nothing.png,2,practice,true,0,2020-06-14T17:43:24Z,1,common,sub15
two-step-fixation,102,521386,0.0-61.0-2.13,TRUE,TRUE,FALSE,TRUE,"""event"",""trial"",""time""
""fullscreenenter"",""5"",""28244""
","
","
","""event"",""trial"",""time""
""fullscreenenter"",""5"",""28244""
","
",NA,images/earth.jpg,NA,NA,NA,NA,NA,NA,NA,NA,NA,NA,NA,NA,NA,fixation,NA,NA,NA,NA,NA,NA,sub15
d3-animate-choice,103,524216,0.0-61.0-0.14,TRUE,TRUE,FALSE,TRUE,"""event"",""trial"",""time""
""fullscreenenter"",""5"",""28244""
","
","
","""event"",""trial"",""time""
""fullscreenenter"",""5"",""28244""
","
",830.3149999999441,NA,48,NA,NA,3000,1,NA,NA,images/earth.jpg,images/tutrocket1,images/tutrocket2,null,images/tutrocket1,NA,1,practice,null,NA,NA,2,NA,sub15
d3-animate-choice,104,527484,0.0-61.0-1.14,TRUE,TRUE,FALSE,TRUE,"""event"",""trial"",""time""
""fullscreenenter"",""5"",""28244""
","
","
","""event"",""trial"",""time""
""fullscreenenter"",""5"",""28244""
","
",1265.4799999999814,NA,48,NA,NA,3000,1,NA,NA,images/tutgreenplanet.jpg,images/tutalien2,images/tutalien1,images/tutrocket1,images/tutalien2,images/nothing.png,2,practice,true,0,2020-06-14T17:43:31Z,2,common,sub15
two-step-fixation,105,528486,0.0-61.0-2.14,TRUE,TRUE,FALSE,TRUE,"""event"",""trial"",""time""
""fullscreenenter"",""5"",""28244""
","
","
","""event"",""trial"",""time""
""fullscreenenter"",""5"",""28244""
","
",NA,images/earth.jpg,NA,NA,NA,NA,NA,NA,NA,NA,NA,NA,NA,NA,NA,fixation,NA,NA,NA,NA,NA,NA,sub15
d3-animate-choice,106,530894,0.0-61.0-0.15,TRUE,TRUE,FALSE,TRUE,"""event"",""trial"",""time""
""fullscreenenter"",""5"",""28244""
","
","
","""event"",""trial"",""time""
""fullscreenenter"",""5"",""28244""
","
",406.05000000004657,NA,49,NA,NA,3000,1,NA,NA,images/earth.jpg,images/tutrocket1,images/tutrocket2,null,images/tutrocket2,NA,1,practice,null,NA,NA,1,NA,sub15
d3-animate-choice,107,534154,0.0-61.0-1.15,TRUE,TRUE,FALSE,TRUE,"""event"",""trial"",""time""
""fullscreenenter"",""5"",""28244""
","
","
","""event"",""trial"",""time""
""fullscreenenter"",""5"",""28244""
","
",1259.0549999999348,NA,48,NA,NA,3000,1,NA,NA,images/tutyellowplanet.jpg,images/tutalien4,images/tutalien3,images/tutrocket2,images/tutalien4,images/t.png,2,practice,true,1,2020-06-14T17:43:38Z,2,common,sub15
two-step-fixation,108,535157,0.0-61.0-2.15,TRUE,TRUE,FALSE,TRUE,"""event"",""trial"",""time""
""fullscreenenter"",""5"",""28244""
","
","
","""event"",""trial"",""time""
""fullscreenenter"",""5"",""28244""
","
",NA,images/earth.jpg,NA,NA,NA,NA,NA,NA,NA,NA,NA,NA,NA,NA,NA,fixation,NA,NA,NA,NA,NA,NA,sub15
d3-animate-choice,109,537601,0.0-61.0-0.16,TRUE,TRUE,FALSE,TRUE,"""event"",""trial"",""time""
""fullscreenenter"",""5"",""28244""
","
","
","""event"",""trial"",""time""
""fullscreenenter"",""5"",""28244""
","
",441.1400000001304,NA,49,NA,NA,3000,1,NA,NA,images/earth.jpg,images/tutrocket1,images/tutrocket2,null,images/tutrocket2,NA,1,practice,null,NA,NA,1,NA,sub15
d3-animate-choice,110,540947,0.0-61.0-1.16,TRUE,TRUE,FALSE,TRUE,"""event"",""trial"",""time""
""fullscreenenter"",""5"",""28244""
","
","
","""event"",""trial"",""time""
""fullscreenenter"",""5"",""28244""
","
",1341.865000000107,NA,49,NA,NA,3000,1,NA,NA,images/tutyellowplanet.jpg,images/tutalien4,images/tutalien3,images/tutrocket2,images/tutalien3,images/t.png,2,practice,true,1,2020-06-14T17:43:44Z,1,common,sub15
two-step-fixation,111,541954,0.0-61.0-2.16,TRUE,TRUE,FALSE,TRUE,"""event"",""trial"",""time""
""fullscreenenter"",""5"",""28244""
","
","
","""event"",""trial"",""time""
""fullscreenenter"",""5"",""28244""
","
",NA,images/earth.jpg,NA,NA,NA,NA,NA,NA,NA,NA,NA,NA,NA,NA,NA,fixation,NA,NA,NA,NA,NA,NA,sub15
d3-animate-choice,112,544566,0.0-61.0-0.17,TRUE,TRUE,FALSE,TRUE,"""event"",""trial"",""time""
""fullscreenenter"",""5"",""28244""
","
","
","""event"",""trial"",""time""
""fullscreenenter"",""5"",""28244""
","
",605.8000000000466,NA,48,NA,NA,3000,1,NA,NA,images/earth.jpg,images/tutrocket1,images/tutrocket2,null,images/tutrocket1,NA,1,practice,null,NA,NA,2,NA,sub15
d3-animate-choice,113,547609,0.0-61.0-1.17,TRUE,TRUE,FALSE,TRUE,"""event"",""trial"",""time""
""fullscreenenter"",""5"",""28244""
","
","
","""event"",""trial"",""time""
""fullscreenenter"",""5"",""28244""
","
",1036.1499999999069,NA,48,NA,NA,3000,1,NA,NA,images/tutgreenplanet.jpg,images/tutalien2,images/tutalien1,images/tutrocket1,images/tutalien2,images/nothing.png,2,practice,true,0,2020-06-14T17:43:51Z,2,common,sub15
two-step-fixation,114,548616,0.0-61.0-2.17,TRUE,TRUE,FALSE,TRUE,"""event"",""trial"",""time""
""fullscreenenter"",""5"",""28244""
","
","
","""event"",""trial"",""time""
""fullscreenenter"",""5"",""28244""
","
",NA,images/earth.jpg,NA,NA,NA,NA,NA,NA,NA,NA,NA,NA,NA,NA,NA,fixation,NA,NA,NA,NA,NA,NA,sub15
d3-animate-choice,115,551479,0.0-61.0-0.18,TRUE,TRUE,FALSE,TRUE,"""event"",""trial"",""time""
""fullscreenenter"",""5"",""28244""
","
","
","""event"",""trial"",""time""
""fullscreenenter"",""5"",""28244""
","
",860.4200000002747,NA,49,NA,NA,3000,1,NA,NA,images/earth.jpg,images/tutrocket1,images/tutrocket2,null,images/tutrocket2,NA,1,practice,null,NA,NA,1,NA,sub15
d3-animate-choice,116,555059,0.0-61.0-1.18,TRUE,TRUE,FALSE,TRUE,"""event"",""trial"",""time""
""fullscreenenter"",""5"",""28244""
","
","
","""event"",""trial"",""time""
""fullscreenenter"",""5"",""28244""
","
",1572.9099999999162,NA,48,NA,NA,3000,1,NA,NA,images/tutyellowplanet.jpg,images/tutalien4,images/tutalien3,images/tutrocket2,images/tutalien4,images/nothing.png,2,practice,true,0,2020-06-14T17:43:59Z,2,common,sub15
two-step-fixation,117,556067,0.0-61.0-2.18,TRUE,TRUE,FALSE,TRUE,"""event"",""trial"",""time""
""fullscreenenter"",""5"",""28244""
","
","
","""event"",""trial"",""time""
""fullscreenenter"",""5"",""28244""
","
",NA,images/earth.jpg,NA,NA,NA,NA,NA,NA,NA,NA,NA,NA,NA,NA,NA,fixation,NA,NA,NA,NA,NA,NA,sub15
d3-animate-choice,118,558927,0.0-61.0-0.19,TRUE,TRUE,FALSE,TRUE,"""event"",""trial"",""time""
""fullscreenenter"",""5"",""28244""
","
","
","""event"",""trial"",""time""
""fullscreenenter"",""5"",""28244""
","
",857.9949999999953,NA,49,NA,NA,3000,1,NA,NA,images/earth.jpg,images/tutrocket1,images/tutrocket2,null,images/tutrocket2,NA,1,practice,null,NA,NA,1,NA,sub15
d3-animate-choice,119,561935,0.0-61.0-1.19,TRUE,TRUE,FALSE,TRUE,"""event"",""trial"",""time""
""fullscreenenter"",""5"",""28244""
","
","
","""event"",""trial"",""time""
""fullscreenenter"",""5"",""28244""
","
",1004.390000000014,NA,48,NA,NA,3000,1,NA,NA,images/tutyellowplanet.jpg,images/tutalien4,images/tutalien3,images/tutrocket2,images/tutalien4,images/nothing.png,2,practice,true,0,2020-06-14T17:44:05Z,2,common,sub15
two-step-fixation,120,562941,0.0-61.0-2.19,TRUE,TRUE,FALSE,TRUE,"""event"",""trial"",""time""
""fullscreenenter"",""5"",""28244""
","
","
","""event"",""trial"",""time""
""fullscreenenter"",""5"",""28244""
","
",NA,images/earth.jpg,NA,NA,NA,NA,NA,NA,NA,NA,NA,NA,NA,NA,NA,fixation,NA,NA,NA,NA,NA,NA,sub15
d3-instructions,121,570162,0.0-62.0,TRUE,TRUE,FALSE,TRUE,"""event"",""trial"",""time""
""fullscreenenter"",""5"",""28244""
","
","
","""event"",""trial"",""time""
""fullscreenenter"",""5"",""28244""
","
",NA,NA,NA,NA,NA,NA,NA,NA,NA,NA,NA,NA,NA,NA,NA,NA,NA,NA,NA,NA,NA,NA,sub15
audio-keyboard-response,122,577351,0.0-63.0,TRUE,TRUE,FALSE,TRUE,"""event"",""trial"",""time""
""fullscreenenter"",""5"",""28244""
","
","
","""event"",""trial"",""time""
""fullscreenenter"",""5"",""28244""
","
",7187,audio/instructions/treasure_feedback.wav,32,NA,NA,NA,NA,NA,NA,NA,NA,NA,NA,NA,NA,NA,NA,NA,NA,NA,NA,NA,sub15
d3-instructions,123,596818,0.0-64.0,TRUE,TRUE,FALSE,TRUE,"""event"",""trial"",""time""
""fullscreenenter"",""5"",""28244""
","
","
","""event"",""trial"",""time""
""fullscreenenter"",""5"",""28244""
","
",NA,NA,NA,NA,NA,NA,NA,NA,NA,NA,NA,NA,NA,NA,NA,NA,NA,NA,NA,NA,NA,NA,sub15
d3-instructions,124,611038,0.0-65.0,TRUE,TRUE,FALSE,TRUE,"""event"",""trial"",""time""
""fullscreenenter"",""5"",""28244""
","
","
","""event"",""trial"",""time""
""fullscreenenter"",""5"",""28244""
","
",NA,NA,NA,NA,NA,NA,NA,NA,NA,NA,NA,NA,NA,NA,NA,NA,NA,NA,NA,NA,NA,NA,sub15
d3-instructions,125,636023,0.0-66.0,TRUE,TRUE,FALSE,TRUE,"""event"",""trial"",""time""
""fullscreenenter"",""5"",""28244""
","
","
","""event"",""trial"",""time""
""fullscreenenter"",""5"",""28244""
","
",NA,NA,NA,NA,NA,NA,NA,NA,NA,NA,NA,NA,NA,NA,NA,NA,NA,NA,NA,NA,NA,NA,sub15
d3-instructions,126,654131,0.0-67.0,TRUE,TRUE,FALSE,TRUE,"""event"",""trial"",""time""
""fullscreenenter"",""5"",""28244""
","
","
","""event"",""trial"",""time""
""fullscreenenter"",""5"",""28244""
","
",NA,NA,NA,NA,NA,NA,NA,NA,NA,NA,NA,NA,NA,NA,NA,NA,NA,NA,NA,NA,NA,NA,sub15
d3-instructions,127,662950,0.0-68.0,TRUE,TRUE,FALSE,TRUE,"""event"",""trial"",""time""
""fullscreenenter"",""5"",""28244""
","
","
","""event"",""trial"",""time""
""fullscreenenter"",""5"",""28244""
","
",NA,NA,NA,NA,NA,NA,NA,NA,NA,NA,NA,NA,NA,NA,NA,NA,NA,NA,NA,NA,NA,NA,sub15
instructions-quiz,128,668294,0.0-69.0,TRUE,TRUE,FALSE,TRUE,"""event"",""trial"",""time""
""fullscreenenter"",""5"",""28244""
","
","
","""event"",""trial"",""time""
""fullscreenenter"",""5"",""28244""
","
",5343.040000000154,audio/quiz/Q1_Prompt.wav,NA,1,NA,NA,NA,NA,NA,NA,NA,NA,NA,NA,NA,NA,NA,NA,NA,NA,NA,NA,sub15
audio-keyboard-response,129,677463,0.0-70.0,TRUE,TRUE,FALSE,TRUE,"""event"",""trial"",""time""
""fullscreenenter"",""5"",""28244""
","
","
","""event"",""trial"",""time""
""fullscreenenter"",""5"",""28244""
","
",null,audio/quiz/Q1_Correct.wav,null,NA,NA,NA,NA,NA,NA,NA,NA,NA,NA,NA,NA,NA,NA,NA,NA,NA,NA,NA,sub15
instructions-quiz,130,686688,0.0-71.0,TRUE,TRUE,FALSE,TRUE,"""event"",""trial"",""time""
""fullscreenenter"",""5"",""28244""
","
","
","""event"",""trial"",""time""
""fullscreenenter"",""5"",""28244""
","
",9224.679999999702,audio/quiz/Q2_Prompt.wav,NA,0,NA,NA,NA,NA,NA,NA,NA,NA,NA,NA,NA,NA,NA,NA,NA,NA,NA,NA,sub15
audio-keyboard-response,131,699556,0.0-72.0,TRUE,TRUE,FALSE,TRUE,"""event"",""trial"",""time""
""fullscreenenter"",""5"",""28244""
","
","
","""event"",""trial"",""time""
""fullscreenenter"",""5"",""28244""
","
",null,audio/quiz/Q2_Correct.wav,null,NA,NA,NA,NA,NA,NA,NA,NA,NA,NA,NA,NA,NA,NA,NA,NA,NA,NA,NA,sub15
instructions-quiz,132,705333,0.0-73.0,TRUE,TRUE,FALSE,TRUE,"""event"",""trial"",""time""
""fullscreenenter"",""5"",""28244""
","
","
","""event"",""trial"",""time""
""fullscreenenter"",""5"",""28244""
","
",5776.380000000005,audio/quiz/Q3_Prompt.wav,NA,1,NA,NA,NA,NA,NA,NA,NA,NA,NA,NA,NA,NA,NA,NA,NA,NA,NA,NA,sub15
audio-keyboard-response,133,711131,0.0-74.0,TRUE,TRUE,FALSE,TRUE,"""event"",""trial"",""time""
""fullscreenenter"",""5"",""28244""
","
","
","""event"",""trial"",""time""
""fullscreenenter"",""5"",""28244""
","
",null,audio/quiz/Q3_Correct.wav,null,NA,NA,NA,NA,NA,NA,NA,NA,NA,NA,NA,NA,NA,NA,NA,NA,NA,NA,NA,sub15
d3-instructions,134,724817,0.0-75.0,TRUE,TRUE,FALSE,TRUE,"""event"",""trial"",""time""
""fullscreenenter"",""5"",""28244""
","
","
","""event"",""trial"",""time""
""fullscreenenter"",""5"",""28244""
","
",NA,NA,NA,NA,NA,NA,NA,NA,NA,NA,NA,NA,NA,NA,NA,NA,NA,NA,NA,NA,NA,NA,sub15
d3-animate-choice,135,728487,0.0-76.0-0.0,TRUE,TRUE,FALSE,TRUE,"""event"",""trial"",""time""
""fullscreenenter"",""5"",""28244""
","
","
","""event"",""trial"",""time""
""fullscreenenter"",""5"",""28244""
","
",1667.9999999998836,NA,48,NA,NA,3000,1,NA,NA,images/earth.jpg,images/rocket2,images/rocket1,null,images/rocket2,NA,1,real,null,NA,NA,2,NA,sub15
d3-animate-choice,136,731656,0.0-76.0-1.0,TRUE,TRUE,FALSE,TRUE,"""event"",""trial"",""time""
""fullscreenenter"",""5"",""28244""
","
","
","""event"",""trial"",""time""
""fullscreenenter"",""5"",""28244""
","
",1165.5800000000745,NA,49,NA,NA,3000,1,NA,NA,images/redplanet1.jpg,images/alien2,images/alien1,images/rocket2,images/alien1,images/nothing.png,2,real,false,0,2020-06-14T17:46:55Z,1,rare,sub15
two-step-fixation,137,732660,0.0-76.0-2.0,TRUE,TRUE,FALSE,TRUE,"""event"",""trial"",""time""
""fullscreenenter"",""5"",""28244""
","
","
","""event"",""trial"",""time""
""fullscreenenter"",""5"",""28244""
","
",NA,images/earth.jpg,NA,NA,NA,NA,NA,NA,NA,NA,NA,NA,NA,NA,NA,fixation,NA,NA,NA,NA,NA,NA,sub15
d3-animate-choice,138,735131,0.0-76.0-0.1,TRUE,TRUE,FALSE,TRUE,"""event"",""trial"",""time""
""fullscreenenter"",""5"",""28244""
","
","
","""event"",""trial"",""time""
""fullscreenenter"",""5"",""28244""
","
",466.67499999981374,NA,49,NA,NA,3000,1,NA,NA,images/earth.jpg,images/rocket2,images/rocket1,null,images/rocket1,NA,1,real,null,NA,NA,1,NA,sub15
d3-animate-choice,139,739134,0.0-76.0-1.1,TRUE,TRUE,FALSE,TRUE,"""event"",""trial"",""time""
""fullscreenenter"",""5"",""28244""
","
","
","""event"",""trial"",""time""
""fullscreenenter"",""5"",""28244""
","
",530.3849999997765,NA,79,NA,NA,3000,1,"1812.329999999958,2258.054999999702",7949,images/purpleplanet.jpg,images/alien4,images/alien3,images/rocket1,images/alien3,images/nothing.png,2,real,false,0,2020-06-14T17:47:03Z,NA,rare,sub15
two-step-fixation,140,740137,0.0-76.0-2.1,TRUE,TRUE,FALSE,TRUE,"""event"",""trial"",""time""
""fullscreenenter"",""5"",""28244""
","
","
","""event"",""trial"",""time""
""fullscreenenter"",""5"",""28244""
","
",NA,images/earth.jpg,NA,NA,NA,NA,NA,NA,NA,NA,NA,NA,NA,NA,NA,fixation,NA,NA,NA,NA,NA,NA,sub15
d3-animate-choice,141,744142,0.0-76.0-0.2,TRUE,TRUE,FALSE,TRUE,"""event"",""trial"",""time""
""fullscreenenter"",""5"",""28244""
","
","
","""event"",""trial"",""time""
""fullscreenenter"",""5"",""28244""
","
",635.1700000000419,NA,79,NA,NA,3000,1,2499.119999999879,49,images/earth.jpg,images/rocket2,images/rocket1,null,images/rocket1,NA,1,real,null,NA,NA,NA,NA,sub15
d3-animate-choice,142,748149,0.0-76.0-1.2,TRUE,TRUE,FALSE,TRUE,"""event"",""trial"",""time""
""fullscreenenter"",""5"",""28244""
","
","
","""event"",""trial"",""time""
""fullscreenenter"",""5"",""28244""
","
",1190.2850000000326,NA,79,NA,NA,3000,1,"2272.689999999944,3494.32500000007",7948,images/redplanet1.jpg,images/alien2,images/alien1,images/rocket1,images/alien2,NA,2,real,true,0,2020-06-14T17:47:12Z,NA,common,sub15
two-step-fixation,143,749152,0.0-76.0-2.2,TRUE,TRUE,FALSE,TRUE,"""event"",""trial"",""time""
""fullscreenenter"",""5"",""28244""
","
","
","""event"",""trial"",""time""
""fullscreenenter"",""5"",""28244""
","
",NA,images/earth.jpg,NA,NA,NA,NA,NA,NA,NA,NA,NA,NA,NA,NA,NA,fixation,NA,NA,NA,NA,NA,NA,sub15
d3-animate-choice,144,752362,0.0-76.0-0.3,TRUE,TRUE,FALSE,TRUE,"""event"",""trial"",""time""
""fullscreenenter"",""5"",""28244""
","
","
","""event"",""trial"",""time""
""fullscreenenter"",""5"",""28244""
","
",1203.9899999999907,NA,49,NA,NA,3000,1,NA,NA,images/earth.jpg,images/rocket2,images/rocket1,null,images/rocket1,NA,1,real,null,NA,NA,1,NA,sub15
d3-animate-choice,145,755513,0.0-76.0-1.3,TRUE,TRUE,FALSE,TRUE,"""event"",""trial"",""time""
""fullscreenenter"",""5"",""28244""
","
","
","""event"",""trial"",""time""
""fullscreenenter"",""5"",""28244""
","
",1146.0450000001583,NA,48,NA,NA,3000,1,NA,NA,images/redplanet1.jpg,images/alien2,images/alien1,images/rocket1,images/alien2,images/nothing.png,2,real,true,0,2020-06-14T17:47:19Z,2,common,sub15
two-step-fixation,146,756517,0.0-76.0-2.3,TRUE,TRUE,FALSE,TRUE,"""event"",""trial"",""time""
""fullscreenenter"",""5"",""28244""
","
","
","""event"",""trial"",""time""
""fullscreenenter"",""5"",""28244""
","
",NA,images/earth.jpg,NA,NA,NA,NA,NA,NA,NA,NA,NA,NA,NA,NA,NA,fixation,NA,NA,NA,NA,NA,NA,sub15
d3-animate-choice,147,758976,0.0-76.0-0.4,TRUE,TRUE,FALSE,TRUE,"""event"",""trial"",""time""
""fullscreenenter"",""5"",""28244""
","
","
","""event"",""trial"",""time""
""fullscreenenter"",""5"",""28244""
","
",455.82499999995343,NA,49,NA,NA,3000,1,NA,NA,images/earth.jpg,images/rocket2,images/rocket1,null,images/rocket1,NA,1,real,null,NA,NA,1,NA,sub15
d3-animate-choice,148,762794,0.0-76.0-1.4,TRUE,TRUE,FALSE,TRUE,"""event"",""trial"",""time""
""fullscreenenter"",""5"",""28244""
","
","
","""event"",""trial"",""time""
""fullscreenenter"",""5"",""28244""
","
",1812.8400000000838,NA,49,NA,NA,3000,1,NA,NA,images/redplanet1.jpg,images/alien2,images/alien1,images/rocket1,images/alien1,images/t.png,2,real,true,1,2020-06-14T17:47:26Z,1,common,sub15
two-step-fixation,149,763799,0.0-76.0-2.4,TRUE,TRUE,FALSE,TRUE,"""event"",""trial"",""time""
""fullscreenenter"",""5"",""28244""
","
","
","""event"",""trial"",""time""
""fullscreenenter"",""5"",""28244""
","
",NA,images/earth.jpg,NA,NA,NA,NA,NA,NA,NA,NA,NA,NA,NA,NA,NA,fixation,NA,NA,NA,NA,NA,NA,sub15
d3-animate-choice,150,766322,0.0-76.0-0.5,TRUE,TRUE,FALSE,TRUE,"""event"",""trial"",""time""
""fullscreenenter"",""5"",""28244""
","
","
","""event"",""trial"",""time""
""fullscreenenter"",""5"",""28244""
","
",515.1300000000047,NA,48,NA,NA,3000,1,NA,NA,images/earth.jpg,images/rocket2,images/rocket1,null,images/rocket2,NA,1,real,null,NA,NA,2,NA,sub15
d3-animate-choice,151,769135,0.0-76.0-1.5,TRUE,TRUE,FALSE,TRUE,"""event"",""trial"",""time""
""fullscreenenter"",""5"",""28244""
","
","
","""event"",""trial"",""time""
""fullscreenenter"",""5"",""28244""
","
",807.9850000001024,NA,49,NA,NA,3000,1,NA,NA,images/redplanet1.jpg,images/alien2,images/alien1,images/rocket2,images/alien1,images/t.png,2,real,false,1,2020-06-14T17:47:33Z,1,rare,sub15
two-step-fixation,152,770138,0.0-76.0-2.5,TRUE,TRUE,FALSE,TRUE,"""event"",""trial"",""time""
""fullscreenenter"",""5"",""28244""
","
","
","""event"",""trial"",""time""
""fullscreenenter"",""5"",""28244""
","
",NA,images/earth.jpg,NA,NA,NA,NA,NA,NA,NA,NA,NA,NA,NA,NA,NA,fixation,NA,NA,NA,NA,NA,NA,sub15
d3-animate-choice,153,772973,0.0-76.0-0.6,TRUE,TRUE,FALSE,TRUE,"""event"",""trial"",""time""
""fullscreenenter"",""5"",""28244""
","
","
","""event"",""trial"",""time""
""fullscreenenter"",""5"",""28244""
","
",831.3850000000093,NA,49,NA,NA,3000,1,NA,NA,images/earth.jpg,images/rocket2,images/rocket1,null,images/rocket1,NA,1,real,null,NA,NA,1,NA,sub15
d3-animate-choice,154,776495,0.0-76.0-1.6,TRUE,TRUE,FALSE,TRUE,"""event"",""trial"",""time""
""fullscreenenter"",""5"",""28244""
","
","
","""event"",""trial"",""time""
""fullscreenenter"",""5"",""28244""
","
",1517.8649999999907,NA,49,NA,NA,3000,1,NA,NA,images/purpleplanet.jpg,images/alien4,images/alien3,images/rocket1,images/alien3,images/nothing.png,2,real,false,0,2020-06-14T17:47:40Z,1,rare,sub15
two-step-fixation,155,777499,0.0-76.0-2.6,TRUE,TRUE,FALSE,TRUE,"""event"",""trial"",""time""
""fullscreenenter"",""5"",""28244""
","
","
","""event"",""trial"",""time""
""fullscreenenter"",""5"",""28244""
","
",NA,images/earth.jpg,NA,NA,NA,NA,NA,NA,NA,NA,NA,NA,NA,NA,NA,fixation,NA,NA,NA,NA,NA,NA,sub15
d3-animate-choice,156,780193,0.0-76.0-0.7,TRUE,TRUE,FALSE,TRUE,"""event"",""trial"",""time""
""fullscreenenter"",""5"",""28244""
","
","
","""event"",""trial"",""time""
""fullscreenenter"",""5"",""28244""
","
",689.4150000001537,NA,48,NA,NA,3000,1,NA,NA,images/earth.jpg,images/rocket2,images/rocket1,null,images/rocket2,NA,1,real,null,NA,NA,2,NA,sub15
d3-animate-choice,157,783409,0.0-76.0-1.7,TRUE,TRUE,FALSE,TRUE,"""event"",""trial"",""time""
""fullscreenenter"",""5"",""28244""
","
","
","""event"",""trial"",""time""
""fullscreenenter"",""5"",""28244""
","
",1214.1650000000373,NA,48,NA,NA,3000,1,NA,NA,images/purpleplanet.jpg,images/alien4,images/alien3,images/rocket2,images/alien4,images/t.png,2,real,true,1,2020-06-14T17:47:47Z,2,common,sub15
two-step-fixation,158,784414,0.0-76.0-2.7,TRUE,TRUE,FALSE,TRUE,"""event"",""trial"",""time""
""fullscreenenter"",""5"",""28244""
","
","
","""event"",""trial"",""time""
""fullscreenenter"",""5"",""28244""
","
",NA,images/earth.jpg,NA,NA,NA,NA,NA,NA,NA,NA,NA,NA,NA,NA,NA,fixation,NA,NA,NA,NA,NA,NA,sub15
d3-animate-choice,159,787072,0.0-76.0-0.8,TRUE,TRUE,FALSE,TRUE,"""event"",""trial"",""time""
""fullscreenenter"",""5"",""28244""
","
","
","""event"",""trial"",""time""
""fullscreenenter"",""5"",""28244""
","
",655.5599999999395,NA,49,NA,NA,3000,1,NA,NA,images/earth.jpg,images/rocket2,images/rocket1,null,images/rocket1,NA,1,real,null,NA,NA,1,NA,sub15
d3-animate-choice,160,790373,0.0-76.0-1.8,TRUE,TRUE,FALSE,TRUE,"""event"",""trial"",""time""
""fullscreenenter"",""5"",""28244""
","
","
","""event"",""trial"",""time""
""fullscreenenter"",""5"",""28244""
","
",1293.6549999999115,NA,48,NA,NA,3000,1,NA,NA,images/redplanet1.jpg,images/alien2,images/alien1,images/rocket1,images/alien2,images/nothing.png,2,real,true,0,2020-06-14T17:47:54Z,2,common,sub15
two-step-fixation,161,791381,0.0-76.0-2.8,TRUE,TRUE,FALSE,TRUE,"""event"",""trial"",""time""
""fullscreenenter"",""5"",""28244""
","
","
","""event"",""trial"",""time""
""fullscreenenter"",""5"",""28244""
","
",NA,images/earth.jpg,NA,NA,NA,NA,NA,NA,NA,NA,NA,NA,NA,NA,NA,fixation,NA,NA,NA,NA,NA,NA,sub15
d3-animate-choice,162,793985,0.0-76.0-0.9,TRUE,TRUE,FALSE,TRUE,"""event"",""trial"",""time""
""fullscreenenter"",""5"",""28244""
","
","
","""event"",""trial"",""time""
""fullscreenenter"",""5"",""28244""
","
",600.5549999999348,NA,49,NA,NA,3000,1,NA,NA,images/earth.jpg,images/rocket2,images/rocket1,null,images/rocket1,NA,1,real,null,NA,NA,1,NA,sub15
d3-animate-choice,163,796793,0.0-76.0-1.9,TRUE,TRUE,FALSE,TRUE,"""event"",""trial"",""time""
""fullscreenenter"",""5"",""28244""
","
","
","""event"",""trial"",""time""
""fullscreenenter"",""5"",""28244""
","
",804.7300000000978,NA,48,NA,NA,3000,1,NA,NA,images/purpleplanet.jpg,images/alien4,images/alien3,images/rocket1,images/alien4,images/t.png,2,real,false,1,2020-06-14T17:48:00Z,2,rare,sub15
two-step-fixation,164,797798,0.0-76.0-2.9,TRUE,TRUE,FALSE,TRUE,"""event"",""trial"",""time""
""fullscreenenter"",""5"",""28244""
","
","
","""event"",""trial"",""time""
""fullscreenenter"",""5"",""28244""
","
",NA,images/earth.jpg,NA,NA,NA,NA,NA,NA,NA,NA,NA,NA,NA,NA,NA,fixation,NA,NA,NA,NA,NA,NA,sub15
d3-animate-choice,165,800840,0.0-76.0-0.10,TRUE,TRUE,FALSE,TRUE,"""event"",""trial"",""time""
""fullscreenenter"",""5"",""28244""
","
","
","""event"",""trial"",""time""
""fullscreenenter"",""5"",""28244""
","
",1037.1000000000931,NA,48,NA,NA,3000,1,NA,NA,images/earth.jpg,images/rocket2,images/rocket1,null,images/rocket2,NA,1,real,null,NA,NA,2,NA,sub15
d3-animate-choice,166,804399,0.0-76.0-1.10,TRUE,TRUE,FALSE,TRUE,"""event"",""trial"",""time""
""fullscreenenter"",""5"",""28244""
","
","
","""event"",""trial"",""time""
""fullscreenenter"",""5"",""28244""
","
",1552.9649999999674,NA,49,NA,NA,3000,1,NA,NA,images/redplanet1.jpg,images/alien2,images/alien1,images/rocket2,images/alien1,images/t.png,2,real,false,1,2020-06-14T17:48:08Z,1,rare,sub15
two-step-fixation,167,805403,0.0-76.0-2.10,TRUE,TRUE,FALSE,TRUE,"""event"",""trial"",""time""
""fullscreenenter"",""5"",""28244""
","
","
","""event"",""trial"",""time""
""fullscreenenter"",""5"",""28244""
","
",NA,images/earth.jpg,NA,NA,NA,NA,NA,NA,NA,NA,NA,NA,NA,NA,NA,fixation,NA,NA,NA,NA,NA,NA,sub15
d3-animate-choice,168,807986,0.0-76.0-0.11,TRUE,TRUE,FALSE,TRUE,"""event"",""trial"",""time""
""fullscreenenter"",""5"",""28244""
","
","
","""event"",""trial"",""time""
""fullscreenenter"",""5"",""28244""
","
",574.5950000000885,NA,48,NA,NA,3000,1,NA,NA,images/earth.jpg,images/rocket2,images/rocket1,null,images/rocket2,NA,1,real,null,NA,NA,2,NA,sub15
d3-animate-choice,169,811991,0.0-76.0-1.11,TRUE,TRUE,FALSE,TRUE,"""event"",""trial"",""time""
""fullscreenenter"",""5"",""28244""
","
","
","""event"",""trial"",""time""
""fullscreenenter"",""5"",""28244""
","
",2008.6449999999022,NA,49,NA,NA,3000,1,NA,NA,images/purpleplanet.jpg,images/alien4,images/alien3,images/rocket2,images/alien3,images/nothing.png,2,real,true,0,2020-06-14T17:48:16Z,1,common,sub15
two-step-fixation,170,812995,0.0-76.0-2.11,TRUE,TRUE,FALSE,TRUE,"""event"",""trial"",""time""
""fullscreenenter"",""5"",""28244""
","
","
","""event"",""trial"",""time""
""fullscreenenter"",""5"",""28244""
","
",NA,images/earth.jpg,NA,NA,NA,NA,NA,NA,NA,NA,NA,NA,NA,NA,NA,fixation,NA,NA,NA,NA,NA,NA,sub15
d3-animate-choice,171,815634,0.0-76.0-0.12,TRUE,TRUE,FALSE,TRUE,"""event"",""trial"",""time""
""fullscreenenter"",""5"",""28244""
","
","
","""event"",""trial"",""time""
""fullscreenenter"",""5"",""28244""
","
",634.0600000001723,NA,48,NA,NA,3000,1,NA,NA,images/earth.jpg,images/rocket2,images/rocket1,null,images/rocket2,NA,1,real,null,NA,NA,2,NA,sub15
d3-animate-choice,172,818811,0.0-76.0-1.12,TRUE,TRUE,FALSE,TRUE,"""event"",""trial"",""time""
""fullscreenenter"",""5"",""28244""
","
","
","""event"",""trial"",""time""
""fullscreenenter"",""5"",""28244""
","
",1173.8799999997718,NA,48,NA,NA,3000,1,NA,NA,images/purpleplanet.jpg,images/alien4,images/alien3,images/rocket2,images/alien4,images/t.png,2,real,true,1,2020-06-14T17:48:22Z,2,common,sub15
two-step-fixation,173,819815,0.0-76.0-2.12,TRUE,TRUE,FALSE,TRUE,"""event"",""trial"",""time""
""fullscreenenter"",""5"",""28244""
","
","
","""event"",""trial"",""time""
""fullscreenenter"",""5"",""28244""
","
",NA,images/earth.jpg,NA,NA,NA,NA,NA,NA,NA,NA,NA,NA,NA,NA,NA,fixation,NA,NA,NA,NA,NA,NA,sub15
d3-animate-choice,174,822829,0.0-76.0-0.13,TRUE,TRUE,FALSE,TRUE,"""event"",""trial"",""time""
""fullscreenenter"",""5"",""28244""
","
","
","""event"",""trial"",""time""
""fullscreenenter"",""5"",""28244""
","
",1010.6249999998836,NA,48,NA,NA,3000,1,NA,NA,images/earth.jpg,images/rocket2,images/rocket1,null,images/rocket2,NA,1,real,null,NA,NA,2,NA,sub15
d3-animate-choice,175,826358,0.0-76.0-1.13,TRUE,TRUE,FALSE,TRUE,"""event"",""trial"",""time""
""fullscreenenter"",""5"",""28244""
","
","
","""event"",""trial"",""time""
""fullscreenenter"",""5"",""28244""
","
",1522.3450000000885,NA,49,NA,NA,3000,1,NA,NA,images/redplanet1.jpg,images/alien2,images/alien1,images/rocket2,images/alien1,images/t.png,2,real,false,1,2020-06-14T17:48:30Z,1,rare,sub15
two-step-fixation,176,827366,0.0-76.0-2.13,TRUE,TRUE,FALSE,TRUE,"""event"",""trial"",""time""
""fullscreenenter"",""5"",""28244""
","
","
","""event"",""trial"",""time""
""fullscreenenter"",""5"",""28244""
","
",NA,images/earth.jpg,NA,NA,NA,NA,NA,NA,NA,NA,NA,NA,NA,NA,NA,fixation,NA,NA,NA,NA,NA,NA,sub15
d3-animate-choice,177,830410,0.0-76.0-0.14,TRUE,TRUE,FALSE,TRUE,"""event"",""trial"",""time""
""fullscreenenter"",""5"",""28244""
","
","
","""event"",""trial"",""time""
""fullscreenenter"",""5"",""28244""
","
",1041.6149999998743,NA,49,NA,NA,3000,1,NA,NA,images/earth.jpg,images/rocket2,images/rocket1,null,images/rocket1,NA,1,real,null,NA,NA,1,NA,sub15
d3-animate-choice,178,833538,0.0-76.0-1.14,TRUE,TRUE,FALSE,TRUE,"""event"",""trial"",""time""
""fullscreenenter"",""5"",""28244""
","
","
","""event"",""trial"",""time""
""fullscreenenter"",""5"",""28244""
","
",1122.3000000000466,NA,48,NA,NA,3000,1,NA,NA,images/redplanet1.jpg,images/alien2,images/alien1,images/rocket1,images/alien2,images/t.png,2,real,true,1,2020-06-14T17:48:37Z,2,common,sub15
two-step-fixation,179,834543,0.0-76.0-2.14,TRUE,TRUE,FALSE,TRUE,"""event"",""trial"",""time""
""fullscreenenter"",""5"",""28244""
","
","
","""event"",""trial"",""time""
""fullscreenenter"",""5"",""28244""
","
",NA,images/earth.jpg,NA,NA,NA,NA,NA,NA,NA,NA,NA,NA,NA,NA,NA,fixation,NA,NA,NA,NA,NA,NA,sub15
d3-animate-choice,180,837489,0.0-76.0-0.15,TRUE,TRUE,FALSE,TRUE,"""event"",""trial"",""time""
""fullscreenenter"",""5"",""28244""
","
","
","""event"",""trial"",""time""
""fullscreenenter"",""5"",""28244""
","
",942.1200000001118,NA,49,NA,NA,3000,1,NA,NA,images/earth.jpg,images/rocket2,images/rocket1,null,images/rocket1,NA,1,real,null,NA,NA,1,NA,sub15
d3-animate-choice,181,840516,0.0-76.0-1.15,TRUE,TRUE,FALSE,TRUE,"""event"",""trial"",""time""
""fullscreenenter"",""5"",""28244""
","
","
","""event"",""trial"",""time""
""fullscreenenter"",""5"",""28244""
","
",1023.6700000000419,NA,49,NA,NA,3000,1,NA,NA,images/redplanet1.jpg,images/alien2,images/alien1,images/rocket1,images/alien1,images/nothing.png,2,real,true,0,2020-06-14T17:48:44Z,1,common,sub15
two-step-fixation,182,841520,0.0-76.0-2.15,TRUE,TRUE,FALSE,TRUE,"""event"",""trial"",""time""
""fullscreenenter"",""5"",""28244""
","
","
","""event"",""trial"",""time""
""fullscreenenter"",""5"",""28244""
","
",NA,images/earth.jpg,NA,NA,NA,NA,NA,NA,NA,NA,NA,NA,NA,NA,NA,fixation,NA,NA,NA,NA,NA,NA,sub15
d3-animate-choice,183,844113,0.0-76.0-0.16,TRUE,TRUE,FALSE,TRUE,"""event"",""trial"",""time""
""fullscreenenter"",""5"",""28244""
","
","
","""event"",""trial"",""time""
""fullscreenenter"",""5"",""28244""
","
",589.315000000177,NA,48,NA,NA,3000,1,NA,NA,images/earth.jpg,images/rocket2,images/rocket1,null,images/rocket2,NA,1,real,null,NA,NA,2,NA,sub15
d3-animate-choice,184,847027,0.0-76.0-1.16,TRUE,TRUE,FALSE,TRUE,"""event"",""trial"",""time""
""fullscreenenter"",""5"",""28244""
","
","
","""event"",""trial"",""time""
""fullscreenenter"",""5"",""28244""
","
",908.7750000001397,NA,49,NA,NA,3000,1,NA,NA,images/purpleplanet.jpg,images/alien4,images/alien3,images/rocket2,images/alien3,images/t.png,2,real,true,1,2020-06-14T17:48:51Z,1,common,sub15
two-step-fixation,185,848031,0.0-76.0-2.16,TRUE,TRUE,FALSE,TRUE,"""event"",""trial"",""time""
""fullscreenenter"",""5"",""28244""
","
","
","""event"",""trial"",""time""
""fullscreenenter"",""5"",""28244""
","
",NA,images/earth.jpg,NA,NA,NA,NA,NA,NA,NA,NA,NA,NA,NA,NA,NA,fixation,NA,NA,NA,NA,NA,NA,sub15
d3-animate-choice,186,850680,0.0-76.0-0.17,TRUE,TRUE,FALSE,TRUE,"""event"",""trial"",""time""
""fullscreenenter"",""5"",""28244""
","
","
","""event"",""trial"",""time""
""fullscreenenter"",""5"",""28244""
","
",645.7050000000745,NA,49,NA,NA,3000,1,NA,NA,images/earth.jpg,images/rocket2,images/rocket1,null,images/rocket1,NA,1,real,null,NA,NA,1,NA,sub15
d3-animate-choice,187,853641,0.0-76.0-1.17,TRUE,TRUE,FALSE,TRUE,"""event"",""trial"",""time""
""fullscreenenter"",""5"",""28244""
","
","
","""event"",""trial"",""time""
""fullscreenenter"",""5"",""28244""
","
",953.8700000001118,NA,48,NA,NA,3000,1,NA,NA,images/redplanet1.jpg,images/alien2,images/alien1,images/rocket1,images/alien2,images/t.png,2,real,true,1,2020-06-14T17:48:57Z,2,common,sub15
two-step-fixation,188,854645,0.0-76.0-2.17,TRUE,TRUE,FALSE,TRUE,"""event"",""trial"",""time""
""fullscreenenter"",""5"",""28244""
","
","
","""event"",""trial"",""time""
""fullscreenenter"",""5"",""28244""
","
",NA,images/earth.jpg,NA,NA,NA,NA,NA,NA,NA,NA,NA,NA,NA,NA,NA,fixation,NA,NA,NA,NA,NA,NA,sub15
d3-animate-choice,189,857274,0.0-76.0-0.18,TRUE,TRUE,FALSE,TRUE,"""event"",""trial"",""time""
""fullscreenenter"",""5"",""28244""
","
","
","""event"",""trial"",""time""
""fullscreenenter"",""5"",""28244""
","
",620.7799999999115,NA,49,NA,NA,3000,1,NA,NA,images/earth.jpg,images/rocket2,images/rocket1,null,images/rocket1,NA,1,real,null,NA,NA,1,NA,sub15
d3-animate-choice,190,860038,0.0-76.0-1.18,TRUE,TRUE,FALSE,TRUE,"""event"",""trial"",""time""
""fullscreenenter"",""5"",""28244""
","
","
","""event"",""trial"",""time""
""fullscreenenter"",""5"",""28244""
","
",759.5450000001583,NA,48,NA,NA,3000,1,NA,NA,images/redplanet1.jpg,images/alien2,images/alien1,images/rocket1,images/alien2,images/t.png,2,real,true,1,2020-06-14T17:49:04Z,2,common,sub15
two-step-fixation,191,861042,0.0-76.0-2.18,TRUE,TRUE,FALSE,TRUE,"""event"",""trial"",""time""
""fullscreenenter"",""5"",""28244""
","
","
","""event"",""trial"",""time""
""fullscreenenter"",""5"",""28244""
","
",NA,images/earth.jpg,NA,NA,NA,NA,NA,NA,NA,NA,NA,NA,NA,NA,NA,fixation,NA,NA,NA,NA,NA,NA,sub15
d3-animate-choice,192,863642,0.0-76.0-0.19,TRUE,TRUE,FALSE,TRUE,"""event"",""trial"",""time""
""fullscreenenter"",""5"",""28244""
","
","
","""event"",""trial"",""time""
""fullscreenenter"",""5"",""28244""
","
",591.4449999999488,NA,49,NA,NA,3000,1,NA,NA,images/earth.jpg,images/rocket2,images/rocket1,null,images/rocket1,NA,1,real,null,NA,NA,1,NA,sub15
d3-animate-choice,193,866336,0.0-76.0-1.19,TRUE,TRUE,FALSE,TRUE,"""event"",""trial"",""time""
""fullscreenenter"",""5"",""28244""
","
","
","""event"",""trial"",""time""
""fullscreenenter"",""5"",""28244""
","
",687.9100000000326,NA,48,NA,NA,3000,1,NA,NA,images/purpleplanet.jpg,images/alien4,images/alien3,images/rocket1,images/alien4,images/t.png,2,real,false,1,2020-06-14T17:49:10Z,2,rare,sub15
two-step-fixation,194,867344,0.0-76.0-2.19,TRUE,TRUE,FALSE,TRUE,"""event"",""trial"",""time""
""fullscreenenter"",""5"",""28244""
","
","
","""event"",""trial"",""time""
""fullscreenenter"",""5"",""28244""
","
",NA,images/earth.jpg,NA,NA,NA,NA,NA,NA,NA,NA,NA,NA,NA,NA,NA,fixation,NA,NA,NA,NA,NA,NA,sub15
d3-animate-choice,195,870097,0.0-76.0-0.20,TRUE,TRUE,FALSE,TRUE,"""event"",""trial"",""time""
""fullscreenenter"",""5"",""28244""
","
","
","""event"",""trial"",""time""
""fullscreenenter"",""5"",""28244""
","
",748.3400000000838,NA,49,NA,NA,3000,1,NA,NA,images/earth.jpg,images/rocket2,images/rocket1,null,images/rocket1,NA,1,real,null,NA,NA,1,NA,sub15
d3-animate-choice,196,872570,0.0-76.0-1.20,TRUE,TRUE,FALSE,TRUE,"""event"",""trial"",""time""
""fullscreenenter"",""5"",""28244""
","
","
","""event"",""trial"",""time""
""fullscreenenter"",""5"",""28244""
","
",467.01000000012573,NA,48,NA,NA,3000,1,NA,NA,images/redplanet1.jpg,images/alien2,images/alien1,images/rocket1,images/alien2,images/t.png,2,real,true,1,2020-06-14T17:49:16Z,2,common,sub15
two-step-fixation,197,873573,0.0-76.0-2.20,TRUE,TRUE,FALSE,TRUE,"""event"",""trial"",""time""
""fullscreenenter"",""5"",""28244""
","
","
","""event"",""trial"",""time""
""fullscreenenter"",""5"",""28244""
","
",NA,images/earth.jpg,NA,NA,NA,NA,NA,NA,NA,NA,NA,NA,NA,NA,NA,fixation,NA,NA,NA,NA,NA,NA,sub15
d3-animate-choice,198,876056,0.0-76.0-0.21,TRUE,TRUE,FALSE,TRUE,"""event"",""trial"",""time""
""fullscreenenter"",""5"",""28244""
","
","
","""event"",""trial"",""time""
""fullscreenenter"",""5"",""28244""
","
",479.15500000002794,NA,49,NA,NA,3000,1,NA,NA,images/earth.jpg,images/rocket2,images/rocket1,null,images/rocket1,NA,1,real,null,NA,NA,1,NA,sub15
d3-animate-choice,199,878576,0.0-76.0-1.21,TRUE,TRUE,FALSE,TRUE,"""event"",""trial"",""time""
""fullscreenenter"",""5"",""28244""
","
","
","""event"",""trial"",""time""
""fullscreenenter"",""5"",""28244""
","
",515.6550000001444,NA,48,NA,NA,3000,1,NA,NA,images/purpleplanet.jpg,images/alien4,images/alien3,images/rocket1,images/alien4,images/t.png,2,real,false,1,2020-06-14T17:49:22Z,2,rare,sub15
two-step-fixation,200,879580,0.0-76.0-2.21,TRUE,TRUE,FALSE,TRUE,"""event"",""trial"",""time""
""fullscreenenter"",""5"",""28244""
","
","
","""event"",""trial"",""time""
""fullscreenenter"",""5"",""28244""
","
",NA,images/earth.jpg,NA,NA,NA,NA,NA,NA,NA,NA,NA,NA,NA,NA,NA,fixation,NA,NA,NA,NA,NA,NA,sub15
d3-animate-choice,201,882067,0.0-76.0-0.22,TRUE,TRUE,FALSE,TRUE,"""event"",""trial"",""time""
""fullscreenenter"",""5"",""28244""
","
","
","""event"",""trial"",""time""
""fullscreenenter"",""5"",""28244""
","
",479.32499999995343,NA,49,NA,NA,3000,1,NA,NA,images/earth.jpg,images/rocket2,images/rocket1,null,images/rocket1,NA,1,real,null,NA,NA,1,NA,sub15
d3-animate-choice,202,884839,0.0-76.0-1.22,TRUE,TRUE,FALSE,TRUE,"""event"",""trial"",""time""
""fullscreenenter"",""5"",""28244""
","
","
","""event"",""trial"",""time""
""fullscreenenter"",""5"",""28244""
","
",768.9149999999208,NA,48,NA,NA,3000,1,NA,NA,images/redplanet1.jpg,images/alien2,images/alien1,images/rocket1,images/alien2,images/t.png,2,real,true,1,2020-06-14T17:49:28Z,2,common,sub15
two-step-fixation,203,885844,0.0-76.0-2.22,TRUE,TRUE,FALSE,TRUE,"""event"",""trial"",""time""
""fullscreenenter"",""5"",""28244""
","
","
","""event"",""trial"",""time""
""fullscreenenter"",""5"",""28244""
","
",NA,images/earth.jpg,NA,NA,NA,NA,NA,NA,NA,NA,NA,NA,NA,NA,NA,fixation,NA,NA,NA,NA,NA,NA,sub15
d3-animate-choice,204,888347,0.0-76.0-0.23,TRUE,TRUE,FALSE,TRUE,"""event"",""trial"",""time""
""fullscreenenter"",""5"",""28244""
","
","
","""event"",""trial"",""time""
""fullscreenenter"",""5"",""28244""
","
",498.33500000007916,NA,48,NA,NA,3000,1,NA,NA,images/earth.jpg,images/rocket2,images/rocket1,null,images/rocket2,NA,1,real,null,NA,NA,2,NA,sub15
d3-animate-choice,205,891265,0.0-76.0-1.23,TRUE,TRUE,FALSE,TRUE,"""event"",""trial"",""time""
""fullscreenenter"",""5"",""28244""
","
","
","""event"",""trial"",""time""
""fullscreenenter"",""5"",""28244""
","
",912.2849999999162,NA,49,NA,NA,3000,1,NA,NA,images/purpleplanet.jpg,images/alien4,images/alien3,images/rocket2,images/alien3,images/t.png,2,real,true,1,2020-06-14T17:49:35Z,1,common,sub15
two-step-fixation,206,892271,0.0-76.0-2.23,TRUE,TRUE,FALSE,TRUE,"""event"",""trial"",""time""
""fullscreenenter"",""5"",""28244""
","
","
","""event"",""trial"",""time""
""fullscreenenter"",""5"",""28244""
","
",NA,images/earth.jpg,NA,NA,NA,NA,NA,NA,NA,NA,NA,NA,NA,NA,NA,fixation,NA,NA,NA,NA,NA,NA,sub15
d3-animate-choice,207,895232,0.0-76.0-0.24,TRUE,TRUE,FALSE,TRUE,"""event"",""trial"",""time""
""fullscreenenter"",""5"",""28244""
","
","
","""event"",""trial"",""time""
""fullscreenenter"",""5"",""28244""
","
",955.2800000001444,NA,48,NA,NA,3000,1,NA,NA,images/earth.jpg,images/rocket2,images/rocket1,null,images/rocket2,NA,1,real,null,NA,NA,2,NA,sub15
d3-animate-choice,208,899236,0.0-76.0-1.24,TRUE,TRUE,FALSE,TRUE,"""event"",""trial"",""time""
""fullscreenenter"",""5"",""28244""
","
","
","""event"",""trial"",""time""
""fullscreenenter"",""5"",""28244""
","
",2331.5,NA,49,NA,NA,3000,1,NA,NA,images/redplanet1.jpg,images/alien2,images/alien1,images/rocket2,images/alien1,images/t.png,2,real,false,1,2020-06-14T17:49:43Z,1,rare,sub15
two-step-fixation,209,900240,0.0-76.0-2.24,TRUE,TRUE,FALSE,TRUE,"""event"",""trial"",""time""
""fullscreenenter"",""5"",""28244""
","
","
","""event"",""trial"",""time""
""fullscreenenter"",""5"",""28244""
","
",NA,images/earth.jpg,NA,NA,NA,NA,NA,NA,NA,NA,NA,NA,NA,NA,NA,fixation,NA,NA,NA,NA,NA,NA,sub15
d3-animate-choice,210,902712,0.0-76.0-0.25,TRUE,TRUE,FALSE,TRUE,"""event"",""trial"",""time""
""fullscreenenter"",""5"",""28244""
","
","
","""event"",""trial"",""time""
""fullscreenenter"",""5"",""28244""
","
",467.22500000009313,NA,48,NA,NA,3000,1,NA,NA,images/earth.jpg,images/rocket2,images/rocket1,null,images/rocket2,NA,1,real,null,NA,NA,2,NA,sub15
d3-animate-choice,211,905433,0.0-76.0-1.25,TRUE,TRUE,FALSE,TRUE,"""event"",""trial"",""time""
""fullscreenenter"",""5"",""28244""
","
","
","""event"",""trial"",""time""
""fullscreenenter"",""5"",""28244""
","
",715.7999999999302,NA,49,NA,NA,3000,1,NA,NA,images/purpleplanet.jpg,images/alien4,images/alien3,images/rocket2,images/alien3,images/nothing.png,2,real,true,0,2020-06-14T17:49:49Z,1,common,sub15
two-step-fixation,212,906436,0.0-76.0-2.25,TRUE,TRUE,FALSE,TRUE,"""event"",""trial"",""time""
""fullscreenenter"",""5"",""28244""
","
","
","""event"",""trial"",""time""
""fullscreenenter"",""5"",""28244""
","
",NA,images/earth.jpg,NA,NA,NA,NA,NA,NA,NA,NA,NA,NA,NA,NA,NA,fixation,NA,NA,NA,NA,NA,NA,sub15
d3-animate-choice,213,908833,0.0-76.0-0.26,TRUE,TRUE,FALSE,TRUE,"""event"",""trial"",""time""
""fullscreenenter"",""5"",""28244""
","
","
","""event"",""trial"",""time""
""fullscreenenter"",""5"",""28244""
","
",391.19499999983236,NA,48,NA,NA,3000,1,NA,NA,images/earth.jpg,images/rocket2,images/rocket1,null,images/rocket2,NA,1,real,null,NA,NA,2,NA,sub15
d3-animate-choice,214,912178,0.0-76.0-1.26,TRUE,TRUE,FALSE,TRUE,"""event"",""trial"",""time""
""fullscreenenter"",""5"",""28244""
","
","
","""event"",""trial"",""time""
""fullscreenenter"",""5"",""28244""
","
",1340.9749999998603,NA,48,NA,NA,3000,1,NA,NA,images/purpleplanet.jpg,images/alien4,images/alien3,images/rocket2,images/alien4,images/t.png,2,real,true,1,2020-06-14T17:49:56Z,2,common,sub15
two-step-fixation,215,913181,0.0-76.0-2.26,TRUE,TRUE,FALSE,TRUE,"""event"",""trial"",""time""
""fullscreenenter"",""5"",""28244""
","
","
","""event"",""trial"",""time""
""fullscreenenter"",""5"",""28244""
","
",NA,images/earth.jpg,NA,NA,NA,NA,NA,NA,NA,NA,NA,NA,NA,NA,NA,fixation,NA,NA,NA,NA,NA,NA,sub15
d3-animate-choice,216,916054,0.0-76.0-0.27,TRUE,TRUE,FALSE,TRUE,"""event"",""trial"",""time""
""fullscreenenter"",""5"",""28244""
","
","
","""event"",""trial"",""time""
""fullscreenenter"",""5"",""28244""
","
",870.6299999998882,NA,49,NA,NA,3000,1,NA,NA,images/earth.jpg,images/rocket2,images/rocket1,null,images/rocket1,NA,1,real,null,NA,NA,1,NA,sub15
d3-animate-choice,217,918575,0.0-76.0-1.27,TRUE,TRUE,FALSE,TRUE,"""event"",""trial"",""time""
""fullscreenenter"",""5"",""28244""
","
","
","""event"",""trial"",""time""
""fullscreenenter"",""5"",""28244""
","
",516.4000000000233,NA,48,NA,NA,3000,1,NA,NA,images/redplanet1.jpg,images/alien2,images/alien1,images/rocket1,images/alien2,images/t.png,2,real,true,1,2020-06-14T17:50:02Z,2,common,sub15
two-step-fixation,218,919578,0.0-76.0-2.27,TRUE,TRUE,FALSE,TRUE,"""event"",""trial"",""time""
""fullscreenenter"",""5"",""28244""
","
","
","""event"",""trial"",""time""
""fullscreenenter"",""5"",""28244""
","
",NA,images/earth.jpg,NA,NA,NA,NA,NA,NA,NA,NA,NA,NA,NA,NA,NA,fixation,NA,NA,NA,NA,NA,NA,sub15
d3-animate-choice,219,922089,0.0-76.0-0.28,TRUE,TRUE,FALSE,TRUE,"""event"",""trial"",""time""
""fullscreenenter"",""5"",""28244""
","
","
","""event"",""trial"",""time""
""fullscreenenter"",""5"",""28244""
","
",505.5800000000745,NA,49,NA,NA,3000,1,NA,NA,images/earth.jpg,images/rocket2,images/rocket1,null,images/rocket1,NA,1,real,null,NA,NA,1,NA,sub15
d3-animate-choice,220,924511,0.0-76.0-1.28,TRUE,TRUE,FALSE,TRUE,"""event"",""trial"",""time""
""fullscreenenter"",""5"",""28244""
","
","
","""event"",""trial"",""time""
""fullscreenenter"",""5"",""28244""
","
",417.9549999999581,NA,48,NA,NA,3000,1,NA,NA,images/redplanet1.jpg,images/alien2,images/alien1,images/rocket1,images/alien2,images/t.png,2,real,true,1,2020-06-14T17:50:08Z,2,common,sub15
two-step-fixation,221,925515,0.0-76.0-2.28,TRUE,TRUE,FALSE,TRUE,"""event"",""trial"",""time""
""fullscreenenter"",""5"",""28244""
","
","
","""event"",""trial"",""time""
""fullscreenenter"",""5"",""28244""
","
",NA,images/earth.jpg,NA,NA,NA,NA,NA,NA,NA,NA,NA,NA,NA,NA,NA,fixation,NA,NA,NA,NA,NA,NA,sub15
d3-animate-choice,222,927958,0.0-76.0-0.29,TRUE,TRUE,FALSE,TRUE,"""event"",""trial"",""time""
""fullscreenenter"",""5"",""28244""
","
","
","""event"",""trial"",""time""
""fullscreenenter"",""5"",""28244""
","
",439.8900000001304,NA,49,NA,NA,3000,1,NA,NA,images/earth.jpg,images/rocket2,images/rocket1,null,images/rocket1,NA,1,real,null,NA,NA,1,NA,sub15
d3-animate-choice,223,930647,0.0-76.0-1.29,TRUE,TRUE,FALSE,TRUE,"""event"",""trial"",""time""
""fullscreenenter"",""5"",""28244""
","
","
","""event"",""trial"",""time""
""fullscreenenter"",""5"",""28244""
","
",684.359999999986,NA,48,NA,NA,3000,1,NA,NA,images/redplanet1.jpg,images/alien2,images/alien1,images/rocket1,images/alien2,images/t.png,2,real,true,1,2020-06-14T17:50:14Z,2,common,sub15
two-step-fixation,224,931652,0.0-76.0-2.29,TRUE,TRUE,FALSE,TRUE,"""event"",""trial"",""time""
""fullscreenenter"",""5"",""28244""
","
","
","""event"",""trial"",""time""
""fullscreenenter"",""5"",""28244""
","
",NA,images/earth.jpg,NA,NA,NA,NA,NA,NA,NA,NA,NA,NA,NA,NA,NA,fixation,NA,NA,NA,NA,NA,NA,sub15
d3-animate-choice,225,934107,0.0-76.0-0.30,TRUE,TRUE,FALSE,TRUE,"""event"",""trial"",""time""
""fullscreenenter"",""5"",""28244""
","
","
","""event"",""trial"",""time""
""fullscreenenter"",""5"",""28244""
","
",449.38500000012573,NA,48,NA,NA,3000,1,NA,NA,images/earth.jpg,images/rocket2,images/rocket1,null,images/rocket2,NA,1,real,null,NA,NA,2,NA,sub15
d3-animate-choice,226,936987,0.0-76.0-1.30,TRUE,TRUE,FALSE,TRUE,"""event"",""trial"",""time""
""fullscreenenter"",""5"",""28244""
","
","
","""event"",""trial"",""time""
""fullscreenenter"",""5"",""28244""
","
",871.8350000001956,NA,48,NA,NA,3000,1,NA,NA,images/redplanet1.jpg,images/alien2,images/alien1,images/rocket2,images/alien2,images/t.png,2,real,false,1,2020-06-14T17:50:21Z,2,rare,sub15
two-step-fixation,227,937991,0.0-76.0-2.30,TRUE,TRUE,FALSE,TRUE,"""event"",""trial"",""time""
""fullscreenenter"",""5"",""28244""
","
","
","""event"",""trial"",""time""
""fullscreenenter"",""5"",""28244""
","
",NA,images/earth.jpg,NA,NA,NA,NA,NA,NA,NA,NA,NA,NA,NA,NA,NA,fixation,NA,NA,NA,NA,NA,NA,sub15
d3-animate-choice,228,940948,0.0-76.0-0.31,TRUE,TRUE,FALSE,TRUE,"""event"",""trial"",""time""
""fullscreenenter"",""5"",""28244""
","
","
","""event"",""trial"",""time""
""fullscreenenter"",""5"",""28244""
","
",952.6599999999162,NA,49,NA,NA,3000,1,NA,NA,images/earth.jpg,images/rocket2,images/rocket1,null,images/rocket1,NA,1,real,null,NA,NA,1,NA,sub15
d3-animate-choice,229,943755,0.0-76.0-1.31,TRUE,TRUE,FALSE,TRUE,"""event"",""trial"",""time""
""fullscreenenter"",""5"",""28244""
","
","
","""event"",""trial"",""time""
""fullscreenenter"",""5"",""28244""
","
",803.6899999999441,NA,48,NA,NA,3000,1,NA,NA,images/redplanet1.jpg,images/alien2,images/alien1,images/rocket1,images/alien2,images/t.png,2,real,true,1,2020-06-14T17:50:27Z,2,common,sub15
two-step-fixation,230,944757,0.0-76.0-2.31,TRUE,TRUE,FALSE,TRUE,"""event"",""trial"",""time""
""fullscreenenter"",""5"",""28244""
","
","
","""event"",""trial"",""time""
""fullscreenenter"",""5"",""28244""
","
",NA,images/earth.jpg,NA,NA,NA,NA,NA,NA,NA,NA,NA,NA,NA,NA,NA,fixation,NA,NA,NA,NA,NA,NA,sub15
d3-animate-choice,231,947534,0.0-76.0-0.32,TRUE,TRUE,FALSE,TRUE,"""event"",""trial"",""time""
""fullscreenenter"",""5"",""28244""
","
","
","""event"",""trial"",""time""
""fullscreenenter"",""5"",""28244""
","
",771.2699999999022,NA,49,NA,NA,3000,1,NA,NA,images/earth.jpg,images/rocket2,images/rocket1,null,images/rocket1,NA,1,real,null,NA,NA,1,NA,sub15
d3-animate-choice,232,950133,0.0-76.0-1.32,TRUE,TRUE,FALSE,TRUE,"""event"",""trial"",""time""
""fullscreenenter"",""5"",""28244""
","
","
","""event"",""trial"",""time""
""fullscreenenter"",""5"",""28244""
","
",594.2599999998929,NA,48,NA,NA,3000,1,NA,NA,images/redplanet1.jpg,images/alien2,images/alien1,images/rocket1,images/alien2,images/t.png,2,real,true,1,2020-06-14T17:50:34Z,2,common,sub15
two-step-fixation,233,951136,0.0-76.0-2.32,TRUE,TRUE,FALSE,TRUE,"""event"",""trial"",""time""
""fullscreenenter"",""5"",""28244""
","
","
","""event"",""trial"",""time""
""fullscreenenter"",""5"",""28244""
","
",NA,images/earth.jpg,NA,NA,NA,NA,NA,NA,NA,NA,NA,NA,NA,NA,NA,fixation,NA,NA,NA,NA,NA,NA,sub15
d3-animate-choice,234,953605,0.0-76.0-0.33,TRUE,TRUE,FALSE,TRUE,"""event"",""trial"",""time""
""fullscreenenter"",""5"",""28244""
","
","
","""event"",""trial"",""time""
""fullscreenenter"",""5"",""28244""
","
",464.660000000149,NA,49,NA,NA,3000,1,NA,NA,images/earth.jpg,images/rocket2,images/rocket1,null,images/rocket1,NA,1,real,null,NA,NA,1,NA,sub15
d3-animate-choice,235,956159,0.0-76.0-1.33,TRUE,TRUE,FALSE,TRUE,"""event"",""trial"",""time""
""fullscreenenter"",""5"",""28244""
","
","
","""event"",""trial"",""time""
""fullscreenenter"",""5"",""28244""
","
",548.5,NA,48,NA,NA,3000,1,NA,NA,images/purpleplanet.jpg,images/alien4,images/alien3,images/rocket1,images/alien4,images/nothing.png,2,real,false,0,2020-06-14T17:50:40Z,2,rare,sub15
two-step-fixation,236,957163,0.0-76.0-2.33,TRUE,TRUE,FALSE,TRUE,"""event"",""trial"",""time""
""fullscreenenter"",""5"",""28244""
","
","
","""event"",""trial"",""time""
""fullscreenenter"",""5"",""28244""
","
",NA,images/earth.jpg,NA,NA,NA,NA,NA,NA,NA,NA,NA,NA,NA,NA,NA,fixation,NA,NA,NA,NA,NA,NA,sub15
d3-animate-choice,237,960073,0.0-76.0-0.34,TRUE,TRUE,FALSE,TRUE,"""event"",""trial"",""time""
""fullscreenenter"",""5"",""28244""
","
","
","""event"",""trial"",""time""
""fullscreenenter"",""5"",""28244""
","
",903.0949999998556,NA,49,NA,NA,3000,1,NA,NA,images/earth.jpg,images/rocket2,images/rocket1,null,images/rocket1,NA,1,real,null,NA,NA,1,NA,sub15
d3-animate-choice,238,963062,0.0-76.0-1.34,TRUE,TRUE,FALSE,TRUE,"""event"",""trial"",""time""
""fullscreenenter"",""5"",""28244""
","
","
","""event"",""trial"",""time""
""fullscreenenter"",""5"",""28244""
","
",986.7550000000047,NA,48,NA,NA,3000,1,NA,NA,images/purpleplanet.jpg,images/alien4,images/alien3,images/rocket1,images/alien4,images/nothing.png,2,real,false,0,2020-06-14T17:50:47Z,2,rare,sub15
two-step-fixation,239,964066,0.0-76.0-2.34,TRUE,TRUE,FALSE,TRUE,"""event"",""trial"",""time""
""fullscreenenter"",""5"",""28244""
","
","
","""event"",""trial"",""time""
""fullscreenenter"",""5"",""28244""
","
",NA,images/earth.jpg,NA,NA,NA,NA,NA,NA,NA,NA,NA,NA,NA,NA,NA,fixation,NA,NA,NA,NA,NA,NA,sub15
d3-animate-choice,240,966556,0.0-76.0-0.35,TRUE,TRUE,FALSE,TRUE,"""event"",""trial"",""time""
""fullscreenenter"",""5"",""28244""
","
","
","""event"",""trial"",""time""
""fullscreenenter"",""5"",""28244""
","
",483.89999999990687,NA,48,NA,NA,3000,1,NA,NA,images/earth.jpg,images/rocket2,images/rocket1,null,images/rocket2,NA,1,real,null,NA,NA,2,NA,sub15
d3-animate-choice,241,969095,0.0-76.0-1.35,TRUE,TRUE,FALSE,TRUE,"""event"",""trial"",""time""
""fullscreenenter"",""5"",""28244""
","
","
","""event"",""trial"",""time""
""fullscreenenter"",""5"",""28244""
","
",534.9100000000326,NA,48,NA,NA,3000,1,NA,NA,images/redplanet1.jpg,images/alien2,images/alien1,images/rocket2,images/alien2,images/nothing.png,2,real,false,0,2020-06-14T17:50:53Z,2,rare,sub15
two-step-fixation,242,970098,0.0-76.0-2.35,TRUE,TRUE,FALSE,TRUE,"""event"",""trial"",""time""
""fullscreenenter"",""5"",""28244""
","
","
","""event"",""trial"",""time""
""fullscreenenter"",""5"",""28244""
","
",NA,images/earth.jpg,NA,NA,NA,NA,NA,NA,NA,NA,NA,NA,NA,NA,NA,fixation,NA,NA,NA,NA,NA,NA,sub15
d3-animate-choice,243,973667,0.0-76.0-0.36,TRUE,TRUE,FALSE,TRUE,"""event"",""trial"",""time""
""fullscreenenter"",""5"",""28244""
","
","
","""event"",""trial"",""time""
""fullscreenenter"",""5"",""28244""
","
",1563.0050000000047,NA,48,NA,NA,3000,1,NA,NA,images/earth.jpg,images/rocket2,images/rocket1,null,images/rocket2,NA,1,real,null,NA,NA,2,NA,sub15
d3-animate-choice,244,977048,0.0-76.0-1.36,TRUE,TRUE,FALSE,TRUE,"""event"",""trial"",""time""
""fullscreenenter"",""5"",""28244""
","
","
","""event"",""trial"",""time""
""fullscreenenter"",""5"",""28244""
","
",1377.5800000000745,NA,49,NA,NA,3000,1,NA,NA,images/redplanet1.jpg,images/alien2,images/alien1,images/rocket2,images/alien1,images/t.png,2,real,false,1,2020-06-14T17:51:01Z,1,rare,sub15
two-step-fixation,245,978052,0.0-76.0-2.36,TRUE,TRUE,FALSE,TRUE,"""event"",""trial"",""time""
""fullscreenenter"",""5"",""28244""
","
","
","""event"",""trial"",""time""
""fullscreenenter"",""5"",""28244""
","
",NA,images/earth.jpg,NA,NA,NA,NA,NA,NA,NA,NA,NA,NA,NA,NA,NA,fixation,NA,NA,NA,NA,NA,NA,sub15
d3-animate-choice,246,981008,0.0-76.0-0.37,TRUE,TRUE,FALSE,TRUE,"""event"",""trial"",""time""
""fullscreenenter"",""5"",""28244""
","
","
","""event"",""trial"",""time""
""fullscreenenter"",""5"",""28244""
","
",951.2549999998882,NA,48,NA,NA,3000,1,NA,NA,images/earth.jpg,images/rocket2,images/rocket1,null,images/rocket2,NA,1,real,null,NA,NA,2,NA,sub15
d3-animate-choice,247,984209,0.0-76.0-1.37,TRUE,TRUE,FALSE,TRUE,"""event"",""trial"",""time""
""fullscreenenter"",""5"",""28244""
","
","
","""event"",""trial"",""time""
""fullscreenenter"",""5"",""28244""
","
",1195.3949999999022,NA,49,NA,NA,3000,1,NA,NA,images/purpleplanet.jpg,images/alien4,images/alien3,images/rocket2,images/alien3,images/nothing.png,2,real,true,0,2020-06-14T17:51:08Z,1,common,sub15
two-step-fixation,248,985214,0.0-76.0-2.37,TRUE,TRUE,FALSE,TRUE,"""event"",""trial"",""time""
""fullscreenenter"",""5"",""28244""
","
","
","""event"",""trial"",""time""
""fullscreenenter"",""5"",""28244""
","
",NA,images/earth.jpg,NA,NA,NA,NA,NA,NA,NA,NA,NA,NA,NA,NA,NA,fixation,NA,NA,NA,NA,NA,NA,sub15
d3-animate-choice,249,987889,0.0-76.0-0.38,TRUE,TRUE,FALSE,TRUE,"""event"",""trial"",""time""
""fullscreenenter"",""5"",""28244""
","
","
","""event"",""trial"",""time""
""fullscreenenter"",""5"",""28244""
","
",671.5849999999627,NA,49,NA,NA,3000,1,NA,NA,images/earth.jpg,images/rocket2,images/rocket1,null,images/rocket1,NA,1,real,null,NA,NA,1,NA,sub15
d3-animate-choice,250,991006,0.0-76.0-1.38,TRUE,TRUE,FALSE,TRUE,"""event"",""trial"",""time""
""fullscreenenter"",""5"",""28244""
","
","
","""event"",""trial"",""time""
""fullscreenenter"",""5"",""28244""
","
",1113.7399999999907,NA,49,NA,NA,3000,1,NA,NA,images/redplanet1.jpg,images/alien2,images/alien1,images/rocket1,images/alien1,images/t.png,2,real,true,1,2020-06-14T17:51:15Z,1,common,sub15
two-step-fixation,251,992012,0.0-76.0-2.38,TRUE,TRUE,FALSE,TRUE,"""event"",""trial"",""time""
""fullscreenenter"",""5"",""28244""
","
","
","""event"",""trial"",""time""
""fullscreenenter"",""5"",""28244""
","
",NA,images/earth.jpg,NA,NA,NA,NA,NA,NA,NA,NA,NA,NA,NA,NA,NA,fixation,NA,NA,NA,NA,NA,NA,sub15
d3-animate-choice,252,994385,0.0-76.0-0.39,TRUE,TRUE,FALSE,TRUE,"""event"",""trial"",""time""
""fullscreenenter"",""5"",""28244""
","
","
","""event"",""trial"",""time""
""fullscreenenter"",""5"",""28244""
","
",369.65500000014435,NA,49,NA,NA,3000,1,NA,NA,images/earth.jpg,images/rocket2,images/rocket1,null,images/rocket1,NA,1,real,null,NA,NA,1,NA,sub15
d3-animate-choice,253,997101,0.0-76.0-1.39,TRUE,TRUE,FALSE,TRUE,"""event"",""trial"",""time""
""fullscreenenter"",""5"",""28244""
","
","
","""event"",""trial"",""time""
""fullscreenenter"",""5"",""28244""
","
",713.4800000000978,NA,49,NA,NA,3000,1,NA,NA,images/redplanet1.jpg,images/alien2,images/alien1,images/rocket1,images/alien1,images/nothing.png,2,real,true,0,2020-06-14T17:51:21Z,1,common,sub15
two-step-fixation,254,998105,0.0-76.0-2.39,TRUE,TRUE,FALSE,TRUE,"""event"",""trial"",""time""
""fullscreenenter"",""5"",""28244""
","
","
","""event"",""trial"",""time""
""fullscreenenter"",""5"",""28244""
","
",NA,images/earth.jpg,NA,NA,NA,NA,NA,NA,NA,NA,NA,NA,NA,NA,NA,fixation,NA,NA,NA,NA,NA,NA,sub15
d3-animate-choice,255,1001977,0.0-76.0-0.40,TRUE,TRUE,FALSE,TRUE,"""event"",""trial"",""time""
""fullscreenenter"",""5"",""28244""
","
","
","""event"",""trial"",""time""
""fullscreenenter"",""5"",""28244""
","
",1866.6400000002468,NA,49,NA,NA,3000,1,NA,NA,images/earth.jpg,images/rocket2,images/rocket1,null,images/rocket1,NA,1,real,null,NA,NA,1,NA,sub15
d3-animate-choice,256,1004573,0.0-76.0-1.40,TRUE,TRUE,FALSE,TRUE,"""event"",""trial"",""time""
""fullscreenenter"",""5"",""28244""
","
","
","""event"",""trial"",""time""
""fullscreenenter"",""5"",""28244""
","
",591.5149999997811,NA,48,NA,NA,3000,1,NA,NA,images/redplanet1.jpg,images/alien2,images/alien1,images/rocket1,images/alien2,images/t.png,2,real,true,1,2020-06-14T17:51:28Z,2,common,sub15
two-step-fixation,257,1005578,0.0-76.0-2.40,TRUE,TRUE,FALSE,TRUE,"""event"",""trial"",""time""
""fullscreenenter"",""5"",""28244""
","
","
","""event"",""trial"",""time""
""fullscreenenter"",""5"",""28244""
","
",NA,images/earth.jpg,NA,NA,NA,NA,NA,NA,NA,NA,NA,NA,NA,NA,NA,fixation,NA,NA,NA,NA,NA,NA,sub15
d3-animate-choice,258,1008253,0.0-76.0-0.41,TRUE,TRUE,FALSE,TRUE,"""event"",""trial"",""time""
""fullscreenenter"",""5"",""28244""
","
","
","""event"",""trial"",""time""
""fullscreenenter"",""5"",""28244""
","
",669.0850000000792,NA,49,NA,NA,3000,1,NA,NA,images/earth.jpg,images/rocket2,images/rocket1,null,images/rocket1,NA,1,real,null,NA,NA,1,NA,sub15
d3-animate-choice,259,1011082,0.0-76.0-1.41,TRUE,TRUE,FALSE,TRUE,"""event"",""trial"",""time""
""fullscreenenter"",""5"",""28244""
","
","
","""event"",""trial"",""time""
""fullscreenenter"",""5"",""28244""
","
",826.1199999999953,NA,48,NA,NA,3000,1,NA,NA,images/redplanet1.jpg,images/alien2,images/alien1,images/rocket1,images/alien2,images/t.png,2,real,true,1,2020-06-14T17:51:35Z,2,common,sub15
two-step-fixation,260,1012085,0.0-76.0-2.41,TRUE,TRUE,FALSE,TRUE,"""event"",""trial"",""time""
""fullscreenenter"",""5"",""28244""
","
","
","""event"",""trial"",""time""
""fullscreenenter"",""5"",""28244""
","
",NA,images/earth.jpg,NA,NA,NA,NA,NA,NA,NA,NA,NA,NA,NA,NA,NA,fixation,NA,NA,NA,NA,NA,NA,sub15
d3-animate-choice,261,1014522,0.0-76.0-0.42,TRUE,TRUE,FALSE,TRUE,"""event"",""trial"",""time""
""fullscreenenter"",""5"",""28244""
","
","
","""event"",""trial"",""time""
""fullscreenenter"",""5"",""28244""
","
",433.1699999999255,NA,49,NA,NA,3000,1,NA,NA,images/earth.jpg,images/rocket2,images/rocket1,null,images/rocket1,NA,1,real,null,NA,NA,1,NA,sub15
d3-animate-choice,262,1016989,0.0-76.0-1.42,TRUE,TRUE,FALSE,TRUE,"""event"",""trial"",""time""
""fullscreenenter"",""5"",""28244""
","
","
","""event"",""trial"",""time""
""fullscreenenter"",""5"",""28244""
","
",461.05999999982305,NA,48,NA,NA,3000,1,NA,NA,images/redplanet1.jpg,images/alien2,images/alien1,images/rocket1,images/alien2,images/nothing.png,2,real,true,0,2020-06-14T17:51:41Z,2,common,sub15
two-step-fixation,263,1017992,0.0-76.0-2.42,TRUE,TRUE,FALSE,TRUE,"""event"",""trial"",""time""
""fullscreenenter"",""5"",""28244""
","
","
","""event"",""trial"",""time""
""fullscreenenter"",""5"",""28244""
","
",NA,images/earth.jpg,NA,NA,NA,NA,NA,NA,NA,NA,NA,NA,NA,NA,NA,fixation,NA,NA,NA,NA,NA,NA,sub15
d3-animate-choice,264,1020378,0.0-76.0-0.43,TRUE,TRUE,FALSE,TRUE,"""event"",""trial"",""time""
""fullscreenenter"",""5"",""28244""
","
","
","""event"",""trial"",""time""
""fullscreenenter"",""5"",""28244""
","
",382.39000000001397,NA,49,NA,NA,3000,1,NA,NA,images/earth.jpg,images/rocket2,images/rocket1,null,images/rocket1,NA,1,real,null,NA,NA,1,NA,sub15
d3-animate-choice,265,1023977,0.0-76.0-1.43,TRUE,TRUE,FALSE,TRUE,"""event"",""trial"",""time""
""fullscreenenter"",""5"",""28244""
","
","
","""event"",""trial"",""time""
""fullscreenenter"",""5"",""28244""
","
",1591.2750000000233,NA,49,NA,NA,3000,1,NA,NA,images/redplanet1.jpg,images/alien2,images/alien1,images/rocket1,images/alien1,images/t.png,2,real,true,1,2020-06-14T17:51:48Z,1,common,sub15
two-step-fixation,266,1024982,0.0-76.0-2.43,TRUE,TRUE,FALSE,TRUE,"""event"",""trial"",""time""
""fullscreenenter"",""5"",""28244""
","
","
","""event"",""trial"",""time""
""fullscreenenter"",""5"",""28244""
","
",NA,images/earth.jpg,NA,NA,NA,NA,NA,NA,NA,NA,NA,NA,NA,NA,NA,fixation,NA,NA,NA,NA,NA,NA,sub15
d3-animate-choice,267,1027745,0.0-76.0-0.44,TRUE,TRUE,FALSE,TRUE,"""event"",""trial"",""time""
""fullscreenenter"",""5"",""28244""
","
","
","""event"",""trial"",""time""
""fullscreenenter"",""5"",""28244""
","
",759.0649999999441,NA,49,NA,NA,3000,1,NA,NA,images/earth.jpg,images/rocket2,images/rocket1,null,images/rocket1,NA,1,real,null,NA,NA,1,NA,sub15
d3-animate-choice,268,1030796,0.0-76.0-1.44,TRUE,TRUE,FALSE,TRUE,"""event"",""trial"",""time""
""fullscreenenter"",""5"",""28244""
","
","
","""event"",""trial"",""time""
""fullscreenenter"",""5"",""28244""
","
",1046.520000000135,NA,49,NA,NA,3000,1,NA,NA,images/redplanet1.jpg,images/alien2,images/alien1,images/rocket1,images/alien1,images/t.png,2,real,true,1,2020-06-14T17:51:54Z,1,common,sub15
two-step-fixation,269,1031801,0.0-76.0-2.44,TRUE,TRUE,FALSE,TRUE,"""event"",""trial"",""time""
""fullscreenenter"",""5"",""28244""
","
","
","""event"",""trial"",""time""
""fullscreenenter"",""5"",""28244""
","
",NA,images/earth.jpg,NA,NA,NA,NA,NA,NA,NA,NA,NA,NA,NA,NA,NA,fixation,NA,NA,NA,NA,NA,NA,sub15
d3-animate-choice,270,1034250,0.0-76.0-0.45,TRUE,TRUE,FALSE,TRUE,"""event"",""trial"",""time""
""fullscreenenter"",""5"",""28244""
","
","
","""event"",""trial"",""time""
""fullscreenenter"",""5"",""28244""
","
",443.0450000000419,NA,49,NA,NA,3000,1,NA,NA,images/earth.jpg,images/rocket2,images/rocket1,null,images/rocket1,NA,1,real,null,NA,NA,1,NA,sub15
d3-animate-choice,271,1036871,0.0-76.0-1.45,TRUE,TRUE,FALSE,TRUE,"""event"",""trial"",""time""
""fullscreenenter"",""5"",""28244""
","
","
","""event"",""trial"",""time""
""fullscreenenter"",""5"",""28244""
","
",618.2200000000885,NA,48,NA,NA,3000,1,NA,NA,images/redplanet1.jpg,images/alien2,images/alien1,images/rocket1,images/alien2,images/nothing.png,2,real,true,0,2020-06-14T17:52:00Z,2,common,sub15
two-step-fixation,272,1037874,0.0-76.0-2.45,TRUE,TRUE,FALSE,TRUE,"""event"",""trial"",""time""
""fullscreenenter"",""5"",""28244""
","
","
","""event"",""trial"",""time""
""fullscreenenter"",""5"",""28244""
","
",NA,images/earth.jpg,NA,NA,NA,NA,NA,NA,NA,NA,NA,NA,NA,NA,NA,fixation,NA,NA,NA,NA,NA,NA,sub15
d3-animate-choice,273,1040672,0.0-76.0-0.46,TRUE,TRUE,FALSE,TRUE,"""event"",""trial"",""time""
""fullscreenenter"",""5"",""28244""
","
","
","""event"",""trial"",""time""
""fullscreenenter"",""5"",""28244""
","
",792.8200000001816,NA,48,NA,NA,3000,1,NA,NA,images/earth.jpg,images/rocket2,images/rocket1,null,images/rocket2,NA,1,real,null,NA,NA,2,NA,sub15
d3-animate-choice,274,1043939,0.0-76.0-1.46,TRUE,TRUE,FALSE,TRUE,"""event"",""trial"",""time""
""fullscreenenter"",""5"",""28244""
","
","
","""event"",""trial"",""time""
""fullscreenenter"",""5"",""28244""
","
",1264.1999999999534,NA,49,NA,NA,3000,1,NA,NA,images/purpleplanet.jpg,images/alien4,images/alien3,images/rocket2,images/alien3,images/nothing.png,2,real,true,0,2020-06-14T17:52:07Z,1,common,sub15
two-step-fixation,275,1044943,0.0-76.0-2.46,TRUE,TRUE,FALSE,TRUE,"""event"",""trial"",""time""
""fullscreenenter"",""5"",""28244""
","
","
","""event"",""trial"",""time""
""fullscreenenter"",""5"",""28244""
","
",NA,images/earth.jpg,NA,NA,NA,NA,NA,NA,NA,NA,NA,NA,NA,NA,NA,fixation,NA,NA,NA,NA,NA,NA,sub15
d3-animate-choice,276,1047380,0.0-76.0-0.47,TRUE,TRUE,FALSE,TRUE,"""event"",""trial"",""time""
""fullscreenenter"",""5"",""28244""
","
","
","""event"",""trial"",""time""
""fullscreenenter"",""5"",""28244""
","
",433.3850000000093,NA,48,NA,NA,3000,1,NA,NA,images/earth.jpg,images/rocket2,images/rocket1,null,images/rocket2,NA,1,real,null,NA,NA,2,NA,sub15
d3-animate-choice,277,1050423,0.0-76.0-1.47,TRUE,TRUE,FALSE,TRUE,"""event"",""trial"",""time""
""fullscreenenter"",""5"",""28244""
","
","
","""event"",""trial"",""time""
""fullscreenenter"",""5"",""28244""
","
",1038.2750000001397,NA,48,NA,NA,3000,1,NA,NA,images/purpleplanet.jpg,images/alien4,images/alien3,images/rocket2,images/alien4,images/nothing.png,2,real,true,0,2020-06-14T17:52:14Z,2,common,sub15
two-step-fixation,278,1051427,0.0-76.0-2.47,TRUE,TRUE,FALSE,TRUE,"""event"",""trial"",""time""
""fullscreenenter"",""5"",""28244""
","
","
","""event"",""trial"",""time""
""fullscreenenter"",""5"",""28244""
","
",NA,images/earth.jpg,NA,NA,NA,NA,NA,NA,NA,NA,NA,NA,NA,NA,NA,fixation,NA,NA,NA,NA,NA,NA,sub15
d3-animate-choice,279,1053860,0.0-76.0-0.48,TRUE,TRUE,FALSE,TRUE,"""event"",""trial"",""time""
""fullscreenenter"",""5"",""28244""
","
","
","""event"",""trial"",""time""
""fullscreenenter"",""5"",""28244""
","
",429.62000000011176,NA,49,NA,NA,3000,1,NA,NA,images/earth.jpg,images/rocket2,images/rocket1,null,images/rocket1,NA,1,real,null,NA,NA,1,NA,sub15
d3-animate-choice,280,1057035,0.0-76.0-1.48,TRUE,TRUE,FALSE,TRUE,"""event"",""trial"",""time""
""fullscreenenter"",""5"",""28244""
","
","
","""event"",""trial"",""time""
""fullscreenenter"",""5"",""28244""
","
",1171.8899999998976,NA,48,NA,NA,3000,1,NA,NA,images/purpleplanet.jpg,images/alien4,images/alien3,images/rocket1,images/alien4,images/nothing.png,2,real,false,0,2020-06-14T17:52:21Z,2,rare,sub15
two-step-fixation,281,1058040,0.0-76.0-2.48,TRUE,TRUE,FALSE,TRUE,"""event"",""trial"",""time""
""fullscreenenter"",""5"",""28244""
","
","
","""event"",""trial"",""time""
""fullscreenenter"",""5"",""28244""
","
",NA,images/earth.jpg,NA,NA,NA,NA,NA,NA,NA,NA,NA,NA,NA,NA,NA,fixation,NA,NA,NA,NA,NA,NA,sub15
d3-animate-choice,282,1060411,0.0-76.0-0.49,TRUE,TRUE,FALSE,TRUE,"""event"",""trial"",""time""
""fullscreenenter"",""5"",""28244""
","
","
","""event"",""trial"",""time""
""fullscreenenter"",""5"",""28244""
","
",367.7300000002142,NA,49,NA,NA,3000,1,NA,NA,images/earth.jpg,images/rocket2,images/rocket1,null,images/rocket1,NA,1,real,null,NA,NA,1,NA,sub15
d3-animate-choice,283,1063848,0.0-76.0-1.49,TRUE,TRUE,FALSE,TRUE,"""event"",""trial"",""time""
""fullscreenenter"",""5"",""28244""
","
","
","""event"",""trial"",""time""
""fullscreenenter"",""5"",""28244""
","
",1432.6999999999534,NA,48,NA,NA,3000,1,NA,NA,images/redplanet1.jpg,images/alien2,images/alien1,images/rocket1,images/alien2,images/nothing.png,2,real,true,0,2020-06-14T17:52:27Z,2,common,sub15
two-step-fixation,284,1064854,0.0-76.0-2.49,TRUE,TRUE,FALSE,TRUE,"""event"",""trial"",""time""
""fullscreenenter"",""5"",""28244""
","
","
","""event"",""trial"",""time""
""fullscreenenter"",""5"",""28244""
","
