trial_type,trial_index,time_elapsed,internal_node_id,rocket_sides,red_planet_first_rocket,red_display_order,purple_display_order,interactions,blur_events,focus_events,fullscreenenter_events,fullscreenexit_events,rt,stimulus,key_press,button_pressed,success,duration,valid_pressed,rts,keys,planet_text,right_text,left_text,center_text,chosen_text,reward_text,trial_stage,practice_trial,transition_type,choice,transition,reward,timestamp,subject_id
pavlovia,0,4,0.0-0.0,FALSE,TRUE,FALSE,TRUE,"
","
","
","
","
",NA,NA,NA,NA,NA,NA,NA,NA,NA,NA,NA,NA,NA,NA,NA,NA,NA,NA,NA,NA,NA,NA,sub90
html-keyboard-response,1,2019,0.0-1.0,FALSE,TRUE,FALSE,TRUE,"""event"",""trial"",""time""
""blur"",""2"",""5391""
""focus"",""2"",""32076""
","""event"",""trial"",""time""
""blur"",""2"",""5391""
","""event"",""trial"",""time""
""focus"",""2"",""32076""
","
","
",2012.9699999815784,Welcome! Press the space bar to begin.,32,NA,NA,NA,NA,NA,NA,NA,NA,NA,NA,NA,NA,NA,NA,NA,NA,NA,NA,NA,sub90
audio-keyboard-response,2,34780,0.0-2.0,FALSE,TRUE,FALSE,TRUE,"""event"",""trial"",""time""
""blur"",""2"",""5391""
""focus"",""2"",""32076""
","""event"",""trial"",""time""
""blur"",""2"",""5391""
","""event"",""trial"",""time""
""focus"",""2"",""32076""
","
","
",32200,audio/beep_loop.wav,32,NA,NA,NA,NA,NA,NA,NA,NA,NA,NA,NA,NA,NA,NA,NA,NA,NA,NA,NA,sub90
audio-button-response,3,46680,0.0-3.0,FALSE,TRUE,FALSE,TRUE,"""event"",""trial"",""time""
""blur"",""2"",""5391""
""focus"",""2"",""32076""
","""event"",""trial"",""time""
""blur"",""2"",""5391""
","""event"",""trial"",""time""
""focus"",""2"",""32076""
","
","
",NaN,audio/fish.mp3,NA,1,NA,NA,NA,NA,NA,NA,NA,NA,NA,NA,NA,NA,NA,NA,NA,NA,NA,NA,sub90
audio-button-response,4,50848,0.0-4.0,FALSE,TRUE,FALSE,TRUE,"""event"",""trial"",""time""
""blur"",""2"",""5391""
""focus"",""2"",""32076""
""fullscreenenter"",""5"",""57586""
","""event"",""trial"",""time""
""blur"",""2"",""5391""
","""event"",""trial"",""time""
""focus"",""2"",""32076""
","""event"",""trial"",""time""
""fullscreenenter"",""5"",""57586""
","
",NaN,audio/tiger.mp3,NA,4,NA,NA,NA,NA,NA,NA,NA,NA,NA,NA,NA,NA,NA,NA,NA,NA,NA,NA,sub90
fullscreen,5,58493,0.0-5.0,FALSE,TRUE,FALSE,TRUE,"""event"",""trial"",""time""
""blur"",""2"",""5391""
""focus"",""2"",""32076""
""fullscreenenter"",""5"",""57586""
","""event"",""trial"",""time""
""blur"",""2"",""5391""
","""event"",""trial"",""time""
""focus"",""2"",""32076""
","""event"",""trial"",""time""
""fullscreenenter"",""5"",""57586""
","
",NA,NA,NA,NA,TRUE,NA,NA,NA,NA,NA,NA,NA,NA,NA,NA,NA,NA,NA,NA,NA,NA,NA,sub90
d3-instructions,6,84345,0.0-6.0,FALSE,TRUE,FALSE,TRUE,"""event"",""trial"",""time""
""blur"",""2"",""5391""
""focus"",""2"",""32076""
""fullscreenenter"",""5"",""57586""
","""event"",""trial"",""time""
""blur"",""2"",""5391""
","""event"",""trial"",""time""
""focus"",""2"",""32076""
","""event"",""trial"",""time""
""fullscreenenter"",""5"",""57586""
","
",NA,NA,NA,NA,NA,NA,NA,NA,NA,NA,NA,NA,NA,NA,NA,NA,NA,NA,NA,NA,NA,NA,sub90
d3-instructions,7,97539,0.0-7.0,FALSE,TRUE,FALSE,TRUE,"""event"",""trial"",""time""
""blur"",""2"",""5391""
""focus"",""2"",""32076""
""fullscreenenter"",""5"",""57586""
","""event"",""trial"",""time""
""blur"",""2"",""5391""
","""event"",""trial"",""time""
""focus"",""2"",""32076""
","""event"",""trial"",""time""
""fullscreenenter"",""5"",""57586""
","
",NA,NA,NA,NA,NA,NA,NA,NA,NA,NA,NA,NA,NA,NA,NA,NA,NA,NA,NA,NA,NA,NA,sub90
d3-instructions,8,105742,0.0-8.0,FALSE,TRUE,FALSE,TRUE,"""event"",""trial"",""time""
""blur"",""2"",""5391""
""focus"",""2"",""32076""
""fullscreenenter"",""5"",""57586""
","""event"",""trial"",""time""
""blur"",""2"",""5391""
","""event"",""trial"",""time""
""focus"",""2"",""32076""
","""event"",""trial"",""time""
""fullscreenenter"",""5"",""57586""
","
",NA,NA,NA,NA,NA,NA,NA,NA,NA,NA,NA,NA,NA,NA,NA,NA,NA,NA,NA,NA,NA,NA,sub90
d3-instructions,9,117877,0.0-9.0,FALSE,TRUE,FALSE,TRUE,"""event"",""trial"",""time""
""blur"",""2"",""5391""
""focus"",""2"",""32076""
""fullscreenenter"",""5"",""57586""
","""event"",""trial"",""time""
""blur"",""2"",""5391""
","""event"",""trial"",""time""
""focus"",""2"",""32076""
","""event"",""trial"",""time""
""fullscreenenter"",""5"",""57586""
","
",NA,NA,NA,NA,NA,NA,NA,NA,NA,NA,NA,NA,NA,NA,NA,NA,NA,NA,NA,NA,NA,NA,sub90
d3-instructions,10,176412,0.0-10.0,FALSE,TRUE,FALSE,TRUE,"""event"",""trial"",""time""
""blur"",""2"",""5391""
""focus"",""2"",""32076""
""fullscreenenter"",""5"",""57586""
","""event"",""trial"",""time""
""blur"",""2"",""5391""
","""event"",""trial"",""time""
""focus"",""2"",""32076""
","""event"",""trial"",""time""
""fullscreenenter"",""5"",""57586""
","
",NA,NA,NA,NA,NA,NA,NA,NA,NA,NA,NA,NA,NA,NA,NA,NA,NA,NA,NA,NA,NA,NA,sub90
d3-animate-choice,11,180187,0.0-11.0,FALSE,TRUE,FALSE,TRUE,"""event"",""trial"",""time""
""blur"",""2"",""5391""
""focus"",""2"",""32076""
""fullscreenenter"",""5"",""57586""
","""event"",""trial"",""time""
""blur"",""2"",""5391""
","""event"",""trial"",""time""
""focus"",""2"",""32076""
","""event"",""trial"",""time""
""fullscreenenter"",""5"",""57586""
","
",1763.9250000356697,NA,49,NA,NA,3000,1,NA,NA,images/tutgreenplanet.jpg,images/tutalien1,images/tutalien2,null,images/tutalien2,NA,NA,practice,null,NA,NA,NA,NA,sub90
d3-animate-choice,12,184159,0.0-12.0,FALSE,TRUE,FALSE,TRUE,"""event"",""trial"",""time""
""blur"",""2"",""5391""
""focus"",""2"",""32076""
""fullscreenenter"",""5"",""57586""
","""event"",""trial"",""time""
""blur"",""2"",""5391""
","""event"",""trial"",""time""
""focus"",""2"",""32076""
","""event"",""trial"",""time""
""fullscreenenter"",""5"",""57586""
","
",1966.4149999734946,NA,48,NA,NA,3000,1,NA,NA,images/tutgreenplanet.jpg,images/tutalien1,images/tutalien2,null,images/tutalien1,NA,NA,practice,null,NA,NA,NA,NA,sub90
d3-animate-choice,13,188431,0.0-13.0,FALSE,TRUE,FALSE,TRUE,"""event"",""trial"",""time""
""blur"",""2"",""5391""
""focus"",""2"",""32076""
""fullscreenenter"",""5"",""57586""
","""event"",""trial"",""time""
""blur"",""2"",""5391""
","""event"",""trial"",""time""
""focus"",""2"",""32076""
","""event"",""trial"",""time""
""fullscreenenter"",""5"",""57586""
","
",2266.7750000255182,NA,48,NA,NA,3000,1,NA,NA,images/tutgreenplanet.jpg,images/tutalien1,images/tutalien2,null,images/tutalien1,NA,NA,practice,null,NA,NA,NA,NA,sub90
d3-animate-choice,14,191875,0.0-14.0,FALSE,TRUE,FALSE,TRUE,"""event"",""trial"",""time""
""blur"",""2"",""5391""
""focus"",""2"",""32076""
""fullscreenenter"",""5"",""57586""
","""event"",""trial"",""time""
""blur"",""2"",""5391""
","""event"",""trial"",""time""
""focus"",""2"",""32076""
","""event"",""trial"",""time""
""fullscreenenter"",""5"",""57586""
","
",1439.3899999558926,NA,49,NA,NA,3000,1,NA,NA,images/tutgreenplanet.jpg,images/tutalien1,images/tutalien2,null,images/tutalien2,NA,NA,practice,null,NA,NA,NA,NA,sub90
d3-instructions,15,199773,0.0-15.0,FALSE,TRUE,FALSE,TRUE,"""event"",""trial"",""time""
""blur"",""2"",""5391""
""focus"",""2"",""32076""
""fullscreenenter"",""5"",""57586""
","""event"",""trial"",""time""
""blur"",""2"",""5391""
","""event"",""trial"",""time""
""focus"",""2"",""32076""
","""event"",""trial"",""time""
""fullscreenenter"",""5"",""57586""
","
",NA,NA,NA,NA,NA,NA,NA,NA,NA,NA,NA,NA,NA,NA,NA,NA,NA,NA,NA,NA,NA,NA,sub90
d3-instructions,16,207618,0.0-16.0,FALSE,TRUE,FALSE,TRUE,"""event"",""trial"",""time""
""blur"",""2"",""5391""
""focus"",""2"",""32076""
""fullscreenenter"",""5"",""57586""
","""event"",""trial"",""time""
""blur"",""2"",""5391""
","""event"",""trial"",""time""
""focus"",""2"",""32076""
","""event"",""trial"",""time""
""fullscreenenter"",""5"",""57586""
","
",NA,NA,NA,NA,NA,NA,NA,NA,NA,NA,NA,NA,NA,NA,NA,NA,NA,NA,NA,NA,NA,NA,sub90
d3-instructions,17,220155,0.0-17.0,FALSE,TRUE,FALSE,TRUE,"""event"",""trial"",""time""
""blur"",""2"",""5391""
""focus"",""2"",""32076""
""fullscreenenter"",""5"",""57586""
","""event"",""trial"",""time""
""blur"",""2"",""5391""
","""event"",""trial"",""time""
""focus"",""2"",""32076""
","""event"",""trial"",""time""
""fullscreenenter"",""5"",""57586""
","
",NA,NA,NA,NA,NA,NA,NA,NA,NA,NA,NA,NA,NA,NA,NA,NA,NA,NA,NA,NA,NA,NA,sub90
d3-instructions,18,233645,0.0-18.0,FALSE,TRUE,FALSE,TRUE,"""event"",""trial"",""time""
""blur"",""2"",""5391""
""focus"",""2"",""32076""
""fullscreenenter"",""5"",""57586""
","""event"",""trial"",""time""
""blur"",""2"",""5391""
","""event"",""trial"",""time""
""focus"",""2"",""32076""
","""event"",""trial"",""time""
""fullscreenenter"",""5"",""57586""
","
",NA,NA,NA,NA,NA,NA,NA,NA,NA,NA,NA,NA,NA,NA,NA,NA,NA,NA,NA,NA,NA,NA,sub90
d3-instructions,19,249795,0.0-19.0,FALSE,TRUE,FALSE,TRUE,"""event"",""trial"",""time""
""blur"",""2"",""5391""
""focus"",""2"",""32076""
""fullscreenenter"",""5"",""57586""
","""event"",""trial"",""time""
""blur"",""2"",""5391""
","""event"",""trial"",""time""
""focus"",""2"",""32076""
","""event"",""trial"",""time""
""fullscreenenter"",""5"",""57586""
","
",NA,NA,NA,NA,NA,NA,NA,NA,NA,NA,NA,NA,NA,NA,NA,NA,NA,NA,NA,NA,NA,NA,sub90
d3-animate-choice,20,253531,0.0-20.0,FALSE,TRUE,FALSE,TRUE,"""event"",""trial"",""time""
""blur"",""2"",""5391""
""focus"",""2"",""32076""
""fullscreenenter"",""5"",""57586""
","""event"",""trial"",""time""
""blur"",""2"",""5391""
","""event"",""trial"",""time""
""focus"",""2"",""32076""
","""event"",""trial"",""time""
""fullscreenenter"",""5"",""57586""
","
",1716.0499999881722,NA,49,NA,NA,3000,1,NA,NA,images/tutyellowplanet.jpg,null,images/tutalien3,null,images/tutalien3,images/nothing.png,NA,practice,null,NA,NA,NA,NA,sub90
d3-animate-choice,21,256182,0.0-21.0,FALSE,TRUE,FALSE,TRUE,"""event"",""trial"",""time""
""blur"",""2"",""5391""
""focus"",""2"",""32076""
""fullscreenenter"",""5"",""57586""
","""event"",""trial"",""time""
""blur"",""2"",""5391""
","""event"",""trial"",""time""
""focus"",""2"",""32076""
","""event"",""trial"",""time""
""fullscreenenter"",""5"",""57586""
","
",637.140000006184,NA,49,NA,NA,3000,1,NA,NA,images/tutyellowplanet.jpg,null,images/tutalien3,null,images/tutalien3,images/t.png,NA,practice,null,NA,NA,NA,NA,sub90
d3-animate-choice,22,258452,0.0-22.0,FALSE,TRUE,FALSE,TRUE,"""event"",""trial"",""time""
""blur"",""2"",""5391""
""focus"",""2"",""32076""
""fullscreenenter"",""5"",""57586""
","""event"",""trial"",""time""
""blur"",""2"",""5391""
","""event"",""trial"",""time""
""focus"",""2"",""32076""
","""event"",""trial"",""time""
""fullscreenenter"",""5"",""57586""
","
",263.41000001411885,NA,49,NA,NA,3000,1,1702.655000030063,49,images/tutyellowplanet.jpg,null,images/tutalien3,null,images/tutalien3,images/t.png,NA,practice,null,NA,NA,NA,NA,sub90
d3-animate-choice,23,260751,0.0-23.0,FALSE,TRUE,FALSE,TRUE,"""event"",""trial"",""time""
""blur"",""2"",""5391""
""focus"",""2"",""32076""
""fullscreenenter"",""5"",""57586""
","""event"",""trial"",""time""
""blur"",""2"",""5391""
","""event"",""trial"",""time""
""focus"",""2"",""32076""
","""event"",""trial"",""time""
""fullscreenenter"",""5"",""57586""
","
",277.58500003255904,NA,49,NA,NA,3000,1,1756.4349999884143,49,images/tutyellowplanet.jpg,null,images/tutalien3,null,images/tutalien3,images/t.png,NA,practice,null,NA,NA,NA,NA,sub90
d3-animate-choice,24,263172,0.0-24.0,FALSE,TRUE,FALSE,TRUE,"""event"",""trial"",""time""
""blur"",""2"",""5391""
""focus"",""2"",""32076""
""fullscreenenter"",""5"",""57586""
","""event"",""trial"",""time""
""blur"",""2"",""5391""
","""event"",""trial"",""time""
""focus"",""2"",""32076""
","""event"",""trial"",""time""
""fullscreenenter"",""5"",""57586""
","
",415.92499997932464,NA,49,NA,NA,3000,1,NA,NA,images/tutyellowplanet.jpg,null,images/tutalien3,null,images/tutalien3,images/nothing.png,NA,practice,null,NA,NA,NA,NA,sub90
d3-animate-choice,25,265741,0.0-25.0,FALSE,TRUE,FALSE,TRUE,"""event"",""trial"",""time""
""blur"",""2"",""5391""
""focus"",""2"",""32076""
""fullscreenenter"",""5"",""57586""
","""event"",""trial"",""time""
""blur"",""2"",""5391""
","""event"",""trial"",""time""
""focus"",""2"",""32076""
","""event"",""trial"",""time""
""fullscreenenter"",""5"",""57586""
","
",556.1050000251271,NA,49,NA,NA,3000,1,NA,NA,images/tutyellowplanet.jpg,null,images/tutalien3,null,images/tutalien3,images/nothing.png,NA,practice,null,NA,NA,NA,NA,sub90
d3-animate-choice,26,267982,0.0-26.0,FALSE,TRUE,FALSE,TRUE,"""event"",""trial"",""time""
""blur"",""2"",""5391""
""focus"",""2"",""32076""
""fullscreenenter"",""5"",""57586""
","""event"",""trial"",""time""
""blur"",""2"",""5391""
","""event"",""trial"",""time""
""focus"",""2"",""32076""
","""event"",""trial"",""time""
""fullscreenenter"",""5"",""57586""
","
",228.66999998223037,NA,49,NA,NA,3000,1,1785.3749999776483,49,images/tutyellowplanet.jpg,null,images/tutalien3,null,images/tutalien3,images/nothing.png,NA,practice,null,NA,NA,NA,NA,sub90
d3-animate-choice,27,270242,0.0-27.0,FALSE,TRUE,FALSE,TRUE,"""event"",""trial"",""time""
""blur"",""2"",""5391""
""focus"",""2"",""32076""
""fullscreenenter"",""5"",""57586""
","""event"",""trial"",""time""
""blur"",""2"",""5391""
","""event"",""trial"",""time""
""focus"",""2"",""32076""
","""event"",""trial"",""time""
""fullscreenenter"",""5"",""57586""
","
",252.7000000118278,NA,49,NA,NA,3000,1,NA,NA,images/tutyellowplanet.jpg,null,images/tutalien3,null,images/tutalien3,images/nothing.png,NA,practice,null,NA,NA,NA,NA,sub90
d3-animate-choice,28,272512,0.0-28.0,FALSE,TRUE,FALSE,TRUE,"""event"",""trial"",""time""
""blur"",""2"",""5391""
""focus"",""2"",""32076""
""fullscreenenter"",""5"",""57586""
","""event"",""trial"",""time""
""blur"",""2"",""5391""
","""event"",""trial"",""time""
""focus"",""2"",""32076""
","""event"",""trial"",""time""
""fullscreenenter"",""5"",""57586""
","
",248.78000002354383,NA,49,NA,NA,3000,1,NA,NA,images/tutyellowplanet.jpg,null,images/tutalien3,null,images/tutalien3,images/t.png,NA,practice,null,NA,NA,NA,NA,sub90
d3-animate-choice,29,274822,0.0-29.0,FALSE,TRUE,FALSE,TRUE,"""event"",""trial"",""time""
""blur"",""2"",""5391""
""focus"",""2"",""32076""
""fullscreenenter"",""5"",""57586""
","""event"",""trial"",""time""
""blur"",""2"",""5391""
","""event"",""trial"",""time""
""focus"",""2"",""32076""
","""event"",""trial"",""time""
""fullscreenenter"",""5"",""57586""
","
",285.6550000142306,NA,49,NA,NA,3000,1,NA,NA,images/tutyellowplanet.jpg,null,images/tutalien3,null,images/tutalien3,images/nothing.png,NA,practice,null,NA,NA,NA,NA,sub90
d3-instructions,30,282161,0.0-30.0,FALSE,TRUE,FALSE,TRUE,"""event"",""trial"",""time""
""blur"",""2"",""5391""
""focus"",""2"",""32076""
""fullscreenenter"",""5"",""57586""
","""event"",""trial"",""time""
""blur"",""2"",""5391""
","""event"",""trial"",""time""
""focus"",""2"",""32076""
","""event"",""trial"",""time""
""fullscreenenter"",""5"",""57586""
","
",NA,NA,NA,NA,NA,NA,NA,NA,NA,NA,NA,NA,NA,NA,NA,NA,NA,NA,NA,NA,NA,NA,sub90
d3-instructions,31,292254,0.0-31.0,FALSE,TRUE,FALSE,TRUE,"""event"",""trial"",""time""
""blur"",""2"",""5391""
""focus"",""2"",""32076""
""fullscreenenter"",""5"",""57586""
","""event"",""trial"",""time""
""blur"",""2"",""5391""
","""event"",""trial"",""time""
""focus"",""2"",""32076""
","""event"",""trial"",""time""
""fullscreenenter"",""5"",""57586""
","
",NA,NA,NA,NA,NA,NA,NA,NA,NA,NA,NA,NA,NA,NA,NA,NA,NA,NA,NA,NA,NA,NA,sub90
d3-instructions,32,310837,0.0-32.0,FALSE,TRUE,FALSE,TRUE,"""event"",""trial"",""time""
""blur"",""2"",""5391""
""focus"",""2"",""32076""
""fullscreenenter"",""5"",""57586""
","""event"",""trial"",""time""
""blur"",""2"",""5391""
","""event"",""trial"",""time""
""focus"",""2"",""32076""
","""event"",""trial"",""time""
""fullscreenenter"",""5"",""57586""
","
",NA,NA,NA,NA,NA,NA,NA,NA,NA,NA,NA,NA,NA,NA,NA,NA,NA,NA,NA,NA,NA,NA,sub90
d3-instructions,33,322991,0.0-33.0,FALSE,TRUE,FALSE,TRUE,"""event"",""trial"",""time""
""blur"",""2"",""5391""
""focus"",""2"",""32076""
""fullscreenenter"",""5"",""57586""
","""event"",""trial"",""time""
""blur"",""2"",""5391""
","""event"",""trial"",""time""
""focus"",""2"",""32076""
","""event"",""trial"",""time""
""fullscreenenter"",""5"",""57586""
","
",NA,NA,NA,NA,NA,NA,NA,NA,NA,NA,NA,NA,NA,NA,NA,NA,NA,NA,NA,NA,NA,NA,sub90
d3-animate-choice,34,328116,0.0-34.0,FALSE,TRUE,FALSE,TRUE,"""event"",""trial"",""time""
""blur"",""2"",""5391""
""focus"",""2"",""32076""
""fullscreenenter"",""5"",""57586""
","""event"",""trial"",""time""
""blur"",""2"",""5391""
","""event"",""trial"",""time""
""focus"",""2"",""32076""
","""event"",""trial"",""time""
""fullscreenenter"",""5"",""57586""
","
",3109.085000003688,NA,48,NA,NA,3000,1,NA,NA,images/tutgreenplanet.jpg,images/tutalien1,images/tutalien2,null,images/tutalien1,images/nothing.png,NA,practice,null,NA,NA,NA,NA,sub90
d3-animate-choice,35,331355,0.0-35.0,FALSE,TRUE,FALSE,TRUE,"""event"",""trial"",""time""
""blur"",""2"",""5391""
""focus"",""2"",""32076""
""fullscreenenter"",""5"",""57586""
","""event"",""trial"",""time""
""blur"",""2"",""5391""
","""event"",""trial"",""time""
""focus"",""2"",""32076""
","""event"",""trial"",""time""
""fullscreenenter"",""5"",""57586""
","
",1219.9999999720603,NA,49,NA,NA,3000,1,NA,NA,images/tutgreenplanet.jpg,images/tutalien1,images/tutalien2,null,images/tutalien2,images/t.png,NA,practice,null,NA,NA,NA,NA,sub90
d3-animate-choice,36,333686,0.0-36.0,FALSE,TRUE,FALSE,TRUE,"""event"",""trial"",""time""
""blur"",""2"",""5391""
""focus"",""2"",""32076""
""fullscreenenter"",""5"",""57586""
","""event"",""trial"",""time""
""blur"",""2"",""5391""
","""event"",""trial"",""time""
""focus"",""2"",""32076""
","""event"",""trial"",""time""
""fullscreenenter"",""5"",""57586""
","
",321.76500000059605,NA,49,NA,NA,3000,1,NA,NA,images/tutgreenplanet.jpg,images/tutalien1,images/tutalien2,null,images/tutalien2,images/t.png,NA,practice,null,NA,NA,NA,NA,sub90
d3-animate-choice,37,335986,0.0-37.0,FALSE,TRUE,FALSE,TRUE,"""event"",""trial"",""time""
""blur"",""2"",""5391""
""focus"",""2"",""32076""
""fullscreenenter"",""5"",""57586""
","""event"",""trial"",""time""
""blur"",""2"",""5391""
","""event"",""trial"",""time""
""focus"",""2"",""32076""
","""event"",""trial"",""time""
""fullscreenenter"",""5"",""57586""
","
",287.9650000249967,NA,49,NA,NA,3000,1,NA,NA,images/tutgreenplanet.jpg,images/tutalien1,images/tutalien2,null,images/tutalien2,images/t.png,NA,practice,null,NA,NA,NA,NA,sub90
d3-animate-choice,38,338256,0.0-38.0,FALSE,TRUE,FALSE,TRUE,"""event"",""trial"",""time""
""blur"",""2"",""5391""
""focus"",""2"",""32076""
""fullscreenenter"",""5"",""57586""
","""event"",""trial"",""time""
""blur"",""2"",""5391""
","""event"",""trial"",""time""
""focus"",""2"",""32076""
","""event"",""trial"",""time""
""fullscreenenter"",""5"",""57586""
","
",247.67499999143183,NA,49,NA,NA,3000,1,NA,NA,images/tutgreenplanet.jpg,images/tutalien1,images/tutalien2,null,images/tutalien2,images/nothing.png,NA,practice,null,NA,NA,NA,NA,sub90
d3-animate-choice,39,340506,0.0-39.0,FALSE,TRUE,FALSE,TRUE,"""event"",""trial"",""time""
""blur"",""2"",""5391""
""focus"",""2"",""32076""
""fullscreenenter"",""5"",""57586""
","""event"",""trial"",""time""
""blur"",""2"",""5391""
","""event"",""trial"",""time""
""focus"",""2"",""32076""
","""event"",""trial"",""time""
""fullscreenenter"",""5"",""57586""
","
",234.35499996412545,NA,48,NA,NA,3000,1,NA,NA,images/tutgreenplanet.jpg,images/tutalien1,images/tutalien2,null,images/tutalien1,images/nothing.png,NA,practice,null,NA,NA,NA,NA,sub90
d3-animate-choice,40,342846,0.0-40.0,FALSE,TRUE,FALSE,TRUE,"""event"",""trial"",""time""
""blur"",""2"",""5391""
""focus"",""2"",""32076""
""fullscreenenter"",""5"",""57586""
","""event"",""trial"",""time""
""blur"",""2"",""5391""
","""event"",""trial"",""time""
""focus"",""2"",""32076""
","""event"",""trial"",""time""
""fullscreenenter"",""5"",""57586""
","
",329.7700000111945,NA,49,NA,NA,3000,1,NA,NA,images/tutgreenplanet.jpg,images/tutalien1,images/tutalien2,null,images/tutalien2,images/t.png,NA,practice,null,NA,NA,NA,NA,sub90
d3-animate-choice,41,347026,0.0-41.0,FALSE,TRUE,FALSE,TRUE,"""event"",""trial"",""time""
""blur"",""2"",""5391""
""focus"",""2"",""32076""
""fullscreenenter"",""5"",""57586""
","""event"",""trial"",""time""
""blur"",""2"",""5391""
","""event"",""trial"",""time""
""focus"",""2"",""32076""
","""event"",""trial"",""time""
""fullscreenenter"",""5"",""57586""
","
",2167.1400000341237,NA,49,NA,NA,3000,1,NA,NA,images/tutgreenplanet.jpg,images/tutalien1,images/tutalien2,null,images/tutalien2,images/t.png,NA,practice,null,NA,NA,NA,NA,sub90
d3-animate-choice,42,349955,0.0-42.0,FALSE,TRUE,FALSE,TRUE,"""event"",""trial"",""time""
""blur"",""2"",""5391""
""focus"",""2"",""32076""
""fullscreenenter"",""5"",""57586""
","""event"",""trial"",""time""
""blur"",""2"",""5391""
","""event"",""trial"",""time""
""focus"",""2"",""32076""
","""event"",""trial"",""time""
""fullscreenenter"",""5"",""57586""
","
",923.2950000441633,NA,48,NA,NA,3000,1,NA,NA,images/tutgreenplanet.jpg,images/tutalien1,images/tutalien2,null,images/tutalien1,images/nothing.png,NA,practice,null,NA,NA,NA,NA,sub90
d3-animate-choice,43,352256,0.0-43.0,FALSE,TRUE,FALSE,TRUE,"""event"",""trial"",""time""
""blur"",""2"",""5391""
""focus"",""2"",""32076""
""fullscreenenter"",""5"",""57586""
","""event"",""trial"",""time""
""blur"",""2"",""5391""
","""event"",""trial"",""time""
""focus"",""2"",""32076""
","""event"",""trial"",""time""
""fullscreenenter"",""5"",""57586""
","
",295.8399999770336,NA,49,NA,NA,3000,1,NA,NA,images/tutgreenplanet.jpg,images/tutalien1,images/tutalien2,null,images/tutalien2,images/t.png,NA,practice,null,NA,NA,NA,NA,sub90
d3-instructions,44,366066,0.0-44.0,FALSE,TRUE,FALSE,TRUE,"""event"",""trial"",""time""
""blur"",""2"",""5391""
""focus"",""2"",""32076""
""fullscreenenter"",""5"",""57586""
","""event"",""trial"",""time""
""blur"",""2"",""5391""
","""event"",""trial"",""time""
""focus"",""2"",""32076""
","""event"",""trial"",""time""
""fullscreenenter"",""5"",""57586""
","
",NA,NA,NA,NA,NA,NA,NA,NA,NA,NA,NA,NA,NA,NA,NA,NA,NA,NA,NA,NA,NA,NA,sub90
d3-instructions,45,372505,0.0-45.0,FALSE,TRUE,FALSE,TRUE,"""event"",""trial"",""time""
""blur"",""2"",""5391""
""focus"",""2"",""32076""
""fullscreenenter"",""5"",""57586""
","""event"",""trial"",""time""
""blur"",""2"",""5391""
","""event"",""trial"",""time""
""focus"",""2"",""32076""
","""event"",""trial"",""time""
""fullscreenenter"",""5"",""57586""
","
",NA,NA,NA,NA,NA,NA,NA,NA,NA,NA,NA,NA,NA,NA,NA,NA,NA,NA,NA,NA,NA,NA,sub90
d3-instructions,46,377928,0.0-46.0,FALSE,TRUE,FALSE,TRUE,"""event"",""trial"",""time""
""blur"",""2"",""5391""
""focus"",""2"",""32076""
""fullscreenenter"",""5"",""57586""
","""event"",""trial"",""time""
""blur"",""2"",""5391""
","""event"",""trial"",""time""
""focus"",""2"",""32076""
","""event"",""trial"",""time""
""fullscreenenter"",""5"",""57586""
","
",NA,NA,NA,NA,NA,NA,NA,NA,NA,NA,NA,NA,NA,NA,NA,NA,NA,NA,NA,NA,NA,NA,sub90
d3-instructions,47,395502,0.0-47.0,FALSE,TRUE,FALSE,TRUE,"""event"",""trial"",""time""
""blur"",""2"",""5391""
""focus"",""2"",""32076""
""fullscreenenter"",""5"",""57586""
","""event"",""trial"",""time""
""blur"",""2"",""5391""
","""event"",""trial"",""time""
""focus"",""2"",""32076""
","""event"",""trial"",""time""
""fullscreenenter"",""5"",""57586""
","
",NA,NA,NA,NA,NA,NA,NA,NA,NA,NA,NA,NA,NA,NA,NA,NA,NA,NA,NA,NA,NA,NA,sub90
d3-instructions,48,403073,0.0-48.0,FALSE,TRUE,FALSE,TRUE,"""event"",""trial"",""time""
""blur"",""2"",""5391""
""focus"",""2"",""32076""
""fullscreenenter"",""5"",""57586""
","""event"",""trial"",""time""
""blur"",""2"",""5391""
","""event"",""trial"",""time""
""focus"",""2"",""32076""
","""event"",""trial"",""time""
""fullscreenenter"",""5"",""57586""
","
",NA,NA,NA,NA,NA,NA,NA,NA,NA,NA,NA,NA,NA,NA,NA,NA,NA,NA,NA,NA,NA,NA,sub90
d3-instructions,49,417911,0.0-49.0,FALSE,TRUE,FALSE,TRUE,"""event"",""trial"",""time""
""blur"",""2"",""5391""
""focus"",""2"",""32076""
""fullscreenenter"",""5"",""57586""
","""event"",""trial"",""time""
""blur"",""2"",""5391""
","""event"",""trial"",""time""
""focus"",""2"",""32076""
","""event"",""trial"",""time""
""fullscreenenter"",""5"",""57586""
","
",NA,NA,NA,NA,NA,NA,NA,NA,NA,NA,NA,NA,NA,NA,NA,NA,NA,NA,NA,NA,NA,NA,sub90
d3-instructions,50,427234,0.0-50.0,FALSE,TRUE,FALSE,TRUE,"""event"",""trial"",""time""
""blur"",""2"",""5391""
""focus"",""2"",""32076""
""fullscreenenter"",""5"",""57586""
","""event"",""trial"",""time""
""blur"",""2"",""5391""
","""event"",""trial"",""time""
""focus"",""2"",""32076""
","""event"",""trial"",""time""
""fullscreenenter"",""5"",""57586""
","
",NA,NA,NA,NA,NA,NA,NA,NA,NA,NA,NA,NA,NA,NA,NA,NA,NA,NA,NA,NA,NA,NA,sub90
d3-instructions,51,430117,0.0-51.0,FALSE,TRUE,FALSE,TRUE,"""event"",""trial"",""time""
""blur"",""2"",""5391""
""focus"",""2"",""32076""
""fullscreenenter"",""5"",""57586""
","""event"",""trial"",""time""
""blur"",""2"",""5391""
","""event"",""trial"",""time""
""focus"",""2"",""32076""
","""event"",""trial"",""time""
""fullscreenenter"",""5"",""57586""
","
",NA,NA,NA,NA,NA,NA,NA,NA,NA,NA,NA,NA,NA,NA,NA,NA,NA,NA,NA,NA,NA,NA,sub90
d3-instructions,52,433046,0.0-52.0,FALSE,TRUE,FALSE,TRUE,"""event"",""trial"",""time""
""blur"",""2"",""5391""
""focus"",""2"",""32076""
""fullscreenenter"",""5"",""57586""
","""event"",""trial"",""time""
""blur"",""2"",""5391""
","""event"",""trial"",""time""
""focus"",""2"",""32076""
","""event"",""trial"",""time""
""fullscreenenter"",""5"",""57586""
","
",NA,NA,NA,NA,NA,NA,NA,NA,NA,NA,NA,NA,NA,NA,NA,NA,NA,NA,NA,NA,NA,NA,sub90
d3-instructions,53,446749,0.0-53.0,FALSE,TRUE,FALSE,TRUE,"""event"",""trial"",""time""
""blur"",""2"",""5391""
""focus"",""2"",""32076""
""fullscreenenter"",""5"",""57586""
","""event"",""trial"",""time""
""blur"",""2"",""5391""
","""event"",""trial"",""time""
""focus"",""2"",""32076""
","""event"",""trial"",""time""
""fullscreenenter"",""5"",""57586""
","
",NA,NA,NA,NA,NA,NA,NA,NA,NA,NA,NA,NA,NA,NA,NA,NA,NA,NA,NA,NA,NA,NA,sub90
d3-instructions,54,463347,0.0-54.0,FALSE,TRUE,FALSE,TRUE,"""event"",""trial"",""time""
""blur"",""2"",""5391""
""focus"",""2"",""32076""
""fullscreenenter"",""5"",""57586""
","""event"",""trial"",""time""
""blur"",""2"",""5391""
","""event"",""trial"",""time""
""focus"",""2"",""32076""
","""event"",""trial"",""time""
""fullscreenenter"",""5"",""57586""
","
",NA,NA,NA,NA,NA,NA,NA,NA,NA,NA,NA,NA,NA,NA,NA,NA,NA,NA,NA,NA,NA,NA,sub90
d3-instructions,55,473944,0.0-55.0,FALSE,TRUE,FALSE,TRUE,"""event"",""trial"",""time""
""blur"",""2"",""5391""
""focus"",""2"",""32076""
""fullscreenenter"",""5"",""57586""
","""event"",""trial"",""time""
""blur"",""2"",""5391""
","""event"",""trial"",""time""
""focus"",""2"",""32076""
","""event"",""trial"",""time""
""fullscreenenter"",""5"",""57586""
","
",NA,NA,NA,NA,NA,NA,NA,NA,NA,NA,NA,NA,NA,NA,NA,NA,NA,NA,NA,NA,NA,NA,sub90
d3-instructions,56,482777,0.0-56.0,FALSE,TRUE,FALSE,TRUE,"""event"",""trial"",""time""
""blur"",""2"",""5391""
""focus"",""2"",""32076""
""fullscreenenter"",""5"",""57586""
","""event"",""trial"",""time""
""blur"",""2"",""5391""
","""event"",""trial"",""time""
""focus"",""2"",""32076""
","""event"",""trial"",""time""
""fullscreenenter"",""5"",""57586""
","
",NA,NA,NA,NA,NA,NA,NA,NA,NA,NA,NA,NA,NA,NA,NA,NA,NA,NA,NA,NA,NA,NA,sub90
d3-instructions,57,496478,0.0-57.0,FALSE,TRUE,FALSE,TRUE,"""event"",""trial"",""time""
""blur"",""2"",""5391""
""focus"",""2"",""32076""
""fullscreenenter"",""5"",""57586""
","""event"",""trial"",""time""
""blur"",""2"",""5391""
","""event"",""trial"",""time""
""focus"",""2"",""32076""
","""event"",""trial"",""time""
""fullscreenenter"",""5"",""57586""
","
",NA,NA,NA,NA,NA,NA,NA,NA,NA,NA,NA,NA,NA,NA,NA,NA,NA,NA,NA,NA,NA,NA,sub90
d3-instructions,58,508138,0.0-58.0,FALSE,TRUE,FALSE,TRUE,"""event"",""trial"",""time""
""blur"",""2"",""5391""
""focus"",""2"",""32076""
""fullscreenenter"",""5"",""57586""
","""event"",""trial"",""time""
""blur"",""2"",""5391""
","""event"",""trial"",""time""
""focus"",""2"",""32076""
","""event"",""trial"",""time""
""fullscreenenter"",""5"",""57586""
","
",NA,NA,NA,NA,NA,NA,NA,NA,NA,NA,NA,NA,NA,NA,NA,NA,NA,NA,NA,NA,NA,NA,sub90
d3-instructions,59,514646,0.0-59.0,FALSE,TRUE,FALSE,TRUE,"""event"",""trial"",""time""
""blur"",""2"",""5391""
""focus"",""2"",""32076""
""fullscreenenter"",""5"",""57586""
","""event"",""trial"",""time""
""blur"",""2"",""5391""
","""event"",""trial"",""time""
""focus"",""2"",""32076""
","""event"",""trial"",""time""
""fullscreenenter"",""5"",""57586""
","
",NA,NA,NA,NA,NA,NA,NA,NA,NA,NA,NA,NA,NA,NA,NA,NA,NA,NA,NA,NA,NA,NA,sub90
d3-instructions,60,521161,0.0-60.0,FALSE,TRUE,FALSE,TRUE,"""event"",""trial"",""time""
""blur"",""2"",""5391""
""focus"",""2"",""32076""
""fullscreenenter"",""5"",""57586""
","""event"",""trial"",""time""
""blur"",""2"",""5391""
","""event"",""trial"",""time""
""focus"",""2"",""32076""
","""event"",""trial"",""time""
""fullscreenenter"",""5"",""57586""
","
",NA,NA,NA,NA,NA,NA,NA,NA,NA,NA,NA,NA,NA,NA,NA,NA,NA,NA,NA,NA,NA,NA,sub90
d3-animate-choice,61,524614,0.0-61.0-0.0,FALSE,TRUE,FALSE,TRUE,"""event"",""trial"",""time""
""blur"",""2"",""5391""
""focus"",""2"",""32076""
""fullscreenenter"",""5"",""57586""
","""event"",""trial"",""time""
""blur"",""2"",""5391""
","""event"",""trial"",""time""
""focus"",""2"",""32076""
","""event"",""trial"",""time""
""fullscreenenter"",""5"",""57586""
","
",1446.8099999940023,NA,49,NA,NA,3000,1,NA,NA,images/earth.jpg,images/tutrocket1,images/tutrocket2,null,images/tutrocket2,NA,1,practice,null,1,NA,NA,NA,sub90
d3-animate-choice,62,528631,0.0-61.0-1.0,FALSE,TRUE,FALSE,TRUE,"""event"",""trial"",""time""
""blur"",""2"",""5391""
""focus"",""2"",""32076""
""fullscreenenter"",""5"",""57586""
","""event"",""trial"",""time""
""blur"",""2"",""5391""
","""event"",""trial"",""time""
""focus"",""2"",""32076""
","""event"",""trial"",""time""
""fullscreenenter"",""5"",""57586""
","
",2359.564999991562,NA,49,NA,NA,3000,1,NA,NA,images/tutyellowplanet.jpg,images/tutalien4,images/tutalien3,images/tutrocket2,images/tutalien3,images/nothing.png,2,practice,true,1,common,0,2020-07-06T16:14:22Z,sub90
two-step-fixation,63,529636,0.0-61.0-2.0,FALSE,TRUE,FALSE,TRUE,"""event"",""trial"",""time""
""blur"",""2"",""5391""
""focus"",""2"",""32076""
""fullscreenenter"",""5"",""57586""
","""event"",""trial"",""time""
""blur"",""2"",""5391""
","""event"",""trial"",""time""
""focus"",""2"",""32076""
","""event"",""trial"",""time""
""fullscreenenter"",""5"",""57586""
","
",NA,images/earth.jpg,NA,NA,NA,NA,NA,NA,NA,NA,NA,NA,NA,NA,NA,fixation,NA,NA,NA,NA,NA,NA,sub90
d3-animate-choice,64,533550,0.0-61.0-0.1,FALSE,TRUE,FALSE,TRUE,"""event"",""trial"",""time""
""blur"",""2"",""5391""
""focus"",""2"",""32076""
""fullscreenenter"",""5"",""57586""
","""event"",""trial"",""time""
""blur"",""2"",""5391""
","""event"",""trial"",""time""
""focus"",""2"",""32076""
","""event"",""trial"",""time""
""fullscreenenter"",""5"",""57586""
","
",1895.3999999794178,NA,49,NA,NA,3000,1,NA,NA,images/earth.jpg,images/tutrocket1,images/tutrocket2,null,images/tutrocket2,NA,1,practice,null,1,NA,NA,NA,sub90
d3-animate-choice,65,536160,0.0-61.0-1.1,FALSE,TRUE,FALSE,TRUE,"""event"",""trial"",""time""
""blur"",""2"",""5391""
""focus"",""2"",""32076""
""fullscreenenter"",""5"",""57586""
","""event"",""trial"",""time""
""blur"",""2"",""5391""
","""event"",""trial"",""time""
""focus"",""2"",""32076""
","""event"",""trial"",""time""
""fullscreenenter"",""5"",""57586""
","
",600.609999964945,NA,48,NA,NA,3000,1,NA,NA,images/tutyellowplanet.jpg,images/tutalien4,images/tutalien3,images/tutrocket2,images/tutalien4,images/t.png,2,practice,true,2,common,1,2020-07-06T16:14:30Z,sub90
two-step-fixation,66,537180,0.0-61.0-2.1,FALSE,TRUE,FALSE,TRUE,"""event"",""trial"",""time""
""blur"",""2"",""5391""
""focus"",""2"",""32076""
""fullscreenenter"",""5"",""57586""
","""event"",""trial"",""time""
""blur"",""2"",""5391""
","""event"",""trial"",""time""
""focus"",""2"",""32076""
","""event"",""trial"",""time""
""fullscreenenter"",""5"",""57586""
","
",NA,images/earth.jpg,NA,NA,NA,NA,NA,NA,NA,NA,NA,NA,NA,NA,NA,fixation,NA,NA,NA,NA,NA,NA,sub90
d3-animate-choice,67,539640,0.0-61.0-0.2,FALSE,TRUE,FALSE,TRUE,"""event"",""trial"",""time""
""blur"",""2"",""5391""
""focus"",""2"",""32076""
""fullscreenenter"",""5"",""57586""
","""event"",""trial"",""time""
""blur"",""2"",""5391""
","""event"",""trial"",""time""
""focus"",""2"",""32076""
","""event"",""trial"",""time""
""fullscreenenter"",""5"",""57586""
","
",447.69000000087544,NA,48,NA,NA,3000,1,NA,NA,images/earth.jpg,images/tutrocket1,images/tutrocket2,null,images/tutrocket1,NA,1,practice,null,2,NA,NA,NA,sub90
d3-animate-choice,68,543160,0.0-61.0-1.2,FALSE,TRUE,FALSE,TRUE,"""event"",""trial"",""time""
""blur"",""2"",""5391""
""focus"",""2"",""32076""
""fullscreenenter"",""5"",""57586""
","""event"",""trial"",""time""
""blur"",""2"",""5391""
","""event"",""trial"",""time""
""focus"",""2"",""32076""
","""event"",""trial"",""time""
""fullscreenenter"",""5"",""57586""
","
",1507.5349999824539,NA,48,NA,NA,3000,1,NA,NA,images/tutgreenplanet.jpg,images/tutalien2,images/tutalien1,images/tutrocket1,images/tutalien2,images/t.png,2,practice,true,2,common,1,2020-07-06T16:14:37Z,sub90
two-step-fixation,69,544181,0.0-61.0-2.2,FALSE,TRUE,FALSE,TRUE,"""event"",""trial"",""time""
""blur"",""2"",""5391""
""focus"",""2"",""32076""
""fullscreenenter"",""5"",""57586""
","""event"",""trial"",""time""
""blur"",""2"",""5391""
","""event"",""trial"",""time""
""focus"",""2"",""32076""
","""event"",""trial"",""time""
""fullscreenenter"",""5"",""57586""
","
",NA,images/earth.jpg,NA,NA,NA,NA,NA,NA,NA,NA,NA,NA,NA,NA,NA,fixation,NA,NA,NA,NA,NA,NA,sub90
d3-animate-choice,70,547182,0.0-61.0-0.3,FALSE,TRUE,FALSE,TRUE,"""event"",""trial"",""time""
""blur"",""2"",""5391""
""focus"",""2"",""32076""
""fullscreenenter"",""5"",""57586""
","""event"",""trial"",""time""
""blur"",""2"",""5391""
","""event"",""trial"",""time""
""focus"",""2"",""32076""
","""event"",""trial"",""time""
""fullscreenenter"",""5"",""57586""
","
",983.5650000022724,NA,49,NA,NA,3000,1,NA,NA,images/earth.jpg,images/tutrocket1,images/tutrocket2,null,images/tutrocket2,NA,1,practice,null,1,NA,NA,NA,sub90
d3-animate-choice,71,550471,0.0-61.0-1.3,FALSE,TRUE,FALSE,TRUE,"""event"",""trial"",""time""
""blur"",""2"",""5391""
""focus"",""2"",""32076""
""fullscreenenter"",""5"",""57586""
","""event"",""trial"",""time""
""blur"",""2"",""5391""
","""event"",""trial"",""time""
""focus"",""2"",""32076""
","""event"",""trial"",""time""
""fullscreenenter"",""5"",""57586""
","
",1266.6949999984354,NA,48,NA,NA,3000,1,NA,NA,images/tutyellowplanet.jpg,images/tutalien4,images/tutalien3,images/tutrocket2,images/tutalien4,images/nothing.png,2,practice,true,2,common,0,2020-07-06T16:14:44Z,sub90
two-step-fixation,72,551475,0.0-61.0-2.3,FALSE,TRUE,FALSE,TRUE,"""event"",""trial"",""time""
""blur"",""2"",""5391""
""focus"",""2"",""32076""
""fullscreenenter"",""5"",""57586""
","""event"",""trial"",""time""
""blur"",""2"",""5391""
","""event"",""trial"",""time""
""focus"",""2"",""32076""
","""event"",""trial"",""time""
""fullscreenenter"",""5"",""57586""
","
",NA,images/earth.jpg,NA,NA,NA,NA,NA,NA,NA,NA,NA,NA,NA,NA,NA,fixation,NA,NA,NA,NA,NA,NA,sub90
d3-animate-choice,73,554171,0.0-61.0-0.4,FALSE,TRUE,FALSE,TRUE,"""event"",""trial"",""time""
""blur"",""2"",""5391""
""focus"",""2"",""32076""
""fullscreenenter"",""5"",""57586""
","""event"",""trial"",""time""
""blur"",""2"",""5391""
","""event"",""trial"",""time""
""focus"",""2"",""32076""
","""event"",""trial"",""time""
""fullscreenenter"",""5"",""57586""
","
",690.5850000330247,NA,49,NA,NA,3000,1,NA,NA,images/earth.jpg,images/tutrocket1,images/tutrocket2,null,images/tutrocket2,NA,1,practice,null,1,NA,NA,NA,sub90
d3-animate-choice,74,557644,0.0-61.0-1.4,FALSE,TRUE,FALSE,TRUE,"""event"",""trial"",""time""
""blur"",""2"",""5391""
""focus"",""2"",""32076""
""fullscreenenter"",""5"",""57586""
","""event"",""trial"",""time""
""blur"",""2"",""5391""
","""event"",""trial"",""time""
""focus"",""2"",""32076""
","""event"",""trial"",""time""
""fullscreenenter"",""5"",""57586""
","
",1467.8950000088662,NA,48,NA,NA,3000,1,NA,NA,images/tutgreenplanet.jpg,images/tutalien2,images/tutalien1,images/tutrocket2,images/tutalien2,images/nothing.png,2,practice,false,2,rare,0,2020-07-06T16:14:51Z,sub90
two-step-fixation,75,558649,0.0-61.0-2.4,FALSE,TRUE,FALSE,TRUE,"""event"",""trial"",""time""
""blur"",""2"",""5391""
""focus"",""2"",""32076""
""fullscreenenter"",""5"",""57586""
","""event"",""trial"",""time""
""blur"",""2"",""5391""
","""event"",""trial"",""time""
""focus"",""2"",""32076""
","""event"",""trial"",""time""
""fullscreenenter"",""5"",""57586""
","
",NA,images/earth.jpg,NA,NA,NA,NA,NA,NA,NA,NA,NA,NA,NA,NA,NA,fixation,NA,NA,NA,NA,NA,NA,sub90
d3-animate-choice,76,561216,0.0-61.0-0.5,FALSE,TRUE,FALSE,TRUE,"""event"",""trial"",""time""
""blur"",""2"",""5391""
""focus"",""2"",""32076""
""fullscreenenter"",""5"",""57586""
","""event"",""trial"",""time""
""blur"",""2"",""5391""
","""event"",""trial"",""time""
""focus"",""2"",""32076""
","""event"",""trial"",""time""
""fullscreenenter"",""5"",""57586""
","
",562.6000000047497,NA,49,NA,NA,3000,1,NA,NA,images/earth.jpg,images/tutrocket1,images/tutrocket2,null,images/tutrocket2,NA,1,practice,null,1,NA,NA,NA,sub90
d3-animate-choice,77,564613,0.0-61.0-1.5,FALSE,TRUE,FALSE,TRUE,"""event"",""trial"",""time""
""blur"",""2"",""5391""
""focus"",""2"",""32076""
""fullscreenenter"",""5"",""57586""
","""event"",""trial"",""time""
""blur"",""2"",""5391""
","""event"",""trial"",""time""
""focus"",""2"",""32076""
","""event"",""trial"",""time""
""fullscreenenter"",""5"",""57586""
","
",1392.8549999836832,NA,49,NA,NA,3000,1,NA,NA,images/tutyellowplanet.jpg,images/tutalien4,images/tutalien3,images/tutrocket2,images/tutalien3,images/nothing.png,2,practice,true,1,common,0,2020-07-06T16:14:58Z,sub90
two-step-fixation,78,565619,0.0-61.0-2.5,FALSE,TRUE,FALSE,TRUE,"""event"",""trial"",""time""
""blur"",""2"",""5391""
""focus"",""2"",""32076""
""fullscreenenter"",""5"",""57586""
","""event"",""trial"",""time""
""blur"",""2"",""5391""
","""event"",""trial"",""time""
""focus"",""2"",""32076""
","""event"",""trial"",""time""
""fullscreenenter"",""5"",""57586""
","
",NA,images/earth.jpg,NA,NA,NA,NA,NA,NA,NA,NA,NA,NA,NA,NA,NA,fixation,NA,NA,NA,NA,NA,NA,sub90
d3-animate-choice,79,568209,0.0-61.0-0.6,FALSE,TRUE,FALSE,TRUE,"""event"",""trial"",""time""
""blur"",""2"",""5391""
""focus"",""2"",""32076""
""fullscreenenter"",""5"",""57586""
","""event"",""trial"",""time""
""blur"",""2"",""5391""
","""event"",""trial"",""time""
""focus"",""2"",""32076""
","""event"",""trial"",""time""
""fullscreenenter"",""5"",""57586""
","
",585.7250000117347,NA,48,NA,NA,3000,1,NA,NA,images/earth.jpg,images/tutrocket1,images/tutrocket2,null,images/tutrocket1,NA,1,practice,null,2,NA,NA,NA,sub90
d3-animate-choice,80,572147,0.0-61.0-1.6,FALSE,TRUE,FALSE,TRUE,"""event"",""trial"",""time""
""blur"",""2"",""5391""
""focus"",""2"",""32076""
""fullscreenenter"",""5"",""57586""
","""event"",""trial"",""time""
""blur"",""2"",""5391""
","""event"",""trial"",""time""
""focus"",""2"",""32076""
","""event"",""trial"",""time""
""fullscreenenter"",""5"",""57586""
","
",1929.3600000091828,NA,49,NA,NA,3000,1,NA,NA,images/tutgreenplanet.jpg,images/tutalien2,images/tutalien1,images/tutrocket1,images/tutalien1,images/nothing.png,2,practice,true,1,common,0,2020-07-06T16:15:06Z,sub90
two-step-fixation,81,573151,0.0-61.0-2.6,FALSE,TRUE,FALSE,TRUE,"""event"",""trial"",""time""
""blur"",""2"",""5391""
""focus"",""2"",""32076""
""fullscreenenter"",""5"",""57586""
","""event"",""trial"",""time""
""blur"",""2"",""5391""
","""event"",""trial"",""time""
""focus"",""2"",""32076""
","""event"",""trial"",""time""
""fullscreenenter"",""5"",""57586""
","
",NA,images/earth.jpg,NA,NA,NA,NA,NA,NA,NA,NA,NA,NA,NA,NA,NA,fixation,NA,NA,NA,NA,NA,NA,sub90
d3-animate-choice,82,576246,0.0-61.0-0.7,FALSE,TRUE,FALSE,TRUE,"""event"",""trial"",""time""
""blur"",""2"",""5391""
""focus"",""2"",""32076""
""fullscreenenter"",""5"",""57586""
","""event"",""trial"",""time""
""blur"",""2"",""5391""
","""event"",""trial"",""time""
""focus"",""2"",""32076""
","""event"",""trial"",""time""
""fullscreenenter"",""5"",""57586""
","
",1089.2650000168942,NA,48,NA,NA,3000,1,NA,NA,images/earth.jpg,images/tutrocket1,images/tutrocket2,null,images/tutrocket1,NA,1,practice,null,2,NA,NA,NA,sub90
d3-animate-choice,83,580250,0.0-61.0-1.7,FALSE,TRUE,FALSE,TRUE,"""event"",""trial"",""time""
""blur"",""2"",""5391""
""focus"",""2"",""32076""
""fullscreenenter"",""5"",""57586""
","""event"",""trial"",""time""
""blur"",""2"",""5391""
","""event"",""trial"",""time""
""focus"",""2"",""32076""
","""event"",""trial"",""time""
""fullscreenenter"",""5"",""57586""
","
",2079.8849999555387,NA,48,NA,NA,3000,1,NA,NA,images/tutyellowplanet.jpg,images/tutalien4,images/tutalien3,images/tutrocket1,images/tutalien4,images/t.png,2,practice,false,2,rare,1,2020-07-06T16:15:14Z,sub90
two-step-fixation,84,581255,0.0-61.0-2.7,FALSE,TRUE,FALSE,TRUE,"""event"",""trial"",""time""
""blur"",""2"",""5391""
""focus"",""2"",""32076""
""fullscreenenter"",""5"",""57586""
","""event"",""trial"",""time""
""blur"",""2"",""5391""
","""event"",""trial"",""time""
""focus"",""2"",""32076""
","""event"",""trial"",""time""
""fullscreenenter"",""5"",""57586""
","
",NA,images/earth.jpg,NA,NA,NA,NA,NA,NA,NA,NA,NA,NA,NA,NA,NA,fixation,NA,NA,NA,NA,NA,NA,sub90
d3-animate-choice,85,584575,0.0-61.0-0.8,FALSE,TRUE,FALSE,TRUE,"""event"",""trial"",""time""
""blur"",""2"",""5391""
""focus"",""2"",""32076""
""fullscreenenter"",""5"",""57586""
","""event"",""trial"",""time""
""blur"",""2"",""5391""
","""event"",""trial"",""time""
""focus"",""2"",""32076""
","""event"",""trial"",""time""
""fullscreenenter"",""5"",""57586""
","
",1314.7849999950267,NA,48,NA,NA,3000,1,NA,NA,images/earth.jpg,images/tutrocket1,images/tutrocket2,null,images/tutrocket1,NA,1,practice,null,2,NA,NA,NA,sub90
d3-animate-choice,86,588250,0.0-61.0-1.8,FALSE,TRUE,FALSE,TRUE,"""event"",""trial"",""time""
""blur"",""2"",""5391""
""focus"",""2"",""32076""
""fullscreenenter"",""5"",""57586""
","""event"",""trial"",""time""
""blur"",""2"",""5391""
","""event"",""trial"",""time""
""focus"",""2"",""32076""
","""event"",""trial"",""time""
""fullscreenenter"",""5"",""57586""
","
",1667.775000038091,NA,48,NA,NA,3000,1,NA,NA,images/tutgreenplanet.jpg,images/tutalien2,images/tutalien1,images/tutrocket1,images/tutalien2,images/nothing.png,2,practice,true,2,common,0,2020-07-06T16:15:22Z,sub90
two-step-fixation,87,589259,0.0-61.0-2.8,FALSE,TRUE,FALSE,TRUE,"""event"",""trial"",""time""
""blur"",""2"",""5391""
""focus"",""2"",""32076""
""fullscreenenter"",""5"",""57586""
","""event"",""trial"",""time""
""blur"",""2"",""5391""
","""event"",""trial"",""time""
""focus"",""2"",""32076""
","""event"",""trial"",""time""
""fullscreenenter"",""5"",""57586""
","
",NA,images/earth.jpg,NA,NA,NA,NA,NA,NA,NA,NA,NA,NA,NA,NA,NA,fixation,NA,NA,NA,NA,NA,NA,sub90
d3-animate-choice,88,591806,0.0-61.0-0.9,FALSE,TRUE,FALSE,TRUE,"""event"",""trial"",""time""
""blur"",""2"",""5391""
""focus"",""2"",""32076""
""fullscreenenter"",""5"",""57586""
","""event"",""trial"",""time""
""blur"",""2"",""5391""
","""event"",""trial"",""time""
""focus"",""2"",""32076""
","""event"",""trial"",""time""
""fullscreenenter"",""5"",""57586""
","
",542.6149999839254,NA,49,NA,NA,3000,1,NA,NA,images/earth.jpg,images/tutrocket1,images/tutrocket2,null,images/tutrocket2,NA,1,practice,null,1,NA,NA,NA,sub90
d3-animate-choice,89,595394,0.0-61.0-1.9,FALSE,TRUE,FALSE,TRUE,"""event"",""trial"",""time""
""blur"",""2"",""5391""
""focus"",""2"",""32076""
""fullscreenenter"",""5"",""57586""
","""event"",""trial"",""time""
""blur"",""2"",""5391""
","""event"",""trial"",""time""
""focus"",""2"",""32076""
","""event"",""trial"",""time""
""fullscreenenter"",""5"",""57586""
","
",1582.445000007283,NA,48,NA,NA,3000,1,NA,NA,images/tutyellowplanet.jpg,images/tutalien4,images/tutalien3,images/tutrocket2,images/tutalien4,images/t.png,2,practice,true,2,common,1,2020-07-06T16:15:29Z,sub90
two-step-fixation,90,596398,0.0-61.0-2.9,FALSE,TRUE,FALSE,TRUE,"""event"",""trial"",""time""
""blur"",""2"",""5391""
""focus"",""2"",""32076""
""fullscreenenter"",""5"",""57586""
","""event"",""trial"",""time""
""blur"",""2"",""5391""
","""event"",""trial"",""time""
""focus"",""2"",""32076""
","""event"",""trial"",""time""
""fullscreenenter"",""5"",""57586""
","
",NA,images/earth.jpg,NA,NA,NA,NA,NA,NA,NA,NA,NA,NA,NA,NA,NA,fixation,NA,NA,NA,NA,NA,NA,sub90
d3-animate-choice,91,599797,0.0-61.0-0.10,FALSE,TRUE,FALSE,TRUE,"""event"",""trial"",""time""
""blur"",""2"",""5391""
""focus"",""2"",""32076""
""fullscreenenter"",""5"",""57586""
","""event"",""trial"",""time""
""blur"",""2"",""5391""
","""event"",""trial"",""time""
""focus"",""2"",""32076""
","""event"",""trial"",""time""
""fullscreenenter"",""5"",""57586""
","
",1394.579999963753,NA,48,NA,NA,3000,1,NA,NA,images/earth.jpg,images/tutrocket1,images/tutrocket2,null,images/tutrocket1,NA,1,practice,null,2,NA,NA,NA,sub90
d3-animate-choice,92,602584,0.0-61.0-1.10,FALSE,TRUE,FALSE,TRUE,"""event"",""trial"",""time""
""blur"",""2"",""5391""
""focus"",""2"",""32076""
""fullscreenenter"",""5"",""57586""
","""event"",""trial"",""time""
""blur"",""2"",""5391""
","""event"",""trial"",""time""
""focus"",""2"",""32076""
","""event"",""trial"",""time""
""fullscreenenter"",""5"",""57586""
","
",783.8749999646097,NA,49,NA,NA,3000,1,NA,NA,images/tutgreenplanet.jpg,images/tutalien2,images/tutalien1,images/tutrocket1,images/tutalien1,images/t.png,2,practice,true,1,common,1,2020-07-06T16:15:36Z,sub90
two-step-fixation,93,603589,0.0-61.0-2.10,FALSE,TRUE,FALSE,TRUE,"""event"",""trial"",""time""
""blur"",""2"",""5391""
""focus"",""2"",""32076""
""fullscreenenter"",""5"",""57586""
","""event"",""trial"",""time""
""blur"",""2"",""5391""
","""event"",""trial"",""time""
""focus"",""2"",""32076""
","""event"",""trial"",""time""
""fullscreenenter"",""5"",""57586""
","
",NA,images/earth.jpg,NA,NA,NA,NA,NA,NA,NA,NA,NA,NA,NA,NA,NA,fixation,NA,NA,NA,NA,NA,NA,sub90
d3-animate-choice,94,606277,0.0-61.0-0.11,FALSE,TRUE,FALSE,TRUE,"""event"",""trial"",""time""
""blur"",""2"",""5391""
""focus"",""2"",""32076""
""fullscreenenter"",""5"",""57586""
","""event"",""trial"",""time""
""blur"",""2"",""5391""
","""event"",""trial"",""time""
""focus"",""2"",""32076""
","""event"",""trial"",""time""
""fullscreenenter"",""5"",""57586""
","
",681.9649999961257,NA,49,NA,NA,3000,1,NA,NA,images/earth.jpg,images/tutrocket1,images/tutrocket2,null,images/tutrocket2,NA,1,practice,null,1,NA,NA,NA,sub90
d3-animate-choice,95,609156,0.0-61.0-1.11,FALSE,TRUE,FALSE,TRUE,"""event"",""trial"",""time""
""blur"",""2"",""5391""
""focus"",""2"",""32076""
""fullscreenenter"",""5"",""57586""
","""event"",""trial"",""time""
""blur"",""2"",""5391""
","""event"",""trial"",""time""
""focus"",""2"",""32076""
","""event"",""trial"",""time""
""fullscreenenter"",""5"",""57586""
","
",873.7299999920651,NA,48,NA,NA,3000,1,NA,NA,images/tutgreenplanet.jpg,images/tutalien2,images/tutalien1,images/tutrocket2,images/tutalien2,images/nothing.png,2,practice,false,2,rare,0,2020-07-06T16:15:43Z,sub90
two-step-fixation,96,610160,0.0-61.0-2.11,FALSE,TRUE,FALSE,TRUE,"""event"",""trial"",""time""
""blur"",""2"",""5391""
""focus"",""2"",""32076""
""fullscreenenter"",""5"",""57586""
","""event"",""trial"",""time""
""blur"",""2"",""5391""
","""event"",""trial"",""time""
""focus"",""2"",""32076""
","""event"",""trial"",""time""
""fullscreenenter"",""5"",""57586""
","
",NA,images/earth.jpg,NA,NA,NA,NA,NA,NA,NA,NA,NA,NA,NA,NA,NA,fixation,NA,NA,NA,NA,NA,NA,sub90
d3-animate-choice,97,612491,0.0-61.0-0.12,FALSE,TRUE,FALSE,TRUE,"""event"",""trial"",""time""
""blur"",""2"",""5391""
""focus"",""2"",""32076""
""fullscreenenter"",""5"",""57586""
","""event"",""trial"",""time""
""blur"",""2"",""5391""
","""event"",""trial"",""time""
""focus"",""2"",""32076""
","""event"",""trial"",""time""
""fullscreenenter"",""5"",""57586""
","
",325.96000004559755,NA,49,NA,NA,3000,1,NA,NA,images/earth.jpg,images/tutrocket1,images/tutrocket2,null,images/tutrocket2,NA,1,practice,null,1,NA,NA,NA,sub90
d3-animate-choice,98,615012,0.0-61.0-1.12,FALSE,TRUE,FALSE,TRUE,"""event"",""trial"",""time""
""blur"",""2"",""5391""
""focus"",""2"",""32076""
""fullscreenenter"",""5"",""57586""
","""event"",""trial"",""time""
""blur"",""2"",""5391""
","""event"",""trial"",""time""
""focus"",""2"",""32076""
","""event"",""trial"",""time""
""fullscreenenter"",""5"",""57586""
","
",516.0799999721348,NA,49,NA,NA,3000,1,NA,NA,images/tutyellowplanet.jpg,images/tutalien4,images/tutalien3,images/tutrocket2,images/tutalien3,images/nothing.png,2,practice,true,1,common,0,2020-07-06T16:15:49Z,sub90
two-step-fixation,99,616016,0.0-61.0-2.12,FALSE,TRUE,FALSE,TRUE,"""event"",""trial"",""time""
""blur"",""2"",""5391""
""focus"",""2"",""32076""
""fullscreenenter"",""5"",""57586""
","""event"",""trial"",""time""
""blur"",""2"",""5391""
","""event"",""trial"",""time""
""focus"",""2"",""32076""
","""event"",""trial"",""time""
""fullscreenenter"",""5"",""57586""
","
",NA,images/earth.jpg,NA,NA,NA,NA,NA,NA,NA,NA,NA,NA,NA,NA,NA,fixation,NA,NA,NA,NA,NA,NA,sub90
d3-animate-choice,100,618398,0.0-61.0-0.13,FALSE,TRUE,FALSE,TRUE,"""event"",""trial"",""time""
""blur"",""2"",""5391""
""focus"",""2"",""32076""
""fullscreenenter"",""5"",""57586""
","""event"",""trial"",""time""
""blur"",""2"",""5391""
","""event"",""trial"",""time""
""focus"",""2"",""32076""
","""event"",""trial"",""time""
""fullscreenenter"",""5"",""57586""
","
",378.32000001799315,NA,48,NA,NA,3000,1,NA,NA,images/earth.jpg,images/tutrocket1,images/tutrocket2,null,images/tutrocket1,NA,1,practice,null,2,NA,NA,NA,sub90
d3-animate-choice,101,621073,0.0-61.0-1.13,FALSE,TRUE,FALSE,TRUE,"""event"",""trial"",""time""
""blur"",""2"",""5391""
""focus"",""2"",""32076""
""fullscreenenter"",""5"",""57586""
","""event"",""trial"",""time""
""blur"",""2"",""5391""
","""event"",""trial"",""time""
""focus"",""2"",""32076""
","""event"",""trial"",""time""
""fullscreenenter"",""5"",""57586""
","
",670.3749999869615,NA,49,NA,NA,3000,1,NA,NA,images/tutgreenplanet.jpg,images/tutalien2,images/tutalien1,images/tutrocket1,images/tutalien1,images/nothing.png,2,practice,true,1,common,0,2020-07-06T16:15:55Z,sub90
two-step-fixation,102,622078,0.0-61.0-2.13,FALSE,TRUE,FALSE,TRUE,"""event"",""trial"",""time""
""blur"",""2"",""5391""
""focus"",""2"",""32076""
""fullscreenenter"",""5"",""57586""
","""event"",""trial"",""time""
""blur"",""2"",""5391""
","""event"",""trial"",""time""
""focus"",""2"",""32076""
","""event"",""trial"",""time""
""fullscreenenter"",""5"",""57586""
","
",NA,images/earth.jpg,NA,NA,NA,NA,NA,NA,NA,NA,NA,NA,NA,NA,NA,fixation,NA,NA,NA,NA,NA,NA,sub90
d3-animate-choice,103,624361,0.0-61.0-0.14,FALSE,TRUE,FALSE,TRUE,"""event"",""trial"",""time""
""blur"",""2"",""5391""
""focus"",""2"",""32076""
""fullscreenenter"",""5"",""57586""
","""event"",""trial"",""time""
""blur"",""2"",""5391""
","""event"",""trial"",""time""
""focus"",""2"",""32076""
","""event"",""trial"",""time""
""fullscreenenter"",""5"",""57586""
","
",277.9650000156835,NA,48,NA,NA,3000,1,NA,NA,images/earth.jpg,images/tutrocket1,images/tutrocket2,null,images/tutrocket1,NA,1,practice,null,2,NA,NA,NA,sub90
d3-animate-choice,104,626675,0.0-61.0-1.14,FALSE,TRUE,FALSE,TRUE,"""event"",""trial"",""time""
""blur"",""2"",""5391""
""focus"",""2"",""32076""
""fullscreenenter"",""5"",""57586""
","""event"",""trial"",""time""
""blur"",""2"",""5391""
","""event"",""trial"",""time""
""focus"",""2"",""32076""
","""event"",""trial"",""time""
""fullscreenenter"",""5"",""57586""
","
",308.76000004354864,NA,48,NA,NA,3000,1,NA,NA,images/tutgreenplanet.jpg,images/tutalien2,images/tutalien1,images/tutrocket1,images/tutalien2,images/t.png,2,practice,true,2,common,1,2020-07-06T16:16:00Z,sub90
two-step-fixation,105,627679,0.0-61.0-2.14,FALSE,TRUE,FALSE,TRUE,"""event"",""trial"",""time""
""blur"",""2"",""5391""
""focus"",""2"",""32076""
""fullscreenenter"",""5"",""57586""
","""event"",""trial"",""time""
""blur"",""2"",""5391""
","""event"",""trial"",""time""
""focus"",""2"",""32076""
","""event"",""trial"",""time""
""fullscreenenter"",""5"",""57586""
","
",NA,images/earth.jpg,NA,NA,NA,NA,NA,NA,NA,NA,NA,NA,NA,NA,NA,fixation,NA,NA,NA,NA,NA,NA,sub90
d3-animate-choice,106,630419,0.0-61.0-0.15,FALSE,TRUE,FALSE,TRUE,"""event"",""trial"",""time""
""blur"",""2"",""5391""
""focus"",""2"",""32076""
""fullscreenenter"",""5"",""57586""
","""event"",""trial"",""time""
""blur"",""2"",""5391""
","""event"",""trial"",""time""
""focus"",""2"",""32076""
","""event"",""trial"",""time""
""fullscreenenter"",""5"",""57586""
","
",734.2700000153854,NA,48,NA,NA,3000,1,NA,NA,images/earth.jpg,images/tutrocket1,images/tutrocket2,null,images/tutrocket1,NA,1,practice,null,2,NA,NA,NA,sub90
d3-animate-choice,107,633577,0.0-61.0-1.15,FALSE,TRUE,FALSE,TRUE,"""event"",""trial"",""time""
""blur"",""2"",""5391""
""focus"",""2"",""32076""
""fullscreenenter"",""5"",""57586""
","""event"",""trial"",""time""
""blur"",""2"",""5391""
","""event"",""trial"",""time""
""focus"",""2"",""32076""
","""event"",""trial"",""time""
""fullscreenenter"",""5"",""57586""
","
",1153.8399999844842,NA,48,NA,NA,3000,1,NA,NA,images/tutgreenplanet.jpg,images/tutalien2,images/tutalien1,images/tutrocket1,images/tutalien2,images/t.png,2,practice,true,2,common,1,2020-07-06T16:16:07Z,sub90
two-step-fixation,108,634581,0.0-61.0-2.15,FALSE,TRUE,FALSE,TRUE,"""event"",""trial"",""time""
""blur"",""2"",""5391""
""focus"",""2"",""32076""
""fullscreenenter"",""5"",""57586""
","""event"",""trial"",""time""
""blur"",""2"",""5391""
","""event"",""trial"",""time""
""focus"",""2"",""32076""
","""event"",""trial"",""time""
""fullscreenenter"",""5"",""57586""
","
",NA,images/earth.jpg,NA,NA,NA,NA,NA,NA,NA,NA,NA,NA,NA,NA,NA,fixation,NA,NA,NA,NA,NA,NA,sub90
d3-animate-choice,109,637097,0.0-61.0-0.16,FALSE,TRUE,FALSE,TRUE,"""event"",""trial"",""time""
""blur"",""2"",""5391""
""focus"",""2"",""32076""
""fullscreenenter"",""5"",""57586""
","""event"",""trial"",""time""
""blur"",""2"",""5391""
","""event"",""trial"",""time""
""focus"",""2"",""32076""
","""event"",""trial"",""time""
""fullscreenenter"",""5"",""57586""
","
",511.1649999744259,NA,49,NA,NA,3000,1,NA,NA,images/earth.jpg,images/tutrocket1,images/tutrocket2,null,images/tutrocket2,NA,1,practice,null,1,NA,NA,NA,sub90
d3-animate-choice,110,640950,0.0-61.0-1.16,FALSE,TRUE,FALSE,TRUE,"""event"",""trial"",""time""
""blur"",""2"",""5391""
""focus"",""2"",""32076""
""fullscreenenter"",""5"",""57586""
","""event"",""trial"",""time""
""blur"",""2"",""5391""
","""event"",""trial"",""time""
""focus"",""2"",""32076""
","""event"",""trial"",""time""
""fullscreenenter"",""5"",""57586""
","
",1847.3400000366382,NA,48,NA,NA,3000,1,NA,NA,images/tutyellowplanet.jpg,images/tutalien4,images/tutalien3,images/tutrocket2,images/tutalien4,images/nothing.png,2,practice,true,2,common,0,2020-07-06T16:16:15Z,sub90
two-step-fixation,111,641955,0.0-61.0-2.16,FALSE,TRUE,FALSE,TRUE,"""event"",""trial"",""time""
""blur"",""2"",""5391""
""focus"",""2"",""32076""
""fullscreenenter"",""5"",""57586""
","""event"",""trial"",""time""
""blur"",""2"",""5391""
","""event"",""trial"",""time""
""focus"",""2"",""32076""
","""event"",""trial"",""time""
""fullscreenenter"",""5"",""57586""
","
",NA,images/earth.jpg,NA,NA,NA,NA,NA,NA,NA,NA,NA,NA,NA,NA,NA,fixation,NA,NA,NA,NA,NA,NA,sub90
d3-animate-choice,112,644601,0.0-61.0-0.17,FALSE,TRUE,FALSE,TRUE,"""event"",""trial"",""time""
""blur"",""2"",""5391""
""focus"",""2"",""32076""
""fullscreenenter"",""5"",""57586""
","""event"",""trial"",""time""
""blur"",""2"",""5391""
","""event"",""trial"",""time""
""focus"",""2"",""32076""
","""event"",""trial"",""time""
""fullscreenenter"",""5"",""57586""
","
",641.7099999962375,NA,48,NA,NA,3000,1,NA,NA,images/earth.jpg,images/tutrocket1,images/tutrocket2,null,images/tutrocket1,NA,1,practice,null,2,NA,NA,NA,sub90
d3-animate-choice,113,647256,0.0-61.0-1.17,FALSE,TRUE,FALSE,TRUE,"""event"",""trial"",""time""
""blur"",""2"",""5391""
""focus"",""2"",""32076""
""fullscreenenter"",""5"",""57586""
","""event"",""trial"",""time""
""blur"",""2"",""5391""
","""event"",""trial"",""time""
""focus"",""2"",""32076""
","""event"",""trial"",""time""
""fullscreenenter"",""5"",""57586""
","
",650.3549999906681,NA,49,NA,NA,3000,1,NA,NA,images/tutgreenplanet.jpg,images/tutalien2,images/tutalien1,images/tutrocket1,images/tutalien1,images/nothing.png,2,practice,true,1,common,0,2020-07-06T16:16:21Z,sub90
two-step-fixation,114,648261,0.0-61.0-2.17,FALSE,TRUE,FALSE,TRUE,"""event"",""trial"",""time""
""blur"",""2"",""5391""
""focus"",""2"",""32076""
""fullscreenenter"",""5"",""57586""
","""event"",""trial"",""time""
""blur"",""2"",""5391""
","""event"",""trial"",""time""
""focus"",""2"",""32076""
","""event"",""trial"",""time""
""fullscreenenter"",""5"",""57586""
","
",NA,images/earth.jpg,NA,NA,NA,NA,NA,NA,NA,NA,NA,NA,NA,NA,NA,fixation,NA,NA,NA,NA,NA,NA,sub90
d3-animate-choice,115,650797,0.0-61.0-0.18,FALSE,TRUE,FALSE,TRUE,"""event"",""trial"",""time""
""blur"",""2"",""5391""
""focus"",""2"",""32076""
""fullscreenenter"",""5"",""57586""
","""event"",""trial"",""time""
""blur"",""2"",""5391""
","""event"",""trial"",""time""
""focus"",""2"",""32076""
","""event"",""trial"",""time""
""fullscreenenter"",""5"",""57586""
","
",531.2549999798648,NA,48,NA,NA,3000,1,NA,NA,images/earth.jpg,images/tutrocket1,images/tutrocket2,null,images/tutrocket1,NA,1,practice,null,2,NA,NA,NA,sub90
d3-animate-choice,116,653827,0.0-61.0-1.18,FALSE,TRUE,FALSE,TRUE,"""event"",""trial"",""time""
""blur"",""2"",""5391""
""focus"",""2"",""32076""
""fullscreenenter"",""5"",""57586""
","""event"",""trial"",""time""
""blur"",""2"",""5391""
","""event"",""trial"",""time""
""focus"",""2"",""32076""
","""event"",""trial"",""time""
""fullscreenenter"",""5"",""57586""
","
",1026.0400000261143,NA,48,NA,NA,3000,1,NA,NA,images/tutgreenplanet.jpg,images/tutalien2,images/tutalien1,images/tutrocket1,images/tutalien2,images/nothing.png,2,practice,true,2,common,0,2020-07-06T16:16:28Z,sub90
two-step-fixation,117,654832,0.0-61.0-2.18,FALSE,TRUE,FALSE,TRUE,"""event"",""trial"",""time""
""blur"",""2"",""5391""
""focus"",""2"",""32076""
""fullscreenenter"",""5"",""57586""
","""event"",""trial"",""time""
""blur"",""2"",""5391""
","""event"",""trial"",""time""
""focus"",""2"",""32076""
","""event"",""trial"",""time""
""fullscreenenter"",""5"",""57586""
","
",NA,images/earth.jpg,NA,NA,NA,NA,NA,NA,NA,NA,NA,NA,NA,NA,NA,fixation,NA,NA,NA,NA,NA,NA,sub90
d3-animate-choice,118,657189,0.0-61.0-0.19,FALSE,TRUE,FALSE,TRUE,"""event"",""trial"",""time""
""blur"",""2"",""5391""
""focus"",""2"",""32076""
""fullscreenenter"",""5"",""57586""
","""event"",""trial"",""time""
""blur"",""2"",""5391""
","""event"",""trial"",""time""
""focus"",""2"",""32076""
","""event"",""trial"",""time""
""fullscreenenter"",""5"",""57586""
","
",351.6500000259839,NA,49,NA,NA,3000,1,"1807.2200000169687,2238.6500000138767",4848,images/earth.jpg,images/tutrocket1,images/tutrocket2,null,images/tutrocket2,NA,1,practice,null,1,NA,NA,NA,sub90
d3-animate-choice,119,659346,0.0-61.0-1.19,FALSE,TRUE,FALSE,TRUE,"""event"",""trial"",""time""
""blur"",""2"",""5391""
""focus"",""2"",""32076""
""fullscreenenter"",""5"",""57586""
","""event"",""trial"",""time""
""blur"",""2"",""5391""
","""event"",""trial"",""time""
""focus"",""2"",""32076""
","""event"",""trial"",""time""
""fullscreenenter"",""5"",""57586""
","
",151.7149999854155,NA,48,NA,NA,3000,1,NA,NA,images/tutyellowplanet.jpg,images/tutalien4,images/tutalien3,images/tutrocket2,images/tutalien4,images/nothing.png,2,practice,true,2,common,0,2020-07-06T16:16:33Z,sub90
two-step-fixation,120,660349,0.0-61.0-2.19,FALSE,TRUE,FALSE,TRUE,"""event"",""trial"",""time""
""blur"",""2"",""5391""
""focus"",""2"",""32076""
""fullscreenenter"",""5"",""57586""
","""event"",""trial"",""time""
""blur"",""2"",""5391""
","""event"",""trial"",""time""
""focus"",""2"",""32076""
","""event"",""trial"",""time""
""fullscreenenter"",""5"",""57586""
","
",NA,images/earth.jpg,NA,NA,NA,NA,NA,NA,NA,NA,NA,NA,NA,NA,NA,fixation,NA,NA,NA,NA,NA,NA,sub90
d3-instructions,121,668750,0.0-62.0,FALSE,TRUE,FALSE,TRUE,"""event"",""trial"",""time""
""blur"",""2"",""5391""
""focus"",""2"",""32076""
""fullscreenenter"",""5"",""57586""
","""event"",""trial"",""time""
""blur"",""2"",""5391""
","""event"",""trial"",""time""
""focus"",""2"",""32076""
","""event"",""trial"",""time""
""fullscreenenter"",""5"",""57586""
","
",NA,NA,NA,NA,NA,NA,NA,NA,NA,NA,NA,NA,NA,NA,NA,NA,NA,NA,NA,NA,NA,NA,sub90
audio-keyboard-response,122,673435,0.0-63.0,FALSE,TRUE,FALSE,TRUE,"""event"",""trial"",""time""
""blur"",""2"",""5391""
""focus"",""2"",""32076""
""fullscreenenter"",""5"",""57586""
","""event"",""trial"",""time""
""blur"",""2"",""5391""
","""event"",""trial"",""time""
""focus"",""2"",""32076""
","""event"",""trial"",""time""
""fullscreenenter"",""5"",""57586""
","
",4680,audio/instructions/treasure_feedback.wav,32,NA,NA,NA,NA,NA,NA,NA,NA,NA,NA,NA,NA,NA,NA,NA,NA,NA,NA,NA,sub90
d3-instructions,123,694806,0.0-64.0,FALSE,TRUE,FALSE,TRUE,"""event"",""trial"",""time""
""blur"",""2"",""5391""
""focus"",""2"",""32076""
""fullscreenenter"",""5"",""57586""
","""event"",""trial"",""time""
""blur"",""2"",""5391""
","""event"",""trial"",""time""
""focus"",""2"",""32076""
","""event"",""trial"",""time""
""fullscreenenter"",""5"",""57586""
","
",NA,NA,NA,NA,NA,NA,NA,NA,NA,NA,NA,NA,NA,NA,NA,NA,NA,NA,NA,NA,NA,NA,sub90
d3-instructions,124,710642,0.0-65.0,FALSE,TRUE,FALSE,TRUE,"""event"",""trial"",""time""
""blur"",""2"",""5391""
""focus"",""2"",""32076""
""fullscreenenter"",""5"",""57586""
","""event"",""trial"",""time""
""blur"",""2"",""5391""
","""event"",""trial"",""time""
""focus"",""2"",""32076""
","""event"",""trial"",""time""
""fullscreenenter"",""5"",""57586""
","
",NA,NA,NA,NA,NA,NA,NA,NA,NA,NA,NA,NA,NA,NA,NA,NA,NA,NA,NA,NA,NA,NA,sub90
d3-instructions,125,732809,0.0-66.0,FALSE,TRUE,FALSE,TRUE,"""event"",""trial"",""time""
""blur"",""2"",""5391""
""focus"",""2"",""32076""
""fullscreenenter"",""5"",""57586""
","""event"",""trial"",""time""
""blur"",""2"",""5391""
","""event"",""trial"",""time""
""focus"",""2"",""32076""
","""event"",""trial"",""time""
""fullscreenenter"",""5"",""57586""
","
",NA,NA,NA,NA,NA,NA,NA,NA,NA,NA,NA,NA,NA,NA,NA,NA,NA,NA,NA,NA,NA,NA,sub90
d3-instructions,126,748670,0.0-67.0,FALSE,TRUE,FALSE,TRUE,"""event"",""trial"",""time""
""blur"",""2"",""5391""
""focus"",""2"",""32076""
""fullscreenenter"",""5"",""57586""
","""event"",""trial"",""time""
""blur"",""2"",""5391""
","""event"",""trial"",""time""
""focus"",""2"",""32076""
","""event"",""trial"",""time""
""fullscreenenter"",""5"",""57586""
","
",NA,NA,NA,NA,NA,NA,NA,NA,NA,NA,NA,NA,NA,NA,NA,NA,NA,NA,NA,NA,NA,NA,sub90
d3-instructions,127,757223,0.0-68.0,FALSE,TRUE,FALSE,TRUE,"""event"",""trial"",""time""
""blur"",""2"",""5391""
""focus"",""2"",""32076""
""fullscreenenter"",""5"",""57586""
","""event"",""trial"",""time""
""blur"",""2"",""5391""
","""event"",""trial"",""time""
""focus"",""2"",""32076""
","""event"",""trial"",""time""
""fullscreenenter"",""5"",""57586""
","
",NA,NA,NA,NA,NA,NA,NA,NA,NA,NA,NA,NA,NA,NA,NA,NA,NA,NA,NA,NA,NA,NA,sub90
instructions-quiz,128,768727,0.0-69.0,FALSE,TRUE,FALSE,TRUE,"""event"",""trial"",""time""
""blur"",""2"",""5391""
""focus"",""2"",""32076""
""fullscreenenter"",""5"",""57586""
","""event"",""trial"",""time""
""blur"",""2"",""5391""
","""event"",""trial"",""time""
""focus"",""2"",""32076""
","""event"",""trial"",""time""
""fullscreenenter"",""5"",""57586""
","
",11500.8749999688,audio/quiz/Q1_Prompt.wav,NA,0,NA,NA,NA,NA,NA,NA,NA,NA,NA,NA,NA,NA,NA,NA,NA,NA,NA,NA,sub90
audio-keyboard-response,129,779000,0.0-70.0,FALSE,TRUE,FALSE,TRUE,"""event"",""trial"",""time""
""blur"",""2"",""5391""
""focus"",""2"",""32076""
""fullscreenenter"",""5"",""57586""
","""event"",""trial"",""time""
""blur"",""2"",""5391""
","""event"",""trial"",""time""
""focus"",""2"",""32076""
","""event"",""trial"",""time""
""fullscreenenter"",""5"",""57586""
","
",null,audio/quiz/Q1_Incorrect.wav,null,NA,NA,NA,NA,NA,NA,NA,NA,NA,NA,NA,NA,NA,NA,NA,NA,NA,NA,NA,sub90
instructions-quiz,130,788540,0.0-71.0,FALSE,TRUE,FALSE,TRUE,"""event"",""trial"",""time""
""blur"",""2"",""5391""
""focus"",""2"",""32076""
""fullscreenenter"",""5"",""57586""
","""event"",""trial"",""time""
""blur"",""2"",""5391""
","""event"",""trial"",""time""
""focus"",""2"",""32076""
","""event"",""trial"",""time""
""fullscreenenter"",""5"",""57586""
","
",9538.119999982882,audio/quiz/Q2_Prompt.wav,NA,0,NA,NA,NA,NA,NA,NA,NA,NA,NA,NA,NA,NA,NA,NA,NA,NA,NA,NA,sub90
audio-keyboard-response,131,801409,0.0-72.0,FALSE,TRUE,FALSE,TRUE,"""event"",""trial"",""time""
""blur"",""2"",""5391""
""focus"",""2"",""32076""
""fullscreenenter"",""5"",""57586""
","""event"",""trial"",""time""
""blur"",""2"",""5391""
","""event"",""trial"",""time""
""focus"",""2"",""32076""
","""event"",""trial"",""time""
""fullscreenenter"",""5"",""57586""
","
",null,audio/quiz/Q2_Correct.wav,null,NA,NA,NA,NA,NA,NA,NA,NA,NA,NA,NA,NA,NA,NA,NA,NA,NA,NA,NA,sub90
instructions-quiz,132,806224,0.0-73.0,FALSE,TRUE,FALSE,TRUE,"""event"",""trial"",""time""
""blur"",""2"",""5391""
""focus"",""2"",""32076""
""fullscreenenter"",""5"",""57586""
","""event"",""trial"",""time""
""blur"",""2"",""5391""
","""event"",""trial"",""time""
""focus"",""2"",""32076""
","""event"",""trial"",""time""
""fullscreenenter"",""5"",""57586""
","
",4812.329999986105,audio/quiz/Q3_Prompt.wav,NA,1,NA,NA,NA,NA,NA,NA,NA,NA,NA,NA,NA,NA,NA,NA,NA,NA,NA,NA,sub90
audio-keyboard-response,133,812020,0.0-74.0,FALSE,TRUE,FALSE,TRUE,"""event"",""trial"",""time""
""blur"",""2"",""5391""
""focus"",""2"",""32076""
""fullscreenenter"",""5"",""57586""
","""event"",""trial"",""time""
""blur"",""2"",""5391""
","""event"",""trial"",""time""
""focus"",""2"",""32076""
","""event"",""trial"",""time""
""fullscreenenter"",""5"",""57586""
","
",null,audio/quiz/Q3_Correct.wav,null,NA,NA,NA,NA,NA,NA,NA,NA,NA,NA,NA,NA,NA,NA,NA,NA,NA,NA,NA,sub90
d3-instructions,134,813719,0.0-75.0,FALSE,TRUE,FALSE,TRUE,"""event"",""trial"",""time""
""blur"",""2"",""5391""
""focus"",""2"",""32076""
""fullscreenenter"",""5"",""57586""
","""event"",""trial"",""time""
""blur"",""2"",""5391""
","""event"",""trial"",""time""
""focus"",""2"",""32076""
","""event"",""trial"",""time""
""fullscreenenter"",""5"",""57586""
","
",NA,NA,NA,NA,NA,NA,NA,NA,NA,NA,NA,NA,NA,NA,NA,NA,NA,NA,NA,NA,NA,NA,sub90
d3-animate-choice,135,817725,0.0-76.0-0.0,FALSE,TRUE,FALSE,TRUE,"""event"",""trial"",""time""
""blur"",""2"",""5391""
""focus"",""2"",""32076""
""fullscreenenter"",""5"",""57586""
","""event"",""trial"",""time""
""blur"",""2"",""5391""
","""event"",""trial"",""time""
""focus"",""2"",""32076""
","""event"",""trial"",""time""
""fullscreenenter"",""5"",""57586""
","
",2436.485000012908,NA,49,NA,NA,3000,1,NA,NA,images/earth.jpg,images/rocket1,images/rocket2,null,images/rocket2,NA,1,real,null,1,NA,NA,NA,sub90
d3-animate-choice,136,820870,0.0-76.0-1.0,FALSE,TRUE,FALSE,TRUE,"""event"",""trial"",""time""
""blur"",""2"",""5391""
""focus"",""2"",""32076""
""fullscreenenter"",""5"",""57586""
","""event"",""trial"",""time""
""blur"",""2"",""5391""
","""event"",""trial"",""time""
""focus"",""2"",""32076""
","""event"",""trial"",""time""
""fullscreenenter"",""5"",""57586""
","
",1140.9749999875203,NA,48,NA,NA,3000,1,NA,NA,images/purpleplanet.jpg,images/alien4,images/alien3,images/rocket2,images/alien4,images/nothing.png,2,real,true,2,common,0,2020-07-06T16:19:15Z,sub90
two-step-fixation,137,821874,0.0-76.0-2.0,FALSE,TRUE,FALSE,TRUE,"""event"",""trial"",""time""
""blur"",""2"",""5391""
""focus"",""2"",""32076""
""fullscreenenter"",""5"",""57586""
","""event"",""trial"",""time""
""blur"",""2"",""5391""
","""event"",""trial"",""time""
""focus"",""2"",""32076""
","""event"",""trial"",""time""
""fullscreenenter"",""5"",""57586""
","
",NA,images/earth.jpg,NA,NA,NA,NA,NA,NA,NA,NA,NA,NA,NA,NA,NA,fixation,NA,NA,NA,NA,NA,NA,sub90
d3-animate-choice,138,824647,0.0-76.0-0.1,FALSE,TRUE,FALSE,TRUE,"""event"",""trial"",""time""
""blur"",""2"",""5391""
""focus"",""2"",""32076""
""fullscreenenter"",""5"",""57586""
","""event"",""trial"",""time""
""blur"",""2"",""5391""
","""event"",""trial"",""time""
""focus"",""2"",""32076""
","""event"",""trial"",""time""
""fullscreenenter"",""5"",""57586""
","
",768.5249999631196,NA,49,NA,NA,3000,1,NA,NA,images/earth.jpg,images/rocket1,images/rocket2,null,images/rocket2,NA,1,real,null,1,NA,NA,NA,sub90
d3-animate-choice,139,827966,0.0-76.0-1.1,FALSE,TRUE,FALSE,TRUE,"""event"",""trial"",""time""
""blur"",""2"",""5391""
""focus"",""2"",""32076""
""fullscreenenter"",""5"",""57586""
","""event"",""trial"",""time""
""blur"",""2"",""5391""
","""event"",""trial"",""time""
""focus"",""2"",""32076""
","""event"",""trial"",""time""
""fullscreenenter"",""5"",""57586""
","
",1313.0500000552274,NA,49,NA,NA,3000,1,NA,NA,images/purpleplanet.jpg,images/alien4,images/alien3,images/rocket2,images/alien3,images/t.png,2,real,true,1,common,1,2020-07-06T16:19:22Z,sub90
two-step-fixation,140,828969,0.0-76.0-2.1,FALSE,TRUE,FALSE,TRUE,"""event"",""trial"",""time""
""blur"",""2"",""5391""
""focus"",""2"",""32076""
""fullscreenenter"",""5"",""57586""
","""event"",""trial"",""time""
""blur"",""2"",""5391""
","""event"",""trial"",""time""
""focus"",""2"",""32076""
","""event"",""trial"",""time""
""fullscreenenter"",""5"",""57586""
","
",NA,images/earth.jpg,NA,NA,NA,NA,NA,NA,NA,NA,NA,NA,NA,NA,NA,fixation,NA,NA,NA,NA,NA,NA,sub90
d3-animate-choice,141,831295,0.0-76.0-0.2,FALSE,TRUE,FALSE,TRUE,"""event"",""trial"",""time""
""blur"",""2"",""5391""
""focus"",""2"",""32076""
""fullscreenenter"",""5"",""57586""
","""event"",""trial"",""time""
""blur"",""2"",""5391""
","""event"",""trial"",""time""
""focus"",""2"",""32076""
","""event"",""trial"",""time""
""fullscreenenter"",""5"",""57586""
","
",321.7499999445863,NA,48,NA,NA,3000,1,NA,NA,images/earth.jpg,images/rocket1,images/rocket2,null,images/rocket1,NA,1,real,null,2,NA,NA,NA,sub90
d3-animate-choice,142,835205,0.0-76.0-1.2,FALSE,TRUE,FALSE,TRUE,"""event"",""trial"",""time""
""blur"",""2"",""5391""
""focus"",""2"",""32076""
""fullscreenenter"",""5"",""57586""
","""event"",""trial"",""time""
""blur"",""2"",""5391""
","""event"",""trial"",""time""
""focus"",""2"",""32076""
","""event"",""trial"",""time""
""fullscreenenter"",""5"",""57586""
","
",1905.2849999861792,NA,49,NA,NA,3000,1,NA,NA,images/redplanet1.jpg,images/alien2,images/alien1,images/rocket1,images/alien1,images/nothing.png,2,real,true,1,common,0,2020-07-06T16:19:29Z,sub90
two-step-fixation,143,836208,0.0-76.0-2.2,FALSE,TRUE,FALSE,TRUE,"""event"",""trial"",""time""
""blur"",""2"",""5391""
""focus"",""2"",""32076""
""fullscreenenter"",""5"",""57586""
","""event"",""trial"",""time""
""blur"",""2"",""5391""
","""event"",""trial"",""time""
""focus"",""2"",""32076""
","""event"",""trial"",""time""
""fullscreenenter"",""5"",""57586""
","
",NA,images/earth.jpg,NA,NA,NA,NA,NA,NA,NA,NA,NA,NA,NA,NA,NA,fixation,NA,NA,NA,NA,NA,NA,sub90
d3-animate-choice,144,838640,0.0-76.0-0.3,FALSE,TRUE,FALSE,TRUE,"""event"",""trial"",""time""
""blur"",""2"",""5391""
""focus"",""2"",""32076""
""fullscreenenter"",""5"",""57586""
","""event"",""trial"",""time""
""blur"",""2"",""5391""
","""event"",""trial"",""time""
""focus"",""2"",""32076""
","""event"",""trial"",""time""
""fullscreenenter"",""5"",""57586""
","
",428.02500003017485,NA,48,NA,NA,3000,1,NA,NA,images/earth.jpg,images/rocket1,images/rocket2,null,images/rocket1,NA,1,real,null,2,NA,NA,NA,sub90
d3-animate-choice,145,841856,0.0-76.0-1.3,FALSE,TRUE,FALSE,TRUE,"""event"",""trial"",""time""
""blur"",""2"",""5391""
""focus"",""2"",""32076""
""fullscreenenter"",""5"",""57586""
","""event"",""trial"",""time""
""blur"",""2"",""5391""
","""event"",""trial"",""time""
""focus"",""2"",""32076""
","""event"",""trial"",""time""
""fullscreenenter"",""5"",""57586""
","
",1211.5650000050664,NA,49,NA,NA,3000,1,NA,NA,images/purpleplanet.jpg,images/alien4,images/alien3,images/rocket1,images/alien3,images/nothing.png,2,real,false,1,rare,0,2020-07-06T16:19:36Z,sub90
two-step-fixation,146,842861,0.0-76.0-2.3,FALSE,TRUE,FALSE,TRUE,"""event"",""trial"",""time""
""blur"",""2"",""5391""
""focus"",""2"",""32076""
""fullscreenenter"",""5"",""57586""
","""event"",""trial"",""time""
""blur"",""2"",""5391""
","""event"",""trial"",""time""
""focus"",""2"",""32076""
","""event"",""trial"",""time""
""fullscreenenter"",""5"",""57586""
","
",NA,images/earth.jpg,NA,NA,NA,NA,NA,NA,NA,NA,NA,NA,NA,NA,NA,fixation,NA,NA,NA,NA,NA,NA,sub90
d3-animate-choice,147,845311,0.0-76.0-0.4,FALSE,TRUE,FALSE,TRUE,"""event"",""trial"",""time""
""blur"",""2"",""5391""
""focus"",""2"",""32076""
""fullscreenenter"",""5"",""57586""
","""event"",""trial"",""time""
""blur"",""2"",""5391""
","""event"",""trial"",""time""
""focus"",""2"",""32076""
","""event"",""trial"",""time""
""fullscreenenter"",""5"",""57586""
","
",444.27499995799735,NA,48,NA,NA,3000,1,NA,NA,images/earth.jpg,images/rocket1,images/rocket2,null,images/rocket1,NA,1,real,null,2,NA,NA,NA,sub90
d3-animate-choice,148,848324,0.0-76.0-1.4,FALSE,TRUE,FALSE,TRUE,"""event"",""trial"",""time""
""blur"",""2"",""5391""
""focus"",""2"",""32076""
""fullscreenenter"",""5"",""57586""
","""event"",""trial"",""time""
""blur"",""2"",""5391""
","""event"",""trial"",""time""
""focus"",""2"",""32076""
","""event"",""trial"",""time""
""fullscreenenter"",""5"",""57586""
","
",1008.5400000098161,NA,48,NA,NA,3000,1,NA,NA,images/redplanet1.jpg,images/alien2,images/alien1,images/rocket1,images/alien2,images/t.png,2,real,true,2,common,1,2020-07-06T16:19:42Z,sub90
two-step-fixation,149,849326,0.0-76.0-2.4,FALSE,TRUE,FALSE,TRUE,"""event"",""trial"",""time""
""blur"",""2"",""5391""
""focus"",""2"",""32076""
""fullscreenenter"",""5"",""57586""
","""event"",""trial"",""time""
""blur"",""2"",""5391""
","""event"",""trial"",""time""
""focus"",""2"",""32076""
","""event"",""trial"",""time""
""fullscreenenter"",""5"",""57586""
","
",NA,images/earth.jpg,NA,NA,NA,NA,NA,NA,NA,NA,NA,NA,NA,NA,NA,fixation,NA,NA,NA,NA,NA,NA,sub90
d3-animate-choice,150,851917,0.0-76.0-0.5,FALSE,TRUE,FALSE,TRUE,"""event"",""trial"",""time""
""blur"",""2"",""5391""
""focus"",""2"",""32076""
""fullscreenenter"",""5"",""57586""
","""event"",""trial"",""time""
""blur"",""2"",""5391""
","""event"",""trial"",""time""
""focus"",""2"",""32076""
","""event"",""trial"",""time""
""fullscreenenter"",""5"",""57586""
","
",588.1449999869801,NA,49,NA,NA,3000,1,NA,NA,images/earth.jpg,images/rocket1,images/rocket2,null,images/rocket2,NA,1,real,null,1,NA,NA,NA,sub90
d3-animate-choice,151,854413,0.0-76.0-1.5,FALSE,TRUE,FALSE,TRUE,"""event"",""trial"",""time""
""blur"",""2"",""5391""
""focus"",""2"",""32076""
""fullscreenenter"",""5"",""57586""
","""event"",""trial"",""time""
""blur"",""2"",""5391""
","""event"",""trial"",""time""
""focus"",""2"",""32076""
","""event"",""trial"",""time""
""fullscreenenter"",""5"",""57586""
","
",490.6100000371225,NA,48,NA,NA,3000,1,NA,NA,images/purpleplanet.jpg,images/alien4,images/alien3,images/rocket2,images/alien4,images/t.png,2,real,true,2,common,1,2020-07-06T16:19:48Z,sub90
two-step-fixation,152,855418,0.0-76.0-2.5,FALSE,TRUE,FALSE,TRUE,"""event"",""trial"",""time""
""blur"",""2"",""5391""
""focus"",""2"",""32076""
""fullscreenenter"",""5"",""57586""
","""event"",""trial"",""time""
""blur"",""2"",""5391""
","""event"",""trial"",""time""
""focus"",""2"",""32076""
","""event"",""trial"",""time""
""fullscreenenter"",""5"",""57586""
","
",NA,images/earth.jpg,NA,NA,NA,NA,NA,NA,NA,NA,NA,NA,NA,NA,NA,fixation,NA,NA,NA,NA,NA,NA,sub90
d3-animate-choice,153,858321,0.0-76.0-0.6,FALSE,TRUE,FALSE,TRUE,"""event"",""trial"",""time""
""blur"",""2"",""5391""
""focus"",""2"",""32076""
""fullscreenenter"",""5"",""57586""
","""event"",""trial"",""time""
""blur"",""2"",""5391""
","""event"",""trial"",""time""
""focus"",""2"",""32076""
","""event"",""trial"",""time""
""fullscreenenter"",""5"",""57586""
","
",897.1800000290386,NA,48,NA,NA,3000,1,NA,NA,images/earth.jpg,images/rocket1,images/rocket2,null,images/rocket1,NA,1,real,null,2,NA,NA,NA,sub90
d3-animate-choice,154,861164,0.0-76.0-1.6,FALSE,TRUE,FALSE,TRUE,"""event"",""trial"",""time""
""blur"",""2"",""5391""
""focus"",""2"",""32076""
""fullscreenenter"",""5"",""57586""
","""event"",""trial"",""time""
""blur"",""2"",""5391""
","""event"",""trial"",""time""
""focus"",""2"",""32076""
","""event"",""trial"",""time""
""fullscreenenter"",""5"",""57586""
","
",838.4599999990314,NA,49,NA,NA,3000,1,NA,NA,images/redplanet1.jpg,images/alien2,images/alien1,images/rocket1,images/alien1,images/nothing.png,2,real,true,1,common,0,2020-07-06T16:19:55Z,sub90
two-step-fixation,155,862169,0.0-76.0-2.6,FALSE,TRUE,FALSE,TRUE,"""event"",""trial"",""time""
""blur"",""2"",""5391""
""focus"",""2"",""32076""
""fullscreenenter"",""5"",""57586""
","""event"",""trial"",""time""
""blur"",""2"",""5391""
","""event"",""trial"",""time""
""focus"",""2"",""32076""
","""event"",""trial"",""time""
""fullscreenenter"",""5"",""57586""
","
",NA,images/earth.jpg,NA,NA,NA,NA,NA,NA,NA,NA,NA,NA,NA,NA,NA,fixation,NA,NA,NA,NA,NA,NA,sub90
d3-animate-choice,156,864663,0.0-76.0-0.7,FALSE,TRUE,FALSE,TRUE,"""event"",""trial"",""time""
""blur"",""2"",""5391""
""focus"",""2"",""32076""
""fullscreenenter"",""5"",""57586""
","""event"",""trial"",""time""
""blur"",""2"",""5391""
","""event"",""trial"",""time""
""focus"",""2"",""32076""
","""event"",""trial"",""time""
""fullscreenenter"",""5"",""57586""
","
",489.23499998636544,NA,48,NA,NA,3000,1,NA,NA,images/earth.jpg,images/rocket1,images/rocket2,null,images/rocket1,NA,1,real,null,2,NA,NA,NA,sub90
d3-animate-choice,157,868342,0.0-76.0-1.7,FALSE,TRUE,FALSE,TRUE,"""event"",""trial"",""time""
""blur"",""2"",""5391""
""focus"",""2"",""32076""
""fullscreenenter"",""5"",""57586""
","""event"",""trial"",""time""
""blur"",""2"",""5391""
","""event"",""trial"",""time""
""focus"",""2"",""32076""
","""event"",""trial"",""time""
""fullscreenenter"",""5"",""57586""
","
",1674.12499996135,NA,48,NA,NA,3000,1,NA,NA,images/redplanet1.jpg,images/alien2,images/alien1,images/rocket1,images/alien2,images/nothing.png,2,real,true,2,common,0,2020-07-06T16:20:02Z,sub90
two-step-fixation,158,869348,0.0-76.0-2.7,FALSE,TRUE,FALSE,TRUE,"""event"",""trial"",""time""
""blur"",""2"",""5391""
""focus"",""2"",""32076""
""fullscreenenter"",""5"",""57586""
","""event"",""trial"",""time""
""blur"",""2"",""5391""
","""event"",""trial"",""time""
""focus"",""2"",""32076""
","""event"",""trial"",""time""
""fullscreenenter"",""5"",""57586""
","
",NA,images/earth.jpg,NA,NA,NA,NA,NA,NA,NA,NA,NA,NA,NA,NA,NA,fixation,NA,NA,NA,NA,NA,NA,sub90
d3-animate-choice,159,871570,0.0-76.0-0.8,FALSE,TRUE,FALSE,TRUE,"""event"",""trial"",""time""
""blur"",""2"",""5391""
""focus"",""2"",""32076""
""fullscreenenter"",""5"",""57586""
","""event"",""trial"",""time""
""blur"",""2"",""5391""
","""event"",""trial"",""time""
""focus"",""2"",""32076""
","""event"",""trial"",""time""
""fullscreenenter"",""5"",""57586""
","
",216.61499998299405,NA,49,NA,NA,3000,1,NA,NA,images/earth.jpg,images/rocket1,images/rocket2,null,images/rocket2,NA,1,real,null,1,NA,NA,NA,sub90
d3-animate-choice,160,874877,0.0-76.0-1.8,FALSE,TRUE,FALSE,TRUE,"""event"",""trial"",""time""
""blur"",""2"",""5391""
""focus"",""2"",""32076""
""fullscreenenter"",""5"",""57586""
","""event"",""trial"",""time""
""blur"",""2"",""5391""
","""event"",""trial"",""time""
""focus"",""2"",""32076""
","""event"",""trial"",""time""
""fullscreenenter"",""5"",""57586""
","
",1303.3099999884143,NA,48,NA,NA,3000,1,NA,NA,images/purpleplanet.jpg,images/alien4,images/alien3,images/rocket2,images/alien4,images/t.png,2,real,true,2,common,1,2020-07-06T16:20:09Z,sub90
two-step-fixation,161,875881,0.0-76.0-2.8,FALSE,TRUE,FALSE,TRUE,"""event"",""trial"",""time""
""blur"",""2"",""5391""
""focus"",""2"",""32076""
""fullscreenenter"",""5"",""57586""
","""event"",""trial"",""time""
""blur"",""2"",""5391""
","""event"",""trial"",""time""
""focus"",""2"",""32076""
","""event"",""trial"",""time""
""fullscreenenter"",""5"",""57586""
","
",NA,images/earth.jpg,NA,NA,NA,NA,NA,NA,NA,NA,NA,NA,NA,NA,NA,fixation,NA,NA,NA,NA,NA,NA,sub90
d3-animate-choice,162,878183,0.0-76.0-0.9,FALSE,TRUE,FALSE,TRUE,"""event"",""trial"",""time""
""blur"",""2"",""5391""
""focus"",""2"",""32076""
""fullscreenenter"",""5"",""57586""
","""event"",""trial"",""time""
""blur"",""2"",""5391""
","""event"",""trial"",""time""
""focus"",""2"",""32076""
","""event"",""trial"",""time""
""fullscreenenter"",""5"",""57586""
","
",295.14000000199303,NA,49,NA,NA,3000,1,NA,NA,images/earth.jpg,images/rocket1,images/rocket2,null,images/rocket2,NA,1,real,null,1,NA,NA,NA,sub90
d3-animate-choice,163,882187,0.0-76.0-1.9,FALSE,TRUE,FALSE,TRUE,"""event"",""trial"",""time""
""blur"",""2"",""5391""
""focus"",""2"",""32076""
""fullscreenenter"",""5"",""57586""
","""event"",""trial"",""time""
""blur"",""2"",""5391""
","""event"",""trial"",""time""
""focus"",""2"",""32076""
","""event"",""trial"",""time""
""fullscreenenter"",""5"",""57586""
","
",2420.4800000297837,NA,48,NA,NA,3000,1,NA,NA,images/redplanet1.jpg,images/alien2,images/alien1,images/rocket2,images/alien2,images/nothing.png,2,real,false,2,rare,0,2020-07-06T16:20:16Z,sub90
two-step-fixation,164,883192,0.0-76.0-2.9,FALSE,TRUE,FALSE,TRUE,"""event"",""trial"",""time""
""blur"",""2"",""5391""
""focus"",""2"",""32076""
""fullscreenenter"",""5"",""57586""
","""event"",""trial"",""time""
""blur"",""2"",""5391""
","""event"",""trial"",""time""
""focus"",""2"",""32076""
","""event"",""trial"",""time""
""fullscreenenter"",""5"",""57586""
","
",NA,images/earth.jpg,NA,NA,NA,NA,NA,NA,NA,NA,NA,NA,NA,NA,NA,fixation,NA,NA,NA,NA,NA,NA,sub90
d3-animate-choice,165,885498,0.0-76.0-0.10,FALSE,TRUE,FALSE,TRUE,"""event"",""trial"",""time""
""blur"",""2"",""5391""
""focus"",""2"",""32076""
""fullscreenenter"",""5"",""57586""
","""event"",""trial"",""time""
""blur"",""2"",""5391""
","""event"",""trial"",""time""
""focus"",""2"",""32076""
","""event"",""trial"",""time""
""fullscreenenter"",""5"",""57586""
","
",303.3249999862164,NA,49,NA,NA,3000,1,NA,NA,images/earth.jpg,images/rocket1,images/rocket2,null,images/rocket2,NA,1,real,null,1,NA,NA,NA,sub90
d3-animate-choice,166,889235,0.0-76.0-1.10,FALSE,TRUE,FALSE,TRUE,"""event"",""trial"",""time""
""blur"",""2"",""5391""
""focus"",""2"",""32076""
""fullscreenenter"",""5"",""57586""
","""event"",""trial"",""time""
""blur"",""2"",""5391""
","""event"",""trial"",""time""
""focus"",""2"",""32076""
","""event"",""trial"",""time""
""fullscreenenter"",""5"",""57586""
","
",1732.1499999961816,NA,48,NA,NA,3000,1,NA,NA,images/purpleplanet.jpg,images/alien4,images/alien3,images/rocket2,images/alien4,images/nothing.png,2,real,true,2,common,0,2020-07-06T16:20:23Z,sub90
two-step-fixation,167,890238,0.0-76.0-2.10,FALSE,TRUE,FALSE,TRUE,"""event"",""trial"",""time""
""blur"",""2"",""5391""
""focus"",""2"",""32076""
""fullscreenenter"",""5"",""57586""
","""event"",""trial"",""time""
""blur"",""2"",""5391""
","""event"",""trial"",""time""
""focus"",""2"",""32076""
","""event"",""trial"",""time""
""fullscreenenter"",""5"",""57586""
","
",NA,images/earth.jpg,NA,NA,NA,NA,NA,NA,NA,NA,NA,NA,NA,NA,NA,fixation,NA,NA,NA,NA,NA,NA,sub90
d3-animate-choice,168,892482,0.0-76.0-0.11,FALSE,TRUE,FALSE,TRUE,"""event"",""trial"",""time""
""blur"",""2"",""5391""
""focus"",""2"",""32076""
""fullscreenenter"",""5"",""57586""
","""event"",""trial"",""time""
""blur"",""2"",""5391""
","""event"",""trial"",""time""
""focus"",""2"",""32076""
","""event"",""trial"",""time""
""fullscreenenter"",""5"",""57586""
","
",235.80999998375773,NA,49,NA,NA,3000,1,NA,NA,images/earth.jpg,images/rocket1,images/rocket2,null,images/rocket2,NA,1,real,null,1,NA,NA,NA,sub90
d3-animate-choice,169,895505,0.0-76.0-1.11,FALSE,TRUE,FALSE,TRUE,"""event"",""trial"",""time""
""blur"",""2"",""5391""
""focus"",""2"",""32076""
""fullscreenenter"",""5"",""57586""
","""event"",""trial"",""time""
""blur"",""2"",""5391""
","""event"",""trial"",""time""
""focus"",""2"",""32076""
","""event"",""trial"",""time""
""fullscreenenter"",""5"",""57586""
","
",1018.0200000177138,NA,48,NA,NA,3000,1,NA,NA,images/purpleplanet.jpg,images/alien4,images/alien3,images/rocket2,images/alien4,images/t.png,2,real,true,2,common,1,2020-07-06T16:20:29Z,sub90
two-step-fixation,170,896509,0.0-76.0-2.11,FALSE,TRUE,FALSE,TRUE,"""event"",""trial"",""time""
""blur"",""2"",""5391""
""focus"",""2"",""32076""
""fullscreenenter"",""5"",""57586""
","""event"",""trial"",""time""
""blur"",""2"",""5391""
","""event"",""trial"",""time""
""focus"",""2"",""32076""
","""event"",""trial"",""time""
""fullscreenenter"",""5"",""57586""
","
",NA,images/earth.jpg,NA,NA,NA,NA,NA,NA,NA,NA,NA,NA,NA,NA,NA,fixation,NA,NA,NA,NA,NA,NA,sub90
d3-animate-choice,171,898901,0.0-76.0-0.12,FALSE,TRUE,FALSE,TRUE,"""event"",""trial"",""time""
""blur"",""2"",""5391""
""focus"",""2"",""32076""
""fullscreenenter"",""5"",""57586""
","""event"",""trial"",""time""
""blur"",""2"",""5391""
","""event"",""trial"",""time""
""focus"",""2"",""32076""
","""event"",""trial"",""time""
""fullscreenenter"",""5"",""57586""
","
",387.5150000094436,NA,49,NA,NA,3000,1,NA,NA,images/earth.jpg,images/rocket1,images/rocket2,null,images/rocket2,NA,1,real,null,1,NA,NA,NA,sub90
d3-animate-choice,172,902155,0.0-76.0-1.12,FALSE,TRUE,FALSE,TRUE,"""event"",""trial"",""time""
""blur"",""2"",""5391""
""focus"",""2"",""32076""
""fullscreenenter"",""5"",""57586""
","""event"",""trial"",""time""
""blur"",""2"",""5391""
","""event"",""trial"",""time""
""focus"",""2"",""32076""
","""event"",""trial"",""time""
""fullscreenenter"",""5"",""57586""
","
",1250.3349999897182,NA,48,NA,NA,3000,1,NA,NA,images/purpleplanet.jpg,images/alien4,images/alien3,images/rocket2,images/alien4,images/t.png,2,real,true,2,common,1,2020-07-06T16:20:36Z,sub90
two-step-fixation,173,903161,0.0-76.0-2.12,FALSE,TRUE,FALSE,TRUE,"""event"",""trial"",""time""
""blur"",""2"",""5391""
""focus"",""2"",""32076""
""fullscreenenter"",""5"",""57586""
","""event"",""trial"",""time""
""blur"",""2"",""5391""
","""event"",""trial"",""time""
""focus"",""2"",""32076""
","""event"",""trial"",""time""
""fullscreenenter"",""5"",""57586""
","
",NA,images/earth.jpg,NA,NA,NA,NA,NA,NA,NA,NA,NA,NA,NA,NA,NA,fixation,NA,NA,NA,NA,NA,NA,sub90
d3-animate-choice,174,905482,0.0-76.0-0.13,FALSE,TRUE,FALSE,TRUE,"""event"",""trial"",""time""
""blur"",""2"",""5391""
""focus"",""2"",""32076""
""fullscreenenter"",""5"",""57586""
","""event"",""trial"",""time""
""blur"",""2"",""5391""
","""event"",""trial"",""time""
""focus"",""2"",""32076""
","""event"",""trial"",""time""
""fullscreenenter"",""5"",""57586""
","
",316.0700000007637,NA,49,NA,NA,3000,1,NA,NA,images/earth.jpg,images/rocket1,images/rocket2,null,images/rocket2,NA,1,real,null,1,NA,NA,NA,sub90
d3-animate-choice,175,908058,0.0-76.0-1.13,FALSE,TRUE,FALSE,TRUE,"""event"",""trial"",""time""
""blur"",""2"",""5391""
""focus"",""2"",""32076""
""fullscreenenter"",""5"",""57586""
","""event"",""trial"",""time""
""blur"",""2"",""5391""
","""event"",""trial"",""time""
""focus"",""2"",""32076""
","""event"",""trial"",""time""
""fullscreenenter"",""5"",""57586""
","
",571.605000004638,NA,49,NA,NA,3000,1,NA,NA,images/purpleplanet.jpg,images/alien4,images/alien3,images/rocket2,images/alien3,images/t.png,2,real,true,1,common,1,2020-07-06T16:20:42Z,sub90
two-step-fixation,176,909062,0.0-76.0-2.13,FALSE,TRUE,FALSE,TRUE,"""event"",""trial"",""time""
""blur"",""2"",""5391""
""focus"",""2"",""32076""
""fullscreenenter"",""5"",""57586""
","""event"",""trial"",""time""
""blur"",""2"",""5391""
","""event"",""trial"",""time""
""focus"",""2"",""32076""
","""event"",""trial"",""time""
""fullscreenenter"",""5"",""57586""
","
",NA,images/earth.jpg,NA,NA,NA,NA,NA,NA,NA,NA,NA,NA,NA,NA,NA,fixation,NA,NA,NA,NA,NA,NA,sub90
d3-animate-choice,177,911916,0.0-76.0-0.14,FALSE,TRUE,FALSE,TRUE,"""event"",""trial"",""time""
""blur"",""2"",""5391""
""focus"",""2"",""32076""
""fullscreenenter"",""5"",""57586""
","""event"",""trial"",""time""
""blur"",""2"",""5391""
","""event"",""trial"",""time""
""focus"",""2"",""32076""
","""event"",""trial"",""time""
""fullscreenenter"",""5"",""57586""
","
",849.5249999687076,NA,48,NA,NA,3000,1,NA,NA,images/earth.jpg,images/rocket1,images/rocket2,null,images/rocket1,NA,1,real,null,2,NA,NA,NA,sub90
d3-animate-choice,178,914950,0.0-76.0-1.14,FALSE,TRUE,FALSE,TRUE,"""event"",""trial"",""time""
""blur"",""2"",""5391""
""focus"",""2"",""32076""
""fullscreenenter"",""5"",""57586""
","""event"",""trial"",""time""
""blur"",""2"",""5391""
","""event"",""trial"",""time""
""focus"",""2"",""32076""
","""event"",""trial"",""time""
""fullscreenenter"",""5"",""57586""
","
",1028.504999994766,NA,49,NA,NA,3000,1,NA,NA,images/redplanet1.jpg,images/alien2,images/alien1,images/rocket1,images/alien1,images/nothing.png,2,real,true,1,common,0,2020-07-06T16:20:49Z,sub90
two-step-fixation,179,915954,0.0-76.0-2.14,FALSE,TRUE,FALSE,TRUE,"""event"",""trial"",""time""
""blur"",""2"",""5391""
""focus"",""2"",""32076""
""fullscreenenter"",""5"",""57586""
","""event"",""trial"",""time""
""blur"",""2"",""5391""
","""event"",""trial"",""time""
""focus"",""2"",""32076""
","""event"",""trial"",""time""
""fullscreenenter"",""5"",""57586""
","
",NA,images/earth.jpg,NA,NA,NA,NA,NA,NA,NA,NA,NA,NA,NA,NA,NA,fixation,NA,NA,NA,NA,NA,NA,sub90
d3-animate-choice,180,918618,0.0-76.0-0.15,FALSE,TRUE,FALSE,TRUE,"""event"",""trial"",""time""
""blur"",""2"",""5391""
""focus"",""2"",""32076""
""fullscreenenter"",""5"",""57586""
","""event"",""trial"",""time""
""blur"",""2"",""5391""
","""event"",""trial"",""time""
""focus"",""2"",""32076""
","""event"",""trial"",""time""
""fullscreenenter"",""5"",""57586""
","
",658.510000037495,NA,49,NA,NA,3000,1,NA,NA,images/earth.jpg,images/rocket1,images/rocket2,null,images/rocket2,NA,1,real,null,1,NA,NA,NA,sub90
d3-animate-choice,181,921243,0.0-76.0-1.15,FALSE,TRUE,FALSE,TRUE,"""event"",""trial"",""time""
""blur"",""2"",""5391""
""focus"",""2"",""32076""
""fullscreenenter"",""5"",""57586""
","""event"",""trial"",""time""
""blur"",""2"",""5391""
","""event"",""trial"",""time""
""focus"",""2"",""32076""
","""event"",""trial"",""time""
""fullscreenenter"",""5"",""57586""
","
",620.6700000329874,NA,49,NA,NA,3000,1,NA,NA,images/purpleplanet.jpg,images/alien4,images/alien3,images/rocket2,images/alien3,images/nothing.png,2,real,true,1,common,0,2020-07-06T16:20:55Z,sub90
two-step-fixation,182,922247,0.0-76.0-2.15,FALSE,TRUE,FALSE,TRUE,"""event"",""trial"",""time""
""blur"",""2"",""5391""
""focus"",""2"",""32076""
""fullscreenenter"",""5"",""57586""
","""event"",""trial"",""time""
""blur"",""2"",""5391""
","""event"",""trial"",""time""
""focus"",""2"",""32076""
","""event"",""trial"",""time""
""fullscreenenter"",""5"",""57586""
","
",NA,images/earth.jpg,NA,NA,NA,NA,NA,NA,NA,NA,NA,NA,NA,NA,NA,fixation,NA,NA,NA,NA,NA,NA,sub90
d3-animate-choice,183,924665,0.0-76.0-0.16,FALSE,TRUE,FALSE,TRUE,"""event"",""trial"",""time""
""blur"",""2"",""5391""
""focus"",""2"",""32076""
""fullscreenenter"",""5"",""57586""
","""event"",""trial"",""time""
""blur"",""2"",""5391""
","""event"",""trial"",""time""
""focus"",""2"",""32076""
","""event"",""trial"",""time""
""fullscreenenter"",""5"",""57586""
","
",413.9049999648705,NA,48,NA,NA,3000,1,NA,NA,images/earth.jpg,images/rocket1,images/rocket2,null,images/rocket1,NA,1,real,null,2,NA,NA,NA,sub90
d3-animate-choice,184,927818,0.0-76.0-1.16,FALSE,TRUE,FALSE,TRUE,"""event"",""trial"",""time""
""blur"",""2"",""5391""
""focus"",""2"",""32076""
""fullscreenenter"",""5"",""57586""
","""event"",""trial"",""time""
""blur"",""2"",""5391""
","""event"",""trial"",""time""
""focus"",""2"",""32076""
","""event"",""trial"",""time""
""fullscreenenter"",""5"",""57586""
","
",1147.6600000169128,NA,48,NA,NA,3000,1,NA,NA,images/redplanet1.jpg,images/alien2,images/alien1,images/rocket1,images/alien2,images/t.png,2,real,true,2,common,1,2020-07-06T16:21:02Z,sub90
two-step-fixation,185,928822,0.0-76.0-2.16,FALSE,TRUE,FALSE,TRUE,"""event"",""trial"",""time""
""blur"",""2"",""5391""
""focus"",""2"",""32076""
""fullscreenenter"",""5"",""57586""
","""event"",""trial"",""time""
""blur"",""2"",""5391""
","""event"",""trial"",""time""
""focus"",""2"",""32076""
","""event"",""trial"",""time""
""fullscreenenter"",""5"",""57586""
","
",NA,images/earth.jpg,NA,NA,NA,NA,NA,NA,NA,NA,NA,NA,NA,NA,NA,fixation,NA,NA,NA,NA,NA,NA,sub90
d3-animate-choice,186,931200,0.0-76.0-0.17,FALSE,TRUE,FALSE,TRUE,"""event"",""trial"",""time""
""blur"",""2"",""5391""
""focus"",""2"",""32076""
""fullscreenenter"",""5"",""57586""
","""event"",""trial"",""time""
""blur"",""2"",""5391""
","""event"",""trial"",""time""
""focus"",""2"",""32076""
","""event"",""trial"",""time""
""fullscreenenter"",""5"",""57586""
","
",373.2050000107847,NA,48,NA,NA,3000,1,NA,NA,images/earth.jpg,images/rocket1,images/rocket2,null,images/rocket1,NA,1,real,null,2,NA,NA,NA,sub90
d3-animate-choice,187,934816,0.0-76.0-1.17,FALSE,TRUE,FALSE,TRUE,"""event"",""trial"",""time""
""blur"",""2"",""5391""
""focus"",""2"",""32076""
""fullscreenenter"",""5"",""57586""
","""event"",""trial"",""time""
""blur"",""2"",""5391""
","""event"",""trial"",""time""
""focus"",""2"",""32076""
","""event"",""trial"",""time""
""fullscreenenter"",""5"",""57586""
","
",1610.5549999629147,NA,48,NA,NA,3000,1,NA,NA,images/purpleplanet.jpg,images/alien4,images/alien3,images/rocket1,images/alien4,images/nothing.png,2,real,false,2,rare,0,2020-07-06T16:21:09Z,sub90
two-step-fixation,188,935819,0.0-76.0-2.17,FALSE,TRUE,FALSE,TRUE,"""event"",""trial"",""time""
""blur"",""2"",""5391""
""focus"",""2"",""32076""
""fullscreenenter"",""5"",""57586""
","""event"",""trial"",""time""
""blur"",""2"",""5391""
","""event"",""trial"",""time""
""focus"",""2"",""32076""
","""event"",""trial"",""time""
""fullscreenenter"",""5"",""57586""
","
",NA,images/earth.jpg,NA,NA,NA,NA,NA,NA,NA,NA,NA,NA,NA,NA,NA,fixation,NA,NA,NA,NA,NA,NA,sub90
d3-animate-choice,189,938132,0.0-76.0-0.18,FALSE,TRUE,FALSE,TRUE,"""event"",""trial"",""time""
""blur"",""2"",""5391""
""focus"",""2"",""32076""
""fullscreenenter"",""5"",""57586""
","""event"",""trial"",""time""
""blur"",""2"",""5391""
","""event"",""trial"",""time""
""focus"",""2"",""32076""
","""event"",""trial"",""time""
""fullscreenenter"",""5"",""57586""
","
",307.91500001214445,NA,49,NA,NA,3000,1,NA,NA,images/earth.jpg,images/rocket1,images/rocket2,null,images/rocket2,NA,1,real,null,1,NA,NA,NA,sub90
d3-animate-choice,190,940655,0.0-76.0-1.18,FALSE,TRUE,FALSE,TRUE,"""event"",""trial"",""time""
""blur"",""2"",""5391""
""focus"",""2"",""32076""
""fullscreenenter"",""5"",""57586""
","""event"",""trial"",""time""
""blur"",""2"",""5391""
","""event"",""trial"",""time""
""focus"",""2"",""32076""
","""event"",""trial"",""time""
""fullscreenenter"",""5"",""57586""
","
",517.214999999851,NA,48,NA,NA,3000,1,NA,NA,images/redplanet1.jpg,images/alien2,images/alien1,images/rocket2,images/alien2,images/t.png,2,real,false,2,rare,1,2020-07-06T16:21:14Z,sub90
two-step-fixation,191,941659,0.0-76.0-2.18,FALSE,TRUE,FALSE,TRUE,"""event"",""trial"",""time""
""blur"",""2"",""5391""
""focus"",""2"",""32076""
""fullscreenenter"",""5"",""57586""
","""event"",""trial"",""time""
""blur"",""2"",""5391""
","""event"",""trial"",""time""
""focus"",""2"",""32076""
","""event"",""trial"",""time""
""fullscreenenter"",""5"",""57586""
","
",NA,images/earth.jpg,NA,NA,NA,NA,NA,NA,NA,NA,NA,NA,NA,NA,NA,fixation,NA,NA,NA,NA,NA,NA,sub90
d3-animate-choice,192,944034,0.0-76.0-0.19,FALSE,TRUE,FALSE,TRUE,"""event"",""trial"",""time""
""blur"",""2"",""5391""
""focus"",""2"",""32076""
""fullscreenenter"",""5"",""57586""
","""event"",""trial"",""time""
""blur"",""2"",""5391""
","""event"",""trial"",""time""
""focus"",""2"",""32076""
","""event"",""trial"",""time""
""fullscreenenter"",""5"",""57586""
","
",370.80999999307096,NA,49,NA,NA,3000,1,NA,NA,images/earth.jpg,images/rocket1,images/rocket2,null,images/rocket2,NA,1,real,null,1,NA,NA,NA,sub90
d3-animate-choice,193,946423,0.0-76.0-1.19,FALSE,TRUE,FALSE,TRUE,"""event"",""trial"",""time""
""blur"",""2"",""5391""
""focus"",""2"",""32076""
""fullscreenenter"",""5"",""57586""
","""event"",""trial"",""time""
""blur"",""2"",""5391""
","""event"",""trial"",""time""
""focus"",""2"",""32076""
","""event"",""trial"",""time""
""fullscreenenter"",""5"",""57586""
","
",385.3649999946356,NA,49,NA,NA,3000,1,NA,NA,images/purpleplanet.jpg,images/alien4,images/alien3,images/rocket2,images/alien3,images/nothing.png,2,real,true,1,common,0,2020-07-06T16:21:20Z,sub90
two-step-fixation,194,947428,0.0-76.0-2.19,FALSE,TRUE,FALSE,TRUE,"""event"",""trial"",""time""
""blur"",""2"",""5391""
""focus"",""2"",""32076""
""fullscreenenter"",""5"",""57586""
","""event"",""trial"",""time""
""blur"",""2"",""5391""
","""event"",""trial"",""time""
""focus"",""2"",""32076""
","""event"",""trial"",""time""
""fullscreenenter"",""5"",""57586""
","
",NA,images/earth.jpg,NA,NA,NA,NA,NA,NA,NA,NA,NA,NA,NA,NA,NA,fixation,NA,NA,NA,NA,NA,NA,sub90
d3-animate-choice,195,949708,0.0-76.0-0.20,FALSE,TRUE,FALSE,TRUE,"""event"",""trial"",""time""
""blur"",""2"",""5391""
""focus"",""2"",""32076""
""fullscreenenter"",""5"",""57586""
","""event"",""trial"",""time""
""blur"",""2"",""5391""
","""event"",""trial"",""time""
""focus"",""2"",""32076""
","""event"",""trial"",""time""
""fullscreenenter"",""5"",""57586""
","
",274.23999999882653,NA,48,NA,NA,3000,1,NA,NA,images/earth.jpg,images/rocket1,images/rocket2,null,images/rocket1,NA,1,real,null,2,NA,NA,NA,sub90
d3-animate-choice,196,952728,0.0-76.0-1.20,FALSE,TRUE,FALSE,TRUE,"""event"",""trial"",""time""
""blur"",""2"",""5391""
""focus"",""2"",""32076""
""fullscreenenter"",""5"",""57586""
","""event"",""trial"",""time""
""blur"",""2"",""5391""
","""event"",""trial"",""time""
""focus"",""2"",""32076""
","""event"",""trial"",""time""
