trial_type,trial_index,time_elapsed,internal_node_id,rocket_sides,red_planet_first_rocket,red_display_order,purple_display_order,interactions,blur_events,focus_events,fullscreenenter_events,fullscreenexit_events,rt,stimulus,key_press,button_pressed,success,duration,valid_pressed,rts,keys,planet_text,right_text,left_text,center_text,chosen_text,reward_text,trial_stage,practice_trial,transition_type,choice,transition,reward,timestamp,subject_id
pavlovia,0,7,0.0-0.0,FALSE,TRUE,FALSE,FALSE,"
","
","
","
","
",NA,NA,NA,NA,NA,NA,NA,NA,NA,NA,NA,NA,NA,NA,NA,NA,NA,NA,NA,NA,NA,NA,sub14
html-keyboard-response,1,30921,0.0-1.0,FALSE,TRUE,FALSE,FALSE,"
","
","
","
","
",30911.889999872074,Welcome! Press the space bar to begin.,32,NA,NA,NA,NA,NA,NA,NA,NA,NA,NA,NA,NA,NA,NA,NA,NA,NA,NA,NA,sub14
audio-keyboard-response,2,35482,0.0-2.0,FALSE,TRUE,FALSE,FALSE,"
","
","
","
","
",4520,audio/beep_loop.wav,32,NA,NA,NA,NA,NA,NA,NA,NA,NA,NA,NA,NA,NA,NA,NA,NA,NA,NA,NA,sub14
audio-button-response,3,39675,0.0-3.0,FALSE,TRUE,FALSE,FALSE,"
","
","
","
","
",NaN,audio/fish.mp3,NA,1,NA,NA,NA,NA,NA,NA,NA,NA,NA,NA,NA,NA,NA,NA,NA,NA,NA,NA,sub14
audio-button-response,4,42310,0.0-4.0,FALSE,TRUE,FALSE,FALSE,"""event"",""trial"",""time""
""fullscreenenter"",""5"",""48737""
","
","
","""event"",""trial"",""time""
""fullscreenenter"",""5"",""48737""
","
",NaN,audio/tiger.mp3,NA,4,NA,NA,NA,NA,NA,NA,NA,NA,NA,NA,NA,NA,NA,NA,NA,NA,NA,NA,sub14
fullscreen,5,49688,0.0-5.0,FALSE,TRUE,FALSE,FALSE,"""event"",""trial"",""time""
""fullscreenenter"",""5"",""48737""
","
","
","""event"",""trial"",""time""
""fullscreenenter"",""5"",""48737""
","
",NA,NA,NA,NA,TRUE,NA,NA,NA,NA,NA,NA,NA,NA,NA,NA,NA,NA,NA,NA,NA,NA,NA,sub14
d3-instructions,6,64790,0.0-6.0,FALSE,TRUE,FALSE,FALSE,"""event"",""trial"",""time""
""fullscreenenter"",""5"",""48737""
","
","
","""event"",""trial"",""time""
""fullscreenenter"",""5"",""48737""
","
",NA,NA,NA,NA,NA,NA,NA,NA,NA,NA,NA,NA,NA,NA,NA,NA,NA,NA,NA,NA,NA,NA,sub14
d3-instructions,7,73015,0.0-7.0,FALSE,TRUE,FALSE,FALSE,"""event"",""trial"",""time""
""fullscreenenter"",""5"",""48737""
","
","
","""event"",""trial"",""time""
""fullscreenenter"",""5"",""48737""
","
",NA,NA,NA,NA,NA,NA,NA,NA,NA,NA,NA,NA,NA,NA,NA,NA,NA,NA,NA,NA,NA,NA,sub14
d3-instructions,8,82761,0.0-8.0,FALSE,TRUE,FALSE,FALSE,"""event"",""trial"",""time""
""fullscreenenter"",""5"",""48737""
","
","
","""event"",""trial"",""time""
""fullscreenenter"",""5"",""48737""
","
",NA,NA,NA,NA,NA,NA,NA,NA,NA,NA,NA,NA,NA,NA,NA,NA,NA,NA,NA,NA,NA,NA,sub14
d3-instructions,9,96504,0.0-9.0,FALSE,TRUE,FALSE,FALSE,"""event"",""trial"",""time""
""fullscreenenter"",""5"",""48737""
","
","
","""event"",""trial"",""time""
""fullscreenenter"",""5"",""48737""
","
",NA,NA,NA,NA,NA,NA,NA,NA,NA,NA,NA,NA,NA,NA,NA,NA,NA,NA,NA,NA,NA,NA,sub14
d3-instructions,10,117885,0.0-10.0,FALSE,TRUE,FALSE,FALSE,"""event"",""trial"",""time""
""fullscreenenter"",""5"",""48737""
","
","
","""event"",""trial"",""time""
""fullscreenenter"",""5"",""48737""
","
",NA,NA,NA,NA,NA,NA,NA,NA,NA,NA,NA,NA,NA,NA,NA,NA,NA,NA,NA,NA,NA,NA,sub14
d3-animate-choice,11,122346,0.0-11.0,FALSE,TRUE,FALSE,FALSE,"""event"",""trial"",""time""
""fullscreenenter"",""5"",""48737""
","
","
","""event"",""trial"",""time""
""fullscreenenter"",""5"",""48737""
","
",2451.189999934286,NA,48,NA,NA,3000,1,NA,NA,images/tutgreenplanet.jpg,images/tutalien1,images/tutalien2,null,images/tutalien1,NA,NA,practice,null,NA,NA,NA,NA,sub14
d3-animate-choice,12,126591,0.0-12.0,FALSE,TRUE,FALSE,FALSE,"""event"",""trial"",""time""
""fullscreenenter"",""5"",""48737""
","
","
","""event"",""trial"",""time""
""fullscreenenter"",""5"",""48737""
","
",2238.6350000742823,NA,49,NA,NA,3000,1,NA,NA,images/tutgreenplanet.jpg,images/tutalien1,images/tutalien2,null,images/tutalien2,NA,NA,practice,null,NA,NA,NA,NA,sub14
d3-animate-choice,13,130644,0.0-13.0,FALSE,TRUE,FALSE,FALSE,"""event"",""trial"",""time""
""fullscreenenter"",""5"",""48737""
","
","
","""event"",""trial"",""time""
""fullscreenenter"",""5"",""48737""
","
",2047.4900000263005,NA,48,NA,NA,3000,1,NA,NA,images/tutgreenplanet.jpg,images/tutalien1,images/tutalien2,null,images/tutalien1,NA,NA,practice,null,NA,NA,NA,NA,sub14
d3-animate-choice,14,133440,0.0-14.0,FALSE,TRUE,FALSE,FALSE,"""event"",""trial"",""time""
""fullscreenenter"",""5"",""48737""
","
","
","""event"",""trial"",""time""
""fullscreenenter"",""5"",""48737""
","
",791.0700000356883,NA,49,NA,NA,3000,1,NA,NA,images/tutgreenplanet.jpg,images/tutalien1,images/tutalien2,null,images/tutalien2,NA,NA,practice,null,NA,NA,NA,NA,sub14
d3-instructions,15,141426,0.0-15.0,FALSE,TRUE,FALSE,FALSE,"""event"",""trial"",""time""
""fullscreenenter"",""5"",""48737""
","
","
","""event"",""trial"",""time""
""fullscreenenter"",""5"",""48737""
","
",NA,NA,NA,NA,NA,NA,NA,NA,NA,NA,NA,NA,NA,NA,NA,NA,NA,NA,NA,NA,NA,NA,sub14
d3-instructions,16,148530,0.0-16.0,FALSE,TRUE,FALSE,FALSE,"""event"",""trial"",""time""
""fullscreenenter"",""5"",""48737""
","
","
","""event"",""trial"",""time""
""fullscreenenter"",""5"",""48737""
","
",NA,NA,NA,NA,NA,NA,NA,NA,NA,NA,NA,NA,NA,NA,NA,NA,NA,NA,NA,NA,NA,NA,sub14
d3-instructions,17,158855,0.0-17.0,FALSE,TRUE,FALSE,FALSE,"""event"",""trial"",""time""
""fullscreenenter"",""5"",""48737""
","
","
","""event"",""trial"",""time""
""fullscreenenter"",""5"",""48737""
","
",NA,NA,NA,NA,NA,NA,NA,NA,NA,NA,NA,NA,NA,NA,NA,NA,NA,NA,NA,NA,NA,NA,sub14
d3-instructions,18,172958,0.0-18.0,FALSE,TRUE,FALSE,FALSE,"""event"",""trial"",""time""
""fullscreenenter"",""5"",""48737""
","
","
","""event"",""trial"",""time""
""fullscreenenter"",""5"",""48737""
","
",NA,NA,NA,NA,NA,NA,NA,NA,NA,NA,NA,NA,NA,NA,NA,NA,NA,NA,NA,NA,NA,NA,sub14
d3-instructions,19,186951,0.0-19.0,FALSE,TRUE,FALSE,FALSE,"""event"",""trial"",""time""
""fullscreenenter"",""5"",""48737""
","
","
","""event"",""trial"",""time""
""fullscreenenter"",""5"",""48737""
","
",NA,NA,NA,NA,NA,NA,NA,NA,NA,NA,NA,NA,NA,NA,NA,NA,NA,NA,NA,NA,NA,NA,sub14
d3-animate-choice,20,191581,0.0-20.0,FALSE,TRUE,FALSE,FALSE,"""event"",""trial"",""time""
""fullscreenenter"",""5"",""48737""
","
","
","""event"",""trial"",""time""
""fullscreenenter"",""5"",""48737""
","
",2625.054999953136,NA,49,NA,NA,3000,1,NA,NA,images/tutyellowplanet.jpg,null,images/tutalien3,null,images/tutalien3,images/t.png,NA,practice,null,NA,NA,NA,NA,sub14
d3-animate-choice,21,193960,0.0-21.0,FALSE,TRUE,FALSE,FALSE,"""event"",""trial"",""time""
""fullscreenenter"",""5"",""48737""
","
","
","""event"",""trial"",""time""
""fullscreenenter"",""5"",""48737""
","
",374.76000003516674,NA,49,NA,NA,3000,1,NA,NA,images/tutyellowplanet.jpg,null,images/tutalien3,null,images/tutalien3,images/t.png,NA,practice,null,NA,NA,NA,NA,sub14
d3-animate-choice,22,196324,0.0-22.0,FALSE,TRUE,FALSE,FALSE,"""event"",""trial"",""time""
""fullscreenenter"",""5"",""48737""
","
","
","""event"",""trial"",""time""
""fullscreenenter"",""5"",""48737""
","
",357.62000014074147,NA,49,NA,NA,3000,1,NA,NA,images/tutyellowplanet.jpg,null,images/tutalien3,null,images/tutalien3,images/t.png,NA,practice,null,NA,NA,NA,NA,sub14
d3-animate-choice,23,198615,0.0-23.0,FALSE,TRUE,FALSE,FALSE,"""event"",""trial"",""time""
""fullscreenenter"",""5"",""48737""
","
","
","""event"",""trial"",""time""
""fullscreenenter"",""5"",""48737""
","
",285.8700000215322,NA,49,NA,NA,3000,1,NA,NA,images/tutyellowplanet.jpg,null,images/tutalien3,null,images/tutalien3,images/t.png,NA,practice,null,NA,NA,NA,NA,sub14
d3-animate-choice,24,200900,0.0-24.0,FALSE,TRUE,FALSE,FALSE,"""event"",""trial"",""time""
""fullscreenenter"",""5"",""48737""
","
","
","""event"",""trial"",""time""
""fullscreenenter"",""5"",""48737""
","
",280.8950000908226,NA,49,NA,NA,3000,1,NA,NA,images/tutyellowplanet.jpg,null,images/tutalien3,null,images/tutalien3,images/t.png,NA,practice,null,NA,NA,NA,NA,sub14
d3-animate-choice,25,203180,0.0-25.0,FALSE,TRUE,FALSE,FALSE,"""event"",""trial"",""time""
""fullscreenenter"",""5"",""48737""
","
","
","""event"",""trial"",""time""
""fullscreenenter"",""5"",""48737""
","
",275.9650000371039,NA,49,NA,NA,3000,1,NA,NA,images/tutyellowplanet.jpg,null,images/tutalien3,null,images/tutalien3,images/t.png,NA,practice,null,NA,NA,NA,NA,sub14
d3-animate-choice,26,205415,0.0-26.0,FALSE,TRUE,FALSE,FALSE,"""event"",""trial"",""time""
""fullscreenenter"",""5"",""48737""
","
","
","""event"",""trial"",""time""
""fullscreenenter"",""5"",""48737""
","
",230.4200001526624,NA,49,NA,NA,3000,1,1651.1150000151247,49,images/tutyellowplanet.jpg,null,images/tutalien3,null,images/tutalien3,images/t.png,NA,practice,null,NA,NA,NA,NA,sub14
d3-animate-choice,27,207906,0.0-27.0,FALSE,TRUE,FALSE,FALSE,"""event"",""trial"",""time""
""fullscreenenter"",""5"",""48737""
","
","
","""event"",""trial"",""time""
""fullscreenenter"",""5"",""48737""
","
",487.91999998502433,NA,49,NA,NA,3000,1,NA,NA,images/tutyellowplanet.jpg,null,images/tutalien3,null,images/tutalien3,images/t.png,NA,practice,null,NA,NA,NA,NA,sub14
d3-animate-choice,28,210299,0.0-28.0,FALSE,TRUE,FALSE,FALSE,"""event"",""trial"",""time""
""fullscreenenter"",""5"",""48737""
","
","
","""event"",""trial"",""time""
""fullscreenenter"",""5"",""48737""
","
",388.06999986991286,NA,49,NA,NA,3000,1,NA,NA,images/tutyellowplanet.jpg,null,images/tutalien3,null,images/tutalien3,images/nothing.png,NA,practice,null,NA,NA,NA,NA,sub14
d3-animate-choice,29,212637,0.0-29.0,FALSE,TRUE,FALSE,FALSE,"""event"",""trial"",""time""
""fullscreenenter"",""5"",""48737""
","
","
","""event"",""trial"",""time""
""fullscreenenter"",""5"",""48737""
","
",331.440000096336,NA,49,NA,NA,3000,1,NA,NA,images/tutyellowplanet.jpg,null,images/tutalien3,null,images/tutalien3,images/t.png,NA,practice,null,NA,NA,NA,NA,sub14
d3-instructions,30,219654,0.0-30.0,FALSE,TRUE,FALSE,FALSE,"""event"",""trial"",""time""
""fullscreenenter"",""5"",""48737""
","
","
","""event"",""trial"",""time""
""fullscreenenter"",""5"",""48737""
","
",NA,NA,NA,NA,NA,NA,NA,NA,NA,NA,NA,NA,NA,NA,NA,NA,NA,NA,NA,NA,NA,NA,sub14
d3-instructions,31,229921,0.0-31.0,FALSE,TRUE,FALSE,FALSE,"""event"",""trial"",""time""
""fullscreenenter"",""5"",""48737""
","
","
","""event"",""trial"",""time""
""fullscreenenter"",""5"",""48737""
","
",NA,NA,NA,NA,NA,NA,NA,NA,NA,NA,NA,NA,NA,NA,NA,NA,NA,NA,NA,NA,NA,NA,sub14
d3-instructions,32,238456,0.0-32.0,FALSE,TRUE,FALSE,FALSE,"""event"",""trial"",""time""
""fullscreenenter"",""5"",""48737""
","
","
","""event"",""trial"",""time""
""fullscreenenter"",""5"",""48737""
","
",NA,NA,NA,NA,NA,NA,NA,NA,NA,NA,NA,NA,NA,NA,NA,NA,NA,NA,NA,NA,NA,NA,sub14
d3-instructions,33,246988,0.0-33.0,FALSE,TRUE,FALSE,FALSE,"""event"",""trial"",""time""
""fullscreenenter"",""5"",""48737""
","
","
","""event"",""trial"",""time""
""fullscreenenter"",""5"",""48737""
","
",NA,NA,NA,NA,NA,NA,NA,NA,NA,NA,NA,NA,NA,NA,NA,NA,NA,NA,NA,NA,NA,NA,sub14
d3-animate-choice,34,251919,0.0-34.0,FALSE,TRUE,FALSE,FALSE,"""event"",""trial"",""time""
""fullscreenenter"",""5"",""48737""
","
","
","""event"",""trial"",""time""
""fullscreenenter"",""5"",""48737""
","
",2925.4699999000877,NA,49,NA,NA,3000,1,NA,NA,images/tutgreenplanet.jpg,images/tutalien1,images/tutalien2,null,images/tutalien2,images/t.png,NA,practice,null,NA,NA,NA,NA,sub14
d3-animate-choice,35,255549,0.0-35.0,FALSE,TRUE,FALSE,FALSE,"""event"",""trial"",""time""
""fullscreenenter"",""5"",""48737""
","
","
","""event"",""trial"",""time""
""fullscreenenter"",""5"",""48737""
","
",1626.4849998988211,NA,49,NA,NA,3000,1,NA,NA,images/tutgreenplanet.jpg,images/tutalien1,images/tutalien2,null,images/tutalien2,images/t.png,NA,practice,null,NA,NA,NA,NA,sub14
d3-animate-choice,36,258442,0.0-36.0,FALSE,TRUE,FALSE,FALSE,"""event"",""trial"",""time""
""fullscreenenter"",""5"",""48737""
","
","
","""event"",""trial"",""time""
""fullscreenenter"",""5"",""48737""
","
",889.4249999430031,NA,49,NA,NA,3000,1,NA,NA,images/tutgreenplanet.jpg,images/tutalien1,images/tutalien2,null,images/tutalien2,images/t.png,NA,practice,null,NA,NA,NA,NA,sub14
d3-animate-choice,37,260915,0.0-37.0,FALSE,TRUE,FALSE,FALSE,"""event"",""trial"",""time""
""fullscreenenter"",""5"",""48737""
","
","
","""event"",""trial"",""time""
""fullscreenenter"",""5"",""48737""
","
",466.94499999284744,NA,49,NA,NA,3000,1,NA,NA,images/tutgreenplanet.jpg,images/tutalien1,images/tutalien2,null,images/tutalien2,images/t.png,NA,practice,null,NA,NA,NA,NA,sub14
d3-animate-choice,38,263311,0.0-38.0,FALSE,TRUE,FALSE,FALSE,"""event"",""trial"",""time""
""fullscreenenter"",""5"",""48737""
","
","
","""event"",""trial"",""time""
""fullscreenenter"",""5"",""48737""
","
",390.94999991357327,NA,49,NA,NA,3000,1,NA,NA,images/tutgreenplanet.jpg,images/tutalien1,images/tutalien2,null,images/tutalien2,images/t.png,NA,practice,null,NA,NA,NA,NA,sub14
d3-animate-choice,39,265761,0.0-39.0,FALSE,TRUE,FALSE,FALSE,"""event"",""trial"",""time""
""fullscreenenter"",""5"",""48737""
","
","
","""event"",""trial"",""time""
""fullscreenenter"",""5"",""48737""
","
",446.2999999523163,NA,49,NA,NA,3000,1,NA,NA,images/tutgreenplanet.jpg,images/tutalien1,images/tutalien2,null,images/tutalien2,images/t.png,NA,practice,null,NA,NA,NA,NA,sub14
d3-animate-choice,40,268173,0.0-40.0,FALSE,TRUE,FALSE,FALSE,"""event"",""trial"",""time""
""fullscreenenter"",""5"",""48737""
","
","
","""event"",""trial"",""time""
""fullscreenenter"",""5"",""48737""
","
",407.57500007748604,NA,49,NA,NA,3000,1,NA,NA,images/tutgreenplanet.jpg,images/tutalien1,images/tutalien2,null,images/tutalien2,images/t.png,NA,practice,null,NA,NA,NA,NA,sub14
d3-animate-choice,41,270524,0.0-41.0,FALSE,TRUE,FALSE,FALSE,"""event"",""trial"",""time""
""fullscreenenter"",""5"",""48737""
","
","
","""event"",""trial"",""time""
""fullscreenenter"",""5"",""48737""
","
",348.1399999000132,NA,49,NA,NA,3000,1,NA,NA,images/tutgreenplanet.jpg,images/tutalien1,images/tutalien2,null,images/tutalien2,images/t.png,NA,practice,null,NA,NA,NA,NA,sub14
d3-animate-choice,42,272905,0.0-42.0,FALSE,TRUE,FALSE,FALSE,"""event"",""trial"",""time""
""fullscreenenter"",""5"",""48737""
","
","
","""event"",""trial"",""time""
""fullscreenenter"",""5"",""48737""
","
",375.53999992087483,NA,49,NA,NA,3000,1,NA,NA,images/tutgreenplanet.jpg,images/tutalien1,images/tutalien2,null,images/tutalien2,images/t.png,NA,practice,null,NA,NA,NA,NA,sub14
d3-animate-choice,43,275244,0.0-43.0,FALSE,TRUE,FALSE,FALSE,"""event"",""trial"",""time""
""fullscreenenter"",""5"",""48737""
","
","
","""event"",""trial"",""time""
""fullscreenenter"",""5"",""48737""
","
",335.27999999932945,NA,49,NA,NA,3000,1,NA,NA,images/tutgreenplanet.jpg,images/tutalien1,images/tutalien2,null,images/tutalien2,images/t.png,NA,practice,null,NA,NA,NA,NA,sub14
d3-instructions,44,290051,0.0-44.0,FALSE,TRUE,FALSE,FALSE,"""event"",""trial"",""time""
""fullscreenenter"",""5"",""48737""
","
","
","""event"",""trial"",""time""
""fullscreenenter"",""5"",""48737""
","
",NA,NA,NA,NA,NA,NA,NA,NA,NA,NA,NA,NA,NA,NA,NA,NA,NA,NA,NA,NA,NA,NA,sub14
d3-instructions,45,297573,0.0-45.0,FALSE,TRUE,FALSE,FALSE,"""event"",""trial"",""time""
""fullscreenenter"",""5"",""48737""
","
","
","""event"",""trial"",""time""
""fullscreenenter"",""5"",""48737""
","
",NA,NA,NA,NA,NA,NA,NA,NA,NA,NA,NA,NA,NA,NA,NA,NA,NA,NA,NA,NA,NA,NA,sub14
d3-instructions,46,307009,0.0-46.0,FALSE,TRUE,FALSE,FALSE,"""event"",""trial"",""time""
""fullscreenenter"",""5"",""48737""
","
","
","""event"",""trial"",""time""
""fullscreenenter"",""5"",""48737""
","
",NA,NA,NA,NA,NA,NA,NA,NA,NA,NA,NA,NA,NA,NA,NA,NA,NA,NA,NA,NA,NA,NA,sub14
d3-instructions,47,325649,0.0-47.0,FALSE,TRUE,FALSE,FALSE,"""event"",""trial"",""time""
""fullscreenenter"",""5"",""48737""
","
","
","""event"",""trial"",""time""
""fullscreenenter"",""5"",""48737""
","
",NA,NA,NA,NA,NA,NA,NA,NA,NA,NA,NA,NA,NA,NA,NA,NA,NA,NA,NA,NA,NA,NA,sub14
d3-instructions,48,335346,0.0-48.0,FALSE,TRUE,FALSE,FALSE,"""event"",""trial"",""time""
""fullscreenenter"",""5"",""48737""
","
","
","""event"",""trial"",""time""
""fullscreenenter"",""5"",""48737""
","
",NA,NA,NA,NA,NA,NA,NA,NA,NA,NA,NA,NA,NA,NA,NA,NA,NA,NA,NA,NA,NA,NA,sub14
d3-instructions,49,342317,0.0-49.0,FALSE,TRUE,FALSE,FALSE,"""event"",""trial"",""time""
""fullscreenenter"",""5"",""48737""
","
","
","""event"",""trial"",""time""
""fullscreenenter"",""5"",""48737""
","
",NA,NA,NA,NA,NA,NA,NA,NA,NA,NA,NA,NA,NA,NA,NA,NA,NA,NA,NA,NA,NA,NA,sub14
d3-instructions,50,352743,0.0-50.0,FALSE,TRUE,FALSE,FALSE,"""event"",""trial"",""time""
""fullscreenenter"",""5"",""48737""
","
","
","""event"",""trial"",""time""
""fullscreenenter"",""5"",""48737""
","
",NA,NA,NA,NA,NA,NA,NA,NA,NA,NA,NA,NA,NA,NA,NA,NA,NA,NA,NA,NA,NA,NA,sub14
d3-instructions,51,356457,0.0-51.0,FALSE,TRUE,FALSE,FALSE,"""event"",""trial"",""time""
""fullscreenenter"",""5"",""48737""
","
","
","""event"",""trial"",""time""
""fullscreenenter"",""5"",""48737""
","
",NA,NA,NA,NA,NA,NA,NA,NA,NA,NA,NA,NA,NA,NA,NA,NA,NA,NA,NA,NA,NA,NA,sub14
d3-instructions,52,360300,0.0-52.0,FALSE,TRUE,FALSE,FALSE,"""event"",""trial"",""time""
""fullscreenenter"",""5"",""48737""
","
","
","""event"",""trial"",""time""
""fullscreenenter"",""5"",""48737""
","
",NA,NA,NA,NA,NA,NA,NA,NA,NA,NA,NA,NA,NA,NA,NA,NA,NA,NA,NA,NA,NA,NA,sub14
d3-instructions,53,376835,0.0-53.0,FALSE,TRUE,FALSE,FALSE,"""event"",""trial"",""time""
""fullscreenenter"",""5"",""48737""
","
","
","""event"",""trial"",""time""
""fullscreenenter"",""5"",""48737""
","
",NA,NA,NA,NA,NA,NA,NA,NA,NA,NA,NA,NA,NA,NA,NA,NA,NA,NA,NA,NA,NA,NA,sub14
d3-instructions,54,386748,0.0-54.0,FALSE,TRUE,FALSE,FALSE,"""event"",""trial"",""time""
""fullscreenenter"",""5"",""48737""
","
","
","""event"",""trial"",""time""
""fullscreenenter"",""5"",""48737""
","
",NA,NA,NA,NA,NA,NA,NA,NA,NA,NA,NA,NA,NA,NA,NA,NA,NA,NA,NA,NA,NA,NA,sub14
d3-instructions,55,391932,0.0-55.0,FALSE,TRUE,FALSE,FALSE,"""event"",""trial"",""time""
""fullscreenenter"",""5"",""48737""
","
","
","""event"",""trial"",""time""
""fullscreenenter"",""5"",""48737""
","
",NA,NA,NA,NA,NA,NA,NA,NA,NA,NA,NA,NA,NA,NA,NA,NA,NA,NA,NA,NA,NA,NA,sub14
d3-instructions,56,398338,0.0-56.0,FALSE,TRUE,FALSE,FALSE,"""event"",""trial"",""time""
""fullscreenenter"",""5"",""48737""
","
","
","""event"",""trial"",""time""
""fullscreenenter"",""5"",""48737""
","
",NA,NA,NA,NA,NA,NA,NA,NA,NA,NA,NA,NA,NA,NA,NA,NA,NA,NA,NA,NA,NA,NA,sub14
d3-instructions,57,407607,0.0-57.0,FALSE,TRUE,FALSE,FALSE,"""event"",""trial"",""time""
""fullscreenenter"",""5"",""48737""
","
","
","""event"",""trial"",""time""
""fullscreenenter"",""5"",""48737""
","
",NA,NA,NA,NA,NA,NA,NA,NA,NA,NA,NA,NA,NA,NA,NA,NA,NA,NA,NA,NA,NA,NA,sub14
d3-instructions,58,413012,0.0-58.0,FALSE,TRUE,FALSE,FALSE,"""event"",""trial"",""time""
""fullscreenenter"",""5"",""48737""
","
","
","""event"",""trial"",""time""
""fullscreenenter"",""5"",""48737""
","
",NA,NA,NA,NA,NA,NA,NA,NA,NA,NA,NA,NA,NA,NA,NA,NA,NA,NA,NA,NA,NA,NA,sub14
d3-instructions,59,417513,0.0-59.0,FALSE,TRUE,FALSE,FALSE,"""event"",""trial"",""time""
""fullscreenenter"",""5"",""48737""
","
","
","""event"",""trial"",""time""
""fullscreenenter"",""5"",""48737""
","
",NA,NA,NA,NA,NA,NA,NA,NA,NA,NA,NA,NA,NA,NA,NA,NA,NA,NA,NA,NA,NA,NA,sub14
d3-instructions,60,420555,0.0-60.0,FALSE,TRUE,FALSE,FALSE,"""event"",""trial"",""time""
""fullscreenenter"",""5"",""48737""
","
","
","""event"",""trial"",""time""
""fullscreenenter"",""5"",""48737""
","
",NA,NA,NA,NA,NA,NA,NA,NA,NA,NA,NA,NA,NA,NA,NA,NA,NA,NA,NA,NA,NA,NA,sub14
d3-animate-choice,61,424557,0.0-61.0-0.0,FALSE,TRUE,FALSE,FALSE,"""event"",""trial"",""time""
""fullscreenenter"",""5"",""48737""
","
","
","""event"",""trial"",""time""
""fullscreenenter"",""5"",""48737""
","
",1994.2000000737607,NA,49,NA,NA,3000,1,NA,NA,images/earth.jpg,images/tutrocket2,images/tutrocket1,null,images/tutrocket1,NA,1,practice,null,1,NA,NA,NA,sub14
d3-animate-choice,62,428032,0.0-61.0-1.0,FALSE,TRUE,FALSE,FALSE,"""event"",""trial"",""time""
""fullscreenenter"",""5"",""48737""
","
","
","""event"",""trial"",""time""
""fullscreenenter"",""5"",""48737""
","
",1467.570000095293,NA,49,NA,NA,3000,1,NA,NA,images/tutgreenplanet.jpg,images/tutalien2,images/tutalien1,images/tutrocket1,images/tutalien1,images/t.png,2,practice,true,1,common,1,2020-06-10T19:11:20Z,sub14
two-step-fixation,63,429040,0.0-61.0-2.0,FALSE,TRUE,FALSE,FALSE,"""event"",""trial"",""time""
""fullscreenenter"",""5"",""48737""
","
","
","""event"",""trial"",""time""
""fullscreenenter"",""5"",""48737""
","
",NA,images/earth.jpg,NA,NA,NA,NA,NA,NA,NA,NA,NA,NA,NA,NA,NA,fixation,NA,NA,NA,NA,NA,NA,sub14
d3-animate-choice,64,431620,0.0-61.0-0.1,FALSE,TRUE,FALSE,FALSE,"""event"",""trial"",""time""
""fullscreenenter"",""5"",""48737""
","
","
","""event"",""trial"",""time""
""fullscreenenter"",""5"",""48737""
","
",575.5800001788884,NA,49,NA,NA,3000,1,NA,NA,images/earth.jpg,images/tutrocket2,images/tutrocket1,null,images/tutrocket1,NA,1,practice,null,1,NA,NA,NA,sub14
d3-animate-choice,65,435237,0.0-61.0-1.1,FALSE,TRUE,FALSE,FALSE,"""event"",""trial"",""time""
""fullscreenenter"",""5"",""48737""
","
","
","""event"",""trial"",""time""
""fullscreenenter"",""5"",""48737""
","
",1611.7799999192357,NA,49,NA,NA,3000,1,NA,NA,images/tutyellowplanet.jpg,images/tutalien4,images/tutalien3,images/tutrocket1,images/tutalien3,images/t.png,2,practice,false,1,rare,1,2020-06-10T19:11:28Z,sub14
two-step-fixation,66,436241,0.0-61.0-2.1,FALSE,TRUE,FALSE,FALSE,"""event"",""trial"",""time""
""fullscreenenter"",""5"",""48737""
","
","
","""event"",""trial"",""time""
""fullscreenenter"",""5"",""48737""
","
",NA,images/earth.jpg,NA,NA,NA,NA,NA,NA,NA,NA,NA,NA,NA,NA,NA,fixation,NA,NA,NA,NA,NA,NA,sub14
d3-animate-choice,67,438624,0.0-61.0-0.2,FALSE,TRUE,FALSE,FALSE,"""event"",""trial"",""time""
""fullscreenenter"",""5"",""48737""
","
","
","""event"",""trial"",""time""
""fullscreenenter"",""5"",""48737""
","
",379.35999990440905,NA,49,NA,NA,3000,1,NA,NA,images/earth.jpg,images/tutrocket2,images/tutrocket1,null,images/tutrocket1,NA,1,practice,null,1,NA,NA,NA,sub14
d3-animate-choice,68,441049,0.0-61.0-1.2,FALSE,TRUE,FALSE,FALSE,"""event"",""trial"",""time""
""fullscreenenter"",""5"",""48737""
","
","
","""event"",""trial"",""time""
""fullscreenenter"",""5"",""48737""
","
",418.55500009842217,NA,49,NA,NA,3000,1,NA,NA,images/tutgreenplanet.jpg,images/tutalien2,images/tutalien1,images/tutrocket1,images/tutalien1,images/t.png,2,practice,true,1,common,1,2020-06-10T19:11:33Z,sub14
two-step-fixation,69,442054,0.0-61.0-2.2,FALSE,TRUE,FALSE,FALSE,"""event"",""trial"",""time""
""fullscreenenter"",""5"",""48737""
","
","
","""event"",""trial"",""time""
""fullscreenenter"",""5"",""48737""
","
",NA,images/earth.jpg,NA,NA,NA,NA,NA,NA,NA,NA,NA,NA,NA,NA,NA,fixation,NA,NA,NA,NA,NA,NA,sub14
d3-animate-choice,70,444398,0.0-61.0-0.3,FALSE,TRUE,FALSE,FALSE,"""event"",""trial"",""time""
""fullscreenenter"",""5"",""48737""
","
","
","""event"",""trial"",""time""
""fullscreenenter"",""5"",""48737""
","
",338.24499999172986,NA,49,NA,NA,3000,1,NA,NA,images/earth.jpg,images/tutrocket2,images/tutrocket1,null,images/tutrocket1,NA,1,practice,null,1,NA,NA,NA,sub14
d3-animate-choice,71,446868,0.0-61.0-1.3,FALSE,TRUE,FALSE,FALSE,"""event"",""trial"",""time""
""fullscreenenter"",""5"",""48737""
","
","
","""event"",""trial"",""time""
""fullscreenenter"",""5"",""48737""
","
",464.20500008389354,NA,49,NA,NA,3000,1,NA,NA,images/tutyellowplanet.jpg,images/tutalien4,images/tutalien3,images/tutrocket1,images/tutalien3,images/nothing.png,2,practice,false,1,rare,0,2020-06-10T19:11:39Z,sub14
two-step-fixation,72,447872,0.0-61.0-2.3,FALSE,TRUE,FALSE,FALSE,"""event"",""trial"",""time""
""fullscreenenter"",""5"",""48737""
","
","
","""event"",""trial"",""time""
""fullscreenenter"",""5"",""48737""
","
",NA,images/earth.jpg,NA,NA,NA,NA,NA,NA,NA,NA,NA,NA,NA,NA,NA,fixation,NA,NA,NA,NA,NA,NA,sub14
d3-animate-choice,73,450395,0.0-61.0-0.4,FALSE,TRUE,FALSE,FALSE,"""event"",""trial"",""time""
""fullscreenenter"",""5"",""48737""
","
","
","""event"",""trial"",""time""
""fullscreenenter"",""5"",""48737""
","
",518.7550000846386,NA,49,NA,NA,3000,1,NA,NA,images/earth.jpg,images/tutrocket2,images/tutrocket1,null,images/tutrocket1,NA,1,practice,null,1,NA,NA,NA,sub14
d3-animate-choice,74,453310,0.0-61.0-1.4,FALSE,TRUE,FALSE,FALSE,"""event"",""trial"",""time""
""fullscreenenter"",""5"",""48737""
","
","
","""event"",""trial"",""time""
""fullscreenenter"",""5"",""48737""
","
",912.4650000594556,NA,49,NA,NA,3000,1,NA,NA,images/tutgreenplanet.jpg,images/tutalien2,images/tutalien1,images/tutrocket1,images/tutalien1,images/nothing.png,2,practice,true,1,common,0,2020-06-10T19:11:46Z,sub14
two-step-fixation,75,454314,0.0-61.0-2.4,FALSE,TRUE,FALSE,FALSE,"""event"",""trial"",""time""
""fullscreenenter"",""5"",""48737""
","
","
","""event"",""trial"",""time""
""fullscreenenter"",""5"",""48737""
","
",NA,images/earth.jpg,NA,NA,NA,NA,NA,NA,NA,NA,NA,NA,NA,NA,NA,fixation,NA,NA,NA,NA,NA,NA,sub14
d3-animate-choice,76,456924,0.0-61.0-0.5,FALSE,TRUE,FALSE,FALSE,"""event"",""trial"",""time""
""fullscreenenter"",""5"",""48737""
","
","
","""event"",""trial"",""time""
""fullscreenenter"",""5"",""48737""
","
",606.1050000134856,NA,49,NA,NA,3000,1,NA,NA,images/earth.jpg,images/tutrocket2,images/tutrocket1,null,images/tutrocket1,NA,1,practice,null,1,NA,NA,NA,sub14
d3-animate-choice,77,459393,0.0-61.0-1.5,FALSE,TRUE,FALSE,FALSE,"""event"",""trial"",""time""
""fullscreenenter"",""5"",""48737""
","
","
","""event"",""trial"",""time""
""fullscreenenter"",""5"",""48737""
","
",464.03000014834106,NA,49,NA,NA,3000,1,NA,NA,images/tutgreenplanet.jpg,images/tutalien2,images/tutalien1,images/tutrocket1,images/tutalien1,images/t.png,2,practice,true,1,common,1,2020-06-10T19:11:52Z,sub14
two-step-fixation,78,460397,0.0-61.0-2.5,FALSE,TRUE,FALSE,FALSE,"""event"",""trial"",""time""
""fullscreenenter"",""5"",""48737""
","
","
","""event"",""trial"",""time""
""fullscreenenter"",""5"",""48737""
","
",NA,images/earth.jpg,NA,NA,NA,NA,NA,NA,NA,NA,NA,NA,NA,NA,NA,fixation,NA,NA,NA,NA,NA,NA,sub14
d3-animate-choice,79,462744,0.0-61.0-0.6,FALSE,TRUE,FALSE,FALSE,"""event"",""trial"",""time""
""fullscreenenter"",""5"",""48737""
","
","
","""event"",""trial"",""time""
""fullscreenenter"",""5"",""48737""
","
",342.5549999810755,NA,49,NA,NA,3000,1,NA,NA,images/earth.jpg,images/tutrocket2,images/tutrocket1,null,images/tutrocket1,NA,1,practice,null,1,NA,NA,NA,sub14
d3-animate-choice,80,465527,0.0-61.0-1.6,FALSE,TRUE,FALSE,FALSE,"""event"",""trial"",""time""
""fullscreenenter"",""5"",""48737""
","
","
","""event"",""trial"",""time""
""fullscreenenter"",""5"",""48737""
","
",778.3949999138713,NA,49,NA,NA,3000,1,NA,NA,images/tutgreenplanet.jpg,images/tutalien2,images/tutalien1,images/tutrocket1,images/tutalien1,images/nothing.png,2,practice,true,1,common,0,2020-06-10T19:11:58Z,sub14
two-step-fixation,81,466532,0.0-61.0-2.6,FALSE,TRUE,FALSE,FALSE,"""event"",""trial"",""time""
""fullscreenenter"",""5"",""48737""
","
","
","""event"",""trial"",""time""
""fullscreenenter"",""5"",""48737""
","
",NA,images/earth.jpg,NA,NA,NA,NA,NA,NA,NA,NA,NA,NA,NA,NA,NA,fixation,NA,NA,NA,NA,NA,NA,sub14
d3-animate-choice,82,469085,0.0-61.0-0.7,FALSE,TRUE,FALSE,FALSE,"""event"",""trial"",""time""
""fullscreenenter"",""5"",""48737""
","
","
","""event"",""trial"",""time""
""fullscreenenter"",""5"",""48737""
","
",547.1850000321865,NA,49,NA,NA,3000,1,NA,NA,images/earth.jpg,images/tutrocket2,images/tutrocket1,null,images/tutrocket1,NA,1,practice,null,1,NA,NA,NA,sub14
d3-animate-choice,83,472546,0.0-61.0-1.7,FALSE,TRUE,FALSE,FALSE,"""event"",""trial"",""time""
""fullscreenenter"",""5"",""48737""
","
","
","""event"",""trial"",""time""
""fullscreenenter"",""5"",""48737""
","
",1452.2550001274794,NA,48,NA,NA,3000,1,NA,NA,images/tutyellowplanet.jpg,images/tutalien4,images/tutalien3,images/tutrocket1,images/tutalien4,images/t.png,2,practice,false,2,rare,1,2020-06-10T19:12:05Z,sub14
two-step-fixation,84,473551,0.0-61.0-2.7,FALSE,TRUE,FALSE,FALSE,"""event"",""trial"",""time""
""fullscreenenter"",""5"",""48737""
","
","
","""event"",""trial"",""time""
""fullscreenenter"",""5"",""48737""
","
",NA,images/earth.jpg,NA,NA,NA,NA,NA,NA,NA,NA,NA,NA,NA,NA,NA,fixation,NA,NA,NA,NA,NA,NA,sub14
d3-animate-choice,85,475985,0.0-61.0-0.8,FALSE,TRUE,FALSE,FALSE,"""event"",""trial"",""time""
""fullscreenenter"",""5"",""48737""
","
","
","""event"",""trial"",""time""
""fullscreenenter"",""5"",""48737""
","
",430.7250001002103,NA,49,NA,NA,3000,1,NA,NA,images/earth.jpg,images/tutrocket2,images/tutrocket1,null,images/tutrocket1,NA,1,practice,null,1,NA,NA,NA,sub14
d3-animate-choice,86,478522,0.0-61.0-1.8,FALSE,TRUE,FALSE,FALSE,"""event"",""trial"",""time""
""fullscreenenter"",""5"",""48737""
","
","
","""event"",""trial"",""time""
""fullscreenenter"",""5"",""48737""
","
",532.4249998666346,NA,49,NA,NA,3000,1,NA,NA,images/tutgreenplanet.jpg,images/tutalien2,images/tutalien1,images/tutrocket1,images/tutalien1,images/t.png,2,practice,true,1,common,1,2020-06-10T19:12:11Z,sub14
two-step-fixation,87,479525,0.0-61.0-2.8,FALSE,TRUE,FALSE,FALSE,"""event"",""trial"",""time""
""fullscreenenter"",""5"",""48737""
","
","
","""event"",""trial"",""time""
""fullscreenenter"",""5"",""48737""
","
",NA,images/earth.jpg,NA,NA,NA,NA,NA,NA,NA,NA,NA,NA,NA,NA,NA,fixation,NA,NA,NA,NA,NA,NA,sub14
d3-animate-choice,88,482080,0.0-61.0-0.9,FALSE,TRUE,FALSE,FALSE,"""event"",""trial"",""time""
""fullscreenenter"",""5"",""48737""
","
","
","""event"",""trial"",""time""
""fullscreenenter"",""5"",""48737""
","
",548.9749999251217,NA,49,NA,NA,3000,1,NA,NA,images/earth.jpg,images/tutrocket2,images/tutrocket1,null,images/tutrocket1,NA,1,practice,null,1,NA,NA,NA,sub14
d3-animate-choice,89,484587,0.0-61.0-1.9,FALSE,TRUE,FALSE,FALSE,"""event"",""trial"",""time""
""fullscreenenter"",""5"",""48737""
","
","
","""event"",""trial"",""time""
""fullscreenenter"",""5"",""48737""
","
",502.65999999828637,NA,49,NA,NA,3000,1,NA,NA,images/tutgreenplanet.jpg,images/tutalien2,images/tutalien1,images/tutrocket1,images/tutalien1,images/nothing.png,2,practice,true,1,common,0,2020-06-10T19:12:17Z,sub14
two-step-fixation,90,485590,0.0-61.0-2.9,FALSE,TRUE,FALSE,FALSE,"""event"",""trial"",""time""
""fullscreenenter"",""5"",""48737""
","
","
","""event"",""trial"",""time""
""fullscreenenter"",""5"",""48737""
","
",NA,images/earth.jpg,NA,NA,NA,NA,NA,NA,NA,NA,NA,NA,NA,NA,NA,fixation,NA,NA,NA,NA,NA,NA,sub14
d3-animate-choice,91,487650,0.0-61.0-0.10,FALSE,TRUE,FALSE,FALSE,"""event"",""trial"",""time""
""fullscreenenter"",""5"",""48737""
","
","
","""event"",""trial"",""time""
""fullscreenenter"",""5"",""48737""
","
",51.72999994829297,NA,49,NA,NA,3000,1,NA,NA,images/earth.jpg,images/tutrocket2,images/tutrocket1,null,images/tutrocket1,NA,1,practice,null,1,NA,NA,NA,sub14
d3-animate-choice,92,490052,0.0-61.0-1.10,FALSE,TRUE,FALSE,FALSE,"""event"",""trial"",""time""
""fullscreenenter"",""5"",""48737""
","
","
","""event"",""trial"",""time""
""fullscreenenter"",""5"",""48737""
","
",397.17000001110137,NA,49,NA,NA,3000,1,NA,NA,images/tutgreenplanet.jpg,images/tutalien2,images/tutalien1,images/tutrocket1,images/tutalien1,images/t.png,2,practice,true,1,common,1,2020-06-10T19:12:22Z,sub14
two-step-fixation,93,491058,0.0-61.0-2.10,FALSE,TRUE,FALSE,FALSE,"""event"",""trial"",""time""
""fullscreenenter"",""5"",""48737""
","
","
","""event"",""trial"",""time""
""fullscreenenter"",""5"",""48737""
","
",NA,images/earth.jpg,NA,NA,NA,NA,NA,NA,NA,NA,NA,NA,NA,NA,NA,fixation,NA,NA,NA,NA,NA,NA,sub14
d3-animate-choice,94,493575,0.0-61.0-0.11,FALSE,TRUE,FALSE,FALSE,"""event"",""trial"",""time""
""fullscreenenter"",""5"",""48737""
","
","
","""event"",""trial"",""time""
""fullscreenenter"",""5"",""48737""
","
",510.2649999316782,NA,49,NA,NA,3000,1,NA,NA,images/earth.jpg,images/tutrocket2,images/tutrocket1,null,images/tutrocket1,NA,1,practice,null,1,NA,NA,NA,sub14
d3-animate-choice,95,496039,0.0-61.0-1.11,FALSE,TRUE,FALSE,FALSE,"""event"",""trial"",""time""
""fullscreenenter"",""5"",""48737""
","
","
","""event"",""trial"",""time""
""fullscreenenter"",""5"",""48737""
","
",459.2699999921024,NA,49,NA,NA,3000,1,NA,NA,images/tutgreenplanet.jpg,images/tutalien2,images/tutalien1,images/tutrocket1,images/tutalien1,images/nothing.png,2,practice,true,1,common,0,2020-06-10T19:12:28Z,sub14
two-step-fixation,96,497044,0.0-61.0-2.11,FALSE,TRUE,FALSE,FALSE,"""event"",""trial"",""time""
""fullscreenenter"",""5"",""48737""
","
","
","""event"",""trial"",""time""
""fullscreenenter"",""5"",""48737""
","
",NA,images/earth.jpg,NA,NA,NA,NA,NA,NA,NA,NA,NA,NA,NA,NA,NA,fixation,NA,NA,NA,NA,NA,NA,sub14
d3-animate-choice,97,499565,0.0-61.0-0.12,FALSE,TRUE,FALSE,FALSE,"""event"",""trial"",""time""
""fullscreenenter"",""5"",""48737""
","
","
","""event"",""trial"",""time""
""fullscreenenter"",""5"",""48737""
","
",514.2200000118464,NA,49,NA,NA,3000,1,NA,NA,images/earth.jpg,images/tutrocket2,images/tutrocket1,null,images/tutrocket1,NA,1,practice,null,1,NA,NA,NA,sub14
d3-animate-choice,98,502391,0.0-61.0-1.12,FALSE,TRUE,FALSE,FALSE,"""event"",""trial"",""time""
""fullscreenenter"",""5"",""48737""
","
","
","""event"",""trial"",""time""
""fullscreenenter"",""5"",""48737""
","
",818.2749999687076,NA,48,NA,NA,3000,1,NA,NA,images/tutyellowplanet.jpg,images/tutalien4,images/tutalien3,images/tutrocket1,images/tutalien4,images/nothing.png,2,practice,false,2,rare,0,2020-06-10T19:12:35Z,sub14
two-step-fixation,99,503396,0.0-61.0-2.12,FALSE,TRUE,FALSE,FALSE,"""event"",""trial"",""time""
""fullscreenenter"",""5"",""48737""
","
","
","""event"",""trial"",""time""
""fullscreenenter"",""5"",""48737""
","
",NA,images/earth.jpg,NA,NA,NA,NA,NA,NA,NA,NA,NA,NA,NA,NA,NA,fixation,NA,NA,NA,NA,NA,NA,sub14
d3-animate-choice,100,505830,0.0-61.0-0.13,FALSE,TRUE,FALSE,FALSE,"""event"",""trial"",""time""
""fullscreenenter"",""5"",""48737""
","
","
","""event"",""trial"",""time""
""fullscreenenter"",""5"",""48737""
","
",429.90999994799495,NA,49,NA,NA,3000,1,NA,NA,images/earth.jpg,images/tutrocket2,images/tutrocket1,null,images/tutrocket1,NA,1,practice,null,1,NA,NA,NA,sub14
d3-animate-choice,101,509286,0.0-61.0-1.13,FALSE,TRUE,FALSE,FALSE,"""event"",""trial"",""time""
""fullscreenenter"",""5"",""48737""
","
","
","""event"",""trial"",""time""
""fullscreenenter"",""5"",""48737""
","
",1452.6000001933426,NA,48,NA,NA,3000,1,NA,NA,images/tutgreenplanet.jpg,images/tutalien2,images/tutalien1,images/tutrocket1,images/tutalien2,images/t.png,2,practice,true,2,common,1,2020-06-10T19:12:42Z,sub14
two-step-fixation,102,510290,0.0-61.0-2.13,FALSE,TRUE,FALSE,FALSE,"""event"",""trial"",""time""
""fullscreenenter"",""5"",""48737""
","
","
","""event"",""trial"",""time""
""fullscreenenter"",""5"",""48737""
","
",NA,images/earth.jpg,NA,NA,NA,NA,NA,NA,NA,NA,NA,NA,NA,NA,NA,fixation,NA,NA,NA,NA,NA,NA,sub14
d3-animate-choice,103,512705,0.0-61.0-0.14,FALSE,TRUE,FALSE,FALSE,"""event"",""trial"",""time""
""fullscreenenter"",""5"",""48737""
","
","
","""event"",""trial"",""time""
""fullscreenenter"",""5"",""48737""
","
",409.0499999001622,NA,49,NA,NA,3000,1,NA,NA,images/earth.jpg,images/tutrocket2,images/tutrocket1,null,images/tutrocket1,NA,1,practice,null,1,NA,NA,NA,sub14
d3-animate-choice,104,515214,0.0-61.0-1.14,FALSE,TRUE,FALSE,FALSE,"""event"",""trial"",""time""
""fullscreenenter"",""5"",""48737""
","
","
","""event"",""trial"",""time""
""fullscreenenter"",""5"",""48737""
","
",505.37999998778105,NA,48,NA,NA,3000,1,NA,NA,images/tutgreenplanet.jpg,images/tutalien2,images/tutalien1,images/tutrocket1,images/tutalien2,images/nothing.png,2,practice,true,2,common,0,2020-06-10T19:12:48Z,sub14
two-step-fixation,105,516219,0.0-61.0-2.14,FALSE,TRUE,FALSE,FALSE,"""event"",""trial"",""time""
""fullscreenenter"",""5"",""48737""
","
","
","""event"",""trial"",""time""
""fullscreenenter"",""5"",""48737""
","
",NA,images/earth.jpg,NA,NA,NA,NA,NA,NA,NA,NA,NA,NA,NA,NA,NA,fixation,NA,NA,NA,NA,NA,NA,sub14
d3-animate-choice,106,518451,0.0-61.0-0.15,FALSE,TRUE,FALSE,FALSE,"""event"",""trial"",""time""
""fullscreenenter"",""5"",""48737""
","
","
","""event"",""trial"",""time""
""fullscreenenter"",""5"",""48737""
","
",228.99999981746078,NA,49,NA,NA,3000,1,NA,NA,images/earth.jpg,images/tutrocket2,images/tutrocket1,null,images/tutrocket1,NA,1,practice,null,1,NA,NA,NA,sub14
d3-animate-choice,107,520869,0.0-61.0-1.15,FALSE,TRUE,FALSE,FALSE,"""event"",""trial"",""time""
""fullscreenenter"",""5"",""48737""
","
","
","""event"",""trial"",""time""
""fullscreenenter"",""5"",""48737""
","
",413.21999998763204,NA,48,NA,NA,3000,1,NA,NA,images/tutyellowplanet.jpg,images/tutalien4,images/tutalien3,images/tutrocket1,images/tutalien4,images/nothing.png,2,practice,false,2,rare,0,2020-06-10T19:12:53Z,sub14
two-step-fixation,108,521879,0.0-61.0-2.15,FALSE,TRUE,FALSE,FALSE,"""event"",""trial"",""time""
""fullscreenenter"",""5"",""48737""
","
","
","""event"",""trial"",""time""
""fullscreenenter"",""5"",""48737""
","
",NA,images/earth.jpg,NA,NA,NA,NA,NA,NA,NA,NA,NA,NA,NA,NA,NA,fixation,NA,NA,NA,NA,NA,NA,sub14
d3-animate-choice,109,524264,0.0-61.0-0.16,FALSE,TRUE,FALSE,FALSE,"""event"",""trial"",""time""
""fullscreenenter"",""5"",""48737""
","
","
","""event"",""trial"",""time""
""fullscreenenter"",""5"",""48737""
","
",381.56000012531877,NA,49,NA,NA,3000,1,453.7250001449138,49,images/earth.jpg,images/tutrocket2,images/tutrocket1,null,images/tutrocket1,NA,1,practice,null,1,NA,NA,NA,sub14
d3-animate-choice,110,526630,0.0-61.0-1.16,FALSE,TRUE,FALSE,FALSE,"""event"",""trial"",""time""
""fullscreenenter"",""5"",""48737""
","
","
","""event"",""trial"",""time""
""fullscreenenter"",""5"",""48737""
","
",360.25999998673797,NA,49,NA,NA,3000,1,NA,NA,images/tutyellowplanet.jpg,images/tutalien4,images/tutalien3,images/tutrocket1,images/tutalien3,images/nothing.png,2,practice,false,1,rare,0,2020-06-10T19:12:59Z,sub14
two-step-fixation,111,527633,0.0-61.0-2.16,FALSE,TRUE,FALSE,FALSE,"""event"",""trial"",""time""
""fullscreenenter"",""5"",""48737""
","
","
","""event"",""trial"",""time""
""fullscreenenter"",""5"",""48737""
","
",NA,images/earth.jpg,NA,NA,NA,NA,NA,NA,NA,NA,NA,NA,NA,NA,NA,fixation,NA,NA,NA,NA,NA,NA,sub14
d3-animate-choice,112,530406,0.0-61.0-0.17,FALSE,TRUE,FALSE,FALSE,"""event"",""trial"",""time""
""fullscreenenter"",""5"",""48737""
","
","
","""event"",""trial"",""time""
""fullscreenenter"",""5"",""48737""
","
",767.4200001638383,NA,49,NA,NA,3000,1,NA,NA,images/earth.jpg,images/tutrocket2,images/tutrocket1,null,images/tutrocket1,NA,1,practice,null,1,NA,NA,NA,sub14
d3-animate-choice,113,533746,0.0-61.0-1.17,FALSE,TRUE,FALSE,FALSE,"""event"",""trial"",""time""
""fullscreenenter"",""5"",""48737""
","
","
","""event"",""trial"",""time""
""fullscreenenter"",""5"",""48737""
","
",1335.715000052005,NA,49,NA,NA,3000,1,NA,NA,images/tutgreenplanet.jpg,images/tutalien2,images/tutalien1,images/tutrocket1,images/tutalien1,images/nothing.png,2,practice,true,1,common,0,2020-06-10T19:13:06Z,sub14
two-step-fixation,114,534750,0.0-61.0-2.17,FALSE,TRUE,FALSE,FALSE,"""event"",""trial"",""time""
""fullscreenenter"",""5"",""48737""
","
","
","""event"",""trial"",""time""
""fullscreenenter"",""5"",""48737""
","
",NA,images/earth.jpg,NA,NA,NA,NA,NA,NA,NA,NA,NA,NA,NA,NA,NA,fixation,NA,NA,NA,NA,NA,NA,sub14
d3-animate-choice,115,537086,0.0-61.0-0.18,FALSE,TRUE,FALSE,FALSE,"""event"",""trial"",""time""
""fullscreenenter"",""5"",""48737""
","
","
","""event"",""trial"",""time""
""fullscreenenter"",""5"",""48737""
","
",332.64000015333295,NA,49,NA,NA,3000,1,NA,NA,images/earth.jpg,images/tutrocket2,images/tutrocket1,null,images/tutrocket1,NA,1,practice,null,1,NA,NA,NA,sub14
d3-animate-choice,116,539756,0.0-61.0-1.18,FALSE,TRUE,FALSE,FALSE,"""event"",""trial"",""time""
""fullscreenenter"",""5"",""48737""
","
","
","""event"",""trial"",""time""
""fullscreenenter"",""5"",""48737""
","
",666.0050000064075,NA,48,NA,NA,3000,1,NA,NA,images/tutgreenplanet.jpg,images/tutalien2,images/tutalien1,images/tutrocket1,images/tutalien2,images/t.png,2,practice,true,2,common,1,2020-06-10T19:13:12Z,sub14
two-step-fixation,117,540761,0.0-61.0-2.18,FALSE,TRUE,FALSE,FALSE,"""event"",""trial"",""time""
""fullscreenenter"",""5"",""48737""
","
","
","""event"",""trial"",""time""
""fullscreenenter"",""5"",""48737""
","
",NA,images/earth.jpg,NA,NA,NA,NA,NA,NA,NA,NA,NA,NA,NA,NA,NA,fixation,NA,NA,NA,NA,NA,NA,sub14
d3-animate-choice,118,543277,0.0-61.0-0.19,FALSE,TRUE,FALSE,FALSE,"""event"",""trial"",""time""
""fullscreenenter"",""5"",""48737""
","
","
","""event"",""trial"",""time""
""fullscreenenter"",""5"",""48737""
","
",511.85999996960163,NA,49,NA,NA,3000,1,NA,NA,images/earth.jpg,images/tutrocket2,images/tutrocket1,null,images/tutrocket1,NA,1,practice,null,1,NA,NA,NA,sub14
d3-animate-choice,119,545830,0.0-61.0-1.19,FALSE,TRUE,FALSE,FALSE,"""event"",""trial"",""time""
""fullscreenenter"",""5"",""48737""
","
","
","""event"",""trial"",""time""
""fullscreenenter"",""5"",""48737""
","
",549.8999999836087,NA,48,NA,NA,3000,1,NA,NA,images/tutgreenplanet.jpg,images/tutalien2,images/tutalien1,images/tutrocket1,images/tutalien2,images/t.png,2,practice,true,2,common,1,2020-06-10T19:13:18Z,sub14
two-step-fixation,120,546834,0.0-61.0-2.19,FALSE,TRUE,FALSE,FALSE,"""event"",""trial"",""time""
""fullscreenenter"",""5"",""48737""
","
","
","""event"",""trial"",""time""
""fullscreenenter"",""5"",""48737""
","
",NA,images/earth.jpg,NA,NA,NA,NA,NA,NA,NA,NA,NA,NA,NA,NA,NA,fixation,NA,NA,NA,NA,NA,NA,sub14
d3-instructions,121,551222,0.0-62.0,FALSE,TRUE,FALSE,FALSE,"""event"",""trial"",""time""
""fullscreenenter"",""5"",""48737""
","
","
","""event"",""trial"",""time""
""fullscreenenter"",""5"",""48737""
","
",NA,NA,NA,NA,NA,NA,NA,NA,NA,NA,NA,NA,NA,NA,NA,NA,NA,NA,NA,NA,NA,NA,sub14
audio-keyboard-response,122,555071,0.0-63.0,FALSE,TRUE,FALSE,FALSE,"""event"",""trial"",""time""
""fullscreenenter"",""5"",""48737""
","
","
","""event"",""trial"",""time""
""fullscreenenter"",""5"",""48737""
","
",3840,audio/instructions/treasure_feedback.wav,32,NA,NA,NA,NA,NA,NA,NA,NA,NA,NA,NA,NA,NA,NA,NA,NA,NA,NA,NA,sub14
d3-instructions,123,572131,0.0-64.0,FALSE,TRUE,FALSE,FALSE,"""event"",""trial"",""time""
""fullscreenenter"",""5"",""48737""
","
","
","""event"",""trial"",""time""
""fullscreenenter"",""5"",""48737""
","
",NA,NA,NA,NA,NA,NA,NA,NA,NA,NA,NA,NA,NA,NA,NA,NA,NA,NA,NA,NA,NA,NA,sub14
d3-instructions,124,582619,0.0-65.0,FALSE,TRUE,FALSE,FALSE,"""event"",""trial"",""time""
""fullscreenenter"",""5"",""48737""
","
","
","""event"",""trial"",""time""
""fullscreenenter"",""5"",""48737""
","
",NA,NA,NA,NA,NA,NA,NA,NA,NA,NA,NA,NA,NA,NA,NA,NA,NA,NA,NA,NA,NA,NA,sub14
d3-instructions,125,611482,0.0-66.0,FALSE,TRUE,FALSE,FALSE,"""event"",""trial"",""time""
""fullscreenenter"",""5"",""48737""
","
","
","""event"",""trial"",""time""
""fullscreenenter"",""5"",""48737""
","
",NA,NA,NA,NA,NA,NA,NA,NA,NA,NA,NA,NA,NA,NA,NA,NA,NA,NA,NA,NA,NA,NA,sub14
d3-instructions,126,622782,0.0-67.0,FALSE,TRUE,FALSE,FALSE,"""event"",""trial"",""time""
""fullscreenenter"",""5"",""48737""
","
","
","""event"",""trial"",""time""
""fullscreenenter"",""5"",""48737""
","
",NA,NA,NA,NA,NA,NA,NA,NA,NA,NA,NA,NA,NA,NA,NA,NA,NA,NA,NA,NA,NA,NA,sub14
d3-instructions,127,626662,0.0-68.0,FALSE,TRUE,FALSE,FALSE,"""event"",""trial"",""time""
""fullscreenenter"",""5"",""48737""
","
","
","""event"",""trial"",""time""
""fullscreenenter"",""5"",""48737""
","
",NA,NA,NA,NA,NA,NA,NA,NA,NA,NA,NA,NA,NA,NA,NA,NA,NA,NA,NA,NA,NA,NA,sub14
instructions-quiz,128,631869,0.0-69.0,FALSE,TRUE,FALSE,FALSE,"""event"",""trial"",""time""
""fullscreenenter"",""5"",""48737""
","
","
","""event"",""trial"",""time""
""fullscreenenter"",""5"",""48737""
","
",5204.050000058487,audio/quiz/Q1_Prompt.wav,NA,1,NA,NA,NA,NA,NA,NA,NA,NA,NA,NA,NA,NA,NA,NA,NA,NA,NA,NA,sub14
audio-keyboard-response,129,634418,0.0-70.0,FALSE,TRUE,FALSE,FALSE,"""event"",""trial"",""time""
""fullscreenenter"",""5"",""48737""
","
","
","""event"",""trial"",""time""
""fullscreenenter"",""5"",""48737""
","
",2549,audio/quiz/Q1_Correct.wav,32,NA,NA,NA,NA,NA,NA,NA,NA,NA,NA,NA,NA,NA,NA,NA,NA,NA,NA,NA,sub14
instructions-quiz,130,639279,0.0-71.0,FALSE,TRUE,FALSE,FALSE,"""event"",""trial"",""time""
""fullscreenenter"",""5"",""48737""
","
","
","""event"",""trial"",""time""
""fullscreenenter"",""5"",""48737""
","
",4859.4549999106675,audio/quiz/Q2_Prompt.wav,NA,0,NA,NA,NA,NA,NA,NA,NA,NA,NA,NA,NA,NA,NA,NA,NA,NA,NA,NA,sub14
audio-keyboard-response,131,640256,0.0-72.0,FALSE,TRUE,FALSE,FALSE,"""event"",""trial"",""time""
""fullscreenenter"",""5"",""48737""
","
","
","""event"",""trial"",""time""
""fullscreenenter"",""5"",""48737""
","
",981,audio/quiz/Q2_Correct.wav,32,NA,NA,NA,NA,NA,NA,NA,NA,NA,NA,NA,NA,NA,NA,NA,NA,NA,NA,NA,sub14
instructions-quiz,132,643763,0.0-73.0,FALSE,TRUE,FALSE,FALSE,"""event"",""trial"",""time""
""fullscreenenter"",""5"",""48737""
","
","
","""event"",""trial"",""time""
""fullscreenenter"",""5"",""48737""
","
",3504.3200000654906,audio/quiz/Q3_Prompt.wav,NA,1,NA,NA,NA,NA,NA,NA,NA,NA,NA,NA,NA,NA,NA,NA,NA,NA,NA,NA,sub14
audio-keyboard-response,133,645372,0.0-74.0,FALSE,TRUE,FALSE,FALSE,"""event"",""trial"",""time""
""fullscreenenter"",""5"",""48737""
","
","
","""event"",""trial"",""time""
""fullscreenenter"",""5"",""48737""
","
",1600,audio/quiz/Q3_Correct.wav,32,NA,NA,NA,NA,NA,NA,NA,NA,NA,NA,NA,NA,NA,NA,NA,NA,NA,NA,NA,sub14
d3-instructions,134,649387,0.0-75.0,FALSE,TRUE,FALSE,FALSE,"""event"",""trial"",""time""
""fullscreenenter"",""5"",""48737""
","
","
","""event"",""trial"",""time""
""fullscreenenter"",""5"",""48737""
","
",NA,NA,NA,NA,NA,NA,NA,NA,NA,NA,NA,NA,NA,NA,NA,NA,NA,NA,NA,NA,NA,NA,sub14
d3-animate-choice,135,653390,0.0-76.0-0.0,FALSE,TRUE,FALSE,FALSE,"""event"",""trial"",""time""
""fullscreenenter"",""5"",""48737""
","
","
","""event"",""trial"",""time""
""fullscreenenter"",""5"",""48737""
","
",2684.309999924153,NA,49,NA,NA,3000,1,NA,NA,images/earth.jpg,images/rocket1,images/rocket2,null,images/rocket2,NA,1,real,null,1,NA,NA,NA,sub14
d3-animate-choice,136,657183,0.0-76.0-1.0,FALSE,TRUE,FALSE,FALSE,"""event"",""trial"",""time""
""fullscreenenter"",""5"",""48737""
","
","
","""event"",""trial"",""time""
""fullscreenenter"",""5"",""48737""
","
",1788.1949997972697,NA,49,NA,NA,3000,1,NA,NA,images/purpleplanet.jpg,images/alien4,images/alien3,images/rocket2,images/alien3,images/nothing.png,2,real,true,1,common,0,2020-06-10T19:15:10Z,sub14
two-step-fixation,137,658188,0.0-76.0-2.0,FALSE,TRUE,FALSE,FALSE,"""event"",""trial"",""time""
""fullscreenenter"",""5"",""48737""
","
","
","""event"",""trial"",""time""
""fullscreenenter"",""5"",""48737""
","
",NA,images/earth.jpg,NA,NA,NA,NA,NA,NA,NA,NA,NA,NA,NA,NA,NA,fixation,NA,NA,NA,NA,NA,NA,sub14
d3-animate-choice,138,660714,0.0-76.0-0.1,FALSE,TRUE,FALSE,FALSE,"""event"",""trial"",""time""
""fullscreenenter"",""5"",""48737""
","
","
","""event"",""trial"",""time""
""fullscreenenter"",""5"",""48737""
","
",522.6199999451637,NA,49,NA,NA,3000,1,NA,NA,images/earth.jpg,images/rocket1,images/rocket2,null,images/rocket2,NA,1,real,null,1,NA,NA,NA,sub14
d3-animate-choice,139,663916,0.0-76.0-1.1,FALSE,TRUE,FALSE,FALSE,"""event"",""trial"",""time""
""fullscreenenter"",""5"",""48737""
","
","
","""event"",""trial"",""time""
""fullscreenenter"",""5"",""48737""
","
",1197.8349999990314,NA,48,NA,NA,3000,1,NA,NA,images/purpleplanet.jpg,images/alien4,images/alien3,images/rocket2,images/alien4,images/t.png,2,real,true,2,common,1,2020-06-10T19:15:16Z,sub14
two-step-fixation,140,664921,0.0-76.0-2.1,FALSE,TRUE,FALSE,FALSE,"""event"",""trial"",""time""
""fullscreenenter"",""5"",""48737""
","
","
","""event"",""trial"",""time""
""fullscreenenter"",""5"",""48737""
","
",NA,images/earth.jpg,NA,NA,NA,NA,NA,NA,NA,NA,NA,NA,NA,NA,NA,fixation,NA,NA,NA,NA,NA,NA,sub14
d3-animate-choice,141,667463,0.0-76.0-0.2,FALSE,TRUE,FALSE,FALSE,"""event"",""trial"",""time""
""fullscreenenter"",""5"",""48737""
","
","
","""event"",""trial"",""time""
""fullscreenenter"",""5"",""48737""
","
",537.1550000272691,NA,49,NA,NA,3000,1,NA,NA,images/earth.jpg,images/rocket1,images/rocket2,null,images/rocket2,NA,1,real,null,1,NA,NA,NA,sub14
d3-animate-choice,142,669915,0.0-76.0-1.2,FALSE,TRUE,FALSE,FALSE,"""event"",""trial"",""time""
""fullscreenenter"",""5"",""48737""
","
","
","""event"",""trial"",""time""
""fullscreenenter"",""5"",""48737""
","
",446.68499985709786,NA,48,NA,NA,3000,1,NA,NA,images/purpleplanet.jpg,images/alien4,images/alien3,images/rocket2,images/alien4,images/nothing.png,2,real,true,2,common,0,2020-06-10T19:15:22Z,sub14
two-step-fixation,143,670919,0.0-76.0-2.2,FALSE,TRUE,FALSE,FALSE,"""event"",""trial"",""time""
""fullscreenenter"",""5"",""48737""
","
","
","""event"",""trial"",""time""
""fullscreenenter"",""5"",""48737""
","
",NA,images/earth.jpg,NA,NA,NA,NA,NA,NA,NA,NA,NA,NA,NA,NA,NA,fixation,NA,NA,NA,NA,NA,NA,sub14
d3-animate-choice,144,673641,0.0-76.0-0.3,FALSE,TRUE,FALSE,FALSE,"""event"",""trial"",""time""
""fullscreenenter"",""5"",""48737""
","
","
","""event"",""trial"",""time""
""fullscreenenter"",""5"",""48737""
","
",718.6050000600517,NA,49,NA,NA,3000,1,NA,NA,images/earth.jpg,images/rocket1,images/rocket2,null,images/rocket2,NA,1,real,null,1,NA,NA,NA,sub14
d3-animate-choice,145,676070,0.0-76.0-1.3,FALSE,TRUE,FALSE,FALSE,"""event"",""trial"",""time""
""fullscreenenter"",""5"",""48737""
","
","
","""event"",""trial"",""time""
""fullscreenenter"",""5"",""48737""
","
",421.69500002637506,NA,48,NA,NA,3000,1,NA,NA,images/purpleplanet.jpg,images/alien4,images/alien3,images/rocket2,images/alien4,images/t.png,2,real,true,2,common,1,2020-06-10T19:15:28Z,sub14
two-step-fixation,146,677073,0.0-76.0-2.3,FALSE,TRUE,FALSE,FALSE,"""event"",""trial"",""time""
""fullscreenenter"",""5"",""48737""
","
","
","""event"",""trial"",""time""
""fullscreenenter"",""5"",""48737""
","
",NA,images/earth.jpg,NA,NA,NA,NA,NA,NA,NA,NA,NA,NA,NA,NA,NA,fixation,NA,NA,NA,NA,NA,NA,sub14
d3-animate-choice,147,679872,0.0-76.0-0.4,FALSE,TRUE,FALSE,FALSE,"""event"",""trial"",""time""
""fullscreenenter"",""5"",""48737""
","
","
","""event"",""trial"",""time""
""fullscreenenter"",""5"",""48737""
","
",794.8900000192225,NA,48,NA,NA,3000,1,NA,NA,images/earth.jpg,images/rocket1,images/rocket2,null,images/rocket1,NA,1,real,null,2,NA,NA,NA,sub14
d3-animate-choice,148,683027,0.0-76.0-1.4,FALSE,TRUE,FALSE,FALSE,"""event"",""trial"",""time""
""fullscreenenter"",""5"",""48737""
","
","
","""event"",""trial"",""time""
""fullscreenenter"",""5"",""48737""
","
",1151.564999949187,NA,49,NA,NA,3000,1,NA,NA,images/redplanet1.jpg,images/alien2,images/alien1,images/rocket1,images/alien1,images/nothing.png,2,real,true,1,common,0,2020-06-10T19:15:35Z,sub14
two-step-fixation,149,684031,0.0-76.0-2.4,FALSE,TRUE,FALSE,FALSE,"""event"",""trial"",""time""
""fullscreenenter"",""5"",""48737""
","
","
","""event"",""trial"",""time""
""fullscreenenter"",""5"",""48737""
","
",NA,images/earth.jpg,NA,NA,NA,NA,NA,NA,NA,NA,NA,NA,NA,NA,NA,fixation,NA,NA,NA,NA,NA,NA,sub14
d3-animate-choice,150,686321,0.0-76.0-0.5,FALSE,TRUE,FALSE,FALSE,"""event"",""trial"",""time""
""fullscreenenter"",""5"",""48737""
","
","
","""event"",""trial"",""time""
""fullscreenenter"",""5"",""48737""
","
",284.3550001271069,NA,48,NA,NA,3000,1,NA,NA,images/earth.jpg,images/rocket1,images/rocket2,null,images/rocket1,NA,1,real,null,2,NA,NA,NA,sub14
d3-animate-choice,151,688665,0.0-76.0-1.5,FALSE,TRUE,FALSE,FALSE,"""event"",""trial"",""time""
""fullscreenenter"",""5"",""48737""
","
","
","""event"",""trial"",""time""
""fullscreenenter"",""5"",""48737""
","
",337.7700001001358,NA,48,NA,NA,3000,1,NA,NA,images/redplanet1.jpg,images/alien2,images/alien1,images/rocket1,images/alien2,images/t.png,2,real,true,2,common,1,2020-06-10T19:15:41Z,sub14
two-step-fixation,152,689669,0.0-76.0-2.5,FALSE,TRUE,FALSE,FALSE,"""event"",""trial"",""time""
""fullscreenenter"",""5"",""48737""
","
","
","""event"",""trial"",""time""
""fullscreenenter"",""5"",""48737""
","
",NA,images/earth.jpg,NA,NA,NA,NA,NA,NA,NA,NA,NA,NA,NA,NA,NA,fixation,NA,NA,NA,NA,NA,NA,sub14
d3-animate-choice,153,692046,0.0-76.0-0.6,FALSE,TRUE,FALSE,FALSE,"""event"",""trial"",""time""
""fullscreenenter"",""5"",""48737""
","
","
","""event"",""trial"",""time""
""fullscreenenter"",""5"",""48737""
","
",373.09499992989004,NA,48,NA,NA,3000,1,NA,NA,images/earth.jpg,images/rocket1,images/rocket2,null,images/rocket1,NA,1,real,null,2,NA,NA,NA,sub14
d3-animate-choice,154,694520,0.0-76.0-1.6,FALSE,TRUE,FALSE,FALSE,"""event"",""trial"",""time""
""fullscreenenter"",""5"",""48737""
","
","
","""event"",""trial"",""time""
""fullscreenenter"",""5"",""48737""
","
",465.6699998304248,NA,48,NA,NA,3000,1,NA,NA,images/purpleplanet.jpg,images/alien4,images/alien3,images/rocket1,images/alien4,images/t.png,2,real,false,2,rare,1,2020-06-10T19:15:47Z,sub14
two-step-fixation,155,695525,0.0-76.0-2.6,FALSE,TRUE,FALSE,FALSE,"""event"",""trial"",""time""
""fullscreenenter"",""5"",""48737""
","
","
","""event"",""trial"",""time""
""fullscreenenter"",""5"",""48737""
","
",NA,images/earth.jpg,NA,NA,NA,NA,NA,NA,NA,NA,NA,NA,NA,NA,NA,fixation,NA,NA,NA,NA,NA,NA,sub14
d3-animate-choice,156,697874,0.0-76.0-0.7,FALSE,TRUE,FALSE,FALSE,"""event"",""trial"",""time""
""fullscreenenter"",""5"",""48737""
","
","
","""event"",""trial"",""time""
""fullscreenenter"",""5"",""48737""
","
",340.1099999900907,NA,48,NA,NA,3000,1,NA,NA,images/earth.jpg,images/rocket1,images/rocket2,null,images/rocket1,NA,1,real,null,2,NA,NA,NA,sub14
d3-animate-choice,157,700284,0.0-76.0-1.7,FALSE,TRUE,FALSE,FALSE,"""event"",""trial"",""time""
""fullscreenenter"",""5"",""48737""
","
","
","""event"",""trial"",""time""
""fullscreenenter"",""5"",""48737""
","
",397.7500000037253,NA,48,NA,NA,3000,1,NA,NA,images/redplanet1.jpg,images/alien2,images/alien1,images/rocket1,images/alien2,images/nothing.png,2,real,true,2,common,0,2020-06-10T19:15:53Z,sub14
two-step-fixation,158,701291,0.0-76.0-2.7,FALSE,TRUE,FALSE,FALSE,"""event"",""trial"",""time""
""fullscreenenter"",""5"",""48737""
","
","
","""event"",""trial"",""time""
""fullscreenenter"",""5"",""48737""
","
",NA,images/earth.jpg,NA,NA,NA,NA,NA,NA,NA,NA,NA,NA,NA,NA,NA,fixation,NA,NA,NA,NA,NA,NA,sub14
d3-animate-choice,159,703540,0.0-76.0-0.8,FALSE,TRUE,FALSE,FALSE,"""event"",""trial"",""time""
""fullscreenenter"",""5"",""48737""
","
","
","""event"",""trial"",""time""
""fullscreenenter"",""5"",""48737""
","
",244.59500005468726,NA,48,NA,NA,3000,1,NA,NA,images/earth.jpg,images/rocket1,images/rocket2,null,images/rocket1,NA,1,real,null,2,NA,NA,NA,sub14
d3-animate-choice,160,705876,0.0-76.0-1.8,FALSE,TRUE,FALSE,FALSE,"""event"",""trial"",""time""
""fullscreenenter"",""5"",""48737""
","
","
","""event"",""trial"",""time""
""fullscreenenter"",""5"",""48737""
","
",331.16000005975366,NA,48,NA,NA,3000,1,NA,NA,images/purpleplanet.jpg,images/alien4,images/alien3,images/rocket1,images/alien4,images/t.png,2,real,false,2,rare,1,2020-06-10T19:15:58Z,sub14
two-step-fixation,161,706879,0.0-76.0-2.8,FALSE,TRUE,FALSE,FALSE,"""event"",""trial"",""time""
""fullscreenenter"",""5"",""48737""
","
","
","""event"",""trial"",""time""
""fullscreenenter"",""5"",""48737""
","
",NA,images/earth.jpg,NA,NA,NA,NA,NA,NA,NA,NA,NA,NA,NA,NA,NA,fixation,NA,NA,NA,NA,NA,NA,sub14
d3-animate-choice,162,709215,0.0-76.0-0.9,FALSE,TRUE,FALSE,FALSE,"""event"",""trial"",""time""
""fullscreenenter"",""5"",""48737""
","
","
","""event"",""trial"",""time""
""fullscreenenter"",""5"",""48737""
","
",331.12500002607703,NA,48,NA,NA,3000,1,NA,NA,images/earth.jpg,images/rocket1,images/rocket2,null,images/rocket1,NA,1,real,null,2,NA,NA,NA,sub14
d3-animate-choice,163,711436,0.0-76.0-1.9,FALSE,TRUE,FALSE,FALSE,"""event"",""trial"",""time""
""fullscreenenter"",""5"",""48737""
","
","
","""event"",""trial"",""time""
""fullscreenenter"",""5"",""48737""
","
",214.18000012636185,NA,48,NA,NA,3000,1,NA,NA,images/purpleplanet.jpg,images/alien4,images/alien3,images/rocket1,images/alien4,images/t.png,2,real,false,2,rare,1,2020-06-10T19:16:04Z,sub14
two-step-fixation,164,712439,0.0-76.0-2.9,FALSE,TRUE,FALSE,FALSE,"""event"",""trial"",""time""
""fullscreenenter"",""5"",""48737""
","
","
","""event"",""trial"",""time""
""fullscreenenter"",""5"",""48737""
","
",NA,images/earth.jpg,NA,NA,NA,NA,NA,NA,NA,NA,NA,NA,NA,NA,NA,fixation,NA,NA,NA,NA,NA,NA,sub14
d3-animate-choice,165,714534,0.0-76.0-0.10,FALSE,TRUE,FALSE,FALSE,"""event"",""trial"",""time""
""fullscreenenter"",""5"",""48737""
","
","
","""event"",""trial"",""time""
""fullscreenenter"",""5"",""48737""
","
",90.39999986998737,NA,48,NA,NA,3000,1,NA,NA,images/earth.jpg,images/rocket1,images/rocket2,null,images/rocket1,NA,1,real,null,2,NA,NA,NA,sub14
d3-animate-choice,166,717134,0.0-76.0-1.10,FALSE,TRUE,FALSE,FALSE,"""event"",""trial"",""time""
""fullscreenenter"",""5"",""48737""
","
","
","""event"",""trial"",""time""
""fullscreenenter"",""5"",""48737""
","
",594.7600000072271,NA,48,NA,NA,3000,1,NA,NA,images/redplanet1.jpg,images/alien2,images/alien1,images/rocket1,images/alien2,images/nothing.png,2,real,true,2,common,0,2020-06-10T19:16:10Z,sub14
two-step-fixation,167,718139,0.0-76.0-2.10,FALSE,TRUE,FALSE,FALSE,"""event"",""trial"",""time""
""fullscreenenter"",""5"",""48737""
","
","
","""event"",""trial"",""time""
""fullscreenenter"",""5"",""48737""
","
",NA,images/earth.jpg,NA,NA,NA,NA,NA,NA,NA,NA,NA,NA,NA,NA,NA,fixation,NA,NA,NA,NA,NA,NA,sub14
d3-animate-choice,168,720501,0.0-76.0-0.11,FALSE,TRUE,FALSE,FALSE,"""event"",""trial"",""time""
""fullscreenenter"",""5"",""48737""
","
","
","""event"",""trial"",""time""
""fullscreenenter"",""5"",""48737""
","
",358.2450000103563,NA,48,NA,NA,3000,1,NA,NA,images/earth.jpg,images/rocket1,images/rocket2,null,images/rocket1,NA,1,real,null,2,NA,NA,NA,sub14
d3-animate-choice,169,722942,0.0-76.0-1.11,FALSE,TRUE,FALSE,FALSE,"""event"",""trial"",""time""
""fullscreenenter"",""5"",""48737""
","
","
","""event"",""trial"",""time""
""fullscreenenter"",""5"",""48737""
","
",437.26499984040856,NA,49,NA,NA,3000,1,NA,NA,images/redplanet1.jpg,images/alien2,images/alien1,images/rocket1,images/alien1,images/nothing.png,2,real,true,1,common,0,2020-06-10T19:16:15Z,sub14
two-step-fixation,170,723951,0.0-76.0-2.11,FALSE,TRUE,FALSE,FALSE,"""event"",""trial"",""time""
""fullscreenenter"",""5"",""48737""
","
","
","""event"",""trial"",""time""
""fullscreenenter"",""5"",""48737""
","
",NA,images/earth.jpg,NA,NA,NA,NA,NA,NA,NA,NA,NA,NA,NA,NA,NA,fixation,NA,NA,NA,NA,NA,NA,sub14
d3-animate-choice,171,726368,0.0-76.0-0.12,FALSE,TRUE,FALSE,FALSE,"""event"",""trial"",""time""
""fullscreenenter"",""5"",""48737""
","
","
","""event"",""trial"",""time""
""fullscreenenter"",""5"",""48737""
","
",412.66999999061227,NA,48,NA,NA,3000,1,NA,NA,images/earth.jpg,images/rocket1,images/rocket2,null,images/rocket1,NA,1,real,null,2,NA,NA,NA,sub14
d3-animate-choice,172,728769,0.0-76.0-1.12,FALSE,TRUE,FALSE,FALSE,"""event"",""trial"",""time""
""fullscreenenter"",""5"",""48737""
","
","
","""event"",""trial"",""time""
""fullscreenenter"",""5"",""48737""
","
",396.4500001166016,NA,48,NA,NA,3000,1,NA,NA,images/redplanet1.jpg,images/alien2,images/alien1,images/rocket1,images/alien2,images/nothing.png,2,real,true,2,common,0,2020-06-10T19:16:21Z,sub14
two-step-fixation,173,729771,0.0-76.0-2.12,FALSE,TRUE,FALSE,FALSE,"""event"",""trial"",""time""
""fullscreenenter"",""5"",""48737""
","
","
","""event"",""trial"",""time""
""fullscreenenter"",""5"",""48737""
","
",NA,images/earth.jpg,NA,NA,NA,NA,NA,NA,NA,NA,NA,NA,NA,NA,NA,fixation,NA,NA,NA,NA,NA,NA,sub14
d3-animate-choice,174,732135,0.0-76.0-0.13,FALSE,TRUE,FALSE,FALSE,"""event"",""trial"",""time""
""fullscreenenter"",""5"",""48737""
","
","
","""event"",""trial"",""time""
""fullscreenenter"",""5"",""48737""
","
",358.2000001333654,NA,49,NA,NA,3000,1,NA,NA,images/earth.jpg,images/rocket1,images/rocket2,null,images/rocket2,NA,1,real,null,1,NA,NA,NA,sub14
d3-animate-choice,175,734517,0.0-76.0-1.13,FALSE,TRUE,FALSE,FALSE,"""event"",""trial"",""time""
""fullscreenenter"",""5"",""48737""
","
","
","""event"",""trial"",""time""
""fullscreenenter"",""5"",""48737""
","
",378.0549999792129,NA,48,NA,NA,3000,1,NA,NA,images/purpleplanet.jpg,images/alien4,images/alien3,images/rocket2,images/alien4,images/t.png,2,real,true,2,common,1,2020-06-10T19:16:27Z,sub14
two-step-fixation,176,735520,0.0-76.0-2.13,FALSE,TRUE,FALSE,FALSE,"""event"",""trial"",""time""
""fullscreenenter"",""5"",""48737""
","
","
","""event"",""trial"",""time""
""fullscreenenter"",""5"",""48737""
","
",NA,images/earth.jpg,NA,NA,NA,NA,NA,NA,NA,NA,NA,NA,NA,NA,NA,fixation,NA,NA,NA,NA,NA,NA,sub14
d3-animate-choice,177,738043,0.0-76.0-0.14,FALSE,TRUE,FALSE,FALSE,"""event"",""trial"",""time""
""fullscreenenter"",""5"",""48737""
","
","
","""event"",""trial"",""time""
""fullscreenenter"",""5"",""48737""
","
",517.9800000041723,NA,49,NA,NA,3000,1,NA,NA,images/earth.jpg,images/rocket1,images/rocket2,null,images/rocket2,NA,1,real,null,1,NA,NA,NA,sub14
d3-animate-choice,178,740501,0.0-76.0-1.14,FALSE,TRUE,FALSE,FALSE,"""event"",""trial"",""time""
""fullscreenenter"",""5"",""48737""
","
","
","""event"",""trial"",""time""
""fullscreenenter"",""5"",""48737""
","
",453.78499990329146,NA,48,NA,NA,3000,1,NA,NA,images/purpleplanet.jpg,images/alien4,images/alien3,images/rocket2,images/alien4,images/t.png,2,real,true,2,common,1,2020-06-10T19:16:33Z,sub14
two-step-fixation,179,741505,0.0-76.0-2.14,FALSE,TRUE,FALSE,FALSE,"""event"",""trial"",""time""
""fullscreenenter"",""5"",""48737""
","
","
","""event"",""trial"",""time""
""fullscreenenter"",""5"",""48737""
","
",NA,images/earth.jpg,NA,NA,NA,NA,NA,NA,NA,NA,NA,NA,NA,NA,NA,fixation,NA,NA,NA,NA,NA,NA,sub14
d3-animate-choice,180,744126,0.0-76.0-0.15,FALSE,TRUE,FALSE,FALSE,"""event"",""trial"",""time""
""fullscreenenter"",""5"",""48737""
","
","
","""event"",""trial"",""time""
""fullscreenenter"",""5"",""48737""
","
",616.1950000096112,NA,49,NA,NA,3000,1,NA,NA,images/earth.jpg,images/rocket1,images/rocket2,null,images/rocket2,NA,1,real,null,1,NA,NA,NA,sub14
d3-animate-choice,181,746930,0.0-76.0-1.15,FALSE,TRUE,FALSE,FALSE,"""event"",""trial"",""time""
""fullscreenenter"",""5"",""48737""
","
","
","""event"",""trial"",""time""
""fullscreenenter"",""5"",""48737""
","
",800.5750000011176,NA,48,NA,NA,3000,1,NA,NA,images/redplanet1.jpg,images/alien2,images/alien1,images/rocket2,images/alien2,images/nothing.png,2,real,false,2,rare,0,2020-06-10T19:16:39Z,sub14
two-step-fixation,182,747934,0.0-76.0-2.15,FALSE,TRUE,FALSE,FALSE,"""event"",""trial"",""time""
""fullscreenenter"",""5"",""48737""
","
","
","""event"",""trial"",""time""
""fullscreenenter"",""5"",""48737""
","
",NA,images/earth.jpg,NA,NA,NA,NA,NA,NA,NA,NA,NA,NA,NA,NA,NA,fixation,NA,NA,NA,NA,NA,NA,sub14
d3-animate-choice,183,750249,0.0-76.0-0.16,FALSE,TRUE,FALSE,FALSE,"""event"",""trial"",""time""
""fullscreenenter"",""5"",""48737""
","
","
","""event"",""trial"",""time""
""fullscreenenter"",""5"",""48737""
","
",309.2499999329448,NA,49,NA,NA,3000,1,NA,NA,images/earth.jpg,images/rocket1,images/rocket2,null,images/rocket2,NA,1,real,null,1,NA,NA,NA,sub14
d3-animate-choice,184,754255,0.0-76.0-1.16,FALSE,TRUE,FALSE,FALSE,"""event"",""trial"",""time""
""fullscreenenter"",""5"",""48737""
","
","
","""event"",""trial"",""time""
""fullscreenenter"",""5"",""48737""
","
",2618.375000078231,NA,49,NA,NA,3000,1,NA,NA,images/redplanet1.jpg,images/alien2,images/alien1,images/rocket2,images/alien1,images/t.png,2,real,false,1,rare,1,2020-06-10T19:16:47Z,sub14
two-step-fixation,185,755258,0.0-76.0-2.16,FALSE,TRUE,FALSE,FALSE,"""event"",""trial"",""time""
""fullscreenenter"",""5"",""48737""
","
","
","""event"",""trial"",""time""
""fullscreenenter"",""5"",""48737""
","
",NA,images/earth.jpg,NA,NA,NA,NA,NA,NA,NA,NA,NA,NA,NA,NA,NA,fixation,NA,NA,NA,NA,NA,NA,sub14
d3-animate-choice,186,757601,0.0-76.0-0.17,FALSE,TRUE,FALSE,FALSE,"""event"",""trial"",""time""
""fullscreenenter"",""5"",""48737""
","
","
","""event"",""trial"",""time""
""fullscreenenter"",""5"",""48737""
","
",337.4550000298768,NA,49,NA,NA,3000,1,NA,NA,images/earth.jpg,images/rocket1,images/rocket2,null,images/rocket2,NA,1,real,null,1,NA,NA,NA,sub14
d3-animate-choice,187,760364,0.0-76.0-1.17,FALSE,TRUE,FALSE,FALSE,"""event"",""trial"",""time""
""fullscreenenter"",""5"",""48737""
","
","
","""event"",""trial"",""time""
""fullscreenenter"",""5"",""48737""
","
",756.7049998324364,NA,48,NA,NA,3000,1,NA,NA,images/purpleplanet.jpg,images/alien4,images/alien3,images/rocket2,images/alien4,images/t.png,2,real,true,2,common,1,2020-06-10T19:16:53Z,sub14
two-step-fixation,188,761368,0.0-76.0-2.17,FALSE,TRUE,FALSE,FALSE,"""event"",""trial"",""time""
""fullscreenenter"",""5"",""48737""
","
","
","""event"",""trial"",""time""
""fullscreenenter"",""5"",""48737""
","
",NA,images/earth.jpg,NA,NA,NA,NA,NA,NA,NA,NA,NA,NA,NA,NA,NA,fixation,NA,NA,NA,NA,NA,NA,sub14
d3-animate-choice,189,763816,0.0-76.0-0.18,FALSE,TRUE,FALSE,FALSE,"""event"",""trial"",""time""
""fullscreenenter"",""5"",""48737""
","
","
","""event"",""trial"",""time""
""fullscreenenter"",""5"",""48737""
","
",445.55499986745417,NA,49,NA,NA,3000,1,NA,NA,images/earth.jpg,images/rocket1,images/rocket2,null,images/rocket2,NA,1,real,null,1,NA,NA,NA,sub14
d3-animate-choice,190,766531,0.0-76.0-1.18,FALSE,TRUE,FALSE,FALSE,"""event"",""trial"",""time""
""fullscreenenter"",""5"",""48737""
","
","
","""event"",""trial"",""time""
""fullscreenenter"",""5"",""48737""
","
",709.9150000140071,NA,48,NA,NA,3000,1,NA,NA,images/purpleplanet.jpg,images/alien4,images/alien3,images/rocket2,images/alien4,images/t.png,2,real,true,2,common,1,2020-06-10T19:16:59Z,sub14
two-step-fixation,191,767535,0.0-76.0-2.18,FALSE,TRUE,FALSE,FALSE,"""event"",""trial"",""time""
""fullscreenenter"",""5"",""48737""
","
","
","""event"",""trial"",""time""
""fullscreenenter"",""5"",""48737""
","
",NA,images/earth.jpg,NA,NA,NA,NA,NA,NA,NA,NA,NA,NA,NA,NA,NA,fixation,NA,NA,NA,NA,NA,NA,sub14
d3-animate-choice,192,769942,0.0-76.0-0.19,FALSE,TRUE,FALSE,FALSE,"""event"",""trial"",""time""
""fullscreenenter"",""5"",""48737""
","
","
","""event"",""trial"",""time""
""fullscreenenter"",""5"",""48737""
","
",401.4000000897795,NA,49,NA,NA,3000,1,NA,NA,images/earth.jpg,images/rocket1,images/rocket2,null,images/rocket2,NA,1,real,null,1,NA,NA,NA,sub14
d3-animate-choice,193,772883,0.0-76.0-1.19,FALSE,TRUE,FALSE,FALSE,"""event"",""trial"",""time""
""fullscreenenter"",""5"",""48737""
","
","
","""event"",""trial"",""time""
""fullscreenenter"",""5"",""48737""
","
",936.2549998331815,NA,48,NA,NA,3000,1,NA,NA,images/purpleplanet.jpg,images/alien4,images/alien3,images/rocket2,images/alien4,images/t.png,2,real,true,2,common,1,2020-06-10T19:17:05Z,sub14
two-step-fixation,194,773886,0.0-76.0-2.19,FALSE,TRUE,FALSE,FALSE,"""event"",""trial"",""time""
""fullscreenenter"",""5"",""48737""
","
","
","""event"",""trial"",""time""
""fullscreenenter"",""5"",""48737""
","
",NA,images/earth.jpg,NA,NA,NA,NA,NA,NA,NA,NA,NA,NA,NA,NA,NA,fixation,NA,NA,NA,NA,NA,NA,sub14
d3-animate-choice,195,776235,0.0-76.0-0.20,FALSE,TRUE,FALSE,FALSE,"""event"",""trial"",""time""
""fullscreenenter"",""5"",""48737""
","
","
","""event"",""trial"",""time""
""fullscreenenter"",""5"",""48737""
","
",345.2749999705702,NA,49,NA,NA,3000,1,NA,NA,images/earth.jpg,images/rocket1,images/rocket2,null,images/rocket2,NA,1,real,null,1,NA,NA,NA,sub14
d3-animate-choice,196,778714,0.0-76.0-1.20,FALSE,TRUE,FALSE,FALSE,"""event"",""trial"",""time""
""fullscreenenter"",""5"",""48737""
","
","
","""event"",""trial"",""time""
""fullscreenenter"",""5"",""48737""
","
",473.29999995417893,NA,48,NA,NA,3000,1,NA,NA,images/purpleplanet.jpg,images/alien4,images/alien3,images/rocket2,images/alien4,images/t.png,2,real,true,2,common,1,2020-06-10T19:17:11Z,sub14
two-step-fixation,197,779717,0.0-76.0-2.20,FALSE,TRUE,FALSE,FALSE,"""event"",""trial"",""time""
""fullscreenenter"",""5"",""48737""
","
","
","""event"",""trial"",""time""
""fullscreenenter"",""5"",""48737""
","
",NA,images/earth.jpg,NA,NA,NA,NA,NA,NA,NA,NA,NA,NA,NA,NA,NA,fixation,NA,NA,NA,NA,NA,NA,sub14
d3-animate-choice,198,782010,0.0-76.0-0.21,FALSE,TRUE,FALSE,FALSE,"""event"",""trial"",""time""
""fullscreenenter"",""5"",""48737""
","
","
","""event"",""trial"",""time""
""fullscreenenter"",""5"",""48737""
","
",288.0750000476837,NA,49,NA,NA,3000,1,NA,NA,images/earth.jpg,images/rocket1,images/rocket2,null,images/rocket2,NA,1,real,null,1,NA,NA,NA,sub14
d3-animate-choice,199,785375,0.0-76.0-1.21,FALSE,TRUE,FALSE,FALSE,"""event"",""trial"",""time""
""fullscreenenter"",""5"",""48737""
","
","
","""event"",""trial"",""time""
""fullscreenenter"",""5"",""48737""
","
",1358.625000109896,NA,49,NA,NA,3000,1,NA,NA,images/redplanet1.jpg,images/alien2,images/alien1,images/rocket2,images/alien1,images/t.png,2,real,false,1,rare,1,2020-06-10T19:17:18Z,sub14
two-step-fixation,200,786381,0.0-76.0-2.21,FALSE,TRUE,FALSE,FALSE,"""event"",""trial"",""time""
""fullscreenenter"",""5"",""48737""
","
","
","""event"",""trial"",""time""
""fullscreenenter"",""5"",""48737""
","
",NA,images/earth.jpg,NA,NA,NA,NA,NA,NA,NA,NA,NA,NA,NA,NA,NA,fixation,NA,NA,NA,NA,NA,NA,sub14
d3-animate-choice,201,789059,0.0-76.0-0.22,FALSE,TRUE,FALSE,FALSE,"""event"",""trial"",""time""
""fullscreenenter"",""5"",""48737""
","
","
","""event"",""trial"",""time""
""fullscreenenter"",""5"",""48737""
","
",668.7999998684973,NA,49,NA,NA,3000,1,NA,NA,images/earth.jpg,images/rocket1,images/rocket2,null,images/rocket2,NA,1,real,null,1,NA,NA,NA,sub14
d3-animate-choice,202,791785,0.0-76.0-1.22,FALSE,TRUE,FALSE,FALSE,"""event"",""trial"",""time""
""fullscreenenter"",""5"",""48737""
","
","
","""event"",""trial"",""time""
""fullscreenenter"",""5"",""48737""
","
",719.3149998784065,NA,48,NA,NA,3000,1,NA,NA,images/purpleplanet.jpg,images/alien4,images/alien3,images/rocket2,images/alien4,images/t.png,2,real,true,2,common,1,2020-06-10T19:17:24Z,sub14
two-step-fixation,203,792789,0.0-76.0-2.22,FALSE,TRUE,FALSE,FALSE,"""event"",""trial"",""time""
""fullscreenenter"",""5"",""48737""
","
","
","""event"",""trial"",""time""
""fullscreenenter"",""5"",""48737""
","
",NA,images/earth.jpg,NA,NA,NA,NA,NA,NA,NA,NA,NA,NA,NA,NA,NA,fixation,NA,NA,NA,NA,NA,NA,sub14
d3-animate-choice,204,795528,0.0-76.0-0.23,FALSE,TRUE,FALSE,FALSE,"""event"",""trial"",""time""
""fullscreenenter"",""5"",""48737""
","
","
","""event"",""trial"",""time""
""fullscreenenter"",""5"",""48737""
","
",734.7850000951439,NA,49,NA,NA,3000,1,NA,NA,images/earth.jpg,images/rocket1,images/rocket2,null,images/rocket2,NA,1,real,null,1,NA,NA,NA,sub14
d3-animate-choice,205,798162,0.0-76.0-1.23,FALSE,TRUE,FALSE,FALSE,"""event"",""trial"",""time""
""fullscreenenter"",""5"",""48737""
","
","
","""event"",""trial"",""time""
""fullscreenenter"",""5"",""48737""
","
",629.3549998663366,NA,48,NA,NA,3000,1,881.1850000638515,48,images/purpleplanet.jpg,images/alien4,images/alien3,images/rocket2,images/alien4,images/nothing.png,2,real,true,2,common,0,2020-06-10T19:17:31Z,sub14
two-step-fixation,206,799166,0.0-76.0-2.23,FALSE,TRUE,FALSE,FALSE,"""event"",""trial"",""time""
""fullscreenenter"",""5"",""48737""
","
","
","""event"",""trial"",""time""
""fullscreenenter"",""5"",""48737""
","
",NA,images/earth.jpg,NA,NA,NA,NA,NA,NA,NA,NA,NA,NA,NA,NA,NA,fixation,NA,NA,NA,NA,NA,NA,sub14
d3-animate-choice,207,801666,0.0-76.0-0.24,FALSE,TRUE,FALSE,FALSE,"""event"",""trial"",""time""
""fullscreenenter"",""5"",""48737""
","
","
","""event"",""trial"",""time""
""fullscreenenter"",""5"",""48737""
","
",495.6350000575185,NA,49,NA,NA,3000,1,NA,NA,images/earth.jpg,images/rocket1,images/rocket2,null,images/rocket2,NA,1,real,null,1,NA,NA,NA,sub14
d3-animate-choice,208,804048,0.0-76.0-1.24,FALSE,TRUE,FALSE,FALSE,"""event"",""trial"",""time""
""fullscreenenter"",""5"",""48737""
","
","
","""event"",""trial"",""time""
""fullscreenenter"",""5"",""48737""
","
",377.89499992504716,NA,48,NA,NA,3000,1,NA,NA,images/redplanet1.jpg,images/alien2,images/alien1,images/rocket2,images/alien2,images/t.png,2,real,false,2,rare,1,2020-06-10T19:17:36Z,sub14
two-step-fixation,209,805052,0.0-76.0-2.24,FALSE,TRUE,FALSE,FALSE,"""event"",""trial"",""time""
""fullscreenenter"",""5"",""48737""
","
","
","""event"",""trial"",""time""
""fullscreenenter"",""5"",""48737""
","
",NA,images/earth.jpg,NA,NA,NA,NA,NA,NA,NA,NA,NA,NA,NA,NA,NA,fixation,NA,NA,NA,NA,NA,NA,sub14
d3-animate-choice,210,807613,0.0-76.0-0.25,FALSE,TRUE,FALSE,FALSE,"""event"",""trial"",""time""
""fullscreenenter"",""5"",""48737""
","
","
","""event"",""trial"",""time""
""fullscreenenter"",""5"",""48737""
","
",557.0600000210106,NA,49,NA,NA,3000,1,NA,NA,images/earth.jpg,images/rocket1,images/rocket2,null,images/rocket2,NA,1,real,null,1,NA,NA,NA,sub14
d3-animate-choice,211,810276,0.0-76.0-1.25,FALSE,TRUE,FALSE,FALSE,"""event"",""trial"",""time""
""fullscreenenter"",""5"",""48737""
","
","
","""event"",""trial"",""time""
""fullscreenenter"",""5"",""48737""
","
",657.5299999676645,NA,48,NA,NA,3000,1,NA,NA,images/purpleplanet.jpg,images/alien4,images/alien3,images/rocket2,images/alien4,images/t.png,2,real,true,2,common,1,2020-06-10T19:17:43Z,sub14
two-step-fixation,212,811280,0.0-76.0-2.25,FALSE,TRUE,FALSE,FALSE,"""event"",""trial"",""time""
""fullscreenenter"",""5"",""48737""
","
","
","""event"",""trial"",""time""
""fullscreenenter"",""5"",""48737""
","
",NA,images/earth.jpg,NA,NA,NA,NA,NA,NA,NA,NA,NA,NA,NA,NA,NA,fixation,NA,NA,NA,NA,NA,NA,sub14
d3-animate-choice,213,813605,0.0-76.0-0.26,FALSE,TRUE,FALSE,FALSE,"""event"",""trial"",""time""
""fullscreenenter"",""5"",""48737""
","
","
","""event"",""trial"",""time""
""fullscreenenter"",""5"",""48737""
","
",321.20499992743134,NA,49,NA,NA,3000,1,NA,NA,images/earth.jpg,images/rocket1,images/rocket2,null,images/rocket2,NA,1,real,null,1,NA,NA,NA,sub14
d3-animate-choice,214,816567,0.0-76.0-1.26,FALSE,TRUE,FALSE,FALSE,"""event"",""trial"",""time""
""fullscreenenter"",""5"",""48737""
","
","
","""event"",""trial"",""time""
""fullscreenenter"",""5"",""48737""
","
",956.9849998224527,NA,49,NA,NA,3000,1,NA,NA,images/redplanet1.jpg,images/alien2,images/alien1,images/rocket2,images/alien1,images/t.png,2,real,false,1,rare,1,2020-06-10T19:17:49Z,sub14
two-step-fixation,215,817572,0.0-76.0-2.26,FALSE,TRUE,FALSE,FALSE,"""event"",""trial"",""time""
""fullscreenenter"",""5"",""48737""
","
","
","""event"",""trial"",""time""
""fullscreenenter"",""5"",""48737""
","
",NA,images/earth.jpg,NA,NA,NA,NA,NA,NA,NA,NA,NA,NA,NA,NA,NA,fixation,NA,NA,NA,NA,NA,NA,sub14
d3-animate-choice,216,820845,0.0-76.0-0.27,FALSE,TRUE,FALSE,FALSE,"""event"",""trial"",""time""
""fullscreenenter"",""5"",""48737""
","
","
","""event"",""trial"",""time""
""fullscreenenter"",""5"",""48737""
","
",1268.7450000084937,NA,49,NA,NA,3000,1,NA,NA,images/earth.jpg,images/rocket1,images/rocket2,null,images/rocket2,NA,1,real,null,1,NA,NA,NA,sub14
d3-animate-choice,217,823288,0.0-76.0-1.27,FALSE,TRUE,FALSE,FALSE,"""event"",""trial"",""time""
""fullscreenenter"",""5"",""48737""
","
","
","""event"",""trial"",""time""
""fullscreenenter"",""5"",""48737""
","
",436.79000018164515,NA,48,NA,NA,3000,1,NA,NA,images/redplanet1.jpg,images/alien2,images/alien1,images/rocket2,images/alien2,images/nothing.png,2,real,false,2,rare,0,2020-06-10T19:17:56Z,sub14
two-step-fixation,218,824292,0.0-76.0-2.27,FALSE,TRUE,FALSE,FALSE,"""event"",""trial"",""time""
""fullscreenenter"",""5"",""48737""
","
","
","""event"",""trial"",""time""
""fullscreenenter"",""5"",""48737""
","
",NA,images/earth.jpg,NA,NA,NA,NA,NA,NA,NA,NA,NA,NA,NA,NA,NA,fixation,NA,NA,NA,NA,NA,NA,sub14
d3-animate-choice,219,826963,0.0-76.0-0.28,FALSE,TRUE,FALSE,FALSE,"""event"",""trial"",""time""
""fullscreenenter"",""5"",""48737""
","
","
","""event"",""trial"",""time""
""fullscreenenter"",""5"",""48737""
","
",664.7149999625981,NA,49,NA,NA,3000,1,NA,NA,images/earth.jpg,images/rocket1,images/rocket2,null,images/rocket2,NA,1,real,null,1,NA,NA,NA,sub14
d3-animate-choice,220,829487,0.0-76.0-1.28,FALSE,TRUE,FALSE,FALSE,"""event"",""trial"",""time""
""fullscreenenter"",""5"",""48737""
","
","
","""event"",""trial"",""time""
""fullscreenenter"",""5"",""48737""
","
",520.6049999687821,NA,48,NA,NA,3000,1,NA,NA,images/purpleplanet.jpg,images/alien4,images/alien3,images/rocket2,images/alien4,images/nothing.png,2,real,true,2,common,0,2020-06-10T19:18:02Z,sub14
two-step-fixation,221,830493,0.0-76.0-2.28,FALSE,TRUE,FALSE,FALSE,"""event"",""trial"",""time""
""fullscreenenter"",""5"",""48737""
","
","
","""event"",""trial"",""time""
""fullscreenenter"",""5"",""48737""
","
",NA,images/earth.jpg,NA,NA,NA,NA,NA,NA,NA,NA,NA,NA,NA,NA,NA,fixation,NA,NA,NA,NA,NA,NA,sub14
d3-animate-choice,222,832783,0.0-76.0-0.29,FALSE,TRUE,FALSE,FALSE,"""event"",""trial"",""time""
""fullscreenenter"",""5"",""48737""
","
","
","""event"",""trial"",""time""
""fullscreenenter"",""5"",""48737""
","
",281.1600000131875,NA,49,NA,NA,3000,1,NA,NA,images/earth.jpg,images/rocket1,images/rocket2,null,images/rocket2,NA,1,real,null,1,NA,NA,NA,sub14
d3-animate-choice,223,835751,0.0-76.0-1.29,FALSE,TRUE,FALSE,FALSE,"""event"",""trial"",""time""
""fullscreenenter"",""5"",""48737""
","
","
","""event"",""trial"",""time""
""fullscreenenter"",""5"",""48737""
","
",960.4650000110269,NA,49,NA,NA,3000,1,NA,NA,images/redplanet1.jpg,images/alien2,images/alien1,images/rocket2,images/alien1,images/t.png,2,real,false,1,rare,1,2020-06-10T19:18:08Z,sub14
two-step-fixation,224,836754,0.0-76.0-2.29,FALSE,TRUE,FALSE,FALSE,"""event"",""trial"",""time""
""fullscreenenter"",""5"",""48737""
","
","
","""event"",""trial"",""time""
""fullscreenenter"",""5"",""48737""
","
",NA,images/earth.jpg,NA,NA,NA,NA,NA,NA,NA,NA,NA,NA,NA,NA,NA,fixation,NA,NA,NA,NA,NA,NA,sub14
d3-animate-choice,225,839353,0.0-76.0-0.30,FALSE,TRUE,FALSE,FALSE,"""event"",""trial"",""time""
""fullscreenenter"",""5"",""48737""
","
","
","""event"",""trial"",""time""
""fullscreenenter"",""5"",""48737""
","
",592.7300001494586,NA,49,NA,NA,3000,1,NA,NA,images/earth.jpg,images/rocket1,images/rocket2,null,images/rocket2,NA,1,real,null,1,NA,NA,NA,sub14
d3-animate-choice,226,842564,0.0-76.0-1.30,FALSE,TRUE,FALSE,FALSE,"""event"",""trial"",""time""
""fullscreenenter"",""5"",""48737""
","
","
","""event"",""trial"",""time""
""fullscreenenter"",""5"",""48737""
","
",1204.725000075996,NA,48,NA,NA,3000,1,NA,NA,images/purpleplanet.jpg,images/alien4,images/alien3,images/rocket2,images/alien4,images/t.png,2,real,true,2,common,1,2020-06-10T19:18:15Z,sub14
two-step-fixation,227,843568,0.0-76.0-2.30,FALSE,TRUE,FALSE,FALSE,"""event"",""trial"",""time""
""fullscreenenter"",""5"",""48737""
","
","
","""event"",""trial"",""time""
""fullscreenenter"",""5"",""48737""
","
",NA,images/earth.jpg,NA,NA,NA,NA,NA,NA,NA,NA,NA,NA,NA,NA,NA,fixation,NA,NA,NA,NA,NA,NA,sub14
d3-animate-choice,228,845931,0.0-76.0-0.31,FALSE,TRUE,FALSE,FALSE,"""event"",""trial"",""time""
""fullscreenenter"",""5"",""48737""
","
","
","""event"",""trial"",""time""
""fullscreenenter"",""5"",""48737""
","
",358.50000008940697,NA,49,NA,NA,3000,1,NA,NA,images/earth.jpg,images/rocket1,images/rocket2,null,images/rocket2,NA,1,real,null,1,NA,NA,NA,sub14
d3-animate-choice,229,848830,0.0-76.0-1.31,FALSE,TRUE,FALSE,FALSE,"""event"",""trial"",""time""
""fullscreenenter"",""5"",""48737""
","
","
","""event"",""trial"",""time""
""fullscreenenter"",""5"",""48737""
","
",895.5999999307096,NA,49,NA,NA,3000,1,NA,NA,images/redplanet1.jpg,images/alien2,images/alien1,images/rocket2,images/alien1,images/t.png,2,real,false,1,rare,1,2020-06-10T19:18:21Z,sub14
two-step-fixation,230,849835,0.0-76.0-2.31,FALSE,TRUE,FALSE,FALSE,"""event"",""trial"",""time""
""fullscreenenter"",""5"",""48737""
","
","
","""event"",""trial"",""time""
""fullscreenenter"",""5"",""48737""
","
",NA,images/earth.jpg,NA,NA,NA,NA,NA,NA,NA,NA,NA,NA,NA,NA,NA,fixation,NA,NA,NA,NA,NA,NA,sub14
d3-animate-choice,231,852056,0.0-76.0-0.32,FALSE,TRUE,FALSE,FALSE,"""event"",""trial"",""time""
""fullscreenenter"",""5"",""48737""
","
","
","""event"",""trial"",""time""
""fullscreenenter"",""5"",""48737""
","
",216.72000014223158,NA,49,NA,NA,3000,1,NA,NA,images/earth.jpg,images/rocket1,images/rocket2,null,images/rocket2,NA,1,real,null,1,NA,NA,NA,sub14
d3-animate-choice,232,854573,0.0-76.0-1.32,FALSE,TRUE,FALSE,FALSE,"""event"",""trial"",""time""
""fullscreenenter"",""5"",""48737""
","
","
","""event"",""trial"",""time""
""fullscreenenter"",""5"",""48737""
","
",512.580000096932,NA,48,NA,NA,3000,1,NA,NA,images/purpleplanet.jpg,images/alien4,images/alien3,images/rocket2,images/alien4,images/t.png,2,real,true,2,common,1,2020-06-10T19:18:27Z,sub14
two-step-fixation,233,855579,0.0-76.0-2.32,FALSE,TRUE,FALSE,FALSE,"""event"",""trial"",""time""
""fullscreenenter"",""5"",""48737""
","
","
","""event"",""trial"",""time""
""fullscreenenter"",""5"",""48737""
","
",NA,images/earth.jpg,NA,NA,NA,NA,NA,NA,NA,NA,NA,NA,NA,NA,NA,fixation,NA,NA,NA,NA,NA,NA,sub14
d3-animate-choice,234,857862,0.0-76.0-0.33,FALSE,TRUE,FALSE,FALSE,"""event"",""trial"",""time""
""fullscreenenter"",""5"",""48737""
","
","
","""event"",""trial"",""time""
""fullscreenenter"",""5"",""48737""
","
",278.954999987036,NA,49,NA,NA,3000,1,NA,NA,images/earth.jpg,images/rocket1,images/rocket2,null,images/rocket2,NA,1,real,null,1,NA,NA,NA,sub14
d3-animate-choice,235,860211,0.0-76.0-1.33,FALSE,TRUE,FALSE,FALSE,"""event"",""trial"",""time""
""fullscreenenter"",""5"",""48737""
","
","
","""event"",""trial"",""time""
""fullscreenenter"",""5"",""48737""
","
",344.86500010825694,NA,48,NA,NA,3000,1,NA,NA,images/purpleplanet.jpg,images/alien4,images/alien3,images/rocket2,images/alien4,images/nothing.png,2,real,true,2,common,0,2020-06-10T19:18:33Z,sub14
two-step-fixation,236,861216,0.0-76.0-2.33,FALSE,TRUE,FALSE,FALSE,"""event"",""trial"",""time""
""fullscreenenter"",""5"",""48737""
","
","
","""event"",""trial"",""time""
""fullscreenenter"",""5"",""48737""
","
",NA,images/earth.jpg,NA,NA,NA,NA,NA,NA,NA,NA,NA,NA,NA,NA,NA,fixation,NA,NA,NA,NA,NA,NA,sub14
d3-animate-choice,237,863514,0.0-76.0-0.34,FALSE,TRUE,FALSE,FALSE,"""event"",""trial"",""time""
""fullscreenenter"",""5"",""48737""
","
","
","""event"",""trial"",""time""
""fullscreenenter"",""5"",""48737""
","
",294.1950000822544,NA,48,NA,NA,3000,1,NA,NA,images/earth.jpg,images/rocket1,images/rocket2,null,images/rocket1,NA,1,real,null,2,NA,NA,NA,sub14
d3-animate-choice,238,866003,0.0-76.0-1.34,FALSE,TRUE,FALSE,FALSE,"""event"",""trial"",""time""
""fullscreenenter"",""5"",""48737""
","
","
","""event"",""trial"",""time""
""fullscreenenter"",""5"",""48737""
","
",485.2899999823421,NA,49,NA,NA,3000,1,NA,NA,images/redplanet1.jpg,images/alien2,images/alien1,images/rocket1,images/alien1,images/nothing.png,2,real,true,1,common,0,2020-06-10T19:18:38Z,sub14
two-step-fixation,239,867007,0.0-76.0-2.34,FALSE,TRUE,FALSE,FALSE,"""event"",""trial"",""time""
""fullscreenenter"",""5"",""48737""
","
","
","""event"",""trial"",""time""
""fullscreenenter"",""5"",""48737""
","
",NA,images/earth.jpg,NA,NA,NA,NA,NA,NA,NA,NA,NA,NA,NA,NA,NA,fixation,NA,NA,NA,NA,NA,NA,sub14
d3-animate-choice,240,869363,0.0-76.0-0.35,FALSE,TRUE,FALSE,FALSE,"""event"",""trial"",""time""
""fullscreenenter"",""5"",""48737""
","
","
","""event"",""trial"",""time""
""fullscreenenter"",""5"",""48737""
","
",350.7499999832362,NA,48,NA,NA,3000,1,NA,NA,images/earth.jpg,images/rocket1,images/rocket2,null,images/rocket1,NA,1,real,null,2,NA,NA,NA,sub14
d3-animate-choice,241,871821,0.0-76.0-1.35,FALSE,TRUE,FALSE,FALSE,"""event"",""trial"",""time""
""fullscreenenter"",""5"",""48737""
","
","
","""event"",""trial"",""time""
""fullscreenenter"",""5"",""48737""
","
",454.1949999984354,NA,49,NA,NA,3000,1,NA,NA,images/redplanet1.jpg,images/alien2,images/alien1,images/rocket1,images/alien1,images/t.png,2,real,true,1,common,1,2020-06-10T19:18:44Z,sub14
two-step-fixation,242,872824,0.0-76.0-2.35,FALSE,TRUE,FALSE,FALSE,"""event"",""trial"",""time""
""fullscreenenter"",""5"",""48737""
","
","
","""event"",""trial"",""time""
""fullscreenenter"",""5"",""48737""
","
",NA,images/earth.jpg,NA,NA,NA,NA,NA,NA,NA,NA,NA,NA,NA,NA,NA,fixation,NA,NA,NA,NA,NA,NA,sub14
d3-animate-choice,243,875263,0.0-76.0-0.36,FALSE,TRUE,FALSE,FALSE,"""event"",""trial"",""time""
""fullscreenenter"",""5"",""48737""
","
","
","""event"",""trial"",""time""
""fullscreenenter"",""5"",""48737""
","
",435.18500006757677,NA,48,NA,NA,3000,1,NA,NA,images/earth.jpg,images/rocket1,images/rocket2,null,images/rocket1,NA,1,real,null,2,NA,NA,NA,sub14
d3-animate-choice,244,877663,0.0-76.0-1.36,FALSE,TRUE,FALSE,FALSE,"""event"",""trial"",""time""
""fullscreenenter"",""5"",""48737""
","
","
","""event"",""trial"",""time""
""fullscreenenter"",""5"",""48737""
","
",395.60499996878207,NA,49,NA,NA,3000,1,NA,NA,images/redplanet1.jpg,images/alien2,images/alien1,images/rocket1,images/alien1,images/t.png,2,real,true,1,common,1,2020-06-10T19:18:50Z,sub14
two-step-fixation,245,878668,0.0-76.0-2.36,FALSE,TRUE,FALSE,FALSE,"""event"",""trial"",""time""
""fullscreenenter"",""5"",""48737""
","
","
","""event"",""trial"",""time""
""fullscreenenter"",""5"",""48737""
","
",NA,images/earth.jpg,NA,NA,NA,NA,NA,NA,NA,NA,NA,NA,NA,NA,NA,fixation,NA,NA,NA,NA,NA,NA,sub14
d3-animate-choice,246,881231,0.0-76.0-0.37,FALSE,TRUE,FALSE,FALSE,"""event"",""trial"",""time""
""fullscreenenter"",""5"",""48737""
","
","
","""event"",""trial"",""time""
""fullscreenenter"",""5"",""48737""
","
",557.4050000868738,NA,48,NA,NA,3000,1,NA,NA,images/earth.jpg,images/rocket1,images/rocket2,null,images/rocket1,NA,1,real,null,2,NA,NA,NA,sub14
d3-animate-choice,247,883828,0.0-76.0-1.37,FALSE,TRUE,FALSE,FALSE,"""event"",""trial"",""time""
""fullscreenenter"",""5"",""48737""
","
","
","""event"",""trial"",""time""
""fullscreenenter"",""5"",""48737""
","
",593.0600001011044,NA,49,NA,NA,3000,1,NA,NA,images/redplanet1.jpg,images/alien2,images/alien1,images/rocket1,images/alien1,images/nothing.png,2,real,true,1,common,0,2020-06-10T19:18:56Z,sub14
two-step-fixation,248,884831,0.0-76.0-2.37,FALSE,TRUE,FALSE,FALSE,"""event"",""trial"",""time""
""fullscreenenter"",""5"",""48737""
","
","
","""event"",""trial"",""time""
""fullscreenenter"",""5"",""48737""
","
",NA,images/earth.jpg,NA,NA,NA,NA,NA,NA,NA,NA,NA,NA,NA,NA,NA,fixation,NA,NA,NA,NA,NA,NA,sub14
d3-animate-choice,249,887049,0.0-76.0-0.38,FALSE,TRUE,FALSE,FALSE,"""event"",""trial"",""time""
""fullscreenenter"",""5"",""48737""
","
","
","""event"",""trial"",""time""
""fullscreenenter"",""5"",""48737""
","
",215.4500000178814,NA,48,NA,NA,3000,1,NA,NA,images/earth.jpg,images/rocket1,images/rocket2,null,images/rocket1,NA,1,real,null,2,NA,NA,NA,sub14
d3-animate-choice,250,889532,0.0-76.0-1.38,FALSE,TRUE,FALSE,FALSE,"""event"",""trial"",""time""
""fullscreenenter"",""5"",""48737""
","
","
","""event"",""trial"",""time""
""fullscreenenter"",""5"",""48737""
","
",479.16000010445714,NA,48,NA,NA,3000,1,NA,NA,images/redplanet1.jpg,images/alien2,images/alien1,images/rocket1,images/alien2,images/nothing.png,2,real,true,2,common,0,2020-06-10T19:19:02Z,sub14
two-step-fixation,251,890536,0.0-76.0-2.38,FALSE,TRUE,FALSE,FALSE,"""event"",""trial"",""time""
""fullscreenenter"",""5"",""48737""
","
","
","""event"",""trial"",""time""
""fullscreenenter"",""5"",""48737""
","
",NA,images/earth.jpg,NA,NA,NA,NA,NA,NA,NA,NA,NA,NA,NA,NA,NA,fixation,NA,NA,NA,NA,NA,NA,sub14
d3-animate-choice,252,892720,0.0-76.0-0.39,FALSE,TRUE,FALSE,FALSE,"""event"",""trial"",""time""
""fullscreenenter"",""5"",""48737""
","
","
","""event"",""trial"",""time""
""fullscreenenter"",""5"",""48737""
","
",180.94000010751188,NA,48,NA,NA,3000,1,NA,NA,images/earth.jpg,images/rocket1,images/rocket2,null,images/rocket1,NA,1,real,null,2,NA,NA,NA,sub14
d3-animate-choice,253,895007,0.0-76.0-1.39,FALSE,TRUE,FALSE,FALSE,"""event"",""trial"",""time""
""fullscreenenter"",""5"",""48737""
","
","
","""event"",""trial"",""time""
""fullscreenenter"",""5"",""48737""
","
",283.85000000707805,NA,49,NA,NA,3000,1,NA,NA,images/redplanet1.jpg,images/alien2,images/alien1,images/rocket1,images/alien1,images/nothing.png,2,real,true,1,common,0,2020-06-10T19:19:07Z,sub14
two-step-fixation,254,896011,0.0-76.0-2.39,FALSE,TRUE,FALSE,FALSE,"""event"",""trial"",""time""
""fullscreenenter"",""5"",""48737""
","
","
","""event"",""trial"",""time""
""fullscreenenter"",""5"",""48737""
","
",NA,images/earth.jpg,NA,NA,NA,NA,NA,NA,NA,NA,NA,NA,NA,NA,NA,fixation,NA,NA,NA,NA,NA,NA,sub14
d3-animate-choice,255,898247,0.0-76.0-0.40,FALSE,TRUE,FALSE,FALSE,"""event"",""trial"",""time""
""fullscreenenter"",""5"",""48737""
","
","
","""event"",""trial"",""time""
""fullscreenenter"",""5"",""48737""
","
",232.33500006608665,NA,49,NA,NA,3000,1,NA,NA,images/earth.jpg,images/rocket1,images/rocket2,null,images/rocket2,NA,1,real,null,1,NA,NA,NA,sub14
d3-animate-choice,256,900613,0.0-76.0-1.40,FALSE,TRUE,FALSE,FALSE,"""event"",""trial"",""time""
""fullscreenenter"",""5"",""48737""
","
","
","""event"",""trial"",""time""
""fullscreenenter"",""5"",""48737""
","
",361.64999986067414,NA,48,NA,NA,3000,1,NA,NA,images/purpleplanet.jpg,images/alien4,images/alien3,images/rocket2,images/alien4,images/nothing.png,2,real,true,2,common,0,2020-06-10T19:19:13Z,sub14
two-step-fixation,257,901616,0.0-76.0-2.40,FALSE,TRUE,FALSE,FALSE,"""event"",""trial"",""time""
""fullscreenenter"",""5"",""48737""
","
","
","""event"",""trial"",""time""
""fullscreenenter"",""5"",""48737""
","
",NA,images/earth.jpg,NA,NA,NA,NA,NA,NA,NA,NA,NA,NA,NA,NA,NA,fixation,NA,NA,NA,NA,NA,NA,sub14
d3-animate-choice,258,903897,0.0-76.0-0.41,FALSE,TRUE,FALSE,FALSE,"""event"",""trial"",""time""
""fullscreenenter"",""5"",""48737""
","
","
","""event"",""trial"",""time""
""fullscreenenter"",""5"",""48737""
","
",276.28500014543533,NA,49,NA,NA,3000,1,NA,NA,images/earth.jpg,images/rocket1,images/rocket2,null,images/rocket2,NA,1,real,null,1,NA,NA,NA,sub14
d3-animate-choice,259,906259,0.0-76.0-1.41,FALSE,TRUE,FALSE,FALSE,"""event"",""trial"",""time""
""fullscreenenter"",""5"",""48737""
","
","
","""event"",""trial"",""time""
""fullscreenenter"",""5"",""48737""
","
",358.7799998931587,NA,49,NA,NA,3000,1,NA,NA,images/purpleplanet.jpg,images/alien4,images/alien3,images/rocket2,images/alien3,images/nothing.png,2,real,true,1,common,0,2020-06-10T19:19:19Z,sub14
two-step-fixation,260,907262,0.0-76.0-2.41,FALSE,TRUE,FALSE,FALSE,"""event"",""trial"",""time""
""fullscreenenter"",""5"",""48737""
","
","
","""event"",""trial"",""time""
""fullscreenenter"",""5"",""48737""
","
",NA,images/earth.jpg,NA,NA,NA,NA,NA,NA,NA,NA,NA,NA,NA,NA,NA,fixation,NA,NA,NA,NA,NA,NA,sub14
d3-animate-choice,261,910504,0.0-76.0-0.42,FALSE,TRUE,FALSE,FALSE,"""event"",""trial"",""time""
""fullscreenenter"",""5"",""48737""
","
","
","""event"",""trial"",""time""
""fullscreenenter"",""5"",""48737""
","
",1237.4650000128895,NA,48,NA,NA,3000,1,NA,NA,images/earth.jpg,images/rocket1,images/rocket2,null,images/rocket1,NA,1,real,null,2,NA,NA,NA,sub14
d3-animate-choice,262,912806,0.0-76.0-1.42,FALSE,TRUE,FALSE,FALSE,"""event"",""trial"",""time""
""fullscreenenter"",""5"",""48737""
","
","
","""event"",""trial"",""time""
""fullscreenenter"",""5"",""48737""
","
",297.84999997355044,NA,49,NA,NA,3000,1,NA,NA,images/purpleplanet.jpg,images/alien4,images/alien3,images/rocket1,images/alien3,images/nothing.png,2,real,false,1,rare,0,2020-06-10T19:19:25Z,sub14
two-step-fixation,263,913809,0.0-76.0-2.42,FALSE,TRUE,FALSE,FALSE,"""event"",""trial"",""time""
""fullscreenenter"",""5"",""48737""
","
","
","""event"",""trial"",""time""
""fullscreenenter"",""5"",""48737""
","
",NA,images/earth.jpg,NA,NA,NA,NA,NA,NA,NA,NA,NA,NA,NA,NA,NA,fixation,NA,NA,NA,NA,NA,NA,sub14
d3-animate-choice,264,916203,0.0-76.0-0.43,FALSE,TRUE,FALSE,FALSE,"""event"",""trial"",""time""
""fullscreenenter"",""5"",""48737""
","
","
","""event"",""trial"",""time""
""fullscreenenter"",""5"",""48737""
","
",388.69499997235835,NA,48,NA,NA,3000,1,NA,NA,images/earth.jpg,images/rocket1,images/rocket2,null,images/rocket1,NA,1,real,null,2,NA,NA,NA,sub14
d3-animate-choice,265,918710,0.0-76.0-1.43,FALSE,TRUE,FALSE,FALSE,"""event"",""trial"",""time""
""fullscreenenter"",""5"",""48737""
","
","
","""event"",""trial"",""time""
""fullscreenenter"",""5"",""48737""
","
",503.10499989427626,NA,49,NA,NA,3000,1,NA,NA,images/purpleplanet.jpg,images/alien4,images/alien3,images/rocket1,images/alien3,images/nothing.png,2,real,false,1,rare,0,2020-06-10T19:19:31Z,sub14
two-step-fixation,266,919714,0.0-76.0-2.43,FALSE,TRUE,FALSE,FALSE,"""event"",""trial"",""time""
""fullscreenenter"",""5"",""48737""
","
","
","""event"",""trial"",""time""
""fullscreenenter"",""5"",""48737""
","
",NA,images/earth.jpg,NA,NA,NA,NA,NA,NA,NA,NA,NA,NA,NA,NA,NA,fixation,NA,NA,NA,NA,NA,NA,sub14
d3-animate-choice,267,923313,0.0-76.0-0.44,FALSE,TRUE,FALSE,FALSE,"""event"",""trial"",""time""
""fullscreenenter"",""5"",""48737""
","
","
","""event"",""trial"",""time""
""fullscreenenter"",""5"",""48737""
","
",1594.4050000980496,NA,48,NA,NA,3000,1,NA,NA,images/earth.jpg,images/rocket1,images/rocket2,null,images/rocket1,NA,1,real,null,2,NA,NA,NA,sub14
d3-animate-choice,268,926848,0.0-76.0-1.44,FALSE,TRUE,FALSE,FALSE,"""event"",""trial"",""time""
""fullscreenenter"",""5"",""48737""
","
","
","""event"",""trial"",""time""
""fullscreenenter"",""5"",""48737""
","
",1532.4250000994653,NA,48,NA,NA,3000,1,NA,NA,images/purpleplanet.jpg,images/alien4,images/alien3,images/rocket1,images/alien4,images/nothing.png,2,real,false,2,rare,0,2020-06-10T19:19:39Z,sub14
two-step-fixation,269,927851,0.0-76.0-2.44,FALSE,TRUE,FALSE,FALSE,"""event"",""trial"",""time""
""fullscreenenter"",""5"",""48737""
","
","
","""event"",""trial"",""time""
""fullscreenenter"",""5"",""48737""
","
",NA,images/earth.jpg,NA,NA,NA,NA,NA,NA,NA,NA,NA,NA,NA,NA,NA,fixation,NA,NA,NA,NA,NA,NA,sub14
d3-animate-choice,270,930252,0.0-76.0-0.45,FALSE,TRUE,FALSE,FALSE,"""event"",""trial"",""time""
""fullscreenenter"",""5"",""48737""
","
","
","""event"",""trial"",""time""
""fullscreenenter"",""5"",""48737""
","
",396.1950000375509,NA,48,NA,NA,3000,1,NA,NA,images/earth.jpg,images/rocket1,images/rocket2,null,images/rocket1,NA,1,real,null,2,NA,NA,NA,sub14
d3-animate-choice,271,933259,0.0-76.0-1.45,FALSE,TRUE,FALSE,FALSE,"""event"",""trial"",""time""
""fullscreenenter"",""5"",""48737""
","
","
","""event"",""trial"",""time""
""fullscreenenter"",""5"",""48737""
","
",998.4049999620765,NA,49,NA,NA,3000,1,NA,NA,images/redplanet1.jpg,images/alien2,images/alien1,images/rocket1,images/alien1,images/t.png,2,real,true,1,common,1,2020-06-10T19:19:46Z,sub14
two-step-fixation,272,934263,0.0-76.0-2.45,FALSE,TRUE,FALSE,FALSE,"""event"",""trial"",""time""
""fullscreenenter"",""5"",""48737""
","
","
","""event"",""trial"",""time""
""fullscreenenter"",""5"",""48737""
","
",NA,images/earth.jpg,NA,NA,NA,NA,NA,NA,NA,NA,NA,NA,NA,NA,NA,fixation,NA,NA,NA,NA,NA,NA,sub14
d3-animate-choice,273,936924,0.0-76.0-0.46,FALSE,TRUE,FALSE,FALSE,"""event"",""trial"",""time""
""fullscreenenter"",""5"",""48737""
","
","
","""event"",""trial"",""time""
""fullscreenenter"",""5"",""48737""
","
",656.5100001171231,NA,48,NA,NA,3000,1,NA,NA,images/earth.jpg,images/rocket1,images/rocket2,null,images/rocket1,NA,1,real,null,2,NA,NA,NA,sub14
d3-animate-choice,274,939611,0.0-76.0-1.46,FALSE,TRUE,FALSE,FALSE,"""event"",""trial"",""time""
""fullscreenenter"",""5"",""48737""
","
","
","""event"",""trial"",""time""
""fullscreenenter"",""5"",""48737""
","
",683.9400001335889,NA,49,NA,NA,3000,1,NA,NA,images/redplanet1.jpg,images/alien2,images/alien1,images/rocket1,images/alien1,images/t.png,2,real,true,1,common,1,2020-06-10T19:19:52Z,sub14
two-step-fixation,275,940617,0.0-76.0-2.46,FALSE,TRUE,FALSE,FALSE,"""event"",""trial"",""time""
""fullscreenenter"",""5"",""48737""
","
","
","""event"",""trial"",""time""
""fullscreenenter"",""5"",""48737""
","
",NA,images/earth.jpg,NA,NA,NA,NA,NA,NA,NA,NA,NA,NA,NA,NA,NA,fixation,NA,NA,NA,NA,NA,NA,sub14
d3-animate-choice,276,943184,0.0-76.0-0.47,FALSE,TRUE,FALSE,FALSE,"""event"",""trial"",""time""
""fullscreenenter"",""5"",""48737""
","
","
","""event"",""trial"",""time""
""fullscreenenter"",""5"",""48737""
","
",562.5150001142174,NA,48,NA,NA,3000,1,NA,NA,images/earth.jpg,images/rocket1,images/rocket2,null,images/rocket1,NA,1,real,null,2,NA,NA,NA,sub14
d3-animate-choice,277,945730,0.0-76.0-1.47,FALSE,TRUE,FALSE,FALSE,"""event"",""trial"",""time""
""fullscreenenter"",""5"",""48737""
","
","
","""event"",""trial"",""time""
""fullscreenenter"",""5"",""48737""
","
",540.0299998000264,NA,49,NA,NA,3000,1,NA,NA,images/redplanet1.jpg,images/alien2,images/alien1,images/rocket1,images/alien1,images/t.png,2,real,true,1,common,1,2020-06-10T19:19:58Z,sub14
two-step-fixation,278,946734,0.0-76.0-2.47,FALSE,TRUE,FALSE,FALSE,"""event"",""trial"",""time""
""fullscreenenter"",""5"",""48737""
","
","
","""event"",""trial"",""time""
""fullscreenenter"",""5"",""48737""
","
",NA,images/earth.jpg,NA,NA,NA,NA,NA,NA,NA,NA,NA,NA,NA,NA,NA,fixation,NA,NA,NA,NA,NA,NA,sub14
d3-animate-choice,279,949133,0.0-76.0-0.48,FALSE,TRUE,FALSE,FALSE,"""event"",""trial"",""time""
""fullscreenenter"",""5"",""48737""
","
","
","""event"",""trial"",""time""
""fullscreenenter"",""5"",""48737""
","
",392.1400001272559,NA,48,NA,NA,3000,1,NA,NA,images/earth.jpg,images/rocket1,images/rocket2,null,images/rocket1,NA,1,real,null,2,NA,NA,NA,sub14
d3-animate-choice,280,951475,0.0-76.0-1.48,FALSE,TRUE,FALSE,FALSE,"""event"",""trial"",""time""
""fullscreenenter"",""5"",""48737""
","
","
","""event"",""trial"",""time""
""fullscreenenter"",""5"",""48737""
","
",338.45499996095896,NA,49,NA,NA,3000,1,NA,NA,images/redplanet1.jpg,images/alien2,images/alien1,images/rocket1,images/alien1,images/t.png,2,real,true,1,common,1,2020-06-10T19:20:04Z,sub14
two-step-fixation,281,952480,0.0-76.0-2.48,FALSE,TRUE,FALSE,FALSE,"""event"",""trial"",""time""
""fullscreenenter"",""5"",""48737""
","
","
","""event"",""trial"",""time""
""fullscreenenter"",""5"",""48737""
","
",NA,images/earth.jpg,NA,NA,NA,NA,NA,NA,NA,NA,NA,NA,NA,NA,NA,fixation,NA,NA,NA,NA,NA,NA,sub14
d3-animate-choice,282,954835,0.0-76.0-0.49,FALSE,TRUE,FALSE,FALSE,"""event"",""trial"",""time""
""fullscreenenter"",""5"",""48737""
","
","
","""event"",""trial"",""time""
""fullscreenenter"",""5"",""48737""
","
",349.54000008292496,NA,48,NA,NA,3000,1,NA,NA,images/earth.jpg,images/rocket1,images/rocket2,null,images/rocket1,NA,1,real,null,2,NA,NA,NA,sub14
d3-animate-choice,283,958250,0.0-76.0-1.49,FALSE,TRUE,FALSE,FALSE,"""event"",""trial"",""time""
