trial_type,trial_index,time_elapsed,internal_node_id,rocket_sides,red_planet_first_rocket,red_display_order,purple_display_order,interactions,blur_events,focus_events,fullscreenenter_events,fullscreenexit_events,rt,stimulus,key_press,button_pressed,success,duration,valid_pressed,rts,keys,planet_text,right_text,left_text,center_text,chosen_text,reward_text,trial_stage,practice_trial,transition_type,choice,transition,reward,timestamp,subject_id
pavlovia,0,23,0.0-0.0,TRUE,FALSE,TRUE,TRUE,"
","
","
","
","
",NA,NA,NA,NA,NA,NA,NA,NA,NA,NA,NA,NA,NA,NA,NA,NA,NA,NA,NA,NA,NA,NA,sub112
html-keyboard-response,1,2305,0.0-1.0,TRUE,FALSE,TRUE,TRUE,"
","
","
","
","
",2279.8549998551607,Welcome! Press the space bar to begin.,32,NA,NA,NA,NA,NA,NA,NA,NA,NA,NA,NA,NA,NA,NA,NA,NA,NA,NA,NA,sub112
audio-keyboard-response,2,6636,0.0-2.0,TRUE,FALSE,TRUE,TRUE,"
","
","
","
","
",3451,audio/beep_loop.wav,32,NA,NA,NA,NA,NA,NA,NA,NA,NA,NA,NA,NA,NA,NA,NA,NA,NA,NA,NA,sub112
audio-button-response,3,9273,0.0-3.0,TRUE,FALSE,TRUE,TRUE,"
","
","
","
","
",NaN,audio/fish.mp3,NA,1,NA,NA,NA,NA,NA,NA,NA,NA,NA,NA,NA,NA,NA,NA,NA,NA,NA,NA,sub112
audio-button-response,4,12804,0.0-4.0,TRUE,FALSE,TRUE,TRUE,"""event"",""trial"",""time""
""fullscreenenter"",""5"",""20487""
","
","
","""event"",""trial"",""time""
""fullscreenenter"",""5"",""20487""
","
",NaN,audio/tiger.mp3,NA,4,NA,NA,NA,NA,NA,NA,NA,NA,NA,NA,NA,NA,NA,NA,NA,NA,NA,NA,sub112
fullscreen,5,21415,0.0-5.0,TRUE,FALSE,TRUE,TRUE,"""event"",""trial"",""time""
""fullscreenenter"",""5"",""20487""
","
","
","""event"",""trial"",""time""
""fullscreenenter"",""5"",""20487""
","
",NA,NA,NA,NA,TRUE,NA,NA,NA,NA,NA,NA,NA,NA,NA,NA,NA,NA,NA,NA,NA,NA,NA,sub112
d3-instructions,6,34290,0.0-6.0,TRUE,FALSE,TRUE,TRUE,"""event"",""trial"",""time""
""fullscreenenter"",""5"",""20487""
","
","
","""event"",""trial"",""time""
""fullscreenenter"",""5"",""20487""
","
",NA,NA,NA,NA,NA,NA,NA,NA,NA,NA,NA,NA,NA,NA,NA,NA,NA,NA,NA,NA,NA,NA,sub112
d3-instructions,7,58671,0.0-7.0,TRUE,FALSE,TRUE,TRUE,"""event"",""trial"",""time""
""fullscreenenter"",""5"",""20487""
","
","
","""event"",""trial"",""time""
""fullscreenenter"",""5"",""20487""
","
",NA,NA,NA,NA,NA,NA,NA,NA,NA,NA,NA,NA,NA,NA,NA,NA,NA,NA,NA,NA,NA,NA,sub112
d3-instructions,8,69867,0.0-8.0,TRUE,FALSE,TRUE,TRUE,"""event"",""trial"",""time""
""fullscreenenter"",""5"",""20487""
","
","
","""event"",""trial"",""time""
""fullscreenenter"",""5"",""20487""
","
",NA,NA,NA,NA,NA,NA,NA,NA,NA,NA,NA,NA,NA,NA,NA,NA,NA,NA,NA,NA,NA,NA,sub112
d3-instructions,9,82764,0.0-9.0,TRUE,FALSE,TRUE,TRUE,"""event"",""trial"",""time""
""fullscreenenter"",""5"",""20487""
","
","
","""event"",""trial"",""time""
""fullscreenenter"",""5"",""20487""
","
",NA,NA,NA,NA,NA,NA,NA,NA,NA,NA,NA,NA,NA,NA,NA,NA,NA,NA,NA,NA,NA,NA,sub112
d3-instructions,10,122546,0.0-10.0,TRUE,FALSE,TRUE,TRUE,"""event"",""trial"",""time""
""fullscreenenter"",""5"",""20487""
","
","
","""event"",""trial"",""time""
""fullscreenenter"",""5"",""20487""
","
",NA,NA,NA,NA,NA,NA,NA,NA,NA,NA,NA,NA,NA,NA,NA,NA,NA,NA,NA,NA,NA,NA,sub112
d3-animate-choice,11,130099,0.0-11.0,TRUE,FALSE,TRUE,TRUE,"""event"",""trial"",""time""
""fullscreenenter"",""5"",""20487""
","
","
","""event"",""trial"",""time""
""fullscreenenter"",""5"",""20487""
","
",5544.33499998413,NA,48,NA,NA,3000,1,NA,NA,images/tutgreenplanet.jpg,images/tutalien1,images/tutalien2,null,images/tutalien1,NA,NA,practice,null,NA,NA,NA,NA,sub112
d3-animate-choice,12,135856,0.0-12.0,TRUE,FALSE,TRUE,TRUE,"""event"",""trial"",""time""
""fullscreenenter"",""5"",""20487""
","
","
","""event"",""trial"",""time""
""fullscreenenter"",""5"",""20487""
","
",3753.125000046566,NA,49,NA,NA,3000,1,NA,NA,images/tutgreenplanet.jpg,images/tutalien1,images/tutalien2,null,images/tutalien2,NA,NA,practice,null,NA,NA,NA,NA,sub112
d3-animate-choice,13,139634,0.0-13.0,TRUE,FALSE,TRUE,TRUE,"""event"",""trial"",""time""
""fullscreenenter"",""5"",""20487""
","
","
","""event"",""trial"",""time""
""fullscreenenter"",""5"",""20487""
","
",1774.0749998483807,NA,48,NA,NA,3000,1,NA,NA,images/tutgreenplanet.jpg,images/tutalien1,images/tutalien2,null,images/tutalien1,NA,NA,practice,null,NA,NA,NA,NA,sub112
d3-animate-choice,14,143355,0.0-14.0,TRUE,FALSE,TRUE,TRUE,"""event"",""trial"",""time""
""fullscreenenter"",""5"",""20487""
","
","
","""event"",""trial"",""time""
""fullscreenenter"",""5"",""20487""
","
",1717.1699998434633,NA,48,NA,NA,3000,1,NA,NA,images/tutgreenplanet.jpg,images/tutalien1,images/tutalien2,null,images/tutalien1,NA,NA,practice,null,NA,NA,NA,NA,sub112
d3-instructions,15,150701,0.0-15.0,TRUE,FALSE,TRUE,TRUE,"""event"",""trial"",""time""
""fullscreenenter"",""5"",""20487""
","
","
","""event"",""trial"",""time""
""fullscreenenter"",""5"",""20487""
","
",NA,NA,NA,NA,NA,NA,NA,NA,NA,NA,NA,NA,NA,NA,NA,NA,NA,NA,NA,NA,NA,NA,sub112
d3-instructions,16,157214,0.0-16.0,TRUE,FALSE,TRUE,TRUE,"""event"",""trial"",""time""
""fullscreenenter"",""5"",""20487""
","
","
","""event"",""trial"",""time""
""fullscreenenter"",""5"",""20487""
","
",NA,NA,NA,NA,NA,NA,NA,NA,NA,NA,NA,NA,NA,NA,NA,NA,NA,NA,NA,NA,NA,NA,sub112
d3-instructions,17,166442,0.0-17.0,TRUE,FALSE,TRUE,TRUE,"""event"",""trial"",""time""
""fullscreenenter"",""5"",""20487""
","
","
","""event"",""trial"",""time""
""fullscreenenter"",""5"",""20487""
","
",NA,NA,NA,NA,NA,NA,NA,NA,NA,NA,NA,NA,NA,NA,NA,NA,NA,NA,NA,NA,NA,NA,sub112
d3-instructions,18,178979,0.0-18.0,TRUE,FALSE,TRUE,TRUE,"""event"",""trial"",""time""
""fullscreenenter"",""5"",""20487""
","
","
","""event"",""trial"",""time""
""fullscreenenter"",""5"",""20487""
","
",NA,NA,NA,NA,NA,NA,NA,NA,NA,NA,NA,NA,NA,NA,NA,NA,NA,NA,NA,NA,NA,NA,sub112
d3-instructions,19,192919,0.0-19.0,TRUE,FALSE,TRUE,TRUE,"""event"",""trial"",""time""
""fullscreenenter"",""5"",""20487""
","
","
","""event"",""trial"",""time""
""fullscreenenter"",""5"",""20487""
","
",NA,NA,NA,NA,NA,NA,NA,NA,NA,NA,NA,NA,NA,NA,NA,NA,NA,NA,NA,NA,NA,NA,sub112
d3-animate-choice,20,196839,0.0-20.0,TRUE,FALSE,TRUE,TRUE,"""event"",""trial"",""time""
""fullscreenenter"",""5"",""20487""
","
","
","""event"",""trial"",""time""
""fullscreenenter"",""5"",""20487""
","
",1914.5599999465048,NA,49,NA,NA,3000,1,NA,NA,images/tutyellowplanet.jpg,null,images/tutalien3,null,images/tutalien3,images/t.png,NA,practice,null,NA,NA,NA,NA,sub112
d3-animate-choice,21,199511,0.0-21.0,TRUE,FALSE,TRUE,TRUE,"""event"",""trial"",""time""
""fullscreenenter"",""5"",""20487""
","
","
","""event"",""trial"",""time""
""fullscreenenter"",""5"",""20487""
","
",667.9450001101941,NA,49,NA,NA,3000,1,NA,NA,images/tutyellowplanet.jpg,null,images/tutalien3,null,images/tutalien3,images/nothing.png,NA,practice,null,NA,NA,NA,NA,sub112
d3-animate-choice,22,201851,0.0-22.0,TRUE,FALSE,TRUE,TRUE,"""event"",""trial"",""time""
""fullscreenenter"",""5"",""20487""
","
","
","""event"",""trial"",""time""
""fullscreenenter"",""5"",""20487""
","
",336.7349999025464,NA,49,NA,NA,3000,1,NA,NA,images/tutyellowplanet.jpg,null,images/tutalien3,null,images/tutalien3,images/t.png,NA,practice,null,NA,NA,NA,NA,sub112
d3-animate-choice,23,204122,0.0-23.0,TRUE,FALSE,TRUE,TRUE,"""event"",""trial"",""time""
""fullscreenenter"",""5"",""20487""
","
","
","""event"",""trial"",""time""
""fullscreenenter"",""5"",""20487""
","
",268.84500007145107,NA,49,NA,NA,3000,1,NA,NA,images/tutyellowplanet.jpg,null,images/tutalien3,null,images/tutalien3,images/t.png,NA,practice,null,NA,NA,NA,NA,sub112
d3-animate-choice,24,206279,0.0-24.0,TRUE,FALSE,TRUE,TRUE,"""event"",""trial"",""time""
""fullscreenenter"",""5"",""20487""
","
","
","""event"",""trial"",""time""
""fullscreenenter"",""5"",""20487""
","
",153.2199999783188,NA,49,NA,NA,3000,1,NA,NA,images/tutyellowplanet.jpg,null,images/tutalien3,null,images/tutalien3,images/t.png,NA,practice,null,NA,NA,NA,NA,sub112
d3-animate-choice,25,208768,0.0-25.0,TRUE,FALSE,TRUE,TRUE,"""event"",""trial"",""time""
""fullscreenenter"",""5"",""20487""
","
","
","""event"",""trial"",""time""
""fullscreenenter"",""5"",""20487""
","
",485.8999999705702,NA,49,NA,NA,3000,1,NA,NA,images/tutyellowplanet.jpg,null,images/tutalien3,null,images/tutalien3,images/t.png,NA,practice,null,NA,NA,NA,NA,sub112
d3-animate-choice,26,211156,0.0-26.0,TRUE,FALSE,TRUE,TRUE,"""event"",""trial"",""time""
""fullscreenenter"",""5"",""20487""
","
","
","""event"",""trial"",""time""
""fullscreenenter"",""5"",""20487""
","
",383.60499986447394,NA,49,NA,NA,3000,1,NA,NA,images/tutyellowplanet.jpg,null,images/tutalien3,null,images/tutalien3,images/t.png,NA,practice,null,NA,NA,NA,NA,sub112
d3-animate-choice,27,213424,0.0-27.0,TRUE,FALSE,TRUE,TRUE,"""event"",""trial"",""time""
""fullscreenenter"",""5"",""20487""
","
","
","""event"",""trial"",""time""
""fullscreenenter"",""5"",""20487""
","
",263.6249999050051,NA,49,NA,NA,3000,1,NA,NA,images/tutyellowplanet.jpg,null,images/tutalien3,null,images/tutalien3,images/nothing.png,NA,practice,null,NA,NA,NA,NA,sub112
d3-animate-choice,28,215836,0.0-28.0,TRUE,FALSE,TRUE,TRUE,"""event"",""trial"",""time""
""fullscreenenter"",""5"",""20487""
","
","
","""event"",""trial"",""time""
""fullscreenenter"",""5"",""20487""
","
",408.0250000115484,NA,49,NA,NA,3000,1,NA,NA,images/tutyellowplanet.jpg,null,images/tutalien3,null,images/tutalien3,images/nothing.png,NA,practice,null,NA,NA,NA,NA,sub112
d3-animate-choice,29,218468,0.0-29.0,TRUE,FALSE,TRUE,TRUE,"""event"",""trial"",""time""
""fullscreenenter"",""5"",""20487""
","
","
","""event"",""trial"",""time""
""fullscreenenter"",""5"",""20487""
","
",629.0900001768023,NA,49,NA,NA,3000,1,NA,NA,images/tutyellowplanet.jpg,null,images/tutalien3,null,images/tutalien3,images/t.png,NA,practice,null,NA,NA,NA,NA,sub112
d3-instructions,30,225886,0.0-30.0,TRUE,FALSE,TRUE,TRUE,"""event"",""trial"",""time""
""fullscreenenter"",""5"",""20487""
","
","
","""event"",""trial"",""time""
""fullscreenenter"",""5"",""20487""
","
",NA,NA,NA,NA,NA,NA,NA,NA,NA,NA,NA,NA,NA,NA,NA,NA,NA,NA,NA,NA,NA,NA,sub112
d3-instructions,31,235724,0.0-31.0,TRUE,FALSE,TRUE,TRUE,"""event"",""trial"",""time""
""fullscreenenter"",""5"",""20487""
","
","
","""event"",""trial"",""time""
""fullscreenenter"",""5"",""20487""
","
",NA,NA,NA,NA,NA,NA,NA,NA,NA,NA,NA,NA,NA,NA,NA,NA,NA,NA,NA,NA,NA,NA,sub112
d3-instructions,32,244720,0.0-32.0,TRUE,FALSE,TRUE,TRUE,"""event"",""trial"",""time""
""fullscreenenter"",""5"",""20487""
","
","
","""event"",""trial"",""time""
""fullscreenenter"",""5"",""20487""
","
",NA,NA,NA,NA,NA,NA,NA,NA,NA,NA,NA,NA,NA,NA,NA,NA,NA,NA,NA,NA,NA,NA,sub112
d3-instructions,33,255676,0.0-33.0,TRUE,FALSE,TRUE,TRUE,"""event"",""trial"",""time""
""fullscreenenter"",""5"",""20487""
","
","
","""event"",""trial"",""time""
""fullscreenenter"",""5"",""20487""
","
",NA,NA,NA,NA,NA,NA,NA,NA,NA,NA,NA,NA,NA,NA,NA,NA,NA,NA,NA,NA,NA,NA,sub112
d3-animate-choice,34,270048,0.0-34.0,TRUE,FALSE,TRUE,TRUE,"""event"",""trial"",""time""
""fullscreenenter"",""5"",""20487""
","
","
","""event"",""trial"",""time""
""fullscreenenter"",""5"",""20487""
","
",12368.340000044554,NA,49,NA,NA,3000,1,NA,NA,images/tutgreenplanet.jpg,images/tutalien1,images/tutalien2,null,images/tutalien2,images/t.png,NA,practice,null,NA,NA,NA,NA,sub112
d3-animate-choice,35,276017,0.0-35.0,TRUE,FALSE,TRUE,TRUE,"""event"",""trial"",""time""
""fullscreenenter"",""5"",""20487""
","
","
","""event"",""trial"",""time""
""fullscreenenter"",""5"",""20487""
","
",3965.624999953434,NA,49,NA,NA,3000,1,NA,NA,images/tutgreenplanet.jpg,images/tutalien1,images/tutalien2,null,images/tutalien2,images/t.png,NA,practice,null,NA,NA,NA,NA,sub112
d3-animate-choice,36,278728,0.0-36.0,TRUE,FALSE,TRUE,TRUE,"""event"",""trial"",""time""
""fullscreenenter"",""5"",""20487""
","
","
","""event"",""trial"",""time""
""fullscreenenter"",""5"",""20487""
","
",707.9600000288337,NA,49,NA,NA,3000,1,NA,NA,images/tutgreenplanet.jpg,images/tutalien1,images/tutalien2,null,images/tutalien2,images/t.png,NA,practice,null,NA,NA,NA,NA,sub112
d3-animate-choice,37,281167,0.0-37.0,TRUE,FALSE,TRUE,TRUE,"""event"",""trial"",""time""
""fullscreenenter"",""5"",""20487""
","
","
","""event"",""trial"",""time""
""fullscreenenter"",""5"",""20487""
","
",433.8499999139458,NA,49,NA,NA,3000,1,NA,NA,images/tutgreenplanet.jpg,images/tutalien1,images/tutalien2,null,images/tutalien2,images/t.png,NA,practice,null,NA,NA,NA,NA,sub112
d3-animate-choice,38,283430,0.0-38.0,TRUE,FALSE,TRUE,TRUE,"""event"",""trial"",""time""
""fullscreenenter"",""5"",""20487""
","
","
","""event"",""trial"",""time""
""fullscreenenter"",""5"",""20487""
","
",260.4499999433756,NA,49,NA,NA,3000,1,NA,NA,images/tutgreenplanet.jpg,images/tutalien1,images/tutalien2,null,images/tutalien2,images/t.png,NA,practice,null,NA,NA,NA,NA,sub112
d3-animate-choice,39,285703,0.0-39.0,TRUE,FALSE,TRUE,TRUE,"""event"",""trial"",""time""
""fullscreenenter"",""5"",""20487""
","
","
","""event"",""trial"",""time""
""fullscreenenter"",""5"",""20487""
","
",269.3350000772625,NA,49,NA,NA,3000,1,NA,NA,images/tutgreenplanet.jpg,images/tutalien1,images/tutalien2,null,images/tutalien2,images/t.png,NA,practice,null,NA,NA,NA,NA,sub112
d3-animate-choice,40,287886,0.0-40.0,TRUE,FALSE,TRUE,TRUE,"""event"",""trial"",""time""
""fullscreenenter"",""5"",""20487""
","
","
","""event"",""trial"",""time""
""fullscreenenter"",""5"",""20487""
","
",179.3349999934435,NA,49,NA,NA,3000,1,NA,NA,images/tutgreenplanet.jpg,images/tutalien1,images/tutalien2,null,images/tutalien2,images/t.png,NA,practice,null,NA,NA,NA,NA,sub112
d3-animate-choice,41,290195,0.0-41.0,TRUE,FALSE,TRUE,TRUE,"""event"",""trial"",""time""
""fullscreenenter"",""5"",""20487""
","
","
","""event"",""trial"",""time""
""fullscreenenter"",""5"",""20487""
","
",304.594999877736,NA,49,NA,NA,3000,1,NA,NA,images/tutgreenplanet.jpg,images/tutalien1,images/tutalien2,null,images/tutalien2,images/t.png,NA,practice,null,NA,NA,NA,NA,sub112
d3-animate-choice,42,292408,0.0-42.0,TRUE,FALSE,TRUE,TRUE,"""event"",""trial"",""time""
""fullscreenenter"",""5"",""20487""
","
","
","""event"",""trial"",""time""
""fullscreenenter"",""5"",""20487""
","
",208.9799998793751,NA,49,NA,NA,3000,1,NA,NA,images/tutgreenplanet.jpg,images/tutalien1,images/tutalien2,null,images/tutalien2,images/nothing.png,NA,practice,null,NA,NA,NA,NA,sub112
d3-animate-choice,43,295230,0.0-43.0,TRUE,FALSE,TRUE,TRUE,"""event"",""trial"",""time""
""fullscreenenter"",""5"",""20487""
","
","
","""event"",""trial"",""time""
""fullscreenenter"",""5"",""20487""
","
",817.1699999365956,NA,49,NA,NA,3000,1,NA,NA,images/tutgreenplanet.jpg,images/tutalien1,images/tutalien2,null,images/tutalien2,images/t.png,NA,practice,null,NA,NA,NA,NA,sub112
d3-instructions,44,309271,0.0-44.0,TRUE,FALSE,TRUE,TRUE,"""event"",""trial"",""time""
""fullscreenenter"",""5"",""20487""
","
","
","""event"",""trial"",""time""
""fullscreenenter"",""5"",""20487""
","
",NA,NA,NA,NA,NA,NA,NA,NA,NA,NA,NA,NA,NA,NA,NA,NA,NA,NA,NA,NA,NA,NA,sub112
d3-instructions,45,316302,0.0-45.0,TRUE,FALSE,TRUE,TRUE,"""event"",""trial"",""time""
""fullscreenenter"",""5"",""20487""
","
","
","""event"",""trial"",""time""
""fullscreenenter"",""5"",""20487""
","
",NA,NA,NA,NA,NA,NA,NA,NA,NA,NA,NA,NA,NA,NA,NA,NA,NA,NA,NA,NA,NA,NA,sub112
d3-instructions,46,321836,0.0-46.0,TRUE,FALSE,TRUE,TRUE,"""event"",""trial"",""time""
""fullscreenenter"",""5"",""20487""
","
","
","""event"",""trial"",""time""
""fullscreenenter"",""5"",""20487""
","
",NA,NA,NA,NA,NA,NA,NA,NA,NA,NA,NA,NA,NA,NA,NA,NA,NA,NA,NA,NA,NA,NA,sub112
d3-instructions,47,338702,0.0-47.0,TRUE,FALSE,TRUE,TRUE,"""event"",""trial"",""time""
""fullscreenenter"",""5"",""20487""
","
","
","""event"",""trial"",""time""
""fullscreenenter"",""5"",""20487""
","
",NA,NA,NA,NA,NA,NA,NA,NA,NA,NA,NA,NA,NA,NA,NA,NA,NA,NA,NA,NA,NA,NA,sub112
d3-instructions,48,345204,0.0-48.0,TRUE,FALSE,TRUE,TRUE,"""event"",""trial"",""time""
""fullscreenenter"",""5"",""20487""
","
","
","""event"",""trial"",""time""
""fullscreenenter"",""5"",""20487""
","
",NA,NA,NA,NA,NA,NA,NA,NA,NA,NA,NA,NA,NA,NA,NA,NA,NA,NA,NA,NA,NA,NA,sub112
d3-instructions,49,356008,0.0-49.0,TRUE,FALSE,TRUE,TRUE,"""event"",""trial"",""time""
""fullscreenenter"",""5"",""20487""
","
","
","""event"",""trial"",""time""
""fullscreenenter"",""5"",""20487""
","
",NA,NA,NA,NA,NA,NA,NA,NA,NA,NA,NA,NA,NA,NA,NA,NA,NA,NA,NA,NA,NA,NA,sub112
d3-instructions,50,366172,0.0-50.0,TRUE,FALSE,TRUE,TRUE,"""event"",""trial"",""time""
""fullscreenenter"",""5"",""20487""
","
","
","""event"",""trial"",""time""
""fullscreenenter"",""5"",""20487""
","
",NA,NA,NA,NA,NA,NA,NA,NA,NA,NA,NA,NA,NA,NA,NA,NA,NA,NA,NA,NA,NA,NA,sub112
d3-instructions,51,370225,0.0-51.0,TRUE,FALSE,TRUE,TRUE,"""event"",""trial"",""time""
""fullscreenenter"",""5"",""20487""
","
","
","""event"",""trial"",""time""
""fullscreenenter"",""5"",""20487""
","
",NA,NA,NA,NA,NA,NA,NA,NA,NA,NA,NA,NA,NA,NA,NA,NA,NA,NA,NA,NA,NA,NA,sub112
d3-instructions,52,373224,0.0-52.0,TRUE,FALSE,TRUE,TRUE,"""event"",""trial"",""time""
""fullscreenenter"",""5"",""20487""
","
","
","""event"",""trial"",""time""
""fullscreenenter"",""5"",""20487""
","
",NA,NA,NA,NA,NA,NA,NA,NA,NA,NA,NA,NA,NA,NA,NA,NA,NA,NA,NA,NA,NA,NA,sub112
d3-instructions,53,387888,0.0-53.0,TRUE,FALSE,TRUE,TRUE,"""event"",""trial"",""time""
""fullscreenenter"",""5"",""20487""
","
","
","""event"",""trial"",""time""
""fullscreenenter"",""5"",""20487""
","
",NA,NA,NA,NA,NA,NA,NA,NA,NA,NA,NA,NA,NA,NA,NA,NA,NA,NA,NA,NA,NA,NA,sub112
d3-instructions,54,401885,0.0-54.0,TRUE,FALSE,TRUE,TRUE,"""event"",""trial"",""time""
""fullscreenenter"",""5"",""20487""
","
","
","""event"",""trial"",""time""
""fullscreenenter"",""5"",""20487""
","
",NA,NA,NA,NA,NA,NA,NA,NA,NA,NA,NA,NA,NA,NA,NA,NA,NA,NA,NA,NA,NA,NA,sub112
d3-instructions,55,412097,0.0-55.0,TRUE,FALSE,TRUE,TRUE,"""event"",""trial"",""time""
""fullscreenenter"",""5"",""20487""
","
","
","""event"",""trial"",""time""
""fullscreenenter"",""5"",""20487""
","
",NA,NA,NA,NA,NA,NA,NA,NA,NA,NA,NA,NA,NA,NA,NA,NA,NA,NA,NA,NA,NA,NA,sub112
d3-instructions,56,420199,0.0-56.0,TRUE,FALSE,TRUE,TRUE,"""event"",""trial"",""time""
""fullscreenenter"",""5"",""20487""
","
","
","""event"",""trial"",""time""
""fullscreenenter"",""5"",""20487""
","
",NA,NA,NA,NA,NA,NA,NA,NA,NA,NA,NA,NA,NA,NA,NA,NA,NA,NA,NA,NA,NA,NA,sub112
d3-instructions,57,430536,0.0-57.0,TRUE,FALSE,TRUE,TRUE,"""event"",""trial"",""time""
""fullscreenenter"",""5"",""20487""
","
","
","""event"",""trial"",""time""
""fullscreenenter"",""5"",""20487""
","
",NA,NA,NA,NA,NA,NA,NA,NA,NA,NA,NA,NA,NA,NA,NA,NA,NA,NA,NA,NA,NA,NA,sub112
d3-instructions,58,440090,0.0-58.0,TRUE,FALSE,TRUE,TRUE,"""event"",""trial"",""time""
""fullscreenenter"",""5"",""20487""
","
","
","""event"",""trial"",""time""
""fullscreenenter"",""5"",""20487""
","
",NA,NA,NA,NA,NA,NA,NA,NA,NA,NA,NA,NA,NA,NA,NA,NA,NA,NA,NA,NA,NA,NA,sub112
d3-instructions,59,443352,0.0-59.0,TRUE,FALSE,TRUE,TRUE,"""event"",""trial"",""time""
""fullscreenenter"",""5"",""20487""
","
","
","""event"",""trial"",""time""
""fullscreenenter"",""5"",""20487""
","
",NA,NA,NA,NA,NA,NA,NA,NA,NA,NA,NA,NA,NA,NA,NA,NA,NA,NA,NA,NA,NA,NA,sub112
d3-instructions,60,451058,0.0-60.0,TRUE,FALSE,TRUE,TRUE,"""event"",""trial"",""time""
""fullscreenenter"",""5"",""20487""
","
","
","""event"",""trial"",""time""
""fullscreenenter"",""5"",""20487""
","
",NA,NA,NA,NA,NA,NA,NA,NA,NA,NA,NA,NA,NA,NA,NA,NA,NA,NA,NA,NA,NA,NA,sub112
d3-animate-choice,61,454078,0.0-61.0-0.0,TRUE,FALSE,TRUE,TRUE,"""event"",""trial"",""time""
""fullscreenenter"",""5"",""20487""
","
","
","""event"",""trial"",""time""
""fullscreenenter"",""5"",""20487""
","
",1015.0250000879169,NA,48,NA,NA,3000,1,NA,NA,images/earth.jpg,images/tutrocket1,images/tutrocket2,null,images/tutrocket1,NA,1,practice,null,2,NA,NA,NA,sub112
d3-animate-choice,62,458087,0.0-61.0-1.0,TRUE,FALSE,TRUE,TRUE,"""event"",""trial"",""time""
""fullscreenenter"",""5"",""20487""
","
","
","""event"",""trial"",""time""
""fullscreenenter"",""5"",""20487""
","
",3530.629999935627,NA,49,NA,NA,3000,0,NA,NA,images/tutyellowplanet.jpg,images/tutalien4,images/tutalien3,images/tutrocket1,NA,NA,2,practice,true,1,common,0,2020-07-02T17:44:50Z,sub112
two-step-fixation,63,459093,0.0-61.0-2.0,TRUE,FALSE,TRUE,TRUE,"""event"",""trial"",""time""
""fullscreenenter"",""5"",""20487""
","
","
","""event"",""trial"",""time""
""fullscreenenter"",""5"",""20487""
","
",NA,images/earth.jpg,NA,NA,NA,NA,NA,NA,NA,NA,NA,NA,NA,NA,NA,fixation,NA,NA,NA,NA,NA,NA,sub112
d3-animate-choice,64,463098,0.0-61.0-0.1,TRUE,FALSE,TRUE,TRUE,"""event"",""trial"",""time""
""fullscreenenter"",""5"",""20487""
","
","
","""event"",""trial"",""time""
""fullscreenenter"",""5"",""20487""
","
",null,NA,null,NA,NA,3000,0,NA,NA,images/earth.jpg,images/tutrocket1,images/tutrocket2,null,NA,NA,1,practice,null,NA,NA,NA,NA,sub112
d3-animate-choice,65,464107,0.0-61.0-1.1,TRUE,FALSE,TRUE,TRUE,"""event"",""trial"",""time""
""fullscreenenter"",""5"",""20487""
","
","
","""event"",""trial"",""time""
""fullscreenenter"",""5"",""20487""
","
",null,NA,null,NA,NA,0,0,NA,NA,images/earth.jpg,images/tutrocket1,images/tutrocket2,null,NA,NA,2,practice,null,NA,NA,0,2020-07-02T17:44:56Z,sub112
two-step-fixation,66,465111,0.0-61.0-2.1,TRUE,FALSE,TRUE,TRUE,"""event"",""trial"",""time""
""fullscreenenter"",""5"",""20487""
","
","
","""event"",""trial"",""time""
""fullscreenenter"",""5"",""20487""
","
",NA,images/earth.jpg,NA,NA,NA,NA,NA,NA,NA,NA,NA,NA,NA,NA,NA,fixation,NA,NA,NA,NA,NA,NA,sub112
d3-animate-choice,67,468285,0.0-61.0-0.2,TRUE,FALSE,TRUE,TRUE,"""event"",""trial"",""time""
""fullscreenenter"",""5"",""20487""
","
","
","""event"",""trial"",""time""
""fullscreenenter"",""5"",""20487""
","
",1171.0399999283254,NA,48,NA,NA,3000,1,NA,NA,images/earth.jpg,images/tutrocket1,images/tutrocket2,null,images/tutrocket1,NA,1,practice,null,2,NA,NA,NA,sub112
d3-animate-choice,68,471630,0.0-61.0-1.2,TRUE,FALSE,TRUE,TRUE,"""event"",""trial"",""time""
""fullscreenenter"",""5"",""20487""
","
","
","""event"",""trial"",""time""
""fullscreenenter"",""5"",""20487""
","
",1340.2950000017881,NA,48,NA,NA,3000,1,NA,NA,images/tutgreenplanet.jpg,images/tutalien2,images/tutalien1,images/tutrocket1,images/tutalien2,images/nothing.png,2,practice,false,2,rare,0,2020-07-02T17:45:04Z,sub112
two-step-fixation,69,472633,0.0-61.0-2.2,TRUE,FALSE,TRUE,TRUE,"""event"",""trial"",""time""
""fullscreenenter"",""5"",""20487""
","
","
","""event"",""trial"",""time""
""fullscreenenter"",""5"",""20487""
","
",NA,images/earth.jpg,NA,NA,NA,NA,NA,NA,NA,NA,NA,NA,NA,NA,NA,fixation,NA,NA,NA,NA,NA,NA,sub112
d3-animate-choice,70,476089,0.0-61.0-0.3,TRUE,FALSE,TRUE,TRUE,"""event"",""trial"",""time""
""fullscreenenter"",""5"",""20487""
","
","
","""event"",""trial"",""time""
""fullscreenenter"",""5"",""20487""
","
",1451.5700000338256,NA,49,NA,NA,3000,1,NA,NA,images/earth.jpg,images/tutrocket1,images/tutrocket2,null,images/tutrocket2,NA,1,practice,null,1,NA,NA,NA,sub112
d3-animate-choice,71,479088,0.0-61.0-1.3,TRUE,FALSE,TRUE,TRUE,"""event"",""trial"",""time""
""fullscreenenter"",""5"",""20487""
","
","
","""event"",""trial"",""time""
""fullscreenenter"",""5"",""20487""
","
",993.8099998980761,NA,49,NA,NA,3000,1,NA,NA,images/tutgreenplanet.jpg,images/tutalien2,images/tutalien1,images/tutrocket2,images/tutalien1,images/t.png,2,practice,true,1,common,1,2020-07-02T17:45:11Z,sub112
two-step-fixation,72,480093,0.0-61.0-2.3,TRUE,FALSE,TRUE,TRUE,"""event"",""trial"",""time""
""fullscreenenter"",""5"",""20487""
","
","
","""event"",""trial"",""time""
""fullscreenenter"",""5"",""20487""
","
",NA,images/earth.jpg,NA,NA,NA,NA,NA,NA,NA,NA,NA,NA,NA,NA,NA,fixation,NA,NA,NA,NA,NA,NA,sub112
d3-animate-choice,73,483622,0.0-61.0-0.4,TRUE,FALSE,TRUE,TRUE,"""event"",""trial"",""time""
""fullscreenenter"",""5"",""20487""
","
","
","""event"",""trial"",""time""
""fullscreenenter"",""5"",""20487""
","
",1525.1050000078976,NA,48,NA,NA,3000,1,NA,NA,images/earth.jpg,images/tutrocket1,images/tutrocket2,null,images/tutrocket1,NA,1,practice,null,2,NA,NA,NA,sub112
d3-animate-choice,74,486459,0.0-61.0-1.4,TRUE,FALSE,TRUE,TRUE,"""event"",""trial"",""time""
""fullscreenenter"",""5"",""20487""
","
","
","""event"",""trial"",""time""
""fullscreenenter"",""5"",""20487""
","
",830.7849999982864,NA,49,NA,NA,3000,1,NA,NA,images/tutgreenplanet.jpg,images/tutalien2,images/tutalien1,images/tutrocket1,images/tutalien1,images/t.png,2,practice,false,1,rare,1,2020-07-02T17:45:18Z,sub112
two-step-fixation,75,487463,0.0-61.0-2.4,TRUE,FALSE,TRUE,TRUE,"""event"",""trial"",""time""
""fullscreenenter"",""5"",""20487""
","
","
","""event"",""trial"",""time""
""fullscreenenter"",""5"",""20487""
","
",NA,images/earth.jpg,NA,NA,NA,NA,NA,NA,NA,NA,NA,NA,NA,NA,NA,fixation,NA,NA,NA,NA,NA,NA,sub112
d3-animate-choice,76,490648,0.0-61.0-0.5,TRUE,FALSE,TRUE,TRUE,"""event"",""trial"",""time""
""fullscreenenter"",""5"",""20487""
","
","
","""event"",""trial"",""time""
""fullscreenenter"",""5"",""20487""
","
",1180.3349999245256,NA,49,NA,NA,3000,1,NA,NA,images/earth.jpg,images/tutrocket1,images/tutrocket2,null,images/tutrocket2,NA,1,practice,null,1,NA,NA,NA,sub112
d3-animate-choice,77,493608,0.0-61.0-1.5,TRUE,FALSE,TRUE,TRUE,"""event"",""trial"",""time""
""fullscreenenter"",""5"",""20487""
","
","
","""event"",""trial"",""time""
""fullscreenenter"",""5"",""20487""
","
",955.0000000745058,NA,49,NA,NA,3000,1,NA,NA,images/tutgreenplanet.jpg,images/tutalien2,images/tutalien1,images/tutrocket2,images/tutalien1,images/nothing.png,2,practice,true,1,common,0,2020-07-02T17:45:25Z,sub112
two-step-fixation,78,494612,0.0-61.0-2.5,TRUE,FALSE,TRUE,TRUE,"""event"",""trial"",""time""
""fullscreenenter"",""5"",""20487""
","
","
","""event"",""trial"",""time""
""fullscreenenter"",""5"",""20487""
","
",NA,images/earth.jpg,NA,NA,NA,NA,NA,NA,NA,NA,NA,NA,NA,NA,NA,fixation,NA,NA,NA,NA,NA,NA,sub112
d3-animate-choice,79,497602,0.0-61.0-0.6,TRUE,FALSE,TRUE,TRUE,"""event"",""trial"",""time""
""fullscreenenter"",""5"",""20487""
","
","
","""event"",""trial"",""time""
""fullscreenenter"",""5"",""20487""
","
",985.9900001902133,NA,48,NA,NA,3000,1,NA,NA,images/earth.jpg,images/tutrocket1,images/tutrocket2,null,images/tutrocket1,NA,1,practice,null,2,NA,NA,NA,sub112
d3-animate-choice,80,501028,0.0-61.0-1.6,TRUE,FALSE,TRUE,TRUE,"""event"",""trial"",""time""
""fullscreenenter"",""5"",""20487""
","
","
","""event"",""trial"",""time""
""fullscreenenter"",""5"",""20487""
","
",1422.6999999955297,NA,49,NA,NA,3000,1,NA,NA,images/tutyellowplanet.jpg,images/tutalien4,images/tutalien3,images/tutrocket1,images/tutalien3,images/t.png,2,practice,true,1,common,1,2020-07-02T17:45:33Z,sub112
two-step-fixation,81,502032,0.0-61.0-2.6,TRUE,FALSE,TRUE,TRUE,"""event"",""trial"",""time""
""fullscreenenter"",""5"",""20487""
","
","
","""event"",""trial"",""time""
""fullscreenenter"",""5"",""20487""
","
",NA,images/earth.jpg,NA,NA,NA,NA,NA,NA,NA,NA,NA,NA,NA,NA,NA,fixation,NA,NA,NA,NA,NA,NA,sub112
d3-animate-choice,82,505281,0.0-61.0-0.7,TRUE,FALSE,TRUE,TRUE,"""event"",""trial"",""time""
""fullscreenenter"",""5"",""20487""
","
","
","""event"",""trial"",""time""
""fullscreenenter"",""5"",""20487""
","
",1245.450000045821,NA,49,NA,NA,3000,1,NA,NA,images/earth.jpg,images/tutrocket1,images/tutrocket2,null,images/tutrocket2,NA,1,practice,null,1,NA,NA,NA,sub112
d3-animate-choice,83,508479,0.0-61.0-1.7,TRUE,FALSE,TRUE,TRUE,"""event"",""trial"",""time""
""fullscreenenter"",""5"",""20487""
","
","
","""event"",""trial"",""time""
""fullscreenenter"",""5"",""20487""
","
",1193.6850000638515,NA,48,NA,NA,3000,1,NA,NA,images/tutgreenplanet.jpg,images/tutalien2,images/tutalien1,images/tutrocket2,images/tutalien2,images/t.png,2,practice,true,2,common,1,2020-07-02T17:45:40Z,sub112
two-step-fixation,84,509483,0.0-61.0-2.7,TRUE,FALSE,TRUE,TRUE,"""event"",""trial"",""time""
""fullscreenenter"",""5"",""20487""
","
","
","""event"",""trial"",""time""
""fullscreenenter"",""5"",""20487""
","
",NA,images/earth.jpg,NA,NA,NA,NA,NA,NA,NA,NA,NA,NA,NA,NA,NA,fixation,NA,NA,NA,NA,NA,NA,sub112
d3-animate-choice,85,512651,0.0-61.0-0.8,TRUE,FALSE,TRUE,TRUE,"""event"",""trial"",""time""
""fullscreenenter"",""5"",""20487""
","
","
","""event"",""trial"",""time""
""fullscreenenter"",""5"",""20487""
","
",1163.979999953881,NA,48,NA,NA,3000,1,NA,NA,images/earth.jpg,images/tutrocket1,images/tutrocket2,null,images/tutrocket1,NA,1,practice,null,2,NA,NA,NA,sub112
d3-animate-choice,86,516022,0.0-61.0-1.8,TRUE,FALSE,TRUE,TRUE,"""event"",""trial"",""time""
""fullscreenenter"",""5"",""20487""
","
","
","""event"",""trial"",""time""
""fullscreenenter"",""5"",""20487""
","
",1366.2849999964237,NA,48,NA,NA,3000,1,NA,NA,images/tutyellowplanet.jpg,images/tutalien4,images/tutalien3,images/tutrocket1,images/tutalien4,images/nothing.png,2,practice,true,2,common,0,2020-07-02T17:45:48Z,sub112
two-step-fixation,87,517026,0.0-61.0-2.8,TRUE,FALSE,TRUE,TRUE,"""event"",""trial"",""time""
""fullscreenenter"",""5"",""20487""
","
","
","""event"",""trial"",""time""
""fullscreenenter"",""5"",""20487""
","
",NA,images/earth.jpg,NA,NA,NA,NA,NA,NA,NA,NA,NA,NA,NA,NA,NA,fixation,NA,NA,NA,NA,NA,NA,sub112
d3-animate-choice,88,520110,0.0-61.0-0.9,TRUE,FALSE,TRUE,TRUE,"""event"",""trial"",""time""
""fullscreenenter"",""5"",""20487""
","
","
","""event"",""trial"",""time""
""fullscreenenter"",""5"",""20487""
","
",1080.2899999544024,NA,49,NA,NA,3000,1,NA,NA,images/earth.jpg,images/tutrocket1,images/tutrocket2,null,images/tutrocket2,NA,1,practice,null,1,NA,NA,NA,sub112
d3-animate-choice,89,523528,0.0-61.0-1.9,TRUE,FALSE,TRUE,TRUE,"""event"",""trial"",""time""
""fullscreenenter"",""5"",""20487""
","
","
","""event"",""trial"",""time""
""fullscreenenter"",""5"",""20487""
","
",1414.7649998776615,NA,48,NA,NA,3000,1,NA,NA,images/tutgreenplanet.jpg,images/tutalien2,images/tutalien1,images/tutrocket2,images/tutalien2,images/nothing.png,2,practice,true,2,common,0,2020-07-02T17:45:55Z,sub112
two-step-fixation,90,524532,0.0-61.0-2.9,TRUE,FALSE,TRUE,TRUE,"""event"",""trial"",""time""
""fullscreenenter"",""5"",""20487""
","
","
","""event"",""trial"",""time""
""fullscreenenter"",""5"",""20487""
","
",NA,images/earth.jpg,NA,NA,NA,NA,NA,NA,NA,NA,NA,NA,NA,NA,NA,fixation,NA,NA,NA,NA,NA,NA,sub112
d3-animate-choice,91,527991,0.0-61.0-0.10,TRUE,FALSE,TRUE,TRUE,"""event"",""trial"",""time""
""fullscreenenter"",""5"",""20487""
","
","
","""event"",""trial"",""time""
""fullscreenenter"",""5"",""20487""
","
",1455.5749997962266,NA,48,NA,NA,3000,1,NA,NA,images/earth.jpg,images/tutrocket1,images/tutrocket2,null,images/tutrocket1,NA,1,practice,null,2,NA,NA,NA,sub112
d3-animate-choice,92,531769,0.0-61.0-1.10,TRUE,FALSE,TRUE,TRUE,"""event"",""trial"",""time""
""fullscreenenter"",""5"",""20487""
","
","
","""event"",""trial"",""time""
""fullscreenenter"",""5"",""20487""
","
",1775.425000116229,NA,48,NA,NA,3000,1,NA,NA,images/tutyellowplanet.jpg,images/tutalien4,images/tutalien3,images/tutrocket1,images/tutalien4,images/t.png,2,practice,true,2,common,1,2020-07-02T17:46:04Z,sub112
two-step-fixation,93,532773,0.0-61.0-2.10,TRUE,FALSE,TRUE,TRUE,"""event"",""trial"",""time""
""fullscreenenter"",""5"",""20487""
","
","
","""event"",""trial"",""time""
""fullscreenenter"",""5"",""20487""
","
",NA,images/earth.jpg,NA,NA,NA,NA,NA,NA,NA,NA,NA,NA,NA,NA,NA,fixation,NA,NA,NA,NA,NA,NA,sub112
d3-animate-choice,94,536157,0.0-61.0-0.11,TRUE,FALSE,TRUE,TRUE,"""event"",""trial"",""time""
""fullscreenenter"",""5"",""20487""
","
","
","""event"",""trial"",""time""
""fullscreenenter"",""5"",""20487""
","
",1378.8650000933558,NA,48,NA,NA,3000,1,NA,NA,images/earth.jpg,images/tutrocket1,images/tutrocket2,null,images/tutrocket1,NA,1,practice,null,2,NA,NA,NA,sub112
d3-animate-choice,95,539588,0.0-61.0-1.11,TRUE,FALSE,TRUE,TRUE,"""event"",""trial"",""time""
""fullscreenenter"",""5"",""20487""
","
","
","""event"",""trial"",""time""
""fullscreenenter"",""5"",""20487""
","
",1427.8099997900426,NA,49,NA,NA,3000,1,NA,NA,images/tutyellowplanet.jpg,images/tutalien4,images/tutalien3,images/tutrocket1,images/tutalien3,images/t.png,2,practice,true,1,common,1,2020-07-02T17:46:11Z,sub112
two-step-fixation,96,540592,0.0-61.0-2.11,TRUE,FALSE,TRUE,TRUE,"""event"",""trial"",""time""
""fullscreenenter"",""5"",""20487""
","
","
","""event"",""trial"",""time""
""fullscreenenter"",""5"",""20487""
","
",NA,images/earth.jpg,NA,NA,NA,NA,NA,NA,NA,NA,NA,NA,NA,NA,NA,fixation,NA,NA,NA,NA,NA,NA,sub112
d3-animate-choice,97,544335,0.0-61.0-0.12,TRUE,FALSE,TRUE,TRUE,"""event"",""trial"",""time""
""fullscreenenter"",""5"",""20487""
","
","
","""event"",""trial"",""time""
""fullscreenenter"",""5"",""20487""
","
",1739.2200001049787,NA,49,NA,NA,3000,1,NA,NA,images/earth.jpg,images/tutrocket1,images/tutrocket2,null,images/tutrocket2,NA,1,practice,null,1,NA,NA,NA,sub112
d3-animate-choice,98,548245,0.0-61.0-1.12,TRUE,FALSE,TRUE,TRUE,"""event"",""trial"",""time""
""fullscreenenter"",""5"",""20487""
","
","
","""event"",""trial"",""time""
""fullscreenenter"",""5"",""20487""
","
",1904.8550000879914,NA,48,NA,NA,3000,1,NA,NA,images/tutgreenplanet.jpg,images/tutalien2,images/tutalien1,images/tutrocket2,images/tutalien2,images/nothing.png,2,practice,true,2,common,0,2020-07-02T17:46:20Z,sub112
two-step-fixation,99,549248,0.0-61.0-2.12,TRUE,FALSE,TRUE,TRUE,"""event"",""trial"",""time""
""fullscreenenter"",""5"",""20487""
","
","
","""event"",""trial"",""time""
""fullscreenenter"",""5"",""20487""
","
",NA,images/earth.jpg,NA,NA,NA,NA,NA,NA,NA,NA,NA,NA,NA,NA,NA,fixation,NA,NA,NA,NA,NA,NA,sub112
d3-animate-choice,100,552491,0.0-61.0-0.13,TRUE,FALSE,TRUE,TRUE,"""event"",""trial"",""time""
""fullscreenenter"",""5"",""20487""
","
","
","""event"",""trial"",""time""
""fullscreenenter"",""5"",""20487""
","
",1237.785000121221,NA,48,NA,NA,3000,1,NA,NA,images/earth.jpg,images/tutrocket1,images/tutrocket2,null,images/tutrocket1,NA,1,practice,null,2,NA,NA,NA,sub112
d3-animate-choice,101,555767,0.0-61.0-1.13,TRUE,FALSE,TRUE,TRUE,"""event"",""trial"",""time""
""fullscreenenter"",""5"",""20487""
","
","
","""event"",""trial"",""time""
""fullscreenenter"",""5"",""20487""
","
",1273.039999883622,NA,49,NA,NA,3000,1,NA,NA,images/tutyellowplanet.jpg,images/tutalien4,images/tutalien3,images/tutrocket1,images/tutalien3,images/nothing.png,2,practice,true,1,common,0,2020-07-02T17:46:28Z,sub112
two-step-fixation,102,556771,0.0-61.0-2.13,TRUE,FALSE,TRUE,TRUE,"""event"",""trial"",""time""
""fullscreenenter"",""5"",""20487""
","
","
","""event"",""trial"",""time""
""fullscreenenter"",""5"",""20487""
","
",NA,images/earth.jpg,NA,NA,NA,NA,NA,NA,NA,NA,NA,NA,NA,NA,NA,fixation,NA,NA,NA,NA,NA,NA,sub112
d3-animate-choice,103,559752,0.0-61.0-0.14,TRUE,FALSE,TRUE,TRUE,"""event"",""trial"",""time""
""fullscreenenter"",""5"",""20487""
","
","
","""event"",""trial"",""time""
""fullscreenenter"",""5"",""20487""
","
",977.089999942109,NA,49,NA,NA,3000,1,NA,NA,images/earth.jpg,images/tutrocket1,images/tutrocket2,null,images/tutrocket2,NA,1,practice,null,1,NA,NA,NA,sub112
d3-animate-choice,104,563248,0.0-61.0-1.14,TRUE,FALSE,TRUE,TRUE,"""event"",""trial"",""time""
""fullscreenenter"",""5"",""20487""
","
","
","""event"",""trial"",""time""
""fullscreenenter"",""5"",""20487""
","
",1491.2799999583513,NA,48,NA,NA,3000,1,NA,NA,images/tutgreenplanet.jpg,images/tutalien2,images/tutalien1,images/tutrocket2,images/tutalien2,images/t.png,2,practice,true,2,common,1,2020-07-02T17:46:35Z,sub112
two-step-fixation,105,564251,0.0-61.0-2.14,TRUE,FALSE,TRUE,TRUE,"""event"",""trial"",""time""
""fullscreenenter"",""5"",""20487""
","
","
","""event"",""trial"",""time""
""fullscreenenter"",""5"",""20487""
","
",NA,images/earth.jpg,NA,NA,NA,NA,NA,NA,NA,NA,NA,NA,NA,NA,NA,fixation,NA,NA,NA,NA,NA,NA,sub112
d3-animate-choice,106,567443,0.0-61.0-0.15,TRUE,FALSE,TRUE,TRUE,"""event"",""trial"",""time""
""fullscreenenter"",""5"",""20487""
","
","
","""event"",""trial"",""time""
""fullscreenenter"",""5"",""20487""
","
",1188.0149999633431,NA,48,NA,NA,3000,1,NA,NA,images/earth.jpg,images/tutrocket1,images/tutrocket2,null,images/tutrocket1,NA,1,practice,null,2,NA,NA,NA,sub112
d3-animate-choice,107,570686,0.0-61.0-1.15,TRUE,FALSE,TRUE,TRUE,"""event"",""trial"",""time""
""fullscreenenter"",""5"",""20487""
","
","
","""event"",""trial"",""time""
""fullscreenenter"",""5"",""20487""
","
",1239.5949999336153,NA,48,NA,NA,3000,1,NA,NA,images/tutyellowplanet.jpg,images/tutalien4,images/tutalien3,images/tutrocket1,images/tutalien4,images/nothing.png,2,practice,true,2,common,0,2020-07-02T17:46:43Z,sub112
two-step-fixation,108,571690,0.0-61.0-2.15,TRUE,FALSE,TRUE,TRUE,"""event"",""trial"",""time""
""fullscreenenter"",""5"",""20487""
","
","
","""event"",""trial"",""time""
""fullscreenenter"",""5"",""20487""
","
",NA,images/earth.jpg,NA,NA,NA,NA,NA,NA,NA,NA,NA,NA,NA,NA,NA,fixation,NA,NA,NA,NA,NA,NA,sub112
d3-animate-choice,109,575035,0.0-61.0-0.16,TRUE,FALSE,TRUE,TRUE,"""event"",""trial"",""time""
""fullscreenenter"",""5"",""20487""
","
","
","""event"",""trial"",""time""
""fullscreenenter"",""5"",""20487""
","
",1341.9599998742342,NA,48,NA,NA,3000,1,NA,NA,images/earth.jpg,images/tutrocket1,images/tutrocket2,null,images/tutrocket1,NA,1,practice,null,2,NA,NA,NA,sub112
d3-animate-choice,110,578520,0.0-61.0-1.16,TRUE,FALSE,TRUE,TRUE,"""event"",""trial"",""time""
""fullscreenenter"",""5"",""20487""
","
","
","""event"",""trial"",""time""
""fullscreenenter"",""5"",""20487""
","
",1480.8650000486523,NA,49,NA,NA,3000,1,NA,NA,images/tutyellowplanet.jpg,images/tutalien4,images/tutalien3,images/tutrocket1,images/tutalien3,images/nothing.png,2,practice,true,1,common,0,2020-07-02T17:46:50Z,sub112
two-step-fixation,111,579524,0.0-61.0-2.16,TRUE,FALSE,TRUE,TRUE,"""event"",""trial"",""time""
""fullscreenenter"",""5"",""20487""
","
","
","""event"",""trial"",""time""
""fullscreenenter"",""5"",""20487""
","
",NA,images/earth.jpg,NA,NA,NA,NA,NA,NA,NA,NA,NA,NA,NA,NA,NA,fixation,NA,NA,NA,NA,NA,NA,sub112
d3-animate-choice,112,582129,0.0-61.0-0.17,TRUE,FALSE,TRUE,TRUE,"""event"",""trial"",""time""
""fullscreenenter"",""5"",""20487""
","
","
","""event"",""trial"",""time""
""fullscreenenter"",""5"",""20487""
","
",601.4400001149625,NA,49,NA,NA,3000,1,NA,NA,images/earth.jpg,images/tutrocket1,images/tutrocket2,null,images/tutrocket2,NA,1,practice,null,1,NA,NA,NA,sub112
d3-animate-choice,113,585976,0.0-61.0-1.17,TRUE,FALSE,TRUE,TRUE,"""event"",""trial"",""time""
""fullscreenenter"",""5"",""20487""
","
","
","""event"",""trial"",""time""
""fullscreenenter"",""5"",""20487""
","
",1842.8150000981987,NA,49,NA,NA,3000,1,NA,NA,images/tutgreenplanet.jpg,images/tutalien2,images/tutalien1,images/tutrocket2,images/tutalien1,images/nothing.png,2,practice,true,1,common,0,2020-07-02T17:46:58Z,sub112
two-step-fixation,114,586978,0.0-61.0-2.17,TRUE,FALSE,TRUE,TRUE,"""event"",""trial"",""time""
""fullscreenenter"",""5"",""20487""
","
","
","""event"",""trial"",""time""
""fullscreenenter"",""5"",""20487""
","
",NA,images/earth.jpg,NA,NA,NA,NA,NA,NA,NA,NA,NA,NA,NA,NA,NA,fixation,NA,NA,NA,NA,NA,NA,sub112
d3-animate-choice,115,589326,0.0-61.0-0.18,TRUE,FALSE,TRUE,TRUE,"""event"",""trial"",""time""
""fullscreenenter"",""5"",""20487""
","
","
","""event"",""trial"",""time""
""fullscreenenter"",""5"",""20487""
","
",343.7949998769909,NA,49,NA,NA,3000,1,NA,NA,images/earth.jpg,images/tutrocket1,images/tutrocket2,null,images/tutrocket2,NA,1,practice,null,1,NA,NA,NA,sub112
d3-animate-choice,116,591837,0.0-61.0-1.18,TRUE,FALSE,TRUE,TRUE,"""event"",""trial"",""time""
""fullscreenenter"",""5"",""20487""
","
","
","""event"",""trial"",""time""
""fullscreenenter"",""5"",""20487""
","
",508.3149999845773,NA,49,NA,NA,3000,1,NA,NA,images/tutgreenplanet.jpg,images/tutalien2,images/tutalien1,images/tutrocket2,images/tutalien1,images/t.png,2,practice,true,1,common,1,2020-07-02T17:47:04Z,sub112
two-step-fixation,117,592842,0.0-61.0-2.18,TRUE,FALSE,TRUE,TRUE,"""event"",""trial"",""time""
""fullscreenenter"",""5"",""20487""
","
","
","""event"",""trial"",""time""
""fullscreenenter"",""5"",""20487""
","
",NA,images/earth.jpg,NA,NA,NA,NA,NA,NA,NA,NA,NA,NA,NA,NA,NA,fixation,NA,NA,NA,NA,NA,NA,sub112
d3-animate-choice,118,596135,0.0-61.0-0.19,TRUE,FALSE,TRUE,TRUE,"""event"",""trial"",""time""
""fullscreenenter"",""5"",""20487""
","
","
","""event"",""trial"",""time""
""fullscreenenter"",""5"",""20487""
","
",1289.2700000666082,NA,48,NA,NA,3000,1,NA,NA,images/earth.jpg,images/tutrocket1,images/tutrocket2,null,images/tutrocket1,NA,1,practice,null,2,NA,NA,NA,sub112
d3-animate-choice,119,598832,0.0-61.0-1.19,TRUE,FALSE,TRUE,TRUE,"""event"",""trial"",""time""
""fullscreenenter"",""5"",""20487""
","
","
","""event"",""trial"",""time""
""fullscreenenter"",""5"",""20487""
","
",694.0050001721829,NA,48,NA,NA,3000,1,NA,NA,images/tutyellowplanet.jpg,images/tutalien4,images/tutalien3,images/tutrocket1,images/tutalien4,images/nothing.png,2,practice,true,2,common,0,2020-07-02T17:47:11Z,sub112
two-step-fixation,120,599837,0.0-61.0-2.19,TRUE,FALSE,TRUE,TRUE,"""event"",""trial"",""time""
""fullscreenenter"",""5"",""20487""
","
","
","""event"",""trial"",""time""
""fullscreenenter"",""5"",""20487""
","
",NA,images/earth.jpg,NA,NA,NA,NA,NA,NA,NA,NA,NA,NA,NA,NA,NA,fixation,NA,NA,NA,NA,NA,NA,sub112
d3-instructions,121,608074,0.0-62.0,TRUE,FALSE,TRUE,TRUE,"""event"",""trial"",""time""
""fullscreenenter"",""5"",""20487""
","
","
","""event"",""trial"",""time""
""fullscreenenter"",""5"",""20487""
","
",NA,NA,NA,NA,NA,NA,NA,NA,NA,NA,NA,NA,NA,NA,NA,NA,NA,NA,NA,NA,NA,NA,sub112
audio-keyboard-response,122,613195,0.0-63.0,TRUE,FALSE,TRUE,TRUE,"""event"",""trial"",""time""
""fullscreenenter"",""5"",""20487""
","
","
","""event"",""trial"",""time""
""fullscreenenter"",""5"",""20487""
","
",5120,audio/instructions/treasure_feedback.wav,32,NA,NA,NA,NA,NA,NA,NA,NA,NA,NA,NA,NA,NA,NA,NA,NA,NA,NA,NA,sub112
d3-instructions,123,632167,0.0-64.0,TRUE,FALSE,TRUE,TRUE,"""event"",""trial"",""time""
""fullscreenenter"",""5"",""20487""
","
","
","""event"",""trial"",""time""
""fullscreenenter"",""5"",""20487""
","
",NA,NA,NA,NA,NA,NA,NA,NA,NA,NA,NA,NA,NA,NA,NA,NA,NA,NA,NA,NA,NA,NA,sub112
d3-instructions,124,646067,0.0-65.0,TRUE,FALSE,TRUE,TRUE,"""event"",""trial"",""time""
""fullscreenenter"",""5"",""20487""
","
","
","""event"",""trial"",""time""
""fullscreenenter"",""5"",""20487""
","
",NA,NA,NA,NA,NA,NA,NA,NA,NA,NA,NA,NA,NA,NA,NA,NA,NA,NA,NA,NA,NA,NA,sub112
d3-instructions,125,670506,0.0-66.0,TRUE,FALSE,TRUE,TRUE,"""event"",""trial"",""time""
""fullscreenenter"",""5"",""20487""
","
","
","""event"",""trial"",""time""
""fullscreenenter"",""5"",""20487""
","
",NA,NA,NA,NA,NA,NA,NA,NA,NA,NA,NA,NA,NA,NA,NA,NA,NA,NA,NA,NA,NA,NA,sub112
d3-instructions,126,686900,0.0-67.0,TRUE,FALSE,TRUE,TRUE,"""event"",""trial"",""time""
""fullscreenenter"",""5"",""20487""
","
","
","""event"",""trial"",""time""
""fullscreenenter"",""5"",""20487""
","
",NA,NA,NA,NA,NA,NA,NA,NA,NA,NA,NA,NA,NA,NA,NA,NA,NA,NA,NA,NA,NA,NA,sub112
d3-instructions,127,695116,0.0-68.0,TRUE,FALSE,TRUE,TRUE,"""event"",""trial"",""time""
""fullscreenenter"",""5"",""20487""
","
","
","""event"",""trial"",""time""
""fullscreenenter"",""5"",""20487""
","
",NA,NA,NA,NA,NA,NA,NA,NA,NA,NA,NA,NA,NA,NA,NA,NA,NA,NA,NA,NA,NA,NA,sub112
instructions-quiz,128,700228,0.0-69.0,TRUE,FALSE,TRUE,TRUE,"""event"",""trial"",""time""
""fullscreenenter"",""5"",""20487""
","
","
","""event"",""trial"",""time""
""fullscreenenter"",""5"",""20487""
","
",5110.355000011623,audio/quiz/Q1_Prompt.wav,NA,1,NA,NA,NA,NA,NA,NA,NA,NA,NA,NA,NA,NA,NA,NA,NA,NA,NA,NA,sub112
audio-keyboard-response,129,709391,0.0-70.0,TRUE,FALSE,TRUE,TRUE,"""event"",""trial"",""time""
""fullscreenenter"",""5"",""20487""
","
","
","""event"",""trial"",""time""
""fullscreenenter"",""5"",""20487""
","
",null,audio/quiz/Q1_Correct.wav,null,NA,NA,NA,NA,NA,NA,NA,NA,NA,NA,NA,NA,NA,NA,NA,NA,NA,NA,NA,sub112
instructions-quiz,130,718630,0.0-71.0,TRUE,FALSE,TRUE,TRUE,"""event"",""trial"",""time""
""fullscreenenter"",""5"",""20487""
","
","
","""event"",""trial"",""time""
""fullscreenenter"",""5"",""20487""
","
",9238.364999881014,audio/quiz/Q2_Prompt.wav,NA,1,NA,NA,NA,NA,NA,NA,NA,NA,NA,NA,NA,NA,NA,NA,NA,NA,NA,NA,sub112
audio-keyboard-response,131,732711,0.0-72.0,TRUE,FALSE,TRUE,TRUE,"""event"",""trial"",""time""
""fullscreenenter"",""5"",""20487""
","
","
","""event"",""trial"",""time""
""fullscreenenter"",""5"",""20487""
","
",null,audio/quiz/Q2_Incorrect.wav,null,NA,NA,NA,NA,NA,NA,NA,NA,NA,NA,NA,NA,NA,NA,NA,NA,NA,NA,NA,sub112
instructions-quiz,132,737559,0.0-73.0,TRUE,FALSE,TRUE,TRUE,"""event"",""trial"",""time""
""fullscreenenter"",""5"",""20487""
","
","
","""event"",""trial"",""time""
""fullscreenenter"",""5"",""20487""
","
",4846.73499991186,audio/quiz/Q3_Prompt.wav,NA,1,NA,NA,NA,NA,NA,NA,NA,NA,NA,NA,NA,NA,NA,NA,NA,NA,NA,NA,sub112
audio-keyboard-response,133,743361,0.0-74.0,TRUE,FALSE,TRUE,TRUE,"""event"",""trial"",""time""
""fullscreenenter"",""5"",""20487""
","
","
","""event"",""trial"",""time""
""fullscreenenter"",""5"",""20487""
","
",null,audio/quiz/Q3_Correct.wav,null,NA,NA,NA,NA,NA,NA,NA,NA,NA,NA,NA,NA,NA,NA,NA,NA,NA,NA,NA,sub112
d3-instructions,134,757420,0.0-75.0,TRUE,FALSE,TRUE,TRUE,"""event"",""trial"",""time""
""fullscreenenter"",""5"",""20487""
","
","
","""event"",""trial"",""time""
""fullscreenenter"",""5"",""20487""
","
",NA,NA,NA,NA,NA,NA,NA,NA,NA,NA,NA,NA,NA,NA,NA,NA,NA,NA,NA,NA,NA,NA,sub112
d3-animate-choice,135,760711,0.0-76.0-0.0,TRUE,FALSE,TRUE,TRUE,"""event"",""trial"",""time""
""fullscreenenter"",""5"",""20487""
","
","
","""event"",""trial"",""time""
""fullscreenenter"",""5"",""20487""
","
",1286.1200000625104,NA,48,NA,NA,3000,1,NA,NA,images/earth.jpg,images/rocket2,images/rocket1,null,images/rocket2,NA,1,real,null,2,NA,NA,NA,sub112
d3-animate-choice,136,764154,0.0-76.0-1.0,TRUE,FALSE,TRUE,TRUE,"""event"",""trial"",""time""
""fullscreenenter"",""5"",""20487""
","
","
","""event"",""trial"",""time""
""fullscreenenter"",""5"",""20487""
","
",1439.7299999836832,NA,49,NA,NA,3000,1,NA,NA,images/redplanet1.jpg,images/alien2,images/alien1,images/rocket2,images/alien1,images/t.png,2,real,true,1,common,1,2020-07-02T17:49:56Z,sub112
two-step-fixation,137,765157,0.0-76.0-2.0,TRUE,FALSE,TRUE,TRUE,"""event"",""trial"",""time""
""fullscreenenter"",""5"",""20487""
","
","
","""event"",""trial"",""time""
""fullscreenenter"",""5"",""20487""
","
",NA,images/earth.jpg,NA,NA,NA,NA,NA,NA,NA,NA,NA,NA,NA,NA,NA,fixation,NA,NA,NA,NA,NA,NA,sub112
d3-animate-choice,138,767923,0.0-76.0-0.1,TRUE,FALSE,TRUE,TRUE,"""event"",""trial"",""time""
""fullscreenenter"",""5"",""20487""
","
","
","""event"",""trial"",""time""
""fullscreenenter"",""5"",""20487""
","
",762.6499999314547,NA,49,NA,NA,3000,1,NA,NA,images/earth.jpg,images/rocket2,images/rocket1,null,images/rocket1,NA,1,real,null,1,NA,NA,NA,sub112
d3-animate-choice,139,771328,0.0-76.0-1.1,TRUE,FALSE,TRUE,TRUE,"""event"",""trial"",""time""
""fullscreenenter"",""5"",""20487""
","
","
","""event"",""trial"",""time""
""fullscreenenter"",""5"",""20487""
","
",1400.1499998848885,NA,49,NA,NA,3000,1,NA,NA,images/purpleplanet.jpg,images/alien4,images/alien3,images/rocket1,images/alien3,images/t.png,2,real,true,1,common,1,2020-07-02T17:50:03Z,sub112
two-step-fixation,140,772332,0.0-76.0-2.1,TRUE,FALSE,TRUE,TRUE,"""event"",""trial"",""time""
""fullscreenenter"",""5"",""20487""
","
","
","""event"",""trial"",""time""
""fullscreenenter"",""5"",""20487""
","
",NA,images/earth.jpg,NA,NA,NA,NA,NA,NA,NA,NA,NA,NA,NA,NA,NA,fixation,NA,NA,NA,NA,NA,NA,sub112
d3-animate-choice,141,774803,0.0-76.0-0.2,TRUE,FALSE,TRUE,TRUE,"""event"",""trial"",""time""
""fullscreenenter"",""5"",""20487""
","
","
","""event"",""trial"",""time""
""fullscreenenter"",""5"",""20487""
","
",467.3349999357015,NA,48,NA,NA,3000,1,NA,NA,images/earth.jpg,images/rocket2,images/rocket1,null,images/rocket2,NA,1,real,null,2,NA,NA,NA,sub112
d3-animate-choice,142,778234,0.0-76.0-1.2,TRUE,FALSE,TRUE,TRUE,"""event"",""trial"",""time""
""fullscreenenter"",""5"",""20487""
","
","
","""event"",""trial"",""time""
""fullscreenenter"",""5"",""20487""
","
",1426.3249998912215,NA,49,NA,NA,3000,1,NA,NA,images/redplanet1.jpg,images/alien2,images/alien1,images/rocket2,images/alien1,images/t.png,2,real,true,1,common,1,2020-07-02T17:50:10Z,sub112
two-step-fixation,143,779238,0.0-76.0-2.2,TRUE,FALSE,TRUE,TRUE,"""event"",""trial"",""time""
""fullscreenenter"",""5"",""20487""
","
","
","""event"",""trial"",""time""
""fullscreenenter"",""5"",""20487""
","
",NA,images/earth.jpg,NA,NA,NA,NA,NA,NA,NA,NA,NA,NA,NA,NA,NA,fixation,NA,NA,NA,NA,NA,NA,sub112
d3-animate-choice,144,781775,0.0-76.0-0.3,TRUE,FALSE,TRUE,TRUE,"""event"",""trial"",""time""
""fullscreenenter"",""5"",""20487""
","
","
","""event"",""trial"",""time""
""fullscreenenter"",""5"",""20487""
","
",533.9049999602139,NA,49,NA,NA,3000,1,NA,NA,images/earth.jpg,images/rocket2,images/rocket1,null,images/rocket1,NA,1,real,null,1,NA,NA,NA,sub112
d3-animate-choice,145,784903,0.0-76.0-1.3,TRUE,FALSE,TRUE,TRUE,"""event"",""trial"",""time""
""fullscreenenter"",""5"",""20487""
","
","
","""event"",""trial"",""time""
""fullscreenenter"",""5"",""20487""
","
",1123.45499987714,NA,48,NA,NA,3000,1,NA,NA,images/purpleplanet.jpg,images/alien4,images/alien3,images/rocket1,images/alien4,images/t.png,2,real,true,2,common,1,2020-07-02T17:50:17Z,sub112
two-step-fixation,146,785906,0.0-76.0-2.3,TRUE,FALSE,TRUE,TRUE,"""event"",""trial"",""time""
""fullscreenenter"",""5"",""20487""
","
","
","""event"",""trial"",""time""
""fullscreenenter"",""5"",""20487""
","
",NA,images/earth.jpg,NA,NA,NA,NA,NA,NA,NA,NA,NA,NA,NA,NA,NA,fixation,NA,NA,NA,NA,NA,NA,sub112
d3-animate-choice,147,788682,0.0-76.0-0.4,TRUE,FALSE,TRUE,TRUE,"""event"",""trial"",""time""
""fullscreenenter"",""5"",""20487""
","
","
","""event"",""trial"",""time""
""fullscreenenter"",""5"",""20487""
","
",770.7199999131262,NA,48,NA,NA,3000,1,NA,NA,images/earth.jpg,images/rocket2,images/rocket1,null,images/rocket2,NA,1,real,null,2,NA,NA,NA,sub112
d3-animate-choice,148,792019,0.0-76.0-1.4,TRUE,FALSE,TRUE,TRUE,"""event"",""trial"",""time""
""fullscreenenter"",""5"",""20487""
","
","
","""event"",""trial"",""time""
""fullscreenenter"",""5"",""20487""
","
",1332.810000050813,NA,49,NA,NA,3000,1,NA,NA,images/redplanet1.jpg,images/alien2,images/alien1,images/rocket2,images/alien1,images/t.png,2,real,true,1,common,1,2020-07-02T17:50:24Z,sub112
two-step-fixation,149,793022,0.0-76.0-2.4,TRUE,FALSE,TRUE,TRUE,"""event"",""trial"",""time""
""fullscreenenter"",""5"",""20487""
","
","
","""event"",""trial"",""time""
""fullscreenenter"",""5"",""20487""
","
",NA,images/earth.jpg,NA,NA,NA,NA,NA,NA,NA,NA,NA,NA,NA,NA,NA,fixation,NA,NA,NA,NA,NA,NA,sub112
d3-animate-choice,150,795476,0.0-76.0-0.5,TRUE,FALSE,TRUE,TRUE,"""event"",""trial"",""time""
""fullscreenenter"",""5"",""20487""
","
","
","""event"",""trial"",""time""
""fullscreenenter"",""5"",""20487""
","
",449.9600001145154,NA,49,NA,NA,3000,1,NA,NA,images/earth.jpg,images/rocket2,images/rocket1,null,images/rocket1,NA,1,real,null,1,NA,NA,NA,sub112
d3-animate-choice,151,798914,0.0-76.0-1.5,TRUE,FALSE,TRUE,TRUE,"""event"",""trial"",""time""
""fullscreenenter"",""5"",""20487""
","
","
","""event"",""trial"",""time""
""fullscreenenter"",""5"",""20487""
","
",1433.3250001072884,NA,49,NA,NA,3000,1,NA,NA,images/purpleplanet.jpg,images/alien4,images/alien3,images/rocket1,images/alien3,images/nothing.png,2,real,true,1,common,0,2020-07-02T17:50:31Z,sub112
two-step-fixation,152,799917,0.0-76.0-2.5,TRUE,FALSE,TRUE,TRUE,"""event"",""trial"",""time""
""fullscreenenter"",""5"",""20487""
","
","
","""event"",""trial"",""time""
""fullscreenenter"",""5"",""20487""
","
",NA,images/earth.jpg,NA,NA,NA,NA,NA,NA,NA,NA,NA,NA,NA,NA,NA,fixation,NA,NA,NA,NA,NA,NA,sub112
d3-animate-choice,153,802441,0.0-76.0-0.6,TRUE,FALSE,TRUE,TRUE,"""event"",""trial"",""time""
""fullscreenenter"",""5"",""20487""
","
","
","""event"",""trial"",""time""
""fullscreenenter"",""5"",""20487""
","
",520.0300000142306,NA,49,NA,NA,3000,1,NA,NA,images/earth.jpg,images/rocket2,images/rocket1,null,images/rocket1,NA,1,real,null,1,NA,NA,NA,sub112
d3-animate-choice,154,805431,0.0-76.0-1.6,TRUE,FALSE,TRUE,TRUE,"""event"",""trial"",""time""
""fullscreenenter"",""5"",""20487""
","
","
","""event"",""trial"",""time""
""fullscreenenter"",""5"",""20487""
","
",986.9999999646097,NA,48,NA,NA,3000,1,NA,NA,images/purpleplanet.jpg,images/alien4,images/alien3,images/rocket1,images/alien4,images/nothing.png,2,real,true,2,common,0,2020-07-02T17:50:37Z,sub112
two-step-fixation,155,806434,0.0-76.0-2.6,TRUE,FALSE,TRUE,TRUE,"""event"",""trial"",""time""
""fullscreenenter"",""5"",""20487""
","
","
","""event"",""trial"",""time""
""fullscreenenter"",""5"",""20487""
","
",NA,images/earth.jpg,NA,NA,NA,NA,NA,NA,NA,NA,NA,NA,NA,NA,NA,fixation,NA,NA,NA,NA,NA,NA,sub112
d3-animate-choice,156,808942,0.0-76.0-0.7,TRUE,FALSE,TRUE,TRUE,"""event"",""trial"",""time""
""fullscreenenter"",""5"",""20487""
","
","
","""event"",""trial"",""time""
""fullscreenenter"",""5"",""20487""
","
",504.4650000054389,NA,48,NA,NA,3000,1,NA,NA,images/earth.jpg,images/rocket2,images/rocket1,null,images/rocket2,NA,1,real,null,2,NA,NA,NA,sub112
d3-animate-choice,157,811805,0.0-76.0-1.7,TRUE,FALSE,TRUE,TRUE,"""event"",""trial"",""time""
""fullscreenenter"",""5"",""20487""
","
","
","""event"",""trial"",""time""
""fullscreenenter"",""5"",""20487""
","
",858.6750000249594,NA,48,NA,NA,3000,1,NA,NA,images/redplanet1.jpg,images/alien2,images/alien1,images/rocket2,images/alien2,images/t.png,2,real,true,2,common,1,2020-07-02T17:50:44Z,sub112
two-step-fixation,158,812808,0.0-76.0-2.7,TRUE,FALSE,TRUE,TRUE,"""event"",""trial"",""time""
""fullscreenenter"",""5"",""20487""
","
","
","""event"",""trial"",""time""
""fullscreenenter"",""5"",""20487""
","
",NA,images/earth.jpg,NA,NA,NA,NA,NA,NA,NA,NA,NA,NA,NA,NA,NA,fixation,NA,NA,NA,NA,NA,NA,sub112
d3-animate-choice,159,815363,0.0-76.0-0.8,TRUE,FALSE,TRUE,TRUE,"""event"",""trial"",""time""
""fullscreenenter"",""5"",""20487""
","
","
","""event"",""trial"",""time""
""fullscreenenter"",""5"",""20487""
","
",550.7000000216067,NA,48,NA,NA,3000,1,NA,NA,images/earth.jpg,images/rocket2,images/rocket1,null,images/rocket2,NA,1,real,null,2,NA,NA,NA,sub112
d3-animate-choice,160,818089,0.0-76.0-1.8,TRUE,FALSE,TRUE,TRUE,"""event"",""trial"",""time""
""fullscreenenter"",""5"",""20487""
","
","
","""event"",""trial"",""time""
""fullscreenenter"",""5"",""20487""
","
",721.8500000890344,NA,48,NA,NA,3000,1,NA,NA,images/purpleplanet.jpg,images/alien4,images/alien3,images/rocket2,images/alien4,images/t.png,2,real,false,2,rare,1,2020-07-02T17:50:50Z,sub112
two-step-fixation,161,819092,0.0-76.0-2.8,TRUE,FALSE,TRUE,TRUE,"""event"",""trial"",""time""
""fullscreenenter"",""5"",""20487""
","
","
","""event"",""trial"",""time""
""fullscreenenter"",""5"",""20487""
","
",NA,images/earth.jpg,NA,NA,NA,NA,NA,NA,NA,NA,NA,NA,NA,NA,NA,fixation,NA,NA,NA,NA,NA,NA,sub112
d3-animate-choice,162,821527,0.0-76.0-0.9,TRUE,FALSE,TRUE,TRUE,"""event"",""trial"",""time""
""fullscreenenter"",""5"",""20487""
","
","
","""event"",""trial"",""time""
""fullscreenenter"",""5"",""20487""
","
",430.9600000269711,NA,48,NA,NA,3000,1,NA,NA,images/earth.jpg,images/rocket2,images/rocket1,null,images/rocket2,NA,1,real,null,2,NA,NA,NA,sub112
d3-animate-choice,163,824832,0.0-76.0-1.9,TRUE,FALSE,TRUE,TRUE,"""event"",""trial"",""time""
""fullscreenenter"",""5"",""20487""
","
","
","""event"",""trial"",""time""
""fullscreenenter"",""5"",""20487""
","
",1301.780000096187,NA,49,NA,NA,3000,1,NA,NA,images/redplanet1.jpg,images/alien2,images/alien1,images/rocket2,images/alien1,images/nothing.png,2,real,true,1,common,0,2020-07-02T17:50:57Z,sub112
two-step-fixation,164,825835,0.0-76.0-2.9,TRUE,FALSE,TRUE,TRUE,"""event"",""trial"",""time""
""fullscreenenter"",""5"",""20487""
","
","
","""event"",""trial"",""time""
""fullscreenenter"",""5"",""20487""
","
",NA,images/earth.jpg,NA,NA,NA,NA,NA,NA,NA,NA,NA,NA,NA,NA,NA,fixation,NA,NA,NA,NA,NA,NA,sub112
d3-animate-choice,165,828056,0.0-76.0-0.10,TRUE,FALSE,TRUE,TRUE,"""event"",""trial"",""time""
""fullscreenenter"",""5"",""20487""
","
","
","""event"",""trial"",""time""
""fullscreenenter"",""5"",""20487""
","
",217.42000011727214,NA,49,NA,NA,3000,1,NA,NA,images/earth.jpg,images/rocket2,images/rocket1,null,images/rocket1,NA,1,real,null,1,NA,NA,NA,sub112
d3-animate-choice,166,831284,0.0-76.0-1.10,TRUE,FALSE,TRUE,TRUE,"""event"",""trial"",""time""
""fullscreenenter"",""5"",""20487""
","
","
","""event"",""trial"",""time""
""fullscreenenter"",""5"",""20487""
","
",1224.3900001049042,NA,49,NA,NA,3000,1,NA,NA,images/purpleplanet.jpg,images/alien4,images/alien3,images/rocket1,images/alien3,images/t.png,2,real,true,1,common,1,2020-07-02T17:51:03Z,sub112
two-step-fixation,167,832287,0.0-76.0-2.10,TRUE,FALSE,TRUE,TRUE,"""event"",""trial"",""time""
""fullscreenenter"",""5"",""20487""
","
","
","""event"",""trial"",""time""
""fullscreenenter"",""5"",""20487""
","
",NA,images/earth.jpg,NA,NA,NA,NA,NA,NA,NA,NA,NA,NA,NA,NA,NA,fixation,NA,NA,NA,NA,NA,NA,sub112
d3-animate-choice,168,835183,0.0-76.0-0.11,TRUE,FALSE,TRUE,TRUE,"""event"",""trial"",""time""
""fullscreenenter"",""5"",""20487""
","
","
","""event"",""trial"",""time""
""fullscreenenter"",""5"",""20487""
","
",892.4300000071526,NA,49,NA,NA,3000,1,NA,NA,images/earth.jpg,images/rocket2,images/rocket1,null,images/rocket1,NA,1,real,null,1,NA,NA,NA,sub112
d3-animate-choice,169,837890,0.0-76.0-1.11,TRUE,FALSE,TRUE,TRUE,"""event"",""trial"",""time""
""fullscreenenter"",""5"",""20487""
","
","
","""event"",""trial"",""time""
""fullscreenenter"",""5"",""20487""
","
",703.3650001976639,NA,48,NA,NA,3000,1,NA,NA,images/purpleplanet.jpg,images/alien4,images/alien3,images/rocket1,images/alien4,images/nothing.png,2,real,true,2,common,0,2020-07-02T17:51:10Z,sub112
two-step-fixation,170,838893,0.0-76.0-2.11,TRUE,FALSE,TRUE,TRUE,"""event"",""trial"",""time""
""fullscreenenter"",""5"",""20487""
","
","
","""event"",""trial"",""time""
""fullscreenenter"",""5"",""20487""
","
",NA,images/earth.jpg,NA,NA,NA,NA,NA,NA,NA,NA,NA,NA,NA,NA,NA,fixation,NA,NA,NA,NA,NA,NA,sub112
d3-animate-choice,171,841206,0.0-76.0-0.12,TRUE,FALSE,TRUE,TRUE,"""event"",""trial"",""time""
""fullscreenenter"",""5"",""20487""
","
","
","""event"",""trial"",""time""
""fullscreenenter"",""5"",""20487""
","
",309.2750001233071,NA,48,NA,NA,3000,1,NA,NA,images/earth.jpg,images/rocket2,images/rocket1,null,images/rocket2,NA,1,real,null,2,NA,NA,NA,sub112
d3-animate-choice,172,844076,0.0-76.0-1.12,TRUE,FALSE,TRUE,TRUE,"""event"",""trial"",""time""
""fullscreenenter"",""5"",""20487""
","
","
","""event"",""trial"",""time""
""fullscreenenter"",""5"",""20487""
","
",865.8000000286847,NA,48,NA,NA,3000,1,NA,NA,images/redplanet1.jpg,images/alien2,images/alien1,images/rocket2,images/alien2,images/t.png,2,real,true,2,common,1,2020-07-02T17:51:16Z,sub112
two-step-fixation,173,845080,0.0-76.0-2.12,TRUE,FALSE,TRUE,TRUE,"""event"",""trial"",""time""
""fullscreenenter"",""5"",""20487""
","
","
","""event"",""trial"",""time""
""fullscreenenter"",""5"",""20487""
","
",NA,images/earth.jpg,NA,NA,NA,NA,NA,NA,NA,NA,NA,NA,NA,NA,NA,fixation,NA,NA,NA,NA,NA,NA,sub112
d3-animate-choice,174,847775,0.0-76.0-0.13,TRUE,FALSE,TRUE,TRUE,"""event"",""trial"",""time""
""fullscreenenter"",""5"",""20487""
","
","
","""event"",""trial"",""time""
""fullscreenenter"",""5"",""20487""
","
",690.9300000406802,NA,49,NA,NA,3000,1,NA,NA,images/earth.jpg,images/rocket2,images/rocket1,null,images/rocket1,NA,1,real,null,1,NA,NA,NA,sub112
d3-animate-choice,175,851158,0.0-76.0-1.13,TRUE,FALSE,TRUE,TRUE,"""event"",""trial"",""time""
""fullscreenenter"",""5"",""20487""
","
","
","""event"",""trial"",""time""
""fullscreenenter"",""5"",""20487""
","
",1378.3299999777228,NA,49,NA,NA,3000,1,NA,NA,images/purpleplanet.jpg,images/alien4,images/alien3,images/rocket1,images/alien3,images/nothing.png,2,real,true,1,common,0,2020-07-02T17:51:23Z,sub112
two-step-fixation,176,852162,0.0-76.0-2.13,TRUE,FALSE,TRUE,TRUE,"""event"",""trial"",""time""
""fullscreenenter"",""5"",""20487""
","
","
","""event"",""trial"",""time""
""fullscreenenter"",""5"",""20487""
","
",NA,images/earth.jpg,NA,NA,NA,NA,NA,NA,NA,NA,NA,NA,NA,NA,NA,fixation,NA,NA,NA,NA,NA,NA,sub112
d3-animate-choice,177,854516,0.0-76.0-0.14,TRUE,FALSE,TRUE,TRUE,"""event"",""trial"",""time""
""fullscreenenter"",""5"",""20487""
","
","
","""event"",""trial"",""time""
""fullscreenenter"",""5"",""20487""
","
",349.84499984420836,NA,48,NA,NA,3000,1,NA,NA,images/earth.jpg,images/rocket2,images/rocket1,null,images/rocket2,NA,1,real,null,2,NA,NA,NA,sub112
d3-animate-choice,178,857716,0.0-76.0-1.14,TRUE,FALSE,TRUE,TRUE,"""event"",""trial"",""time""
""fullscreenenter"",""5"",""20487""
","
","
","""event"",""trial"",""time""
""fullscreenenter"",""5"",""20487""
","
",1195.5350001808256,NA,49,NA,NA,3000,1,NA,NA,images/redplanet1.jpg,images/alien2,images/alien1,images/rocket2,images/alien1,images/nothing.png,2,real,true,1,common,0,2020-07-02T17:51:30Z,sub112
two-step-fixation,179,858719,0.0-76.0-2.14,TRUE,FALSE,TRUE,TRUE,"""event"",""trial"",""time""
""fullscreenenter"",""5"",""20487""
","
","
","""event"",""trial"",""time""
""fullscreenenter"",""5"",""20487""
","
",NA,images/earth.jpg,NA,NA,NA,NA,NA,NA,NA,NA,NA,NA,NA,NA,NA,fixation,NA,NA,NA,NA,NA,NA,sub112
d3-animate-choice,180,861229,0.0-76.0-0.15,TRUE,FALSE,TRUE,TRUE,"""event"",""trial"",""time""
""fullscreenenter"",""5"",""20487""
","
","
","""event"",""trial"",""time""
""fullscreenenter"",""5"",""20487""
","
",506.67500006966293,NA,48,NA,NA,3000,1,NA,NA,images/earth.jpg,images/rocket2,images/rocket1,null,images/rocket2,NA,1,real,null,2,NA,NA,NA,sub112
d3-animate-choice,181,863753,0.0-76.0-1.15,TRUE,FALSE,TRUE,TRUE,"""event"",""trial"",""time""
""fullscreenenter"",""5"",""20487""
","
","
","""event"",""trial"",""time""
""fullscreenenter"",""5"",""20487""
","
",519.0500000026077,NA,48,NA,NA,3000,1,NA,NA,images/redplanet1.jpg,images/alien2,images/alien1,images/rocket2,images/alien2,images/t.png,2,real,true,2,common,1,2020-07-02T17:51:36Z,sub112
two-step-fixation,182,864756,0.0-76.0-2.15,TRUE,FALSE,TRUE,TRUE,"""event"",""trial"",""time""
""fullscreenenter"",""5"",""20487""
","
","
","""event"",""trial"",""time""
""fullscreenenter"",""5"",""20487""
","
",NA,images/earth.jpg,NA,NA,NA,NA,NA,NA,NA,NA,NA,NA,NA,NA,NA,fixation,NA,NA,NA,NA,NA,NA,sub112
d3-animate-choice,183,867022,0.0-76.0-0.16,TRUE,FALSE,TRUE,TRUE,"""event"",""trial"",""time""
""fullscreenenter"",""5"",""20487""
","
","
","""event"",""trial"",""time""
""fullscreenenter"",""5"",""20487""
","
",262.7850000280887,NA,48,NA,NA,3000,1,NA,NA,images/earth.jpg,images/rocket2,images/rocket1,null,images/rocket2,NA,1,real,null,2,NA,NA,NA,sub112
d3-animate-choice,184,869481,0.0-76.0-1.16,TRUE,FALSE,TRUE,TRUE,"""event"",""trial"",""time""
""fullscreenenter"",""5"",""20487""
","
","
","""event"",""trial"",""time""
""fullscreenenter"",""5"",""20487""
","
",454.8599999397993,NA,48,NA,NA,3000,1,NA,NA,images/redplanet1.jpg,images/alien2,images/alien1,images/rocket2,images/alien2,images/t.png,2,real,true,2,common,1,2020-07-02T17:51:41Z,sub112
two-step-fixation,185,870485,0.0-76.0-2.16,TRUE,FALSE,TRUE,TRUE,"""event"",""trial"",""time""
""fullscreenenter"",""5"",""20487""
","
","
","""event"",""trial"",""time""
""fullscreenenter"",""5"",""20487""
","
",NA,images/earth.jpg,NA,NA,NA,NA,NA,NA,NA,NA,NA,NA,NA,NA,NA,fixation,NA,NA,NA,NA,NA,NA,sub112
d3-animate-choice,186,872777,0.0-76.0-0.17,TRUE,FALSE,TRUE,TRUE,"""event"",""trial"",""time""
""fullscreenenter"",""5"",""20487""
","
","
","""event"",""trial"",""time""
""fullscreenenter"",""5"",""20487""
","
",287.4700000975281,NA,48,NA,NA,3000,1,NA,NA,images/earth.jpg,images/rocket2,images/rocket1,null,images/rocket2,NA,1,real,null,2,NA,NA,NA,sub112
d3-animate-choice,187,875182,0.0-76.0-1.17,TRUE,FALSE,TRUE,TRUE,"""event"",""trial"",""time""
""fullscreenenter"",""5"",""20487""
","
","
","""event"",""trial"",""time""
""fullscreenenter"",""5"",""20487""
","
",401.43000008538365,NA,48,NA,NA,3000,1,NA,NA,images/redplanet1.jpg,images/alien2,images/alien1,images/rocket2,images/alien2,images/t.png,2,real,true,2,common,1,2020-07-02T17:51:47Z,sub112
two-step-fixation,188,876185,0.0-76.0-2.17,TRUE,FALSE,TRUE,TRUE,"""event"",""trial"",""time""
""fullscreenenter"",""5"",""20487""
","
","
","""event"",""trial"",""time""
""fullscreenenter"",""5"",""20487""
","
",NA,images/earth.jpg,NA,NA,NA,NA,NA,NA,NA,NA,NA,NA,NA,NA,NA,fixation,NA,NA,NA,NA,NA,NA,sub112
d3-animate-choice,189,878568,0.0-76.0-0.18,TRUE,FALSE,TRUE,TRUE,"""event"",""trial"",""time""
""fullscreenenter"",""5"",""20487""
","
","
","""event"",""trial"",""time""
""fullscreenenter"",""5"",""20487""
","
",378.9450000040233,NA,48,NA,NA,3000,1,NA,NA,images/earth.jpg,images/rocket2,images/rocket1,null,images/rocket2,NA,1,real,null,2,NA,NA,NA,sub112
d3-animate-choice,190,880968,0.0-76.0-1.18,TRUE,FALSE,TRUE,TRUE,"""event"",""trial"",""time""
""fullscreenenter"",""5"",""20487""
","
","
","""event"",""trial"",""time""
""fullscreenenter"",""5"",""20487""
","
",396.9450001604855,NA,48,NA,NA,3000,1,NA,NA,images/redplanet1.jpg,images/alien2,images/alien1,images/rocket2,images/alien2,images/nothing.png,2,real,true,2,common,0,2020-07-02T17:51:53Z,sub112
two-step-fixation,191,881973,0.0-76.0-2.18,TRUE,FALSE,TRUE,TRUE,"""event"",""trial"",""time""
""fullscreenenter"",""5"",""20487""
","
","
","""event"",""trial"",""time""
""fullscreenenter"",""5"",""20487""
","
",NA,images/earth.jpg,NA,NA,NA,NA,NA,NA,NA,NA,NA,NA,NA,NA,NA,fixation,NA,NA,NA,NA,NA,NA,sub112
d3-animate-choice,192,884637,0.0-76.0-0.19,TRUE,FALSE,TRUE,TRUE,"""event"",""trial"",""time""
""fullscreenenter"",""5"",""20487""
","
","
","""event"",""trial"",""time""
""fullscreenenter"",""5"",""20487""
","
",660.3649999015033,NA,49,NA,NA,3000,1,NA,NA,images/earth.jpg,images/rocket2,images/rocket1,null,images/rocket1,NA,1,real,null,1,NA,NA,NA,sub112
d3-animate-choice,193,887909,0.0-76.0-1.19,TRUE,FALSE,TRUE,TRUE,"""event"",""trial"",""time""
""fullscreenenter"",""5"",""20487""
","
","
","""event"",""trial"",""time""
""fullscreenenter"",""5"",""20487""
","
",1269.6150001138449,NA,49,NA,NA,3000,1,NA,NA,images/purpleplanet.jpg,images/alien4,images/alien3,images/rocket1,images/alien3,images/nothing.png,2,real,true,1,common,0,2020-07-02T17:52:00Z,sub112
two-step-fixation,194,888913,0.0-76.0-2.19,TRUE,FALSE,TRUE,TRUE,"""event"",""trial"",""time""
""fullscreenenter"",""5"",""20487""
","
","
","""event"",""trial"",""time""
""fullscreenenter"",""5"",""20487""
","
",NA,images/earth.jpg,NA,NA,NA,NA,NA,NA,NA,NA,NA,NA,NA,NA,NA,fixation,NA,NA,NA,NA,NA,NA,sub112
d3-animate-choice,195,891182,0.0-76.0-0.20,TRUE,FALSE,TRUE,TRUE,"""event"",""trial"",""time""
""fullscreenenter"",""5"",""20487""
","
","
","""event"",""trial"",""time""
""fullscreenenter"",""5"",""20487""
","
",265.5249999370426,NA,49,NA,NA,3000,1,NA,NA,images/earth.jpg,images/rocket2,images/rocket1,null,images/rocket1,NA,1,real,null,1,NA,NA,NA,sub112
d3-animate-choice,196,894159,0.0-76.0-1.20,TRUE,FALSE,TRUE,TRUE,"""event"",""trial"",""time""
""fullscreenenter"",""5"",""20487""
","
","
","""event"",""trial"",""time""
""fullscreenenter"",""5"",""20487""
","
",973.9900000859052,NA,48,NA,NA,3000,1,NA,NA,images/purpleplanet.jpg,images/alien4,images/alien3,images/rocket1,images/alien4,images/nothing.png,2,real,true,2,common,0,2020-07-02T17:52:06Z,sub112
two-step-fixation,197,895162,0.0-76.0-2.20,TRUE,FALSE,TRUE,TRUE,"""event"",""trial"",""time""
""fullscreenenter"",""5"",""20487""
","
","
","""event"",""trial"",""time""
""fullscreenenter"",""5"",""20487""
","
",NA,images/earth.jpg,NA,NA,NA,NA,NA,NA,NA,NA,NA,NA,NA,NA,NA,fixation,NA,NA,NA,NA,NA,NA,sub112
d3-animate-choice,198,897472,0.0-76.0-0.21,TRUE,FALSE,TRUE,TRUE,"""event"",""trial"",""time""
""fullscreenenter"",""5"",""20487""
","
","
","""event"",""trial"",""time""
""fullscreenenter"",""5"",""20487""
","
",305.9849999845028,NA,48,NA,NA,3000,1,NA,NA,images/earth.jpg,images/rocket2,images/rocket1,null,images/rocket2,NA,1,real,null,2,NA,NA,NA,sub112
d3-animate-choice,199,900715,0.0-76.0-1.21,TRUE,FALSE,TRUE,TRUE,"""event"",""trial"",""time""
""fullscreenenter"",""5"",""20487""
","
","
","""event"",""trial"",""time""
""fullscreenenter"",""5"",""20487""
","
",1239.1399999614805,NA,49,NA,NA,3000,1,NA,NA,images/redplanet1.jpg,images/alien2,images/alien1,images/rocket2,images/alien1,images/t.png,2,real,true,1,common,1,2020-07-02T17:52:13Z,sub112
two-step-fixation,200,901718,0.0-76.0-2.21,TRUE,FALSE,TRUE,TRUE,"""event"",""trial"",""time""
""fullscreenenter"",""5"",""20487""
","
","
","""event"",""trial"",""time""
""fullscreenenter"",""5"",""20487""
","
",NA,images/earth.jpg,NA,NA,NA,NA,NA,NA,NA,NA,NA,NA,NA,NA,NA,fixation,NA,NA,NA,NA,NA,NA,sub112
d3-animate-choice,201,903959,0.0-76.0-0.22,TRUE,FALSE,TRUE,TRUE,"""event"",""trial"",""time""
""fullscreenenter"",""5"",""20487""
","
","
","""event"",""trial"",""time""
""fullscreenenter"",""5"",""20487""
","
",237.2700001578778,NA,48,NA,NA,3000,1,NA,NA,images/earth.jpg,images/rocket2,images/rocket1,null,images/rocket2,NA,1,real,null,2,NA,NA,NA,sub112
d3-animate-choice,202,906392,0.0-76.0-1.22,TRUE,FALSE,TRUE,TRUE,"""event"",""trial"",""time""
""fullscreenenter"",""5"",""20487""
","
","
","""event"",""trial"",""time""
""fullscreenenter"",""5"",""20487""
","
",429.9950001295656,NA,49,NA,NA,3000,1,NA,NA,images/redplanet1.jpg,images/alien2,images/alien1,images/rocket2,images/alien1,images/t.png,2,real,true,1,common,1,2020-07-02T17:52:18Z,sub112
two-step-fixation,203,907396,0.0-76.0-2.22,TRUE,FALSE,TRUE,TRUE,"""event"",""trial"",""time""
""fullscreenenter"",""5"",""20487""
","
","
","""event"",""trial"",""time""
""fullscreenenter"",""5"",""20487""
","
",NA,images/earth.jpg,NA,NA,NA,NA,NA,NA,NA,NA,NA,NA,NA,NA,NA,fixation,NA,NA,NA,NA,NA,NA,sub112
d3-animate-choice,204,909682,0.0-76.0-0.23,TRUE,FALSE,TRUE,TRUE,"""event"",""trial"",""time""
""fullscreenenter"",""5"",""20487""
","
","
","""event"",""trial"",""time""
""fullscreenenter"",""5"",""20487""
","
",281.6899998579174,NA,48,NA,NA,3000,1,NA,NA,images/earth.jpg,images/rocket2,images/rocket1,null,images/rocket2,NA,1,real,null,2,NA,NA,NA,sub112
d3-animate-choice,205,912233,0.0-76.0-1.23,TRUE,FALSE,TRUE,TRUE,"""event"",""trial"",""time""
""fullscreenenter"",""5"",""20487""
","
","
","""event"",""trial"",""time""
""fullscreenenter"",""5"",""20487""
","
",546.169999986887,NA,49,NA,NA,3000,1,NA,NA,images/redplanet1.jpg,images/alien2,images/alien1,images/rocket2,images/alien1,images/nothing.png,2,real,true,1,common,0,2020-07-02T17:52:24Z,sub112
two-step-fixation,206,913236,0.0-76.0-2.23,TRUE,FALSE,TRUE,TRUE,"""event"",""trial"",""time""
""fullscreenenter"",""5"",""20487""
","
","
","""event"",""trial"",""time""
""fullscreenenter"",""5"",""20487""
","
",NA,images/earth.jpg,NA,NA,NA,NA,NA,NA,NA,NA,NA,NA,NA,NA,NA,fixation,NA,NA,NA,NA,NA,NA,sub112
d3-animate-choice,207,915480,0.0-76.0-0.24,TRUE,FALSE,TRUE,TRUE,"""event"",""trial"",""time""
""fullscreenenter"",""5"",""20487""
","
","
","""event"",""trial"",""time""
""fullscreenenter"",""5"",""20487""
","
",240.27499998919666,NA,48,NA,NA,3000,1,NA,NA,images/earth.jpg,images/rocket2,images/rocket1,null,images/rocket2,NA,1,real,null,2,NA,NA,NA,sub112
d3-animate-choice,208,918996,0.0-76.0-1.24,TRUE,FALSE,TRUE,TRUE,"""event"",""trial"",""time""
""fullscreenenter"",""5"",""20487""
","
","
","""event"",""trial"",""time""
""fullscreenenter"",""5"",""20487""
","
",1511.6200000047684,NA,48,NA,NA,3000,1,NA,NA,images/purpleplanet.jpg,images/alien4,images/alien3,images/rocket2,images/alien4,images/t.png,2,real,false,2,rare,1,2020-07-02T17:52:31Z,sub112
two-step-fixation,209,919999,0.0-76.0-2.24,TRUE,FALSE,TRUE,TRUE,"""event"",""trial"",""time""
""fullscreenenter"",""5"",""20487""
","
","
","""event"",""trial"",""time""
""fullscreenenter"",""5"",""20487""
","
",NA,images/earth.jpg,NA,NA,NA,NA,NA,NA,NA,NA,NA,NA,NA,NA,NA,fixation,NA,NA,NA,NA,NA,NA,sub112
d3-animate-choice,210,922480,0.0-76.0-0.25,TRUE,FALSE,TRUE,TRUE,"""event"",""trial"",""time""
""fullscreenenter"",""5"",""20487""
","
","
","""event"",""trial"",""time""
""fullscreenenter"",""5"",""20487""
","
",477.28999983519316,NA,48,NA,NA,3000,1,NA,NA,images/earth.jpg,images/rocket2,images/rocket1,null,images/rocket2,NA,1,real,null,2,NA,NA,NA,sub112
d3-animate-choice,211,925727,0.0-76.0-1.25,TRUE,FALSE,TRUE,TRUE,"""event"",""trial"",""time""
""fullscreenenter"",""5"",""20487""
","
","
","""event"",""trial"",""time""
""fullscreenenter"",""5"",""20487""
","
",1243.0350000504404,NA,48,NA,NA,3000,1,NA,NA,images/redplanet1.jpg,images/alien2,images/alien1,images/rocket2,images/alien2,images/t.png,2,real,true,2,common,1,2020-07-02T17:52:38Z,sub112
two-step-fixation,212,926730,0.0-76.0-2.25,TRUE,FALSE,TRUE,TRUE,"""event"",""trial"",""time""
""fullscreenenter"",""5"",""20487""
","
","
","""event"",""trial"",""time""
""fullscreenenter"",""5"",""20487""
","
",NA,images/earth.jpg,NA,NA,NA,NA,NA,NA,NA,NA,NA,NA,NA,NA,NA,fixation,NA,NA,NA,NA,NA,NA,sub112
d3-animate-choice,213,929000,0.0-76.0-0.26,TRUE,FALSE,TRUE,TRUE,"""event"",""trial"",""time""
""fullscreenenter"",""5"",""20487""
","
","
","""event"",""trial"",""time""
""fullscreenenter"",""5"",""20487""
","
",266.0699998959899,NA,48,NA,NA,3000,1,NA,NA,images/earth.jpg,images/rocket2,images/rocket1,null,images/rocket2,NA,1,real,null,2,NA,NA,NA,sub112
d3-animate-choice,214,931714,0.0-76.0-1.26,TRUE,FALSE,TRUE,TRUE,"""event"",""trial"",""time""
""fullscreenenter"",""5"",""20487""
","
","
","""event"",""trial"",""time""
""fullscreenenter"",""5"",""20487""
","
",709.6450000535697,NA,48,NA,NA,3000,1,NA,NA,images/redplanet1.jpg,images/alien2,images/alien1,images/rocket2,images/alien2,images/t.png,2,real,true,2,common,1,2020-07-02T17:52:44Z,sub112
two-step-fixation,215,932718,0.0-76.0-2.26,TRUE,FALSE,TRUE,TRUE,"""event"",""trial"",""time""
""fullscreenenter"",""5"",""20487""
","
","
","""event"",""trial"",""time""
""fullscreenenter"",""5"",""20487""
","
",NA,images/earth.jpg,NA,NA,NA,NA,NA,NA,NA,NA,NA,NA,NA,NA,NA,fixation,NA,NA,NA,NA,NA,NA,sub112
d3-animate-choice,216,934976,0.0-76.0-0.27,TRUE,FALSE,TRUE,TRUE,"""event"",""trial"",""time""
""fullscreenenter"",""5"",""20487""
","
","
","""event"",""trial"",""time""
""fullscreenenter"",""5"",""20487""
","
",254.38000005669892,NA,48,NA,NA,3000,1,NA,NA,images/earth.jpg,images/rocket2,images/rocket1,null,images/rocket2,NA,1,real,null,2,NA,NA,NA,sub112
d3-animate-choice,217,937624,0.0-76.0-1.27,TRUE,FALSE,TRUE,TRUE,"""event"",""trial"",""time""
""fullscreenenter"",""5"",""20487""
","
","
","""event"",""trial"",""time""
""fullscreenenter"",""5"",""20487""
","
",643.4500000905246,NA,48,NA,NA,3000,1,NA,NA,images/purpleplanet.jpg,images/alien4,images/alien3,images/rocket2,images/alien4,images/t.png,2,real,false,2,rare,1,2020-07-02T17:52:50Z,sub112
two-step-fixation,218,938628,0.0-76.0-2.27,TRUE,FALSE,TRUE,TRUE,"""event"",""trial"",""time""
""fullscreenenter"",""5"",""20487""
","
","
","""event"",""trial"",""time""
""fullscreenenter"",""5"",""20487""
","
",NA,images/earth.jpg,NA,NA,NA,NA,NA,NA,NA,NA,NA,NA,NA,NA,NA,fixation,NA,NA,NA,NA,NA,NA,sub112
d3-animate-choice,219,941069,0.0-76.0-0.28,TRUE,FALSE,TRUE,TRUE,"""event"",""trial"",""time""
""fullscreenenter"",""5"",""20487""
","
","
","""event"",""trial"",""time""
""fullscreenenter"",""5"",""20487""
","
",436.65999989025295,NA,48,NA,NA,3000,1,NA,NA,images/earth.jpg,images/rocket2,images/rocket1,null,images/rocket2,NA,1,real,null,2,NA,NA,NA,sub112
d3-animate-choice,220,943880,0.0-76.0-1.28,TRUE,FALSE,TRUE,TRUE,"""event"",""trial"",""time""
""fullscreenenter"",""5"",""20487""
","
","
","""event"",""trial"",""time""
""fullscreenenter"",""5"",""20487""
","
",807.4049998540431,NA,48,NA,NA,3000,1,NA,NA,images/redplanet1.jpg,images/alien2,images/alien1,images/rocket2,images/alien2,images/t.png,2,real,true,2,common,1,2020-07-02T17:52:56Z,sub112
two-step-fixation,221,944884,0.0-76.0-2.28,TRUE,FALSE,TRUE,TRUE,"""event"",""trial"",""time""
""fullscreenenter"",""5"",""20487""
","
","
","""event"",""trial"",""time""
""fullscreenenter"",""5"",""20487""
","
",NA,images/earth.jpg,NA,NA,NA,NA,NA,NA,NA,NA,NA,NA,NA,NA,NA,fixation,NA,NA,NA,NA,NA,NA,sub112
d3-animate-choice,222,947222,0.0-76.0-0.29,TRUE,FALSE,TRUE,TRUE,"""event"",""trial"",""time""
""fullscreenenter"",""5"",""20487""
","
","
","""event"",""trial"",""time""
""fullscreenenter"",""5"",""20487""
","
",335.5500001925975,NA,48,NA,NA,3000,1,NA,NA,images/earth.jpg,images/rocket2,images/rocket1,null,images/rocket2,NA,1,real,null,2,NA,NA,NA,sub112
d3-animate-choice,223,949673,0.0-76.0-1.29,TRUE,FALSE,TRUE,TRUE,"""event"",""trial"",""time""
""fullscreenenter"",""5"",""20487""
","
","
","""event"",""trial"",""time""
""fullscreenenter"",""5"",""20487""
","
",446.65500009432435,NA,48,NA,NA,3000,1,NA,NA,images/purpleplanet.jpg,images/alien4,images/alien3,images/rocket2,images/alien4,images/t.png,2,real,false,2,rare,1,2020-07-02T17:53:02Z,sub112
two-step-fixation,224,950677,0.0-76.0-2.29,TRUE,FALSE,TRUE,TRUE,"""event"",""trial"",""time""
""fullscreenenter"",""5"",""20487""
","
","
","""event"",""trial"",""time""
""fullscreenenter"",""5"",""20487""
","
",NA,images/earth.jpg,NA,NA,NA,NA,NA,NA,NA,NA,NA,NA,NA,NA,NA,fixation,NA,NA,NA,NA,NA,NA,sub112
d3-animate-choice,225,953059,0.0-76.0-0.30,TRUE,FALSE,TRUE,TRUE,"""event"",""trial"",""time""
""fullscreenenter"",""5"",""20487""
","
","
","""event"",""trial"",""time""
""fullscreenenter"",""5"",""20487""
","
",378.09500005096197,NA,48,NA,NA,3000,1,NA,NA,images/earth.jpg,images/rocket2,images/rocket1,null,images/rocket2,NA,1,real,null,2,NA,NA,NA,sub112
d3-animate-choice,226,955768,0.0-76.0-1.30,TRUE,FALSE,TRUE,TRUE,"""event"",""trial"",""time""
""fullscreenenter"",""5"",""20487""
","
","
","""event"",""trial"",""time""
""fullscreenenter"",""5"",""20487""
","
",705.9299999382347,NA,48,NA,NA,3000,1,NA,NA,images/redplanet1.jpg,images/alien2,images/alien1,images/rocket2,images/alien2,images/nothing.png,2,real,true,2,common,0,2020-07-02T17:53:08Z,sub112
two-step-fixation,227,956773,0.0-76.0-2.30,TRUE,FALSE,TRUE,TRUE,"""event"",""trial"",""time""
""fullscreenenter"",""5"",""20487""
","
","
","""event"",""trial"",""time""
""fullscreenenter"",""5"",""20487""
","
",NA,images/earth.jpg,NA,NA,NA,NA,NA,NA,NA,NA,NA,NA,NA,NA,NA,fixation,NA,NA,NA,NA,NA,NA,sub112
d3-animate-choice,228,960326,0.0-76.0-0.31,TRUE,FALSE,TRUE,TRUE,"""event"",""trial"",""time""
""fullscreenenter"",""5"",""20487""
","
","
","""event"",""trial"",""time""
""fullscreenenter"",""5"",""20487""
","
",1549.1450000554323,NA,48,NA,NA,3000,1,NA,NA,images/earth.jpg,images/rocket2,images/rocket1,null,images/rocket2,NA,1,real,null,2,NA,NA,NA,sub112
d3-animate-choice,229,963818,0.0-76.0-1.31,TRUE,FALSE,TRUE,TRUE,"""event"",""trial"",""time""
""fullscreenenter"",""5"",""20487""
","
","
","""event"",""trial"",""time""
""fullscreenenter"",""5"",""20487""
","
",1487.7549998927861,NA,49,NA,NA,3000,1,NA,NA,images/purpleplanet.jpg,images/alien4,images/alien3,images/rocket2,images/alien3,images/t.png,2,real,false,1,rare,1,2020-07-02T17:53:16Z,sub112
two-step-fixation,230,964821,0.0-76.0-2.31,TRUE,FALSE,TRUE,TRUE,"""event"",""trial"",""time""
""fullscreenenter"",""5"",""20487""
","
","
","""event"",""trial"",""time""
""fullscreenenter"",""5"",""20487""
","
",NA,images/earth.jpg,NA,NA,NA,NA,NA,NA,NA,NA,NA,NA,NA,NA,NA,fixation,NA,NA,NA,NA,NA,NA,sub112
d3-animate-choice,231,967181,0.0-76.0-0.32,TRUE,FALSE,TRUE,TRUE,"""event"",""trial"",""time""
""fullscreenenter"",""5"",""20487""
","
","
","""event"",""trial"",""time""
""fullscreenenter"",""5"",""20487""
","
",355.1049998495728,NA,48,NA,NA,3000,1,NA,NA,images/earth.jpg,images/rocket2,images/rocket1,null,images/rocket2,NA,1,real,null,2,NA,NA,NA,sub112
d3-animate-choice,232,970069,0.0-76.0-1.32,TRUE,FALSE,TRUE,TRUE,"""event"",""trial"",""time""
""fullscreenenter"",""5"",""20487""
","
","
","""event"",""trial"",""time""
""fullscreenenter"",""5"",""20487""
","
",884.665000019595,NA,49,NA,NA,3000,1,NA,NA,images/redplanet1.jpg,images/alien2,images/alien1,images/rocket2,images/alien1,images/t.png,2,real,true,1,common,1,2020-07-02T17:53:22Z,sub112
two-step-fixation,233,971073,0.0-76.0-2.32,TRUE,FALSE,TRUE,TRUE,"""event"",""trial"",""time""
""fullscreenenter"",""5"",""20487""
","
","
","""event"",""trial"",""time""
""fullscreenenter"",""5"",""20487""
","
",NA,images/earth.jpg,NA,NA,NA,NA,NA,NA,NA,NA,NA,NA,NA,NA,NA,fixation,NA,NA,NA,NA,NA,NA,sub112
d3-animate-choice,234,973422,0.0-76.0-0.33,TRUE,FALSE,TRUE,TRUE,"""event"",""trial"",""time""
""fullscreenenter"",""5"",""20487""
","
","
","""event"",""trial"",""time""
""fullscreenenter"",""5"",""20487""
","
",346.3249998167157,NA,48,NA,NA,3000,1,NA,NA,images/earth.jpg,images/rocket2,images/rocket1,null,images/rocket2,NA,1,real,null,2,NA,NA,NA,sub112
d3-animate-choice,235,976445,0.0-76.0-1.33,TRUE,FALSE,TRUE,TRUE,"""event"",""trial"",""time""
""fullscreenenter"",""5"",""20487""
","
","
","""event"",""trial"",""time""
""fullscreenenter"",""5"",""20487""
","
",1018.6100001446903,NA,49,NA,NA,3000,1,NA,NA,images/purpleplanet.jpg,images/alien4,images/alien3,images/rocket2,images/alien3,images/nothing.png,2,real,false,1,rare,0,2020-07-02T17:53:28Z,sub112
two-step-fixation,236,977450,0.0-76.0-2.33,TRUE,FALSE,TRUE,TRUE,"""event"",""trial"",""time""
""fullscreenenter"",""5"",""20487""
","
","
","""event"",""trial"",""time""
""fullscreenenter"",""5"",""20487""
","
",NA,images/earth.jpg,NA,NA,NA,NA,NA,NA,NA,NA,NA,NA,NA,NA,NA,fixation,NA,NA,NA,NA,NA,NA,sub112
d3-animate-choice,237,979714,0.0-76.0-0.34,TRUE,FALSE,TRUE,TRUE,"""event"",""trial"",""time""
""fullscreenenter"",""5"",""20487""
","
","
","""event"",""trial"",""time""
""fullscreenenter"",""5"",""20487""
","
",258.42500012367964,NA,48,NA,NA,3000,1,NA,NA,images/earth.jpg,images/rocket2,images/rocket1,null,images/rocket2,NA,1,real,null,2,NA,NA,NA,sub112
d3-animate-choice,238,982565,0.0-76.0-1.34,TRUE,FALSE,TRUE,TRUE,"""event"",""trial"",""time""
""fullscreenenter"",""5"",""20487""
","
","
","""event"",""trial"",""time""
""fullscreenenter"",""5"",""20487""
","
",847.5550001021475,NA,48,NA,NA,3000,1,NA,NA,images/redplanet1.jpg,images/alien2,images/alien1,images/rocket2,images/alien2,images/nothing.png,2,real,true,2,common,0,2020-07-02T17:53:34Z,sub112
two-step-fixation,239,983569,0.0-76.0-2.34,TRUE,FALSE,TRUE,TRUE,"""event"",""trial"",""time""
""fullscreenenter"",""5"",""20487""
","
","
","""event"",""trial"",""time""
""fullscreenenter"",""5"",""20487""
","
",NA,images/earth.jpg,NA,NA,NA,NA,NA,NA,NA,NA,NA,NA,NA,NA,NA,fixation,NA,NA,NA,NA,NA,NA,sub112
d3-animate-choice,240,985839,0.0-76.0-0.35,TRUE,FALSE,TRUE,TRUE,"""event"",""trial"",""time""
""fullscreenenter"",""5"",""20487""
","
","
","""event"",""trial"",""time""
""fullscreenenter"",""5"",""20487""
","
",266.46500010974705,NA,49,NA,NA,3000,1,NA,NA,images/earth.jpg,images/rocket2,images/rocket1,null,images/rocket1,NA,1,real,null,1,NA,NA,NA,sub112
d3-animate-choice,241,989354,0.0-76.0-1.35,TRUE,FALSE,TRUE,TRUE,"""event"",""trial"",""time""
""fullscreenenter"",""5"",""20487""
","
","
","""event"",""trial"",""time""
""fullscreenenter"",""5"",""20487""
","
",1511.3899998832494,NA,49,NA,NA,3000,1,NA,NA,images/purpleplanet.jpg,images/alien4,images/alien3,images/rocket1,images/alien3,images/t.png,2,real,true,1,common,1,2020-07-02T17:53:41Z,sub112
two-step-fixation,242,990358,0.0-76.0-2.35,TRUE,FALSE,TRUE,TRUE,"""event"",""trial"",""time""
""fullscreenenter"",""5"",""20487""
","
","
","""event"",""trial"",""time""
""fullscreenenter"",""5"",""20487""
","
",NA,images/earth.jpg,NA,NA,NA,NA,NA,NA,NA,NA,NA,NA,NA,NA,NA,fixation,NA,NA,NA,NA,NA,NA,sub112
d3-animate-choice,243,992662,0.0-76.0-0.36,TRUE,FALSE,TRUE,TRUE,"""event"",""trial"",""time""
""fullscreenenter"",""5"",""20487""
","
","
","""event"",""trial"",""time""
""fullscreenenter"",""5"",""20487""
","
",299.9899999704212,NA,49,NA,NA,3000,1,NA,NA,images/earth.jpg,images/rocket2,images/rocket1,null,images/rocket1,NA,1,real,null,1,NA,NA,NA,sub112
d3-animate-choice,244,995876,0.0-76.0-1.36,TRUE,FALSE,TRUE,TRUE,"""event"",""trial"",""time""
""fullscreenenter"",""5"",""20487""
","
","
","""event"",""trial"",""time""
""fullscreenenter"",""5"",""20487""
","
",1210.0499998778105,NA,49,NA,NA,3000,1,NA,NA,images/redplanet1.jpg,images/alien2,images/alien1,images/rocket1,images/alien1,images/t.png,2,real,false,1,rare,1,2020-07-02T17:53:48Z,sub112
two-step-fixation,245,996880,0.0-76.0-2.36,TRUE,FALSE,TRUE,TRUE,"""event"",""trial"",""time""
""fullscreenenter"",""5"",""20487""
","
","
","""event"",""trial"",""time""
""fullscreenenter"",""5"",""20487""
","
",NA,images/earth.jpg,NA,NA,NA,NA,NA,NA,NA,NA,NA,NA,NA,NA,NA,fixation,NA,NA,NA,NA,NA,NA,sub112
d3-animate-choice,246,999190,0.0-76.0-0.37,TRUE,FALSE,TRUE,TRUE,"""event"",""trial"",""time""
""fullscreenenter"",""5"",""20487""
","
","
","""event"",""trial"",""time""
""fullscreenenter"",""5"",""20487""
","
",306.43499991856515,NA,49,NA,NA,3000,1,NA,NA,images/earth.jpg,images/rocket2,images/rocket1,null,images/rocket1,NA,1,real,null,1,NA,NA,NA,sub112
d3-animate-choice,247,1001613,0.0-76.0-1.37,TRUE,FALSE,TRUE,TRUE,"""event"",""trial"",""time""
""fullscreenenter"",""5"",""20487""
","
","
","""event"",""trial"",""time""
""fullscreenenter"",""5"",""20487""
","
",419.5200002286583,NA,49,NA,NA,3000,1,NA,NA,images/redplanet1.jpg,images/alien2,images/alien1,images/rocket1,images/alien1,images/nothing.png,2,real,false,1,rare,0,2020-07-02T17:53:53Z,sub112
two-step-fixation,248,1002616,0.0-76.0-2.37,TRUE,FALSE,TRUE,TRUE,"""event"",""trial"",""time""
""fullscreenenter"",""5"",""20487""
","
","
","""event"",""trial"",""time""
""fullscreenenter"",""5"",""20487""
","
",NA,images/earth.jpg,NA,NA,NA,NA,NA,NA,NA,NA,NA,NA,NA,NA,NA,fixation,NA,NA,NA,NA,NA,NA,sub112
d3-animate-choice,249,1004892,0.0-76.0-0.38,TRUE,FALSE,TRUE,TRUE,"""event"",""trial"",""time""
""fullscreenenter"",""5"",""20487""
","
","
","""event"",""trial"",""time""
""fullscreenenter"",""5"",""20487""
","
",272.50000019557774,NA,48,NA,NA,3000,1,NA,NA,images/earth.jpg,images/rocket2,images/rocket1,null,images/rocket2,NA,1,real,null,2,NA,NA,NA,sub112
d3-animate-choice,250,1007756,0.0-76.0-1.38,TRUE,FALSE,TRUE,TRUE,"""event"",""trial"",""time""
""fullscreenenter"",""5"",""20487""
","
","
","""event"",""trial"",""time""
""fullscreenenter"",""5"",""20487""
","
",859.5900000073016,NA,48,NA,NA,3000,1,NA,NA,images/redplanet1.jpg,images/alien2,images/alien1,images/rocket2,images/alien2,images/nothing.png,2,real,true,2,common,0,2020-07-02T17:54:00Z,sub112
two-step-fixation,251,1008759,0.0-76.0-2.38,TRUE,FALSE,TRUE,TRUE,"""event"",""trial"",""time""
""fullscreenenter"",""5"",""20487""
","
","
","""event"",""trial"",""time""
""fullscreenenter"",""5"",""20487""
","
",NA,images/earth.jpg,NA,NA,NA,NA,NA,NA,NA,NA,NA,NA,NA,NA,NA,fixation,NA,NA,NA,NA,NA,NA,sub112
d3-animate-choice,252,1011550,0.0-76.0-0.39,TRUE,FALSE,TRUE,TRUE,"""event"",""trial"",""time""
""fullscreenenter"",""5"",""20487""
","
","
","""event"",""trial"",""time""
""fullscreenenter"",""5"",""20487""
","
",787.8550000023097,NA,49,NA,NA,3000,1,NA,NA,images/earth.jpg,images/rocket2,images/rocket1,null,images/rocket1,NA,1,real,null,1,NA,NA,NA,sub112
d3-animate-choice,253,1015028,0.0-76.0-1.39,TRUE,FALSE,TRUE,TRUE,"""event"",""trial"",""time""
""fullscreenenter"",""5"",""20487""
","
","
","""event"",""trial"",""time""
""fullscreenenter"",""5"",""20487""
","
",1474.9450001399964,NA,48,NA,NA,3000,1,NA,NA,images/purpleplanet.jpg,images/alien4,images/alien3,images/rocket1,images/alien4,images/t.png,2,real,true,2,common,1,2020-07-02T17:54:07Z,sub112
two-step-fixation,254,1016033,0.0-76.0-2.39,TRUE,FALSE,TRUE,TRUE,"""event"",""trial"",""time""
""fullscreenenter"",""5"",""20487""
","
","
","""event"",""trial"",""time""
""fullscreenenter"",""5"",""20487""
","
",NA,images/earth.jpg,NA,NA,NA,NA,NA,NA,NA,NA,NA,NA,NA,NA,NA,fixation,NA,NA,NA,NA,NA,NA,sub112
d3-animate-choice,255,1018335,0.0-76.0-0.40,TRUE,FALSE,TRUE,TRUE,"""event"",""trial"",""time""
""fullscreenenter"",""5"",""20487""
","
","
","""event"",""trial"",""time""
""fullscreenenter"",""5"",""20487""
","
",298.2799999881536,NA,49,NA,NA,3000,1,NA,NA,images/earth.jpg,images/rocket2,images/rocket1,null,images/rocket1,NA,1,real,null,1,NA,NA,NA,sub112
d3-animate-choice,256,1021265,0.0-76.0-1.40,TRUE,FALSE,TRUE,TRUE,"""event"",""trial"",""time""
""fullscreenenter"",""5"",""20487""
","
","
","""event"",""trial"",""time""
""fullscreenenter"",""5"",""20487""
","
",925.6899999454618,NA,48,NA,NA,3000,1,NA,NA,images/purpleplanet.jpg,images/alien4,images/alien3,images/rocket1,images/alien4,images/t.png,2,real,true,2,common,1,2020-07-02T17:54:13Z,sub112
two-step-fixation,257,1022268,0.0-76.0-2.40,TRUE,FALSE,TRUE,TRUE,"""event"",""trial"",""time""
""fullscreenenter"",""5"",""20487""
","
","
","""event"",""trial"",""time""
""fullscreenenter"",""5"",""20487""
","
",NA,images/earth.jpg,NA,NA,NA,NA,NA,NA,NA,NA,NA,NA,NA,NA,NA,fixation,NA,NA,NA,NA,NA,NA,sub112
d3-animate-choice,258,1024496,0.0-76.0-0.41,TRUE,FALSE,TRUE,TRUE,"""event"",""trial"",""time""
""fullscreenenter"",""5"",""20487""
","
","
","""event"",""trial"",""time""
""fullscreenenter"",""5"",""20487""
","
",224.36499991454184,NA,49,NA,NA,3000,1,NA,NA,images/earth.jpg,images/rocket2,images/rocket1,null,images/rocket1,NA,1,real,null,1,NA,NA,NA,sub112
d3-animate-choice,259,1027293,0.0-76.0-1.41,TRUE,FALSE,TRUE,TRUE,"""event"",""trial"",""time""
""fullscreenenter"",""5"",""20487""
","
","
","""event"",""trial"",""time""
""fullscreenenter"",""5"",""20487""
","
",792.9499999154359,NA,48,NA,NA,3000,1,NA,NA,images/purpleplanet.jpg,images/alien4,images/alien3,images/rocket1,images/alien4,images/t.png,2,real,true,2,common,1,2020-07-02T17:54:19Z,sub112
two-step-fixation,260,1028295,0.0-76.0-2.41,TRUE,FALSE,TRUE,TRUE,"""event"",""trial"",""time""
""fullscreenenter"",""5"",""20487""
","
","
","""event"",""trial"",""time""
""fullscreenenter"",""5"",""20487""
","
",NA,images/earth.jpg,NA,NA,NA,NA,NA,NA,NA,NA,NA,NA,NA,NA,NA,fixation,NA,NA,NA,NA,NA,NA,sub112
d3-animate-choice,261,1030678,0.0-76.0-0.42,TRUE,FALSE,TRUE,TRUE,"""event"",""trial"",""time""
""fullscreenenter"",""5"",""20487""
","
","
","""event"",""trial"",""time""
""fullscreenenter"",""5"",""20487""
","
",379.04999987222254,NA,49,NA,NA,3000,1,NA,NA,images/earth.jpg,images/rocket2,images/rocket1,null,images/rocket1,NA,1,real,null,1,NA,NA,NA,sub112
d3-animate-choice,262,1033201,0.0-76.0-1.42,TRUE,FALSE,TRUE,TRUE,"""event"",""trial"",""time""
""fullscreenenter"",""5"",""20487""
","
","
","""event"",""trial"",""time""
""fullscreenenter"",""5"",""20487""
","
",519.109999993816,NA,48,NA,NA,3000,1,NA,NA,images/purpleplanet.jpg,images/alien4,images/alien3,images/rocket1,images/alien4,images/t.png,2,real,true,2,common,1,2020-07-02T17:54:25Z,sub112
two-step-fixation,263,1034205,0.0-76.0-2.42,TRUE,FALSE,TRUE,TRUE,"""event"",""trial"",""time""
""fullscreenenter"",""5"",""20487""
","
","
","""event"",""trial"",""time""
""fullscreenenter"",""5"",""20487""
","
",NA,images/earth.jpg,NA,NA,NA,NA,NA,NA,NA,NA,NA,NA,NA,NA,NA,fixation,NA,NA,NA,NA,NA,NA,sub112
d3-animate-choice,264,1036826,0.0-76.0-0.43,TRUE,FALSE,TRUE,TRUE,"""event"",""trial"",""time""
""fullscreenenter"",""5"",""20487""
","
","
","""event"",""trial"",""time""
""fullscreenenter"",""5"",""20487""
","
",617.1600001398474,NA,49,NA,NA,3000,1,NA,NA,images/earth.jpg,images/rocket2,images/rocket1,null,images/rocket1,NA,1,real,null,1,NA,NA,NA,sub112
d3-animate-choice,265,1039400,0.0-76.0-1.43,TRUE,FALSE,TRUE,TRUE,"""event"",""trial"",""time""
""fullscreenenter"",""5"",""20487""
","
","
","""event"",""trial"",""time""
""fullscreenenter"",""5"",""20487""
","
",570.5900001339614,NA,48,NA,NA,3000,1,NA,NA,images/purpleplanet.jpg,images/alien4,images/alien3,images/rocket1,images/alien4,images/t.png,2,real,true,2,common,1,2020-07-02T17:54:31Z,sub112
two-step-fixation,266,1040404,0.0-76.0-2.43,TRUE,FALSE,TRUE,TRUE,"""event"",""trial"",""time""
""fullscreenenter"",""5"",""20487""
","
","
","""event"",""trial"",""time""
""fullscreenenter"",""5"",""20487""
","
",NA,images/earth.jpg,NA,NA,NA,NA,NA,NA,NA,NA,NA,NA,NA,NA,NA,fixation,NA,NA,NA,NA,NA,NA,sub112
d3-animate-choice,267,1042813,0.0-76.0-0.44,TRUE,FALSE,TRUE,TRUE,"""event"",""trial"",""time""
""fullscreenenter"",""5"",""20487""
","
","
","""event"",""trial"",""time""
""fullscreenenter"",""5"",""20487""
","
",405.4449999239296,NA,49,NA,NA,3000,1,NA,NA,images/earth.jpg,images/rocket2,images/rocket1,null,images/rocket1,NA,1,real,null,1,NA,NA,NA,sub112
d3-animate-choice,268,1045795,0.0-76.0-1.44,TRUE,FALSE,TRUE,TRUE,"""event"",""trial"",""time""
""fullscreenenter"",""5"",""20487""
","
","
","""event"",""trial"",""time""
""fullscreenenter"",""5"",""20487""
","
",979.2200000956655,NA,48,NA,NA,3000,1,NA,NA,images/purpleplanet.jpg,images/alien4,images/alien3,images/rocket1,images/alien4,images/nothing.png,2,real,true,2,common,0,2020-07-02T17:54:38Z,sub112
two-step-fixation,269,1046799,0.0-76.0-2.44,TRUE,FALSE,TRUE,TRUE,"""event"",""trial"",""time""
""fullscreenenter"",""5"",""20487""
","
","
","""event"",""trial"",""time""
""fullscreenenter"",""5"",""20487""
","
",NA,images/earth.jpg,NA,NA,NA,NA,NA,NA,NA,NA,NA,NA,NA,NA,NA,fixation,NA,NA,NA,NA,NA,NA,sub112
d3-animate-choice,270,1049086,0.0-76.0-0.45,TRUE,FALSE,TRUE,TRUE,"""event"",""trial"",""time""
""fullscreenenter"",""5"",""20487""
","
","
","""event"",""trial"",""time""
""fullscreenenter"",""5"",""20487""
","
",283.8200000114739,NA,48,NA,NA,3000,1,NA,NA,images/earth.jpg,images/rocket2,images/rocket1,null,images/rocket2,NA,1,real,null,2,NA,NA,NA,sub112
d3-animate-choice,271,1052339,0.0-76.0-1.45,TRUE,FALSE,TRUE,TRUE,"""event"",""trial"",""time""
""fullscreenenter"",""5"",""20487""
","
","
","""event"",""trial"",""time""
""fullscreenenter"",""5"",""20487""
","
",1248.2200001832098,NA,49,NA,NA,3000,1,NA,NA,images/purpleplanet.jpg,images/alien4,images/alien3,images/rocket2,images/alien3,images/nothing.png,2,real,false,1,rare,0,2020-07-02T17:54:44Z,sub112
two-step-fixation,272,1053343,0.0-76.0-2.45,TRUE,FALSE,TRUE,TRUE,"""event"",""trial"",""time""
""fullscreenenter"",""5"",""20487""
","
","
","""event"",""trial"",""time""
""fullscreenenter"",""5"",""20487""
","
",NA,images/earth.jpg,NA,NA,NA,NA,NA,NA,NA,NA,NA,NA,NA,NA,NA,fixation,NA,NA,NA,NA,NA,NA,sub112
d3-animate-choice,273,1056062,0.0-76.0-0.46,TRUE,FALSE,TRUE,TRUE,"""event"",""trial"",""time""
""fullscreenenter"",""5"",""20487""
","
","
","""event"",""trial"",""time""
""fullscreenenter"",""5"",""20487""
","
",715.265000006184,NA,49,NA,NA,3000,1,NA,NA,images/earth.jpg,images/rocket2,images/rocket1,null,images/rocket1,NA,1,real,null,1,NA,NA,NA,sub112
d3-animate-choice,274,1059164,0.0-76.0-1.46,TRUE,FALSE,TRUE,TRUE,"""event"",""trial"",""time""
""fullscreenenter"",""5"",""20487""
","
","
","""event"",""trial"",""time""
""fullscreenenter"",""5"",""20487""
","
",1098.3550001401454,NA,49,NA,NA,3000,1,NA,NA,images/purpleplanet.jpg,images/alien4,images/alien3,images/rocket1,images/alien3,images/nothing.png,2,real,true,1,common,0,2020-07-02T17:54:51Z,sub112
two-step-fixation,275,1060169,0.0-76.0-2.46,TRUE,FALSE,TRUE,TRUE,"""event"",""trial"",""time""
""fullscreenenter"",""5"",""20487""
","
","
","""event"",""trial"",""time""
""fullscreenenter"",""5"",""20487""
","
",NA,images/earth.jpg,NA,NA,NA,NA,NA,NA,NA,NA,NA,NA,NA,NA,NA,fixation,NA,NA,NA,NA,NA,NA,sub112
d3-animate-choice,276,1062507,0.0-76.0-0.47,TRUE,FALSE,TRUE,TRUE,"""event"",""trial"",""time""
""fullscreenenter"",""5"",""20487""
","
","
","""event"",""trial"",""time""
""fullscreenenter"",""5"",""20487""
","
",333.5250001400709,NA,48,NA,NA,3000,1,NA,NA,images/earth.jpg,images/rocket2,images/rocket1,null,images/rocket2,NA,1,real,null,2,NA,NA,NA,sub112
d3-animate-choice,277,1065232,0.0-76.0-1.47,TRUE,FALSE,TRUE,TRUE,"""event"",""trial"",""time""
""fullscreenenter"",""5"",""20487""
","
","
","""event"",""trial"",""time""
""fullscreenenter"",""5"",""20487""
","
",722.0799999777228,NA,48,NA,NA,3000,1,NA,NA,images/redplanet1.jpg,images/alien2,images/alien1,images/rocket2,images/alien2,images/nothing.png,2,real,true,2,common,0,2020-07-02T17:54:57Z,sub112
two-step-fixation,278,1066236,0.0-76.0-2.47,TRUE,FALSE,TRUE,TRUE,"""event"",""trial"",""time""
""fullscreenenter"",""5"",""20487""
","
","
","""event"",""trial"",""time""
""fullscreenenter"",""5"",""20487""
","
",NA,images/earth.jpg,NA,NA,NA,NA,NA,NA,NA,NA,NA,NA,NA,NA,NA,fixation,NA,NA,NA,NA,NA,NA,sub112
d3-animate-choice,279,1069035,0.0-76.0-0.48,TRUE,FALSE,TRUE,TRUE,"""event"",""trial"",""time""
""fullscreenenter"",""5"",""20487""
","
","
","""event"",""trial"",""time""
""fullscreenenter"",""5"",""20487""
","
",796.0149999707937,NA,49,NA,NA,3000,1,NA,NA,images/earth.jpg,images/rocket2,images/rocket1,null,images/rocket1,NA,1,real,null,1,NA,NA,NA,sub112
d3-animate-choice,280,1071906,0.0-76.0-1.48,TRUE,FALSE,TRUE,TRUE,"""event"",""trial"",""time""
""fullscreenenter"",""5"",""20487""
","
","
","""event"",""trial"",""time""
""fullscreenenter"",""5"",""20487""
","
",866.7200000490993,NA,48,NA,NA,3000,1,NA,NA,images/redplanet1.jpg,images/alien2,images/alien1,images/rocket1,images/alien2,images/t.png,2,real,false,2,rare,1,2020-07-02T17:55:04Z,sub112
two-step-fixation,281,1072910,0.0-76.0-2.48,TRUE,FALSE,TRUE,TRUE,"""event"",""trial"",""time""
""fullscreenenter"",""5"",""20487""
","
","
","""event"",""trial"",""time""
""fullscreenenter"",""5"",""20487""
","
",NA,images/earth.jpg,NA,NA,NA,NA,NA,NA,NA,NA,NA,NA,NA,NA,NA,fixation,NA,NA,NA,NA,NA,NA,sub112
d3-animate-choice,282,1075208,0.0-76.0-0.49,TRUE,FALSE,TRUE,TRUE,"""event"",""trial"",""time""
""fullscreenenter"",""5"",""20487""
","
","
","""event"",""trial"",""time""
""fullscreenenter"",""5"",""20487""
","
",293.4250000398606,NA,49,NA,NA,3000,1,NA,NA,images/earth.jpg,images/rocket2,images/rocket1,null,images/rocket1,NA,1,real,null,1,NA,NA,NA,sub112
d3-animate-choice,283,1077546,0.0-76.0-1.49,TRUE,FALSE,TRUE,TRUE,"""event"",""trial"",""time""
""fullscreenenter"",""5"",""20487""
","
","
","""event"",""trial"",""time""
""fullscreenenter"",""5"",""20487""
","
",335.2949998807162,NA,48,NA,NA,3000,1,NA,NA,images/redplanet1.jpg,images/alien2,images/alien1,images/rocket1,images/alien2,images/nothing.png,2,real,false,2,rare,0,2020-07-02T17:55:09Z,sub112
