trial_type,trial_index,time_elapsed,internal_node_id,rocket_sides,red_planet_first_rocket,red_display_order,purple_display_order,interactions,blur_events,focus_events,fullscreenenter_events,fullscreenexit_events,rt,stimulus,key_press,button_pressed,success,duration,valid_pressed,rts,keys,planet_text,right_text,left_text,center_text,chosen_text,reward_text,trial_stage,practice_trial,transition_type,choice,transition,reward,timestamp,subject_id
pavlovia,0,3,0.0-0.0,TRUE,FALSE,TRUE,FALSE,"
","
","
","
","
",NA,NA,NA,NA,NA,NA,NA,NA,NA,NA,NA,NA,NA,NA,NA,NA,NA,NA,NA,NA,NA,NA,sub78
html-keyboard-response,1,1525,0.0-1.0,TRUE,FALSE,TRUE,FALSE,"
","
","
","
","
",1520.409999997355,Welcome! Press the space bar to begin.,32,NA,NA,NA,NA,NA,NA,NA,NA,NA,NA,NA,NA,NA,NA,NA,NA,NA,NA,NA,sub78
audio-keyboard-response,2,3693,0.0-2.0,TRUE,FALSE,TRUE,FALSE,"
","
","
","
","
",2120,audio/beep_loop.wav,32,NA,NA,NA,NA,NA,NA,NA,NA,NA,NA,NA,NA,NA,NA,NA,NA,NA,NA,NA,sub78
audio-button-response,3,5847,0.0-3.0,TRUE,FALSE,TRUE,FALSE,"""event"",""trial"",""time""
""blur"",""4"",""9855""
""focus"",""4"",""9856""
","""event"",""trial"",""time""
""blur"",""4"",""9855""
","""event"",""trial"",""time""
""focus"",""4"",""9856""
","
","
",NaN,audio/fish.mp3,NA,1,NA,NA,NA,NA,NA,NA,NA,NA,NA,NA,NA,NA,NA,NA,NA,NA,NA,NA,sub78
audio-button-response,4,10714,0.0-4.0,TRUE,FALSE,TRUE,FALSE,"""event"",""trial"",""time""
""blur"",""4"",""9855""
""focus"",""4"",""9856""
""fullscreenenter"",""5"",""12909""
","""event"",""trial"",""time""
""blur"",""4"",""9855""
","""event"",""trial"",""time""
""focus"",""4"",""9856""
","""event"",""trial"",""time""
""fullscreenenter"",""5"",""12909""
","
",NaN,audio/tiger.mp3,NA,4,NA,NA,NA,NA,NA,NA,NA,NA,NA,NA,NA,NA,NA,NA,NA,NA,NA,NA,sub78
fullscreen,5,13899,0.0-5.0,TRUE,FALSE,TRUE,FALSE,"""event"",""trial"",""time""
""blur"",""4"",""9855""
""focus"",""4"",""9856""
""fullscreenenter"",""5"",""12909""
","""event"",""trial"",""time""
""blur"",""4"",""9855""
","""event"",""trial"",""time""
""focus"",""4"",""9856""
","""event"",""trial"",""time""
""fullscreenenter"",""5"",""12909""
","
",NA,NA,NA,NA,TRUE,NA,NA,NA,NA,NA,NA,NA,NA,NA,NA,NA,NA,NA,NA,NA,NA,NA,sub78
d3-instructions,6,26140,0.0-6.0,TRUE,FALSE,TRUE,FALSE,"""event"",""trial"",""time""
""blur"",""4"",""9855""
""focus"",""4"",""9856""
""fullscreenenter"",""5"",""12909""
","""event"",""trial"",""time""
""blur"",""4"",""9855""
","""event"",""trial"",""time""
""focus"",""4"",""9856""
","""event"",""trial"",""time""
""fullscreenenter"",""5"",""12909""
","
",NA,NA,NA,NA,NA,NA,NA,NA,NA,NA,NA,NA,NA,NA,NA,NA,NA,NA,NA,NA,NA,NA,sub78
d3-instructions,7,33620,0.0-7.0,TRUE,FALSE,TRUE,FALSE,"""event"",""trial"",""time""
""blur"",""4"",""9855""
""focus"",""4"",""9856""
""fullscreenenter"",""5"",""12909""
","""event"",""trial"",""time""
""blur"",""4"",""9855""
","""event"",""trial"",""time""
""focus"",""4"",""9856""
","""event"",""trial"",""time""
""fullscreenenter"",""5"",""12909""
","
",NA,NA,NA,NA,NA,NA,NA,NA,NA,NA,NA,NA,NA,NA,NA,NA,NA,NA,NA,NA,NA,NA,sub78
d3-instructions,8,40076,0.0-8.0,TRUE,FALSE,TRUE,FALSE,"""event"",""trial"",""time""
""blur"",""4"",""9855""
""focus"",""4"",""9856""
""fullscreenenter"",""5"",""12909""
","""event"",""trial"",""time""
""blur"",""4"",""9855""
","""event"",""trial"",""time""
""focus"",""4"",""9856""
","""event"",""trial"",""time""
""fullscreenenter"",""5"",""12909""
","
",NA,NA,NA,NA,NA,NA,NA,NA,NA,NA,NA,NA,NA,NA,NA,NA,NA,NA,NA,NA,NA,NA,sub78
d3-instructions,9,50620,0.0-9.0,TRUE,FALSE,TRUE,FALSE,"""event"",""trial"",""time""
""blur"",""4"",""9855""
""focus"",""4"",""9856""
""fullscreenenter"",""5"",""12909""
","""event"",""trial"",""time""
""blur"",""4"",""9855""
","""event"",""trial"",""time""
""focus"",""4"",""9856""
","""event"",""trial"",""time""
""fullscreenenter"",""5"",""12909""
","
",NA,NA,NA,NA,NA,NA,NA,NA,NA,NA,NA,NA,NA,NA,NA,NA,NA,NA,NA,NA,NA,NA,sub78
d3-instructions,10,69900,0.0-10.0,TRUE,FALSE,TRUE,FALSE,"""event"",""trial"",""time""
""blur"",""4"",""9855""
""focus"",""4"",""9856""
""fullscreenenter"",""5"",""12909""
","""event"",""trial"",""time""
""blur"",""4"",""9855""
","""event"",""trial"",""time""
""focus"",""4"",""9856""
","""event"",""trial"",""time""
""fullscreenenter"",""5"",""12909""
","
",NA,NA,NA,NA,NA,NA,NA,NA,NA,NA,NA,NA,NA,NA,NA,NA,NA,NA,NA,NA,NA,NA,sub78
d3-animate-choice,11,76393,0.0-11.0,TRUE,FALSE,TRUE,FALSE,"""event"",""trial"",""time""
""blur"",""4"",""9855""
""focus"",""4"",""9856""
""fullscreenenter"",""5"",""12909""
","""event"",""trial"",""time""
""blur"",""4"",""9855""
","""event"",""trial"",""time""
""focus"",""4"",""9856""
","""event"",""trial"",""time""
""fullscreenenter"",""5"",""12909""
","
",1220.9649999858811,NA,97,NA,NA,3000,1,"1669.0999999991618,2093.1199999758974,2788.7099999934435,4484.889999963343,5724.779999989551",9697974948,images/tutgreenplanet.jpg,images/tutalien1,images/tutalien2,null,images/tutalien2,NA,NA,practice,null,NA,NA,NA,NA,sub78
d3-animate-choice,12,79302,0.0-12.0,TRUE,FALSE,TRUE,FALSE,"""event"",""trial"",""time""
""blur"",""4"",""9855""
""focus"",""4"",""9856""
""fullscreenenter"",""5"",""12909""
","""event"",""trial"",""time""
""blur"",""4"",""9855""
","""event"",""trial"",""time""
""focus"",""4"",""9856""
","""event"",""trial"",""time""
""fullscreenenter"",""5"",""12909""
","
",903.4400000236928,NA,48,NA,NA,3000,1,NA,NA,images/tutgreenplanet.jpg,images/tutalien1,images/tutalien2,null,images/tutalien1,NA,NA,practice,null,NA,NA,NA,NA,sub78
d3-animate-choice,13,85533,0.0-13.0,TRUE,FALSE,TRUE,FALSE,"""event"",""trial"",""time""
""blur"",""4"",""9855""
""focus"",""4"",""9856""
""fullscreenenter"",""5"",""12909""
","""event"",""trial"",""time""
""blur"",""4"",""9855""
","""event"",""trial"",""time""
""focus"",""4"",""9856""
","""event"",""trial"",""time""
""fullscreenenter"",""5"",""12909""
","
",4227.529999974649,NA,49,NA,NA,3000,1,NA,NA,images/tutgreenplanet.jpg,images/tutalien1,images/tutalien2,null,images/tutalien2,NA,NA,practice,null,NA,NA,NA,NA,sub78
d3-animate-choice,14,91557,0.0-14.0,TRUE,FALSE,TRUE,FALSE,"""event"",""trial"",""time""
""blur"",""4"",""9855""
""focus"",""4"",""9856""
""fullscreenenter"",""5"",""12909""
","""event"",""trial"",""time""
""blur"",""4"",""9855""
","""event"",""trial"",""time""
""focus"",""4"",""9856""
","""event"",""trial"",""time""
""fullscreenenter"",""5"",""12909""
","
",1108.2700000260957,NA,50,NA,NA,3000,1,"1741.8799999868497,2892.4000000115484,3795.5049999873154,4020.0799999875017",505018948,images/tutgreenplanet.jpg,images/tutalien1,images/tutalien2,null,images/tutalien1,NA,NA,practice,null,NA,NA,NA,NA,sub78
d3-instructions,15,98379,0.0-15.0,TRUE,FALSE,TRUE,FALSE,"""event"",""trial"",""time""
""blur"",""4"",""9855""
""focus"",""4"",""9856""
""fullscreenenter"",""5"",""12909""
","""event"",""trial"",""time""
""blur"",""4"",""9855""
","""event"",""trial"",""time""
""focus"",""4"",""9856""
","""event"",""trial"",""time""
""fullscreenenter"",""5"",""12909""
","
",NA,NA,NA,NA,NA,NA,NA,NA,NA,NA,NA,NA,NA,NA,NA,NA,NA,NA,NA,NA,NA,NA,sub78
d3-instructions,16,105084,0.0-16.0,TRUE,FALSE,TRUE,FALSE,"""event"",""trial"",""time""
""blur"",""4"",""9855""
""focus"",""4"",""9856""
""fullscreenenter"",""5"",""12909""
","""event"",""trial"",""time""
""blur"",""4"",""9855""
","""event"",""trial"",""time""
""focus"",""4"",""9856""
","""event"",""trial"",""time""
""fullscreenenter"",""5"",""12909""
","
",NA,NA,NA,NA,NA,NA,NA,NA,NA,NA,NA,NA,NA,NA,NA,NA,NA,NA,NA,NA,NA,NA,sub78
d3-instructions,17,113372,0.0-17.0,TRUE,FALSE,TRUE,FALSE,"""event"",""trial"",""time""
""blur"",""4"",""9855""
""focus"",""4"",""9856""
""fullscreenenter"",""5"",""12909""
","""event"",""trial"",""time""
""blur"",""4"",""9855""
","""event"",""trial"",""time""
""focus"",""4"",""9856""
","""event"",""trial"",""time""
""fullscreenenter"",""5"",""12909""
","
",NA,NA,NA,NA,NA,NA,NA,NA,NA,NA,NA,NA,NA,NA,NA,NA,NA,NA,NA,NA,NA,NA,sub78
d3-instructions,18,126148,0.0-18.0,TRUE,FALSE,TRUE,FALSE,"""event"",""trial"",""time""
""blur"",""4"",""9855""
""focus"",""4"",""9856""
""fullscreenenter"",""5"",""12909""
","""event"",""trial"",""time""
""blur"",""4"",""9855""
","""event"",""trial"",""time""
""focus"",""4"",""9856""
","""event"",""trial"",""time""
""fullscreenenter"",""5"",""12909""
","
",NA,NA,NA,NA,NA,NA,NA,NA,NA,NA,NA,NA,NA,NA,NA,NA,NA,NA,NA,NA,NA,NA,sub78
d3-instructions,19,140028,0.0-19.0,TRUE,FALSE,TRUE,FALSE,"""event"",""trial"",""time""
""blur"",""4"",""9855""
""focus"",""4"",""9856""
""fullscreenenter"",""5"",""12909""
","""event"",""trial"",""time""
""blur"",""4"",""9855""
","""event"",""trial"",""time""
""focus"",""4"",""9856""
","""event"",""trial"",""time""
""fullscreenenter"",""5"",""12909""
","
",NA,NA,NA,NA,NA,NA,NA,NA,NA,NA,NA,NA,NA,NA,NA,NA,NA,NA,NA,NA,NA,NA,sub78
d3-animate-choice,20,142478,0.0-20.0,TRUE,FALSE,TRUE,FALSE,"""event"",""trial"",""time""
""blur"",""4"",""9855""
""focus"",""4"",""9856""
""fullscreenenter"",""5"",""12909""
","""event"",""trial"",""time""
""blur"",""4"",""9855""
","""event"",""trial"",""time""
""focus"",""4"",""9856""
","""event"",""trial"",""time""
""fullscreenenter"",""5"",""12909""
","
",445.63999999081716,NA,49,NA,NA,3000,1,"709.5649999682792,981.3250000006519,1837.9949999507517",494949,images/tutyellowplanet.jpg,null,images/tutalien3,null,images/tutalien3,images/nothing.png,NA,practice,null,NA,NA,NA,NA,sub78
d3-animate-choice,21,144525,0.0-21.0,TRUE,FALSE,TRUE,FALSE,"""event"",""trial"",""time""
""blur"",""4"",""9855""
""focus"",""4"",""9856""
""fullscreenenter"",""5"",""12909""
","""event"",""trial"",""time""
""blur"",""4"",""9855""
","""event"",""trial"",""time""
""focus"",""4"",""9856""
","""event"",""trial"",""time""
""fullscreenenter"",""5"",""12909""
","
",44.19499996583909,NA,49,NA,NA,3000,1,"1419.965000008233,1876.2250000145286",4949,images/tutyellowplanet.jpg,null,images/tutalien3,null,images/tutalien3,images/t.png,NA,practice,null,NA,NA,NA,NA,sub78
d3-animate-choice,22,146743,0.0-22.0,TRUE,FALSE,TRUE,FALSE,"""event"",""trial"",""time""
""blur"",""4"",""9855""
""focus"",""4"",""9856""
""fullscreenenter"",""5"",""12909""
","""event"",""trial"",""time""
""blur"",""4"",""9855""
","""event"",""trial"",""time""
""focus"",""4"",""9856""
","""event"",""trial"",""time""
""fullscreenenter"",""5"",""12909""
","
",213.61999999498948,NA,49,NA,NA,3000,1,"1644.8899999959394,2108.979999960866",4949,images/tutyellowplanet.jpg,null,images/tutalien3,null,images/tutalien3,images/t.png,NA,practice,null,NA,NA,NA,NA,sub78
d3-animate-choice,23,148814,0.0-23.0,TRUE,FALSE,TRUE,FALSE,"""event"",""trial"",""time""
""blur"",""4"",""9855""
""focus"",""4"",""9856""
""fullscreenenter"",""5"",""12909""
","""event"",""trial"",""time""
""blur"",""4"",""9855""
","""event"",""trial"",""time""
""focus"",""4"",""9856""
","""event"",""trial"",""time""
""fullscreenenter"",""5"",""12909""
","
",67.00999999884516,NA,49,NA,NA,3000,1,"299.5949999894947,1915.084999985993",4949,images/tutyellowplanet.jpg,null,images/tutalien3,null,images/tutalien3,images/t.png,NA,practice,null,NA,NA,NA,NA,sub78
d3-animate-choice,24,150951,0.0-24.0,TRUE,FALSE,TRUE,FALSE,"""event"",""trial"",""time""
""blur"",""4"",""9855""
""focus"",""4"",""9856""
""fullscreenenter"",""5"",""12909""
","""event"",""trial"",""time""
""blur"",""4"",""9855""
","""event"",""trial"",""time""
""focus"",""4"",""9856""
","""event"",""trial"",""time""
""fullscreenenter"",""5"",""12909""
","
",133.06500000180677,NA,49,NA,NA,3000,1,1980.600000009872,49,images/tutyellowplanet.jpg,null,images/tutalien3,null,images/tutalien3,images/t.png,NA,practice,null,NA,NA,NA,NA,sub78
d3-animate-choice,25,153086,0.0-25.0,TRUE,FALSE,TRUE,FALSE,"""event"",""trial"",""time""
""blur"",""4"",""9855""
""focus"",""4"",""9856""
""fullscreenenter"",""5"",""12909""
","""event"",""trial"",""time""
""blur"",""4"",""9855""
","""event"",""trial"",""time""
""focus"",""4"",""9856""
","""event"",""trial"",""time""
""fullscreenenter"",""5"",""12909""
","
",131.4400000264868,NA,49,NA,NA,3000,1,1931.27000000095,49,images/tutyellowplanet.jpg,null,images/tutalien3,null,images/tutalien3,images/nothing.png,NA,practice,null,NA,NA,NA,NA,sub78
d3-animate-choice,26,155159,0.0-26.0,TRUE,FALSE,TRUE,FALSE,"""event"",""trial"",""time""
""blur"",""4"",""9855""
""focus"",""4"",""9856""
""fullscreenenter"",""5"",""12909""
","""event"",""trial"",""time""
""blur"",""4"",""9855""
","""event"",""trial"",""time""
""focus"",""4"",""9856""
","""event"",""trial"",""time""
""fullscreenenter"",""5"",""12909""
","
",69.04999999096617,NA,49,NA,NA,3000,1,"1572.6300000096671,1900.6700000027195",4949,images/tutyellowplanet.jpg,null,images/tutalien3,null,images/tutalien3,images/t.png,NA,practice,null,NA,NA,NA,NA,sub78
d3-animate-choice,27,157262,0.0-27.0,TRUE,FALSE,TRUE,FALSE,"""event"",""trial"",""time""
""blur"",""4"",""9855""
""focus"",""4"",""9856""
""fullscreenenter"",""5"",""12909""
","""event"",""trial"",""time""
""blur"",""4"",""9855""
","""event"",""trial"",""time""
""focus"",""4"",""9856""
","""event"",""trial"",""time""
""fullscreenenter"",""5"",""12909""
","
",98.88000000501052,NA,49,NA,NA,3000,1,1938.945000001695,49,images/tutyellowplanet.jpg,null,images/tutalien3,null,images/tutalien3,images/t.png,NA,practice,null,NA,NA,NA,NA,sub78
d3-animate-choice,28,159453,0.0-28.0,TRUE,FALSE,TRUE,FALSE,"""event"",""trial"",""time""
""blur"",""4"",""9855""
""focus"",""4"",""9856""
""fullscreenenter"",""5"",""12909""
","""event"",""trial"",""time""
""blur"",""4"",""9855""
","""event"",""trial"",""time""
""focus"",""4"",""9856""
","""event"",""trial"",""time""
""fullscreenenter"",""5"",""12909""
","
",187.65000003622845,NA,49,NA,NA,3000,1,1979.8150000278838,49,images/tutyellowplanet.jpg,null,images/tutalien3,null,images/tutalien3,images/t.png,NA,practice,null,NA,NA,NA,NA,sub78
d3-animate-choice,29,161565,0.0-29.0,TRUE,FALSE,TRUE,FALSE,"""event"",""trial"",""time""
""blur"",""4"",""9855""
""focus"",""4"",""9856""
""fullscreenenter"",""5"",""12909""
","""event"",""trial"",""time""
""blur"",""4"",""9855""
","""event"",""trial"",""time""
""focus"",""4"",""9856""
","""event"",""trial"",""time""
""fullscreenenter"",""5"",""12909""
","
",108.94000000553206,NA,49,NA,NA,3000,1,2069.4449999718927,49,images/tutyellowplanet.jpg,null,images/tutalien3,null,images/tutalien3,images/t.png,NA,practice,null,NA,NA,NA,NA,sub78
d3-instructions,30,167803,0.0-30.0,TRUE,FALSE,TRUE,FALSE,"""event"",""trial"",""time""
""blur"",""4"",""9855""
""focus"",""4"",""9856""
""fullscreenenter"",""5"",""12909""
","""event"",""trial"",""time""
""blur"",""4"",""9855""
","""event"",""trial"",""time""
""focus"",""4"",""9856""
","""event"",""trial"",""time""
""fullscreenenter"",""5"",""12909""
","
",NA,NA,NA,NA,NA,NA,NA,NA,NA,NA,NA,NA,NA,NA,NA,NA,NA,NA,NA,NA,NA,NA,sub78
d3-instructions,31,178076,0.0-31.0,TRUE,FALSE,TRUE,FALSE,"""event"",""trial"",""time""
""blur"",""4"",""9855""
""focus"",""4"",""9856""
""fullscreenenter"",""5"",""12909""
","""event"",""trial"",""time""
""blur"",""4"",""9855""
","""event"",""trial"",""time""
""focus"",""4"",""9856""
","""event"",""trial"",""time""
""fullscreenenter"",""5"",""12909""
","
",NA,NA,NA,NA,NA,NA,NA,NA,NA,NA,NA,NA,NA,NA,NA,NA,NA,NA,NA,NA,NA,NA,sub78
d3-instructions,32,185219,0.0-32.0,TRUE,FALSE,TRUE,FALSE,"""event"",""trial"",""time""
""blur"",""4"",""9855""
""focus"",""4"",""9856""
""fullscreenenter"",""5"",""12909""
","""event"",""trial"",""time""
""blur"",""4"",""9855""
","""event"",""trial"",""time""
""focus"",""4"",""9856""
","""event"",""trial"",""time""
""fullscreenenter"",""5"",""12909""
","
",NA,NA,NA,NA,NA,NA,NA,NA,NA,NA,NA,NA,NA,NA,NA,NA,NA,NA,NA,NA,NA,NA,sub78
d3-instructions,33,195780,0.0-33.0,TRUE,FALSE,TRUE,FALSE,"""event"",""trial"",""time""
""blur"",""4"",""9855""
""focus"",""4"",""9856""
""fullscreenenter"",""5"",""12909""
","""event"",""trial"",""time""
""blur"",""4"",""9855""
","""event"",""trial"",""time""
""focus"",""4"",""9856""
","""event"",""trial"",""time""
""fullscreenenter"",""5"",""12909""
","
",NA,NA,NA,NA,NA,NA,NA,NA,NA,NA,NA,NA,NA,NA,NA,NA,NA,NA,NA,NA,NA,NA,sub78
d3-animate-choice,34,198982,0.0-34.0,TRUE,FALSE,TRUE,FALSE,"""event"",""trial"",""time""
""blur"",""4"",""9855""
""focus"",""4"",""9856""
""fullscreenenter"",""5"",""12909""
","""event"",""trial"",""time""
""blur"",""4"",""9855""
","""event"",""trial"",""time""
""focus"",""4"",""9856""
","""event"",""trial"",""time""
""fullscreenenter"",""5"",""12909""
","
",1198.9399999729358,NA,49,NA,NA,3000,1,NA,NA,images/tutgreenplanet.jpg,images/tutalien1,images/tutalien2,null,images/tutalien2,images/t.png,NA,practice,null,NA,NA,NA,NA,sub78
d3-animate-choice,35,201278,0.0-35.0,TRUE,FALSE,TRUE,FALSE,"""event"",""trial"",""time""
""blur"",""4"",""9855""
""focus"",""4"",""9856""
""fullscreenenter"",""5"",""12909""
","""event"",""trial"",""time""
""blur"",""4"",""9855""
","""event"",""trial"",""time""
""focus"",""4"",""9856""
","""event"",""trial"",""time""
""fullscreenenter"",""5"",""12909""
","
",292.6450000377372,NA,49,NA,NA,3000,1,2043.854999996256,49,images/tutgreenplanet.jpg,images/tutalien1,images/tutalien2,null,images/tutalien2,images/t.png,NA,practice,null,NA,NA,NA,NA,sub78
d3-animate-choice,36,203493,0.0-36.0,TRUE,FALSE,TRUE,FALSE,"""event"",""trial"",""time""
""blur"",""4"",""9855""
""focus"",""4"",""9856""
""fullscreenenter"",""5"",""12909""
","""event"",""trial"",""time""
""blur"",""4"",""9855""
","""event"",""trial"",""time""
""focus"",""4"",""9856""
","""event"",""trial"",""time""
""fullscreenenter"",""5"",""12909""
","
",211.09499997692183,NA,48,NA,NA,3000,1,"1722.9800000204705,2043.0899999919347",4949,images/tutgreenplanet.jpg,images/tutalien1,images/tutalien2,null,images/tutalien1,images/nothing.png,NA,practice,null,NA,NA,NA,NA,sub78
d3-animate-choice,37,205565,0.0-37.0,TRUE,FALSE,TRUE,FALSE,"""event"",""trial"",""time""
""blur"",""4"",""9855""
""focus"",""4"",""9856""
""fullscreenenter"",""5"",""12909""
","""event"",""trial"",""time""
""blur"",""4"",""9855""
","""event"",""trial"",""time""
""focus"",""4"",""9856""
","""event"",""trial"",""time""
""fullscreenenter"",""5"",""12909""
","
",68.65999998990446,NA,49,NA,NA,3000,1,"284.879999991972,1460.8200000366196,1996.6000000131316",494948,images/tutgreenplanet.jpg,images/tutalien1,images/tutalien2,null,images/tutalien2,images/nothing.png,NA,practice,null,NA,NA,NA,NA,sub78
d3-animate-choice,38,207902,0.0-38.0,TRUE,FALSE,TRUE,FALSE,"""event"",""trial"",""time""
""blur"",""4"",""9855""
""focus"",""4"",""9856""
""fullscreenenter"",""5"",""12909""
","""event"",""trial"",""time""
""blur"",""4"",""9855""
","""event"",""trial"",""time""
""focus"",""4"",""9856""
","""event"",""trial"",""time""
""fullscreenenter"",""5"",""12909""
","
",333.6350000463426,NA,49,NA,NA,3000,1,1877.280000015162,48,images/tutgreenplanet.jpg,images/tutalien1,images/tutalien2,null,images/tutalien2,images/nothing.png,NA,practice,null,NA,NA,NA,NA,sub78
d3-animate-choice,39,209917,0.0-39.0,TRUE,FALSE,TRUE,FALSE,"""event"",""trial"",""time""
""blur"",""4"",""9855""
""focus"",""4"",""9856""
""fullscreenenter"",""5"",""12909""
","""event"",""trial"",""time""
""blur"",""4"",""9855""
","""event"",""trial"",""time""
""focus"",""4"",""9856""
","""event"",""trial"",""time""
""fullscreenenter"",""5"",""12909""
","
",12.174999981652945,NA,48,NA,NA,3000,1,"211.94000000832602,1396.4099999866448,1964.2250000033528",484848,images/tutgreenplanet.jpg,images/tutalien1,images/tutalien2,null,images/tutalien1,images/nothing.png,NA,practice,null,NA,NA,NA,NA,sub78
d3-animate-choice,40,212101,0.0-40.0,TRUE,FALSE,TRUE,FALSE,"""event"",""trial"",""time""
""blur"",""4"",""9855""
""focus"",""4"",""9856""
""fullscreenenter"",""5"",""12909""
","""event"",""trial"",""time""
""blur"",""4"",""9855""
","""event"",""trial"",""time""
""focus"",""4"",""9856""
","""event"",""trial"",""time""
""fullscreenenter"",""5"",""12909""
","
",180.34000002080575,NA,48,NA,NA,3000,1,2060.0199999753386,49,images/tutgreenplanet.jpg,images/tutalien1,images/tutalien2,null,images/tutalien1,images/nothing.png,NA,practice,null,NA,NA,NA,NA,sub78
d3-animate-choice,41,214173,0.0-41.0,TRUE,FALSE,TRUE,FALSE,"""event"",""trial"",""time""
""blur"",""4"",""9855""
""focus"",""4"",""9856""
""fullscreenenter"",""5"",""12909""
","""event"",""trial"",""time""
""blur"",""4"",""9855""
","""event"",""trial"",""time""
""focus"",""4"",""9856""
","""event"",""trial"",""time""
""fullscreenenter"",""5"",""12909""
","
",69.10500000230968,NA,49,NA,NA,3000,1,"1525.2600000239909,1829.4650000170805,2045.52500002319",494949,images/tutgreenplanet.jpg,images/tutalien1,images/tutalien2,null,images/tutalien2,images/t.png,NA,practice,null,NA,NA,NA,NA,sub78
d3-animate-choice,42,216319,0.0-42.0,TRUE,FALSE,TRUE,FALSE,"""event"",""trial"",""time""
""blur"",""4"",""9855""
""focus"",""4"",""9856""
""fullscreenenter"",""5"",""12909""
","""event"",""trial"",""time""
""blur"",""4"",""9855""
","""event"",""trial"",""time""
""focus"",""4"",""9856""
","""event"",""trial"",""time""
""fullscreenenter"",""5"",""12909""
","
",140.92000003438443,NA,49,NA,NA,3000,1,2108.3850000286475,49,images/tutgreenplanet.jpg,images/tutalien1,images/tutalien2,null,images/tutalien2,images/t.png,NA,practice,null,NA,NA,NA,NA,sub78
d3-animate-choice,43,218517,0.0-43.0,TRUE,FALSE,TRUE,FALSE,"""event"",""trial"",""time""
""blur"",""4"",""9855""
""focus"",""4"",""9856""
""fullscreenenter"",""5"",""12909""
","""event"",""trial"",""time""
""blur"",""4"",""9855""
","""event"",""trial"",""time""
""focus"",""4"",""9856""
","""event"",""trial"",""time""
""fullscreenenter"",""5"",""12909""
","
",194.83500003116205,NA,49,NA,NA,3000,1,"1651.2000000220723,1979.6000000205822,2171.4150000480004",494949,images/tutgreenplanet.jpg,images/tutalien1,images/tutalien2,null,images/tutalien2,images/t.png,NA,practice,null,NA,NA,NA,NA,sub78
d3-instructions,44,232892,0.0-44.0,TRUE,FALSE,TRUE,FALSE,"""event"",""trial"",""time""
""blur"",""4"",""9855""
""focus"",""4"",""9856""
""fullscreenenter"",""5"",""12909""
","""event"",""trial"",""time""
""blur"",""4"",""9855""
","""event"",""trial"",""time""
""focus"",""4"",""9856""
","""event"",""trial"",""time""
""fullscreenenter"",""5"",""12909""
","
",NA,NA,NA,NA,NA,NA,NA,NA,NA,NA,NA,NA,NA,NA,NA,NA,NA,NA,NA,NA,NA,NA,sub78
d3-instructions,45,238788,0.0-45.0,TRUE,FALSE,TRUE,FALSE,"""event"",""trial"",""time""
""blur"",""4"",""9855""
""focus"",""4"",""9856""
""fullscreenenter"",""5"",""12909""
","""event"",""trial"",""time""
""blur"",""4"",""9855""
","""event"",""trial"",""time""
""focus"",""4"",""9856""
","""event"",""trial"",""time""
""fullscreenenter"",""5"",""12909""
","
",NA,NA,NA,NA,NA,NA,NA,NA,NA,NA,NA,NA,NA,NA,NA,NA,NA,NA,NA,NA,NA,NA,sub78
d3-instructions,46,243252,0.0-46.0,TRUE,FALSE,TRUE,FALSE,"""event"",""trial"",""time""
""blur"",""4"",""9855""
""focus"",""4"",""9856""
""fullscreenenter"",""5"",""12909""
","""event"",""trial"",""time""
""blur"",""4"",""9855""
","""event"",""trial"",""time""
""focus"",""4"",""9856""
","""event"",""trial"",""time""
""fullscreenenter"",""5"",""12909""
","
",NA,NA,NA,NA,NA,NA,NA,NA,NA,NA,NA,NA,NA,NA,NA,NA,NA,NA,NA,NA,NA,NA,sub78
d3-instructions,47,260068,0.0-47.0,TRUE,FALSE,TRUE,FALSE,"""event"",""trial"",""time""
""blur"",""4"",""9855""
""focus"",""4"",""9856""
""fullscreenenter"",""5"",""12909""
","""event"",""trial"",""time""
""blur"",""4"",""9855""
","""event"",""trial"",""time""
""focus"",""4"",""9856""
","""event"",""trial"",""time""
""fullscreenenter"",""5"",""12909""
","
",NA,NA,NA,NA,NA,NA,NA,NA,NA,NA,NA,NA,NA,NA,NA,NA,NA,NA,NA,NA,NA,NA,sub78
d3-instructions,48,267412,0.0-48.0,TRUE,FALSE,TRUE,FALSE,"""event"",""trial"",""time""
""blur"",""4"",""9855""
""focus"",""4"",""9856""
""fullscreenenter"",""5"",""12909""
","""event"",""trial"",""time""
""blur"",""4"",""9855""
","""event"",""trial"",""time""
""focus"",""4"",""9856""
","""event"",""trial"",""time""
""fullscreenenter"",""5"",""12909""
","
",NA,NA,NA,NA,NA,NA,NA,NA,NA,NA,NA,NA,NA,NA,NA,NA,NA,NA,NA,NA,NA,NA,sub78
d3-instructions,49,278060,0.0-49.0,TRUE,FALSE,TRUE,FALSE,"""event"",""trial"",""time""
""blur"",""4"",""9855""
""focus"",""4"",""9856""
""fullscreenenter"",""5"",""12909""
","""event"",""trial"",""time""
""blur"",""4"",""9855""
","""event"",""trial"",""time""
""focus"",""4"",""9856""
","""event"",""trial"",""time""
""fullscreenenter"",""5"",""12909""
","
",NA,NA,NA,NA,NA,NA,NA,NA,NA,NA,NA,NA,NA,NA,NA,NA,NA,NA,NA,NA,NA,NA,sub78
d3-instructions,50,287084,0.0-50.0,TRUE,FALSE,TRUE,FALSE,"""event"",""trial"",""time""
""blur"",""4"",""9855""
""focus"",""4"",""9856""
""fullscreenenter"",""5"",""12909""
","""event"",""trial"",""time""
""blur"",""4"",""9855""
","""event"",""trial"",""time""
""focus"",""4"",""9856""
","""event"",""trial"",""time""
""fullscreenenter"",""5"",""12909""
","
",NA,NA,NA,NA,NA,NA,NA,NA,NA,NA,NA,NA,NA,NA,NA,NA,NA,NA,NA,NA,NA,NA,sub78
d3-instructions,51,289835,0.0-51.0,TRUE,FALSE,TRUE,FALSE,"""event"",""trial"",""time""
""blur"",""4"",""9855""
""focus"",""4"",""9856""
""fullscreenenter"",""5"",""12909""
","""event"",""trial"",""time""
""blur"",""4"",""9855""
","""event"",""trial"",""time""
""focus"",""4"",""9856""
","""event"",""trial"",""time""
""fullscreenenter"",""5"",""12909""
","
",NA,NA,NA,NA,NA,NA,NA,NA,NA,NA,NA,NA,NA,NA,NA,NA,NA,NA,NA,NA,NA,NA,sub78
d3-instructions,52,292372,0.0-52.0,TRUE,FALSE,TRUE,FALSE,"""event"",""trial"",""time""
""blur"",""4"",""9855""
""focus"",""4"",""9856""
""fullscreenenter"",""5"",""12909""
","""event"",""trial"",""time""
""blur"",""4"",""9855""
","""event"",""trial"",""time""
""focus"",""4"",""9856""
","""event"",""trial"",""time""
""fullscreenenter"",""5"",""12909""
","
",NA,NA,NA,NA,NA,NA,NA,NA,NA,NA,NA,NA,NA,NA,NA,NA,NA,NA,NA,NA,NA,NA,sub78
d3-instructions,53,303948,0.0-53.0,TRUE,FALSE,TRUE,FALSE,"""event"",""trial"",""time""
""blur"",""4"",""9855""
""focus"",""4"",""9856""
""fullscreenenter"",""5"",""12909""
","""event"",""trial"",""time""
""blur"",""4"",""9855""
","""event"",""trial"",""time""
""focus"",""4"",""9856""
","""event"",""trial"",""time""
""fullscreenenter"",""5"",""12909""
","
",NA,NA,NA,NA,NA,NA,NA,NA,NA,NA,NA,NA,NA,NA,NA,NA,NA,NA,NA,NA,NA,NA,sub78
d3-instructions,54,316180,0.0-54.0,TRUE,FALSE,TRUE,FALSE,"""event"",""trial"",""time""
""blur"",""4"",""9855""
""focus"",""4"",""9856""
""fullscreenenter"",""5"",""12909""
","""event"",""trial"",""time""
""blur"",""4"",""9855""
","""event"",""trial"",""time""
""focus"",""4"",""9856""
","""event"",""trial"",""time""
""fullscreenenter"",""5"",""12909""
","
",NA,NA,NA,NA,NA,NA,NA,NA,NA,NA,NA,NA,NA,NA,NA,NA,NA,NA,NA,NA,NA,NA,sub78
d3-instructions,55,326700,0.0-55.0,TRUE,FALSE,TRUE,FALSE,"""event"",""trial"",""time""
""blur"",""4"",""9855""
""focus"",""4"",""9856""
""fullscreenenter"",""5"",""12909""
","""event"",""trial"",""time""
""blur"",""4"",""9855""
","""event"",""trial"",""time""
""focus"",""4"",""9856""
","""event"",""trial"",""time""
""fullscreenenter"",""5"",""12909""
","
",NA,NA,NA,NA,NA,NA,NA,NA,NA,NA,NA,NA,NA,NA,NA,NA,NA,NA,NA,NA,NA,NA,sub78
d3-instructions,56,336012,0.0-56.0,TRUE,FALSE,TRUE,FALSE,"""event"",""trial"",""time""
""blur"",""4"",""9855""
""focus"",""4"",""9856""
""fullscreenenter"",""5"",""12909""
","""event"",""trial"",""time""
""blur"",""4"",""9855""
","""event"",""trial"",""time""
""focus"",""4"",""9856""
","""event"",""trial"",""time""
""fullscreenenter"",""5"",""12909""
","
",NA,NA,NA,NA,NA,NA,NA,NA,NA,NA,NA,NA,NA,NA,NA,NA,NA,NA,NA,NA,NA,NA,sub78
d3-instructions,57,346916,0.0-57.0,TRUE,FALSE,TRUE,FALSE,"""event"",""trial"",""time""
""blur"",""4"",""9855""
""focus"",""4"",""9856""
""fullscreenenter"",""5"",""12909""
","""event"",""trial"",""time""
""blur"",""4"",""9855""
","""event"",""trial"",""time""
""focus"",""4"",""9856""
","""event"",""trial"",""time""
""fullscreenenter"",""5"",""12909""
","
",NA,NA,NA,NA,NA,NA,NA,NA,NA,NA,NA,NA,NA,NA,NA,NA,NA,NA,NA,NA,NA,NA,sub78
d3-instructions,58,357108,0.0-58.0,TRUE,FALSE,TRUE,FALSE,"""event"",""trial"",""time""
""blur"",""4"",""9855""
""focus"",""4"",""9856""
""fullscreenenter"",""5"",""12909""
","""event"",""trial"",""time""
""blur"",""4"",""9855""
","""event"",""trial"",""time""
""focus"",""4"",""9856""
","""event"",""trial"",""time""
""fullscreenenter"",""5"",""12909""
","
",NA,NA,NA,NA,NA,NA,NA,NA,NA,NA,NA,NA,NA,NA,NA,NA,NA,NA,NA,NA,NA,NA,sub78
d3-instructions,59,361700,0.0-59.0,TRUE,FALSE,TRUE,FALSE,"""event"",""trial"",""time""
""blur"",""4"",""9855""
""focus"",""4"",""9856""
""fullscreenenter"",""5"",""12909""
","""event"",""trial"",""time""
""blur"",""4"",""9855""
","""event"",""trial"",""time""
""focus"",""4"",""9856""
","""event"",""trial"",""time""
""fullscreenenter"",""5"",""12909""
","
",NA,NA,NA,NA,NA,NA,NA,NA,NA,NA,NA,NA,NA,NA,NA,NA,NA,NA,NA,NA,NA,NA,sub78
d3-instructions,60,368756,0.0-60.0,TRUE,FALSE,TRUE,FALSE,"""event"",""trial"",""time""
""blur"",""4"",""9855""
""focus"",""4"",""9856""
""fullscreenenter"",""5"",""12909""
","""event"",""trial"",""time""
""blur"",""4"",""9855""
","""event"",""trial"",""time""
""focus"",""4"",""9856""
","""event"",""trial"",""time""
""fullscreenenter"",""5"",""12909""
","
",NA,NA,NA,NA,NA,NA,NA,NA,NA,NA,NA,NA,NA,NA,NA,NA,NA,NA,NA,NA,NA,NA,sub78
d3-animate-choice,61,372761,0.0-61.0-0.0,TRUE,FALSE,TRUE,FALSE,"""event"",""trial"",""time""
""blur"",""4"",""9855""
""focus"",""4"",""9856""
""fullscreenenter"",""5"",""12909""
","""event"",""trial"",""time""
""blur"",""4"",""9855""
","""event"",""trial"",""time""
""focus"",""4"",""9856""
","""event"",""trial"",""time""
""fullscreenenter"",""5"",""12909""
","
",2869.0049999859184,NA,49,NA,NA,3000,1,NA,NA,images/earth.jpg,images/tutrocket2,images/tutrocket1,null,images/tutrocket1,NA,1,practice,null,1,NA,NA,NA,sub78
d3-animate-choice,62,375984,0.0-61.0-1.0,TRUE,FALSE,TRUE,FALSE,"""event"",""trial"",""time""
""blur"",""4"",""9855""
""focus"",""4"",""9856""
""fullscreenenter"",""5"",""12909""
","""event"",""trial"",""time""
""blur"",""4"",""9855""
","""event"",""trial"",""time""
""focus"",""4"",""9856""
","""event"",""trial"",""time""
""fullscreenenter"",""5"",""12909""
","
",1216.5249999961816,NA,49,NA,NA,3000,1,NA,NA,images/tutgreenplanet.jpg,images/tutalien2,images/tutalien1,images/tutrocket1,images/tutalien1,images/nothing.png,2,practice,false,1,rare,0,2020-06-21T20:04:44Z,sub78
two-step-fixation,63,376988,0.0-61.0-2.0,TRUE,FALSE,TRUE,FALSE,"""event"",""trial"",""time""
""blur"",""4"",""9855""
""focus"",""4"",""9856""
""fullscreenenter"",""5"",""12909""
","""event"",""trial"",""time""
""blur"",""4"",""9855""
","""event"",""trial"",""time""
""focus"",""4"",""9856""
","""event"",""trial"",""time""
""fullscreenenter"",""5"",""12909""
","
",NA,images/earth.jpg,NA,NA,NA,NA,NA,NA,NA,NA,NA,NA,NA,NA,NA,fixation,NA,NA,NA,NA,NA,NA,sub78
d3-animate-choice,64,380992,0.0-61.0-0.1,TRUE,FALSE,TRUE,FALSE,"""event"",""trial"",""time""
""blur"",""4"",""9855""
""focus"",""4"",""9856""
""fullscreenenter"",""5"",""12909""
","""event"",""trial"",""time""
""blur"",""4"",""9855""
","""event"",""trial"",""time""
""focus"",""4"",""9856""
","""event"",""trial"",""time""
""fullscreenenter"",""5"",""12909""
","
",733.9799999608658,NA,50,NA,NA,3000,1,"1821.6600000159815,1965.8700000145473,2181.6000000108033",18718948,images/earth.jpg,images/tutrocket2,images/tutrocket1,null,images/tutrocket2,NA,1,practice,null,NA,NA,NA,NA,sub78
d3-animate-choice,65,383334,0.0-61.0-1.1,TRUE,FALSE,TRUE,FALSE,"""event"",""trial"",""time""
""blur"",""4"",""9855""
""focus"",""4"",""9856""
""fullscreenenter"",""5"",""12909""
","""event"",""trial"",""time""
""blur"",""4"",""9855""
","""event"",""trial"",""time""
""focus"",""4"",""9856""
","""event"",""trial"",""time""
""fullscreenenter"",""5"",""12909""
","
",337.23500004271045,NA,48,NA,NA,3000,1,NA,NA,images/tutgreenplanet.jpg,images/tutalien2,images/tutalien1,images/tutrocket2,images/tutalien2,images/nothing.png,2,practice,true,2,common,0,2020-06-21T20:04:51Z,sub78
two-step-fixation,66,384338,0.0-61.0-2.1,TRUE,FALSE,TRUE,FALSE,"""event"",""trial"",""time""
""blur"",""4"",""9855""
""focus"",""4"",""9856""
""fullscreenenter"",""5"",""12909""
","""event"",""trial"",""time""
""blur"",""4"",""9855""
","""event"",""trial"",""time""
""focus"",""4"",""9856""
","""event"",""trial"",""time""
""fullscreenenter"",""5"",""12909""
","
",NA,images/earth.jpg,NA,NA,NA,NA,NA,NA,NA,NA,NA,NA,NA,NA,NA,fixation,NA,NA,NA,NA,NA,NA,sub78
d3-animate-choice,67,386638,0.0-61.0-0.2,TRUE,FALSE,TRUE,FALSE,"""event"",""trial"",""time""
""blur"",""4"",""9855""
""focus"",""4"",""9856""
""fullscreenenter"",""5"",""12909""
","""event"",""trial"",""time""
""blur"",""4"",""9855""
","""event"",""trial"",""time""
""focus"",""4"",""9856""
","""event"",""trial"",""time""
""fullscreenenter"",""5"",""12909""
","
",296.5049999766052,NA,49,NA,NA,3000,1,NA,NA,images/earth.jpg,images/tutrocket2,images/tutrocket1,null,images/tutrocket1,NA,1,practice,null,1,NA,NA,NA,sub78
d3-animate-choice,68,389246,0.0-61.0-1.2,TRUE,FALSE,TRUE,FALSE,"""event"",""trial"",""time""
""blur"",""4"",""9855""
""focus"",""4"",""9856""
""fullscreenenter"",""5"",""12909""
","""event"",""trial"",""time""
""blur"",""4"",""9855""
","""event"",""trial"",""time""
""focus"",""4"",""9856""
","""event"",""trial"",""time""
""fullscreenenter"",""5"",""12909""
","
",603.049999976065,NA,48,NA,NA,3000,1,NA,NA,images/tutyellowplanet.jpg,images/tutalien4,images/tutalien3,images/tutrocket1,images/tutalien4,images/t.png,2,practice,true,2,common,1,2020-06-21T20:04:57Z,sub78
two-step-fixation,69,390251,0.0-61.0-2.2,TRUE,FALSE,TRUE,FALSE,"""event"",""trial"",""time""
""blur"",""4"",""9855""
""focus"",""4"",""9856""
""fullscreenenter"",""5"",""12909""
","""event"",""trial"",""time""
""blur"",""4"",""9855""
","""event"",""trial"",""time""
""focus"",""4"",""9856""
","""event"",""trial"",""time""
""fullscreenenter"",""5"",""12909""
","
",NA,images/earth.jpg,NA,NA,NA,NA,NA,NA,NA,NA,NA,NA,NA,NA,NA,fixation,NA,NA,NA,NA,NA,NA,sub78
d3-animate-choice,70,392454,0.0-61.0-0.3,TRUE,FALSE,TRUE,FALSE,"""event"",""trial"",""time""
""blur"",""4"",""9855""
""focus"",""4"",""9856""
""fullscreenenter"",""5"",""12909""
","""event"",""trial"",""time""
""blur"",""4"",""9855""
","""event"",""trial"",""time""
""focus"",""4"",""9856""
","""event"",""trial"",""time""
""fullscreenenter"",""5"",""12909""
","
",196.16000005044043,NA,48,NA,NA,3000,1,NA,NA,images/earth.jpg,images/tutrocket2,images/tutrocket1,null,images/tutrocket2,NA,1,practice,null,2,NA,NA,NA,sub78
d3-animate-choice,71,395166,0.0-61.0-1.3,TRUE,FALSE,TRUE,FALSE,"""event"",""trial"",""time""
""blur"",""4"",""9855""
""focus"",""4"",""9856""
""fullscreenenter"",""5"",""12909""
","""event"",""trial"",""time""
""blur"",""4"",""9855""
","""event"",""trial"",""time""
""focus"",""4"",""9856""
","""event"",""trial"",""time""
""fullscreenenter"",""5"",""12909""
","
",706.9100000080653,NA,48,NA,NA,3000,1,NA,NA,images/tutyellowplanet.jpg,images/tutalien4,images/tutalien3,images/tutrocket2,images/tutalien4,images/t.png,2,practice,false,2,rare,1,2020-06-21T20:05:03Z,sub78
two-step-fixation,72,396170,0.0-61.0-2.3,TRUE,FALSE,TRUE,FALSE,"""event"",""trial"",""time""
""blur"",""4"",""9855""
""focus"",""4"",""9856""
""fullscreenenter"",""5"",""12909""
","""event"",""trial"",""time""
""blur"",""4"",""9855""
","""event"",""trial"",""time""
""focus"",""4"",""9856""
","""event"",""trial"",""time""
""fullscreenenter"",""5"",""12909""
","
",NA,images/earth.jpg,NA,NA,NA,NA,NA,NA,NA,NA,NA,NA,NA,NA,NA,fixation,NA,NA,NA,NA,NA,NA,sub78
d3-animate-choice,73,398238,0.0-61.0-0.4,TRUE,FALSE,TRUE,FALSE,"""event"",""trial"",""time""
""blur"",""4"",""9855""
""focus"",""4"",""9856""
""fullscreenenter"",""5"",""12909""
","""event"",""trial"",""time""
""blur"",""4"",""9855""
","""event"",""trial"",""time""
""focus"",""4"",""9856""
","""event"",""trial"",""time""
""fullscreenenter"",""5"",""12909""
","
",62.934999994467944,NA,49,NA,NA,3000,1,NA,NA,images/earth.jpg,images/tutrocket2,images/tutrocket1,null,images/tutrocket1,NA,1,practice,null,1,NA,NA,NA,sub78
d3-animate-choice,74,400991,0.0-61.0-1.4,TRUE,FALSE,TRUE,FALSE,"""event"",""trial"",""time""
""blur"",""4"",""9855""
""focus"",""4"",""9856""
""fullscreenenter"",""5"",""12909""
","""event"",""trial"",""time""
""blur"",""4"",""9855""
","""event"",""trial"",""time""
""focus"",""4"",""9856""
","""event"",""trial"",""time""
""fullscreenenter"",""5"",""12909""
","
",363.7000000453554,NA,50,NA,NA,3000,1,747.5800000247546,49,images/tutyellowplanet.jpg,images/tutalien4,images/tutalien3,images/tutrocket1,images/tutalien3,images/nothing.png,2,practice,true,NA,common,0,2020-06-21T20:05:09Z,sub78
two-step-fixation,75,401995,0.0-61.0-2.4,TRUE,FALSE,TRUE,FALSE,"""event"",""trial"",""time""
""blur"",""4"",""9855""
""focus"",""4"",""9856""
""fullscreenenter"",""5"",""12909""
","""event"",""trial"",""time""
""blur"",""4"",""9855""
","""event"",""trial"",""time""
""focus"",""4"",""9856""
","""event"",""trial"",""time""
""fullscreenenter"",""5"",""12909""
","
",NA,images/earth.jpg,NA,NA,NA,NA,NA,NA,NA,NA,NA,NA,NA,NA,NA,fixation,NA,NA,NA,NA,NA,NA,sub78
d3-animate-choice,76,404110,0.0-61.0-0.5,TRUE,FALSE,TRUE,FALSE,"""event"",""trial"",""time""
""blur"",""4"",""9855""
""focus"",""4"",""9856""
""fullscreenenter"",""5"",""12909""
","""event"",""trial"",""time""
""blur"",""4"",""9855""
","""event"",""trial"",""time""
""focus"",""4"",""9856""
","""event"",""trial"",""time""
""fullscreenenter"",""5"",""12909""
","
",109.9949999479577,NA,48,NA,NA,3000,1,NA,NA,images/earth.jpg,images/tutrocket2,images/tutrocket1,null,images/tutrocket2,NA,1,practice,null,2,NA,NA,NA,sub78
d3-animate-choice,77,407038,0.0-61.0-1.5,TRUE,FALSE,TRUE,FALSE,"""event"",""trial"",""time""
""blur"",""4"",""9855""
""focus"",""4"",""9856""
""fullscreenenter"",""5"",""12909""
","""event"",""trial"",""time""
""blur"",""4"",""9855""
","""event"",""trial"",""time""
""focus"",""4"",""9856""
","""event"",""trial"",""time""
""fullscreenenter"",""5"",""12909""
","
",924.1550000151619,NA,49,NA,NA,3000,1,964.0850000432692,50,images/tutgreenplanet.jpg,images/tutalien2,images/tutalien1,images/tutrocket2,images/tutalien1,images/nothing.png,2,practice,true,1,common,0,2020-06-21T20:05:15Z,sub78
two-step-fixation,78,408044,0.0-61.0-2.5,TRUE,FALSE,TRUE,FALSE,"""event"",""trial"",""time""
""blur"",""4"",""9855""
""focus"",""4"",""9856""
""fullscreenenter"",""5"",""12909""
","""event"",""trial"",""time""
""blur"",""4"",""9855""
","""event"",""trial"",""time""
""focus"",""4"",""9856""
","""event"",""trial"",""time""
""fullscreenenter"",""5"",""12909""
","
",NA,images/earth.jpg,NA,NA,NA,NA,NA,NA,NA,NA,NA,NA,NA,NA,NA,fixation,NA,NA,NA,NA,NA,NA,sub78
d3-animate-choice,79,410142,0.0-61.0-0.6,TRUE,FALSE,TRUE,FALSE,"""event"",""trial"",""time""
""blur"",""4"",""9855""
""focus"",""4"",""9856""
""fullscreenenter"",""5"",""12909""
","""event"",""trial"",""time""
""blur"",""4"",""9855""
","""event"",""trial"",""time""
""focus"",""4"",""9856""
","""event"",""trial"",""time""
""fullscreenenter"",""5"",""12909""
","
",92.50000002793968,NA,48,NA,NA,3000,1,NA,NA,images/earth.jpg,images/tutrocket2,images/tutrocket1,null,images/tutrocket2,NA,1,practice,null,2,NA,NA,NA,sub78
d3-animate-choice,80,412563,0.0-61.0-1.6,TRUE,FALSE,TRUE,FALSE,"""event"",""trial"",""time""
""blur"",""4"",""9855""
""focus"",""4"",""9856""
""fullscreenenter"",""5"",""12909""
","""event"",""trial"",""time""
""blur"",""4"",""9855""
","""event"",""trial"",""time""
""focus"",""4"",""9856""
","""event"",""trial"",""time""
""fullscreenenter"",""5"",""12909""
","
",418.5949999955483,NA,48,NA,NA,3000,1,NA,NA,images/tutgreenplanet.jpg,images/tutalien2,images/tutalien1,images/tutrocket2,images/tutalien2,images/nothing.png,2,practice,true,2,common,0,2020-06-21T20:05:20Z,sub78
two-step-fixation,81,413568,0.0-61.0-2.6,TRUE,FALSE,TRUE,FALSE,"""event"",""trial"",""time""
""blur"",""4"",""9855""
""focus"",""4"",""9856""
""fullscreenenter"",""5"",""12909""
","""event"",""trial"",""time""
""blur"",""4"",""9855""
","""event"",""trial"",""time""
""focus"",""4"",""9856""
","""event"",""trial"",""time""
""fullscreenenter"",""5"",""12909""
","
",NA,images/earth.jpg,NA,NA,NA,NA,NA,NA,NA,NA,NA,NA,NA,NA,NA,fixation,NA,NA,NA,NA,NA,NA,sub78
d3-animate-choice,82,415895,0.0-61.0-0.7,TRUE,FALSE,TRUE,FALSE,"""event"",""trial"",""time""
""blur"",""4"",""9855""
""focus"",""4"",""9856""
""fullscreenenter"",""5"",""12909""
","""event"",""trial"",""time""
""blur"",""4"",""9855""
","""event"",""trial"",""time""
""focus"",""4"",""9856""
","""event"",""trial"",""time""
""fullscreenenter"",""5"",""12909""
","
",321.204999985639,NA,49,NA,NA,3000,1,NA,NA,images/earth.jpg,images/tutrocket2,images/tutrocket1,null,images/tutrocket1,NA,1,practice,null,1,NA,NA,NA,sub78
d3-animate-choice,83,418118,0.0-61.0-1.7,TRUE,FALSE,TRUE,FALSE,"""event"",""trial"",""time""
""blur"",""4"",""9855""
""focus"",""4"",""9856""
""fullscreenenter"",""5"",""12909""
","""event"",""trial"",""time""
""blur"",""4"",""9855""
","""event"",""trial"",""time""
""focus"",""4"",""9856""
","""event"",""trial"",""time""
""fullscreenenter"",""5"",""12909""
","
",217.26000000489876,NA,49,NA,NA,3000,1,NA,NA,images/tutgreenplanet.jpg,images/tutalien2,images/tutalien1,images/tutrocket1,images/tutalien1,images/nothing.png,2,practice,false,1,rare,0,2020-06-21T20:05:26Z,sub78
two-step-fixation,84,419122,0.0-61.0-2.7,TRUE,FALSE,TRUE,FALSE,"""event"",""trial"",""time""
""blur"",""4"",""9855""
""focus"",""4"",""9856""
""fullscreenenter"",""5"",""12909""
","""event"",""trial"",""time""
""blur"",""4"",""9855""
","""event"",""trial"",""time""
""focus"",""4"",""9856""
","""event"",""trial"",""time""
""fullscreenenter"",""5"",""12909""
","
",NA,images/earth.jpg,NA,NA,NA,NA,NA,NA,NA,NA,NA,NA,NA,NA,NA,fixation,NA,NA,NA,NA,NA,NA,sub78
d3-animate-choice,85,421389,0.0-61.0-0.8,TRUE,FALSE,TRUE,FALSE,"""event"",""trial"",""time""
""blur"",""4"",""9855""
""focus"",""4"",""9856""
""fullscreenenter"",""5"",""12909""
","""event"",""trial"",""time""
""blur"",""4"",""9855""
","""event"",""trial"",""time""
""focus"",""4"",""9856""
","""event"",""trial"",""time""
""fullscreenenter"",""5"",""12909""
","
",263.1750000291504,NA,48,NA,NA,3000,1,NA,NA,images/earth.jpg,images/tutrocket2,images/tutrocket1,null,images/tutrocket2,NA,1,practice,null,2,NA,NA,NA,sub78
d3-animate-choice,86,423821,0.0-61.0-1.8,TRUE,FALSE,TRUE,FALSE,"""event"",""trial"",""time""
""blur"",""4"",""9855""
""focus"",""4"",""9856""
""fullscreenenter"",""5"",""12909""
","""event"",""trial"",""time""
""blur"",""4"",""9855""
","""event"",""trial"",""time""
""focus"",""4"",""9856""
","""event"",""trial"",""time""
""fullscreenenter"",""5"",""12909""
","
",428.38499997742474,NA,48,NA,NA,3000,1,NA,NA,images/tutyellowplanet.jpg,images/tutalien4,images/tutalien3,images/tutrocket2,images/tutalien4,images/nothing.png,2,practice,false,2,rare,0,2020-06-21T20:05:32Z,sub78
two-step-fixation,87,424826,0.0-61.0-2.8,TRUE,FALSE,TRUE,FALSE,"""event"",""trial"",""time""
""blur"",""4"",""9855""
""focus"",""4"",""9856""
""fullscreenenter"",""5"",""12909""
","""event"",""trial"",""time""
""blur"",""4"",""9855""
","""event"",""trial"",""time""
""focus"",""4"",""9856""
","""event"",""trial"",""time""
""fullscreenenter"",""5"",""12909""
","
",NA,images/earth.jpg,NA,NA,NA,NA,NA,NA,NA,NA,NA,NA,NA,NA,NA,fixation,NA,NA,NA,NA,NA,NA,sub78
d3-animate-choice,88,427293,0.0-61.0-0.9,TRUE,FALSE,TRUE,FALSE,"""event"",""trial"",""time""
""blur"",""4"",""9855""
""focus"",""4"",""9856""
""fullscreenenter"",""5"",""12909""
","""event"",""trial"",""time""
""blur"",""4"",""9855""
","""event"",""trial"",""time""
""focus"",""4"",""9856""
","""event"",""trial"",""time""
""fullscreenenter"",""5"",""12909""
","
",460.8599999919534,NA,48,NA,NA,3000,1,NA,NA,images/earth.jpg,images/tutrocket2,images/tutrocket1,null,images/tutrocket2,NA,1,practice,null,2,NA,NA,NA,sub78
d3-animate-choice,89,429773,0.0-61.0-1.9,TRUE,FALSE,TRUE,FALSE,"""event"",""trial"",""time""
""blur"",""4"",""9855""
""focus"",""4"",""9856""
""fullscreenenter"",""5"",""12909""
","""event"",""trial"",""time""
""blur"",""4"",""9855""
","""event"",""trial"",""time""
""focus"",""4"",""9856""
","""event"",""trial"",""time""
""fullscreenenter"",""5"",""12909""
","
",476.0450000176206,NA,49,NA,NA,3000,1,NA,NA,images/tutgreenplanet.jpg,images/tutalien2,images/tutalien1,images/tutrocket2,images/tutalien1,images/t.png,2,practice,true,1,common,1,2020-06-21T20:05:38Z,sub78
two-step-fixation,90,430778,0.0-61.0-2.9,TRUE,FALSE,TRUE,FALSE,"""event"",""trial"",""time""
""blur"",""4"",""9855""
""focus"",""4"",""9856""
""fullscreenenter"",""5"",""12909""
","""event"",""trial"",""time""
""blur"",""4"",""9855""
","""event"",""trial"",""time""
""focus"",""4"",""9856""
","""event"",""trial"",""time""
""fullscreenenter"",""5"",""12909""
","
",NA,images/earth.jpg,NA,NA,NA,NA,NA,NA,NA,NA,NA,NA,NA,NA,NA,fixation,NA,NA,NA,NA,NA,NA,sub78
d3-animate-choice,91,432846,0.0-61.0-0.10,TRUE,FALSE,TRUE,FALSE,"""event"",""trial"",""time""
""blur"",""4"",""9855""
""focus"",""4"",""9856""
""fullscreenenter"",""5"",""12909""
","""event"",""trial"",""time""
""blur"",""4"",""9855""
","""event"",""trial"",""time""
""focus"",""4"",""9856""
","""event"",""trial"",""time""
""fullscreenenter"",""5"",""12909""
","
",61.984999978449196,NA,48,NA,NA,3000,1,NA,NA,images/earth.jpg,images/tutrocket2,images/tutrocket1,null,images/tutrocket2,NA,1,practice,null,2,NA,NA,NA,sub78
d3-animate-choice,92,435079,0.0-61.0-1.10,TRUE,FALSE,TRUE,FALSE,"""event"",""trial"",""time""
""blur"",""4"",""9855""
""focus"",""4"",""9856""
""fullscreenenter"",""5"",""12909""
","""event"",""trial"",""time""
""blur"",""4"",""9855""
","""event"",""trial"",""time""
""focus"",""4"",""9856""
","""event"",""trial"",""time""
""fullscreenenter"",""5"",""12909""
","
",227.25999995600432,NA,48,NA,NA,3000,1,NA,NA,images/tutgreenplanet.jpg,images/tutalien2,images/tutalien1,images/tutrocket2,images/tutalien2,images/nothing.png,2,practice,true,2,common,0,2020-06-21T20:05:43Z,sub78
two-step-fixation,93,436083,0.0-61.0-2.10,TRUE,FALSE,TRUE,FALSE,"""event"",""trial"",""time""
""blur"",""4"",""9855""
""focus"",""4"",""9856""
""fullscreenenter"",""5"",""12909""
","""event"",""trial"",""time""
""blur"",""4"",""9855""
","""event"",""trial"",""time""
""focus"",""4"",""9856""
","""event"",""trial"",""time""
""fullscreenenter"",""5"",""12909""
","
",NA,images/earth.jpg,NA,NA,NA,NA,NA,NA,NA,NA,NA,NA,NA,NA,NA,fixation,NA,NA,NA,NA,NA,NA,sub78
d3-animate-choice,94,438437,0.0-61.0-0.11,TRUE,FALSE,TRUE,FALSE,"""event"",""trial"",""time""
""blur"",""4"",""9855""
""focus"",""4"",""9856""
""fullscreenenter"",""5"",""12909""
","""event"",""trial"",""time""
""blur"",""4"",""9855""
","""event"",""trial"",""time""
""focus"",""4"",""9856""
","""event"",""trial"",""time""
""fullscreenenter"",""5"",""12909""
","
",349.8649999964982,NA,49,NA,NA,3000,1,NA,NA,images/earth.jpg,images/tutrocket2,images/tutrocket1,null,images/tutrocket1,NA,1,practice,null,1,NA,NA,NA,sub78
d3-animate-choice,95,440805,0.0-61.0-1.11,TRUE,FALSE,TRUE,FALSE,"""event"",""trial"",""time""
""blur"",""4"",""9855""
""focus"",""4"",""9856""
""fullscreenenter"",""5"",""12909""
","""event"",""trial"",""time""
""blur"",""4"",""9855""
","""event"",""trial"",""time""
""focus"",""4"",""9856""
","""event"",""trial"",""time""
""fullscreenenter"",""5"",""12909""
","
",363.660000031814,NA,49,NA,NA,3000,1,NA,NA,images/tutyellowplanet.jpg,images/tutalien4,images/tutalien3,images/tutrocket1,images/tutalien3,images/nothing.png,2,practice,true,1,common,0,2020-06-21T20:05:49Z,sub78
two-step-fixation,96,441810,0.0-61.0-2.11,TRUE,FALSE,TRUE,FALSE,"""event"",""trial"",""time""
""blur"",""4"",""9855""
""focus"",""4"",""9856""
""fullscreenenter"",""5"",""12909""
","""event"",""trial"",""time""
""blur"",""4"",""9855""
","""event"",""trial"",""time""
""focus"",""4"",""9856""
","""event"",""trial"",""time""
""fullscreenenter"",""5"",""12909""
","
",NA,images/earth.jpg,NA,NA,NA,NA,NA,NA,NA,NA,NA,NA,NA,NA,NA,fixation,NA,NA,NA,NA,NA,NA,sub78
d3-animate-choice,97,444222,0.0-61.0-0.12,TRUE,FALSE,TRUE,FALSE,"""event"",""trial"",""time""
""blur"",""4"",""9855""
""focus"",""4"",""9856""
""fullscreenenter"",""5"",""12909""
","""event"",""trial"",""time""
""blur"",""4"",""9855""
","""event"",""trial"",""time""
""focus"",""4"",""9856""
","""event"",""trial"",""time""
""fullscreenenter"",""5"",""12909""
","
",406.0549999703653,NA,49,NA,NA,3000,1,NA,NA,images/earth.jpg,images/tutrocket2,images/tutrocket1,null,images/tutrocket1,NA,1,practice,null,1,NA,NA,NA,sub78
d3-animate-choice,98,446470,0.0-61.0-1.12,TRUE,FALSE,TRUE,FALSE,"""event"",""trial"",""time""
""blur"",""4"",""9855""
""focus"",""4"",""9856""
""fullscreenenter"",""5"",""12909""
","""event"",""trial"",""time""
""blur"",""4"",""9855""
","""event"",""trial"",""time""
""focus"",""4"",""9856""
","""event"",""trial"",""time""
""fullscreenenter"",""5"",""12909""
","
",243.17000003065914,NA,48,NA,NA,3000,1,NA,NA,images/tutyellowplanet.jpg,images/tutalien4,images/tutalien3,images/tutrocket1,images/tutalien4,images/t.png,2,practice,true,2,common,1,2020-06-21T20:05:54Z,sub78
two-step-fixation,99,447474,0.0-61.0-2.12,TRUE,FALSE,TRUE,FALSE,"""event"",""trial"",""time""
""blur"",""4"",""9855""
""focus"",""4"",""9856""
""fullscreenenter"",""5"",""12909""
","""event"",""trial"",""time""
""blur"",""4"",""9855""
","""event"",""trial"",""time""
""focus"",""4"",""9856""
","""event"",""trial"",""time""
""fullscreenenter"",""5"",""12909""
","
",NA,images/earth.jpg,NA,NA,NA,NA,NA,NA,NA,NA,NA,NA,NA,NA,NA,fixation,NA,NA,NA,NA,NA,NA,sub78
d3-animate-choice,100,449928,0.0-61.0-0.13,TRUE,FALSE,TRUE,FALSE,"""event"",""trial"",""time""
""blur"",""4"",""9855""
""focus"",""4"",""9856""
""fullscreenenter"",""5"",""12909""
","""event"",""trial"",""time""
""blur"",""4"",""9855""
","""event"",""trial"",""time""
""focus"",""4"",""9856""
","""event"",""trial"",""time""
""fullscreenenter"",""5"",""12909""
","
",446.204999985639,NA,48,NA,NA,3000,1,2437.340000004042,49,images/earth.jpg,images/tutrocket2,images/tutrocket1,null,images/tutrocket2,NA,1,practice,null,2,NA,NA,NA,sub78
d3-animate-choice,101,452213,0.0-61.0-1.13,TRUE,FALSE,TRUE,FALSE,"""event"",""trial"",""time""
""blur"",""4"",""9855""
""focus"",""4"",""9856""
""fullscreenenter"",""5"",""12909""
","""event"",""trial"",""time""
""blur"",""4"",""9855""
","""event"",""trial"",""time""
""focus"",""4"",""9856""
","""event"",""trial"",""time""
""fullscreenenter"",""5"",""12909""
","
",281.03499999269843,NA,48,NA,NA,3000,1,NA,NA,images/tutgreenplanet.jpg,images/tutalien2,images/tutalien1,images/tutrocket2,images/tutalien2,images/nothing.png,2,practice,true,2,common,0,2020-06-21T20:06:00Z,sub78
two-step-fixation,102,453218,0.0-61.0-2.13,TRUE,FALSE,TRUE,FALSE,"""event"",""trial"",""time""
""blur"",""4"",""9855""
""focus"",""4"",""9856""
""fullscreenenter"",""5"",""12909""
","""event"",""trial"",""time""
""blur"",""4"",""9855""
","""event"",""trial"",""time""
""focus"",""4"",""9856""
","""event"",""trial"",""time""
""fullscreenenter"",""5"",""12909""
","
",NA,images/earth.jpg,NA,NA,NA,NA,NA,NA,NA,NA,NA,NA,NA,NA,NA,fixation,NA,NA,NA,NA,NA,NA,sub78
d3-animate-choice,103,455279,0.0-61.0-0.14,TRUE,FALSE,TRUE,FALSE,"""event"",""trial"",""time""
""blur"",""4"",""9855""
""focus"",""4"",""9856""
""fullscreenenter"",""5"",""12909""
","""event"",""trial"",""time""
""blur"",""4"",""9855""
","""event"",""trial"",""time""
""focus"",""4"",""9856""
","""event"",""trial"",""time""
""fullscreenenter"",""5"",""12909""
","
",54.835000017192215,NA,49,NA,NA,3000,1,NA,NA,images/earth.jpg,images/tutrocket2,images/tutrocket1,null,images/tutrocket1,NA,1,practice,null,1,NA,NA,NA,sub78
d3-animate-choice,104,457821,0.0-61.0-1.14,TRUE,FALSE,TRUE,FALSE,"""event"",""trial"",""time""
""blur"",""4"",""9855""
""focus"",""4"",""9856""
""fullscreenenter"",""5"",""12909""
","""event"",""trial"",""time""
""blur"",""4"",""9855""
","""event"",""trial"",""time""
""focus"",""4"",""9856""
","""event"",""trial"",""time""
""fullscreenenter"",""5"",""12909""
","
",537.7850000513718,NA,48,NA,NA,3000,1,NA,NA,images/tutyellowplanet.jpg,images/tutalien4,images/tutalien3,images/tutrocket1,images/tutalien4,images/t.png,2,practice,true,2,common,1,2020-06-21T20:06:06Z,sub78
two-step-fixation,105,458828,0.0-61.0-2.14,TRUE,FALSE,TRUE,FALSE,"""event"",""trial"",""time""
""blur"",""4"",""9855""
""focus"",""4"",""9856""
""fullscreenenter"",""5"",""12909""
","""event"",""trial"",""time""
""blur"",""4"",""9855""
","""event"",""trial"",""time""
""focus"",""4"",""9856""
","""event"",""trial"",""time""
""fullscreenenter"",""5"",""12909""
","
",NA,images/earth.jpg,NA,NA,NA,NA,NA,NA,NA,NA,NA,NA,NA,NA,NA,fixation,NA,NA,NA,NA,NA,NA,sub78
d3-animate-choice,106,461077,0.0-61.0-0.15,TRUE,FALSE,TRUE,FALSE,"""event"",""trial"",""time""
""blur"",""4"",""9855""
""focus"",""4"",""9856""
""fullscreenenter"",""5"",""12909""
","""event"",""trial"",""time""
""blur"",""4"",""9855""
","""event"",""trial"",""time""
""focus"",""4"",""9856""
","""event"",""trial"",""time""
""fullscreenenter"",""5"",""12909""
","
",244.0000000060536,NA,48,NA,NA,3000,1,NA,NA,images/earth.jpg,images/tutrocket2,images/tutrocket1,null,images/tutrocket2,NA,1,practice,null,2,NA,NA,NA,sub78
d3-animate-choice,107,463766,0.0-61.0-1.15,TRUE,FALSE,TRUE,FALSE,"""event"",""trial"",""time""
""blur"",""4"",""9855""
""focus"",""4"",""9856""
""fullscreenenter"",""5"",""12909""
","""event"",""trial"",""time""
""blur"",""4"",""9855""
","""event"",""trial"",""time""
""focus"",""4"",""9856""
","""event"",""trial"",""time""
""fullscreenenter"",""5"",""12909""
","
",683.9850000105798,NA,49,NA,NA,3000,1,NA,NA,images/tutgreenplanet.jpg,images/tutalien2,images/tutalien1,images/tutrocket2,images/tutalien1,images/nothing.png,2,practice,true,1,common,0,2020-06-21T20:06:12Z,sub78
two-step-fixation,108,464770,0.0-61.0-2.15,TRUE,FALSE,TRUE,FALSE,"""event"",""trial"",""time""
""blur"",""4"",""9855""
""focus"",""4"",""9856""
""fullscreenenter"",""5"",""12909""
","""event"",""trial"",""time""
""blur"",""4"",""9855""
","""event"",""trial"",""time""
""focus"",""4"",""9856""
","""event"",""trial"",""time""
""fullscreenenter"",""5"",""12909""
","
",NA,images/earth.jpg,NA,NA,NA,NA,NA,NA,NA,NA,NA,NA,NA,NA,NA,fixation,NA,NA,NA,NA,NA,NA,sub78
d3-animate-choice,109,467126,0.0-61.0-0.16,TRUE,FALSE,TRUE,FALSE,"""event"",""trial"",""time""
""blur"",""4"",""9855""
""focus"",""4"",""9856""
""fullscreenenter"",""5"",""12909""
","""event"",""trial"",""time""
""blur"",""4"",""9855""
","""event"",""trial"",""time""
""focus"",""4"",""9856""
","""event"",""trial"",""time""
""fullscreenenter"",""5"",""12909""
","
",351.5100000076927,NA,49,NA,NA,3000,1,NA,NA,images/earth.jpg,images/tutrocket2,images/tutrocket1,null,images/tutrocket1,NA,1,practice,null,1,NA,NA,NA,sub78
d3-animate-choice,110,469454,0.0-61.0-1.16,TRUE,FALSE,TRUE,FALSE,"""event"",""trial"",""time""
""blur"",""4"",""9855""
""focus"",""4"",""9856""
""fullscreenenter"",""5"",""12909""
","""event"",""trial"",""time""
""blur"",""4"",""9855""
","""event"",""trial"",""time""
""focus"",""4"",""9856""
","""event"",""trial"",""time""
""fullscreenenter"",""5"",""12909""
","
",322.2350000287406,NA,48,NA,NA,3000,1,NA,NA,images/tutyellowplanet.jpg,images/tutalien4,images/tutalien3,images/tutrocket1,images/tutalien4,images/nothing.png,2,practice,true,2,common,0,2020-06-21T20:06:17Z,sub78
two-step-fixation,111,470459,0.0-61.0-2.16,TRUE,FALSE,TRUE,FALSE,"""event"",""trial"",""time""
""blur"",""4"",""9855""
""focus"",""4"",""9856""
""fullscreenenter"",""5"",""12909""
","""event"",""trial"",""time""
""blur"",""4"",""9855""
","""event"",""trial"",""time""
""focus"",""4"",""9856""
","""event"",""trial"",""time""
""fullscreenenter"",""5"",""12909""
","
",NA,images/earth.jpg,NA,NA,NA,NA,NA,NA,NA,NA,NA,NA,NA,NA,NA,fixation,NA,NA,NA,NA,NA,NA,sub78
d3-animate-choice,112,472725,0.0-61.0-0.17,TRUE,FALSE,TRUE,FALSE,"""event"",""trial"",""time""
""blur"",""4"",""9855""
""focus"",""4"",""9856""
""fullscreenenter"",""5"",""12909""
","""event"",""trial"",""time""
""blur"",""4"",""9855""
","""event"",""trial"",""time""
""focus"",""4"",""9856""
","""event"",""trial"",""time""
""fullscreenenter"",""5"",""12909""
","
",262.2649999684654,NA,49,NA,NA,3000,1,NA,NA,images/earth.jpg,images/tutrocket2,images/tutrocket1,null,images/tutrocket1,NA,1,practice,null,1,NA,NA,NA,sub78
d3-animate-choice,113,475006,0.0-61.0-1.17,TRUE,FALSE,TRUE,FALSE,"""event"",""trial"",""time""
""blur"",""4"",""9855""
""focus"",""4"",""9856""
""fullscreenenter"",""5"",""12909""
","""event"",""trial"",""time""
""blur"",""4"",""9855""
","""event"",""trial"",""time""
""focus"",""4"",""9856""
","""event"",""trial"",""time""
""fullscreenenter"",""5"",""12909""
","
",276.20999998180196,NA,49,NA,NA,3000,1,NA,NA,images/tutgreenplanet.jpg,images/tutalien2,images/tutalien1,images/tutrocket1,images/tutalien1,images/t.png,2,practice,false,1,rare,1,2020-06-21T20:06:23Z,sub78
two-step-fixation,114,476011,0.0-61.0-2.17,TRUE,FALSE,TRUE,FALSE,"""event"",""trial"",""time""
""blur"",""4"",""9855""
""focus"",""4"",""9856""
""fullscreenenter"",""5"",""12909""
","""event"",""trial"",""time""
""blur"",""4"",""9855""
","""event"",""trial"",""time""
""focus"",""4"",""9856""
","""event"",""trial"",""time""
""fullscreenenter"",""5"",""12909""
","
",NA,images/earth.jpg,NA,NA,NA,NA,NA,NA,NA,NA,NA,NA,NA,NA,NA,fixation,NA,NA,NA,NA,NA,NA,sub78
d3-animate-choice,115,478350,0.0-61.0-0.18,TRUE,FALSE,TRUE,FALSE,"""event"",""trial"",""time""
""blur"",""4"",""9855""
""focus"",""4"",""9856""
""fullscreenenter"",""5"",""12909""
","""event"",""trial"",""time""
""blur"",""4"",""9855""
","""event"",""trial"",""time""
""focus"",""4"",""9856""
","""event"",""trial"",""time""
""fullscreenenter"",""5"",""12909""
","
",334.0650000027381,NA,49,NA,NA,3000,1,NA,NA,images/earth.jpg,images/tutrocket2,images/tutrocket1,null,images/tutrocket1,NA,1,practice,null,1,NA,NA,NA,sub78
d3-animate-choice,116,480790,0.0-61.0-1.18,TRUE,FALSE,TRUE,FALSE,"""event"",""trial"",""time""
""blur"",""4"",""9855""
""focus"",""4"",""9856""
""fullscreenenter"",""5"",""12909""
","""event"",""trial"",""time""
""blur"",""4"",""9855""
","""event"",""trial"",""time""
""focus"",""4"",""9856""
","""event"",""trial"",""time""
""fullscreenenter"",""5"",""12909""
","
",435.4499999899417,NA,49,NA,NA,3000,1,NA,NA,images/tutyellowplanet.jpg,images/tutalien4,images/tutalien3,images/tutrocket1,images/tutalien3,images/nothing.png,2,practice,true,1,common,0,2020-06-21T20:06:29Z,sub78
two-step-fixation,117,481793,0.0-61.0-2.18,TRUE,FALSE,TRUE,FALSE,"""event"",""trial"",""time""
""blur"",""4"",""9855""
""focus"",""4"",""9856""
""fullscreenenter"",""5"",""12909""
","""event"",""trial"",""time""
""blur"",""4"",""9855""
","""event"",""trial"",""time""
""focus"",""4"",""9856""
","""event"",""trial"",""time""
""fullscreenenter"",""5"",""12909""
","
",NA,images/earth.jpg,NA,NA,NA,NA,NA,NA,NA,NA,NA,NA,NA,NA,NA,fixation,NA,NA,NA,NA,NA,NA,sub78
d3-animate-choice,118,483933,0.0-61.0-0.19,TRUE,FALSE,TRUE,FALSE,"""event"",""trial"",""time""
""blur"",""4"",""9855""
""focus"",""4"",""9856""
""fullscreenenter"",""5"",""12909""
","""event"",""trial"",""time""
""blur"",""4"",""9855""
","""event"",""trial"",""time""
""focus"",""4"",""9856""
","""event"",""trial"",""time""
""fullscreenenter"",""5"",""12909""
","
",136.04499999200925,NA,48,NA,NA,3000,1,NA,NA,images/earth.jpg,images/tutrocket2,images/tutrocket1,null,images/tutrocket2,NA,1,practice,null,2,NA,NA,NA,sub78
d3-animate-choice,119,486205,0.0-61.0-1.19,TRUE,FALSE,TRUE,FALSE,"""event"",""trial"",""time""
""blur"",""4"",""9855""
""focus"",""4"",""9856""
""fullscreenenter"",""5"",""12909""
","""event"",""trial"",""time""
""blur"",""4"",""9855""
","""event"",""trial"",""time""
""focus"",""4"",""9856""
","""event"",""trial"",""time""
""fullscreenenter"",""5"",""12909""
","
",268.3299999916926,NA,48,NA,NA,3000,1,NA,NA,images/tutgreenplanet.jpg,images/tutalien2,images/tutalien1,images/tutrocket2,images/tutalien2,images/t.png,2,practice,true,2,common,1,2020-06-21T20:06:34Z,sub78
two-step-fixation,120,487210,0.0-61.0-2.19,TRUE,FALSE,TRUE,FALSE,"""event"",""trial"",""time""
""blur"",""4"",""9855""
""focus"",""4"",""9856""
""fullscreenenter"",""5"",""12909""
","""event"",""trial"",""time""
""blur"",""4"",""9855""
","""event"",""trial"",""time""
""focus"",""4"",""9856""
","""event"",""trial"",""time""
""fullscreenenter"",""5"",""12909""
","
",NA,images/earth.jpg,NA,NA,NA,NA,NA,NA,NA,NA,NA,NA,NA,NA,NA,fixation,NA,NA,NA,NA,NA,NA,sub78
d3-instructions,121,494428,0.0-62.0,TRUE,FALSE,TRUE,FALSE,"""event"",""trial"",""time""
""blur"",""4"",""9855""
""focus"",""4"",""9856""
""fullscreenenter"",""5"",""12909""
","""event"",""trial"",""time""
""blur"",""4"",""9855""
","""event"",""trial"",""time""
""focus"",""4"",""9856""
","""event"",""trial"",""time""
""fullscreenenter"",""5"",""12909""
","
",NA,NA,NA,NA,NA,NA,NA,NA,NA,NA,NA,NA,NA,NA,NA,NA,NA,NA,NA,NA,NA,NA,sub78
audio-keyboard-response,122,499460,0.0-63.0,TRUE,FALSE,TRUE,FALSE,"""event"",""trial"",""time""
""blur"",""4"",""9855""
""focus"",""4"",""9856""
""fullscreenenter"",""5"",""12909""
","""event"",""trial"",""time""
""blur"",""4"",""9855""
","""event"",""trial"",""time""
""focus"",""4"",""9856""
","""event"",""trial"",""time""
""fullscreenenter"",""5"",""12909""
","
",5032,audio/instructions/treasure_feedback.wav,32,NA,NA,NA,NA,NA,NA,NA,NA,NA,NA,NA,NA,NA,NA,NA,NA,NA,NA,NA,sub78
d3-instructions,123,518588,0.0-64.0,TRUE,FALSE,TRUE,FALSE,"""event"",""trial"",""time""
""blur"",""4"",""9855""
""focus"",""4"",""9856""
""fullscreenenter"",""5"",""12909""
","""event"",""trial"",""time""
""blur"",""4"",""9855""
","""event"",""trial"",""time""
""focus"",""4"",""9856""
","""event"",""trial"",""time""
""fullscreenenter"",""5"",""12909""
","
",NA,NA,NA,NA,NA,NA,NA,NA,NA,NA,NA,NA,NA,NA,NA,NA,NA,NA,NA,NA,NA,NA,sub78
d3-instructions,124,532611,0.0-65.0,TRUE,FALSE,TRUE,FALSE,"""event"",""trial"",""time""
""blur"",""4"",""9855""
""focus"",""4"",""9856""
""fullscreenenter"",""5"",""12909""
","""event"",""trial"",""time""
""blur"",""4"",""9855""
","""event"",""trial"",""time""
""focus"",""4"",""9856""
","""event"",""trial"",""time""
""fullscreenenter"",""5"",""12909""
","
",NA,NA,NA,NA,NA,NA,NA,NA,NA,NA,NA,NA,NA,NA,NA,NA,NA,NA,NA,NA,NA,NA,sub78
d3-instructions,125,556884,0.0-66.0,TRUE,FALSE,TRUE,FALSE,"""event"",""trial"",""time""
""blur"",""4"",""9855""
""focus"",""4"",""9856""
""fullscreenenter"",""5"",""12909""
","""event"",""trial"",""time""
""blur"",""4"",""9855""
","""event"",""trial"",""time""
""focus"",""4"",""9856""
","""event"",""trial"",""time""
""fullscreenenter"",""5"",""12909""
","
",NA,NA,NA,NA,NA,NA,NA,NA,NA,NA,NA,NA,NA,NA,NA,NA,NA,NA,NA,NA,NA,NA,sub78
d3-instructions,126,572947,0.0-67.0,TRUE,FALSE,TRUE,FALSE,"""event"",""trial"",""time""
""blur"",""4"",""9855""
""focus"",""4"",""9856""
""fullscreenenter"",""5"",""12909""
","""event"",""trial"",""time""
""blur"",""4"",""9855""
","""event"",""trial"",""time""
""focus"",""4"",""9856""
","""event"",""trial"",""time""
""fullscreenenter"",""5"",""12909""
","
",NA,NA,NA,NA,NA,NA,NA,NA,NA,NA,NA,NA,NA,NA,NA,NA,NA,NA,NA,NA,NA,NA,sub78
d3-instructions,127,581796,0.0-68.0,TRUE,FALSE,TRUE,FALSE,"""event"",""trial"",""time""
""blur"",""4"",""9855""
""focus"",""4"",""9856""
""fullscreenenter"",""5"",""12909""
","""event"",""trial"",""time""
""blur"",""4"",""9855""
","""event"",""trial"",""time""
""focus"",""4"",""9856""
","""event"",""trial"",""time""
""fullscreenenter"",""5"",""12909""
","
",NA,NA,NA,NA,NA,NA,NA,NA,NA,NA,NA,NA,NA,NA,NA,NA,NA,NA,NA,NA,NA,NA,sub78
instructions-quiz,128,586630,0.0-69.0,TRUE,FALSE,TRUE,FALSE,"""event"",""trial"",""time""
""blur"",""4"",""9855""
""focus"",""4"",""9856""
""fullscreenenter"",""5"",""12909""
","""event"",""trial"",""time""
""blur"",""4"",""9855""
","""event"",""trial"",""time""
""focus"",""4"",""9856""
","""event"",""trial"",""time""
""fullscreenenter"",""5"",""12909""
","
",4832.434999989346,audio/quiz/Q1_Prompt.wav,NA,1,NA,NA,NA,NA,NA,NA,NA,NA,NA,NA,NA,NA,NA,NA,NA,NA,NA,NA,sub78
audio-keyboard-response,129,595797,0.0-70.0,TRUE,FALSE,TRUE,FALSE,"""event"",""trial"",""time""
""blur"",""4"",""9855""
""focus"",""4"",""9856""
""fullscreenenter"",""5"",""12909""
","""event"",""trial"",""time""
""blur"",""4"",""9855""
","""event"",""trial"",""time""
""focus"",""4"",""9856""
","""event"",""trial"",""time""
""fullscreenenter"",""5"",""12909""
","
",null,audio/quiz/Q1_Correct.wav,null,NA,NA,NA,NA,NA,NA,NA,NA,NA,NA,NA,NA,NA,NA,NA,NA,NA,NA,NA,sub78
instructions-quiz,130,604934,0.0-71.0,TRUE,FALSE,TRUE,FALSE,"""event"",""trial"",""time""
""blur"",""4"",""9855""
""focus"",""4"",""9856""
""fullscreenenter"",""5"",""12909""
","""event"",""trial"",""time""
""blur"",""4"",""9855""
","""event"",""trial"",""time""
""focus"",""4"",""9856""
","""event"",""trial"",""time""
""fullscreenenter"",""5"",""12909""
","
",9134.834999975283,audio/quiz/Q2_Prompt.wav,NA,0,NA,NA,NA,NA,NA,NA,NA,NA,NA,NA,NA,NA,NA,NA,NA,NA,NA,NA,sub78
audio-keyboard-response,131,617797,0.0-72.0,TRUE,FALSE,TRUE,FALSE,"""event"",""trial"",""time""
""blur"",""4"",""9855""
""focus"",""4"",""9856""
""fullscreenenter"",""5"",""12909""
","""event"",""trial"",""time""
""blur"",""4"",""9855""
","""event"",""trial"",""time""
""focus"",""4"",""9856""
","""event"",""trial"",""time""
""fullscreenenter"",""5"",""12909""
","
",null,audio/quiz/Q2_Correct.wav,null,NA,NA,NA,NA,NA,NA,NA,NA,NA,NA,NA,NA,NA,NA,NA,NA,NA,NA,NA,sub78
instructions-quiz,132,622527,0.0-73.0,TRUE,FALSE,TRUE,FALSE,"""event"",""trial"",""time""
""blur"",""4"",""9855""
""focus"",""4"",""9856""
""fullscreenenter"",""5"",""12909""
","""event"",""trial"",""time""
""blur"",""4"",""9855""
","""event"",""trial"",""time""
""focus"",""4"",""9856""
","""event"",""trial"",""time""
""fullscreenenter"",""5"",""12909""
","
",4728.8100000005215,audio/quiz/Q3_Prompt.wav,NA,1,NA,NA,NA,NA,NA,NA,NA,NA,NA,NA,NA,NA,NA,NA,NA,NA,NA,NA,sub78
audio-keyboard-response,133,628327,0.0-74.0,TRUE,FALSE,TRUE,FALSE,"""event"",""trial"",""time""
""blur"",""4"",""9855""
""focus"",""4"",""9856""
""fullscreenenter"",""5"",""12909""
","""event"",""trial"",""time""
""blur"",""4"",""9855""
","""event"",""trial"",""time""
""focus"",""4"",""9856""
","""event"",""trial"",""time""
""fullscreenenter"",""5"",""12909""
","
",null,audio/quiz/Q3_Correct.wav,null,NA,NA,NA,NA,NA,NA,NA,NA,NA,NA,NA,NA,NA,NA,NA,NA,NA,NA,NA,sub78
d3-instructions,134,642083,0.0-75.0,TRUE,FALSE,TRUE,FALSE,"""event"",""trial"",""time""
""blur"",""4"",""9855""
""focus"",""4"",""9856""
""fullscreenenter"",""5"",""12909""
","""event"",""trial"",""time""
""blur"",""4"",""9855""
","""event"",""trial"",""time""
""focus"",""4"",""9856""
","""event"",""trial"",""time""
""fullscreenenter"",""5"",""12909""
","
",NA,NA,NA,NA,NA,NA,NA,NA,NA,NA,NA,NA,NA,NA,NA,NA,NA,NA,NA,NA,NA,NA,sub78
d3-animate-choice,135,644908,0.0-76.0-0.0,TRUE,FALSE,TRUE,FALSE,"""event"",""trial"",""time""
""blur"",""4"",""9855""
""focus"",""4"",""9856""
""fullscreenenter"",""5"",""12909""
","""event"",""trial"",""time""
""blur"",""4"",""9855""
","""event"",""trial"",""time""
""focus"",""4"",""9856""
","""event"",""trial"",""time""
""fullscreenenter"",""5"",""12909""
","
",821.0700000054203,NA,49,NA,NA,3000,1,NA,NA,images/earth.jpg,images/rocket2,images/rocket1,null,images/rocket1,NA,1,real,null,1,NA,NA,NA,sub78
d3-animate-choice,136,647173,0.0-76.0-1.0,TRUE,FALSE,TRUE,FALSE,"""event"",""trial"",""time""
""blur"",""4"",""9855""
""focus"",""4"",""9856""
""fullscreenenter"",""5"",""12909""
","""event"",""trial"",""time""
""blur"",""4"",""9855""
","""event"",""trial"",""time""
""focus"",""4"",""9856""
","""event"",""trial"",""time""
""fullscreenenter"",""5"",""12909""
","
",260.4200000059791,NA,49,NA,NA,3000,1,NA,NA,images/redplanet1.jpg,images/alien2,images/alien1,images/rocket1,images/alien1,images/nothing.png,2,real,false,1,rare,0,2020-06-21T20:09:15Z,sub78
two-step-fixation,137,648176,0.0-76.0-2.0,TRUE,FALSE,TRUE,FALSE,"""event"",""trial"",""time""
""blur"",""4"",""9855""
""focus"",""4"",""9856""
""fullscreenenter"",""5"",""12909""
","""event"",""trial"",""time""
""blur"",""4"",""9855""
","""event"",""trial"",""time""
""focus"",""4"",""9856""
","""event"",""trial"",""time""
""fullscreenenter"",""5"",""12909""
","
",NA,images/earth.jpg,NA,NA,NA,NA,NA,NA,NA,NA,NA,NA,NA,NA,NA,fixation,NA,NA,NA,NA,NA,NA,sub78
d3-animate-choice,138,650421,0.0-76.0-0.1,TRUE,FALSE,TRUE,FALSE,"""event"",""trial"",""time""
""blur"",""4"",""9855""
""focus"",""4"",""9856""
""fullscreenenter"",""5"",""12909""
","""event"",""trial"",""time""
""blur"",""4"",""9855""
","""event"",""trial"",""time""
""focus"",""4"",""9856""
","""event"",""trial"",""time""
""fullscreenenter"",""5"",""12909""
","
",242.00500000733882,NA,48,NA,NA,3000,1,NA,NA,images/earth.jpg,images/rocket2,images/rocket1,null,images/rocket2,NA,1,real,null,2,NA,NA,NA,sub78
d3-animate-choice,139,652716,0.0-76.0-1.1,TRUE,FALSE,TRUE,FALSE,"""event"",""trial"",""time""
""blur"",""4"",""9855""
""focus"",""4"",""9856""
""fullscreenenter"",""5"",""12909""
","""event"",""trial"",""time""
""blur"",""4"",""9855""
","""event"",""trial"",""time""
""focus"",""4"",""9856""
","""event"",""trial"",""time""
""fullscreenenter"",""5"",""12909""
","
",291.84499999973923,NA,48,NA,NA,3000,1,NA,NA,images/purpleplanet.jpg,images/alien4,images/alien3,images/rocket2,images/alien4,images/t.png,2,real,false,2,rare,1,2020-06-21T20:09:20Z,sub78
two-step-fixation,140,653719,0.0-76.0-2.1,TRUE,FALSE,TRUE,FALSE,"""event"",""trial"",""time""
""blur"",""4"",""9855""
""focus"",""4"",""9856""
""fullscreenenter"",""5"",""12909""
","""event"",""trial"",""time""
""blur"",""4"",""9855""
","""event"",""trial"",""time""
""focus"",""4"",""9856""
","""event"",""trial"",""time""
""fullscreenenter"",""5"",""12909""
","
",NA,images/earth.jpg,NA,NA,NA,NA,NA,NA,NA,NA,NA,NA,NA,NA,NA,fixation,NA,NA,NA,NA,NA,NA,sub78
d3-animate-choice,141,656052,0.0-76.0-0.2,TRUE,FALSE,TRUE,FALSE,"""event"",""trial"",""time""
""blur"",""4"",""9855""
""focus"",""4"",""9856""
""fullscreenenter"",""5"",""12909""
","""event"",""trial"",""time""
""blur"",""4"",""9855""
","""event"",""trial"",""time""
""focus"",""4"",""9856""
","""event"",""trial"",""time""
""fullscreenenter"",""5"",""12909""
","
",329.2749999673106,NA,48,NA,NA,3000,1,NA,NA,images/earth.jpg,images/rocket2,images/rocket1,null,images/rocket2,NA,1,real,null,2,NA,NA,NA,sub78
d3-animate-choice,142,659492,0.0-76.0-1.2,TRUE,FALSE,TRUE,FALSE,"""event"",""trial"",""time""
""blur"",""4"",""9855""
""focus"",""4"",""9856""
""fullscreenenter"",""5"",""12909""
","""event"",""trial"",""time""
""blur"",""4"",""9855""
","""event"",""trial"",""time""
""focus"",""4"",""9856""
","""event"",""trial"",""time""
""fullscreenenter"",""5"",""12909""
","
",1021.2750000064261,NA,50,NA,NA,3000,1,"1436.9949999963865,1628.6899999831803",4948,images/redplanet1.jpg,images/alien2,images/alien1,images/rocket2,images/alien1,images/nothing.png,2,real,true,NA,common,0,2020-06-21T20:09:27Z,sub78
two-step-fixation,143,660495,0.0-76.0-2.2,TRUE,FALSE,TRUE,FALSE,"""event"",""trial"",""time""
""blur"",""4"",""9855""
""focus"",""4"",""9856""
""fullscreenenter"",""5"",""12909""
","""event"",""trial"",""time""
""blur"",""4"",""9855""
","""event"",""trial"",""time""
""focus"",""4"",""9856""
","""event"",""trial"",""time""
""fullscreenenter"",""5"",""12909""
","
",NA,images/earth.jpg,NA,NA,NA,NA,NA,NA,NA,NA,NA,NA,NA,NA,NA,fixation,NA,NA,NA,NA,NA,NA,sub78
d3-animate-choice,144,662772,0.0-76.0-0.3,TRUE,FALSE,TRUE,FALSE,"""event"",""trial"",""time""
""blur"",""4"",""9855""
""focus"",""4"",""9856""
""fullscreenenter"",""5"",""12909""
","""event"",""trial"",""time""
""blur"",""4"",""9855""
","""event"",""trial"",""time""
""focus"",""4"",""9856""
","""event"",""trial"",""time""
""fullscreenenter"",""5"",""12909""
","
",273.72499997727573,NA,48,NA,NA,3000,1,NA,NA,images/earth.jpg,images/rocket2,images/rocket1,null,images/rocket2,NA,1,real,null,2,NA,NA,NA,sub78
d3-animate-choice,145,665052,0.0-76.0-1.3,TRUE,FALSE,TRUE,FALSE,"""event"",""trial"",""time""
""blur"",""4"",""9855""
""focus"",""4"",""9856""
""fullscreenenter"",""5"",""12909""
","""event"",""trial"",""time""
""blur"",""4"",""9855""
","""event"",""trial"",""time""
""focus"",""4"",""9856""
","""event"",""trial"",""time""
""fullscreenenter"",""5"",""12909""
","
",276.61000000080094,NA,48,NA,NA,3000,1,NA,NA,images/purpleplanet.jpg,images/alien4,images/alien3,images/rocket2,images/alien4,images/t.png,2,real,false,2,rare,1,2020-06-21T20:09:33Z,sub78
two-step-fixation,146,666056,0.0-76.0-2.3,TRUE,FALSE,TRUE,FALSE,"""event"",""trial"",""time""
""blur"",""4"",""9855""
""focus"",""4"",""9856""
""fullscreenenter"",""5"",""12909""
","""event"",""trial"",""time""
""blur"",""4"",""9855""
","""event"",""trial"",""time""
""focus"",""4"",""9856""
","""event"",""trial"",""time""
""fullscreenenter"",""5"",""12909""
","
",NA,images/earth.jpg,NA,NA,NA,NA,NA,NA,NA,NA,NA,NA,NA,NA,NA,fixation,NA,NA,NA,NA,NA,NA,sub78
d3-animate-choice,147,668453,0.0-76.0-0.4,TRUE,FALSE,TRUE,FALSE,"""event"",""trial"",""time""
""blur"",""4"",""9855""
""focus"",""4"",""9856""
""fullscreenenter"",""5"",""12909""
""blur"",""148"",""669737""
","""event"",""trial"",""time""
""blur"",""4"",""9855""
""blur"",""148"",""669737""
","""event"",""trial"",""time""
""focus"",""4"",""9856""
","""event"",""trial"",""time""
""fullscreenenter"",""5"",""12909""
","
",393.3100000140257,NA,48,NA,NA,3000,1,NA,NA,images/earth.jpg,images/rocket2,images/rocket1,null,images/rocket2,NA,1,real,null,2,NA,NA,NA,sub78
d3-animate-choice,148,671733,0.0-76.0-1.4,TRUE,FALSE,TRUE,FALSE,"""event"",""trial"",""time""
""blur"",""4"",""9855""
""focus"",""4"",""9856""
""fullscreenenter"",""5"",""12909""
""blur"",""148"",""669737""
","""event"",""trial"",""time""
""blur"",""4"",""9855""
""blur"",""148"",""669737""
","""event"",""trial"",""time""
""focus"",""4"",""9856""
","""event"",""trial"",""time""
""fullscreenenter"",""5"",""12909""
","
",1276.3449999620207,NA,48,NA,NA,3000,1,NA,NA,images/redplanet1.jpg,images/alien2,images/alien1,images/rocket2,images/alien2,images/t.png,2,real,true,2,common,1,2020-06-21T20:09:39Z,sub78
two-step-fixation,149,672739,0.0-76.0-2.4,TRUE,FALSE,TRUE,FALSE,"""event"",""trial"",""time""
""blur"",""4"",""9855""
""focus"",""4"",""9856""
""fullscreenenter"",""5"",""12909""
""blur"",""148"",""669737""
""focus"",""150"",""676744""
","""event"",""trial"",""time""
""blur"",""4"",""9855""
""blur"",""148"",""669737""
","""event"",""trial"",""time""
""focus"",""4"",""9856""
""focus"",""150"",""676744""
","""event"",""trial"",""time""
""fullscreenenter"",""5"",""12909""
","
",NA,images/earth.jpg,NA,NA,NA,NA,NA,NA,NA,NA,NA,NA,NA,NA,NA,fixation,NA,NA,NA,NA,NA,NA,sub78
d3-animate-choice,150,676749,0.0-76.0-0.5,TRUE,FALSE,TRUE,FALSE,"""event"",""trial"",""time""
""blur"",""4"",""9855""
""focus"",""4"",""9856""
""fullscreenenter"",""5"",""12909""
""blur"",""148"",""669737""
""focus"",""150"",""676744""
","""event"",""trial"",""time""
""blur"",""4"",""9855""
""blur"",""148"",""669737""
","""event"",""trial"",""time""
""focus"",""4"",""9856""
""focus"",""150"",""676744""
","""event"",""trial"",""time""
""fullscreenenter"",""5"",""12909""
","
",null,NA,null,NA,NA,3000,0,NA,NA,images/earth.jpg,images/rocket2,images/rocket1,null,NA,NA,1,real,null,NA,NA,NA,NA,sub78
d3-animate-choice,151,677760,0.0-76.0-1.5,TRUE,FALSE,TRUE,FALSE,"""event"",""trial"",""time""
""blur"",""4"",""9855""
""focus"",""4"",""9856""
""fullscreenenter"",""5"",""12909""
""blur"",""148"",""669737""
""focus"",""150"",""676744""
","""event"",""trial"",""time""
""blur"",""4"",""9855""
""blur"",""148"",""669737""
","""event"",""trial"",""time""
""focus"",""4"",""9856""
""focus"",""150"",""676744""
","""event"",""trial"",""time""
""fullscreenenter"",""5"",""12909""
","
",null,NA,null,NA,NA,0,0,NA,NA,images/earth.jpg,images/rocket2,images/rocket1,null,NA,NA,2,real,null,NA,NA,0,2020-06-21T20:09:45Z,sub78
two-step-fixation,152,678762,0.0-76.0-2.5,TRUE,FALSE,TRUE,FALSE,"""event"",""trial"",""time""
""blur"",""4"",""9855""
""focus"",""4"",""9856""
""fullscreenenter"",""5"",""12909""
""blur"",""148"",""669737""
""focus"",""150"",""676744""
","""event"",""trial"",""time""
""blur"",""4"",""9855""
""blur"",""148"",""669737""
","""event"",""trial"",""time""
""focus"",""4"",""9856""
""focus"",""150"",""676744""
","""event"",""trial"",""time""
""fullscreenenter"",""5"",""12909""
","
",NA,images/earth.jpg,NA,NA,NA,NA,NA,NA,NA,NA,NA,NA,NA,NA,NA,fixation,NA,NA,NA,NA,NA,NA,sub78
d3-animate-choice,153,682141,0.0-76.0-0.6,TRUE,FALSE,TRUE,FALSE,"""event"",""trial"",""time""
""blur"",""4"",""9855""
""focus"",""4"",""9856""
""fullscreenenter"",""5"",""12909""
""blur"",""148"",""669737""
""focus"",""150"",""676744""
","""event"",""trial"",""time""
""blur"",""4"",""9855""
""blur"",""148"",""669737""
","""event"",""trial"",""time""
""focus"",""4"",""9856""
""focus"",""150"",""676744""
","""event"",""trial"",""time""
""fullscreenenter"",""5"",""12909""
","
",1086.6099999984726,NA,57,NA,NA,3000,1,1375.1549999578856,48,images/earth.jpg,images/rocket2,images/rocket1,null,images/rocket2,NA,1,real,null,NA,NA,NA,NA,sub78
d3-animate-choice,154,684638,0.0-76.0-1.6,TRUE,FALSE,TRUE,FALSE,"""event"",""trial"",""time""
""blur"",""4"",""9855""
""focus"",""4"",""9856""
""fullscreenenter"",""5"",""12909""
""blur"",""148"",""669737""
""focus"",""150"",""676744""
","""event"",""trial"",""time""
""blur"",""4"",""9855""
""blur"",""148"",""669737""
","""event"",""trial"",""time""
""focus"",""4"",""9856""
""focus"",""150"",""676744""
","""event"",""trial"",""time""
""fullscreenenter"",""5"",""12909""
","
",491.18000001180917,NA,48,NA,NA,3000,1,1771.0599999991246,48,images/purpleplanet.jpg,images/alien4,images/alien3,images/rocket2,images/alien4,images/nothing.png,2,real,false,2,rare,0,2020-06-21T20:09:52Z,sub78
two-step-fixation,155,685642,0.0-76.0-2.6,TRUE,FALSE,TRUE,FALSE,"""event"",""trial"",""time""
""blur"",""4"",""9855""
""focus"",""4"",""9856""
""fullscreenenter"",""5"",""12909""
""blur"",""148"",""669737""
""focus"",""150"",""676744""
","""event"",""trial"",""time""
""blur"",""4"",""9855""
""blur"",""148"",""669737""
","""event"",""trial"",""time""
""focus"",""4"",""9856""
""focus"",""150"",""676744""
","""event"",""trial"",""time""
""fullscreenenter"",""5"",""12909""
","
",NA,images/earth.jpg,NA,NA,NA,NA,NA,NA,NA,NA,NA,NA,NA,NA,NA,fixation,NA,NA,NA,NA,NA,NA,sub78
d3-animate-choice,156,687886,0.0-76.0-0.7,TRUE,FALSE,TRUE,FALSE,"""event"",""trial"",""time""
""blur"",""4"",""9855""
""focus"",""4"",""9856""
""fullscreenenter"",""5"",""12909""
""blur"",""148"",""669737""
""focus"",""150"",""676744""
","""event"",""trial"",""time""
""blur"",""4"",""9855""
""blur"",""148"",""669737""
","""event"",""trial"",""time""
""focus"",""4"",""9856""
""focus"",""150"",""676744""
","""event"",""trial"",""time""
""fullscreenenter"",""5"",""12909""
","
",238.71999996481463,NA,49,NA,NA,3000,1,NA,NA,images/earth.jpg,images/rocket2,images/rocket1,null,images/rocket1,NA,1,real,null,1,NA,NA,NA,sub78
d3-animate-choice,157,690350,0.0-76.0-1.7,TRUE,FALSE,TRUE,FALSE,"""event"",""trial"",""time""
""blur"",""4"",""9855""
""focus"",""4"",""9856""
""fullscreenenter"",""5"",""12909""
""blur"",""148"",""669737""
""focus"",""150"",""676744""
","""event"",""trial"",""time""
""blur"",""4"",""9855""
""blur"",""148"",""669737""
","""event"",""trial"",""time""
""focus"",""4"",""9856""
""focus"",""150"",""676744""
","""event"",""trial"",""time""
""fullscreenenter"",""5"",""12909""
","
",458.65499996580184,NA,49,NA,NA,3000,1,NA,NA,images/purpleplanet.jpg,images/alien4,images/alien3,images/rocket1,images/alien3,images/t.png,2,real,true,1,common,1,2020-06-21T20:09:58Z,sub78
two-step-fixation,158,691354,0.0-76.0-2.7,TRUE,FALSE,TRUE,FALSE,"""event"",""trial"",""time""
""blur"",""4"",""9855""
""focus"",""4"",""9856""
""fullscreenenter"",""5"",""12909""
""blur"",""148"",""669737""
""focus"",""150"",""676744""
","""event"",""trial"",""time""
""blur"",""4"",""9855""
""blur"",""148"",""669737""
","""event"",""trial"",""time""
""focus"",""4"",""9856""
""focus"",""150"",""676744""
","""event"",""trial"",""time""
""fullscreenenter"",""5"",""12909""
","
",NA,images/earth.jpg,NA,NA,NA,NA,NA,NA,NA,NA,NA,NA,NA,NA,NA,fixation,NA,NA,NA,NA,NA,NA,sub78
d3-animate-choice,159,693670,0.0-76.0-0.8,TRUE,FALSE,TRUE,FALSE,"""event"",""trial"",""time""
""blur"",""4"",""9855""
""focus"",""4"",""9856""
""fullscreenenter"",""5"",""12909""
""blur"",""148"",""669737""
""focus"",""150"",""676744""
","""event"",""trial"",""time""
""blur"",""4"",""9855""
""blur"",""148"",""669737""
","""event"",""trial"",""time""
""focus"",""4"",""9856""
""focus"",""150"",""676744""
","""event"",""trial"",""time""
""fullscreenenter"",""5"",""12909""
","
",310.6600000173785,NA,49,NA,NA,3000,1,NA,NA,images/earth.jpg,images/rocket2,images/rocket1,null,images/rocket1,NA,1,real,null,1,NA,NA,NA,sub78
d3-animate-choice,160,696229,0.0-76.0-1.8,TRUE,FALSE,TRUE,FALSE,"""event"",""trial"",""time""
""blur"",""4"",""9855""
""focus"",""4"",""9856""
""fullscreenenter"",""5"",""12909""
""blur"",""148"",""669737""
""focus"",""150"",""676744""
","""event"",""trial"",""time""
""blur"",""4"",""9855""
""blur"",""148"",""669737""
","""event"",""trial"",""time""
""focus"",""4"",""9856""
""focus"",""150"",""676744""
","""event"",""trial"",""time""
""fullscreenenter"",""5"",""12909""
","
",555.2199999801815,NA,48,NA,NA,3000,1,NA,NA,images/purpleplanet.jpg,images/alien4,images/alien3,images/rocket1,images/alien4,images/t.png,2,real,true,2,common,1,2020-06-21T20:10:04Z,sub78
two-step-fixation,161,697235,0.0-76.0-2.8,TRUE,FALSE,TRUE,FALSE,"""event"",""trial"",""time""
""blur"",""4"",""9855""
""focus"",""4"",""9856""
""fullscreenenter"",""5"",""12909""
""blur"",""148"",""669737""
""focus"",""150"",""676744""
","""event"",""trial"",""time""
""blur"",""4"",""9855""
""blur"",""148"",""669737""
","""event"",""trial"",""time""
""focus"",""4"",""9856""
""focus"",""150"",""676744""
","""event"",""trial"",""time""
""fullscreenenter"",""5"",""12909""
","
",NA,images/earth.jpg,NA,NA,NA,NA,NA,NA,NA,NA,NA,NA,NA,NA,NA,fixation,NA,NA,NA,NA,NA,NA,sub78
d3-animate-choice,162,699437,0.0-76.0-0.9,TRUE,FALSE,TRUE,FALSE,"""event"",""trial"",""time""
""blur"",""4"",""9855""
""focus"",""4"",""9856""
""fullscreenenter"",""5"",""12909""
""blur"",""148"",""669737""
""focus"",""150"",""676744""
","""event"",""trial"",""time""
""blur"",""4"",""9855""
""blur"",""148"",""669737""
","""event"",""trial"",""time""
""focus"",""4"",""9856""
""focus"",""150"",""676744""
","""event"",""trial"",""time""
""fullscreenenter"",""5"",""12909""
","
",196.9200000166893,NA,48,NA,NA,3000,1,NA,NA,images/earth.jpg,images/rocket2,images/rocket1,null,images/rocket2,NA,1,real,null,2,NA,NA,NA,sub78
d3-animate-choice,163,701829,0.0-76.0-1.9,TRUE,FALSE,TRUE,FALSE,"""event"",""trial"",""time""
""blur"",""4"",""9855""
""focus"",""4"",""9856""
""fullscreenenter"",""5"",""12909""
""blur"",""148"",""669737""
""focus"",""150"",""676744""
","""event"",""trial"",""time""
""blur"",""4"",""9855""
""blur"",""148"",""669737""
","""event"",""trial"",""time""
""focus"",""4"",""9856""
""focus"",""150"",""676744""
","""event"",""trial"",""time""
""fullscreenenter"",""5"",""12909""
","
",388.695000030566,NA,48,NA,NA,3000,1,NA,NA,images/purpleplanet.jpg,images/alien4,images/alien3,images/rocket2,images/alien4,images/t.png,2,real,false,2,rare,1,2020-06-21T20:10:10Z,sub78
two-step-fixation,164,702834,0.0-76.0-2.9,TRUE,FALSE,TRUE,FALSE,"""event"",""trial"",""time""
""blur"",""4"",""9855""
""focus"",""4"",""9856""
""fullscreenenter"",""5"",""12909""
""blur"",""148"",""669737""
""focus"",""150"",""676744""
","""event"",""trial"",""time""
""blur"",""4"",""9855""
""blur"",""148"",""669737""
","""event"",""trial"",""time""
""focus"",""4"",""9856""
""focus"",""150"",""676744""
","""event"",""trial"",""time""
""fullscreenenter"",""5"",""12909""
","
",NA,images/earth.jpg,NA,NA,NA,NA,NA,NA,NA,NA,NA,NA,NA,NA,NA,fixation,NA,NA,NA,NA,NA,NA,sub78
d3-animate-choice,165,705181,0.0-76.0-0.10,TRUE,FALSE,TRUE,FALSE,"""event"",""trial"",""time""
""blur"",""4"",""9855""
""focus"",""4"",""9856""
""fullscreenenter"",""5"",""12909""
""blur"",""148"",""669737""
""focus"",""150"",""676744""
","""event"",""trial"",""time""
""blur"",""4"",""9855""
""blur"",""148"",""669737""
","""event"",""trial"",""time""
""focus"",""4"",""9856""
""focus"",""150"",""676744""
","""event"",""trial"",""time""
""fullscreenenter"",""5"",""12909""
","
",342.7650000085123,NA,48,NA,NA,3000,1,NA,NA,images/earth.jpg,images/rocket2,images/rocket1,null,images/rocket2,NA,1,real,null,2,NA,NA,NA,sub78
d3-animate-choice,166,707813,0.0-76.0-1.10,TRUE,FALSE,TRUE,FALSE,"""event"",""trial"",""time""
""blur"",""4"",""9855""
""focus"",""4"",""9856""
""fullscreenenter"",""5"",""12909""
""blur"",""148"",""669737""
""focus"",""150"",""676744""
","""event"",""trial"",""time""
""blur"",""4"",""9855""
""blur"",""148"",""669737""
","""event"",""trial"",""time""
""focus"",""4"",""9856""
""focus"",""150"",""676744""
","""event"",""trial"",""time""
""fullscreenenter"",""5"",""12909""
","
",627.4650000268593,NA,49,NA,NA,3000,1,NA,NA,images/redplanet1.jpg,images/alien2,images/alien1,images/rocket2,images/alien1,images/t.png,2,real,true,1,common,1,2020-06-21T20:10:16Z,sub78
two-step-fixation,167,708819,0.0-76.0-2.10,TRUE,FALSE,TRUE,FALSE,"""event"",""trial"",""time""
""blur"",""4"",""9855""
""focus"",""4"",""9856""
""fullscreenenter"",""5"",""12909""
""blur"",""148"",""669737""
""focus"",""150"",""676744""
","""event"",""trial"",""time""
""blur"",""4"",""9855""
""blur"",""148"",""669737""
","""event"",""trial"",""time""
""focus"",""4"",""9856""
""focus"",""150"",""676744""
","""event"",""trial"",""time""
""fullscreenenter"",""5"",""12909""
","
",NA,images/earth.jpg,NA,NA,NA,NA,NA,NA,NA,NA,NA,NA,NA,NA,NA,fixation,NA,NA,NA,NA,NA,NA,sub78
d3-animate-choice,168,710909,0.0-76.0-0.11,TRUE,FALSE,TRUE,FALSE,"""event"",""trial"",""time""
""blur"",""4"",""9855""
""focus"",""4"",""9856""
""fullscreenenter"",""5"",""12909""
""blur"",""148"",""669737""
""focus"",""150"",""676744""
","""event"",""trial"",""time""
""blur"",""4"",""9855""
""blur"",""148"",""669737""
","""event"",""trial"",""time""
""focus"",""4"",""9856""
""focus"",""150"",""676744""
","""event"",""trial"",""time""
""fullscreenenter"",""5"",""12909""
","
",86.11500001279637,NA,49,NA,NA,3000,1,NA,NA,images/earth.jpg,images/rocket2,images/rocket1,null,images/rocket1,NA,1,real,null,1,NA,NA,NA,sub78
d3-animate-choice,169,713212,0.0-76.0-1.11,TRUE,FALSE,TRUE,FALSE,"""event"",""trial"",""time""
""blur"",""4"",""9855""
""focus"",""4"",""9856""
""fullscreenenter"",""5"",""12909""
""blur"",""148"",""669737""
""focus"",""150"",""676744""
","""event"",""trial"",""time""
""blur"",""4"",""9855""
""blur"",""148"",""669737""
","""event"",""trial"",""time""
""focus"",""4"",""9856""
""focus"",""150"",""676744""
","""event"",""trial"",""time""
""fullscreenenter"",""5"",""12909""
","
",300.40499998722225,NA,48,NA,NA,3000,1,NA,NA,images/purpleplanet.jpg,images/alien4,images/alien3,images/rocket1,images/alien4,images/t.png,2,real,true,2,common,1,2020-06-21T20:10:21Z,sub78
two-step-fixation,170,714217,0.0-76.0-2.11,TRUE,FALSE,TRUE,FALSE,"""event"",""trial"",""time""
""blur"",""4"",""9855""
""focus"",""4"",""9856""
""fullscreenenter"",""5"",""12909""
""blur"",""148"",""669737""
""focus"",""150"",""676744""
","""event"",""trial"",""time""
""blur"",""4"",""9855""
""blur"",""148"",""669737""
","""event"",""trial"",""time""
""focus"",""4"",""9856""
""focus"",""150"",""676744""
","""event"",""trial"",""time""
""fullscreenenter"",""5"",""12909""
","
",NA,images/earth.jpg,NA,NA,NA,NA,NA,NA,NA,NA,NA,NA,NA,NA,NA,fixation,NA,NA,NA,NA,NA,NA,sub78
d3-animate-choice,171,716503,0.0-76.0-0.12,TRUE,FALSE,TRUE,FALSE,"""event"",""trial"",""time""
""blur"",""4"",""9855""
""focus"",""4"",""9856""
""fullscreenenter"",""5"",""12909""
""blur"",""148"",""669737""
""focus"",""150"",""676744""
","""event"",""trial"",""time""
""blur"",""4"",""9855""
""blur"",""148"",""669737""
","""event"",""trial"",""time""
""focus"",""4"",""9856""
""focus"",""150"",""676744""
","""event"",""trial"",""time""
""fullscreenenter"",""5"",""12909""
","
",281.01999999489635,NA,49,NA,NA,3000,1,NA,NA,images/earth.jpg,images/rocket2,images/rocket1,null,images/rocket1,NA,1,real,null,1,NA,NA,NA,sub78
d3-animate-choice,172,718757,0.0-76.0-1.12,TRUE,FALSE,TRUE,FALSE,"""event"",""trial"",""time""
""blur"",""4"",""9855""
""focus"",""4"",""9856""
""fullscreenenter"",""5"",""12909""
""blur"",""148"",""669737""
""focus"",""150"",""676744""
","""event"",""trial"",""time""
""blur"",""4"",""9855""
""blur"",""148"",""669737""
","""event"",""trial"",""time""
""focus"",""4"",""9856""
""focus"",""150"",""676744""
","""event"",""trial"",""time""
""fullscreenenter"",""5"",""12909""
","
",249.70500002382323,NA,48,NA,NA,3000,1,NA,NA,images/purpleplanet.jpg,images/alien4,images/alien3,images/rocket1,images/alien4,images/t.png,2,real,true,2,common,1,2020-06-21T20:10:26Z,sub78
two-step-fixation,173,719762,0.0-76.0-2.12,TRUE,FALSE,TRUE,FALSE,"""event"",""trial"",""time""
""blur"",""4"",""9855""
""focus"",""4"",""9856""
""fullscreenenter"",""5"",""12909""
""blur"",""148"",""669737""
""focus"",""150"",""676744""
","""event"",""trial"",""time""
""blur"",""4"",""9855""
""blur"",""148"",""669737""
","""event"",""trial"",""time""
""focus"",""4"",""9856""
""focus"",""150"",""676744""
","""event"",""trial"",""time""
""fullscreenenter"",""5"",""12909""
","
",NA,images/earth.jpg,NA,NA,NA,NA,NA,NA,NA,NA,NA,NA,NA,NA,NA,fixation,NA,NA,NA,NA,NA,NA,sub78
d3-animate-choice,174,721964,0.0-76.0-0.13,TRUE,FALSE,TRUE,FALSE,"""event"",""trial"",""time""
""blur"",""4"",""9855""
""focus"",""4"",""9856""
""fullscreenenter"",""5"",""12909""
""blur"",""148"",""669737""
""focus"",""150"",""676744""
","""event"",""trial"",""time""
""blur"",""4"",""9855""
""blur"",""148"",""669737""
","""event"",""trial"",""time""
""focus"",""4"",""9856""
""focus"",""150"",""676744""
","""event"",""trial"",""time""
""fullscreenenter"",""5"",""12909""
","
",198.2399999978952,NA,49,NA,NA,3000,1,NA,NA,images/earth.jpg,images/rocket2,images/rocket1,null,images/rocket1,NA,1,real,null,1,NA,NA,NA,sub78
d3-animate-choice,175,724220,0.0-76.0-1.13,TRUE,FALSE,TRUE,FALSE,"""event"",""trial"",""time""
""blur"",""4"",""9855""
""focus"",""4"",""9856""
""fullscreenenter"",""5"",""12909""
""blur"",""148"",""669737""
""focus"",""150"",""676744""
","""event"",""trial"",""time""
""blur"",""4"",""9855""
""blur"",""148"",""669737""
","""event"",""trial"",""time""
""focus"",""4"",""9856""
""focus"",""150"",""676744""
","""event"",""trial"",""time""
""fullscreenenter"",""5"",""12909""
","
",251.1100000119768,NA,48,NA,NA,3000,1,NA,NA,images/purpleplanet.jpg,images/alien4,images/alien3,images/rocket1,images/alien4,images/nothing.png,2,real,true,2,common,0,2020-06-21T20:10:32Z,sub78
two-step-fixation,176,725226,0.0-76.0-2.13,TRUE,FALSE,TRUE,FALSE,"""event"",""trial"",""time""
""blur"",""4"",""9855""
""focus"",""4"",""9856""
""fullscreenenter"",""5"",""12909""
""blur"",""148"",""669737""
""focus"",""150"",""676744""
","""event"",""trial"",""time""
""blur"",""4"",""9855""
""blur"",""148"",""669737""
","""event"",""trial"",""time""
""focus"",""4"",""9856""
""focus"",""150"",""676744""
","""event"",""trial"",""time""
""fullscreenenter"",""5"",""12909""
","
",NA,images/earth.jpg,NA,NA,NA,NA,NA,NA,NA,NA,NA,NA,NA,NA,NA,fixation,NA,NA,NA,NA,NA,NA,sub78
d3-animate-choice,177,727255,0.0-76.0-0.14,TRUE,FALSE,TRUE,FALSE,"""event"",""trial"",""time""
""blur"",""4"",""9855""
""focus"",""4"",""9856""
""fullscreenenter"",""5"",""12909""
""blur"",""148"",""669737""
""focus"",""150"",""676744""
","""event"",""trial"",""time""
""blur"",""4"",""9855""
""blur"",""148"",""669737""
","""event"",""trial"",""time""
""focus"",""4"",""9856""
""focus"",""150"",""676744""
","""event"",""trial"",""time""
""fullscreenenter"",""5"",""12909""
","
",21.929999988060445,NA,48,NA,NA,3000,1,NA,NA,images/earth.jpg,images/rocket2,images/rocket1,null,images/rocket2,NA,1,real,null,2,NA,NA,NA,sub78
d3-animate-choice,178,729661,0.0-76.0-1.14,TRUE,FALSE,TRUE,FALSE,"""event"",""trial"",""time""
""blur"",""4"",""9855""
""focus"",""4"",""9856""
""fullscreenenter"",""5"",""12909""
""blur"",""148"",""669737""
""focus"",""150"",""676744""
","""event"",""trial"",""time""
""blur"",""4"",""9855""
""blur"",""148"",""669737""
","""event"",""trial"",""time""
""focus"",""4"",""9856""
""focus"",""150"",""676744""
","""event"",""trial"",""time""
""fullscreenenter"",""5"",""12909""
","
",401.61000000080094,NA,49,NA,NA,3000,1,NA,NA,images/redplanet1.jpg,images/alien2,images/alien1,images/rocket2,images/alien1,images/t.png,2,real,true,1,common,1,2020-06-21T20:10:37Z,sub78
two-step-fixation,179,730664,0.0-76.0-2.14,TRUE,FALSE,TRUE,FALSE,"""event"",""trial"",""time""
""blur"",""4"",""9855""
""focus"",""4"",""9856""
""fullscreenenter"",""5"",""12909""
""blur"",""148"",""669737""
""focus"",""150"",""676744""
","""event"",""trial"",""time""
""blur"",""4"",""9855""
""blur"",""148"",""669737""
","""event"",""trial"",""time""
""focus"",""4"",""9856""
""focus"",""150"",""676744""
","""event"",""trial"",""time""
""fullscreenenter"",""5"",""12909""
","
",NA,images/earth.jpg,NA,NA,NA,NA,NA,NA,NA,NA,NA,NA,NA,NA,NA,fixation,NA,NA,NA,NA,NA,NA,sub78
d3-animate-choice,180,732677,0.0-76.0-0.15,TRUE,FALSE,TRUE,FALSE,"""event"",""trial"",""time""
""blur"",""4"",""9855""
""focus"",""4"",""9856""
""fullscreenenter"",""5"",""12909""
""blur"",""148"",""669737""
""focus"",""150"",""676744""
","""event"",""trial"",""time""
""blur"",""4"",""9855""
""blur"",""148"",""669737""
","""event"",""trial"",""time""
""focus"",""4"",""9856""
""focus"",""150"",""676744""
","""event"",""trial"",""time""
""fullscreenenter"",""5"",""12909""
","
",8.205000020097941,NA,49,NA,NA,3000,1,NA,NA,images/earth.jpg,images/rocket2,images/rocket1,null,images/rocket1,NA,1,real,null,1,NA,NA,NA,sub78
d3-animate-choice,181,734957,0.0-76.0-1.15,TRUE,FALSE,TRUE,FALSE,"""event"",""trial"",""time""
""blur"",""4"",""9855""
""focus"",""4"",""9856""
""fullscreenenter"",""5"",""12909""
""blur"",""148"",""669737""
""focus"",""150"",""676744""
","""event"",""trial"",""time""
""blur"",""4"",""9855""
""blur"",""148"",""669737""
","""event"",""trial"",""time""
""focus"",""4"",""9856""
""focus"",""150"",""676744""
","""event"",""trial"",""time""
""fullscreenenter"",""5"",""12909""
","
",275.7000000565313,NA,48,NA,NA,3000,1,NA,NA,images/purpleplanet.jpg,images/alien4,images/alien3,images/rocket1,images/alien4,images/t.png,2,real,true,2,common,1,2020-06-21T20:10:43Z,sub78
two-step-fixation,182,735962,0.0-76.0-2.15,TRUE,FALSE,TRUE,FALSE,"""event"",""trial"",""time""
""blur"",""4"",""9855""
""focus"",""4"",""9856""
""fullscreenenter"",""5"",""12909""
""blur"",""148"",""669737""
""focus"",""150"",""676744""
","""event"",""trial"",""time""
""blur"",""4"",""9855""
""blur"",""148"",""669737""
","""event"",""trial"",""time""
""focus"",""4"",""9856""
""focus"",""150"",""676744""
","""event"",""trial"",""time""
""fullscreenenter"",""5"",""12909""
","
",NA,images/earth.jpg,NA,NA,NA,NA,NA,NA,NA,NA,NA,NA,NA,NA,NA,fixation,NA,NA,NA,NA,NA,NA,sub78
d3-animate-choice,183,738125,0.0-76.0-0.16,TRUE,FALSE,TRUE,FALSE,"""event"",""trial"",""time""
""blur"",""4"",""9855""
""focus"",""4"",""9856""
""fullscreenenter"",""5"",""12909""
""blur"",""148"",""669737""
""focus"",""150"",""676744""
","""event"",""trial"",""time""
""blur"",""4"",""9855""
""blur"",""148"",""669737""
","""event"",""trial"",""time""
""focus"",""4"",""9856""
""focus"",""150"",""676744""
","""event"",""trial"",""time""
""fullscreenenter"",""5"",""12909""
","
",159.14499998325482,NA,49,NA,NA,3000,1,NA,NA,images/earth.jpg,images/rocket2,images/rocket1,null,images/rocket1,NA,1,real,null,1,NA,NA,NA,sub78
d3-animate-choice,184,740206,0.0-76.0-1.16,TRUE,FALSE,TRUE,FALSE,"""event"",""trial"",""time""
""blur"",""4"",""9855""
""focus"",""4"",""9856""
""fullscreenenter"",""5"",""12909""
""blur"",""148"",""669737""
""focus"",""150"",""676744""
","""event"",""trial"",""time""
""blur"",""4"",""9855""
""blur"",""148"",""669737""
","""event"",""trial"",""time""
""focus"",""4"",""9856""
""focus"",""150"",""676744""
","""event"",""trial"",""time""
""fullscreenenter"",""5"",""12909""
","
",75.2949999878183,NA,48,NA,NA,3000,1,NA,NA,images/purpleplanet.jpg,images/alien4,images/alien3,images/rocket1,images/alien4,images/t.png,2,real,true,2,common,1,2020-06-21T20:10:48Z,sub78
two-step-fixation,185,741211,0.0-76.0-2.16,TRUE,FALSE,TRUE,FALSE,"""event"",""trial"",""time""
""blur"",""4"",""9855""
""focus"",""4"",""9856""
""fullscreenenter"",""5"",""12909""
""blur"",""148"",""669737""
""focus"",""150"",""676744""
","""event"",""trial"",""time""
""blur"",""4"",""9855""
""blur"",""148"",""669737""
","""event"",""trial"",""time""
""focus"",""4"",""9856""
""focus"",""150"",""676744""
","""event"",""trial"",""time""
""fullscreenenter"",""5"",""12909""
","
",NA,images/earth.jpg,NA,NA,NA,NA,NA,NA,NA,NA,NA,NA,NA,NA,NA,fixation,NA,NA,NA,NA,NA,NA,sub78
d3-animate-choice,186,743518,0.0-76.0-0.17,TRUE,FALSE,TRUE,FALSE,"""event"",""trial"",""time""
""blur"",""4"",""9855""
""focus"",""4"",""9856""
""fullscreenenter"",""5"",""12909""
""blur"",""148"",""669737""
""focus"",""150"",""676744""
","""event"",""trial"",""time""
""blur"",""4"",""9855""
""blur"",""148"",""669737""
","""event"",""trial"",""time""
""focus"",""4"",""9856""
""focus"",""150"",""676744""
","""event"",""trial"",""time""
""fullscreenenter"",""5"",""12909""
","
",301.84000002918765,NA,49,NA,NA,3000,1,2277.605000010226,48,images/earth.jpg,images/rocket2,images/rocket1,null,images/rocket1,NA,1,real,null,1,NA,NA,NA,sub78
d3-animate-choice,187,745766,0.0-76.0-1.17,TRUE,FALSE,TRUE,FALSE,"""event"",""trial"",""time""
""blur"",""4"",""9855""
""focus"",""4"",""9856""
""fullscreenenter"",""5"",""12909""
""blur"",""148"",""669737""
""focus"",""150"",""676744""
","""event"",""trial"",""time""
""blur"",""4"",""9855""
""blur"",""148"",""669737""
","""event"",""trial"",""time""
""focus"",""4"",""9856""
""focus"",""150"",""676744""
