trial_type,trial_index,time_elapsed,internal_node_id,rocket_sides,red_planet_first_rocket,red_display_order,purple_display_order,interactions,blur_events,focus_events,fullscreenenter_events,fullscreenexit_events,rt,stimulus,key_press,button_pressed,success,duration,valid_pressed,rts,keys,planet_text,right_text,left_text,center_text,chosen_text,reward_text,trial_stage,practice_trial,transition_type,choice,transition,reward,timestamp,subject_id
pavlovia,0,3,0.0-0.0,FALSE,FALSE,FALSE,FALSE,"
","
","
","
","
",NA,NA,NA,NA,NA,NA,NA,NA,NA,NA,NA,NA,NA,NA,NA,NA,NA,NA,NA,NA,NA,NA,sub125
html-keyboard-response,1,1171,0.0-1.0,FALSE,FALSE,FALSE,FALSE,"
","
","
","
","
",1166.73499999888,Welcome! Press the space bar to begin.,32,NA,NA,NA,NA,NA,NA,NA,NA,NA,NA,NA,NA,NA,NA,NA,NA,NA,NA,NA,sub125
audio-keyboard-response,2,3842,0.0-2.0,FALSE,FALSE,FALSE,FALSE,"
","
","
","
","
",2624,audio/beep_loop.wav,32,NA,NA,NA,NA,NA,NA,NA,NA,NA,NA,NA,NA,NA,NA,NA,NA,NA,NA,NA,sub125
audio-button-response,3,5794,0.0-3.0,FALSE,FALSE,FALSE,FALSE,"
","
","
","
","
",NaN,audio/fish.mp3,NA,1,NA,NA,NA,NA,NA,NA,NA,NA,NA,NA,NA,NA,NA,NA,NA,NA,NA,NA,sub125
audio-button-response,4,8357,0.0-4.0,FALSE,FALSE,FALSE,FALSE,"""event"",""trial"",""time""
""fullscreenenter"",""5"",""11873""
","
","
","""event"",""trial"",""time""
""fullscreenenter"",""5"",""11873""
","
",NaN,audio/tiger.mp3,NA,4,NA,NA,NA,NA,NA,NA,NA,NA,NA,NA,NA,NA,NA,NA,NA,NA,NA,NA,sub125
fullscreen,5,12867,0.0-5.0,FALSE,FALSE,FALSE,FALSE,"""event"",""trial"",""time""
""fullscreenenter"",""5"",""11873""
","
","
","""event"",""trial"",""time""
""fullscreenenter"",""5"",""11873""
","
",NA,NA,NA,NA,TRUE,NA,NA,NA,NA,NA,NA,NA,NA,NA,NA,NA,NA,NA,NA,NA,NA,NA,sub125
d3-instructions,6,20949,0.0-6.0,FALSE,FALSE,FALSE,FALSE,"""event"",""trial"",""time""
""fullscreenenter"",""5"",""11873""
","
","
","""event"",""trial"",""time""
""fullscreenenter"",""5"",""11873""
","
",NA,NA,NA,NA,NA,NA,NA,NA,NA,NA,NA,NA,NA,NA,NA,NA,NA,NA,NA,NA,NA,NA,sub125
d3-instructions,7,28503,0.0-7.0,FALSE,FALSE,FALSE,FALSE,"""event"",""trial"",""time""
""fullscreenenter"",""5"",""11873""
","
","
","""event"",""trial"",""time""
""fullscreenenter"",""5"",""11873""
","
",NA,NA,NA,NA,NA,NA,NA,NA,NA,NA,NA,NA,NA,NA,NA,NA,NA,NA,NA,NA,NA,NA,sub125
d3-instructions,8,31701,0.0-8.0,FALSE,FALSE,FALSE,FALSE,"""event"",""trial"",""time""
""fullscreenenter"",""5"",""11873""
","
","
","""event"",""trial"",""time""
""fullscreenenter"",""5"",""11873""
","
",NA,NA,NA,NA,NA,NA,NA,NA,NA,NA,NA,NA,NA,NA,NA,NA,NA,NA,NA,NA,NA,NA,sub125
d3-instructions,9,36689,0.0-9.0,FALSE,FALSE,FALSE,FALSE,"""event"",""trial"",""time""
""fullscreenenter"",""5"",""11873""
","
","
","""event"",""trial"",""time""
""fullscreenenter"",""5"",""11873""
","
",NA,NA,NA,NA,NA,NA,NA,NA,NA,NA,NA,NA,NA,NA,NA,NA,NA,NA,NA,NA,NA,NA,sub125
d3-instructions,10,47926,0.0-10.0,FALSE,FALSE,FALSE,FALSE,"""event"",""trial"",""time""
""fullscreenenter"",""5"",""11873""
","
","
","""event"",""trial"",""time""
""fullscreenenter"",""5"",""11873""
","
",NA,NA,NA,NA,NA,NA,NA,NA,NA,NA,NA,NA,NA,NA,NA,NA,NA,NA,NA,NA,NA,NA,sub125
d3-animate-choice,11,51419,0.0-11.0,FALSE,FALSE,FALSE,FALSE,"""event"",""trial"",""time""
""fullscreenenter"",""5"",""11873""
","
","
","""event"",""trial"",""time""
""fullscreenenter"",""5"",""11873""
","
",1484.1749999977765,NA,49,NA,NA,3000,1,NA,NA,images/tutgreenplanet.jpg,images/tutalien1,images/tutalien2,null,images/tutalien2,NA,NA,practice,null,NA,NA,NA,NA,sub125
d3-animate-choice,12,54014,0.0-12.0,FALSE,FALSE,FALSE,FALSE,"""event"",""trial"",""time""
""fullscreenenter"",""5"",""11873""
","
","
","""event"",""trial"",""time""
""fullscreenenter"",""5"",""11873""
","
",592.225000000326,NA,48,NA,NA,3000,1,NA,NA,images/tutgreenplanet.jpg,images/tutalien1,images/tutalien2,null,images/tutalien1,NA,NA,practice,null,NA,NA,NA,NA,sub125
d3-animate-choice,13,57595,0.0-13.0,FALSE,FALSE,FALSE,FALSE,"""event"",""trial"",""time""
""fullscreenenter"",""5"",""11873""
","
","
","""event"",""trial"",""time""
""fullscreenenter"",""5"",""11873""
","
",1575.300000004063,NA,49,NA,NA,3000,1,3415.160000004107,48,images/tutgreenplanet.jpg,images/tutalien1,images/tutalien2,null,images/tutalien2,NA,NA,practice,null,NA,NA,NA,NA,sub125
d3-animate-choice,14,60161,0.0-14.0,FALSE,FALSE,FALSE,FALSE,"""event"",""trial"",""time""
""fullscreenenter"",""5"",""11873""
","
","
","""event"",""trial"",""time""
""fullscreenenter"",""5"",""11873""
","
",562.2800000055577,NA,48,NA,NA,3000,1,NA,NA,images/tutgreenplanet.jpg,images/tutalien1,images/tutalien2,null,images/tutalien1,NA,NA,practice,null,NA,NA,NA,NA,sub125
d3-instructions,15,63887,0.0-15.0,FALSE,FALSE,FALSE,FALSE,"""event"",""trial"",""time""
""fullscreenenter"",""5"",""11873""
","
","
","""event"",""trial"",""time""
""fullscreenenter"",""5"",""11873""
","
",NA,NA,NA,NA,NA,NA,NA,NA,NA,NA,NA,NA,NA,NA,NA,NA,NA,NA,NA,NA,NA,NA,sub125
d3-instructions,16,67180,0.0-16.0,FALSE,FALSE,FALSE,FALSE,"""event"",""trial"",""time""
""fullscreenenter"",""5"",""11873""
","
","
","""event"",""trial"",""time""
""fullscreenenter"",""5"",""11873""
","
",NA,NA,NA,NA,NA,NA,NA,NA,NA,NA,NA,NA,NA,NA,NA,NA,NA,NA,NA,NA,NA,NA,sub125
d3-instructions,17,72158,0.0-17.0,FALSE,FALSE,FALSE,FALSE,"""event"",""trial"",""time""
""fullscreenenter"",""5"",""11873""
","
","
","""event"",""trial"",""time""
""fullscreenenter"",""5"",""11873""
","
",NA,NA,NA,NA,NA,NA,NA,NA,NA,NA,NA,NA,NA,NA,NA,NA,NA,NA,NA,NA,NA,NA,sub125
d3-instructions,18,76971,0.0-18.0,FALSE,FALSE,FALSE,FALSE,"""event"",""trial"",""time""
""fullscreenenter"",""5"",""11873""
","
","
","""event"",""trial"",""time""
""fullscreenenter"",""5"",""11873""
","
",NA,NA,NA,NA,NA,NA,NA,NA,NA,NA,NA,NA,NA,NA,NA,NA,NA,NA,NA,NA,NA,NA,sub125
d3-instructions,19,84658,0.0-19.0,FALSE,FALSE,FALSE,FALSE,"""event"",""trial"",""time""
""fullscreenenter"",""5"",""11873""
","
","
","""event"",""trial"",""time""
""fullscreenenter"",""5"",""11873""
","
",NA,NA,NA,NA,NA,NA,NA,NA,NA,NA,NA,NA,NA,NA,NA,NA,NA,NA,NA,NA,NA,NA,sub125
d3-animate-choice,20,87868,0.0-20.0,FALSE,FALSE,FALSE,FALSE,"""event"",""trial"",""time""
""fullscreenenter"",""5"",""11873""
","
","
","""event"",""trial"",""time""
""fullscreenenter"",""5"",""11873""
","
",1206.6800000029616,NA,49,NA,NA,3000,1,1676.6950000019278,49,images/tutyellowplanet.jpg,null,images/tutalien3,null,images/tutalien3,images/t.png,NA,practice,null,NA,NA,NA,NA,sub125
d3-animate-choice,21,90422,0.0-21.0,FALSE,FALSE,FALSE,FALSE,"""event"",""trial"",""time""
""fullscreenenter"",""5"",""11873""
","
","
","""event"",""trial"",""time""
""fullscreenenter"",""5"",""11873""
","
",551.9249999997555,NA,49,NA,NA,3000,1,2418.1099999987055,49,images/tutyellowplanet.jpg,null,images/tutalien3,null,images/tutalien3,images/nothing.png,NA,practice,null,NA,NA,NA,NA,sub125
d3-animate-choice,22,92926,0.0-22.0,FALSE,FALSE,FALSE,FALSE,"""event"",""trial"",""time""
""fullscreenenter"",""5"",""11873""
","
","
","""event"",""trial"",""time""
""fullscreenenter"",""5"",""11873""
","
",500.67500000295695,NA,49,NA,NA,3000,1,NA,NA,images/tutyellowplanet.jpg,null,images/tutalien3,null,images/tutalien3,images/t.png,NA,practice,null,NA,NA,NA,NA,sub125
d3-animate-choice,23,95204,0.0-23.0,FALSE,FALSE,FALSE,FALSE,"""event"",""trial"",""time""
""fullscreenenter"",""5"",""11873""
","
","
","""event"",""trial"",""time""
""fullscreenenter"",""5"",""11873""
","
",272.8500000011991,NA,49,NA,NA,3000,1,NA,NA,images/tutyellowplanet.jpg,null,images/tutalien3,null,images/tutalien3,images/t.png,NA,practice,null,NA,NA,NA,NA,sub125
d3-animate-choice,24,97470,0.0-24.0,FALSE,FALSE,FALSE,FALSE,"""event"",""trial"",""time""
""fullscreenenter"",""5"",""11873""
","
","
","""event"",""trial"",""time""
""fullscreenenter"",""5"",""11873""
","
",263.4799999941606,NA,49,NA,NA,3000,1,NA,NA,images/tutyellowplanet.jpg,null,images/tutalien3,null,images/tutalien3,images/t.png,NA,practice,null,NA,NA,NA,NA,sub125
d3-animate-choice,25,99739,0.0-25.0,FALSE,FALSE,FALSE,FALSE,"""event"",""trial"",""time""
""fullscreenenter"",""5"",""11873""
","
","
","""event"",""trial"",""time""
""fullscreenenter"",""5"",""11873""
","
",264.97999999992317,NA,49,NA,NA,3000,1,NA,NA,images/tutyellowplanet.jpg,null,images/tutalien3,null,images/tutalien3,images/t.png,NA,practice,null,NA,NA,NA,NA,sub125
d3-animate-choice,26,101817,0.0-26.0,FALSE,FALSE,FALSE,FALSE,"""event"",""trial"",""time""
""fullscreenenter"",""5"",""11873""
","
","
","""event"",""trial"",""time""
""fullscreenenter"",""5"",""11873""
","
",74.0899999946123,NA,49,NA,NA,3000,1,NA,NA,images/tutyellowplanet.jpg,null,images/tutalien3,null,images/tutalien3,images/t.png,NA,practice,null,NA,NA,NA,NA,sub125
d3-animate-choice,27,103966,0.0-27.0,FALSE,FALSE,FALSE,FALSE,"""event"",""trial"",""time""
""fullscreenenter"",""5"",""11873""
","
","
","""event"",""trial"",""time""
""fullscreenenter"",""5"",""11873""
","
",141.7899999942165,NA,49,NA,NA,3000,1,NA,NA,images/tutyellowplanet.jpg,null,images/tutalien3,null,images/tutalien3,images/nothing.png,NA,practice,null,NA,NA,NA,NA,sub125
d3-animate-choice,28,106250,0.0-28.0,FALSE,FALSE,FALSE,FALSE,"""event"",""trial"",""time""
""fullscreenenter"",""5"",""11873""
","
","
","""event"",""trial"",""time""
""fullscreenenter"",""5"",""11873""
","
",282.10000000399305,NA,49,NA,NA,3000,1,NA,NA,images/tutyellowplanet.jpg,null,images/tutalien3,null,images/tutalien3,images/t.png,NA,practice,null,NA,NA,NA,NA,sub125
d3-animate-choice,29,108572,0.0-29.0,FALSE,FALSE,FALSE,FALSE,"""event"",""trial"",""time""
""fullscreenenter"",""5"",""11873""
","
","
","""event"",""trial"",""time""
""fullscreenenter"",""5"",""11873""
","
",315.599999994447,NA,49,NA,NA,3000,1,NA,NA,images/tutyellowplanet.jpg,null,images/tutalien3,null,images/tutalien3,images/t.png,NA,practice,null,NA,NA,NA,NA,sub125
d3-instructions,30,111082,0.0-30.0,FALSE,FALSE,FALSE,FALSE,"""event"",""trial"",""time""
""fullscreenenter"",""5"",""11873""
","
","
","""event"",""trial"",""time""
""fullscreenenter"",""5"",""11873""
","
",NA,NA,NA,NA,NA,NA,NA,NA,NA,NA,NA,NA,NA,NA,NA,NA,NA,NA,NA,NA,NA,NA,sub125
d3-instructions,31,120423,0.0-31.0,FALSE,FALSE,FALSE,FALSE,"""event"",""trial"",""time""
""fullscreenenter"",""5"",""11873""
","
","
","""event"",""trial"",""time""
""fullscreenenter"",""5"",""11873""
","
",NA,NA,NA,NA,NA,NA,NA,NA,NA,NA,NA,NA,NA,NA,NA,NA,NA,NA,NA,NA,NA,NA,sub125
d3-instructions,32,124697,0.0-32.0,FALSE,FALSE,FALSE,FALSE,"""event"",""trial"",""time""
""fullscreenenter"",""5"",""11873""
","
","
","""event"",""trial"",""time""
""fullscreenenter"",""5"",""11873""
","
",NA,NA,NA,NA,NA,NA,NA,NA,NA,NA,NA,NA,NA,NA,NA,NA,NA,NA,NA,NA,NA,NA,sub125
d3-instructions,33,128774,0.0-33.0,FALSE,FALSE,FALSE,FALSE,"""event"",""trial"",""time""
""fullscreenenter"",""5"",""11873""
","
","
","""event"",""trial"",""time""
""fullscreenenter"",""5"",""11873""
","
",NA,NA,NA,NA,NA,NA,NA,NA,NA,NA,NA,NA,NA,NA,NA,NA,NA,NA,NA,NA,NA,NA,sub125
d3-animate-choice,34,132570,0.0-34.0,FALSE,FALSE,FALSE,FALSE,"""event"",""trial"",""time""
""fullscreenenter"",""5"",""11873""
","
","
","""event"",""trial"",""time""
""fullscreenenter"",""5"",""11873""
","
",1790.0000000008731,NA,49,NA,NA,3000,1,NA,NA,images/tutgreenplanet.jpg,images/tutalien1,images/tutalien2,null,images/tutalien2,images/t.png,NA,practice,null,NA,NA,NA,NA,sub125
d3-animate-choice,35,135028,0.0-35.0,FALSE,FALSE,FALSE,FALSE,"""event"",""trial"",""time""
""fullscreenenter"",""5"",""11873""
","
","
","""event"",""trial"",""time""
""fullscreenenter"",""5"",""11873""
","
",453.0799999993178,NA,49,NA,NA,3000,1,NA,NA,images/tutgreenplanet.jpg,images/tutalien1,images/tutalien2,null,images/tutalien2,images/t.png,NA,practice,null,NA,NA,NA,NA,sub125
d3-animate-choice,36,137338,0.0-36.0,FALSE,FALSE,FALSE,FALSE,"""event"",""trial"",""time""
""fullscreenenter"",""5"",""11873""
","
","
","""event"",""trial"",""time""
""fullscreenenter"",""5"",""11873""
","
",302.73500000475906,NA,49,NA,NA,3000,1,NA,NA,images/tutgreenplanet.jpg,images/tutalien1,images/tutalien2,null,images/tutalien2,images/t.png,NA,practice,null,NA,NA,NA,NA,sub125
d3-animate-choice,37,139652,0.0-37.0,FALSE,FALSE,FALSE,FALSE,"""event"",""trial"",""time""
""fullscreenenter"",""5"",""11873""
","
","
","""event"",""trial"",""time""
""fullscreenenter"",""5"",""11873""
","
",307.9649999999674,NA,49,NA,NA,3000,1,NA,NA,images/tutgreenplanet.jpg,images/tutalien1,images/tutalien2,null,images/tutalien2,images/nothing.png,NA,practice,null,NA,NA,NA,NA,sub125
d3-animate-choice,38,141941,0.0-38.0,FALSE,FALSE,FALSE,FALSE,"""event"",""trial"",""time""
""fullscreenenter"",""5"",""11873""
","
","
","""event"",""trial"",""time""
""fullscreenenter"",""5"",""11873""
","
",286.9799999971292,NA,49,NA,NA,3000,1,NA,NA,images/tutgreenplanet.jpg,images/tutalien1,images/tutalien2,null,images/tutalien2,images/t.png,NA,practice,null,NA,NA,NA,NA,sub125
d3-animate-choice,39,144252,0.0-39.0,FALSE,FALSE,FALSE,FALSE,"""event"",""trial"",""time""
""fullscreenenter"",""5"",""11873""
","
","
","""event"",""trial"",""time""
""fullscreenenter"",""5"",""11873""
","
",305.3300000028685,NA,49,NA,NA,3000,1,NA,NA,images/tutgreenplanet.jpg,images/tutalien1,images/tutalien2,null,images/tutalien2,images/t.png,NA,practice,null,NA,NA,NA,NA,sub125
d3-animate-choice,40,146812,0.0-40.0,FALSE,FALSE,FALSE,FALSE,"""event"",""trial"",""time""
""fullscreenenter"",""5"",""11873""
","
","
","""event"",""trial"",""time""
""fullscreenenter"",""5"",""11873""
","
",558.1250000032014,NA,49,NA,NA,3000,1,NA,NA,images/tutgreenplanet.jpg,images/tutalien1,images/tutalien2,null,images/tutalien2,images/nothing.png,NA,practice,null,NA,NA,NA,NA,sub125
d3-animate-choice,41,149076,0.0-41.0,FALSE,FALSE,FALSE,FALSE,"""event"",""trial"",""time""
""fullscreenenter"",""5"",""11873""
","
","
","""event"",""trial"",""time""
""fullscreenenter"",""5"",""11873""
","
",261.2500000032014,NA,49,NA,NA,3000,1,NA,NA,images/tutgreenplanet.jpg,images/tutalien1,images/tutalien2,null,images/tutalien2,images/t.png,NA,practice,null,NA,NA,NA,NA,sub125
d3-animate-choice,42,151481,0.0-42.0,FALSE,FALSE,FALSE,FALSE,"""event"",""trial"",""time""
""fullscreenenter"",""5"",""11873""
","
","
","""event"",""trial"",""time""
""fullscreenenter"",""5"",""11873""
","
",402.3949999973411,NA,49,NA,NA,3000,1,NA,NA,images/tutgreenplanet.jpg,images/tutalien1,images/tutalien2,null,images/tutalien2,images/t.png,NA,practice,null,NA,NA,NA,NA,sub125
d3-animate-choice,43,153812,0.0-43.0,FALSE,FALSE,FALSE,FALSE,"""event"",""trial"",""time""
""fullscreenenter"",""5"",""11873""
","
","
","""event"",""trial"",""time""
""fullscreenenter"",""5"",""11873""
","
",328.0700000032084,NA,49,NA,NA,3000,1,NA,NA,images/tutgreenplanet.jpg,images/tutalien1,images/tutalien2,null,images/tutalien2,images/t.png,NA,practice,null,NA,NA,NA,NA,sub125
d3-instructions,44,158972,0.0-44.0,FALSE,FALSE,FALSE,FALSE,"""event"",""trial"",""time""
""fullscreenenter"",""5"",""11873""
","
","
","""event"",""trial"",""time""
""fullscreenenter"",""5"",""11873""
","
",NA,NA,NA,NA,NA,NA,NA,NA,NA,NA,NA,NA,NA,NA,NA,NA,NA,NA,NA,NA,NA,NA,sub125
d3-instructions,45,161519,0.0-45.0,FALSE,FALSE,FALSE,FALSE,"""event"",""trial"",""time""
""fullscreenenter"",""5"",""11873""
","
","
","""event"",""trial"",""time""
""fullscreenenter"",""5"",""11873""
","
",NA,NA,NA,NA,NA,NA,NA,NA,NA,NA,NA,NA,NA,NA,NA,NA,NA,NA,NA,NA,NA,NA,sub125
d3-instructions,46,163792,0.0-46.0,FALSE,FALSE,FALSE,FALSE,"""event"",""trial"",""time""
""fullscreenenter"",""5"",""11873""
","
","
","""event"",""trial"",""time""
""fullscreenenter"",""5"",""11873""
","
",NA,NA,NA,NA,NA,NA,NA,NA,NA,NA,NA,NA,NA,NA,NA,NA,NA,NA,NA,NA,NA,NA,sub125
d3-instructions,47,173935,0.0-47.0,FALSE,FALSE,FALSE,FALSE,"""event"",""trial"",""time""
""fullscreenenter"",""5"",""11873""
","
","
","""event"",""trial"",""time""
""fullscreenenter"",""5"",""11873""
","
",NA,NA,NA,NA,NA,NA,NA,NA,NA,NA,NA,NA,NA,NA,NA,NA,NA,NA,NA,NA,NA,NA,sub125
d3-instructions,48,176561,0.0-48.0,FALSE,FALSE,FALSE,FALSE,"""event"",""trial"",""time""
""fullscreenenter"",""5"",""11873""
","
","
","""event"",""trial"",""time""
""fullscreenenter"",""5"",""11873""
","
",NA,NA,NA,NA,NA,NA,NA,NA,NA,NA,NA,NA,NA,NA,NA,NA,NA,NA,NA,NA,NA,NA,sub125
d3-instructions,49,180793,0.0-49.0,FALSE,FALSE,FALSE,FALSE,"""event"",""trial"",""time""
""fullscreenenter"",""5"",""11873""
","
","
","""event"",""trial"",""time""
""fullscreenenter"",""5"",""11873""
","
",NA,NA,NA,NA,NA,NA,NA,NA,NA,NA,NA,NA,NA,NA,NA,NA,NA,NA,NA,NA,NA,NA,sub125
d3-instructions,50,187650,0.0-50.0,FALSE,FALSE,FALSE,FALSE,"""event"",""trial"",""time""
""fullscreenenter"",""5"",""11873""
","
","
","""event"",""trial"",""time""
""fullscreenenter"",""5"",""11873""
","
",NA,NA,NA,NA,NA,NA,NA,NA,NA,NA,NA,NA,NA,NA,NA,NA,NA,NA,NA,NA,NA,NA,sub125
d3-instructions,51,190596,0.0-51.0,FALSE,FALSE,FALSE,FALSE,"""event"",""trial"",""time""
""fullscreenenter"",""5"",""11873""
","
","
","""event"",""trial"",""time""
""fullscreenenter"",""5"",""11873""
","
",NA,NA,NA,NA,NA,NA,NA,NA,NA,NA,NA,NA,NA,NA,NA,NA,NA,NA,NA,NA,NA,NA,sub125
d3-instructions,52,192790,0.0-52.0,FALSE,FALSE,FALSE,FALSE,"""event"",""trial"",""time""
""fullscreenenter"",""5"",""11873""
","
","
","""event"",""trial"",""time""
""fullscreenenter"",""5"",""11873""
","
",NA,NA,NA,NA,NA,NA,NA,NA,NA,NA,NA,NA,NA,NA,NA,NA,NA,NA,NA,NA,NA,NA,sub125
d3-instructions,53,205819,0.0-53.0,FALSE,FALSE,FALSE,FALSE,"""event"",""trial"",""time""
""fullscreenenter"",""5"",""11873""
","
","
","""event"",""trial"",""time""
""fullscreenenter"",""5"",""11873""
","
",NA,NA,NA,NA,NA,NA,NA,NA,NA,NA,NA,NA,NA,NA,NA,NA,NA,NA,NA,NA,NA,NA,sub125
d3-instructions,54,223438,0.0-54.0,FALSE,FALSE,FALSE,FALSE,"""event"",""trial"",""time""
""fullscreenenter"",""5"",""11873""
","
","
","""event"",""trial"",""time""
""fullscreenenter"",""5"",""11873""
","
",NA,NA,NA,NA,NA,NA,NA,NA,NA,NA,NA,NA,NA,NA,NA,NA,NA,NA,NA,NA,NA,NA,sub125
d3-instructions,55,229487,0.0-55.0,FALSE,FALSE,FALSE,FALSE,"""event"",""trial"",""time""
""fullscreenenter"",""5"",""11873""
","
","
","""event"",""trial"",""time""
""fullscreenenter"",""5"",""11873""
","
",NA,NA,NA,NA,NA,NA,NA,NA,NA,NA,NA,NA,NA,NA,NA,NA,NA,NA,NA,NA,NA,NA,sub125
d3-instructions,56,233240,0.0-56.0,FALSE,FALSE,FALSE,FALSE,"""event"",""trial"",""time""
""fullscreenenter"",""5"",""11873""
","
","
","""event"",""trial"",""time""
""fullscreenenter"",""5"",""11873""
","
",NA,NA,NA,NA,NA,NA,NA,NA,NA,NA,NA,NA,NA,NA,NA,NA,NA,NA,NA,NA,NA,NA,sub125
d3-instructions,57,276847,0.0-57.0,FALSE,FALSE,FALSE,FALSE,"""event"",""trial"",""time""
""fullscreenenter"",""5"",""11873""
","
","
","""event"",""trial"",""time""
""fullscreenenter"",""5"",""11873""
","
",NA,NA,NA,NA,NA,NA,NA,NA,NA,NA,NA,NA,NA,NA,NA,NA,NA,NA,NA,NA,NA,NA,sub125
d3-instructions,58,282025,0.0-58.0,FALSE,FALSE,FALSE,FALSE,"""event"",""trial"",""time""
""fullscreenenter"",""5"",""11873""
","
","
","""event"",""trial"",""time""
""fullscreenenter"",""5"",""11873""
","
",NA,NA,NA,NA,NA,NA,NA,NA,NA,NA,NA,NA,NA,NA,NA,NA,NA,NA,NA,NA,NA,NA,sub125
d3-instructions,59,284976,0.0-59.0,FALSE,FALSE,FALSE,FALSE,"""event"",""trial"",""time""
""fullscreenenter"",""5"",""11873""
","
","
","""event"",""trial"",""time""
""fullscreenenter"",""5"",""11873""
","
",NA,NA,NA,NA,NA,NA,NA,NA,NA,NA,NA,NA,NA,NA,NA,NA,NA,NA,NA,NA,NA,NA,sub125
d3-instructions,60,289760,0.0-60.0,FALSE,FALSE,FALSE,FALSE,"""event"",""trial"",""time""
""fullscreenenter"",""5"",""11873""
","
","
","""event"",""trial"",""time""
""fullscreenenter"",""5"",""11873""
","
",NA,NA,NA,NA,NA,NA,NA,NA,NA,NA,NA,NA,NA,NA,NA,NA,NA,NA,NA,NA,NA,NA,sub125
d3-animate-choice,61,292825,0.0-61.0-0.0,FALSE,FALSE,FALSE,FALSE,"""event"",""trial"",""time""
""fullscreenenter"",""5"",""11873""
","
","
","""event"",""trial"",""time""
""fullscreenenter"",""5"",""11873""
","
",1058.2100000028731,NA,49,NA,NA,3000,1,NA,NA,images/earth.jpg,images/tutrocket1,images/tutrocket2,null,images/tutrocket2,NA,1,practice,null,1,NA,NA,NA,sub125
d3-animate-choice,62,296279,0.0-61.0-1.0,FALSE,FALSE,FALSE,FALSE,"""event"",""trial"",""time""
""fullscreenenter"",""5"",""11873""
","
","
","""event"",""trial"",""time""
""fullscreenenter"",""5"",""11873""
","
",1444.9099999983446,NA,49,NA,NA,3000,1,NA,NA,images/tutgreenplanet.jpg,images/tutalien2,images/tutalien1,images/tutrocket2,images/tutalien1,images/nothing.png,2,practice,true,1,common,0,2020-06-24T02:23:53Z,sub125
two-step-fixation,63,297283,0.0-61.0-2.0,FALSE,FALSE,FALSE,FALSE,"""event"",""trial"",""time""
""fullscreenenter"",""5"",""11873""
","
","
","""event"",""trial"",""time""
""fullscreenenter"",""5"",""11873""
","
",NA,images/earth.jpg,NA,NA,NA,NA,NA,NA,NA,NA,NA,NA,NA,NA,NA,fixation,NA,NA,NA,NA,NA,NA,sub125
d3-animate-choice,64,300813,0.0-61.0-0.1,FALSE,FALSE,FALSE,FALSE,"""event"",""trial"",""time""
""fullscreenenter"",""5"",""11873""
","
","
","""event"",""trial"",""time""
""fullscreenenter"",""5"",""11873""
","
",1524.5150000046124,NA,49,NA,NA,3000,1,NA,NA,images/earth.jpg,images/tutrocket1,images/tutrocket2,null,images/tutrocket2,NA,1,practice,null,1,NA,NA,NA,sub125
d3-animate-choice,65,303675,0.0-61.0-1.1,FALSE,FALSE,FALSE,FALSE,"""event"",""trial"",""time""
""fullscreenenter"",""5"",""11873""
","
","
","""event"",""trial"",""time""
""fullscreenenter"",""5"",""11873""
","
",858.3550000039395,NA,48,NA,NA,3000,1,NA,NA,images/tutgreenplanet.jpg,images/tutalien2,images/tutalien1,images/tutrocket2,images/tutalien2,images/nothing.png,2,practice,true,2,common,0,2020-06-24T02:24:00Z,sub125
two-step-fixation,66,304679,0.0-61.0-2.1,FALSE,FALSE,FALSE,FALSE,"""event"",""trial"",""time""
""fullscreenenter"",""5"",""11873""
","
","
","""event"",""trial"",""time""
""fullscreenenter"",""5"",""11873""
","
",NA,images/earth.jpg,NA,NA,NA,NA,NA,NA,NA,NA,NA,NA,NA,NA,NA,fixation,NA,NA,NA,NA,NA,NA,sub125
d3-animate-choice,67,308342,0.0-61.0-0.2,FALSE,FALSE,FALSE,FALSE,"""event"",""trial"",""time""
""fullscreenenter"",""5"",""11873""
","
","
","""event"",""trial"",""time""
""fullscreenenter"",""5"",""11873""
","
",1656.1000000001513,NA,48,NA,NA,3000,1,NA,NA,images/earth.jpg,images/tutrocket1,images/tutrocket2,null,images/tutrocket1,NA,1,practice,null,2,NA,NA,NA,sub125
d3-animate-choice,68,310861,0.0-61.0-1.2,FALSE,FALSE,FALSE,FALSE,"""event"",""trial"",""time""
""fullscreenenter"",""5"",""11873""
","
","
","""event"",""trial"",""time""
""fullscreenenter"",""5"",""11873""
","
",515.0349999967148,NA,48,NA,NA,3000,1,NA,NA,images/tutyellowplanet.jpg,images/tutalien4,images/tutalien3,images/tutrocket1,images/tutalien4,images/nothing.png,2,practice,true,2,common,0,2020-06-24T02:24:07Z,sub125
two-step-fixation,69,311865,0.0-61.0-2.2,FALSE,FALSE,FALSE,FALSE,"""event"",""trial"",""time""
""fullscreenenter"",""5"",""11873""
","
","
","""event"",""trial"",""time""
""fullscreenenter"",""5"",""11873""
","
",NA,images/earth.jpg,NA,NA,NA,NA,NA,NA,NA,NA,NA,NA,NA,NA,NA,fixation,NA,NA,NA,NA,NA,NA,sub125
d3-animate-choice,70,315098,0.0-61.0-0.3,FALSE,FALSE,FALSE,FALSE,"""event"",""trial"",""time""
""fullscreenenter"",""5"",""11873""
","
","
","""event"",""trial"",""time""
""fullscreenenter"",""5"",""11873""
","
",1227.0449999996345,NA,48,NA,NA,3000,1,NA,NA,images/earth.jpg,images/tutrocket1,images/tutrocket2,null,images/tutrocket1,NA,1,practice,null,2,NA,NA,NA,sub125
d3-animate-choice,71,317619,0.0-61.0-1.3,FALSE,FALSE,FALSE,FALSE,"""event"",""trial"",""time""
""fullscreenenter"",""5"",""11873""
","
","
","""event"",""trial"",""time""
""fullscreenenter"",""5"",""11873""
","
",515.2349999989383,NA,49,NA,NA,3000,1,NA,NA,images/tutyellowplanet.jpg,images/tutalien4,images/tutalien3,images/tutrocket1,images/tutalien3,images/t.png,2,practice,true,1,common,1,2020-06-24T02:24:14Z,sub125
two-step-fixation,72,318622,0.0-61.0-2.3,FALSE,FALSE,FALSE,FALSE,"""event"",""trial"",""time""
""fullscreenenter"",""5"",""11873""
","
","
","""event"",""trial"",""time""
""fullscreenenter"",""5"",""11873""
","
",NA,images/earth.jpg,NA,NA,NA,NA,NA,NA,NA,NA,NA,NA,NA,NA,NA,fixation,NA,NA,NA,NA,NA,NA,sub125
d3-animate-choice,73,321120,0.0-61.0-0.4,FALSE,FALSE,FALSE,FALSE,"""event"",""trial"",""time""
""fullscreenenter"",""5"",""11873""
","
","
","""event"",""trial"",""time""
""fullscreenenter"",""5"",""11873""
","
",493.4450000000652,NA,48,NA,NA,3000,1,NA,NA,images/earth.jpg,images/tutrocket1,images/tutrocket2,null,images/tutrocket1,NA,1,practice,null,2,NA,NA,NA,sub125
d3-animate-choice,74,325132,0.0-61.0-1.4,FALSE,FALSE,FALSE,FALSE,"""event"",""trial"",""time""
""fullscreenenter"",""5"",""11873""
","
","
","""event"",""trial"",""time""
""fullscreenenter"",""5"",""11873""
","
",1924.7949999989942,NA,50,NA,NA,3000,1,2593.735000002198,49,images/tutgreenplanet.jpg,images/tutalien2,images/tutalien1,images/tutrocket1,images/tutalien1,images/nothing.png,2,practice,false,NA,rare,0,2020-06-24T02:24:22Z,sub125
two-step-fixation,75,326137,0.0-61.0-2.4,FALSE,FALSE,FALSE,FALSE,"""event"",""trial"",""time""
""fullscreenenter"",""5"",""11873""
","
","
","""event"",""trial"",""time""
""fullscreenenter"",""5"",""11873""
","
",NA,images/earth.jpg,NA,NA,NA,NA,NA,NA,NA,NA,NA,NA,NA,NA,NA,fixation,NA,NA,NA,NA,NA,NA,sub125
d3-animate-choice,76,328426,0.0-61.0-0.5,FALSE,FALSE,FALSE,FALSE,"""event"",""trial"",""time""
""fullscreenenter"",""5"",""11873""
","
","
","""event"",""trial"",""time""
""fullscreenenter"",""5"",""11873""
","
",279.72499999305,NA,48,NA,NA,3000,1,NA,NA,images/earth.jpg,images/tutrocket1,images/tutrocket2,null,images/tutrocket1,NA,1,practice,null,2,NA,NA,NA,sub125
d3-animate-choice,77,331604,0.0-61.0-1.5,FALSE,FALSE,FALSE,FALSE,"""event"",""trial"",""time""
""fullscreenenter"",""5"",""11873""
","
","
","""event"",""trial"",""time""
""fullscreenenter"",""5"",""11873""
","
",1172.0750000022235,NA,49,NA,NA,3000,1,NA,NA,images/tutyellowplanet.jpg,images/tutalien4,images/tutalien3,images/tutrocket1,images/tutalien3,images/t.png,2,practice,true,1,common,1,2020-06-24T02:24:28Z,sub125
two-step-fixation,78,332613,0.0-61.0-2.5,FALSE,FALSE,FALSE,FALSE,"""event"",""trial"",""time""
""fullscreenenter"",""5"",""11873""
","
","
","""event"",""trial"",""time""
""fullscreenenter"",""5"",""11873""
","
",NA,images/earth.jpg,NA,NA,NA,NA,NA,NA,NA,NA,NA,NA,NA,NA,NA,fixation,NA,NA,NA,NA,NA,NA,sub125
d3-animate-choice,79,334715,0.0-61.0-0.6,FALSE,FALSE,FALSE,FALSE,"""event"",""trial"",""time""
""fullscreenenter"",""5"",""11873""
","
","
","""event"",""trial"",""time""
""fullscreenenter"",""5"",""11873""
","
",97.24499999720138,NA,48,NA,NA,3000,1,1940.3349999993225,49,images/earth.jpg,images/tutrocket1,images/tutrocket2,null,images/tutrocket1,NA,1,practice,null,2,NA,NA,NA,sub125
d3-animate-choice,80,337340,0.0-61.0-1.6,FALSE,FALSE,FALSE,FALSE,"""event"",""trial"",""time""
""fullscreenenter"",""5"",""11873""
","
","
","""event"",""trial"",""time""
""fullscreenenter"",""5"",""11873""
","
",615.3249999988475,NA,49,NA,NA,3000,1,NA,NA,images/tutgreenplanet.jpg,images/tutalien2,images/tutalien1,images/tutrocket1,images/tutalien1,images/t.png,2,practice,false,1,rare,1,2020-06-24T02:24:34Z,sub125
two-step-fixation,81,338347,0.0-61.0-2.6,FALSE,FALSE,FALSE,FALSE,"""event"",""trial"",""time""
""fullscreenenter"",""5"",""11873""
","
","
","""event"",""trial"",""time""
""fullscreenenter"",""5"",""11873""
","
",NA,images/earth.jpg,NA,NA,NA,NA,NA,NA,NA,NA,NA,NA,NA,NA,NA,fixation,NA,NA,NA,NA,NA,NA,sub125
d3-animate-choice,82,341072,0.0-61.0-0.7,FALSE,FALSE,FALSE,FALSE,"""event"",""trial"",""time""
""fullscreenenter"",""5"",""11873""
","
","
","""event"",""trial"",""time""
""fullscreenenter"",""5"",""11873""
","
",720.6799999985378,NA,48,NA,NA,3000,1,NA,NA,images/earth.jpg,images/tutrocket1,images/tutrocket2,null,images/tutrocket1,NA,1,practice,null,2,NA,NA,NA,sub125
d3-animate-choice,83,343521,0.0-61.0-1.7,FALSE,FALSE,FALSE,FALSE,"""event"",""trial"",""time""
""fullscreenenter"",""5"",""11873""
","
","
","""event"",""trial"",""time""
""fullscreenenter"",""5"",""11873""
","
",443.425000004936,NA,49,NA,NA,3000,1,NA,NA,images/tutyellowplanet.jpg,images/tutalien4,images/tutalien3,images/tutrocket1,images/tutalien3,images/nothing.png,2,practice,true,1,common,0,2020-06-24T02:24:40Z,sub125
two-step-fixation,84,344525,0.0-61.0-2.7,FALSE,FALSE,FALSE,FALSE,"""event"",""trial"",""time""
""fullscreenenter"",""5"",""11873""
","
","
","""event"",""trial"",""time""
""fullscreenenter"",""5"",""11873""
","
",NA,images/earth.jpg,NA,NA,NA,NA,NA,NA,NA,NA,NA,NA,NA,NA,NA,fixation,NA,NA,NA,NA,NA,NA,sub125
d3-animate-choice,85,347092,0.0-61.0-0.8,FALSE,FALSE,FALSE,FALSE,"""event"",""trial"",""time""
""fullscreenenter"",""5"",""11873""
","
","
","""event"",""trial"",""time""
""fullscreenenter"",""5"",""11873""
","
",562.6100000008591,NA,48,NA,NA,3000,1,NA,NA,images/earth.jpg,images/tutrocket1,images/tutrocket2,null,images/tutrocket1,NA,1,practice,null,2,NA,NA,NA,sub125
d3-animate-choice,86,349209,0.0-61.0-1.8,FALSE,FALSE,FALSE,FALSE,"""event"",""trial"",""time""
""fullscreenenter"",""5"",""11873""
","
","
","""event"",""trial"",""time""
""fullscreenenter"",""5"",""11873""
","
",107.61000000638887,NA,49,NA,NA,3000,1,NA,NA,images/tutyellowplanet.jpg,images/tutalien4,images/tutalien3,images/tutrocket1,images/tutalien3,images/t.png,2,practice,true,1,common,1,2020-06-24T02:24:46Z,sub125
two-step-fixation,87,350217,0.0-61.0-2.8,FALSE,FALSE,FALSE,FALSE,"""event"",""trial"",""time""
""fullscreenenter"",""5"",""11873""
","
","
","""event"",""trial"",""time""
""fullscreenenter"",""5"",""11873""
","
",NA,images/earth.jpg,NA,NA,NA,NA,NA,NA,NA,NA,NA,NA,NA,NA,NA,fixation,NA,NA,NA,NA,NA,NA,sub125
d3-animate-choice,88,352679,0.0-61.0-0.9,FALSE,FALSE,FALSE,FALSE,"""event"",""trial"",""time""
""fullscreenenter"",""5"",""11873""
","
","
","""event"",""trial"",""time""
""fullscreenenter"",""5"",""11873""
","
",457.27500000066357,NA,48,NA,NA,3000,1,NA,NA,images/earth.jpg,images/tutrocket1,images/tutrocket2,null,images/tutrocket1,NA,1,practice,null,2,NA,NA,NA,sub125
d3-animate-choice,89,355767,0.0-61.0-1.9,FALSE,FALSE,FALSE,FALSE,"""event"",""trial"",""time""
""fullscreenenter"",""5"",""11873""
","
","
","""event"",""trial"",""time""
""fullscreenenter"",""5"",""11873""
","
",1082.8400000027614,NA,49,NA,NA,3000,1,NA,NA,images/tutgreenplanet.jpg,images/tutalien2,images/tutalien1,images/tutrocket1,images/tutalien1,images/nothing.png,2,practice,false,1,rare,0,2020-06-24T02:24:52Z,sub125
two-step-fixation,90,356775,0.0-61.0-2.9,FALSE,FALSE,FALSE,FALSE,"""event"",""trial"",""time""
""fullscreenenter"",""5"",""11873""
","
","
","""event"",""trial"",""time""
""fullscreenenter"",""5"",""11873""
","
",NA,images/earth.jpg,NA,NA,NA,NA,NA,NA,NA,NA,NA,NA,NA,NA,NA,fixation,NA,NA,NA,NA,NA,NA,sub125
d3-animate-choice,91,359177,0.0-61.0-0.10,FALSE,FALSE,FALSE,FALSE,"""event"",""trial"",""time""
""fullscreenenter"",""5"",""11873""
","
","
","""event"",""trial"",""time""
""fullscreenenter"",""5"",""11873""
","
",395.2149999968242,NA,48,NA,NA,3000,1,NA,NA,images/earth.jpg,images/tutrocket1,images/tutrocket2,null,images/tutrocket1,NA,1,practice,null,2,NA,NA,NA,sub125
d3-animate-choice,92,362551,0.0-61.0-1.10,FALSE,FALSE,FALSE,FALSE,"""event"",""trial"",""time""
""fullscreenenter"",""5"",""11873""
","
","
","""event"",""trial"",""time""
""fullscreenenter"",""5"",""11873""
","
",1367.27499999688,NA,49,NA,NA,3000,1,1541.8449999997392,49,images/tutgreenplanet.jpg,images/tutalien2,images/tutalien1,images/tutrocket1,images/tutalien1,images/nothing.png,2,practice,false,1,rare,0,2020-06-24T02:24:59Z,sub125
two-step-fixation,93,363559,0.0-61.0-2.10,FALSE,FALSE,FALSE,FALSE,"""event"",""trial"",""time""
""fullscreenenter"",""5"",""11873""
","
","
","""event"",""trial"",""time""
""fullscreenenter"",""5"",""11873""
","
",NA,images/earth.jpg,NA,NA,NA,NA,NA,NA,NA,NA,NA,NA,NA,NA,NA,fixation,NA,NA,NA,NA,NA,NA,sub125
d3-animate-choice,94,366100,0.0-61.0-0.11,FALSE,FALSE,FALSE,FALSE,"""event"",""trial"",""time""
""fullscreenenter"",""5"",""11873""
","
","
","""event"",""trial"",""time""
""fullscreenenter"",""5"",""11873""
","
",536.1450000054901,NA,48,NA,NA,3000,1,NA,NA,images/earth.jpg,images/tutrocket1,images/tutrocket2,null,images/tutrocket1,NA,1,practice,null,2,NA,NA,NA,sub125
d3-animate-choice,95,370110,0.0-61.0-1.11,FALSE,FALSE,FALSE,FALSE,"""event"",""trial"",""time""
""fullscreenenter"",""5"",""11873""
","
","
","""event"",""trial"",""time""
""fullscreenenter"",""5"",""11873""
","
",973.664999997709,NA,50,NA,NA,3000,0,"2579.7999999995227,3543.7549999987823",5050,images/tutgreenplanet.jpg,images/tutalien2,images/tutalien1,images/tutrocket1,NA,NA,2,practice,false,NA,rare,0,2020-06-24T02:25:07Z,sub125
two-step-fixation,96,371116,0.0-61.0-2.11,FALSE,FALSE,FALSE,FALSE,"""event"",""trial"",""time""
""fullscreenenter"",""5"",""11873""
","
","
","""event"",""trial"",""time""
""fullscreenenter"",""5"",""11873""
","
",NA,images/earth.jpg,NA,NA,NA,NA,NA,NA,NA,NA,NA,NA,NA,NA,NA,fixation,NA,NA,NA,NA,NA,NA,sub125
d3-animate-choice,97,373654,0.0-61.0-0.12,FALSE,FALSE,FALSE,FALSE,"""event"",""trial"",""time""
""fullscreenenter"",""5"",""11873""
","
","
","""event"",""trial"",""time""
""fullscreenenter"",""5"",""11873""
","
",532.8950000039185,NA,48,NA,NA,3000,1,NA,NA,images/earth.jpg,images/tutrocket1,images/tutrocket2,null,images/tutrocket1,NA,1,practice,null,2,NA,NA,NA,sub125
d3-animate-choice,98,377661,0.0-61.0-1.12,FALSE,FALSE,FALSE,FALSE,"""event"",""trial"",""time""
""fullscreenenter"",""5"",""11873""
","
","
","""event"",""trial"",""time""
""fullscreenenter"",""5"",""11873""
","
",1363.3650000047055,NA,50,NA,NA,3000,1,2460.85000000312,48,images/tutyellowplanet.jpg,images/tutalien4,images/tutalien3,images/tutrocket1,images/tutalien4,images/t.png,2,practice,true,NA,common,1,2020-06-24T02:25:14Z,sub125
two-step-fixation,99,378670,0.0-61.0-2.12,FALSE,FALSE,FALSE,FALSE,"""event"",""trial"",""time""
""fullscreenenter"",""5"",""11873""
","
","
","""event"",""trial"",""time""
""fullscreenenter"",""5"",""11873""
","
",NA,images/earth.jpg,NA,NA,NA,NA,NA,NA,NA,NA,NA,NA,NA,NA,NA,fixation,NA,NA,NA,NA,NA,NA,sub125
d3-animate-choice,100,382676,0.0-61.0-0.13,FALSE,FALSE,FALSE,FALSE,"""event"",""trial"",""time""
""fullscreenenter"",""5"",""11873""
","
","
","""event"",""trial"",""time""
""fullscreenenter"",""5"",""11873""
","
",2025.2099999997881,NA,49,NA,NA,3000,1,NA,NA,images/earth.jpg,images/tutrocket1,images/tutrocket2,null,images/tutrocket2,NA,1,practice,null,1,NA,NA,NA,sub125
d3-animate-choice,101,386367,0.0-61.0-1.13,FALSE,FALSE,FALSE,FALSE,"""event"",""trial"",""time""
""fullscreenenter"",""5"",""11873""
","
","
","""event"",""trial"",""time""
""fullscreenenter"",""5"",""11873""
","
",1683.1549999988056,NA,49,NA,NA,3000,1,NA,NA,images/tutgreenplanet.jpg,images/tutalien2,images/tutalien1,images/tutrocket2,images/tutalien1,images/nothing.png,2,practice,true,1,common,0,2020-06-24T02:25:23Z,sub125
two-step-fixation,102,387373,0.0-61.0-2.13,FALSE,FALSE,FALSE,FALSE,"""event"",""trial"",""time""
""fullscreenenter"",""5"",""11873""
","
","
","""event"",""trial"",""time""
""fullscreenenter"",""5"",""11873""
","
",NA,images/earth.jpg,NA,NA,NA,NA,NA,NA,NA,NA,NA,NA,NA,NA,NA,fixation,NA,NA,NA,NA,NA,NA,sub125
d3-animate-choice,103,390292,0.0-61.0-0.14,FALSE,FALSE,FALSE,FALSE,"""event"",""trial"",""time""
""fullscreenenter"",""5"",""11873""
","
","
","""event"",""trial"",""time""
""fullscreenenter"",""5"",""11873""
","
",910.2700000003097,NA,48,NA,NA,3000,1,NA,NA,images/earth.jpg,images/tutrocket1,images/tutrocket2,null,images/tutrocket1,NA,1,practice,null,2,NA,NA,NA,sub125
d3-animate-choice,104,394300,0.0-61.0-1.14,FALSE,FALSE,FALSE,FALSE,"""event"",""trial"",""time""
""fullscreenenter"",""5"",""11873""
","
","
","""event"",""trial"",""time""
""fullscreenenter"",""5"",""11873""
","
",2169.480000004114,NA,48,NA,NA,3000,1,NA,NA,images/tutgreenplanet.jpg,images/tutalien2,images/tutalien1,images/tutrocket1,images/tutalien2,images/t.png,2,practice,false,2,rare,1,2020-06-24T02:25:31Z,sub125
two-step-fixation,105,395304,0.0-61.0-2.14,FALSE,FALSE,FALSE,FALSE,"""event"",""trial"",""time""
""fullscreenenter"",""5"",""11873""
","
","
","""event"",""trial"",""time""
""fullscreenenter"",""5"",""11873""
","
",NA,images/earth.jpg,NA,NA,NA,NA,NA,NA,NA,NA,NA,NA,NA,NA,NA,fixation,NA,NA,NA,NA,NA,NA,sub125
d3-animate-choice,106,398287,0.0-61.0-0.15,FALSE,FALSE,FALSE,FALSE,"""event"",""trial"",""time""
""fullscreenenter"",""5"",""11873""
","
","
","""event"",""trial"",""time""
""fullscreenenter"",""5"",""11873""
","
",975.8949999959441,NA,48,NA,NA,3000,1,NA,NA,images/earth.jpg,images/tutrocket1,images/tutrocket2,null,images/tutrocket1,NA,1,practice,null,2,NA,NA,NA,sub125
d3-animate-choice,107,402297,0.0-61.0-1.15,FALSE,FALSE,FALSE,FALSE,"""event"",""trial"",""time""
""fullscreenenter"",""5"",""11873""
","
","
","""event"",""trial"",""time""
""fullscreenenter"",""5"",""11873""
","
",2207.6799999995274,NA,48,NA,NA,3000,1,NA,NA,images/tutgreenplanet.jpg,images/tutalien2,images/tutalien1,images/tutrocket1,images/tutalien2,images/nothing.png,2,practice,false,2,rare,0,2020-06-24T02:25:39Z,sub125
two-step-fixation,108,403301,0.0-61.0-2.15,FALSE,FALSE,FALSE,FALSE,"""event"",""trial"",""time""
""fullscreenenter"",""5"",""11873""
","
","
","""event"",""trial"",""time""
""fullscreenenter"",""5"",""11873""
","
",NA,images/earth.jpg,NA,NA,NA,NA,NA,NA,NA,NA,NA,NA,NA,NA,NA,fixation,NA,NA,NA,NA,NA,NA,sub125
d3-animate-choice,109,405873,0.0-61.0-0.16,FALSE,FALSE,FALSE,FALSE,"""event"",""trial"",""time""
""fullscreenenter"",""5"",""11873""
","
","
","""event"",""trial"",""time""
""fullscreenenter"",""5"",""11873""
","
",565.2500000069267,NA,49,NA,NA,3000,1,NA,NA,images/earth.jpg,images/tutrocket1,images/tutrocket2,null,images/tutrocket2,NA,1,practice,null,1,NA,NA,NA,sub125
d3-animate-choice,110,409878,0.0-61.0-1.16,FALSE,FALSE,FALSE,FALSE,"""event"",""trial"",""time""
""fullscreenenter"",""5"",""11873""
","
","
","""event"",""trial"",""time""
""fullscreenenter"",""5"",""11873""
","
",2483.0799999981537,NA,48,NA,NA,3000,1,NA,NA,images/tutgreenplanet.jpg,images/tutalien2,images/tutalien1,images/tutrocket2,images/tutalien2,images/t.png,2,practice,true,2,common,1,2020-06-24T02:25:46Z,sub125
two-step-fixation,111,410883,0.0-61.0-2.16,FALSE,FALSE,FALSE,FALSE,"""event"",""trial"",""time""
""fullscreenenter"",""5"",""11873""
","
","
","""event"",""trial"",""time""
""fullscreenenter"",""5"",""11873""
","
",NA,images/earth.jpg,NA,NA,NA,NA,NA,NA,NA,NA,NA,NA,NA,NA,NA,fixation,NA,NA,NA,NA,NA,NA,sub125
d3-animate-choice,112,413955,0.0-61.0-0.17,FALSE,FALSE,FALSE,FALSE,"""event"",""trial"",""time""
""fullscreenenter"",""5"",""11873""
","
","
","""event"",""trial"",""time""
""fullscreenenter"",""5"",""11873""
","
",1065.9599999999045,NA,48,NA,NA,3000,1,NA,NA,images/earth.jpg,images/tutrocket1,images/tutrocket2,null,images/tutrocket1,NA,1,practice,null,2,NA,NA,NA,sub125
d3-animate-choice,113,417531,0.0-61.0-1.17,FALSE,FALSE,FALSE,FALSE,"""event"",""trial"",""time""
""fullscreenenter"",""5"",""11873""
","
","
","""event"",""trial"",""time""
""fullscreenenter"",""5"",""11873""
","
",1059.1500000009546,NA,50,NA,NA,3000,1,1569.840000003751,49,images/tutgreenplanet.jpg,images/tutalien2,images/tutalien1,images/tutrocket1,images/tutalien1,images/nothing.png,2,practice,false,NA,rare,0,2020-06-24T02:25:54Z,sub125
two-step-fixation,114,418536,0.0-61.0-2.17,FALSE,FALSE,FALSE,FALSE,"""event"",""trial"",""time""
""fullscreenenter"",""5"",""11873""
","
","
","""event"",""trial"",""time""
""fullscreenenter"",""5"",""11873""
","
",NA,images/earth.jpg,NA,NA,NA,NA,NA,NA,NA,NA,NA,NA,NA,NA,NA,fixation,NA,NA,NA,NA,NA,NA,sub125
d3-animate-choice,115,420910,0.0-61.0-0.18,FALSE,FALSE,FALSE,FALSE,"""event"",""trial"",""time""
""fullscreenenter"",""5"",""11873""
","
","
","""event"",""trial"",""time""
""fullscreenenter"",""5"",""11873""
","
",369.0349999960745,NA,48,NA,NA,3000,1,NA,NA,images/earth.jpg,images/tutrocket1,images/tutrocket2,null,images/tutrocket1,NA,1,practice,null,2,NA,NA,NA,sub125
d3-animate-choice,116,424486,0.0-61.0-1.18,FALSE,FALSE,FALSE,FALSE,"""event"",""trial"",""time""
""fullscreenenter"",""5"",""11873""
","
","
","""event"",""trial"",""time""
""fullscreenenter"",""5"",""11873""
","
",670.5849999998463,NA,50,NA,NA,3000,1,1571.219999997993,48,images/tutgreenplanet.jpg,images/tutalien2,images/tutalien1,images/tutrocket1,images/tutalien2,images/nothing.png,2,practice,false,NA,rare,0,2020-06-24T02:26:01Z,sub125
two-step-fixation,117,425492,0.0-61.0-2.18,FALSE,FALSE,FALSE,FALSE,"""event"",""trial"",""time""
""fullscreenenter"",""5"",""11873""
","
","
","""event"",""trial"",""time""
""fullscreenenter"",""5"",""11873""
","
",NA,images/earth.jpg,NA,NA,NA,NA,NA,NA,NA,NA,NA,NA,NA,NA,NA,fixation,NA,NA,NA,NA,NA,NA,sub125
d3-animate-choice,118,428453,0.0-61.0-0.19,FALSE,FALSE,FALSE,FALSE,"""event"",""trial"",""time""
""fullscreenenter"",""5"",""11873""
","
","
","""event"",""trial"",""time""
""fullscreenenter"",""5"",""11873""
","
",953.4100000018952,NA,48,NA,NA,3000,1,NA,NA,images/earth.jpg,images/tutrocket1,images/tutrocket2,null,images/tutrocket1,NA,1,practice,null,2,NA,NA,NA,sub125
d3-animate-choice,119,432080,0.0-61.0-1.19,FALSE,FALSE,FALSE,FALSE,"""event"",""trial"",""time""
""fullscreenenter"",""5"",""11873""
","
","
","""event"",""trial"",""time""
""fullscreenenter"",""5"",""11873""
","
",1620.8499999993364,NA,48,NA,NA,3000,1,NA,NA,images/tutyellowplanet.jpg,images/tutalien4,images/tutalien3,images/tutrocket1,images/tutalien4,images/t.png,2,practice,true,2,common,1,2020-06-24T02:26:09Z,sub125
two-step-fixation,120,433083,0.0-61.0-2.19,FALSE,FALSE,FALSE,FALSE,"""event"",""trial"",""time""
""fullscreenenter"",""5"",""11873""
","
","
","""event"",""trial"",""time""
""fullscreenenter"",""5"",""11873""
","
",NA,images/earth.jpg,NA,NA,NA,NA,NA,NA,NA,NA,NA,NA,NA,NA,NA,fixation,NA,NA,NA,NA,NA,NA,sub125
d3-instructions,121,446120,0.0-62.0,FALSE,FALSE,FALSE,FALSE,"""event"",""trial"",""time""
""fullscreenenter"",""5"",""11873""
","
","
","""event"",""trial"",""time""
""fullscreenenter"",""5"",""11873""
","
",NA,NA,NA,NA,NA,NA,NA,NA,NA,NA,NA,NA,NA,NA,NA,NA,NA,NA,NA,NA,NA,NA,sub125
audio-keyboard-response,122,517478,0.0-63.0,FALSE,FALSE,FALSE,FALSE,"""event"",""trial"",""time""
""fullscreenenter"",""5"",""11873""
","
","
","""event"",""trial"",""time""
""fullscreenenter"",""5"",""11873""
","
",71361,audio/instructions/treasure_feedback.wav,32,NA,NA,NA,NA,NA,NA,NA,NA,NA,NA,NA,NA,NA,NA,NA,NA,NA,NA,NA,sub125
d3-instructions,123,525869,0.0-64.0,FALSE,FALSE,FALSE,FALSE,"""event"",""trial"",""time""
""fullscreenenter"",""5"",""11873""
","
","
","""event"",""trial"",""time""
""fullscreenenter"",""5"",""11873""
","
",NA,NA,NA,NA,NA,NA,NA,NA,NA,NA,NA,NA,NA,NA,NA,NA,NA,NA,NA,NA,NA,NA,sub125
d3-instructions,124,537015,0.0-65.0,FALSE,FALSE,FALSE,FALSE,"""event"",""trial"",""time""
""fullscreenenter"",""5"",""11873""
","
","
","""event"",""trial"",""time""
""fullscreenenter"",""5"",""11873""
","
",NA,NA,NA,NA,NA,NA,NA,NA,NA,NA,NA,NA,NA,NA,NA,NA,NA,NA,NA,NA,NA,NA,sub125
d3-instructions,125,546077,0.0-66.0,FALSE,FALSE,FALSE,FALSE,"""event"",""trial"",""time""
""fullscreenenter"",""5"",""11873""
","
","
","""event"",""trial"",""time""
""fullscreenenter"",""5"",""11873""
","
",NA,NA,NA,NA,NA,NA,NA,NA,NA,NA,NA,NA,NA,NA,NA,NA,NA,NA,NA,NA,NA,NA,sub125
d3-instructions,126,553855,0.0-67.0,FALSE,FALSE,FALSE,FALSE,"""event"",""trial"",""time""
""fullscreenenter"",""5"",""11873""
","
","
","""event"",""trial"",""time""
""fullscreenenter"",""5"",""11873""
","
",NA,NA,NA,NA,NA,NA,NA,NA,NA,NA,NA,NA,NA,NA,NA,NA,NA,NA,NA,NA,NA,NA,sub125
d3-instructions,127,556595,0.0-68.0,FALSE,FALSE,FALSE,FALSE,"""event"",""trial"",""time""
""fullscreenenter"",""5"",""11873""
","
","
","""event"",""trial"",""time""
""fullscreenenter"",""5"",""11873""
","
",NA,NA,NA,NA,NA,NA,NA,NA,NA,NA,NA,NA,NA,NA,NA,NA,NA,NA,NA,NA,NA,NA,sub125
instructions-quiz,128,559844,0.0-69.0,FALSE,FALSE,FALSE,FALSE,"""event"",""trial"",""time""
""fullscreenenter"",""5"",""11873""
","
","
","""event"",""trial"",""time""
""fullscreenenter"",""5"",""11873""
","
",3248.424999997951,audio/quiz/Q1_Prompt.wav,NA,1,NA,NA,NA,NA,NA,NA,NA,NA,NA,NA,NA,NA,NA,NA,NA,NA,NA,NA,sub125
audio-keyboard-response,129,569016,0.0-70.0,FALSE,FALSE,FALSE,FALSE,"""event"",""trial"",""time""
""fullscreenenter"",""5"",""11873""
","
","
","""event"",""trial"",""time""
""fullscreenenter"",""5"",""11873""
","
",null,audio/quiz/Q1_Correct.wav,null,NA,NA,NA,NA,NA,NA,NA,NA,NA,NA,NA,NA,NA,NA,NA,NA,NA,NA,NA,sub125
instructions-quiz,130,572072,0.0-71.0,FALSE,FALSE,FALSE,FALSE,"""event"",""trial"",""time""
""fullscreenenter"",""5"",""11873""
","
","
","""event"",""trial"",""time""
""fullscreenenter"",""5"",""11873""
","
",3054.1749999974854,audio/quiz/Q2_Prompt.wav,NA,0,NA,NA,NA,NA,NA,NA,NA,NA,NA,NA,NA,NA,NA,NA,NA,NA,NA,NA,sub125
audio-keyboard-response,131,584939,0.0-72.0,FALSE,FALSE,FALSE,FALSE,"""event"",""trial"",""time""
""fullscreenenter"",""5"",""11873""
","
","
","""event"",""trial"",""time""
""fullscreenenter"",""5"",""11873""
","
",null,audio/quiz/Q2_Correct.wav,null,NA,NA,NA,NA,NA,NA,NA,NA,NA,NA,NA,NA,NA,NA,NA,NA,NA,NA,NA,sub125
instructions-quiz,132,587450,0.0-73.0,FALSE,FALSE,FALSE,FALSE,"""event"",""trial"",""time""
""fullscreenenter"",""5"",""11873""
","
","
","""event"",""trial"",""time""
""fullscreenenter"",""5"",""11873""
","
",2510.029999997583,audio/quiz/Q3_Prompt.wav,NA,1,NA,NA,NA,NA,NA,NA,NA,NA,NA,NA,NA,NA,NA,NA,NA,NA,NA,NA,sub125
audio-keyboard-response,133,593246,0.0-74.0,FALSE,FALSE,FALSE,FALSE,"""event"",""trial"",""time""
""fullscreenenter"",""5"",""11873""
","
","
","""event"",""trial"",""time""
""fullscreenenter"",""5"",""11873""
","
",null,audio/quiz/Q3_Correct.wav,null,NA,NA,NA,NA,NA,NA,NA,NA,NA,NA,NA,NA,NA,NA,NA,NA,NA,NA,NA,sub125
d3-instructions,134,595812,0.0-75.0,FALSE,FALSE,FALSE,FALSE,"""event"",""trial"",""time""
""fullscreenenter"",""5"",""11873""
","
","
","""event"",""trial"",""time""
""fullscreenenter"",""5"",""11873""
","
",NA,NA,NA,NA,NA,NA,NA,NA,NA,NA,NA,NA,NA,NA,NA,NA,NA,NA,NA,NA,NA,NA,sub125
d3-animate-choice,135,599817,0.0-76.0-0.0,FALSE,FALSE,FALSE,FALSE,"""event"",""trial"",""time""
""fullscreenenter"",""5"",""11873""
","
","
","""event"",""trial"",""time""
""fullscreenenter"",""5"",""11873""
","
",2492.2800000058487,NA,49,NA,NA,3000,1,NA,NA,images/earth.jpg,images/rocket1,images/rocket2,null,images/rocket2,NA,1,real,null,1,NA,NA,NA,sub125
d3-animate-choice,136,603366,0.0-76.0-1.0,FALSE,FALSE,FALSE,FALSE,"""event"",""trial"",""time""
""fullscreenenter"",""5"",""11873""
","
","
","""event"",""trial"",""time""
""fullscreenenter"",""5"",""11873""
","
",1545.1699999975972,NA,49,NA,NA,3000,1,NA,NA,images/redplanet1.jpg,images/alien2,images/alien1,images/rocket2,images/alien1,images/t.png,2,real,true,1,common,1,2020-06-24T02:29:00Z,sub125
two-step-fixation,137,604368,0.0-76.0-2.0,FALSE,FALSE,FALSE,FALSE,"""event"",""trial"",""time""
""fullscreenenter"",""5"",""11873""
","
","
","""event"",""trial"",""time""
""fullscreenenter"",""5"",""11873""
","
",NA,images/earth.jpg,NA,NA,NA,NA,NA,NA,NA,NA,NA,NA,NA,NA,NA,fixation,NA,NA,NA,NA,NA,NA,sub125
d3-animate-choice,138,607113,0.0-76.0-0.1,FALSE,FALSE,FALSE,FALSE,"""event"",""trial"",""time""
""fullscreenenter"",""5"",""11873""
","
","
","""event"",""trial"",""time""
""fullscreenenter"",""5"",""11873""
","
",742.2900000018999,NA,49,NA,NA,3000,1,NA,NA,images/earth.jpg,images/rocket1,images/rocket2,null,images/rocket2,NA,1,real,null,1,NA,NA,NA,sub125
d3-animate-choice,139,609754,0.0-76.0-1.1,FALSE,FALSE,FALSE,FALSE,"""event"",""trial"",""time""
""fullscreenenter"",""5"",""11873""
","
","
","""event"",""trial"",""time""
""fullscreenenter"",""5"",""11873""
","
",637.2350000019651,NA,49,NA,NA,3000,1,NA,NA,images/redplanet1.jpg,images/alien2,images/alien1,images/rocket2,images/alien1,images/nothing.png,2,real,true,1,common,0,2020-06-24T02:29:06Z,sub125
two-step-fixation,140,610758,0.0-76.0-2.1,FALSE,FALSE,FALSE,FALSE,"""event"",""trial"",""time""
""fullscreenenter"",""5"",""11873""
","
","
","""event"",""trial"",""time""
""fullscreenenter"",""5"",""11873""
","
",NA,images/earth.jpg,NA,NA,NA,NA,NA,NA,NA,NA,NA,NA,NA,NA,NA,fixation,NA,NA,NA,NA,NA,NA,sub125
d3-animate-choice,141,613359,0.0-76.0-0.2,FALSE,FALSE,FALSE,FALSE,"""event"",""trial"",""time""
""fullscreenenter"",""5"",""11873""
","
","
","""event"",""trial"",""time""
""fullscreenenter"",""5"",""11873""
","
",596.9750000004424,NA,49,NA,NA,3000,1,NA,NA,images/earth.jpg,images/rocket1,images/rocket2,null,images/rocket2,NA,1,real,null,1,NA,NA,NA,sub125
d3-animate-choice,142,616297,0.0-76.0-1.2,FALSE,FALSE,FALSE,FALSE,"""event"",""trial"",""time""
""fullscreenenter"",""5"",""11873""
","
","
","""event"",""trial"",""time""
""fullscreenenter"",""5"",""11873""
","
",930.5049999966286,NA,49,NA,NA,3000,1,NA,NA,images/redplanet1.jpg,images/alien2,images/alien1,images/rocket2,images/alien1,images/nothing.png,2,real,true,1,common,0,2020-06-24T02:29:13Z,sub125
two-step-fixation,143,617302,0.0-76.0-2.2,FALSE,FALSE,FALSE,FALSE,"""event"",""trial"",""time""
""fullscreenenter"",""5"",""11873""
","
","
","""event"",""trial"",""time""
""fullscreenenter"",""5"",""11873""
","
",NA,images/earth.jpg,NA,NA,NA,NA,NA,NA,NA,NA,NA,NA,NA,NA,NA,fixation,NA,NA,NA,NA,NA,NA,sub125
d3-animate-choice,144,619668,0.0-76.0-0.3,FALSE,FALSE,FALSE,FALSE,"""event"",""trial"",""time""
""fullscreenenter"",""5"",""11873""
","
","
","""event"",""trial"",""time""
""fullscreenenter"",""5"",""11873""
","
",363.120000001858,NA,49,NA,NA,3000,1,NA,NA,images/earth.jpg,images/rocket1,images/rocket2,null,images/rocket2,NA,1,real,null,1,NA,NA,NA,sub125
d3-animate-choice,145,622837,0.0-76.0-1.3,FALSE,FALSE,FALSE,FALSE,"""event"",""trial"",""time""
""fullscreenenter"",""5"",""11873""
","
","
","""event"",""trial"",""time""
""fullscreenenter"",""5"",""11873""
","
",1166.1699999968987,NA,48,NA,NA,3000,1,NA,NA,images/redplanet1.jpg,images/alien2,images/alien1,images/rocket2,images/alien2,images/t.png,2,real,true,2,common,1,2020-06-24T02:29:19Z,sub125
two-step-fixation,146,623839,0.0-76.0-2.3,FALSE,FALSE,FALSE,FALSE,"""event"",""trial"",""time""
""fullscreenenter"",""5"",""11873""
","
","
","""event"",""trial"",""time""
""fullscreenenter"",""5"",""11873""
","
",NA,images/earth.jpg,NA,NA,NA,NA,NA,NA,NA,NA,NA,NA,NA,NA,NA,fixation,NA,NA,NA,NA,NA,NA,sub125
d3-animate-choice,147,626336,0.0-76.0-0.4,FALSE,FALSE,FALSE,FALSE,"""event"",""trial"",""time""
""fullscreenenter"",""5"",""11873""
","
","
","""event"",""trial"",""time""
""fullscreenenter"",""5"",""11873""
","
",489.36500000127126,NA,49,NA,NA,3000,1,NA,NA,images/earth.jpg,images/rocket1,images/rocket2,null,images/rocket2,NA,1,real,null,1,NA,NA,NA,sub125
d3-animate-choice,148,628949,0.0-76.0-1.4,FALSE,FALSE,FALSE,FALSE,"""event"",""trial"",""time""
""fullscreenenter"",""5"",""11873""
","
","
","""event"",""trial"",""time""
""fullscreenenter"",""5"",""11873""
","
",605.7350000047591,NA,48,NA,NA,3000,1,NA,NA,images/redplanet1.jpg,images/alien2,images/alien1,images/rocket2,images/alien2,images/t.png,2,real,true,2,common,1,2020-06-24T02:29:26Z,sub125
two-step-fixation,149,629953,0.0-76.0-2.4,FALSE,FALSE,FALSE,FALSE,"""event"",""trial"",""time""
""fullscreenenter"",""5"",""11873""
","
","
","""event"",""trial"",""time""
""fullscreenenter"",""5"",""11873""
","
",NA,images/earth.jpg,NA,NA,NA,NA,NA,NA,NA,NA,NA,NA,NA,NA,NA,fixation,NA,NA,NA,NA,NA,NA,sub125
d3-animate-choice,150,633958,0.0-76.0-0.5,FALSE,FALSE,FALSE,FALSE,"""event"",""trial"",""time""
""fullscreenenter"",""5"",""11873""
","
","
","""event"",""trial"",""time""
""fullscreenenter"",""5"",""11873""
","
",2604.7650000037393,NA,49,NA,NA,3000,1,NA,NA,images/earth.jpg,images/rocket1,images/rocket2,null,images/rocket2,NA,1,real,null,1,NA,NA,NA,sub125
d3-animate-choice,151,636620,0.0-76.0-1.5,FALSE,FALSE,FALSE,FALSE,"""event"",""trial"",""time""
""fullscreenenter"",""5"",""11873""
","
","
","""event"",""trial"",""time""
""fullscreenenter"",""5"",""11873""
","
",658.240000004298,NA,48,NA,NA,3000,1,NA,NA,images/redplanet1.jpg,images/alien2,images/alien1,images/rocket2,images/alien2,images/nothing.png,2,real,true,2,common,0,2020-06-24T02:29:33Z,sub125
two-step-fixation,152,637626,0.0-76.0-2.5,FALSE,FALSE,FALSE,FALSE,"""event"",""trial"",""time""
""fullscreenenter"",""5"",""11873""
","
","
","""event"",""trial"",""time""
""fullscreenenter"",""5"",""11873""
","
",NA,images/earth.jpg,NA,NA,NA,NA,NA,NA,NA,NA,NA,NA,NA,NA,NA,fixation,NA,NA,NA,NA,NA,NA,sub125
d3-animate-choice,153,641633,0.0-76.0-0.6,FALSE,FALSE,FALSE,FALSE,"""event"",""trial"",""time""
""fullscreenenter"",""5"",""11873""
","
","
","""event"",""trial"",""time""
""fullscreenenter"",""5"",""11873""
","
",2672.480000001029,NA,49,NA,NA,3000,1,NA,NA,images/earth.jpg,images/rocket1,images/rocket2,null,images/rocket2,NA,1,real,null,1,NA,NA,NA,sub125
d3-animate-choice,154,644172,0.0-76.0-1.6,FALSE,FALSE,FALSE,FALSE,"""event"",""trial"",""time""
""fullscreenenter"",""5"",""11873""
","
","
","""event"",""trial"",""time""
""fullscreenenter"",""5"",""11873""
","
",530.6550000022398,NA,48,NA,NA,3000,1,NA,NA,images/redplanet1.jpg,images/alien2,images/alien1,images/rocket2,images/alien2,images/nothing.png,2,real,true,2,common,0,2020-06-24T02:29:41Z,sub125
two-step-fixation,155,645181,0.0-76.0-2.6,FALSE,FALSE,FALSE,FALSE,"""event"",""trial"",""time""
""fullscreenenter"",""5"",""11873""
","
","
","""event"",""trial"",""time""
""fullscreenenter"",""5"",""11873""
","
",NA,images/earth.jpg,NA,NA,NA,NA,NA,NA,NA,NA,NA,NA,NA,NA,NA,fixation,NA,NA,NA,NA,NA,NA,sub125
d3-animate-choice,156,647223,0.0-76.0-0.7,FALSE,FALSE,FALSE,FALSE,"""event"",""trial"",""time""
""fullscreenenter"",""5"",""11873""
","
","
","""event"",""trial"",""time""
""fullscreenenter"",""5"",""11873""
","
",38.13999999698717,NA,49,NA,NA,3000,1,NA,NA,images/earth.jpg,images/rocket1,images/rocket2,null,images/rocket2,NA,1,real,null,1,NA,NA,NA,sub125
d3-animate-choice,157,650287,0.0-76.0-1.7,FALSE,FALSE,FALSE,FALSE,"""event"",""trial"",""time""
""fullscreenenter"",""5"",""11873""
","
","
","""event"",""trial"",""time""
""fullscreenenter"",""5"",""11873""
","
",1060.9400000030873,NA,48,NA,NA,3000,1,NA,NA,images/purpleplanet.jpg,images/alien4,images/alien3,images/rocket2,images/alien4,images/t.png,2,real,false,2,rare,1,2020-06-24T02:29:47Z,sub125
two-step-fixation,158,651296,0.0-76.0-2.7,FALSE,FALSE,FALSE,FALSE,"""event"",""trial"",""time""
""fullscreenenter"",""5"",""11873""
","
","
","""event"",""trial"",""time""
""fullscreenenter"",""5"",""11873""
","
",NA,images/earth.jpg,NA,NA,NA,NA,NA,NA,NA,NA,NA,NA,NA,NA,NA,fixation,NA,NA,NA,NA,NA,NA,sub125
d3-animate-choice,159,654054,0.0-76.0-0.8,FALSE,FALSE,FALSE,FALSE,"""event"",""trial"",""time""
""fullscreenenter"",""5"",""11873""
","
","
","""event"",""trial"",""time""
""fullscreenenter"",""5"",""11873""
","
",752.0449999937555,NA,48,NA,NA,3000,1,NA,NA,images/earth.jpg,images/rocket1,images/rocket2,null,images/rocket1,NA,1,real,null,2,NA,NA,NA,sub125
d3-animate-choice,160,658061,0.0-76.0-1.8,FALSE,FALSE,FALSE,FALSE,"""event"",""trial"",""time""
""fullscreenenter"",""5"",""11873""
","
","
","""event"",""trial"",""time""
""fullscreenenter"",""5"",""11873""
","
",2462.229999997304,NA,48,NA,NA,3000,1,NA,NA,images/redplanet1.jpg,images/alien2,images/alien1,images/rocket1,images/alien2,images/t.png,2,real,false,2,rare,1,2020-06-24T02:29:55Z,sub125
two-step-fixation,161,659065,0.0-76.0-2.8,FALSE,FALSE,FALSE,FALSE,"""event"",""trial"",""time""
""fullscreenenter"",""5"",""11873""
","
","
","""event"",""trial"",""time""
""fullscreenenter"",""5"",""11873""
","
",NA,images/earth.jpg,NA,NA,NA,NA,NA,NA,NA,NA,NA,NA,NA,NA,NA,fixation,NA,NA,NA,NA,NA,NA,sub125
d3-animate-choice,162,662046,0.0-76.0-0.9,FALSE,FALSE,FALSE,FALSE,"""event"",""trial"",""time""
""fullscreenenter"",""5"",""11873""
","
","
","""event"",""trial"",""time""
""fullscreenenter"",""5"",""11873""
","
",974.8299999992596,NA,48,NA,NA,3000,1,NA,NA,images/earth.jpg,images/rocket1,images/rocket2,null,images/rocket1,NA,1,real,null,2,NA,NA,NA,sub125
d3-animate-choice,163,664572,0.0-76.0-1.9,FALSE,FALSE,FALSE,FALSE,"""event"",""trial"",""time""
""fullscreenenter"",""5"",""11873""
","
","
","""event"",""trial"",""time""
""fullscreenenter"",""5"",""11873""
","
",522.019999996759,NA,48,NA,NA,3000,1,NA,NA,images/purpleplanet.jpg,images/alien4,images/alien3,images/rocket1,images/alien4,images/t.png,2,real,true,2,common,1,2020-06-24T02:30:01Z,sub125
two-step-fixation,164,665579,0.0-76.0-2.9,FALSE,FALSE,FALSE,FALSE,"""event"",""trial"",""time""
""fullscreenenter"",""5"",""11873""
","
","
","""event"",""trial"",""time""
""fullscreenenter"",""5"",""11873""
","
",NA,images/earth.jpg,NA,NA,NA,NA,NA,NA,NA,NA,NA,NA,NA,NA,NA,fixation,NA,NA,NA,NA,NA,NA,sub125
d3-animate-choice,165,668039,0.0-76.0-0.10,FALSE,FALSE,FALSE,FALSE,"""event"",""trial"",""time""
""fullscreenenter"",""5"",""11873""
","
","
","""event"",""trial"",""time""
""fullscreenenter"",""5"",""11873""
","
",456.09500000136904,NA,48,NA,NA,3000,1,NA,NA,images/earth.jpg,images/rocket1,images/rocket2,null,images/rocket1,NA,1,real,null,2,NA,NA,NA,sub125
d3-animate-choice,166,670606,0.0-76.0-1.10,FALSE,FALSE,FALSE,FALSE,"""event"",""trial"",""time""
""fullscreenenter"",""5"",""11873""
","
","
","""event"",""trial"",""time""
""fullscreenenter"",""5"",""11873""
","
",562.1699999973644,NA,48,NA,NA,3000,1,NA,NA,images/purpleplanet.jpg,images/alien4,images/alien3,images/rocket1,images/alien4,images/t.png,2,real,true,2,common,1,2020-06-24T02:30:07Z,sub125
two-step-fixation,167,671615,0.0-76.0-2.10,FALSE,FALSE,FALSE,FALSE,"""event"",""trial"",""time""
""fullscreenenter"",""5"",""11873""
","
","
","""event"",""trial"",""time""
""fullscreenenter"",""5"",""11873""
","
",NA,images/earth.jpg,NA,NA,NA,NA,NA,NA,NA,NA,NA,NA,NA,NA,NA,fixation,NA,NA,NA,NA,NA,NA,sub125
d3-animate-choice,168,673984,0.0-76.0-0.11,FALSE,FALSE,FALSE,FALSE,"""event"",""trial"",""time""
""fullscreenenter"",""5"",""11873""
","
","
","""event"",""trial"",""time""
""fullscreenenter"",""5"",""11873""
","
",363.5199999990873,NA,48,NA,NA,3000,1,NA,NA,images/earth.jpg,images/rocket1,images/rocket2,null,images/rocket1,NA,1,real,null,2,NA,NA,NA,sub125
d3-animate-choice,169,676480,0.0-76.0-1.11,FALSE,FALSE,FALSE,FALSE,"""event"",""trial"",""time""
""fullscreenenter"",""5"",""11873""
","
","
","""event"",""trial"",""time""
""fullscreenenter"",""5"",""11873""
","
",490.300000004936,NA,48,NA,NA,3000,1,NA,NA,images/purpleplanet.jpg,images/alien4,images/alien3,images/rocket1,images/alien4,images/nothing.png,2,real,true,2,common,0,2020-06-24T02:30:13Z,sub125
two-step-fixation,170,677485,0.0-76.0-2.11,FALSE,FALSE,FALSE,FALSE,"""event"",""trial"",""time""
""fullscreenenter"",""5"",""11873""
","
","
","""event"",""trial"",""time""
""fullscreenenter"",""5"",""11873""
","
",NA,images/earth.jpg,NA,NA,NA,NA,NA,NA,NA,NA,NA,NA,NA,NA,NA,fixation,NA,NA,NA,NA,NA,NA,sub125
d3-animate-choice,171,679656,0.0-76.0-0.12,FALSE,FALSE,FALSE,FALSE,"""event"",""trial"",""time""
""fullscreenenter"",""5"",""11873""
","
","
","""event"",""trial"",""time""
""fullscreenenter"",""5"",""11873""
","
",167.80500000459142,NA,48,NA,NA,3000,1,NA,NA,images/earth.jpg,images/rocket1,images/rocket2,null,images/rocket1,NA,1,real,null,2,NA,NA,NA,sub125
d3-animate-choice,172,682685,0.0-76.0-1.12,FALSE,FALSE,FALSE,FALSE,"""event"",""trial"",""time""
""fullscreenenter"",""5"",""11873""
","
","
","""event"",""trial"",""time""
""fullscreenenter"",""5"",""11873""
","
",1022.6550000007264,NA,48,NA,NA,3000,1,NA,NA,images/redplanet1.jpg,images/alien2,images/alien1,images/rocket1,images/alien2,images/t.png,2,real,false,2,rare,1,2020-06-24T02:30:19Z,sub125
two-step-fixation,173,683690,0.0-76.0-2.12,FALSE,FALSE,FALSE,FALSE,"""event"",""trial"",""time""
""fullscreenenter"",""5"",""11873""
","
","
","""event"",""trial"",""time""
""fullscreenenter"",""5"",""11873""
","
",NA,images/earth.jpg,NA,NA,NA,NA,NA,NA,NA,NA,NA,NA,NA,NA,NA,fixation,NA,NA,NA,NA,NA,NA,sub125
d3-animate-choice,174,686025,0.0-76.0-0.13,FALSE,FALSE,FALSE,FALSE,"""event"",""trial"",""time""
""fullscreenenter"",""5"",""11873""
","
","
","""event"",""trial"",""time""
""fullscreenenter"",""5"",""11873""
","
",329.50500000151806,NA,48,NA,NA,3000,1,NA,NA,images/earth.jpg,images/rocket1,images/rocket2,null,images/rocket1,NA,1,real,null,2,NA,NA,NA,sub125
d3-animate-choice,175,688614,0.0-76.0-1.13,FALSE,FALSE,FALSE,FALSE,"""event"",""trial"",""time""
""fullscreenenter"",""5"",""11873""
","
","
","""event"",""trial"",""time""
""fullscreenenter"",""5"",""11873""
","
",581.3699999998789,NA,48,NA,NA,3000,1,NA,NA,images/purpleplanet.jpg,images/alien4,images/alien3,images/rocket1,images/alien4,images/t.png,2,real,true,2,common,1,2020-06-24T02:30:25Z,sub125
two-step-fixation,176,689622,0.0-76.0-2.13,FALSE,FALSE,FALSE,FALSE,"""event"",""trial"",""time""
""fullscreenenter"",""5"",""11873""
","
","
","""event"",""trial"",""time""
""fullscreenenter"",""5"",""11873""
","
",NA,images/earth.jpg,NA,NA,NA,NA,NA,NA,NA,NA,NA,NA,NA,NA,NA,fixation,NA,NA,NA,NA,NA,NA,sub125
d3-animate-choice,177,691947,0.0-76.0-0.14,FALSE,FALSE,FALSE,FALSE,"""event"",""trial"",""time""
""fullscreenenter"",""5"",""11873""
","
","
","""event"",""trial"",""time""
""fullscreenenter"",""5"",""11873""
","
",320.9599999971688,NA,48,NA,NA,3000,1,NA,NA,images/earth.jpg,images/rocket1,images/rocket2,null,images/rocket1,NA,1,real,null,2,NA,NA,NA,sub125
d3-animate-choice,178,694574,0.0-76.0-1.14,FALSE,FALSE,FALSE,FALSE,"""event"",""trial"",""time""
""fullscreenenter"",""5"",""11873""
","
","
","""event"",""trial"",""time""
""fullscreenenter"",""5"",""11873""
","
",620.4500000021653,NA,48,NA,NA,3000,1,NA,NA,images/purpleplanet.jpg,images/alien4,images/alien3,images/rocket1,images/alien4,images/t.png,2,real,true,2,common,1,2020-06-24T02:30:31Z,sub125
two-step-fixation,179,695578,0.0-76.0-2.14,FALSE,FALSE,FALSE,FALSE,"""event"",""trial"",""time""
""fullscreenenter"",""5"",""11873""
","
","
","""event"",""trial"",""time""
""fullscreenenter"",""5"",""11873""
","
",NA,images/earth.jpg,NA,NA,NA,NA,NA,NA,NA,NA,NA,NA,NA,NA,NA,fixation,NA,NA,NA,NA,NA,NA,sub125
d3-animate-choice,180,697646,0.0-76.0-0.15,FALSE,FALSE,FALSE,FALSE,"""event"",""trial"",""time""
""fullscreenenter"",""5"",""11873""
","
","
","""event"",""trial"",""time""
""fullscreenenter"",""5"",""11873""
","
",62.9250000056345,NA,48,NA,NA,3000,1,NA,NA,images/earth.jpg,images/rocket1,images/rocket2,null,images/rocket1,NA,1,real,null,2,NA,NA,NA,sub125
d3-animate-choice,181,700167,0.0-76.0-1.15,FALSE,FALSE,FALSE,FALSE,"""event"",""trial"",""time""
""fullscreenenter"",""5"",""11873""
","
","
","""event"",""trial"",""time""
""fullscreenenter"",""5"",""11873""
","
",512.9699999961304,NA,48,NA,NA,3000,1,NA,NA,images/purpleplanet.jpg,images/alien4,images/alien3,images/rocket1,images/alien4,images/nothing.png,2,real,true,2,common,0,2020-06-24T02:30:37Z,sub125
two-step-fixation,182,701171,0.0-76.0-2.15,FALSE,FALSE,FALSE,FALSE,"""event"",""trial"",""time""
""fullscreenenter"",""5"",""11873""
","
","
","""event"",""trial"",""time""
""fullscreenenter"",""5"",""11873""
","
",NA,images/earth.jpg,NA,NA,NA,NA,NA,NA,NA,NA,NA,NA,NA,NA,NA,fixation,NA,NA,NA,NA,NA,NA,sub125
d3-animate-choice,183,703625,0.0-76.0-0.16,FALSE,FALSE,FALSE,FALSE,"""event"",""trial"",""time""
""fullscreenenter"",""5"",""11873""
","
","
","""event"",""trial"",""time""
""fullscreenenter"",""5"",""11873""
","
",445.57000000355765,NA,48,NA,NA,3000,1,NA,NA,images/earth.jpg,images/rocket1,images/rocket2,null,images/rocket1,NA,1,real,null,2,NA,NA,NA,sub125
d3-animate-choice,184,706038,0.0-76.0-1.16,FALSE,FALSE,FALSE,FALSE,"""event"",""trial"",""time""
""fullscreenenter"",""5"",""11873""
","
","
","""event"",""trial"",""time""
""fullscreenenter"",""5"",""11873""
","
",409.0150000046706,NA,48,NA,NA,3000,1,NA,NA,images/purpleplanet.jpg,images/alien4,images/alien3,images/rocket1,images/alien4,images/t.png,2,real,true,2,common,1,2020-06-24T02:30:43Z,sub125
two-step-fixation,185,707041,0.0-76.0-2.16,FALSE,FALSE,FALSE,FALSE,"""event"",""trial"",""time""
""fullscreenenter"",""5"",""11873""
","
","
","""event"",""trial"",""time""
""fullscreenenter"",""5"",""11873""
","
",NA,images/earth.jpg,NA,NA,NA,NA,NA,NA,NA,NA,NA,NA,NA,NA,NA,fixation,NA,NA,NA,NA,NA,NA,sub125
d3-animate-choice,186,709397,0.0-76.0-0.17,FALSE,FALSE,FALSE,FALSE,"""event"",""trial"",""time""
""fullscreenenter"",""5"",""11873""
","
","
","""event"",""trial"",""time""
""fullscreenenter"",""5"",""11873""
","
",352.4199999956181,NA,48,NA,NA,3000,1,NA,NA,images/earth.jpg,images/rocket1,images/rocket2,null,images/rocket1,NA,1,real,null,2,NA,NA,NA,sub125
d3-animate-choice,187,711712,0.0-76.0-1.17,FALSE,FALSE,FALSE,FALSE,"""event"",""trial"",""time""
""fullscreenenter"",""5"",""11873""
","
","
","""event"",""trial"",""time""
""fullscreenenter"",""5"",""11873""
","
",311.59499999915715,NA,48,NA,NA,3000,1,NA,NA,images/redplanet1.jpg,images/alien2,images/alien1,images/rocket1,images/alien2,images/t.png,2,real,false,2,rare,1,2020-06-24T02:30:48Z,sub125
two-step-fixation,188,712717,0.0-76.0-2.17,FALSE,FALSE,FALSE,FALSE,"""event"",""trial"",""time""
""fullscreenenter"",""5"",""11873""
","
","
","""event"",""trial"",""time""
""fullscreenenter"",""5"",""11873""
","
",NA,images/earth.jpg,NA,NA,NA,NA,NA,NA,NA,NA,NA,NA,NA,NA,NA,fixation,NA,NA,NA,NA,NA,NA,sub125
d3-animate-choice,189,715240,0.0-76.0-0.18,FALSE,FALSE,FALSE,FALSE,"""event"",""trial"",""time""
""fullscreenenter"",""5"",""11873""
","
","
","""event"",""trial"",""time""
""fullscreenenter"",""5"",""11873""
","
",518.540000004461,NA,48,NA,NA,3000,1,NA,NA,images/earth.jpg,images/rocket1,images/rocket2,null,images/rocket1,NA,1,real,null,2,NA,NA,NA,sub125
d3-animate-choice,190,717892,0.0-76.0-1.18,FALSE,FALSE,FALSE,FALSE,"""event"",""trial"",""time""
""fullscreenenter"",""5"",""11873""
","
","
","""event"",""trial"",""time""
""fullscreenenter"",""5"",""11873""
","
",646.9049999940908,NA,48,NA,NA,3000,1,NA,NA,images/purpleplanet.jpg,images/alien4,images/alien3,images/rocket1,images/alien4,images/t.png,2,real,true,2,common,1,2020-06-24T02:30:54Z,sub125
two-step-fixation,191,718897,0.0-76.0-2.18,FALSE,FALSE,FALSE,FALSE,"""event"",""trial"",""time""
""fullscreenenter"",""5"",""11873""
","
","
","""event"",""trial"",""time""
""fullscreenenter"",""5"",""11873""
","
",NA,images/earth.jpg,NA,NA,NA,NA,NA,NA,NA,NA,NA,NA,NA,NA,NA,fixation,NA,NA,NA,NA,NA,NA,sub125
d3-animate-choice,192,721296,0.0-76.0-0.19,FALSE,FALSE,FALSE,FALSE,"""event"",""trial"",""time""
""fullscreenenter"",""5"",""11873""
","
","
","""event"",""trial"",""time""
""fullscreenenter"",""5"",""11873""
","
",390.46000000229105,NA,48,NA,NA,3000,1,NA,NA,images/earth.jpg,images/rocket1,images/rocket2,null,images/rocket1,NA,1,real,null,2,NA,NA,NA,sub125
d3-animate-choice,193,723699,0.0-76.0-1.19,FALSE,FALSE,FALSE,FALSE,"""event"",""trial"",""time""
""fullscreenenter"",""5"",""11873""
","
","
","""event"",""trial"",""time""
""fullscreenenter"",""5"",""11873""
","
",394.50500000384636,NA,48,NA,NA,3000,1,NA,NA,images/redplanet1.jpg,images/alien2,images/alien1,images/rocket1,images/alien2,images/t.png,2,real,false,2,rare,1,2020-06-24T02:31:00Z,sub125
two-step-fixation,194,724703,0.0-76.0-2.19,FALSE,FALSE,FALSE,FALSE,"""event"",""trial"",""time""
""fullscreenenter"",""5"",""11873""
","
","
","""event"",""trial"",""time""
""fullscreenenter"",""5"",""11873""
","
",NA,images/earth.jpg,NA,NA,NA,NA,NA,NA,NA,NA,NA,NA,NA,NA,NA,fixation,NA,NA,NA,NA,NA,NA,sub125
d3-animate-choice,195,727211,0.0-76.0-0.20,FALSE,FALSE,FALSE,FALSE,"""event"",""trial"",""time""
""fullscreenenter"",""5"",""11873""
","
","
","""event"",""trial"",""time""
""fullscreenenter"",""5"",""11873""
","
",503.7150000061374,NA,48,NA,NA,3000,1,NA,NA,images/earth.jpg,images/rocket1,images/rocket2,null,images/rocket1,NA,1,real,null,2,NA,NA,NA,sub125
d3-animate-choice,196,729636,0.0-76.0-1.20,FALSE,FALSE,FALSE,FALSE,"""event"",""trial"",""time""
""fullscreenenter"",""5"",""11873""
","
","
","""event"",""trial"",""time""
""fullscreenenter"",""5"",""11873""
","
",416.44500000262633,NA,48,NA,NA,3000,1,NA,NA,images/redplanet1.jpg,images/alien2,images/alien1,images/rocket1,images/alien2,images/nothing.png,2,real,false,2,rare,0,2020-06-24T02:31:06Z,sub125
two-step-fixation,197,730641,0.0-76.0-2.20,FALSE,FALSE,FALSE,FALSE,"""event"",""trial"",""time""
""fullscreenenter"",""5"",""11873""
","
","
","""event"",""trial"",""time""
""fullscreenenter"",""5"",""11873""
","
",NA,images/earth.jpg,NA,NA,NA,NA,NA,NA,NA,NA,NA,NA,NA,NA,NA,fixation,NA,NA,NA,NA,NA,NA,sub125
d3-animate-choice,198,732742,0.0-76.0-0.21,FALSE,FALSE,FALSE,FALSE,"""event"",""trial"",""time""
""fullscreenenter"",""5"",""11873""
","
","
","""event"",""trial"",""time""
""fullscreenenter"",""5"",""11873""
","
",97.0649999944726,NA,48,NA,NA,3000,1,NA,NA,images/earth.jpg,images/rocket1,images/rocket2,null,images/rocket1,NA,1,real,null,2,NA,NA,NA,sub125
d3-animate-choice,199,735311,0.0-76.0-1.21,FALSE,FALSE,FALSE,FALSE,"""event"",""trial"",""time""
""fullscreenenter"",""5"",""11873""
","
","
","""event"",""trial"",""time""
""fullscreenenter"",""5"",""11873""
","
",563.4300000019139,NA,48,NA,NA,3000,1,NA,NA,images/redplanet1.jpg,images/alien2,images/alien1,images/rocket1,images/alien2,images/t.png,2,real,false,2,rare,1,2020-06-24T02:31:12Z,sub125
two-step-fixation,200,736315,0.0-76.0-2.21,FALSE,FALSE,FALSE,FALSE,"""event"",""trial"",""time""
""fullscreenenter"",""5"",""11873""
","
","
","""event"",""trial"",""time""
""fullscreenenter"",""5"",""11873""
","
",NA,images/earth.jpg,NA,NA,NA,NA,NA,NA,NA,NA,NA,NA,NA,NA,NA,fixation,NA,NA,NA,NA,NA,NA,sub125
d3-animate-choice,201,738730,0.0-76.0-0.22,FALSE,FALSE,FALSE,FALSE,"""event"",""trial"",""time""
""fullscreenenter"",""5"",""11873""
","
","
","""event"",""trial"",""time""
""fullscreenenter"",""5"",""11873""
","
",410.2500000006985,NA,48,NA,NA,3000,1,NA,NA,images/earth.jpg,images/rocket1,images/rocket2,null,images/rocket1,NA,1,real,null,2,NA,NA,NA,sub125
d3-animate-choice,202,741188,0.0-76.0-1.22,FALSE,FALSE,FALSE,FALSE,"""event"",""trial"",""time""
""fullscreenenter"",""5"",""11873""
","
","
","""event"",""trial"",""time""
""fullscreenenter"",""5"",""11873""
","
",455.0050000034971,NA,48,NA,NA,3000,1,NA,NA,images/purpleplanet.jpg,images/alien4,images/alien3,images/rocket1,images/alien4,images/t.png,2,real,true,2,common,1,2020-06-24T02:31:18Z,sub125
two-step-fixation,203,742193,0.0-76.0-2.22,FALSE,FALSE,FALSE,FALSE,"""event"",""trial"",""time""
""fullscreenenter"",""5"",""11873""
","
","
","""event"",""trial"",""time""
""fullscreenenter"",""5"",""11873""
","
",NA,images/earth.jpg,NA,NA,NA,NA,NA,NA,NA,NA,NA,NA,NA,NA,NA,fixation,NA,NA,NA,NA,NA,NA,sub125
d3-animate-choice,204,744567,0.0-76.0-0.23,FALSE,FALSE,FALSE,FALSE,"""event"",""trial"",""time""
""fullscreenenter"",""5"",""11873""
","
","
","""event"",""trial"",""time""
""fullscreenenter"",""5"",""11873""
","
",367.27999999851454,NA,48,NA,NA,3000,1,NA,NA,images/earth.jpg,images/rocket1,images/rocket2,null,images/rocket1,NA,1,real,null,2,NA,NA,NA,sub125
d3-animate-choice,205,747450,0.0-76.0-1.23,FALSE,FALSE,FALSE,FALSE,"""event"",""trial"",""time""
""fullscreenenter"",""5"",""11873""
","
","
","""event"",""trial"",""time""
""fullscreenenter"",""5"",""11873""
","
",876.939999994589,NA,48,NA,NA,3000,1,NA,NA,images/redplanet1.jpg,images/alien2,images/alien1,images/rocket1,images/alien2,images/t.png,2,real,false,2,rare,1,2020-06-24T02:31:24Z,sub125
two-step-fixation,206,748457,0.0-76.0-2.23,FALSE,FALSE,FALSE,FALSE,"""event"",""trial"",""time""
""fullscreenenter"",""5"",""11873""
","
","
","""event"",""trial"",""time""
""fullscreenenter"",""5"",""11873""
","
",NA,images/earth.jpg,NA,NA,NA,NA,NA,NA,NA,NA,NA,NA,NA,NA,NA,fixation,NA,NA,NA,NA,NA,NA,sub125
d3-animate-choice,207,750941,0.0-76.0-0.24,FALSE,FALSE,FALSE,FALSE,"""event"",""trial"",""time""
""fullscreenenter"",""5"",""11873""
","
","
","""event"",""trial"",""time""
""fullscreenenter"",""5"",""11873""
","
",480.0299999988638,NA,48,NA,NA,3000,1,NA,NA,images/earth.jpg,images/rocket1,images/rocket2,null,images/rocket1,NA,1,real,null,2,NA,NA,NA,sub125
d3-animate-choice,208,753307,0.0-76.0-1.24,FALSE,FALSE,FALSE,FALSE,"""event"",""trial"",""time""
""fullscreenenter"",""5"",""11873""
","
","
","""event"",""trial"",""time""
""fullscreenenter"",""5"",""11873""
","
",362.0200000004843,NA,48,NA,NA,3000,1,2360.9100000030594,48,images/purpleplanet.jpg,images/alien4,images/alien3,images/rocket1,images/alien4,images/nothing.png,2,real,true,2,common,0,2020-06-24T02:31:30Z,sub125
two-step-fixation,209,754310,0.0-76.0-2.24,FALSE,FALSE,FALSE,FALSE,"""event"",""trial"",""time""
""fullscreenenter"",""5"",""11873""
","
","
","""event"",""trial"",""time""
""fullscreenenter"",""5"",""11873""
","
",NA,images/earth.jpg,NA,NA,NA,NA,NA,NA,NA,NA,NA,NA,NA,NA,NA,fixation,NA,NA,NA,NA,NA,NA,sub125
d3-animate-choice,210,756898,0.0-76.0-0.25,FALSE,FALSE,FALSE,FALSE,"""event"",""trial"",""time""
""fullscreenenter"",""5"",""11873""
","
","
","""event"",""trial"",""time""
""fullscreenenter"",""5"",""11873""
","
",583.7200000024168,NA,48,NA,NA,3000,1,NA,NA,images/earth.jpg,images/rocket1,images/rocket2,null,images/rocket1,NA,1,real,null,2,NA,NA,NA,sub125
d3-animate-choice,211,759440,0.0-76.0-1.25,FALSE,FALSE,FALSE,FALSE,"""event"",""trial"",""time""
""fullscreenenter"",""5"",""11873""
","
","
","""event"",""trial"",""time""
""fullscreenenter"",""5"",""11873""
","
",532.2400000004563,NA,48,NA,NA,3000,1,NA,NA,images/purpleplanet.jpg,images/alien4,images/alien3,images/rocket1,images/alien4,images/t.png,2,real,true,2,common,1,2020-06-24T02:31:36Z,sub125
two-step-fixation,212,760444,0.0-76.0-2.25,FALSE,FALSE,FALSE,FALSE,"""event"",""trial"",""time""
""fullscreenenter"",""5"",""11873""
","
","
","""event"",""trial"",""time""
""fullscreenenter"",""5"",""11873""
","
",NA,images/earth.jpg,NA,NA,NA,NA,NA,NA,NA,NA,NA,NA,NA,NA,NA,fixation,NA,NA,NA,NA,NA,NA,sub125
d3-animate-choice,213,762778,0.0-76.0-0.26,FALSE,FALSE,FALSE,FALSE,"""event"",""trial"",""time""
""fullscreenenter"",""5"",""11873""
","
","
","""event"",""trial"",""time""
""fullscreenenter"",""5"",""11873""
","
",328.89499999873806,NA,48,NA,NA,3000,1,NA,NA,images/earth.jpg,images/rocket1,images/rocket2,null,images/rocket1,NA,1,real,null,2,NA,NA,NA,sub125
d3-animate-choice,214,765588,0.0-76.0-1.26,FALSE,FALSE,FALSE,FALSE,"""event"",""trial"",""time""
""fullscreenenter"",""5"",""11873""
","
","
","""event"",""trial"",""time""
""fullscreenenter"",""5"",""11873""
","
",806.0899999982212,NA,48,NA,NA,3000,1,NA,NA,images/purpleplanet.jpg,images/alien4,images/alien3,images/rocket1,images/alien4,images/nothing.png,2,real,true,2,common,0,2020-06-24T02:31:42Z,sub125
two-step-fixation,215,766592,0.0-76.0-2.26,FALSE,FALSE,FALSE,FALSE,"""event"",""trial"",""time""
""fullscreenenter"",""5"",""11873""
","
","
","""event"",""trial"",""time""
""fullscreenenter"",""5"",""11873""
","
",NA,images/earth.jpg,NA,NA,NA,NA,NA,NA,NA,NA,NA,NA,NA,NA,NA,fixation,NA,NA,NA,NA,NA,NA,sub125
d3-animate-choice,216,769237,0.0-76.0-0.27,FALSE,FALSE,FALSE,FALSE,"""event"",""trial"",""time""
""fullscreenenter"",""5"",""11873""
","
","
","""event"",""trial"",""time""
""fullscreenenter"",""5"",""11873""
","
",637.2100000006612,NA,48,NA,NA,3000,1,NA,NA,images/earth.jpg,images/rocket1,images/rocket2,null,images/rocket1,NA,1,real,null,2,NA,NA,NA,sub125
d3-animate-choice,217,771730,0.0-76.0-1.27,FALSE,FALSE,FALSE,FALSE,"""event"",""trial"",""time""
""fullscreenenter"",""5"",""11873""
","
","
","""event"",""trial"",""time""
""fullscreenenter"",""5"",""11873""
","
",487.4500000004191,NA,48,NA,NA,3000,1,NA,NA,images/purpleplanet.jpg,images/alien4,images/alien3,images/rocket1,images/alien4,images/t.png,2,real,true,2,common,1,2020-06-24T02:31:48Z,sub125
two-step-fixation,218,772735,0.0-76.0-2.27,FALSE,FALSE,FALSE,FALSE,"""event"",""trial"",""time""
""fullscreenenter"",""5"",""11873""
","
","
","""event"",""trial"",""time""
""fullscreenenter"",""5"",""11873""
","
",NA,images/earth.jpg,NA,NA,NA,NA,NA,NA,NA,NA,NA,NA,NA,NA,NA,fixation,NA,NA,NA,NA,NA,NA,sub125
d3-animate-choice,219,774800,0.0-76.0-0.28,FALSE,FALSE,FALSE,FALSE,"""event"",""trial"",""time""
""fullscreenenter"",""5"",""11873""
","
","
","""event"",""trial"",""time""
""fullscreenenter"",""5"",""11873""
","
",57.63000000291504,NA,48,NA,NA,3000,1,NA,NA,images/earth.jpg,images/rocket1,images/rocket2,null,images/rocket1,NA,1,real,null,2,NA,NA,NA,sub125
d3-animate-choice,220,777610,0.0-76.0-1.28,FALSE,FALSE,FALSE,FALSE,"""event"",""trial"",""time""
""fullscreenenter"",""5"",""11873""
","
","
","""event"",""trial"",""time""
""fullscreenenter"",""5"",""11873""
","
",804.2999999960884,NA,48,NA,NA,3000,1,NA,NA,images/redplanet1.jpg,images/alien2,images/alien1,images/rocket1,images/alien2,images/t.png,2,real,false,2,rare,1,2020-06-24T02:31:54Z,sub125
two-step-fixation,221,778614,0.0-76.0-2.28,FALSE,FALSE,FALSE,FALSE,"""event"",""trial"",""time""
""fullscreenenter"",""5"",""11873""
","
","
","""event"",""trial"",""time""
""fullscreenenter"",""5"",""11873""
","
",NA,images/earth.jpg,NA,NA,NA,NA,NA,NA,NA,NA,NA,NA,NA,NA,NA,fixation,NA,NA,NA,NA,NA,NA,sub125
d3-animate-choice,222,781179,0.0-76.0-0.29,FALSE,FALSE,FALSE,FALSE,"""event"",""trial"",""time""
""fullscreenenter"",""5"",""11873""
","
","
","""event"",""trial"",""time""
""fullscreenenter"",""5"",""11873""
","
",556.4550000054296,NA,48,NA,NA,3000,1,NA,NA,images/earth.jpg,images/rocket1,images/rocket2,null,images/rocket1,NA,1,real,null,2,NA,NA,NA,sub125
d3-animate-choice,223,783674,0.0-76.0-1.29,FALSE,FALSE,FALSE,FALSE,"""event"",""trial"",""time""
""fullscreenenter"",""5"",""11873""
","
","
","""event"",""trial"",""time""
""fullscreenenter"",""5"",""11873""
","
",490.03000000084285,NA,48,NA,NA,3000,1,NA,NA,images/purpleplanet.jpg,images/alien4,images/alien3,images/rocket1,images/alien4,images/t.png,2,real,true,2,common,1,2020-06-24T02:32:00Z,sub125
two-step-fixation,224,784678,0.0-76.0-2.29,FALSE,FALSE,FALSE,FALSE,"""event"",""trial"",""time""
""fullscreenenter"",""5"",""11873""
","
","
","""event"",""trial"",""time""
""fullscreenenter"",""5"",""11873""
","
",NA,images/earth.jpg,NA,NA,NA,NA,NA,NA,NA,NA,NA,NA,NA,NA,NA,fixation,NA,NA,NA,NA,NA,NA,sub125
d3-animate-choice,225,787083,0.0-76.0-0.30,FALSE,FALSE,FALSE,FALSE,"""event"",""trial"",""time""
""fullscreenenter"",""5"",""11873""
","
","
","""event"",""trial"",""time""
""fullscreenenter"",""5"",""11873""
","
",399.4749999983469,NA,48,NA,NA,3000,1,NA,NA,images/earth.jpg,images/rocket1,images/rocket2,null,images/rocket1,NA,1,real,null,2,NA,NA,NA,sub125
d3-animate-choice,226,789593,0.0-76.0-1.30,FALSE,FALSE,FALSE,FALSE,"""event"",""trial"",""time""
""fullscreenenter"",""5"",""11873""
","
","
","""event"",""trial"",""time""
""fullscreenenter"",""5"",""11873""
","
",504.95000000228174,NA,48,NA,NA,3000,1,NA,NA,images/purpleplanet.jpg,images/alien4,images/alien3,images/rocket1,images/alien4,images/t.png,2,real,true,2,common,1,2020-06-24T02:32:06Z,sub125
two-step-fixation,227,790597,0.0-76.0-2.30,FALSE,FALSE,FALSE,FALSE,"""event"",""trial"",""time""
""fullscreenenter"",""5"",""11873""
","
","
","""event"",""trial"",""time""
""fullscreenenter"",""5"",""11873""
","
",NA,images/earth.jpg,NA,NA,NA,NA,NA,NA,NA,NA,NA,NA,NA,NA,NA,fixation,NA,NA,NA,NA,NA,NA,sub125
d3-animate-choice,228,792982,0.0-76.0-0.31,FALSE,FALSE,FALSE,FALSE,"""event"",""trial"",""time""
""fullscreenenter"",""5"",""11873""
","
","
","""event"",""trial"",""time""
""fullscreenenter"",""5"",""11873""
","
",379.2050000047311,NA,48,NA,NA,3000,1,NA,NA,images/earth.jpg,images/rocket1,images/rocket2,null,images/rocket1,NA,1,real,null,2,NA,NA,NA,sub125
d3-animate-choice,229,795747,0.0-76.0-1.31,FALSE,FALSE,FALSE,FALSE,"""event"",""trial"",""time""
""fullscreenenter"",""5"",""11873""
","
","
","""event"",""trial"",""time""
""fullscreenenter"",""5"",""11873""
","
",759.6600000032922,NA,48,NA,NA,3000,1,NA,NA,images/redplanet1.jpg,images/alien2,images/alien1,images/rocket1,images/alien2,images/t.png,2,real,false,2,rare,1,2020-06-24T02:32:12Z,sub125
two-step-fixation,230,796752,0.0-76.0-2.31,FALSE,FALSE,FALSE,FALSE,"""event"",""trial"",""time""
""fullscreenenter"",""5"",""11873""
","
","
","""event"",""trial"",""time""
""fullscreenenter"",""5"",""11873""
","
",NA,images/earth.jpg,NA,NA,NA,NA,NA,NA,NA,NA,NA,NA,NA,NA,NA,fixation,NA,NA,NA,NA,NA,NA,sub125
d3-animate-choice,231,799184,0.0-76.0-0.32,FALSE,FALSE,FALSE,FALSE,"""event"",""trial"",""time""
""fullscreenenter"",""5"",""11873""
","
","
","""event"",""trial"",""time""
""fullscreenenter"",""5"",""11873""
","
",425.73499999707565,NA,48,NA,NA,3000,1,NA,NA,images/earth.jpg,images/rocket1,images/rocket2,null,images/rocket1,NA,1,real,null,2,NA,NA,NA,sub125
d3-animate-choice,232,801798,0.0-76.0-1.32,FALSE,FALSE,FALSE,FALSE,"""event"",""trial"",""time""
""fullscreenenter"",""5"",""11873""
","
","
","""event"",""trial"",""time""
""fullscreenenter"",""5"",""11873""
","
",608.9600000049686,NA,48,NA,NA,3000,1,NA,NA,images/purpleplanet.jpg,images/alien4,images/alien3,images/rocket1,images/alien4,images/t.png,2,real,true,2,common,1,2020-06-24T02:32:18Z,sub125
two-step-fixation,233,802806,0.0-76.0-2.32,FALSE,FALSE,FALSE,FALSE,"""event"",""trial"",""time""
""fullscreenenter"",""5"",""11873""
","
","
","""event"",""trial"",""time""
""fullscreenenter"",""5"",""11873""
","
",NA,images/earth.jpg,NA,NA,NA,NA,NA,NA,NA,NA,NA,NA,NA,NA,NA,fixation,NA,NA,NA,NA,NA,NA,sub125
d3-animate-choice,234,805485,0.0-76.0-0.33,FALSE,FALSE,FALSE,FALSE,"""event"",""trial"",""time""
""fullscreenenter"",""5"",""11873""
","
","
","""event"",""trial"",""time""
""fullscreenenter"",""5"",""11873""
","
",675.154999997234,NA,48,NA,NA,3000,1,NA,NA,images/earth.jpg,images/rocket1,images/rocket2,null,images/rocket1,NA,1,real,null,2,NA,NA,NA,sub125
d3-animate-choice,235,808024,0.0-76.0-1.33,FALSE,FALSE,FALSE,FALSE,"""event"",""trial"",""time""
""fullscreenenter"",""5"",""11873""
","
","
","""event"",""trial"",""time""
""fullscreenenter"",""5"",""11873""
","
",534.5850000012433,NA,48,NA,NA,3000,1,NA,NA,images/purpleplanet.jpg,images/alien4,images/alien3,images/rocket1,images/alien4,images/t.png,2,real,true,2,common,1,2020-06-24T02:32:25Z,sub125
two-step-fixation,236,809029,0.0-76.0-2.33,FALSE,FALSE,FALSE,FALSE,"""event"",""trial"",""time""
""fullscreenenter"",""5"",""11873""
","
","
","""event"",""trial"",""time""
""fullscreenenter"",""5"",""11873""
","
",NA,images/earth.jpg,NA,NA,NA,NA,NA,NA,NA,NA,NA,NA,NA,NA,NA,fixation,NA,NA,NA,NA,NA,NA,sub125
d3-animate-choice,237,811431,0.0-76.0-0.34,FALSE,FALSE,FALSE,FALSE,"""event"",""trial"",""time""
""fullscreenenter"",""5"",""11873""
","
","
","""event"",""trial"",""time""
""fullscreenenter"",""5"",""11873""
","
",391.92000000190455,NA,48,NA,NA,3000,1,NA,NA,images/earth.jpg,images/rocket1,images/rocket2,null,images/rocket1,NA,1,real,null,2,NA,NA,NA,sub125
d3-animate-choice,238,813873,0.0-76.0-1.34,FALSE,FALSE,FALSE,FALSE,"""event"",""trial"",""time""
""fullscreenenter"",""5"",""11873""
","
","
","""event"",""trial"",""time""
""fullscreenenter"",""5"",""11873""
","
",438.1800000045914,NA,48,NA,NA,3000,1,NA,NA,images/purpleplanet.jpg,images/alien4,images/alien3,images/rocket1,images/alien4,images/t.png,2,real,true,2,common,1,2020-06-24T02:32:30Z,sub125
two-step-fixation,239,814880,0.0-76.0-2.34,FALSE,FALSE,FALSE,FALSE,"""event"",""trial"",""time""
""fullscreenenter"",""5"",""11873""
","
","
","""event"",""trial"",""time""
""fullscreenenter"",""5"",""11873""
","
",NA,images/earth.jpg,NA,NA,NA,NA,NA,NA,NA,NA,NA,NA,NA,NA,NA,fixation,NA,NA,NA,NA,NA,NA,sub125
d3-animate-choice,240,817247,0.0-76.0-0.35,FALSE,FALSE,FALSE,FALSE,"""event"",""trial"",""time""
""fullscreenenter"",""5"",""11873""
","
","
","""event"",""trial"",""time""
""fullscreenenter"",""5"",""11873""
","
",360.63499999733176,NA,48,NA,NA,3000,1,NA,NA,images/earth.jpg,images/rocket1,images/rocket2,null,images/rocket1,NA,1,real,null,2,NA,NA,NA,sub125
d3-animate-choice,241,819567,0.0-76.0-1.35,FALSE,FALSE,FALSE,FALSE,"""event"",""trial"",""time""
""fullscreenenter"",""5"",""11873""
","
","
","""event"",""trial"",""time""
""fullscreenenter"",""5"",""11873""
","
",315.9799999993993,NA,48,NA,NA,3000,1,NA,NA,images/purpleplanet.jpg,images/alien4,images/alien3,images/rocket1,images/alien4,images/nothing.png,2,real,true,2,common,0,2020-06-24T02:32:36Z,sub125
two-step-fixation,242,820572,0.0-76.0-2.35,FALSE,FALSE,FALSE,FALSE,"""event"",""trial"",""time""
""fullscreenenter"",""5"",""11873""
","
","
","""event"",""trial"",""time""
""fullscreenenter"",""5"",""11873""
","
",NA,images/earth.jpg,NA,NA,NA,NA,NA,NA,NA,NA,NA,NA,NA,NA,NA,fixation,NA,NA,NA,NA,NA,NA,sub125
d3-animate-choice,243,822989,0.0-76.0-0.36,FALSE,FALSE,FALSE,FALSE,"""event"",""trial"",""time""
""fullscreenenter"",""5"",""11873""
","
","
","""event"",""trial"",""time""
""fullscreenenter"",""5"",""11873""
","
",410.98000000067987,NA,48,NA,NA,3000,1,NA,NA,images/earth.jpg,images/rocket1,images/rocket2,null,images/rocket1,NA,1,real,null,2,NA,NA,NA,sub125
d3-animate-choice,244,825639,0.0-76.0-1.36,FALSE,FALSE,FALSE,FALSE,"""event"",""trial"",""time""
""fullscreenenter"",""5"",""11873""
","
","
","""event"",""trial"",""time""
""fullscreenenter"",""5"",""11873""
","
",646.8150000000605,NA,48,NA,NA,3000,1,NA,NA,images/purpleplanet.jpg,images/alien4,images/alien3,images/rocket1,images/alien4,images/t.png,2,real,true,2,common,1,2020-06-24T02:32:42Z,sub125
two-step-fixation,245,826642,0.0-76.0-2.36,FALSE,FALSE,FALSE,FALSE,"""event"",""trial"",""time""
""fullscreenenter"",""5"",""11873""
","
","
","""event"",""trial"",""time""
""fullscreenenter"",""5"",""11873""
","
",NA,images/earth.jpg,NA,NA,NA,NA,NA,NA,NA,NA,NA,NA,NA,NA,NA,fixation,NA,NA,NA,NA,NA,NA,sub125
d3-animate-choice,246,828983,0.0-76.0-0.37,FALSE,FALSE,FALSE,FALSE,"""event"",""trial"",""time""
""fullscreenenter"",""5"",""11873""
","
","
","""event"",""trial"",""time""
""fullscreenenter"",""5"",""11873""
","
",334.79999999690335,NA,48,NA,NA,3000,1,NA,NA,images/earth.jpg,images/rocket1,images/rocket2,null,images/rocket1,NA,1,real,null,2,NA,NA,NA,sub125
d3-animate-choice,247,831542,0.0-76.0-1.37,FALSE,FALSE,FALSE,FALSE,"""event"",""trial"",""time""
""fullscreenenter"",""5"",""11873""
","
","
","""event"",""trial"",""time""
""fullscreenenter"",""5"",""11873""
","
",554.1300000040792,NA,48,NA,NA,3000,1,NA,NA,images/redplanet1.jpg,images/alien2,images/alien1,images/rocket1,images/alien2,images/nothing.png,2,real,false,2,rare,0,2020-06-24T02:32:48Z,sub125
two-step-fixation,248,832547,0.0-76.0-2.37,FALSE,FALSE,FALSE,FALSE,"""event"",""trial"",""time""
""fullscreenenter"",""5"",""11873""
","
","
","""event"",""trial"",""time""
""fullscreenenter"",""5"",""11873""
","
",NA,images/earth.jpg,NA,NA,NA,NA,NA,NA,NA,NA,NA,NA,NA,NA,NA,fixation,NA,NA,NA,NA,NA,NA,sub125
d3-animate-choice,249,834845,0.0-76.0-0.38,FALSE,FALSE,FALSE,FALSE,"""event"",""trial"",""time""
""fullscreenenter"",""5"",""11873""
","
","
","""event"",""trial"",""time""
""fullscreenenter"",""5"",""11873""
","
",290.7800000029383,NA,48,NA,NA,3000,1,NA,NA,images/earth.jpg,images/rocket1,images/rocket2,null,images/rocket1,NA,1,real,null,2,NA,NA,NA,sub125
d3-animate-choice,250,837224,0.0-76.0-1.38,FALSE,FALSE,FALSE,FALSE,"""event"",""trial"",""time""
""fullscreenenter"",""5"",""11873""
","
","
","""event"",""trial"",""time""
""fullscreenenter"",""5"",""11873""
","
",373.34499999997206,NA,48,NA,NA,3000,1,NA,NA,images/purpleplanet.jpg,images/alien4,images/alien3,images/rocket1,images/alien4,images/nothing.png,2,real,true,2,common,0,2020-06-24T02:32:54Z,sub125
two-step-fixation,251,838231,0.0-76.0-2.38,FALSE,FALSE,FALSE,FALSE,"""event"",""trial"",""time""
""fullscreenenter"",""5"",""11873""
","
","
","""event"",""trial"",""time""
""fullscreenenter"",""5"",""11873""
","
",NA,images/earth.jpg,NA,NA,NA,NA,NA,NA,NA,NA,NA,NA,NA,NA,NA,fixation,NA,NA,NA,NA,NA,NA,sub125
d3-animate-choice,252,840554,0.0-76.0-0.39,FALSE,FALSE,FALSE,FALSE,"""event"",""trial"",""time""
""fullscreenenter"",""5"",""11873""
","
","
","""event"",""trial"",""time""
""fullscreenenter"",""5"",""11873""
","
",317.8399999960093,NA,48,NA,NA,3000,1,NA,NA,images/earth.jpg,images/rocket1,images/rocket2,null,images/rocket1,NA,1,real,null,2,NA,NA,NA,sub125
d3-animate-choice,253,842834,0.0-76.0-1.39,FALSE,FALSE,FALSE,FALSE,"""event"",""trial"",""time""
""fullscreenenter"",""5"",""11873""
","
","
","""event"",""trial"",""time""
""fullscreenenter"",""5"",""11873""
","
",276.83999999868684,NA,48,NA,NA,3000,1,NA,NA,images/purpleplanet.jpg,images/alien4,images/alien3,images/rocket1,images/alien4,images/nothing.png,2,real,true,2,common,0,2020-06-24T02:32:59Z,sub125
two-step-fixation,254,843840,0.0-76.0-2.39,FALSE,FALSE,FALSE,FALSE,"""event"",""trial"",""time""
""fullscreenenter"",""5"",""11873""
","
","
","""event"",""trial"",""time""
""fullscreenenter"",""5"",""11873""
","
",NA,images/earth.jpg,NA,NA,NA,NA,NA,NA,NA,NA,NA,NA,NA,NA,NA,fixation,NA,NA,NA,NA,NA,NA,sub125
d3-animate-choice,255,846308,0.0-76.0-0.40,FALSE,FALSE,FALSE,FALSE,"""event"",""trial"",""time""
""fullscreenenter"",""5"",""11873""
","
","
","""event"",""trial"",""time""
""fullscreenenter"",""5"",""11873""
","
",464.1300000003539,NA,48,NA,NA,3000,1,NA,NA,images/earth.jpg,images/rocket1,images/rocket2,null,images/rocket1,NA,1,real,null,2,NA,NA,NA,sub125
d3-animate-choice,256,849026,0.0-76.0-1.40,FALSE,FALSE,FALSE,FALSE,"""event"",""trial"",""time""
""fullscreenenter"",""5"",""11873""
","
","
","""event"",""trial"",""time""
""fullscreenenter"",""5"",""11873""
","
",713.9499999975087,NA,48,NA,NA,3000,1,NA,NA,images/redplanet1.jpg,images/alien2,images/alien1,images/rocket1,images/alien2,images/nothing.png,2,real,false,2,rare,0,2020-06-24T02:33:06Z,sub125
two-step-fixation,257,850032,0.0-76.0-2.40,FALSE,FALSE,FALSE,FALSE,"""event"",""trial"",""time""
""fullscreenenter"",""5"",""11873""
","
","
","""event"",""trial"",""time""
""fullscreenenter"",""5"",""11873""
","
",NA,images/earth.jpg,NA,NA,NA,NA,NA,NA,NA,NA,NA,NA,NA,NA,NA,fixation,NA,NA,NA,NA,NA,NA,sub125
d3-animate-choice,258,852361,0.0-76.0-0.41,FALSE,FALSE,FALSE,FALSE,"""event"",""trial"",""time""
""fullscreenenter"",""5"",""11873""
","
","
","""event"",""trial"",""time""
""fullscreenenter"",""5"",""11873""
","
",323.0550000006333,NA,48,NA,NA,3000,1,NA,NA,images/earth.jpg,images/rocket1,images/rocket2,null,images/rocket1,NA,1,real,null,2,NA,NA,NA,sub125
d3-animate-choice,259,855340,0.0-76.0-1.41,FALSE,FALSE,FALSE,FALSE,"""event"",""trial"",""time""
""fullscreenenter"",""5"",""11873""
","
","
","""event"",""trial"",""time""
""fullscreenenter"",""5"",""11873""
","
",973.1299999984913,NA,49,NA,NA,3000,1,NA,NA,images/purpleplanet.jpg,images/alien4,images/alien3,images/rocket1,images/alien3,images/nothing.png,2,real,true,1,common,0,2020-06-24T02:33:12Z,sub125
two-step-fixation,260,856345,0.0-76.0-2.41,FALSE,FALSE,FALSE,FALSE,"""event"",""trial"",""time""
""fullscreenenter"",""5"",""11873""
","
","
","""event"",""trial"",""time""
""fullscreenenter"",""5"",""11873""
","
",NA,images/earth.jpg,NA,NA,NA,NA,NA,NA,NA,NA,NA,NA,NA,NA,NA,fixation,NA,NA,NA,NA,NA,NA,sub125
d3-animate-choice,261,858649,0.0-76.0-0.42,FALSE,FALSE,FALSE,FALSE,"""event"",""trial"",""time""
""fullscreenenter"",""5"",""11873""
","
","
","""event"",""trial"",""time""
""fullscreenenter"",""5"",""11873""
","
",300.29999999527354,NA,48,NA,NA,3000,1,NA,NA,images/earth.jpg,images/rocket1,images/rocket2,null,images/rocket1,NA,1,real,null,2,NA,NA,NA,sub125
d3-animate-choice,262,861167,0.0-76.0-1.42,FALSE,FALSE,FALSE,FALSE,"""event"",""trial"",""time""
""fullscreenenter"",""5"",""11873""
","
","
","""event"",""trial"",""time""
""fullscreenenter"",""5"",""11873""
","
",510.8249999975087,NA,48,NA,NA,3000,1,NA,NA,images/purpleplanet.jpg,images/alien4,images/alien3,images/rocket1,images/alien4,images/nothing.png,2,real,true,2,common,0,2020-06-24T02:33:18Z,sub125
two-step-fixation,263,862172,0.0-76.0-2.42,FALSE,FALSE,FALSE,FALSE,"""event"",""trial"",""time""
""fullscreenenter"",""5"",""11873""
","
","
","""event"",""trial"",""time""
""fullscreenenter"",""5"",""11873""
","
",NA,images/earth.jpg,NA,NA,NA,NA,NA,NA,NA,NA,NA,NA,NA,NA,NA,fixation,NA,NA,NA,NA,NA,NA,sub125
d3-animate-choice,264,864454,0.0-76.0-0.43,FALSE,FALSE,FALSE,FALSE,"""event"",""trial"",""time""
""fullscreenenter"",""5"",""11873""
","
","
","""event"",""trial"",""time""
""fullscreenenter"",""5"",""11873""
","
",275.5699999979697,NA,48,NA,NA,3000,1,NA,NA,images/earth.jpg,images/rocket1,images/rocket2,null,images/rocket1,NA,1,real,null,2,NA,NA,NA,sub125
d3-animate-choice,265,867477,0.0-76.0-1.43,FALSE,FALSE,FALSE,FALSE,"""event"",""trial"",""time""
""fullscreenenter"",""5"",""11873""
","
","
","""event"",""trial"",""time""
""fullscreenenter"",""5"",""11873""
","
",1016.604999997071,NA,49,NA,NA,3000,1,NA,NA,images/purpleplanet.jpg,images/alien4,images/alien3,images/rocket1,images/alien3,images/nothing.png,2,real,true,1,common,0,2020-06-24T02:33:24Z,sub125
two-step-fixation,266,868481,0.0-76.0-2.43,FALSE,FALSE,FALSE,FALSE,"""event"",""trial"",""time""
""fullscreenenter"",""5"",""11873""
","
","
","""event"",""trial"",""time""
""fullscreenenter"",""5"",""11873""
","
",NA,images/earth.jpg,NA,NA,NA,NA,NA,NA,NA,NA,NA,NA,NA,NA,NA,fixation,NA,NA,NA,NA,NA,NA,sub125
d3-animate-choice,267,870890,0.0-76.0-0.44,FALSE,FALSE,FALSE,FALSE,"""event"",""trial"",""time""
""fullscreenenter"",""5"",""11873""
","
","
","""event"",""trial"",""time""
""fullscreenenter"",""5"",""11873""
","
",400.95499999739695,NA,48,NA,NA,3000,1,1969.7349999988219,48,images/earth.jpg,images/rocket1,images/rocket2,null,images/rocket1,NA,1,real,null,2,NA,NA,NA,sub125
d3-animate-choice,268,873365,0.0-76.0-1.44,FALSE,FALSE,FALSE,FALSE,"""event"",""trial"",""time""
""fullscreenenter"",""5"",""11873""
","
","
","""event"",""trial"",""time""
""fullscreenenter"",""5"",""11873""
","
",469.96499999659136,NA,48,NA,NA,3000,1,NA,NA,images/purpleplanet.jpg,images/alien4,images/alien3,images/rocket1,images/alien4,images/t.png,2,real,true,2,common,1,2020-06-24T02:33:30Z,sub125
two-step-fixation,269,874372,0.0-76.0-2.44,FALSE,FALSE,FALSE,FALSE,"""event"",""trial"",""time""
""fullscreenenter"",""5"",""11873""
","
","
","""event"",""trial"",""time""
""fullscreenenter"",""5"",""11873""
","
",NA,images/earth.jpg,NA,NA,NA,NA,NA,NA,NA,NA,NA,NA,NA,NA,NA,fixation,NA,NA,NA,NA,NA,NA,sub125
d3-animate-choice,270,876747,0.0-76.0-0.45,FALSE,FALSE,FALSE,FALSE,"""event"",""trial"",""time""
""fullscreenenter"",""5"",""11873""
","
","
","""event"",""trial"",""time""
""fullscreenenter"",""5"",""11873""
","
",370.65499999874737,NA,48,NA,NA,3000,1,NA,NA,images/earth.jpg,images/rocket1,images/rocket2,null,images/rocket1,NA,1,real,null,2,NA,NA,NA,sub125
d3-animate-choice,271,879201,0.0-76.0-1.45,FALSE,FALSE,FALSE,FALSE,"""event"",""trial"",""time""
""fullscreenenter"",""5"",""11873""
","
","
","""event"",""trial"",""time""
""fullscreenenter"",""5"",""11873""
","
",450.0149999948917,NA,48,NA,NA,3000,1,NA,NA,images/purpleplanet.jpg,images/alien4,images/alien3,images/rocket1,images/alien4,images/t.png,2,real,true,2,common,1,2020-06-24T02:33:36Z,sub125
two-step-fixation,272,880207,0.0-76.0-2.45,FALSE,FALSE,FALSE,FALSE,"""event"",""trial"",""time""
""fullscreenenter"",""5"",""11873""
","
","
","""event"",""trial"",""time""
""fullscreenenter"",""5"",""11873""
","
",NA,images/earth.jpg,NA,NA,NA,NA,NA,NA,NA,NA,NA,NA,NA,NA,NA,fixation,NA,NA,NA,NA,NA,NA,sub125
d3-animate-choice,273,882517,0.0-76.0-0.46,FALSE,FALSE,FALSE,FALSE,"""event"",""trial"",""time""
""fullscreenenter"",""5"",""11873""
","
","
","""event"",""trial"",""time""
""fullscreenenter"",""5"",""11873""
","
",301.0149999973364,NA,48,NA,NA,3000,1,NA,NA,images/earth.jpg,images/rocket1,images/rocket2,null,images/rocket1,NA,1,real,null,2,NA,NA,NA,sub125
d3-animate-choice,274,884882,0.0-76.0-1.46,FALSE,FALSE,FALSE,FALSE,"""event"",""trial"",""time""
""fullscreenenter"",""5"",""11873""
","
","
","""event"",""trial"",""time""
""fullscreenenter"",""5"",""11873""
","
",360.63999999896623,NA,48,NA,NA,3000,1,NA,NA,images/redplanet1.jpg,images/alien2,images/alien1,images/rocket1,images/alien2,images/t.png,2,real,false,2,rare,1,2020-06-24T02:33:41Z,sub125
two-step-fixation,275,885887,0.0-76.0-2.46,FALSE,FALSE,FALSE,FALSE,"""event"",""trial"",""time""
""fullscreenenter"",""5"",""11873""
","
","
","""event"",""trial"",""time""
""fullscreenenter"",""5"",""11873""
","
",NA,images/earth.jpg,NA,NA,NA,NA,NA,NA,NA,NA,NA,NA,NA,NA,NA,fixation,NA,NA,NA,NA,NA,NA,sub125
d3-animate-choice,276,888188,0.0-76.0-0.47,FALSE,FALSE,FALSE,FALSE,"""event"",""trial"",""time""
""fullscreenenter"",""5"",""11873""
","
","
","""event"",""trial"",""time""
""fullscreenenter"",""5"",""11873""
","
",296.94000000017695,NA,48,NA,NA,3000,1,NA,NA,images/earth.jpg,images/rocket1,images/rocket2,null,images/rocket1,NA,1,real,null,2,NA,NA,NA,sub125
d3-animate-choice,277,891585,0.0-76.0-1.47,FALSE,FALSE,FALSE,FALSE,"""event"",""trial"",""time""
""fullscreenenter"",""5"",""11873""
","
","
","""event"",""trial"",""time""
""fullscreenenter"",""5"",""11873""
","
",1390.455000000773,NA,48,NA,NA,3000,1,NA,NA,images/redplanet1.jpg,images/alien2,images/alien1,images/rocket1,images/alien2,images/nothing.png,2,real,false,2,rare,0,2020-06-24T02:33:48Z,sub125
two-step-fixation,278,892589,0.0-76.0-2.47,FALSE,FALSE,FALSE,FALSE,"""event"",""trial"",""time""
""fullscreenenter"",""5"",""11873""
","
","
","""event"",""trial"",""time""
""fullscreenenter"",""5"",""11873""
","
",NA,images/earth.jpg,NA,NA,NA,NA,NA,NA,NA,NA,NA,NA,NA,NA,NA,fixation,NA,NA,NA,NA,NA,NA,sub125
d3-animate-choice,279,894778,0.0-76.0-0.48,FALSE,FALSE,FALSE,FALSE,"""event"",""trial"",""time""
""fullscreenenter"",""5"",""11873""
","
","
","""event"",""trial"",""time""
""fullscreenenter"",""5"",""11873""
","
",182.7199999971781,NA,48,NA,NA,3000,1,NA,NA,images/earth.jpg,images/rocket1,images/rocket2,null,images/rocket1,NA,1,real,null,2,NA,NA,NA,sub125
d3-animate-choice,280,898229,0.0-76.0-1.48,FALSE,FALSE,FALSE,FALSE,"""event"",""trial"",""time""
""fullscreenenter"",""5"",""11873""
","
","
","""event"",""trial"",""time""
""fullscreenenter"",""5"",""11873""
","
",1445.0299999953713,NA,48,NA,NA,3000,1,NA,NA,images/redplanet1.jpg,images/alien2,images/alien1,images/rocket1,images/alien2,images/t.png,2,real,false,2,rare,1,2020-06-24T02:33:55Z,sub125
two-step-fixation,281,899234,0.0-76.0-2.48,FALSE,FALSE,FALSE,FALSE,"""event"",""trial"",""time""
