trial_type,trial_index,time_elapsed,internal_node_id,rocket_sides,red_planet_first_rocket,red_display_order,purple_display_order,interactions,blur_events,focus_events,fullscreenenter_events,fullscreenexit_events,rt,stimulus,key_press,button_pressed,success,duration,valid_pressed,rts,keys,planet_text,right_text,left_text,center_text,chosen_text,reward_text,trial_stage,practice_trial,transition_type,choice,transition,reward,timestamp,subject_id
pavlovia,0,18,0.0-0.0,FALSE,FALSE,FALSE,TRUE,"""event"",""trial"",""time""
""blur"",""0"",""0""
""focus"",""0"",""0""
","""event"",""trial"",""time""
""blur"",""0"",""0""
","""event"",""trial"",""time""
""focus"",""0"",""0""
","
","
",NA,NA,NA,NA,NA,NA,NA,NA,NA,NA,NA,NA,NA,NA,NA,NA,NA,NA,NA,NA,NA,NA,sub57
html-keyboard-response,1,1456,0.0-1.0,FALSE,FALSE,FALSE,TRUE,"""event"",""trial"",""time""
""blur"",""0"",""0""
""focus"",""0"",""0""
","""event"",""trial"",""time""
""blur"",""0"",""0""
","""event"",""trial"",""time""
""focus"",""0"",""0""
","
","
",1423.800000004121,Welcome! Press the space bar to begin.,32,NA,NA,NA,NA,NA,NA,NA,NA,NA,NA,NA,NA,NA,NA,NA,NA,NA,NA,NA,sub57
audio-keyboard-response,2,9325,0.0-2.0,FALSE,FALSE,FALSE,TRUE,"""event"",""trial"",""time""
""blur"",""0"",""0""
""focus"",""0"",""0""
""blur"",""3"",""17954""
""focus"",""3"",""17956""
","""event"",""trial"",""time""
""blur"",""0"",""0""
""blur"",""3"",""17954""
","""event"",""trial"",""time""
""focus"",""0"",""0""
""focus"",""3"",""17956""
","
","
",7341,audio/beep_loop.wav,32,NA,NA,NA,NA,NA,NA,NA,NA,NA,NA,NA,NA,NA,NA,NA,NA,NA,NA,NA,sub57
audio-button-response,3,19208,0.0-3.0,FALSE,FALSE,FALSE,TRUE,"""event"",""trial"",""time""
""blur"",""0"",""0""
""focus"",""0"",""0""
""blur"",""3"",""17954""
""focus"",""3"",""17956""
","""event"",""trial"",""time""
""blur"",""0"",""0""
""blur"",""3"",""17954""
","""event"",""trial"",""time""
""focus"",""0"",""0""
""focus"",""3"",""17956""
","
","
",NaN,audio/fish.mp3,NA,1,NA,NA,NA,NA,NA,NA,NA,NA,NA,NA,NA,NA,NA,NA,NA,NA,NA,NA,sub57
audio-button-response,4,22007,0.0-4.0,FALSE,FALSE,FALSE,TRUE,"""event"",""trial"",""time""
""blur"",""0"",""0""
""focus"",""0"",""0""
""blur"",""3"",""17954""
""focus"",""3"",""17956""
""fullscreenenter"",""5"",""30603""
","""event"",""trial"",""time""
""blur"",""0"",""0""
""blur"",""3"",""17954""
","""event"",""trial"",""time""
""focus"",""0"",""0""
""focus"",""3"",""17956""
","""event"",""trial"",""time""
""fullscreenenter"",""5"",""30603""
","
",NaN,audio/tiger.mp3,NA,4,NA,NA,NA,NA,NA,NA,NA,NA,NA,NA,NA,NA,NA,NA,NA,NA,NA,NA,sub57
fullscreen,5,31557,0.0-5.0,FALSE,FALSE,FALSE,TRUE,"""event"",""trial"",""time""
""blur"",""0"",""0""
""focus"",""0"",""0""
""blur"",""3"",""17954""
""focus"",""3"",""17956""
""fullscreenenter"",""5"",""30603""
","""event"",""trial"",""time""
""blur"",""0"",""0""
""blur"",""3"",""17954""
","""event"",""trial"",""time""
""focus"",""0"",""0""
""focus"",""3"",""17956""
","""event"",""trial"",""time""
""fullscreenenter"",""5"",""30603""
","
",NA,NA,NA,NA,TRUE,NA,NA,NA,NA,NA,NA,NA,NA,NA,NA,NA,NA,NA,NA,NA,NA,NA,sub57
d3-instructions,6,45777,0.0-6.0,FALSE,FALSE,FALSE,TRUE,"""event"",""trial"",""time""
""blur"",""0"",""0""
""focus"",""0"",""0""
""blur"",""3"",""17954""
""focus"",""3"",""17956""
""fullscreenenter"",""5"",""30603""
","""event"",""trial"",""time""
""blur"",""0"",""0""
""blur"",""3"",""17954""
","""event"",""trial"",""time""
""focus"",""0"",""0""
""focus"",""3"",""17956""
","""event"",""trial"",""time""
""fullscreenenter"",""5"",""30603""
","
",NA,NA,NA,NA,NA,NA,NA,NA,NA,NA,NA,NA,NA,NA,NA,NA,NA,NA,NA,NA,NA,NA,sub57
d3-instructions,7,59258,0.0-7.0,FALSE,FALSE,FALSE,TRUE,"""event"",""trial"",""time""
""blur"",""0"",""0""
""focus"",""0"",""0""
""blur"",""3"",""17954""
""focus"",""3"",""17956""
""fullscreenenter"",""5"",""30603""
","""event"",""trial"",""time""
""blur"",""0"",""0""
""blur"",""3"",""17954""
","""event"",""trial"",""time""
""focus"",""0"",""0""
""focus"",""3"",""17956""
","""event"",""trial"",""time""
""fullscreenenter"",""5"",""30603""
","
",NA,NA,NA,NA,NA,NA,NA,NA,NA,NA,NA,NA,NA,NA,NA,NA,NA,NA,NA,NA,NA,NA,sub57
d3-instructions,8,66848,0.0-8.0,FALSE,FALSE,FALSE,TRUE,"""event"",""trial"",""time""
""blur"",""0"",""0""
""focus"",""0"",""0""
""blur"",""3"",""17954""
""focus"",""3"",""17956""
""fullscreenenter"",""5"",""30603""
","""event"",""trial"",""time""
""blur"",""0"",""0""
""blur"",""3"",""17954""
","""event"",""trial"",""time""
""focus"",""0"",""0""
""focus"",""3"",""17956""
","""event"",""trial"",""time""
""fullscreenenter"",""5"",""30603""
","
",NA,NA,NA,NA,NA,NA,NA,NA,NA,NA,NA,NA,NA,NA,NA,NA,NA,NA,NA,NA,NA,NA,sub57
d3-instructions,9,78796,0.0-9.0,FALSE,FALSE,FALSE,TRUE,"""event"",""trial"",""time""
""blur"",""0"",""0""
""focus"",""0"",""0""
""blur"",""3"",""17954""
""focus"",""3"",""17956""
""fullscreenenter"",""5"",""30603""
","""event"",""trial"",""time""
""blur"",""0"",""0""
""blur"",""3"",""17954""
","""event"",""trial"",""time""
""focus"",""0"",""0""
""focus"",""3"",""17956""
","""event"",""trial"",""time""
""fullscreenenter"",""5"",""30603""
","
",NA,NA,NA,NA,NA,NA,NA,NA,NA,NA,NA,NA,NA,NA,NA,NA,NA,NA,NA,NA,NA,NA,sub57
d3-instructions,10,99928,0.0-10.0,FALSE,FALSE,FALSE,TRUE,"""event"",""trial"",""time""
""blur"",""0"",""0""
""focus"",""0"",""0""
""blur"",""3"",""17954""
""focus"",""3"",""17956""
""fullscreenenter"",""5"",""30603""
","""event"",""trial"",""time""
""blur"",""0"",""0""
""blur"",""3"",""17954""
","""event"",""trial"",""time""
""focus"",""0"",""0""
""focus"",""3"",""17956""
","""event"",""trial"",""time""
""fullscreenenter"",""5"",""30603""
","
",NA,NA,NA,NA,NA,NA,NA,NA,NA,NA,NA,NA,NA,NA,NA,NA,NA,NA,NA,NA,NA,NA,sub57
d3-animate-choice,11,103595,0.0-11.0,FALSE,FALSE,FALSE,TRUE,"""event"",""trial"",""time""
""blur"",""0"",""0""
""focus"",""0"",""0""
""blur"",""3"",""17954""
""focus"",""3"",""17956""
""fullscreenenter"",""5"",""30603""
","""event"",""trial"",""time""
""blur"",""0"",""0""
""blur"",""3"",""17954""
","""event"",""trial"",""time""
""focus"",""0"",""0""
""focus"",""3"",""17956""
","""event"",""trial"",""time""
""fullscreenenter"",""5"",""30603""
","
",1625.9850000060396,NA,49,NA,NA,3000,1,2402.314999999362,48,images/tutgreenplanet.jpg,images/tutalien1,images/tutalien2,null,images/tutalien2,NA,NA,practice,null,NA,NA,NA,NA,sub57
d3-animate-choice,12,106626,0.0-12.0,FALSE,FALSE,FALSE,TRUE,"""event"",""trial"",""time""
""blur"",""0"",""0""
""focus"",""0"",""0""
""blur"",""3"",""17954""
""focus"",""3"",""17956""
""fullscreenenter"",""5"",""30603""
","""event"",""trial"",""time""
""blur"",""0"",""0""
""blur"",""3"",""17954""
","""event"",""trial"",""time""
""focus"",""0"",""0""
""focus"",""3"",""17956""
","""event"",""trial"",""time""
""fullscreenenter"",""5"",""30603""
","
",1023.4749999945052,NA,48,NA,NA,3000,1,NA,NA,images/tutgreenplanet.jpg,images/tutalien1,images/tutalien2,null,images/tutalien1,NA,NA,practice,null,NA,NA,NA,NA,sub57
d3-animate-choice,13,111320,0.0-13.0,FALSE,FALSE,FALSE,TRUE,"""event"",""trial"",""time""
""blur"",""0"",""0""
""focus"",""0"",""0""
""blur"",""3"",""17954""
""focus"",""3"",""17956""
""fullscreenenter"",""5"",""30603""
","""event"",""trial"",""time""
""blur"",""0"",""0""
""blur"",""3"",""17954""
","""event"",""trial"",""time""
""focus"",""0"",""0""
""focus"",""3"",""17956""
","""event"",""trial"",""time""
""fullscreenenter"",""5"",""30603""
","
",2684.640000006766,NA,49,NA,NA,3000,1,NA,NA,images/tutgreenplanet.jpg,images/tutalien1,images/tutalien2,null,images/tutalien2,NA,NA,practice,null,NA,NA,NA,NA,sub57
d3-animate-choice,14,113863,0.0-14.0,FALSE,FALSE,FALSE,TRUE,"""event"",""trial"",""time""
""blur"",""0"",""0""
""focus"",""0"",""0""
""blur"",""3"",""17954""
""focus"",""3"",""17956""
""fullscreenenter"",""5"",""30603""
","""event"",""trial"",""time""
""blur"",""0"",""0""
""blur"",""3"",""17954""
","""event"",""trial"",""time""
""focus"",""0"",""0""
""focus"",""3"",""17956""
","""event"",""trial"",""time""
""fullscreenenter"",""5"",""30603""
","
",534.1950000001816,NA,49,NA,NA,3000,1,"543.0300000007264,1518.9550000068266",4848,images/tutgreenplanet.jpg,images/tutalien1,images/tutalien2,null,images/tutalien2,NA,NA,practice,null,NA,NA,NA,NA,sub57
d3-instructions,15,121346,0.0-15.0,FALSE,FALSE,FALSE,TRUE,"""event"",""trial"",""time""
""blur"",""0"",""0""
""focus"",""0"",""0""
""blur"",""3"",""17954""
""focus"",""3"",""17956""
""fullscreenenter"",""5"",""30603""
","""event"",""trial"",""time""
""blur"",""0"",""0""
""blur"",""3"",""17954""
","""event"",""trial"",""time""
""focus"",""0"",""0""
""focus"",""3"",""17956""
","""event"",""trial"",""time""
""fullscreenenter"",""5"",""30603""
","
",NA,NA,NA,NA,NA,NA,NA,NA,NA,NA,NA,NA,NA,NA,NA,NA,NA,NA,NA,NA,NA,NA,sub57
d3-instructions,16,129213,0.0-16.0,FALSE,FALSE,FALSE,TRUE,"""event"",""trial"",""time""
""blur"",""0"",""0""
""focus"",""0"",""0""
""blur"",""3"",""17954""
""focus"",""3"",""17956""
""fullscreenenter"",""5"",""30603""
","""event"",""trial"",""time""
""blur"",""0"",""0""
""blur"",""3"",""17954""
","""event"",""trial"",""time""
""focus"",""0"",""0""
""focus"",""3"",""17956""
","""event"",""trial"",""time""
""fullscreenenter"",""5"",""30603""
","
",NA,NA,NA,NA,NA,NA,NA,NA,NA,NA,NA,NA,NA,NA,NA,NA,NA,NA,NA,NA,NA,NA,sub57
d3-instructions,17,138835,0.0-17.0,FALSE,FALSE,FALSE,TRUE,"""event"",""trial"",""time""
""blur"",""0"",""0""
""focus"",""0"",""0""
""blur"",""3"",""17954""
""focus"",""3"",""17956""
""fullscreenenter"",""5"",""30603""
","""event"",""trial"",""time""
""blur"",""0"",""0""
""blur"",""3"",""17954""
","""event"",""trial"",""time""
""focus"",""0"",""0""
""focus"",""3"",""17956""
","""event"",""trial"",""time""
""fullscreenenter"",""5"",""30603""
","
",NA,NA,NA,NA,NA,NA,NA,NA,NA,NA,NA,NA,NA,NA,NA,NA,NA,NA,NA,NA,NA,NA,sub57
d3-instructions,18,153251,0.0-18.0,FALSE,FALSE,FALSE,TRUE,"""event"",""trial"",""time""
""blur"",""0"",""0""
""focus"",""0"",""0""
""blur"",""3"",""17954""
""focus"",""3"",""17956""
""fullscreenenter"",""5"",""30603""
","""event"",""trial"",""time""
""blur"",""0"",""0""
""blur"",""3"",""17954""
","""event"",""trial"",""time""
""focus"",""0"",""0""
""focus"",""3"",""17956""
","""event"",""trial"",""time""
""fullscreenenter"",""5"",""30603""
","
",NA,NA,NA,NA,NA,NA,NA,NA,NA,NA,NA,NA,NA,NA,NA,NA,NA,NA,NA,NA,NA,NA,sub57
d3-instructions,19,168606,0.0-19.0,FALSE,FALSE,FALSE,TRUE,"""event"",""trial"",""time""
""blur"",""0"",""0""
""focus"",""0"",""0""
""blur"",""3"",""17954""
""focus"",""3"",""17956""
""fullscreenenter"",""5"",""30603""
","""event"",""trial"",""time""
""blur"",""0"",""0""
""blur"",""3"",""17954""
","""event"",""trial"",""time""
""focus"",""0"",""0""
""focus"",""3"",""17956""
","""event"",""trial"",""time""
""fullscreenenter"",""5"",""30603""
","
",NA,NA,NA,NA,NA,NA,NA,NA,NA,NA,NA,NA,NA,NA,NA,NA,NA,NA,NA,NA,NA,NA,sub57
d3-animate-choice,20,172097,0.0-20.0,FALSE,FALSE,FALSE,TRUE,"""event"",""trial"",""time""
""blur"",""0"",""0""
""focus"",""0"",""0""
""blur"",""3"",""17954""
""focus"",""3"",""17956""
""fullscreenenter"",""5"",""30603""
","""event"",""trial"",""time""
""blur"",""0"",""0""
""blur"",""3"",""17954""
","""event"",""trial"",""time""
""focus"",""0"",""0""
""focus"",""3"",""17956""
","""event"",""trial"",""time""
""fullscreenenter"",""5"",""30603""
","
",1467.1899999957532,NA,49,NA,NA,3000,1,2042.264999996405,49,images/tutyellowplanet.jpg,null,images/tutalien3,null,images/tutalien3,images/t.png,NA,practice,null,NA,NA,NA,NA,sub57
d3-animate-choice,21,175169,0.0-21.0,FALSE,FALSE,FALSE,TRUE,"""event"",""trial"",""time""
""blur"",""0"",""0""
""focus"",""0"",""0""
""blur"",""3"",""17954""
""focus"",""3"",""17956""
""fullscreenenter"",""5"",""30603""
","""event"",""trial"",""time""
""blur"",""0"",""0""
""blur"",""3"",""17954""
","""event"",""trial"",""time""
""focus"",""0"",""0""
""focus"",""3"",""17956""
","""event"",""trial"",""time""
""fullscreenenter"",""5"",""30603""
","
",1065.3949999978067,NA,49,NA,NA,3000,1,NA,NA,images/tutyellowplanet.jpg,null,images/tutalien3,null,images/tutalien3,images/t.png,NA,practice,null,NA,NA,NA,NA,sub57
d3-animate-choice,22,177541,0.0-22.0,FALSE,FALSE,FALSE,TRUE,"""event"",""trial"",""time""
""blur"",""0"",""0""
""focus"",""0"",""0""
""blur"",""3"",""17954""
""focus"",""3"",""17956""
""fullscreenenter"",""5"",""30603""
","""event"",""trial"",""time""
""blur"",""0"",""0""
""blur"",""3"",""17954""
","""event"",""trial"",""time""
""focus"",""0"",""0""
""focus"",""3"",""17956""
","""event"",""trial"",""time""
""fullscreenenter"",""5"",""30603""
","
",346.0200000117766,NA,49,NA,NA,3000,1,NA,NA,images/tutyellowplanet.jpg,null,images/tutalien3,null,images/tutalien3,images/t.png,NA,practice,null,NA,NA,NA,NA,sub57
d3-animate-choice,23,179723,0.0-23.0,FALSE,FALSE,FALSE,TRUE,"""event"",""trial"",""time""
""blur"",""0"",""0""
""focus"",""0"",""0""
""blur"",""3"",""17954""
""focus"",""3"",""17956""
""fullscreenenter"",""5"",""30603""
","""event"",""trial"",""time""
""blur"",""0"",""0""
""blur"",""3"",""17954""
","""event"",""trial"",""time""
""focus"",""0"",""0""
""focus"",""3"",""17956""
","""event"",""trial"",""time""
""fullscreenenter"",""5"",""30603""
","
",165.9349999972619,NA,49,NA,NA,3000,1,1612.554999999702,49,images/tutyellowplanet.jpg,null,images/tutalien3,null,images/tutalien3,images/t.png,NA,practice,null,NA,NA,NA,NA,sub57
d3-animate-choice,24,182054,0.0-24.0,FALSE,FALSE,FALSE,TRUE,"""event"",""trial"",""time""
""blur"",""0"",""0""
""focus"",""0"",""0""
""blur"",""3"",""17954""
""focus"",""3"",""17956""
""fullscreenenter"",""5"",""30603""
","""event"",""trial"",""time""
""blur"",""0"",""0""
""blur"",""3"",""17954""
","""event"",""trial"",""time""
""focus"",""0"",""0""
""focus"",""3"",""17956""
","""event"",""trial"",""time""
""fullscreenenter"",""5"",""30603""
","
",323.8449999917066,NA,49,NA,NA,3000,1,1861.5849999914644,49,images/tutyellowplanet.jpg,null,images/tutalien3,null,images/tutalien3,images/t.png,NA,practice,null,NA,NA,NA,NA,sub57
d3-animate-choice,25,184458,0.0-25.0,FALSE,FALSE,FALSE,TRUE,"""event"",""trial"",""time""
""blur"",""0"",""0""
""focus"",""0"",""0""
""blur"",""3"",""17954""
""focus"",""3"",""17956""
""fullscreenenter"",""5"",""30603""
","""event"",""trial"",""time""
""blur"",""0"",""0""
""blur"",""3"",""17954""
","""event"",""trial"",""time""
""focus"",""0"",""0""
""focus"",""3"",""17956""
","""event"",""trial"",""time""
""fullscreenenter"",""5"",""30603""
","
",381.6149999911431,NA,49,NA,NA,3000,1,NA,NA,images/tutyellowplanet.jpg,null,images/tutalien3,null,images/tutalien3,images/t.png,NA,practice,null,NA,NA,NA,NA,sub57
d3-animate-choice,26,186847,0.0-26.0,FALSE,FALSE,FALSE,TRUE,"""event"",""trial"",""time""
""blur"",""0"",""0""
""focus"",""0"",""0""
""blur"",""3"",""17954""
""focus"",""3"",""17956""
""fullscreenenter"",""5"",""30603""
","""event"",""trial"",""time""
""blur"",""0"",""0""
""blur"",""3"",""17954""
","""event"",""trial"",""time""
""focus"",""0"",""0""
""focus"",""3"",""17956""
","""event"",""trial"",""time""
""fullscreenenter"",""5"",""30603""
","
",380.34000000334345,NA,49,NA,NA,3000,1,NA,NA,images/tutyellowplanet.jpg,null,images/tutalien3,null,images/tutalien3,images/t.png,NA,practice,null,NA,NA,NA,NA,sub57
d3-animate-choice,27,189327,0.0-27.0,FALSE,FALSE,FALSE,TRUE,"""event"",""trial"",""time""
""blur"",""0"",""0""
""focus"",""0"",""0""
""blur"",""3"",""17954""
""focus"",""3"",""17956""
""fullscreenenter"",""5"",""30603""
","""event"",""trial"",""time""
""blur"",""0"",""0""
""blur"",""3"",""17954""
","""event"",""trial"",""time""
""focus"",""0"",""0""
""focus"",""3"",""17956""
","""event"",""trial"",""time""
""fullscreenenter"",""5"",""30603""
","
",463.68500000971835,NA,49,NA,NA,3000,1,NA,NA,images/tutyellowplanet.jpg,null,images/tutalien3,null,images/tutalien3,images/t.png,NA,practice,null,NA,NA,NA,NA,sub57
d3-animate-choice,28,191681,0.0-28.0,FALSE,FALSE,FALSE,TRUE,"""event"",""trial"",""time""
""blur"",""0"",""0""
""focus"",""0"",""0""
""blur"",""3"",""17954""
""focus"",""3"",""17956""
""fullscreenenter"",""5"",""30603""
","""event"",""trial"",""time""
""blur"",""0"",""0""
""blur"",""3"",""17954""
","""event"",""trial"",""time""
""focus"",""0"",""0""
""focus"",""3"",""17956""
","""event"",""trial"",""time""
""fullscreenenter"",""5"",""30603""
","
",348.33500000240747,NA,49,NA,NA,3000,1,NA,NA,images/tutyellowplanet.jpg,null,images/tutalien3,null,images/tutalien3,images/t.png,NA,practice,null,NA,NA,NA,NA,sub57
d3-animate-choice,29,194016,0.0-29.0,FALSE,FALSE,FALSE,TRUE,"""event"",""trial"",""time""
""blur"",""0"",""0""
""focus"",""0"",""0""
""blur"",""3"",""17954""
""focus"",""3"",""17956""
""fullscreenenter"",""5"",""30603""
","""event"",""trial"",""time""
""blur"",""0"",""0""
""blur"",""3"",""17954""
","""event"",""trial"",""time""
""focus"",""0"",""0""
""focus"",""3"",""17956""
","""event"",""trial"",""time""
""fullscreenenter"",""5"",""30603""
","
",307.6849999924889,NA,49,NA,NA,3000,1,NA,NA,images/tutyellowplanet.jpg,null,images/tutalien3,null,images/tutalien3,images/nothing.png,NA,practice,null,NA,NA,NA,NA,sub57
d3-instructions,30,200785,0.0-30.0,FALSE,FALSE,FALSE,TRUE,"""event"",""trial"",""time""
""blur"",""0"",""0""
""focus"",""0"",""0""
""blur"",""3"",""17954""
""focus"",""3"",""17956""
""fullscreenenter"",""5"",""30603""
","""event"",""trial"",""time""
""blur"",""0"",""0""
""blur"",""3"",""17954""
","""event"",""trial"",""time""
""focus"",""0"",""0""
""focus"",""3"",""17956""
","""event"",""trial"",""time""
""fullscreenenter"",""5"",""30603""
","
",NA,NA,NA,NA,NA,NA,NA,NA,NA,NA,NA,NA,NA,NA,NA,NA,NA,NA,NA,NA,NA,NA,sub57
d3-instructions,31,211385,0.0-31.0,FALSE,FALSE,FALSE,TRUE,"""event"",""trial"",""time""
""blur"",""0"",""0""
""focus"",""0"",""0""
""blur"",""3"",""17954""
""focus"",""3"",""17956""
""fullscreenenter"",""5"",""30603""
","""event"",""trial"",""time""
""blur"",""0"",""0""
""blur"",""3"",""17954""
","""event"",""trial"",""time""
""focus"",""0"",""0""
""focus"",""3"",""17956""
","""event"",""trial"",""time""
""fullscreenenter"",""5"",""30603""
","
",NA,NA,NA,NA,NA,NA,NA,NA,NA,NA,NA,NA,NA,NA,NA,NA,NA,NA,NA,NA,NA,NA,sub57
d3-instructions,32,220176,0.0-32.0,FALSE,FALSE,FALSE,TRUE,"""event"",""trial"",""time""
""blur"",""0"",""0""
""focus"",""0"",""0""
""blur"",""3"",""17954""
""focus"",""3"",""17956""
""fullscreenenter"",""5"",""30603""
","""event"",""trial"",""time""
""blur"",""0"",""0""
""blur"",""3"",""17954""
","""event"",""trial"",""time""
""focus"",""0"",""0""
""focus"",""3"",""17956""
","""event"",""trial"",""time""
""fullscreenenter"",""5"",""30603""
","
",NA,NA,NA,NA,NA,NA,NA,NA,NA,NA,NA,NA,NA,NA,NA,NA,NA,NA,NA,NA,NA,NA,sub57
d3-instructions,33,231244,0.0-33.0,FALSE,FALSE,FALSE,TRUE,"""event"",""trial"",""time""
""blur"",""0"",""0""
""focus"",""0"",""0""
""blur"",""3"",""17954""
""focus"",""3"",""17956""
""fullscreenenter"",""5"",""30603""
","""event"",""trial"",""time""
""blur"",""0"",""0""
""blur"",""3"",""17954""
","""event"",""trial"",""time""
""focus"",""0"",""0""
""focus"",""3"",""17956""
","""event"",""trial"",""time""
""fullscreenenter"",""5"",""30603""
","
",NA,NA,NA,NA,NA,NA,NA,NA,NA,NA,NA,NA,NA,NA,NA,NA,NA,NA,NA,NA,NA,NA,sub57
d3-animate-choice,34,235086,0.0-34.0,FALSE,FALSE,FALSE,TRUE,"""event"",""trial"",""time""
""blur"",""0"",""0""
""focus"",""0"",""0""
""blur"",""3"",""17954""
""focus"",""3"",""17956""
""fullscreenenter"",""5"",""30603""
","""event"",""trial"",""time""
""blur"",""0"",""0""
""blur"",""3"",""17954""
","""event"",""trial"",""time""
""focus"",""0"",""0""
""focus"",""3"",""17956""
","""event"",""trial"",""time""
""fullscreenenter"",""5"",""30603""
","
",1816.6249999922002,NA,48,NA,NA,3000,1,NA,NA,images/tutgreenplanet.jpg,images/tutalien1,images/tutalien2,null,images/tutalien1,images/nothing.png,NA,practice,null,NA,NA,NA,NA,sub57
d3-animate-choice,35,238865,0.0-35.0,FALSE,FALSE,FALSE,TRUE,"""event"",""trial"",""time""
""blur"",""0"",""0""
""focus"",""0"",""0""
""blur"",""3"",""17954""
""focus"",""3"",""17956""
""fullscreenenter"",""5"",""30603""
","""event"",""trial"",""time""
""blur"",""0"",""0""
""blur"",""3"",""17954""
","""event"",""trial"",""time""
""focus"",""0"",""0""
""focus"",""3"",""17956""
","""event"",""trial"",""time""
""fullscreenenter"",""5"",""30603""
","
",1771.8749999912689,NA,49,NA,NA,3000,1,NA,NA,images/tutgreenplanet.jpg,images/tutalien1,images/tutalien2,null,images/tutalien2,images/t.png,NA,practice,null,NA,NA,NA,NA,sub57
d3-animate-choice,36,242286,0.0-36.0,FALSE,FALSE,FALSE,TRUE,"""event"",""trial"",""time""
""blur"",""0"",""0""
""focus"",""0"",""0""
""blur"",""3"",""17954""
""focus"",""3"",""17956""
""fullscreenenter"",""5"",""30603""
","""event"",""trial"",""time""
""blur"",""0"",""0""
""blur"",""3"",""17954""
","""event"",""trial"",""time""
""focus"",""0"",""0""
""focus"",""3"",""17956""
","""event"",""trial"",""time""
""fullscreenenter"",""5"",""30603""
","
",1390.7400000025518,NA,49,NA,NA,3000,1,NA,NA,images/tutgreenplanet.jpg,images/tutalien1,images/tutalien2,null,images/tutalien2,images/t.png,NA,practice,null,NA,NA,NA,NA,sub57
d3-animate-choice,37,244616,0.0-37.0,FALSE,FALSE,FALSE,TRUE,"""event"",""trial"",""time""
""blur"",""0"",""0""
""focus"",""0"",""0""
""blur"",""3"",""17954""
""focus"",""3"",""17956""
""fullscreenenter"",""5"",""30603""
","""event"",""trial"",""time""
""blur"",""0"",""0""
""blur"",""3"",""17954""
","""event"",""trial"",""time""
""focus"",""0"",""0""
""focus"",""3"",""17956""
","""event"",""trial"",""time""
""fullscreenenter"",""5"",""30603""
","
",317.2399999893969,NA,49,NA,NA,3000,1,NA,NA,images/tutgreenplanet.jpg,images/tutalien1,images/tutalien2,null,images/tutalien2,images/t.png,NA,practice,null,NA,NA,NA,NA,sub57
d3-animate-choice,38,246936,0.0-38.0,FALSE,FALSE,FALSE,TRUE,"""event"",""trial"",""time""
""blur"",""0"",""0""
""focus"",""0"",""0""
""blur"",""3"",""17954""
""focus"",""3"",""17956""
""fullscreenenter"",""5"",""30603""
","""event"",""trial"",""time""
""blur"",""0"",""0""
""blur"",""3"",""17954""
","""event"",""trial"",""time""
""focus"",""0"",""0""
""focus"",""3"",""17956""
","""event"",""trial"",""time""
""fullscreenenter"",""5"",""30603""
","
",296.5600000025006,NA,49,NA,NA,3000,1,NA,NA,images/tutgreenplanet.jpg,images/tutalien1,images/tutalien2,null,images/tutalien2,images/t.png,NA,practice,null,NA,NA,NA,NA,sub57
d3-animate-choice,39,249244,0.0-39.0,FALSE,FALSE,FALSE,TRUE,"""event"",""trial"",""time""
""blur"",""0"",""0""
""focus"",""0"",""0""
""blur"",""3"",""17954""
""focus"",""3"",""17956""
""fullscreenenter"",""5"",""30603""
","""event"",""trial"",""time""
""blur"",""0"",""0""
""blur"",""3"",""17954""
","""event"",""trial"",""time""
""focus"",""0"",""0""
""focus"",""3"",""17956""
","""event"",""trial"",""time""
""fullscreenenter"",""5"",""30603""
","
",302.335000000312,NA,49,NA,NA,3000,1,NA,NA,images/tutgreenplanet.jpg,images/tutalien1,images/tutalien2,null,images/tutalien2,images/t.png,NA,practice,null,NA,NA,NA,NA,sub57
d3-animate-choice,40,251616,0.0-40.0,FALSE,FALSE,FALSE,TRUE,"""event"",""trial"",""time""
""blur"",""0"",""0""
""focus"",""0"",""0""
""blur"",""3"",""17954""
""focus"",""3"",""17956""
""fullscreenenter"",""5"",""30603""
","""event"",""trial"",""time""
""blur"",""0"",""0""
""blur"",""3"",""17954""
","""event"",""trial"",""time""
""focus"",""0"",""0""
""focus"",""3"",""17956""
","""event"",""trial"",""time""
""fullscreenenter"",""5"",""30603""
","
",355.75999999127816,NA,49,NA,NA,3000,1,NA,NA,images/tutgreenplanet.jpg,images/tutalien1,images/tutalien2,null,images/tutalien2,images/nothing.png,NA,practice,null,NA,NA,NA,NA,sub57
d3-animate-choice,41,254023,0.0-41.0,FALSE,FALSE,FALSE,TRUE,"""event"",""trial"",""time""
""blur"",""0"",""0""
""focus"",""0"",""0""
""blur"",""3"",""17954""
""focus"",""3"",""17956""
""fullscreenenter"",""5"",""30603""
","""event"",""trial"",""time""
""blur"",""0"",""0""
""blur"",""3"",""17954""
","""event"",""trial"",""time""
""focus"",""0"",""0""
""focus"",""3"",""17956""
","""event"",""trial"",""time""
""fullscreenenter"",""5"",""30603""
","
",401.1049999971874,NA,49,NA,NA,3000,1,NA,NA,images/tutgreenplanet.jpg,images/tutalien1,images/tutalien2,null,images/tutalien2,images/nothing.png,NA,practice,null,NA,NA,NA,NA,sub57
d3-animate-choice,42,256746,0.0-42.0,FALSE,FALSE,FALSE,TRUE,"""event"",""trial"",""time""
""blur"",""0"",""0""
""focus"",""0"",""0""
""blur"",""3"",""17954""
""focus"",""3"",""17956""
""fullscreenenter"",""5"",""30603""
","""event"",""trial"",""time""
""blur"",""0"",""0""
""blur"",""3"",""17954""
","""event"",""trial"",""time""
""focus"",""0"",""0""
""focus"",""3"",""17956""
","""event"",""trial"",""time""
""fullscreenenter"",""5"",""30603""
","
",702.4000000092201,NA,49,NA,NA,3000,1,NA,NA,images/tutgreenplanet.jpg,images/tutalien1,images/tutalien2,null,images/tutalien2,images/t.png,NA,practice,null,NA,NA,NA,NA,sub57
d3-animate-choice,43,259066,0.0-43.0,FALSE,FALSE,FALSE,TRUE,"""event"",""trial"",""time""
""blur"",""0"",""0""
""focus"",""0"",""0""
""blur"",""3"",""17954""
""focus"",""3"",""17956""
""fullscreenenter"",""5"",""30603""
","""event"",""trial"",""time""
""blur"",""0"",""0""
""blur"",""3"",""17954""
","""event"",""trial"",""time""
""focus"",""0"",""0""
""focus"",""3"",""17956""
","""event"",""trial"",""time""
""fullscreenenter"",""5"",""30603""
","
",297.71999998774845,NA,49,NA,NA,3000,1,NA,NA,images/tutgreenplanet.jpg,images/tutalien1,images/tutalien2,null,images/tutalien2,images/t.png,NA,practice,null,NA,NA,NA,NA,sub57
d3-instructions,44,273963,0.0-44.0,FALSE,FALSE,FALSE,TRUE,"""event"",""trial"",""time""
""blur"",""0"",""0""
""focus"",""0"",""0""
""blur"",""3"",""17954""
""focus"",""3"",""17956""
""fullscreenenter"",""5"",""30603""
","""event"",""trial"",""time""
""blur"",""0"",""0""
""blur"",""3"",""17954""
","""event"",""trial"",""time""
""focus"",""0"",""0""
""focus"",""3"",""17956""
","""event"",""trial"",""time""
""fullscreenenter"",""5"",""30603""
","
",NA,NA,NA,NA,NA,NA,NA,NA,NA,NA,NA,NA,NA,NA,NA,NA,NA,NA,NA,NA,NA,NA,sub57
d3-instructions,45,280824,0.0-45.0,FALSE,FALSE,FALSE,TRUE,"""event"",""trial"",""time""
""blur"",""0"",""0""
""focus"",""0"",""0""
""blur"",""3"",""17954""
""focus"",""3"",""17956""
""fullscreenenter"",""5"",""30603""
","""event"",""trial"",""time""
""blur"",""0"",""0""
""blur"",""3"",""17954""
","""event"",""trial"",""time""
""focus"",""0"",""0""
""focus"",""3"",""17956""
","""event"",""trial"",""time""
""fullscreenenter"",""5"",""30603""
","
",NA,NA,NA,NA,NA,NA,NA,NA,NA,NA,NA,NA,NA,NA,NA,NA,NA,NA,NA,NA,NA,NA,sub57
d3-instructions,46,286512,0.0-46.0,FALSE,FALSE,FALSE,TRUE,"""event"",""trial"",""time""
""blur"",""0"",""0""
""focus"",""0"",""0""
""blur"",""3"",""17954""
""focus"",""3"",""17956""
""fullscreenenter"",""5"",""30603""
","""event"",""trial"",""time""
""blur"",""0"",""0""
""blur"",""3"",""17954""
","""event"",""trial"",""time""
""focus"",""0"",""0""
""focus"",""3"",""17956""
","""event"",""trial"",""time""
""fullscreenenter"",""5"",""30603""
","
",NA,NA,NA,NA,NA,NA,NA,NA,NA,NA,NA,NA,NA,NA,NA,NA,NA,NA,NA,NA,NA,NA,sub57
d3-instructions,47,304416,0.0-47.0,FALSE,FALSE,FALSE,TRUE,"""event"",""trial"",""time""
""blur"",""0"",""0""
""focus"",""0"",""0""
""blur"",""3"",""17954""
""focus"",""3"",""17956""
""fullscreenenter"",""5"",""30603""
","""event"",""trial"",""time""
""blur"",""0"",""0""
""blur"",""3"",""17954""
","""event"",""trial"",""time""
""focus"",""0"",""0""
""focus"",""3"",""17956""
","""event"",""trial"",""time""
""fullscreenenter"",""5"",""30603""
","
",NA,NA,NA,NA,NA,NA,NA,NA,NA,NA,NA,NA,NA,NA,NA,NA,NA,NA,NA,NA,NA,NA,sub57
d3-instructions,48,313449,0.0-48.0,FALSE,FALSE,FALSE,TRUE,"""event"",""trial"",""time""
""blur"",""0"",""0""
""focus"",""0"",""0""
""blur"",""3"",""17954""
""focus"",""3"",""17956""
""fullscreenenter"",""5"",""30603""
","""event"",""trial"",""time""
""blur"",""0"",""0""
""blur"",""3"",""17954""
","""event"",""trial"",""time""
""focus"",""0"",""0""
""focus"",""3"",""17956""
","""event"",""trial"",""time""
""fullscreenenter"",""5"",""30603""
","
",NA,NA,NA,NA,NA,NA,NA,NA,NA,NA,NA,NA,NA,NA,NA,NA,NA,NA,NA,NA,NA,NA,sub57
d3-instructions,49,325478,0.0-49.0,FALSE,FALSE,FALSE,TRUE,"""event"",""trial"",""time""
""blur"",""0"",""0""
""focus"",""0"",""0""
""blur"",""3"",""17954""
""focus"",""3"",""17956""
""fullscreenenter"",""5"",""30603""
","""event"",""trial"",""time""
""blur"",""0"",""0""
""blur"",""3"",""17954""
","""event"",""trial"",""time""
""focus"",""0"",""0""
""focus"",""3"",""17956""
","""event"",""trial"",""time""
""fullscreenenter"",""5"",""30603""
","
",NA,NA,NA,NA,NA,NA,NA,NA,NA,NA,NA,NA,NA,NA,NA,NA,NA,NA,NA,NA,NA,NA,sub57
d3-instructions,50,336681,0.0-50.0,FALSE,FALSE,FALSE,TRUE,"""event"",""trial"",""time""
""blur"",""0"",""0""
""focus"",""0"",""0""
""blur"",""3"",""17954""
""focus"",""3"",""17956""
""fullscreenenter"",""5"",""30603""
","""event"",""trial"",""time""
""blur"",""0"",""0""
""blur"",""3"",""17954""
","""event"",""trial"",""time""
""focus"",""0"",""0""
""focus"",""3"",""17956""
","""event"",""trial"",""time""
""fullscreenenter"",""5"",""30603""
","
",NA,NA,NA,NA,NA,NA,NA,NA,NA,NA,NA,NA,NA,NA,NA,NA,NA,NA,NA,NA,NA,NA,sub57
d3-instructions,51,339999,0.0-51.0,FALSE,FALSE,FALSE,TRUE,"""event"",""trial"",""time""
""blur"",""0"",""0""
""focus"",""0"",""0""
""blur"",""3"",""17954""
""focus"",""3"",""17956""
""fullscreenenter"",""5"",""30603""
","""event"",""trial"",""time""
""blur"",""0"",""0""
""blur"",""3"",""17954""
","""event"",""trial"",""time""
""focus"",""0"",""0""
""focus"",""3"",""17956""
","""event"",""trial"",""time""
""fullscreenenter"",""5"",""30603""
","
",NA,NA,NA,NA,NA,NA,NA,NA,NA,NA,NA,NA,NA,NA,NA,NA,NA,NA,NA,NA,NA,NA,sub57
d3-instructions,52,342826,0.0-52.0,FALSE,FALSE,FALSE,TRUE,"""event"",""trial"",""time""
""blur"",""0"",""0""
""focus"",""0"",""0""
""blur"",""3"",""17954""
""focus"",""3"",""17956""
""fullscreenenter"",""5"",""30603""
","""event"",""trial"",""time""
""blur"",""0"",""0""
""blur"",""3"",""17954""
","""event"",""trial"",""time""
""focus"",""0"",""0""
""focus"",""3"",""17956""
","""event"",""trial"",""time""
""fullscreenenter"",""5"",""30603""
","
",NA,NA,NA,NA,NA,NA,NA,NA,NA,NA,NA,NA,NA,NA,NA,NA,NA,NA,NA,NA,NA,NA,sub57
d3-instructions,53,358090,0.0-53.0,FALSE,FALSE,FALSE,TRUE,"""event"",""trial"",""time""
""blur"",""0"",""0""
""focus"",""0"",""0""
""blur"",""3"",""17954""
""focus"",""3"",""17956""
""fullscreenenter"",""5"",""30603""
","""event"",""trial"",""time""
""blur"",""0"",""0""
""blur"",""3"",""17954""
","""event"",""trial"",""time""
""focus"",""0"",""0""
""focus"",""3"",""17956""
","""event"",""trial"",""time""
""fullscreenenter"",""5"",""30603""
","
",NA,NA,NA,NA,NA,NA,NA,NA,NA,NA,NA,NA,NA,NA,NA,NA,NA,NA,NA,NA,NA,NA,sub57
d3-instructions,54,370542,0.0-54.0,FALSE,FALSE,FALSE,TRUE,"""event"",""trial"",""time""
""blur"",""0"",""0""
""focus"",""0"",""0""
""blur"",""3"",""17954""
""focus"",""3"",""17956""
""fullscreenenter"",""5"",""30603""
","""event"",""trial"",""time""
""blur"",""0"",""0""
""blur"",""3"",""17954""
","""event"",""trial"",""time""
""focus"",""0"",""0""
""focus"",""3"",""17956""
","""event"",""trial"",""time""
""fullscreenenter"",""5"",""30603""
","
",NA,NA,NA,NA,NA,NA,NA,NA,NA,NA,NA,NA,NA,NA,NA,NA,NA,NA,NA,NA,NA,NA,sub57
d3-instructions,55,381517,0.0-55.0,FALSE,FALSE,FALSE,TRUE,"""event"",""trial"",""time""
""blur"",""0"",""0""
""focus"",""0"",""0""
""blur"",""3"",""17954""
""focus"",""3"",""17956""
""fullscreenenter"",""5"",""30603""
","""event"",""trial"",""time""
""blur"",""0"",""0""
""blur"",""3"",""17954""
","""event"",""trial"",""time""
""focus"",""0"",""0""
""focus"",""3"",""17956""
","""event"",""trial"",""time""
""fullscreenenter"",""5"",""30603""
","
",NA,NA,NA,NA,NA,NA,NA,NA,NA,NA,NA,NA,NA,NA,NA,NA,NA,NA,NA,NA,NA,NA,sub57
d3-instructions,56,390275,0.0-56.0,FALSE,FALSE,FALSE,TRUE,"""event"",""trial"",""time""
""blur"",""0"",""0""
""focus"",""0"",""0""
""blur"",""3"",""17954""
""focus"",""3"",""17956""
""fullscreenenter"",""5"",""30603""
","""event"",""trial"",""time""
""blur"",""0"",""0""
""blur"",""3"",""17954""
","""event"",""trial"",""time""
""focus"",""0"",""0""
""focus"",""3"",""17956""
","""event"",""trial"",""time""
""fullscreenenter"",""5"",""30603""
","
",NA,NA,NA,NA,NA,NA,NA,NA,NA,NA,NA,NA,NA,NA,NA,NA,NA,NA,NA,NA,NA,NA,sub57
d3-instructions,57,400594,0.0-57.0,FALSE,FALSE,FALSE,TRUE,"""event"",""trial"",""time""
""blur"",""0"",""0""
""focus"",""0"",""0""
""blur"",""3"",""17954""
""focus"",""3"",""17956""
""fullscreenenter"",""5"",""30603""
","""event"",""trial"",""time""
""blur"",""0"",""0""
""blur"",""3"",""17954""
","""event"",""trial"",""time""
""focus"",""0"",""0""
""focus"",""3"",""17956""
","""event"",""trial"",""time""
""fullscreenenter"",""5"",""30603""
","
",NA,NA,NA,NA,NA,NA,NA,NA,NA,NA,NA,NA,NA,NA,NA,NA,NA,NA,NA,NA,NA,NA,sub57
d3-instructions,58,413717,0.0-58.0,FALSE,FALSE,FALSE,TRUE,"""event"",""trial"",""time""
""blur"",""0"",""0""
""focus"",""0"",""0""
""blur"",""3"",""17954""
""focus"",""3"",""17956""
""fullscreenenter"",""5"",""30603""
","""event"",""trial"",""time""
""blur"",""0"",""0""
""blur"",""3"",""17954""
","""event"",""trial"",""time""
""focus"",""0"",""0""
""focus"",""3"",""17956""
","""event"",""trial"",""time""
""fullscreenenter"",""5"",""30603""
","
",NA,NA,NA,NA,NA,NA,NA,NA,NA,NA,NA,NA,NA,NA,NA,NA,NA,NA,NA,NA,NA,NA,sub57
d3-instructions,59,419021,0.0-59.0,FALSE,FALSE,FALSE,TRUE,"""event"",""trial"",""time""
""blur"",""0"",""0""
""focus"",""0"",""0""
""blur"",""3"",""17954""
""focus"",""3"",""17956""
""fullscreenenter"",""5"",""30603""
","""event"",""trial"",""time""
""blur"",""0"",""0""
""blur"",""3"",""17954""
","""event"",""trial"",""time""
""focus"",""0"",""0""
""focus"",""3"",""17956""
","""event"",""trial"",""time""
""fullscreenenter"",""5"",""30603""
","
",NA,NA,NA,NA,NA,NA,NA,NA,NA,NA,NA,NA,NA,NA,NA,NA,NA,NA,NA,NA,NA,NA,sub57
d3-instructions,60,426201,0.0-60.0,FALSE,FALSE,FALSE,TRUE,"""event"",""trial"",""time""
""blur"",""0"",""0""
""focus"",""0"",""0""
""blur"",""3"",""17954""
""focus"",""3"",""17956""
""fullscreenenter"",""5"",""30603""
","""event"",""trial"",""time""
""blur"",""0"",""0""
""blur"",""3"",""17954""
","""event"",""trial"",""time""
""focus"",""0"",""0""
""focus"",""3"",""17956""
","""event"",""trial"",""time""
""fullscreenenter"",""5"",""30603""
","
",NA,NA,NA,NA,NA,NA,NA,NA,NA,NA,NA,NA,NA,NA,NA,NA,NA,NA,NA,NA,NA,NA,sub57
d3-animate-choice,61,429249,0.0-61.0-0.0,FALSE,FALSE,FALSE,TRUE,"""event"",""trial"",""time""
""blur"",""0"",""0""
""focus"",""0"",""0""
""blur"",""3"",""17954""
""focus"",""3"",""17956""
""fullscreenenter"",""5"",""30603""
","""event"",""trial"",""time""
""blur"",""0"",""0""
""blur"",""3"",""17954""
","""event"",""trial"",""time""
""focus"",""0"",""0""
""focus"",""3"",""17956""
","""event"",""trial"",""time""
""fullscreenenter"",""5"",""30603""
","
",1033.6149999930058,NA,49,NA,NA,3000,1,NA,NA,images/earth.jpg,images/tutrocket2,images/tutrocket1,null,images/tutrocket1,NA,1,practice,null,1,NA,NA,NA,sub57
d3-animate-choice,62,432796,0.0-61.0-1.0,FALSE,FALSE,FALSE,TRUE,"""event"",""trial"",""time""
""blur"",""0"",""0""
""focus"",""0"",""0""
""blur"",""3"",""17954""
""focus"",""3"",""17956""
""fullscreenenter"",""5"",""30603""
","""event"",""trial"",""time""
""blur"",""0"",""0""
""blur"",""3"",""17954""
","""event"",""trial"",""time""
""focus"",""0"",""0""
""focus"",""3"",""17956""
","""event"",""trial"",""time""
""fullscreenenter"",""5"",""30603""
","
",1523.1799999892246,NA,48,NA,NA,3000,1,NA,NA,images/tutyellowplanet.jpg,images/tutalien4,images/tutalien3,images/tutrocket1,images/tutalien4,images/nothing.png,2,practice,true,2,common,0,2020-06-15T19:42:06Z,sub57
two-step-fixation,63,433806,0.0-61.0-2.0,FALSE,FALSE,FALSE,TRUE,"""event"",""trial"",""time""
""blur"",""0"",""0""
""focus"",""0"",""0""
""blur"",""3"",""17954""
""focus"",""3"",""17956""
""fullscreenenter"",""5"",""30603""
","""event"",""trial"",""time""
""blur"",""0"",""0""
""blur"",""3"",""17954""
","""event"",""trial"",""time""
""focus"",""0"",""0""
""focus"",""3"",""17956""
","""event"",""trial"",""time""
""fullscreenenter"",""5"",""30603""
","
",NA,images/earth.jpg,NA,NA,NA,NA,NA,NA,NA,NA,NA,NA,NA,NA,NA,fixation,NA,NA,NA,NA,NA,NA,sub57
d3-animate-choice,64,437018,0.0-61.0-0.1,FALSE,FALSE,FALSE,TRUE,"""event"",""trial"",""time""
""blur"",""0"",""0""
""focus"",""0"",""0""
""blur"",""3"",""17954""
""focus"",""3"",""17956""
""fullscreenenter"",""5"",""30603""
","""event"",""trial"",""time""
""blur"",""0"",""0""
""blur"",""3"",""17954""
","""event"",""trial"",""time""
""focus"",""0"",""0""
""focus"",""3"",""17956""
","""event"",""trial"",""time""
""fullscreenenter"",""5"",""30603""
","
",1203.4199999907287,NA,49,NA,NA,3000,1,NA,NA,images/earth.jpg,images/tutrocket2,images/tutrocket1,null,images/tutrocket1,NA,1,practice,null,1,NA,NA,NA,sub57
d3-animate-choice,65,439455,0.0-61.0-1.1,FALSE,FALSE,FALSE,TRUE,"""event"",""trial"",""time""
""blur"",""0"",""0""
""focus"",""0"",""0""
""blur"",""3"",""17954""
""focus"",""3"",""17956""
""fullscreenenter"",""5"",""30603""
","""event"",""trial"",""time""
""blur"",""0"",""0""
""blur"",""3"",""17954""
","""event"",""trial"",""time""
""focus"",""0"",""0""
""focus"",""3"",""17956""
","""event"",""trial"",""time""
""fullscreenenter"",""5"",""30603""
","
",416.045000005397,NA,49,NA,NA,3000,1,NA,NA,images/tutyellowplanet.jpg,images/tutalien4,images/tutalien3,images/tutrocket1,images/tutalien3,images/nothing.png,2,practice,true,1,common,0,2020-06-15T19:42:12Z,sub57
two-step-fixation,66,440480,0.0-61.0-2.1,FALSE,FALSE,FALSE,TRUE,"""event"",""trial"",""time""
""blur"",""0"",""0""
""focus"",""0"",""0""
""blur"",""3"",""17954""
""focus"",""3"",""17956""
""fullscreenenter"",""5"",""30603""
","""event"",""trial"",""time""
""blur"",""0"",""0""
""blur"",""3"",""17954""
","""event"",""trial"",""time""
""focus"",""0"",""0""
""focus"",""3"",""17956""
","""event"",""trial"",""time""
""fullscreenenter"",""5"",""30603""
","
",NA,images/earth.jpg,NA,NA,NA,NA,NA,NA,NA,NA,NA,NA,NA,NA,NA,fixation,NA,NA,NA,NA,NA,NA,sub57
d3-animate-choice,67,443135,0.0-61.0-0.2,FALSE,FALSE,FALSE,TRUE,"""event"",""trial"",""time""
""blur"",""0"",""0""
""focus"",""0"",""0""
""blur"",""3"",""17954""
""focus"",""3"",""17956""
""fullscreenenter"",""5"",""30603""
","""event"",""trial"",""time""
""blur"",""0"",""0""
""blur"",""3"",""17954""
","""event"",""trial"",""time""
""focus"",""0"",""0""
""focus"",""3"",""17956""
","""event"",""trial"",""time""
""fullscreenenter"",""5"",""30603""
","
",644.7299999999814,NA,48,NA,NA,3000,1,NA,NA,images/earth.jpg,images/tutrocket2,images/tutrocket1,null,images/tutrocket2,NA,1,practice,null,2,NA,NA,NA,sub57
d3-animate-choice,68,445975,0.0-61.0-1.2,FALSE,FALSE,FALSE,TRUE,"""event"",""trial"",""time""
""blur"",""0"",""0""
""focus"",""0"",""0""
""blur"",""3"",""17954""
""focus"",""3"",""17956""
""fullscreenenter"",""5"",""30603""
","""event"",""trial"",""time""
""blur"",""0"",""0""
""blur"",""3"",""17954""
","""event"",""trial"",""time""
""focus"",""0"",""0""
""focus"",""3"",""17956""
","""event"",""trial"",""time""
""fullscreenenter"",""5"",""30603""
","
",827.2850000066683,NA,48,NA,NA,3000,1,NA,NA,images/tutyellowplanet.jpg,images/tutalien4,images/tutalien3,images/tutrocket2,images/tutalien4,images/t.png,2,practice,false,2,rare,1,2020-06-15T19:42:19Z,sub57
two-step-fixation,69,446981,0.0-61.0-2.2,FALSE,FALSE,FALSE,TRUE,"""event"",""trial"",""time""
""blur"",""0"",""0""
""focus"",""0"",""0""
""blur"",""3"",""17954""
""focus"",""3"",""17956""
""fullscreenenter"",""5"",""30603""
","""event"",""trial"",""time""
""blur"",""0"",""0""
""blur"",""3"",""17954""
","""event"",""trial"",""time""
""focus"",""0"",""0""
""focus"",""3"",""17956""
","""event"",""trial"",""time""
""fullscreenenter"",""5"",""30603""
","
",NA,images/earth.jpg,NA,NA,NA,NA,NA,NA,NA,NA,NA,NA,NA,NA,NA,fixation,NA,NA,NA,NA,NA,NA,sub57
d3-animate-choice,70,449285,0.0-61.0-0.3,FALSE,FALSE,FALSE,TRUE,"""event"",""trial"",""time""
""blur"",""0"",""0""
""focus"",""0"",""0""
""blur"",""3"",""17954""
""focus"",""3"",""17956""
""fullscreenenter"",""5"",""30603""
","""event"",""trial"",""time""
""blur"",""0"",""0""
""blur"",""3"",""17954""
","""event"",""trial"",""time""
""focus"",""0"",""0""
""focus"",""3"",""17956""
","""event"",""trial"",""time""
""fullscreenenter"",""5"",""30603""
","
",279.05499999178573,NA,48,NA,NA,3000,1,NA,NA,images/earth.jpg,images/tutrocket2,images/tutrocket1,null,images/tutrocket2,NA,1,practice,null,2,NA,NA,NA,sub57
d3-animate-choice,71,451625,0.0-61.0-1.3,FALSE,FALSE,FALSE,TRUE,"""event"",""trial"",""time""
""blur"",""0"",""0""
""focus"",""0"",""0""
""blur"",""3"",""17954""
""focus"",""3"",""17956""
""fullscreenenter"",""5"",""30603""
","""event"",""trial"",""time""
""blur"",""0"",""0""
""blur"",""3"",""17954""
","""event"",""trial"",""time""
""focus"",""0"",""0""
""focus"",""3"",""17956""
","""event"",""trial"",""time""
""fullscreenenter"",""5"",""30603""
","
",326.87499999883585,NA,48,NA,NA,3000,1,NA,NA,images/tutyellowplanet.jpg,images/tutalien4,images/tutalien3,images/tutrocket2,images/tutalien4,images/t.png,2,practice,false,2,rare,1,2020-06-15T19:42:24Z,sub57
two-step-fixation,72,452644,0.0-61.0-2.3,FALSE,FALSE,FALSE,TRUE,"""event"",""trial"",""time""
""blur"",""0"",""0""
""focus"",""0"",""0""
""blur"",""3"",""17954""
""focus"",""3"",""17956""
""fullscreenenter"",""5"",""30603""
","""event"",""trial"",""time""
""blur"",""0"",""0""
""blur"",""3"",""17954""
","""event"",""trial"",""time""
""focus"",""0"",""0""
""focus"",""3"",""17956""
","""event"",""trial"",""time""
""fullscreenenter"",""5"",""30603""
","
",NA,images/earth.jpg,NA,NA,NA,NA,NA,NA,NA,NA,NA,NA,NA,NA,NA,fixation,NA,NA,NA,NA,NA,NA,sub57
d3-animate-choice,73,454968,0.0-61.0-0.4,FALSE,FALSE,FALSE,TRUE,"""event"",""trial"",""time""
""blur"",""0"",""0""
""focus"",""0"",""0""
""blur"",""3"",""17954""
""focus"",""3"",""17956""
""fullscreenenter"",""5"",""30603""
","""event"",""trial"",""time""
""blur"",""0"",""0""
""blur"",""3"",""17954""
","""event"",""trial"",""time""
""focus"",""0"",""0""
""focus"",""3"",""17956""
","""event"",""trial"",""time""
""fullscreenenter"",""5"",""30603""
","
",315.4450000001816,NA,48,NA,NA,3000,1,NA,NA,images/earth.jpg,images/tutrocket2,images/tutrocket1,null,images/tutrocket2,NA,1,practice,null,2,NA,NA,NA,sub57
d3-animate-choice,74,457271,0.0-61.0-1.4,FALSE,FALSE,FALSE,TRUE,"""event"",""trial"",""time""
""blur"",""0"",""0""
""focus"",""0"",""0""
""blur"",""3"",""17954""
""focus"",""3"",""17956""
""fullscreenenter"",""5"",""30603""
","""event"",""trial"",""time""
""blur"",""0"",""0""
""blur"",""3"",""17954""
","""event"",""trial"",""time""
""focus"",""0"",""0""
""focus"",""3"",""17956""
","""event"",""trial"",""time""
""fullscreenenter"",""5"",""30603""
","
",294.3150000064634,NA,48,NA,NA,3000,1,NA,NA,images/tutgreenplanet.jpg,images/tutalien2,images/tutalien1,images/tutrocket2,images/tutalien2,images/nothing.png,2,practice,true,2,common,0,2020-06-15T19:42:30Z,sub57
two-step-fixation,75,458277,0.0-61.0-2.4,FALSE,FALSE,FALSE,TRUE,"""event"",""trial"",""time""
""blur"",""0"",""0""
""focus"",""0"",""0""
""blur"",""3"",""17954""
""focus"",""3"",""17956""
""fullscreenenter"",""5"",""30603""
","""event"",""trial"",""time""
""blur"",""0"",""0""
""blur"",""3"",""17954""
","""event"",""trial"",""time""
""focus"",""0"",""0""
""focus"",""3"",""17956""
","""event"",""trial"",""time""
""fullscreenenter"",""5"",""30603""
","
",NA,images/earth.jpg,NA,NA,NA,NA,NA,NA,NA,NA,NA,NA,NA,NA,NA,fixation,NA,NA,NA,NA,NA,NA,sub57
d3-animate-choice,76,462129,0.0-61.0-0.5,FALSE,FALSE,FALSE,TRUE,"""event"",""trial"",""time""
""blur"",""0"",""0""
""focus"",""0"",""0""
""blur"",""3"",""17954""
""focus"",""3"",""17956""
""fullscreenenter"",""5"",""30603""
","""event"",""trial"",""time""
""blur"",""0"",""0""
""blur"",""3"",""17954""
","""event"",""trial"",""time""
""focus"",""0"",""0""
""focus"",""3"",""17956""
","""event"",""trial"",""time""
""fullscreenenter"",""5"",""30603""
","
",1844.1949999978533,NA,49,NA,NA,3000,1,NA,NA,images/earth.jpg,images/tutrocket2,images/tutrocket1,null,images/tutrocket1,NA,1,practice,null,1,NA,NA,NA,sub57
d3-animate-choice,77,464971,0.0-61.0-1.5,FALSE,FALSE,FALSE,TRUE,"""event"",""trial"",""time""
""blur"",""0"",""0""
""focus"",""0"",""0""
""blur"",""3"",""17954""
""focus"",""3"",""17956""
""fullscreenenter"",""5"",""30603""
","""event"",""trial"",""time""
""blur"",""0"",""0""
""blur"",""3"",""17954""
","""event"",""trial"",""time""
""focus"",""0"",""0""
""focus"",""3"",""17956""
","""event"",""trial"",""time""
""fullscreenenter"",""5"",""30603""
","
",833.8450000010198,NA,48,NA,NA,3000,1,NA,NA,images/tutyellowplanet.jpg,images/tutalien4,images/tutalien3,images/tutrocket1,images/tutalien4,images/nothing.png,2,practice,true,2,common,0,2020-06-15T19:42:38Z,sub57
two-step-fixation,78,465977,0.0-61.0-2.5,FALSE,FALSE,FALSE,TRUE,"""event"",""trial"",""time""
""blur"",""0"",""0""
""focus"",""0"",""0""
""blur"",""3"",""17954""
""focus"",""3"",""17956""
""fullscreenenter"",""5"",""30603""
","""event"",""trial"",""time""
""blur"",""0"",""0""
""blur"",""3"",""17954""
","""event"",""trial"",""time""
""focus"",""0"",""0""
""focus"",""3"",""17956""
","""event"",""trial"",""time""
""fullscreenenter"",""5"",""30603""
","
",NA,images/earth.jpg,NA,NA,NA,NA,NA,NA,NA,NA,NA,NA,NA,NA,NA,fixation,NA,NA,NA,NA,NA,NA,sub57
d3-animate-choice,79,468476,0.0-61.0-0.6,FALSE,FALSE,FALSE,TRUE,"""event"",""trial"",""time""
""blur"",""0"",""0""
""focus"",""0"",""0""
""blur"",""3"",""17954""
""focus"",""3"",""17956""
""fullscreenenter"",""5"",""30603""
","""event"",""trial"",""time""
""blur"",""0"",""0""
""blur"",""3"",""17954""
","""event"",""trial"",""time""
""focus"",""0"",""0""
""focus"",""3"",""17956""
","""event"",""trial"",""time""
""fullscreenenter"",""5"",""30603""
","
",491.6850000008708,NA,49,NA,NA,3000,1,NA,NA,images/earth.jpg,images/tutrocket2,images/tutrocket1,null,images/tutrocket1,NA,1,practice,null,1,NA,NA,NA,sub57
d3-animate-choice,80,471098,0.0-61.0-1.6,FALSE,FALSE,FALSE,TRUE,"""event"",""trial"",""time""
""blur"",""0"",""0""
""focus"",""0"",""0""
""blur"",""3"",""17954""
""focus"",""3"",""17956""
""fullscreenenter"",""5"",""30603""
","""event"",""trial"",""time""
""blur"",""0"",""0""
""blur"",""3"",""17954""
","""event"",""trial"",""time""
""focus"",""0"",""0""
""focus"",""3"",""17956""
","""event"",""trial"",""time""
""fullscreenenter"",""5"",""30603""
","
",613.7000000016997,NA,49,NA,NA,3000,1,NA,NA,images/tutyellowplanet.jpg,images/tutalien4,images/tutalien3,images/tutrocket1,images/tutalien3,images/nothing.png,2,practice,true,1,common,0,2020-06-15T19:42:44Z,sub57
two-step-fixation,81,472105,0.0-61.0-2.6,FALSE,FALSE,FALSE,TRUE,"""event"",""trial"",""time""
""blur"",""0"",""0""
""focus"",""0"",""0""
""blur"",""3"",""17954""
""focus"",""3"",""17956""
""fullscreenenter"",""5"",""30603""
","""event"",""trial"",""time""
""blur"",""0"",""0""
""blur"",""3"",""17954""
","""event"",""trial"",""time""
""focus"",""0"",""0""
""focus"",""3"",""17956""
","""event"",""trial"",""time""
""fullscreenenter"",""5"",""30603""
","
",NA,images/earth.jpg,NA,NA,NA,NA,NA,NA,NA,NA,NA,NA,NA,NA,NA,fixation,NA,NA,NA,NA,NA,NA,sub57
d3-animate-choice,82,474512,0.0-61.0-0.7,FALSE,FALSE,FALSE,TRUE,"""event"",""trial"",""time""
""blur"",""0"",""0""
""focus"",""0"",""0""
""blur"",""3"",""17954""
""focus"",""3"",""17956""
""fullscreenenter"",""5"",""30603""
","""event"",""trial"",""time""
""blur"",""0"",""0""
""blur"",""3"",""17954""
","""event"",""trial"",""time""
""focus"",""0"",""0""
""focus"",""3"",""17956""
","""event"",""trial"",""time""
""fullscreenenter"",""5"",""30603""
","
",400.099999998929,NA,48,NA,NA,3000,1,NA,NA,images/earth.jpg,images/tutrocket2,images/tutrocket1,null,images/tutrocket2,NA,1,practice,null,2,NA,NA,NA,sub57
d3-animate-choice,83,477265,0.0-61.0-1.7,FALSE,FALSE,FALSE,TRUE,"""event"",""trial"",""time""
""blur"",""0"",""0""
""focus"",""0"",""0""
""blur"",""3"",""17954""
""focus"",""3"",""17956""
""fullscreenenter"",""5"",""30603""
","""event"",""trial"",""time""
""blur"",""0"",""0""
""blur"",""3"",""17954""
","""event"",""trial"",""time""
""focus"",""0"",""0""
""focus"",""3"",""17956""
","""event"",""trial"",""time""
""fullscreenenter"",""5"",""30603""
","
",743.0250000033993,NA,48,NA,NA,3000,1,NA,NA,images/tutyellowplanet.jpg,images/tutalien4,images/tutalien3,images/tutrocket2,images/tutalien4,images/t.png,2,practice,false,2,rare,1,2020-06-15T19:42:50Z,sub57
two-step-fixation,84,478272,0.0-61.0-2.7,FALSE,FALSE,FALSE,TRUE,"""event"",""trial"",""time""
""blur"",""0"",""0""
""focus"",""0"",""0""
""blur"",""3"",""17954""
""focus"",""3"",""17956""
""fullscreenenter"",""5"",""30603""
","""event"",""trial"",""time""
""blur"",""0"",""0""
""blur"",""3"",""17954""
","""event"",""trial"",""time""
""focus"",""0"",""0""
""focus"",""3"",""17956""
","""event"",""trial"",""time""
""fullscreenenter"",""5"",""30603""
","
",NA,images/earth.jpg,NA,NA,NA,NA,NA,NA,NA,NA,NA,NA,NA,NA,NA,fixation,NA,NA,NA,NA,NA,NA,sub57
d3-animate-choice,85,480860,0.0-61.0-0.8,FALSE,FALSE,FALSE,TRUE,"""event"",""trial"",""time""
""blur"",""0"",""0""
""focus"",""0"",""0""
""blur"",""3"",""17954""
""focus"",""3"",""17956""
""fullscreenenter"",""5"",""30603""
","""event"",""trial"",""time""
""blur"",""0"",""0""
""blur"",""3"",""17954""
","""event"",""trial"",""time""
""focus"",""0"",""0""
""focus"",""3"",""17956""
","""event"",""trial"",""time""
""fullscreenenter"",""5"",""30603""
","
",578.9850000001024,NA,48,NA,NA,3000,1,NA,NA,images/earth.jpg,images/tutrocket2,images/tutrocket1,null,images/tutrocket2,NA,1,practice,null,2,NA,NA,NA,sub57
d3-animate-choice,86,483969,0.0-61.0-1.8,FALSE,FALSE,FALSE,TRUE,"""event"",""trial"",""time""
""blur"",""0"",""0""
""focus"",""0"",""0""
""blur"",""3"",""17954""
""focus"",""3"",""17956""
""fullscreenenter"",""5"",""30603""
","""event"",""trial"",""time""
""blur"",""0"",""0""
""blur"",""3"",""17954""
","""event"",""trial"",""time""
""focus"",""0"",""0""
""focus"",""3"",""17956""
","""event"",""trial"",""time""
""fullscreenenter"",""5"",""30603""
","
",1099.740000005113,NA,49,NA,NA,3000,1,NA,NA,images/tutgreenplanet.jpg,images/tutalien2,images/tutalien1,images/tutrocket2,images/tutalien1,images/nothing.png,2,practice,true,1,common,0,2020-06-15T19:42:57Z,sub57
two-step-fixation,87,484978,0.0-61.0-2.8,FALSE,FALSE,FALSE,TRUE,"""event"",""trial"",""time""
""blur"",""0"",""0""
""focus"",""0"",""0""
""blur"",""3"",""17954""
""focus"",""3"",""17956""
""fullscreenenter"",""5"",""30603""
","""event"",""trial"",""time""
""blur"",""0"",""0""
""blur"",""3"",""17954""
","""event"",""trial"",""time""
""focus"",""0"",""0""
""focus"",""3"",""17956""
","""event"",""trial"",""time""
""fullscreenenter"",""5"",""30603""
","
",NA,images/earth.jpg,NA,NA,NA,NA,NA,NA,NA,NA,NA,NA,NA,NA,NA,fixation,NA,NA,NA,NA,NA,NA,sub57
d3-animate-choice,88,487740,0.0-61.0-0.9,FALSE,FALSE,FALSE,TRUE,"""event"",""trial"",""time""
""blur"",""0"",""0""
""focus"",""0"",""0""
""blur"",""3"",""17954""
""focus"",""3"",""17956""
""fullscreenenter"",""5"",""30603""
","""event"",""trial"",""time""
""blur"",""0"",""0""
""blur"",""3"",""17954""
","""event"",""trial"",""time""
""focus"",""0"",""0""
""focus"",""3"",""17956""
","""event"",""trial"",""time""
""fullscreenenter"",""5"",""30603""
","
",754.0650000009919,NA,49,NA,NA,3000,1,NA,NA,images/earth.jpg,images/tutrocket2,images/tutrocket1,null,images/tutrocket1,NA,1,practice,null,1,NA,NA,NA,sub57
d3-animate-choice,89,491230,0.0-61.0-1.9,FALSE,FALSE,FALSE,TRUE,"""event"",""trial"",""time""
""blur"",""0"",""0""
""focus"",""0"",""0""
""blur"",""3"",""17954""
""focus"",""3"",""17956""
""fullscreenenter"",""5"",""30603""
","""event"",""trial"",""time""
""blur"",""0"",""0""
""blur"",""3"",""17954""
","""event"",""trial"",""time""
""focus"",""0"",""0""
""focus"",""3"",""17956""
","""event"",""trial"",""time""
""fullscreenenter"",""5"",""30603""
","
",1482.3900000046706,NA,48,NA,NA,3000,1,NA,NA,images/tutgreenplanet.jpg,images/tutalien2,images/tutalien1,images/tutrocket1,images/tutalien2,images/nothing.png,2,practice,false,2,rare,0,2020-06-15T19:43:04Z,sub57
two-step-fixation,90,492237,0.0-61.0-2.9,FALSE,FALSE,FALSE,TRUE,"""event"",""trial"",""time""
""blur"",""0"",""0""
""focus"",""0"",""0""
""blur"",""3"",""17954""
""focus"",""3"",""17956""
""fullscreenenter"",""5"",""30603""
","""event"",""trial"",""time""
""blur"",""0"",""0""
""blur"",""3"",""17954""
","""event"",""trial"",""time""
""focus"",""0"",""0""
""focus"",""3"",""17956""
","""event"",""trial"",""time""
""fullscreenenter"",""5"",""30603""
","
",NA,images/earth.jpg,NA,NA,NA,NA,NA,NA,NA,NA,NA,NA,NA,NA,NA,fixation,NA,NA,NA,NA,NA,NA,sub57
d3-animate-choice,91,496242,0.0-61.0-0.10,FALSE,FALSE,FALSE,TRUE,"""event"",""trial"",""time""
""blur"",""0"",""0""
""focus"",""0"",""0""
""blur"",""3"",""17954""
""focus"",""3"",""17956""
""fullscreenenter"",""5"",""30603""
","""event"",""trial"",""time""
""blur"",""0"",""0""
""blur"",""3"",""17954""
","""event"",""trial"",""time""
""focus"",""0"",""0""
""focus"",""3"",""17956""
","""event"",""trial"",""time""
""fullscreenenter"",""5"",""30603""
","
",2280.5499999958556,NA,48,NA,NA,3000,1,NA,NA,images/earth.jpg,images/tutrocket2,images/tutrocket1,null,images/tutrocket2,NA,1,practice,null,2,NA,NA,NA,sub57
d3-animate-choice,92,499736,0.0-61.0-1.10,FALSE,FALSE,FALSE,TRUE,"""event"",""trial"",""time""
""blur"",""0"",""0""
""focus"",""0"",""0""
""blur"",""3"",""17954""
""focus"",""3"",""17956""
""fullscreenenter"",""5"",""30603""
","""event"",""trial"",""time""
""blur"",""0"",""0""
""blur"",""3"",""17954""
","""event"",""trial"",""time""
""focus"",""0"",""0""
""focus"",""3"",""17956""
","""event"",""trial"",""time""
""fullscreenenter"",""5"",""30603""
","
",1486.2300000095274,NA,49,NA,NA,3000,1,NA,NA,images/tutgreenplanet.jpg,images/tutalien2,images/tutalien1,images/tutrocket2,images/tutalien1,images/t.png,2,practice,true,1,common,1,2020-06-15T19:43:12Z,sub57
two-step-fixation,93,500744,0.0-61.0-2.10,FALSE,FALSE,FALSE,TRUE,"""event"",""trial"",""time""
""blur"",""0"",""0""
""focus"",""0"",""0""
""blur"",""3"",""17954""
""focus"",""3"",""17956""
""fullscreenenter"",""5"",""30603""
","""event"",""trial"",""time""
""blur"",""0"",""0""
""blur"",""3"",""17954""
","""event"",""trial"",""time""
""focus"",""0"",""0""
""focus"",""3"",""17956""
","""event"",""trial"",""time""
""fullscreenenter"",""5"",""30603""
","
",NA,images/earth.jpg,NA,NA,NA,NA,NA,NA,NA,NA,NA,NA,NA,NA,NA,fixation,NA,NA,NA,NA,NA,NA,sub57
d3-animate-choice,94,503931,0.0-61.0-0.11,FALSE,FALSE,FALSE,TRUE,"""event"",""trial"",""time""
""blur"",""0"",""0""
""focus"",""0"",""0""
""blur"",""3"",""17954""
""focus"",""3"",""17956""
""fullscreenenter"",""5"",""30603""
","""event"",""trial"",""time""
""blur"",""0"",""0""
""blur"",""3"",""17954""
","""event"",""trial"",""time""
""focus"",""0"",""0""
""focus"",""3"",""17956""
","""event"",""trial"",""time""
""fullscreenenter"",""5"",""30603""
","
",1178.910000002361,NA,49,NA,NA,3000,1,NA,NA,images/earth.jpg,images/tutrocket2,images/tutrocket1,null,images/tutrocket1,NA,1,practice,null,1,NA,NA,NA,sub57
d3-animate-choice,95,507313,0.0-61.0-1.11,FALSE,FALSE,FALSE,TRUE,"""event"",""trial"",""time""
""blur"",""0"",""0""
""focus"",""0"",""0""
""blur"",""3"",""17954""
""focus"",""3"",""17956""
""fullscreenenter"",""5"",""30603""
","""event"",""trial"",""time""
""blur"",""0"",""0""
""blur"",""3"",""17954""
","""event"",""trial"",""time""
""focus"",""0"",""0""
""focus"",""3"",""17956""
","""event"",""trial"",""time""
""fullscreenenter"",""5"",""30603""
","
",1373.9700000005541,NA,49,NA,NA,3000,1,NA,NA,images/tutgreenplanet.jpg,images/tutalien2,images/tutalien1,images/tutrocket1,images/tutalien1,images/nothing.png,2,practice,false,1,rare,0,2020-06-15T19:43:20Z,sub57
two-step-fixation,96,508320,0.0-61.0-2.11,FALSE,FALSE,FALSE,TRUE,"""event"",""trial"",""time""
""blur"",""0"",""0""
""focus"",""0"",""0""
""blur"",""3"",""17954""
""focus"",""3"",""17956""
""fullscreenenter"",""5"",""30603""
","""event"",""trial"",""time""
""blur"",""0"",""0""
""blur"",""3"",""17954""
","""event"",""trial"",""time""
""focus"",""0"",""0""
""focus"",""3"",""17956""
","""event"",""trial"",""time""
""fullscreenenter"",""5"",""30603""
","
",NA,images/earth.jpg,NA,NA,NA,NA,NA,NA,NA,NA,NA,NA,NA,NA,NA,fixation,NA,NA,NA,NA,NA,NA,sub57
d3-animate-choice,97,512154,0.0-61.0-0.12,FALSE,FALSE,FALSE,TRUE,"""event"",""trial"",""time""
""blur"",""0"",""0""
""focus"",""0"",""0""
""blur"",""3"",""17954""
""focus"",""3"",""17956""
""fullscreenenter"",""5"",""30603""
","""event"",""trial"",""time""
""blur"",""0"",""0""
""blur"",""3"",""17954""
","""event"",""trial"",""time""
""focus"",""0"",""0""
""focus"",""3"",""17956""
","""event"",""trial"",""time""
""fullscreenenter"",""5"",""30603""
","
",1825.6650000112131,NA,48,NA,NA,3000,1,NA,NA,images/earth.jpg,images/tutrocket2,images/tutrocket1,null,images/tutrocket2,NA,1,practice,null,2,NA,NA,NA,sub57
d3-animate-choice,98,515439,0.0-61.0-1.12,FALSE,FALSE,FALSE,TRUE,"""event"",""trial"",""time""
""blur"",""0"",""0""
""focus"",""0"",""0""
""blur"",""3"",""17954""
""focus"",""3"",""17956""
""fullscreenenter"",""5"",""30603""
","""event"",""trial"",""time""
""blur"",""0"",""0""
""blur"",""3"",""17954""
","""event"",""trial"",""time""
""focus"",""0"",""0""
""focus"",""3"",""17956""
","""event"",""trial"",""time""
""fullscreenenter"",""5"",""30603""
","
",1274.795000004815,NA,48,NA,NA,3000,1,NA,NA,images/tutgreenplanet.jpg,images/tutalien2,images/tutalien1,images/tutrocket2,images/tutalien2,images/t.png,2,practice,true,2,common,1,2020-06-15T19:43:28Z,sub57
two-step-fixation,99,516446,0.0-61.0-2.12,FALSE,FALSE,FALSE,TRUE,"""event"",""trial"",""time""
""blur"",""0"",""0""
""focus"",""0"",""0""
""blur"",""3"",""17954""
""focus"",""3"",""17956""
""fullscreenenter"",""5"",""30603""
","""event"",""trial"",""time""
""blur"",""0"",""0""
""blur"",""3"",""17954""
","""event"",""trial"",""time""
""focus"",""0"",""0""
""focus"",""3"",""17956""
","""event"",""trial"",""time""
""fullscreenenter"",""5"",""30603""
","
",NA,images/earth.jpg,NA,NA,NA,NA,NA,NA,NA,NA,NA,NA,NA,NA,NA,fixation,NA,NA,NA,NA,NA,NA,sub57
d3-animate-choice,100,519529,0.0-61.0-0.13,FALSE,FALSE,FALSE,TRUE,"""event"",""trial"",""time""
""blur"",""0"",""0""
""focus"",""0"",""0""
""blur"",""3"",""17954""
""focus"",""3"",""17956""
""fullscreenenter"",""5"",""30603""
","""event"",""trial"",""time""
""blur"",""0"",""0""
""blur"",""3"",""17954""
","""event"",""trial"",""time""
""focus"",""0"",""0""
""focus"",""3"",""17956""
","""event"",""trial"",""time""
""fullscreenenter"",""5"",""30603""
","
",1074.865000002319,NA,49,NA,NA,3000,1,NA,NA,images/earth.jpg,images/tutrocket2,images/tutrocket1,null,images/tutrocket1,NA,1,practice,null,1,NA,NA,NA,sub57
d3-animate-choice,101,522259,0.0-61.0-1.13,FALSE,FALSE,FALSE,TRUE,"""event"",""trial"",""time""
""blur"",""0"",""0""
""focus"",""0"",""0""
""blur"",""3"",""17954""
""focus"",""3"",""17956""
""fullscreenenter"",""5"",""30603""
","""event"",""trial"",""time""
""blur"",""0"",""0""
""blur"",""3"",""17954""
","""event"",""trial"",""time""
""focus"",""0"",""0""
""focus"",""3"",""17956""
","""event"",""trial"",""time""
""fullscreenenter"",""5"",""30603""
","
",722.4350000033155,NA,48,NA,NA,3000,1,NA,NA,images/tutyellowplanet.jpg,images/tutalien4,images/tutalien3,images/tutrocket1,images/tutalien4,images/t.png,2,practice,true,2,common,1,2020-06-15T19:43:35Z,sub57
two-step-fixation,102,523265,0.0-61.0-2.13,FALSE,FALSE,FALSE,TRUE,"""event"",""trial"",""time""
""blur"",""0"",""0""
""focus"",""0"",""0""
""blur"",""3"",""17954""
""focus"",""3"",""17956""
""fullscreenenter"",""5"",""30603""
","""event"",""trial"",""time""
""blur"",""0"",""0""
""blur"",""3"",""17954""
","""event"",""trial"",""time""
""focus"",""0"",""0""
""focus"",""3"",""17956""
","""event"",""trial"",""time""
""fullscreenenter"",""5"",""30603""
","
",NA,images/earth.jpg,NA,NA,NA,NA,NA,NA,NA,NA,NA,NA,NA,NA,NA,fixation,NA,NA,NA,NA,NA,NA,sub57
d3-animate-choice,103,525921,0.0-61.0-0.14,FALSE,FALSE,FALSE,TRUE,"""event"",""trial"",""time""
""blur"",""0"",""0""
""focus"",""0"",""0""
""blur"",""3"",""17954""
""focus"",""3"",""17956""
""fullscreenenter"",""5"",""30603""
","""event"",""trial"",""time""
""blur"",""0"",""0""
""blur"",""3"",""17954""
","""event"",""trial"",""time""
""focus"",""0"",""0""
""focus"",""3"",""17956""
","""event"",""trial"",""time""
""fullscreenenter"",""5"",""30603""
","
",646.840000001248,NA,48,NA,NA,3000,1,NA,NA,images/earth.jpg,images/tutrocket2,images/tutrocket1,null,images/tutrocket2,NA,1,practice,null,2,NA,NA,NA,sub57
d3-animate-choice,104,528742,0.0-61.0-1.14,FALSE,FALSE,FALSE,TRUE,"""event"",""trial"",""time""
""blur"",""0"",""0""
""focus"",""0"",""0""
""blur"",""3"",""17954""
""focus"",""3"",""17956""
""fullscreenenter"",""5"",""30603""
","""event"",""trial"",""time""
""blur"",""0"",""0""
""blur"",""3"",""17954""
","""event"",""trial"",""time""
""focus"",""0"",""0""
""focus"",""3"",""17956""
","""event"",""trial"",""time""
""fullscreenenter"",""5"",""30603""
","
",813.7299999943934,NA,48,NA,NA,3000,1,NA,NA,images/tutgreenplanet.jpg,images/tutalien2,images/tutalien1,images/tutrocket2,images/tutalien2,images/nothing.png,2,practice,true,2,common,0,2020-06-15T19:43:41Z,sub57
two-step-fixation,105,529748,0.0-61.0-2.14,FALSE,FALSE,FALSE,TRUE,"""event"",""trial"",""time""
""blur"",""0"",""0""
""focus"",""0"",""0""
""blur"",""3"",""17954""
""focus"",""3"",""17956""
""fullscreenenter"",""5"",""30603""
","""event"",""trial"",""time""
""blur"",""0"",""0""
""blur"",""3"",""17954""
","""event"",""trial"",""time""
""focus"",""0"",""0""
""focus"",""3"",""17956""
","""event"",""trial"",""time""
""fullscreenenter"",""5"",""30603""
","
",NA,images/earth.jpg,NA,NA,NA,NA,NA,NA,NA,NA,NA,NA,NA,NA,NA,fixation,NA,NA,NA,NA,NA,NA,sub57
d3-animate-choice,106,532084,0.0-61.0-0.15,FALSE,FALSE,FALSE,TRUE,"""event"",""trial"",""time""
""blur"",""0"",""0""
""focus"",""0"",""0""
""blur"",""3"",""17954""
""focus"",""3"",""17956""
""fullscreenenter"",""5"",""30603""
","""event"",""trial"",""time""
""blur"",""0"",""0""
""blur"",""3"",""17954""
","""event"",""trial"",""time""
""focus"",""0"",""0""
""focus"",""3"",""17956""
","""event"",""trial"",""time""
""fullscreenenter"",""5"",""30603""
","
",327.87000000826083,NA,49,NA,NA,3000,1,NA,NA,images/earth.jpg,images/tutrocket2,images/tutrocket1,null,images/tutrocket1,NA,1,practice,null,1,NA,NA,NA,sub57
d3-animate-choice,107,534757,0.0-61.0-1.15,FALSE,FALSE,FALSE,TRUE,"""event"",""trial"",""time""
""blur"",""0"",""0""
""focus"",""0"",""0""
""blur"",""3"",""17954""
""focus"",""3"",""17956""
""fullscreenenter"",""5"",""30603""
","""event"",""trial"",""time""
""blur"",""0"",""0""
""blur"",""3"",""17954""
","""event"",""trial"",""time""
""focus"",""0"",""0""
""focus"",""3"",""17956""
","""event"",""trial"",""time""
""fullscreenenter"",""5"",""30603""
","
",661.710000000312,NA,48,NA,NA,3000,1,NA,NA,images/tutyellowplanet.jpg,images/tutalien4,images/tutalien3,images/tutrocket1,images/tutalien4,images/t.png,2,practice,true,2,common,1,2020-06-15T19:43:47Z,sub57
two-step-fixation,108,535764,0.0-61.0-2.15,FALSE,FALSE,FALSE,TRUE,"""event"",""trial"",""time""
""blur"",""0"",""0""
""focus"",""0"",""0""
""blur"",""3"",""17954""
""focus"",""3"",""17956""
""fullscreenenter"",""5"",""30603""
","""event"",""trial"",""time""
""blur"",""0"",""0""
""blur"",""3"",""17954""
","""event"",""trial"",""time""
""focus"",""0"",""0""
""focus"",""3"",""17956""
","""event"",""trial"",""time""
""fullscreenenter"",""5"",""30603""
","
",NA,images/earth.jpg,NA,NA,NA,NA,NA,NA,NA,NA,NA,NA,NA,NA,NA,fixation,NA,NA,NA,NA,NA,NA,sub57
d3-animate-choice,109,538196,0.0-61.0-0.16,FALSE,FALSE,FALSE,TRUE,"""event"",""trial"",""time""
""blur"",""0"",""0""
""focus"",""0"",""0""
""blur"",""3"",""17954""
""focus"",""3"",""17956""
""fullscreenenter"",""5"",""30603""
","""event"",""trial"",""time""
""blur"",""0"",""0""
""blur"",""3"",""17954""
","""event"",""trial"",""time""
""focus"",""0"",""0""
""focus"",""3"",""17956""
","""event"",""trial"",""time""
""fullscreenenter"",""5"",""30603""
","
",423.4850000066217,NA,49,NA,NA,3000,1,NA,NA,images/earth.jpg,images/tutrocket2,images/tutrocket1,null,images/tutrocket1,NA,1,practice,null,1,NA,NA,NA,sub57
d3-animate-choice,110,540569,0.0-61.0-1.16,FALSE,FALSE,FALSE,TRUE,"""event"",""trial"",""time""
""blur"",""0"",""0""
""focus"",""0"",""0""
""blur"",""3"",""17954""
""focus"",""3"",""17956""
""fullscreenenter"",""5"",""30603""
","""event"",""trial"",""time""
""blur"",""0"",""0""
""blur"",""3"",""17954""
","""event"",""trial"",""time""
""focus"",""0"",""0""
""focus"",""3"",""17956""
","""event"",""trial"",""time""
""fullscreenenter"",""5"",""30603""
","
",364.4649999914691,NA,48,NA,NA,3000,1,NA,NA,images/tutyellowplanet.jpg,images/tutalien4,images/tutalien3,images/tutrocket1,images/tutalien4,images/nothing.png,2,practice,true,2,common,0,2020-06-15T19:43:53Z,sub57
two-step-fixation,111,541577,0.0-61.0-2.16,FALSE,FALSE,FALSE,TRUE,"""event"",""trial"",""time""
""blur"",""0"",""0""
""focus"",""0"",""0""
""blur"",""3"",""17954""
""focus"",""3"",""17956""
""fullscreenenter"",""5"",""30603""
","""event"",""trial"",""time""
""blur"",""0"",""0""
""blur"",""3"",""17954""
","""event"",""trial"",""time""
""focus"",""0"",""0""
""focus"",""3"",""17956""
","""event"",""trial"",""time""
""fullscreenenter"",""5"",""30603""
","
",NA,images/earth.jpg,NA,NA,NA,NA,NA,NA,NA,NA,NA,NA,NA,NA,NA,fixation,NA,NA,NA,NA,NA,NA,sub57
d3-animate-choice,112,543876,0.0-61.0-0.17,FALSE,FALSE,FALSE,TRUE,"""event"",""trial"",""time""
""blur"",""0"",""0""
""focus"",""0"",""0""
""blur"",""3"",""17954""
""focus"",""3"",""17956""
""fullscreenenter"",""5"",""30603""
","""event"",""trial"",""time""
""blur"",""0"",""0""
""blur"",""3"",""17954""
","""event"",""trial"",""time""
""focus"",""0"",""0""
""focus"",""3"",""17956""
","""event"",""trial"",""time""
""fullscreenenter"",""5"",""30603""
","
",290.580000000773,NA,49,NA,NA,3000,1,NA,NA,images/earth.jpg,images/tutrocket2,images/tutrocket1,null,images/tutrocket1,NA,1,practice,null,1,NA,NA,NA,sub57
d3-animate-choice,113,546939,0.0-61.0-1.17,FALSE,FALSE,FALSE,TRUE,"""event"",""trial"",""time""
""blur"",""0"",""0""
""focus"",""0"",""0""
""blur"",""3"",""17954""
""focus"",""3"",""17956""
""fullscreenenter"",""5"",""30603""
","""event"",""trial"",""time""
""blur"",""0"",""0""
""blur"",""3"",""17954""
","""event"",""trial"",""time""
""focus"",""0"",""0""
""focus"",""3"",""17956""
","""event"",""trial"",""time""
""fullscreenenter"",""5"",""30603""
","
",1054.694999998901,NA,48,NA,NA,3000,1,NA,NA,images/tutgreenplanet.jpg,images/tutalien2,images/tutalien1,images/tutrocket1,images/tutalien2,images/t.png,2,practice,false,2,rare,1,2020-06-15T19:44:00Z,sub57
two-step-fixation,114,547946,0.0-61.0-2.17,FALSE,FALSE,FALSE,TRUE,"""event"",""trial"",""time""
""blur"",""0"",""0""
""focus"",""0"",""0""
""blur"",""3"",""17954""
""focus"",""3"",""17956""
""fullscreenenter"",""5"",""30603""
","""event"",""trial"",""time""
""blur"",""0"",""0""
""blur"",""3"",""17954""
","""event"",""trial"",""time""
""focus"",""0"",""0""
""focus"",""3"",""17956""
","""event"",""trial"",""time""
""fullscreenenter"",""5"",""30603""
","
",NA,images/earth.jpg,NA,NA,NA,NA,NA,NA,NA,NA,NA,NA,NA,NA,NA,fixation,NA,NA,NA,NA,NA,NA,sub57
d3-animate-choice,115,550345,0.0-61.0-0.18,FALSE,FALSE,FALSE,TRUE,"""event"",""trial"",""time""
""blur"",""0"",""0""
""focus"",""0"",""0""
""blur"",""3"",""17954""
""focus"",""3"",""17956""
""fullscreenenter"",""5"",""30603""
","""event"",""trial"",""time""
""blur"",""0"",""0""
""blur"",""3"",""17954""
","""event"",""trial"",""time""
""focus"",""0"",""0""
""focus"",""3"",""17956""
","""event"",""trial"",""time""
""fullscreenenter"",""5"",""30603""
","
",390.8500000106869,NA,49,NA,NA,3000,1,NA,NA,images/earth.jpg,images/tutrocket2,images/tutrocket1,null,images/tutrocket1,NA,1,practice,null,1,NA,NA,NA,sub57
d3-animate-choice,116,553269,0.0-61.0-1.18,FALSE,FALSE,FALSE,TRUE,"""event"",""trial"",""time""
""blur"",""0"",""0""
""focus"",""0"",""0""
""blur"",""3"",""17954""
""focus"",""3"",""17956""
""fullscreenenter"",""5"",""30603""
","""event"",""trial"",""time""
""blur"",""0"",""0""
""blur"",""3"",""17954""
","""event"",""trial"",""time""
""focus"",""0"",""0""
""focus"",""3"",""17956""
","""event"",""trial"",""time""
""fullscreenenter"",""5"",""30603""
","
",912.1149999991758,NA,48,NA,NA,3000,1,NA,NA,images/tutyellowplanet.jpg,images/tutalien4,images/tutalien3,images/tutrocket1,images/tutalien4,images/nothing.png,2,practice,true,2,common,0,2020-06-15T19:44:06Z,sub57
two-step-fixation,117,554279,0.0-61.0-2.18,FALSE,FALSE,FALSE,TRUE,"""event"",""trial"",""time""
""blur"",""0"",""0""
""focus"",""0"",""0""
""blur"",""3"",""17954""
""focus"",""3"",""17956""
""fullscreenenter"",""5"",""30603""
","""event"",""trial"",""time""
""blur"",""0"",""0""
""blur"",""3"",""17954""
","""event"",""trial"",""time""
""focus"",""0"",""0""
""focus"",""3"",""17956""
","""event"",""trial"",""time""
""fullscreenenter"",""5"",""30603""
","
",NA,images/earth.jpg,NA,NA,NA,NA,NA,NA,NA,NA,NA,NA,NA,NA,NA,fixation,NA,NA,NA,NA,NA,NA,sub57
d3-animate-choice,118,556761,0.0-61.0-0.19,FALSE,FALSE,FALSE,TRUE,"""event"",""trial"",""time""
""blur"",""0"",""0""
""focus"",""0"",""0""
""blur"",""3"",""17954""
""focus"",""3"",""17956""
""fullscreenenter"",""5"",""30603""
","""event"",""trial"",""time""
""blur"",""0"",""0""
""blur"",""3"",""17954""
","""event"",""trial"",""time""
""focus"",""0"",""0""
""focus"",""3"",""17956""
","""event"",""trial"",""time""
""fullscreenenter"",""5"",""30603""
","
",472.18000001157634,NA,48,NA,NA,3000,1,NA,NA,images/earth.jpg,images/tutrocket2,images/tutrocket1,null,images/tutrocket2,NA,1,practice,null,2,NA,NA,NA,sub57
d3-animate-choice,119,560265,0.0-61.0-1.19,FALSE,FALSE,FALSE,TRUE,"""event"",""trial"",""time""
""blur"",""0"",""0""
""focus"",""0"",""0""
""blur"",""3"",""17954""
""focus"",""3"",""17956""
""fullscreenenter"",""5"",""30603""
","""event"",""trial"",""time""
""blur"",""0"",""0""
""blur"",""3"",""17954""
","""event"",""trial"",""time""
""focus"",""0"",""0""
""focus"",""3"",""17956""
","""event"",""trial"",""time""
""fullscreenenter"",""5"",""30603""
","
",1492.740000001504,NA,48,NA,NA,3000,1,NA,NA,images/tutgreenplanet.jpg,images/tutalien2,images/tutalien1,images/tutrocket2,images/tutalien2,images/nothing.png,2,practice,true,2,common,0,2020-06-15T19:44:13Z,sub57
two-step-fixation,120,561273,0.0-61.0-2.19,FALSE,FALSE,FALSE,TRUE,"""event"",""trial"",""time""
""blur"",""0"",""0""
""focus"",""0"",""0""
""blur"",""3"",""17954""
""focus"",""3"",""17956""
""fullscreenenter"",""5"",""30603""
","""event"",""trial"",""time""
""blur"",""0"",""0""
""blur"",""3"",""17954""
","""event"",""trial"",""time""
""focus"",""0"",""0""
""focus"",""3"",""17956""
","""event"",""trial"",""time""
""fullscreenenter"",""5"",""30603""
","
",NA,images/earth.jpg,NA,NA,NA,NA,NA,NA,NA,NA,NA,NA,NA,NA,NA,fixation,NA,NA,NA,NA,NA,NA,sub57
d3-instructions,121,568818,0.0-62.0,FALSE,FALSE,FALSE,TRUE,"""event"",""trial"",""time""
""blur"",""0"",""0""
""focus"",""0"",""0""
""blur"",""3"",""17954""
""focus"",""3"",""17956""
""fullscreenenter"",""5"",""30603""
","""event"",""trial"",""time""
""blur"",""0"",""0""
""blur"",""3"",""17954""
","""event"",""trial"",""time""
""focus"",""0"",""0""
""focus"",""3"",""17956""
","""event"",""trial"",""time""
""fullscreenenter"",""5"",""30603""
","
",NA,NA,NA,NA,NA,NA,NA,NA,NA,NA,NA,NA,NA,NA,NA,NA,NA,NA,NA,NA,NA,NA,sub57
audio-keyboard-response,122,573540,0.0-63.0,FALSE,FALSE,FALSE,TRUE,"""event"",""trial"",""time""
""blur"",""0"",""0""
""focus"",""0"",""0""
""blur"",""3"",""17954""
""focus"",""3"",""17956""
""fullscreenenter"",""5"",""30603""
","""event"",""trial"",""time""
""blur"",""0"",""0""
""blur"",""3"",""17954""
","""event"",""trial"",""time""
""focus"",""0"",""0""
""focus"",""3"",""17956""
","""event"",""trial"",""time""
""fullscreenenter"",""5"",""30603""
","
",4712,audio/instructions/treasure_feedback.wav,32,NA,NA,NA,NA,NA,NA,NA,NA,NA,NA,NA,NA,NA,NA,NA,NA,NA,NA,NA,sub57
d3-instructions,123,593437,0.0-64.0,FALSE,FALSE,FALSE,TRUE,"""event"",""trial"",""time""
""blur"",""0"",""0""
""focus"",""0"",""0""
""blur"",""3"",""17954""
""focus"",""3"",""17956""
""fullscreenenter"",""5"",""30603""
","""event"",""trial"",""time""
""blur"",""0"",""0""
""blur"",""3"",""17954""
","""event"",""trial"",""time""
""focus"",""0"",""0""
""focus"",""3"",""17956""
","""event"",""trial"",""time""
""fullscreenenter"",""5"",""30603""
","
",NA,NA,NA,NA,NA,NA,NA,NA,NA,NA,NA,NA,NA,NA,NA,NA,NA,NA,NA,NA,NA,NA,sub57
d3-instructions,124,607790,0.0-65.0,FALSE,FALSE,FALSE,TRUE,"""event"",""trial"",""time""
""blur"",""0"",""0""
""focus"",""0"",""0""
""blur"",""3"",""17954""
""focus"",""3"",""17956""
""fullscreenenter"",""5"",""30603""
","""event"",""trial"",""time""
""blur"",""0"",""0""
""blur"",""3"",""17954""
","""event"",""trial"",""time""
""focus"",""0"",""0""
""focus"",""3"",""17956""
","""event"",""trial"",""time""
""fullscreenenter"",""5"",""30603""
","
",NA,NA,NA,NA,NA,NA,NA,NA,NA,NA,NA,NA,NA,NA,NA,NA,NA,NA,NA,NA,NA,NA,sub57
d3-instructions,125,633167,0.0-66.0,FALSE,FALSE,FALSE,TRUE,"""event"",""trial"",""time""
""blur"",""0"",""0""
""focus"",""0"",""0""
""blur"",""3"",""17954""
""focus"",""3"",""17956""
""fullscreenenter"",""5"",""30603""
","""event"",""trial"",""time""
""blur"",""0"",""0""
""blur"",""3"",""17954""
","""event"",""trial"",""time""
""focus"",""0"",""0""
""focus"",""3"",""17956""
","""event"",""trial"",""time""
""fullscreenenter"",""5"",""30603""
","
",NA,NA,NA,NA,NA,NA,NA,NA,NA,NA,NA,NA,NA,NA,NA,NA,NA,NA,NA,NA,NA,NA,sub57
d3-instructions,126,650572,0.0-67.0,FALSE,FALSE,FALSE,TRUE,"""event"",""trial"",""time""
""blur"",""0"",""0""
""focus"",""0"",""0""
""blur"",""3"",""17954""
""focus"",""3"",""17956""
""fullscreenenter"",""5"",""30603""
","""event"",""trial"",""time""
""blur"",""0"",""0""
""blur"",""3"",""17954""
","""event"",""trial"",""time""
""focus"",""0"",""0""
""focus"",""3"",""17956""
","""event"",""trial"",""time""
""fullscreenenter"",""5"",""30603""
","
",NA,NA,NA,NA,NA,NA,NA,NA,NA,NA,NA,NA,NA,NA,NA,NA,NA,NA,NA,NA,NA,NA,sub57
d3-instructions,127,659936,0.0-68.0,FALSE,FALSE,FALSE,TRUE,"""event"",""trial"",""time""
""blur"",""0"",""0""
""focus"",""0"",""0""
""blur"",""3"",""17954""
""focus"",""3"",""17956""
""fullscreenenter"",""5"",""30603""
","""event"",""trial"",""time""
""blur"",""0"",""0""
""blur"",""3"",""17954""
","""event"",""trial"",""time""
""focus"",""0"",""0""
""focus"",""3"",""17956""
","""event"",""trial"",""time""
""fullscreenenter"",""5"",""30603""
","
",NA,NA,NA,NA,NA,NA,NA,NA,NA,NA,NA,NA,NA,NA,NA,NA,NA,NA,NA,NA,NA,NA,sub57
instructions-quiz,128,665375,0.0-69.0,FALSE,FALSE,FALSE,TRUE,"""event"",""trial"",""time""
""blur"",""0"",""0""
""focus"",""0"",""0""
""blur"",""3"",""17954""
""focus"",""3"",""17956""
""fullscreenenter"",""5"",""30603""
","""event"",""trial"",""time""
""blur"",""0"",""0""
""blur"",""3"",""17954""
","""event"",""trial"",""time""
""focus"",""0"",""0""
""focus"",""3"",""17956""
","""event"",""trial"",""time""
""fullscreenenter"",""5"",""30603""
","
",5432.404999999562,audio/quiz/Q1_Prompt.wav,NA,0,NA,NA,NA,NA,NA,NA,NA,NA,NA,NA,NA,NA,NA,NA,NA,NA,NA,NA,sub57
audio-keyboard-response,129,675532,0.0-70.0,FALSE,FALSE,FALSE,TRUE,"""event"",""trial"",""time""
""blur"",""0"",""0""
""focus"",""0"",""0""
""blur"",""3"",""17954""
""focus"",""3"",""17956""
""fullscreenenter"",""5"",""30603""
","""event"",""trial"",""time""
""blur"",""0"",""0""
""blur"",""3"",""17954""
","""event"",""trial"",""time""
""focus"",""0"",""0""
""focus"",""3"",""17956""
","""event"",""trial"",""time""
""fullscreenenter"",""5"",""30603""
","
",10152,audio/quiz/Q1_Incorrect.wav,32,NA,NA,NA,NA,NA,NA,NA,NA,NA,NA,NA,NA,NA,NA,NA,NA,NA,NA,NA,sub57
instructions-quiz,130,682778,0.0-71.0,FALSE,FALSE,FALSE,TRUE,"""event"",""trial"",""time""
""blur"",""0"",""0""
""focus"",""0"",""0""
""blur"",""3"",""17954""
""focus"",""3"",""17956""
""fullscreenenter"",""5"",""30603""
","""event"",""trial"",""time""
""blur"",""0"",""0""
""blur"",""3"",""17954""
","""event"",""trial"",""time""
""focus"",""0"",""0""
""focus"",""3"",""17956""
","""event"",""trial"",""time""
""fullscreenenter"",""5"",""30603""
","
",7242.205000002286,audio/quiz/Q2_Prompt.wav,NA,0,NA,NA,NA,NA,NA,NA,NA,NA,NA,NA,NA,NA,NA,NA,NA,NA,NA,NA,sub57
audio-keyboard-response,131,695184,0.0-72.0,FALSE,FALSE,FALSE,TRUE,"""event"",""trial"",""time""
""blur"",""0"",""0""
""focus"",""0"",""0""
""blur"",""3"",""17954""
""focus"",""3"",""17956""
""fullscreenenter"",""5"",""30603""
","""event"",""trial"",""time""
""blur"",""0"",""0""
""blur"",""3"",""17954""
","""event"",""trial"",""time""
""focus"",""0"",""0""
""focus"",""3"",""17956""
","""event"",""trial"",""time""
""fullscreenenter"",""5"",""30603""
","
",12400,audio/quiz/Q2_Correct.wav,32,NA,NA,NA,NA,NA,NA,NA,NA,NA,NA,NA,NA,NA,NA,NA,NA,NA,NA,NA,sub57
instructions-quiz,132,699156,0.0-73.0,FALSE,FALSE,FALSE,TRUE,"""event"",""trial"",""time""
""blur"",""0"",""0""
""focus"",""0"",""0""
""blur"",""3"",""17954""
""focus"",""3"",""17956""
""fullscreenenter"",""5"",""30603""
","""event"",""trial"",""time""
""blur"",""0"",""0""
""blur"",""3"",""17954""
","""event"",""trial"",""time""
""focus"",""0"",""0""
""focus"",""3"",""17956""
","""event"",""trial"",""time""
""fullscreenenter"",""5"",""30603""
","
",3968.169999992824,audio/quiz/Q3_Prompt.wav,NA,1,NA,NA,NA,NA,NA,NA,NA,NA,NA,NA,NA,NA,NA,NA,NA,NA,NA,NA,sub57
audio-keyboard-response,133,703705,0.0-74.0,FALSE,FALSE,FALSE,TRUE,"""event"",""trial"",""time""
""blur"",""0"",""0""
""focus"",""0"",""0""
""blur"",""3"",""17954""
""focus"",""3"",""17956""
""fullscreenenter"",""5"",""30603""
","""event"",""trial"",""time""
""blur"",""0"",""0""
""blur"",""3"",""17954""
","""event"",""trial"",""time""
""focus"",""0"",""0""
""focus"",""3"",""17956""
","""event"",""trial"",""time""
""fullscreenenter"",""5"",""30603""
","
",4539,audio/quiz/Q3_Correct.wav,32,NA,NA,NA,NA,NA,NA,NA,NA,NA,NA,NA,NA,NA,NA,NA,NA,NA,NA,NA,sub57
d3-instructions,134,717709,0.0-75.0,FALSE,FALSE,FALSE,TRUE,"""event"",""trial"",""time""
""blur"",""0"",""0""
""focus"",""0"",""0""
""blur"",""3"",""17954""
""focus"",""3"",""17956""
""fullscreenenter"",""5"",""30603""
","""event"",""trial"",""time""
""blur"",""0"",""0""
""blur"",""3"",""17954""
","""event"",""trial"",""time""
""focus"",""0"",""0""
""focus"",""3"",""17956""
","""event"",""trial"",""time""
""fullscreenenter"",""5"",""30603""
","
",NA,NA,NA,NA,NA,NA,NA,NA,NA,NA,NA,NA,NA,NA,NA,NA,NA,NA,NA,NA,NA,NA,sub57
d3-animate-choice,135,721720,0.0-76.0-0.0,FALSE,FALSE,FALSE,TRUE,"""event"",""trial"",""time""
""blur"",""0"",""0""
""focus"",""0"",""0""
""blur"",""3"",""17954""
""focus"",""3"",""17956""
""fullscreenenter"",""5"",""30603""
","""event"",""trial"",""time""
""blur"",""0"",""0""
""blur"",""3"",""17954""
","""event"",""trial"",""time""
""focus"",""0"",""0""
""focus"",""3"",""17956""
","""event"",""trial"",""time""
""fullscreenenter"",""5"",""30603""
","
",2153.9749999938067,NA,48,NA,NA,3000,1,NA,NA,images/earth.jpg,images/rocket1,images/rocket2,null,images/rocket1,NA,1,real,null,2,NA,NA,NA,sub57
d3-animate-choice,136,725125,0.0-76.0-1.0,FALSE,FALSE,FALSE,TRUE,"""event"",""trial"",""time""
""blur"",""0"",""0""
""focus"",""0"",""0""
""blur"",""3"",""17954""
""focus"",""3"",""17956""
""fullscreenenter"",""5"",""30603""
","""event"",""trial"",""time""
""blur"",""0"",""0""
""blur"",""3"",""17954""
","""event"",""trial"",""time""
""focus"",""0"",""0""
""focus"",""3"",""17956""
","""event"",""trial"",""time""
""fullscreenenter"",""5"",""30603""
","
",1395.3000000037719,NA,49,NA,NA,3000,1,NA,NA,images/redplanet1.jpg,images/alien2,images/alien1,images/rocket1,images/alien1,images/nothing.png,2,real,false,1,rare,0,2020-06-15T19:46:58Z,sub57
two-step-fixation,137,726132,0.0-76.0-2.0,FALSE,FALSE,FALSE,TRUE,"""event"",""trial"",""time""
""blur"",""0"",""0""
""focus"",""0"",""0""
""blur"",""3"",""17954""
""focus"",""3"",""17956""
""fullscreenenter"",""5"",""30603""
","""event"",""trial"",""time""
""blur"",""0"",""0""
""blur"",""3"",""17954""
","""event"",""trial"",""time""
""focus"",""0"",""0""
""focus"",""3"",""17956""
","""event"",""trial"",""time""
""fullscreenenter"",""5"",""30603""
","
",NA,images/earth.jpg,NA,NA,NA,NA,NA,NA,NA,NA,NA,NA,NA,NA,NA,fixation,NA,NA,NA,NA,NA,NA,sub57
d3-animate-choice,138,728867,0.0-76.0-0.1,FALSE,FALSE,FALSE,TRUE,"""event"",""trial"",""time""
""blur"",""0"",""0""
""focus"",""0"",""0""
""blur"",""3"",""17954""
""focus"",""3"",""17956""
""fullscreenenter"",""5"",""30603""
","""event"",""trial"",""time""
""blur"",""0"",""0""
""blur"",""3"",""17954""
","""event"",""trial"",""time""
""focus"",""0"",""0""
""focus"",""3"",""17956""
","""event"",""trial"",""time""
""fullscreenenter"",""5"",""30603""
","
",727.919999990263,NA,48,NA,NA,3000,1,NA,NA,images/earth.jpg,images/rocket1,images/rocket2,null,images/rocket1,NA,1,real,null,2,NA,NA,NA,sub57
d3-animate-choice,139,731568,0.0-76.0-1.1,FALSE,FALSE,FALSE,TRUE,"""event"",""trial"",""time""
""blur"",""0"",""0""
""focus"",""0"",""0""
""blur"",""3"",""17954""
""focus"",""3"",""17956""
""fullscreenenter"",""5"",""30603""
","""event"",""trial"",""time""
""blur"",""0"",""0""
""blur"",""3"",""17954""
","""event"",""trial"",""time""
""focus"",""0"",""0""
""focus"",""3"",""17956""
","""event"",""trial"",""time""
""fullscreenenter"",""5"",""30603""
","
",674.3300000089221,NA,48,NA,NA,3000,1,NA,NA,images/redplanet1.jpg,images/alien2,images/alien1,images/rocket1,images/alien2,images/t.png,2,real,false,2,rare,1,2020-06-15T19:47:04Z,sub57
two-step-fixation,140,732575,0.0-76.0-2.1,FALSE,FALSE,FALSE,TRUE,"""event"",""trial"",""time""
""blur"",""0"",""0""
""focus"",""0"",""0""
""blur"",""3"",""17954""
""focus"",""3"",""17956""
""fullscreenenter"",""5"",""30603""
","""event"",""trial"",""time""
""blur"",""0"",""0""
""blur"",""3"",""17954""
","""event"",""trial"",""time""
""focus"",""0"",""0""
""focus"",""3"",""17956""
","""event"",""trial"",""time""
""fullscreenenter"",""5"",""30603""
","
",NA,images/earth.jpg,NA,NA,NA,NA,NA,NA,NA,NA,NA,NA,NA,NA,NA,fixation,NA,NA,NA,NA,NA,NA,sub57
d3-animate-choice,141,735758,0.0-76.0-0.2,FALSE,FALSE,FALSE,TRUE,"""event"",""trial"",""time""
""blur"",""0"",""0""
""focus"",""0"",""0""
""blur"",""3"",""17954""
""focus"",""3"",""17956""
""fullscreenenter"",""5"",""30603""
","""event"",""trial"",""time""
""blur"",""0"",""0""
""blur"",""3"",""17954""
","""event"",""trial"",""time""
""focus"",""0"",""0""
""focus"",""3"",""17956""
","""event"",""trial"",""time""
""fullscreenenter"",""5"",""30603""
","
",1158.705000008922,NA,48,NA,NA,3000,1,NA,NA,images/earth.jpg,images/rocket1,images/rocket2,null,images/rocket1,NA,1,real,null,2,NA,NA,NA,sub57
d3-animate-choice,142,738872,0.0-76.0-1.2,FALSE,FALSE,FALSE,TRUE,"""event"",""trial"",""time""
""blur"",""0"",""0""
""focus"",""0"",""0""
""blur"",""3"",""17954""
""focus"",""3"",""17956""
""fullscreenenter"",""5"",""30603""
","""event"",""trial"",""time""
""blur"",""0"",""0""
""blur"",""3"",""17954""
","""event"",""trial"",""time""
""focus"",""0"",""0""
""focus"",""3"",""17956""
","""event"",""trial"",""time""
""fullscreenenter"",""5"",""30603""
","
",1105.2149999886751,NA,48,NA,NA,3000,1,NA,NA,images/purpleplanet.jpg,images/alien4,images/alien3,images/rocket1,images/alien4,images/nothing.png,2,real,true,2,common,0,2020-06-15T19:47:12Z,sub57
two-step-fixation,143,739882,0.0-76.0-2.2,FALSE,FALSE,FALSE,TRUE,"""event"",""trial"",""time""
""blur"",""0"",""0""
""focus"",""0"",""0""
""blur"",""3"",""17954""
""focus"",""3"",""17956""
""fullscreenenter"",""5"",""30603""
","""event"",""trial"",""time""
""blur"",""0"",""0""
""blur"",""3"",""17954""
","""event"",""trial"",""time""
""focus"",""0"",""0""
""focus"",""3"",""17956""
","""event"",""trial"",""time""
""fullscreenenter"",""5"",""30603""
","
",NA,images/earth.jpg,NA,NA,NA,NA,NA,NA,NA,NA,NA,NA,NA,NA,NA,fixation,NA,NA,NA,NA,NA,NA,sub57
d3-animate-choice,144,742821,0.0-76.0-0.3,FALSE,FALSE,FALSE,TRUE,"""event"",""trial"",""time""
""blur"",""0"",""0""
""focus"",""0"",""0""
""blur"",""3"",""17954""
""focus"",""3"",""17956""
""fullscreenenter"",""5"",""30603""
","""event"",""trial"",""time""
""blur"",""0"",""0""
""blur"",""3"",""17954""
","""event"",""trial"",""time""
""focus"",""0"",""0""
""focus"",""3"",""17956""
","""event"",""trial"",""time""
""fullscreenenter"",""5"",""30603""
","
",932.1400000044378,NA,49,NA,NA,3000,1,NA,NA,images/earth.jpg,images/rocket1,images/rocket2,null,images/rocket2,NA,1,real,null,1,NA,NA,NA,sub57
d3-animate-choice,145,745407,0.0-76.0-1.3,FALSE,FALSE,FALSE,TRUE,"""event"",""trial"",""time""
""blur"",""0"",""0""
""focus"",""0"",""0""
""blur"",""3"",""17954""
""focus"",""3"",""17956""
""fullscreenenter"",""5"",""30603""
","""event"",""trial"",""time""
""blur"",""0"",""0""
""blur"",""3"",""17954""
","""event"",""trial"",""time""
""focus"",""0"",""0""
""focus"",""3"",""17956""
","""event"",""trial"",""time""
""fullscreenenter"",""5"",""30603""
","
",578.3600000140723,NA,49,NA,NA,3000,1,NA,NA,images/purpleplanet.jpg,images/alien4,images/alien3,images/rocket2,images/alien3,images/nothing.png,2,real,false,1,rare,0,2020-06-15T19:47:18Z,sub57
two-step-fixation,146,746416,0.0-76.0-2.3,FALSE,FALSE,FALSE,TRUE,"""event"",""trial"",""time""
""blur"",""0"",""0""
""focus"",""0"",""0""
""blur"",""3"",""17954""
""focus"",""3"",""17956""
""fullscreenenter"",""5"",""30603""
","""event"",""trial"",""time""
""blur"",""0"",""0""
""blur"",""3"",""17954""
","""event"",""trial"",""time""
""focus"",""0"",""0""
""focus"",""3"",""17956""
","""event"",""trial"",""time""
""fullscreenenter"",""5"",""30603""
","
",NA,images/earth.jpg,NA,NA,NA,NA,NA,NA,NA,NA,NA,NA,NA,NA,NA,fixation,NA,NA,NA,NA,NA,NA,sub57
d3-animate-choice,147,748763,0.0-76.0-0.4,FALSE,FALSE,FALSE,TRUE,"""event"",""trial"",""time""
""blur"",""0"",""0""
""focus"",""0"",""0""
""blur"",""3"",""17954""
""focus"",""3"",""17956""
""fullscreenenter"",""5"",""30603""
","""event"",""trial"",""time""
""blur"",""0"",""0""
""blur"",""3"",""17954""
","""event"",""trial"",""time""
""focus"",""0"",""0""
""focus"",""3"",""17956""
","""event"",""trial"",""time""
""fullscreenenter"",""5"",""30603""
","
",339.0700000018114,NA,48,NA,NA,3000,1,NA,NA,images/earth.jpg,images/rocket1,images/rocket2,null,images/rocket1,NA,1,real,null,2,NA,NA,NA,sub57
d3-animate-choice,148,752440,0.0-76.0-1.4,FALSE,FALSE,FALSE,TRUE,"""event"",""trial"",""time""
""blur"",""0"",""0""
""focus"",""0"",""0""
""blur"",""3"",""17954""
""focus"",""3"",""17956""
""fullscreenenter"",""5"",""30603""
","""event"",""trial"",""time""
""blur"",""0"",""0""
""blur"",""3"",""17954""
","""event"",""trial"",""time""
""focus"",""0"",""0""
""focus"",""3"",""17956""
","""event"",""trial"",""time""
""fullscreenenter"",""5"",""30603""
","
",1667.0599999924889,NA,48,NA,NA,3000,1,NA,NA,images/purpleplanet.jpg,images/alien4,images/alien3,images/rocket1,images/alien4,images/t.png,2,real,true,2,common,1,2020-06-15T19:47:25Z,sub57
two-step-fixation,149,753449,0.0-76.0-2.4,FALSE,FALSE,FALSE,TRUE,"""event"",""trial"",""time""
""blur"",""0"",""0""
""focus"",""0"",""0""
""blur"",""3"",""17954""
""focus"",""3"",""17956""
""fullscreenenter"",""5"",""30603""
","""event"",""trial"",""time""
""blur"",""0"",""0""
""blur"",""3"",""17954""
","""event"",""trial"",""time""
""focus"",""0"",""0""
""focus"",""3"",""17956""
","""event"",""trial"",""time""
""fullscreenenter"",""5"",""30603""
","
",NA,images/earth.jpg,NA,NA,NA,NA,NA,NA,NA,NA,NA,NA,NA,NA,NA,fixation,NA,NA,NA,NA,NA,NA,sub57
d3-animate-choice,150,755978,0.0-76.0-0.5,FALSE,FALSE,FALSE,TRUE,"""event"",""trial"",""time""
""blur"",""0"",""0""
""focus"",""0"",""0""
""blur"",""3"",""17954""
""focus"",""3"",""17956""
""fullscreenenter"",""5"",""30603""
","""event"",""trial"",""time""
""blur"",""0"",""0""
""blur"",""3"",""17954""
","""event"",""trial"",""time""
""focus"",""0"",""0""
""focus"",""3"",""17956""
","""event"",""trial"",""time""
""fullscreenenter"",""5"",""30603""
","
",520.780000006198,NA,48,NA,NA,3000,1,NA,NA,images/earth.jpg,images/rocket1,images/rocket2,null,images/rocket1,NA,1,real,null,2,NA,NA,NA,sub57
d3-animate-choice,151,759088,0.0-76.0-1.5,FALSE,FALSE,FALSE,TRUE,"""event"",""trial"",""time""
""blur"",""0"",""0""
""focus"",""0"",""0""
""blur"",""3"",""17954""
""focus"",""3"",""17956""
""fullscreenenter"",""5"",""30603""
","""event"",""trial"",""time""
""blur"",""0"",""0""
""blur"",""3"",""17954""
","""event"",""trial"",""time""
""focus"",""0"",""0""
""focus"",""3"",""17956""
","""event"",""trial"",""time""
""fullscreenenter"",""5"",""30603""
","
",1100.1499999983935,NA,48,NA,NA,3000,1,NA,NA,images/redplanet1.jpg,images/alien2,images/alien1,images/rocket1,images/alien2,images/t.png,2,real,false,2,rare,1,2020-06-15T19:47:32Z,sub57
two-step-fixation,152,760095,0.0-76.0-2.5,FALSE,FALSE,FALSE,TRUE,"""event"",""trial"",""time""
""blur"",""0"",""0""
""focus"",""0"",""0""
""blur"",""3"",""17954""
""focus"",""3"",""17956""
""fullscreenenter"",""5"",""30603""
","""event"",""trial"",""time""
""blur"",""0"",""0""
""blur"",""3"",""17954""
","""event"",""trial"",""time""
""focus"",""0"",""0""
""focus"",""3"",""17956""
","""event"",""trial"",""time""
""fullscreenenter"",""5"",""30603""
","
",NA,images/earth.jpg,NA,NA,NA,NA,NA,NA,NA,NA,NA,NA,NA,NA,NA,fixation,NA,NA,NA,NA,NA,NA,sub57
d3-animate-choice,153,763079,0.0-76.0-0.6,FALSE,FALSE,FALSE,TRUE,"""event"",""trial"",""time""
""blur"",""0"",""0""
""focus"",""0"",""0""
""blur"",""3"",""17954""
""focus"",""3"",""17956""
""fullscreenenter"",""5"",""30603""
","""event"",""trial"",""time""
""blur"",""0"",""0""
""blur"",""3"",""17954""
","""event"",""trial"",""time""
""focus"",""0"",""0""
""focus"",""3"",""17956""
","""event"",""trial"",""time""
""fullscreenenter"",""5"",""30603""
","
",976.2250000057975,NA,49,NA,NA,3000,1,NA,NA,images/earth.jpg,images/rocket1,images/rocket2,null,images/rocket2,NA,1,real,null,1,NA,NA,NA,sub57
d3-animate-choice,154,765704,0.0-76.0-1.6,FALSE,FALSE,FALSE,TRUE,"""event"",""trial"",""time""
""blur"",""0"",""0""
""focus"",""0"",""0""
""blur"",""3"",""17954""
""focus"",""3"",""17956""
""fullscreenenter"",""5"",""30603""
","""event"",""trial"",""time""
""blur"",""0"",""0""
""blur"",""3"",""17954""
","""event"",""trial"",""time""
""focus"",""0"",""0""
""focus"",""3"",""17956""
","""event"",""trial"",""time""
""fullscreenenter"",""5"",""30603""
","
",617.0500000007451,NA,48,NA,NA,3000,1,NA,NA,images/redplanet1.jpg,images/alien2,images/alien1,images/rocket2,images/alien2,images/t.png,2,real,true,2,common,1,2020-06-15T19:47:38Z,sub57
two-step-fixation,155,766710,0.0-76.0-2.6,FALSE,FALSE,FALSE,TRUE,"""event"",""trial"",""time""
""blur"",""0"",""0""
""focus"",""0"",""0""
""blur"",""3"",""17954""
""focus"",""3"",""17956""
""fullscreenenter"",""5"",""30603""
","""event"",""trial"",""time""
""blur"",""0"",""0""
""blur"",""3"",""17954""
","""event"",""trial"",""time""
""focus"",""0"",""0""
""focus"",""3"",""17956""
","""event"",""trial"",""time""
""fullscreenenter"",""5"",""30603""
","
",NA,images/earth.jpg,NA,NA,NA,NA,NA,NA,NA,NA,NA,NA,NA,NA,NA,fixation,NA,NA,NA,NA,NA,NA,sub57
d3-animate-choice,156,769091,0.0-76.0-0.7,FALSE,FALSE,FALSE,TRUE,"""event"",""trial"",""time""
""blur"",""0"",""0""
""focus"",""0"",""0""
""blur"",""3"",""17954""
""focus"",""3"",""17956""
""fullscreenenter"",""5"",""30603""
","""event"",""trial"",""time""
""blur"",""0"",""0""
""blur"",""3"",""17954""
","""event"",""trial"",""time""
""focus"",""0"",""0""
""focus"",""3"",""17956""
","""event"",""trial"",""time""
""fullscreenenter"",""5"",""30603""
","
",371.21000001206994,NA,48,NA,NA,3000,1,NA,NA,images/earth.jpg,images/rocket1,images/rocket2,null,images/rocket1,NA,1,real,null,2,NA,NA,NA,sub57
d3-animate-choice,157,772134,0.0-76.0-1.7,FALSE,FALSE,FALSE,TRUE,"""event"",""trial"",""time""
""blur"",""0"",""0""
""focus"",""0"",""0""
""blur"",""3"",""17954""
""focus"",""3"",""17956""
""fullscreenenter"",""5"",""30603""
","""event"",""trial"",""time""
""blur"",""0"",""0""
""blur"",""3"",""17954""
","""event"",""trial"",""time""
""focus"",""0"",""0""
""focus"",""3"",""17956""
","""event"",""trial"",""time""
""fullscreenenter"",""5"",""30603""
","
",1036.0000000073342,NA,48,NA,NA,3000,1,NA,NA,images/purpleplanet.jpg,images/alien4,images/alien3,images/rocket1,images/alien4,images/t.png,2,real,true,2,common,1,2020-06-15T19:47:45Z,sub57
two-step-fixation,158,773140,0.0-76.0-2.7,FALSE,FALSE,FALSE,TRUE,"""event"",""trial"",""time""
""blur"",""0"",""0""
""focus"",""0"",""0""
""blur"",""3"",""17954""
""focus"",""3"",""17956""
""fullscreenenter"",""5"",""30603""
","""event"",""trial"",""time""
""blur"",""0"",""0""
""blur"",""3"",""17954""
","""event"",""trial"",""time""
""focus"",""0"",""0""
""focus"",""3"",""17956""
","""event"",""trial"",""time""
""fullscreenenter"",""5"",""30603""
","
",NA,images/earth.jpg,NA,NA,NA,NA,NA,NA,NA,NA,NA,NA,NA,NA,NA,fixation,NA,NA,NA,NA,NA,NA,sub57
d3-animate-choice,159,775520,0.0-76.0-0.8,FALSE,FALSE,FALSE,TRUE,"""event"",""trial"",""time""
""blur"",""0"",""0""
""focus"",""0"",""0""
""blur"",""3"",""17954""
""focus"",""3"",""17956""
""fullscreenenter"",""5"",""30603""
","""event"",""trial"",""time""
""blur"",""0"",""0""
""blur"",""3"",""17954""
","""event"",""trial"",""time""
""focus"",""0"",""0""
""focus"",""3"",""17956""
","""event"",""trial"",""time""
""fullscreenenter"",""5"",""30603""
","
",373.1450000050245,NA,48,NA,NA,3000,1,NA,NA,images/earth.jpg,images/rocket1,images/rocket2,null,images/rocket1,NA,1,real,null,2,NA,NA,NA,sub57
d3-animate-choice,160,777875,0.0-76.0-1.8,FALSE,FALSE,FALSE,TRUE,"""event"",""trial"",""time""
""blur"",""0"",""0""
""focus"",""0"",""0""
""blur"",""3"",""17954""
""focus"",""3"",""17956""
""fullscreenenter"",""5"",""30603""
","""event"",""trial"",""time""
""blur"",""0"",""0""
""blur"",""3"",""17954""
","""event"",""trial"",""time""
""focus"",""0"",""0""
""focus"",""3"",""17956""
","""event"",""trial"",""time""
""fullscreenenter"",""5"",""30603""
","
",348.0250000138767,NA,48,NA,NA,3000,1,NA,NA,images/purpleplanet.jpg,images/alien4,images/alien3,images/rocket1,images/alien4,images/t.png,2,real,true,2,common,1,2020-06-15T19:47:51Z,sub57
two-step-fixation,161,778883,0.0-76.0-2.8,FALSE,FALSE,FALSE,TRUE,"""event"",""trial"",""time""
""blur"",""0"",""0""
""focus"",""0"",""0""
""blur"",""3"",""17954""
""focus"",""3"",""17956""
""fullscreenenter"",""5"",""30603""
","""event"",""trial"",""time""
""blur"",""0"",""0""
""blur"",""3"",""17954""
","""event"",""trial"",""time""
""focus"",""0"",""0""
""focus"",""3"",""17956""
","""event"",""trial"",""time""
""fullscreenenter"",""5"",""30603""
","
",NA,images/earth.jpg,NA,NA,NA,NA,NA,NA,NA,NA,NA,NA,NA,NA,NA,fixation,NA,NA,NA,NA,NA,NA,sub57
d3-animate-choice,162,781156,0.0-76.0-0.9,FALSE,FALSE,FALSE,TRUE,"""event"",""trial"",""time""
""blur"",""0"",""0""
""focus"",""0"",""0""
""blur"",""3"",""17954""
""focus"",""3"",""17956""
""fullscreenenter"",""5"",""30603""
","""event"",""trial"",""time""
""blur"",""0"",""0""
""blur"",""3"",""17954""
","""event"",""trial"",""time""
""focus"",""0"",""0""
""focus"",""3"",""17956""
","""event"",""trial"",""time""
""fullscreenenter"",""5"",""30603""
","
",264.7149999975227,NA,49,NA,NA,3000,1,NA,NA,images/earth.jpg,images/rocket1,images/rocket2,null,images/rocket2,NA,1,real,null,1,NA,NA,NA,sub57
d3-animate-choice,163,783530,0.0-76.0-1.9,FALSE,FALSE,FALSE,TRUE,"""event"",""trial"",""time""
""blur"",""0"",""0""
""focus"",""0"",""0""
""blur"",""3"",""17954""
""focus"",""3"",""17956""
""fullscreenenter"",""5"",""30603""
","""event"",""trial"",""time""
""blur"",""0"",""0""
""blur"",""3"",""17954""
","""event"",""trial"",""time""
""focus"",""0"",""0""
""focus"",""3"",""17956""
","""event"",""trial"",""time""
""fullscreenenter"",""5"",""30603""
","
",364.2099999997299,NA,48,NA,NA,3000,1,NA,NA,images/redplanet1.jpg,images/alien2,images/alien1,images/rocket2,images/alien2,images/t.png,2,real,true,2,common,1,2020-06-15T19:47:56Z,sub57
two-step-fixation,164,784536,0.0-76.0-2.9,FALSE,FALSE,FALSE,TRUE,"""event"",""trial"",""time""
""blur"",""0"",""0""
""focus"",""0"",""0""
""blur"",""3"",""17954""
""focus"",""3"",""17956""
""fullscreenenter"",""5"",""30603""
","""event"",""trial"",""time""
""blur"",""0"",""0""
""blur"",""3"",""17954""
","""event"",""trial"",""time""
""focus"",""0"",""0""
""focus"",""3"",""17956""
","""event"",""trial"",""time""
""fullscreenenter"",""5"",""30603""
","
",NA,images/earth.jpg,NA,NA,NA,NA,NA,NA,NA,NA,NA,NA,NA,NA,NA,fixation,NA,NA,NA,NA,NA,NA,sub57
d3-animate-choice,165,786822,0.0-76.0-0.10,FALSE,FALSE,FALSE,TRUE,"""event"",""trial"",""time""
""blur"",""0"",""0""
""focus"",""0"",""0""
""blur"",""3"",""17954""
""focus"",""3"",""17956""
""fullscreenenter"",""5"",""30603""
","""event"",""trial"",""time""
""blur"",""0"",""0""
""blur"",""3"",""17954""
","""event"",""trial"",""time""
""focus"",""0"",""0""
""focus"",""3"",""17956""
","""event"",""trial"",""time""
""fullscreenenter"",""5"",""30603""
","
",278.52000000711996,NA,48,NA,NA,3000,1,NA,NA,images/earth.jpg,images/rocket1,images/rocket2,null,images/rocket1,NA,1,real,null,2,NA,NA,NA,sub57
d3-animate-choice,166,789198,0.0-76.0-1.10,FALSE,FALSE,FALSE,TRUE,"""event"",""trial"",""time""
""blur"",""0"",""0""
""focus"",""0"",""0""
""blur"",""3"",""17954""
""focus"",""3"",""17956""
""fullscreenenter"",""5"",""30603""
","""event"",""trial"",""time""
""blur"",""0"",""0""
""blur"",""3"",""17954""
","""event"",""trial"",""time""
""focus"",""0"",""0""
""focus"",""3"",""17956""
","""event"",""trial"",""time""
""fullscreenenter"",""5"",""30603""
","
