trial_type,trial_index,time_elapsed,internal_node_id,rocket_sides,red_planet_first_rocket,red_display_order,purple_display_order,interactions,blur_events,focus_events,fullscreenenter_events,fullscreenexit_events,rt,stimulus,key_press,button_pressed,success,duration,valid_pressed,rts,keys,planet_text,right_text,left_text,center_text,chosen_text,reward_text,trial_stage,practice_trial,transition_type,choice,transition,reward,timestamp,subject_id
pavlovia,0,4,0.0-0.0,TRUE,FALSE,TRUE,FALSE,"
","
","
","
","
",NA,NA,NA,NA,NA,NA,NA,NA,NA,NA,NA,NA,NA,NA,NA,NA,NA,NA,NA,NA,NA,NA,sub87
html-keyboard-response,1,2268,0.0-1.0,TRUE,FALSE,TRUE,FALSE,"
","
","
","
","
",2263.290000031702,Welcome! Press the space bar to begin.,66,NA,NA,NA,NA,NA,NA,NA,NA,NA,NA,NA,NA,NA,NA,NA,NA,NA,NA,NA,sub87
audio-keyboard-response,2,2588,0.0-2.0,TRUE,FALSE,TRUE,FALSE,"
","
","
","
","
",0,audio/beep_loop.wav,32,NA,NA,NA,NA,NA,NA,NA,NA,NA,NA,NA,NA,NA,NA,NA,NA,NA,NA,NA,sub87
audio-button-response,3,4510,0.0-3.0,TRUE,FALSE,TRUE,FALSE,"
","
","
","
","
",NaN,audio/fish.mp3,NA,1,NA,NA,NA,NA,NA,NA,NA,NA,NA,NA,NA,NA,NA,NA,NA,NA,NA,NA,sub87
audio-button-response,4,7201,0.0-4.0,TRUE,FALSE,TRUE,FALSE,"""event"",""trial"",""time""
""fullscreenenter"",""5"",""12958""
","
","
","""event"",""trial"",""time""
""fullscreenenter"",""5"",""12958""
","
",NaN,audio/tiger.mp3,NA,4,NA,NA,NA,NA,NA,NA,NA,NA,NA,NA,NA,NA,NA,NA,NA,NA,NA,NA,sub87
fullscreen,5,13815,0.0-5.0,TRUE,FALSE,TRUE,FALSE,"""event"",""trial"",""time""
""fullscreenenter"",""5"",""12958""
","
","
","""event"",""trial"",""time""
""fullscreenenter"",""5"",""12958""
","
",NA,NA,NA,NA,TRUE,NA,NA,NA,NA,NA,NA,NA,NA,NA,NA,NA,NA,NA,NA,NA,NA,NA,sub87
d3-instructions,6,28575,0.0-6.0,TRUE,FALSE,TRUE,FALSE,"""event"",""trial"",""time""
""fullscreenenter"",""5"",""12958""
","
","
","""event"",""trial"",""time""
""fullscreenenter"",""5"",""12958""
","
",NA,NA,NA,NA,NA,NA,NA,NA,NA,NA,NA,NA,NA,NA,NA,NA,NA,NA,NA,NA,NA,NA,sub87
d3-instructions,7,42703,0.0-7.0,TRUE,FALSE,TRUE,FALSE,"""event"",""trial"",""time""
""fullscreenenter"",""5"",""12958""
","
","
","""event"",""trial"",""time""
""fullscreenenter"",""5"",""12958""
","
",NA,NA,NA,NA,NA,NA,NA,NA,NA,NA,NA,NA,NA,NA,NA,NA,NA,NA,NA,NA,NA,NA,sub87
d3-instructions,8,48999,0.0-8.0,TRUE,FALSE,TRUE,FALSE,"""event"",""trial"",""time""
""fullscreenenter"",""5"",""12958""
","
","
","""event"",""trial"",""time""
""fullscreenenter"",""5"",""12958""
","
",NA,NA,NA,NA,NA,NA,NA,NA,NA,NA,NA,NA,NA,NA,NA,NA,NA,NA,NA,NA,NA,NA,sub87
d3-instructions,9,59368,0.0-9.0,TRUE,FALSE,TRUE,FALSE,"""event"",""trial"",""time""
""fullscreenenter"",""5"",""12958""
","
","
","""event"",""trial"",""time""
""fullscreenenter"",""5"",""12958""
","
",NA,NA,NA,NA,NA,NA,NA,NA,NA,NA,NA,NA,NA,NA,NA,NA,NA,NA,NA,NA,NA,NA,sub87
d3-instructions,10,78167,0.0-10.0,TRUE,FALSE,TRUE,FALSE,"""event"",""trial"",""time""
""fullscreenenter"",""5"",""12958""
","
","
","""event"",""trial"",""time""
""fullscreenenter"",""5"",""12958""
","
",NA,NA,NA,NA,NA,NA,NA,NA,NA,NA,NA,NA,NA,NA,NA,NA,NA,NA,NA,NA,NA,NA,sub87
d3-animate-choice,11,80404,0.0-11.0,TRUE,FALSE,TRUE,FALSE,"""event"",""trial"",""time""
""fullscreenenter"",""5"",""12958""
","
","
","""event"",""trial"",""time""
""fullscreenenter"",""5"",""12958""
","
",230.19999999087304,NA,48,NA,NA,3000,1,"406.3000000314787,606.2500000698492,798.1249999720603,1006.7000000271946,1238.2000000216067,1925.9750000201166",494849484949,images/tutgreenplanet.jpg,images/tutalien1,images/tutalien2,null,images/tutalien1,NA,NA,practice,null,NA,NA,NA,NA,sub87
d3-animate-choice,12,82440,0.0-12.0,TRUE,FALSE,TRUE,FALSE,"""event"",""trial"",""time""
""fullscreenenter"",""5"",""12958""
","
","
","""event"",""trial"",""time""
""fullscreenenter"",""5"",""12958""
","
",33.27999997418374,NA,48,NA,NA,3000,1,"513.1250000558794,1441.28999998793",4948,images/tutgreenplanet.jpg,images/tutalien1,images/tutalien2,null,images/tutalien1,NA,NA,practice,null,NA,NA,NA,NA,sub87
d3-animate-choice,13,84648,0.0-13.0,TRUE,FALSE,TRUE,FALSE,"""event"",""trial"",""time""
""fullscreenenter"",""5"",""12958""
","
","
","""event"",""trial"",""time""
""fullscreenenter"",""5"",""12958""
","
",204.92000004742295,NA,48,NA,NA,3000,1,"413.399999961257,565.1050000451505,708.8600000133738,837.0499999728054,1044.8249999899417,1733.3050000015646,1965.0899999542162",48484848494949,images/tutgreenplanet.jpg,images/tutalien1,images/tutalien2,null,images/tutalien1,NA,NA,practice,null,NA,NA,NA,NA,sub87
d3-animate-choice,14,86664,0.0-14.0,TRUE,FALSE,TRUE,FALSE,"""event"",""trial"",""time""
""fullscreenenter"",""5"",""12958""
","
","
","""event"",""trial"",""time""
""fullscreenenter"",""5"",""12958""
","
",13.845000066794455,NA,49,NA,NA,3000,1,"789.6950000431389,1733.6750000249594",4997,images/tutgreenplanet.jpg,images/tutalien1,images/tutalien2,null,images/tutalien2,NA,NA,practice,null,NA,NA,NA,NA,sub87
d3-instructions,15,93143,0.0-15.0,TRUE,FALSE,TRUE,FALSE,"""event"",""trial"",""time""
""fullscreenenter"",""5"",""12958""
","
","
","""event"",""trial"",""time""
""fullscreenenter"",""5"",""12958""
","
",NA,NA,NA,NA,NA,NA,NA,NA,NA,NA,NA,NA,NA,NA,NA,NA,NA,NA,NA,NA,NA,NA,sub87
d3-instructions,16,99808,0.0-16.0,TRUE,FALSE,TRUE,FALSE,"""event"",""trial"",""time""
""fullscreenenter"",""5"",""12958""
","
","
","""event"",""trial"",""time""
""fullscreenenter"",""5"",""12958""
","
",NA,NA,NA,NA,NA,NA,NA,NA,NA,NA,NA,NA,NA,NA,NA,NA,NA,NA,NA,NA,NA,NA,sub87
d3-instructions,17,109375,0.0-17.0,TRUE,FALSE,TRUE,FALSE,"""event"",""trial"",""time""
""fullscreenenter"",""5"",""12958""
","
","
","""event"",""trial"",""time""
""fullscreenenter"",""5"",""12958""
","
",NA,NA,NA,NA,NA,NA,NA,NA,NA,NA,NA,NA,NA,NA,NA,NA,NA,NA,NA,NA,NA,NA,sub87
d3-instructions,18,122167,0.0-18.0,TRUE,FALSE,TRUE,FALSE,"""event"",""trial"",""time""
""fullscreenenter"",""5"",""12958""
","
","
","""event"",""trial"",""time""
""fullscreenenter"",""5"",""12958""
","
",NA,NA,NA,NA,NA,NA,NA,NA,NA,NA,NA,NA,NA,NA,NA,NA,NA,NA,NA,NA,NA,NA,sub87
d3-instructions,19,142623,0.0-19.0,TRUE,FALSE,TRUE,FALSE,"""event"",""trial"",""time""
""fullscreenenter"",""5"",""12958""
","
","
","""event"",""trial"",""time""
""fullscreenenter"",""5"",""12958""
","
",NA,NA,NA,NA,NA,NA,NA,NA,NA,NA,NA,NA,NA,NA,NA,NA,NA,NA,NA,NA,NA,NA,sub87
d3-animate-choice,20,151056,0.0-20.0,TRUE,FALSE,TRUE,FALSE,"""event"",""trial"",""time""
""fullscreenenter"",""5"",""12958""
","
","
","""event"",""trial"",""time""
""fullscreenenter"",""5"",""12958""
","
",1934.2950000427663,NA,97,NA,NA,3000,1,"2125.9300000965595,2293.8500000163913,2445.930000045337,2605.985000031069,2758.1100000534207,2910.080000059679,3397.9550000512972,3598.0149999959394,3877.9349999967963,4022.02999999281,4173.9950000774115,4325.8600000990555,4542.020000051707,4694.09500004258,4854.330000001937,4966.20999998413,5061.945000081323,5182.065000059083,5549.915000097826,5725.990000064485,5869.925000006333,6006.04500004556,6150.050000054762,6301.790000055917,6429.935000021942,6582.070000004023,7174.0800000261515,7406.015000073239",97979797979797e42,images/tutyellowplanet.jpg,null,images/tutalien3,null,images/tutalien3,images/t.png,NA,practice,null,NA,NA,NA,NA,sub87
d3-animate-choice,21,155369,0.0-21.0,TRUE,FALSE,TRUE,FALSE,"""event"",""trial"",""time""
""fullscreenenter"",""5"",""12958""
","
","
","""event"",""trial"",""time""
""fullscreenenter"",""5"",""12958""
","
",1037.609999999404,NA,97,NA,NA,3000,1,"1245.824999990873,1413.7950000585988,1589.9999999674037,1765.6199999619275,1925.6250000325963,2310.0349999731407,2597.760000033304,2837.709999992512,3069.6150000439957,3389.7649999707937,3597.829999984242",9797979797494948e6,images/tutyellowplanet.jpg,null,images/tutalien3,null,images/tutalien3,images/t.png,NA,practice,null,NA,NA,NA,NA,sub87
d3-animate-choice,22,158136,0.0-22.0,TRUE,FALSE,TRUE,FALSE,"""event"",""trial"",""time""
""fullscreenenter"",""5"",""12958""
","
","
","""event"",""trial"",""time""
""fullscreenenter"",""5"",""12958""
","
",765.140000032261,NA,49,NA,NA,3000,1,1053.0900000594556,49,images/tutyellowplanet.jpg,null,images/tutalien3,null,images/tutalien3,images/t.png,NA,practice,null,NA,NA,NA,NA,sub87
d3-animate-choice,23,160440,0.0-23.0,TRUE,FALSE,TRUE,FALSE,"""event"",""trial"",""time""
""fullscreenenter"",""5"",""12958""
","
","
","""event"",""trial"",""time""
""fullscreenenter"",""5"",""12958""
","
",301.3900000369176,NA,49,NA,NA,3000,1,1701.6200000653043,49,images/tutyellowplanet.jpg,null,images/tutalien3,null,images/tutalien3,images/t.png,NA,practice,null,NA,NA,NA,NA,sub87
d3-animate-choice,24,162752,0.0-24.0,TRUE,FALSE,TRUE,FALSE,"""event"",""trial"",""time""
""fullscreenenter"",""5"",""12958""
","
","
","""event"",""trial"",""time""
""fullscreenenter"",""5"",""12958""
","
",309.58999996073544,NA,49,NA,NA,3000,1,NA,NA,images/tutyellowplanet.jpg,null,images/tutalien3,null,images/tutalien3,images/t.png,NA,practice,null,NA,NA,NA,NA,sub87
d3-animate-choice,25,165072,0.0-25.0,TRUE,FALSE,TRUE,FALSE,"""event"",""trial"",""time""
""fullscreenenter"",""5"",""12958""
","
","
","""event"",""trial"",""time""
""fullscreenenter"",""5"",""12958""
","
",317.81999999657273,NA,49,NA,NA,3000,1,NA,NA,images/tutyellowplanet.jpg,null,images/tutalien3,null,images/tutalien3,images/nothing.png,NA,practice,null,NA,NA,NA,NA,sub87
d3-animate-choice,26,167552,0.0-26.0,TRUE,FALSE,TRUE,FALSE,"""event"",""trial"",""time""
""fullscreenenter"",""5"",""12958""
","
","
","""event"",""trial"",""time""
""fullscreenenter"",""5"",""12958""
","
",477.3000000277534,NA,49,NA,NA,3000,1,NA,NA,images/tutyellowplanet.jpg,null,images/tutalien3,null,images/tutalien3,images/t.png,NA,practice,null,NA,NA,NA,NA,sub87
d3-animate-choice,27,169833,0.0-27.0,TRUE,FALSE,TRUE,FALSE,"""event"",""trial"",""time""
""fullscreenenter"",""5"",""12958""
","
","
","""event"",""trial"",""time""
""fullscreenenter"",""5"",""12958""
","
",277.75499993003905,NA,49,NA,NA,3000,1,NA,NA,images/tutyellowplanet.jpg,null,images/tutalien3,null,images/tutalien3,images/t.png,NA,practice,null,NA,NA,NA,NA,sub87
d3-animate-choice,28,172224,0.0-28.0,TRUE,FALSE,TRUE,FALSE,"""event"",""trial"",""time""
""fullscreenenter"",""5"",""12958""
","
","
","""event"",""trial"",""time""
""fullscreenenter"",""5"",""12958""
","
",388.5149999987334,NA,49,NA,NA,3000,1,NA,NA,images/tutyellowplanet.jpg,null,images/tutalien3,null,images/tutalien3,images/nothing.png,NA,practice,null,NA,NA,NA,NA,sub87
d3-animate-choice,29,174720,0.0-29.0,TRUE,FALSE,TRUE,FALSE,"""event"",""trial"",""time""
""fullscreenenter"",""5"",""12958""
","
","
","""event"",""trial"",""time""
""fullscreenenter"",""5"",""12958""
","
",493.63000004086643,NA,49,NA,NA,3000,1,NA,NA,images/tutyellowplanet.jpg,null,images/tutalien3,null,images/tutalien3,images/t.png,NA,practice,null,NA,NA,NA,NA,sub87
d3-instructions,30,182743,0.0-30.0,TRUE,FALSE,TRUE,FALSE,"""event"",""trial"",""time""
""fullscreenenter"",""5"",""12958""
","
","
","""event"",""trial"",""time""
""fullscreenenter"",""5"",""12958""
","
",NA,NA,NA,NA,NA,NA,NA,NA,NA,NA,NA,NA,NA,NA,NA,NA,NA,NA,NA,NA,NA,NA,sub87
d3-instructions,31,193455,0.0-31.0,TRUE,FALSE,TRUE,FALSE,"""event"",""trial"",""time""
""fullscreenenter"",""5"",""12958""
","
","
","""event"",""trial"",""time""
""fullscreenenter"",""5"",""12958""
","
",NA,NA,NA,NA,NA,NA,NA,NA,NA,NA,NA,NA,NA,NA,NA,NA,NA,NA,NA,NA,NA,NA,sub87
d3-instructions,32,202887,0.0-32.0,TRUE,FALSE,TRUE,FALSE,"""event"",""trial"",""time""
""fullscreenenter"",""5"",""12958""
","
","
","""event"",""trial"",""time""
""fullscreenenter"",""5"",""12958""
","
",NA,NA,NA,NA,NA,NA,NA,NA,NA,NA,NA,NA,NA,NA,NA,NA,NA,NA,NA,NA,NA,NA,sub87
d3-instructions,33,209447,0.0-33.0,TRUE,FALSE,TRUE,FALSE,"""event"",""trial"",""time""
""fullscreenenter"",""5"",""12958""
","
","
","""event"",""trial"",""time""
""fullscreenenter"",""5"",""12958""
","
",NA,NA,NA,NA,NA,NA,NA,NA,NA,NA,NA,NA,NA,NA,NA,NA,NA,NA,NA,NA,NA,NA,sub87
d3-animate-choice,34,213528,0.0-34.0,TRUE,FALSE,TRUE,FALSE,"""event"",""trial"",""time""
""fullscreenenter"",""5"",""12958""
","
","
","""event"",""trial"",""time""
""fullscreenenter"",""5"",""12958""
","
",1262.6050000544637,NA,50,NA,NA,3000,1,"2078.4500000299886,2310.649999999441,2550.470000016503,2782.299999962561",49494949,images/tutgreenplanet.jpg,images/tutalien1,images/tutalien2,null,images/tutalien2,images/t.png,NA,practice,null,NA,NA,NA,NA,sub87
d3-animate-choice,35,216369,0.0-35.0,TRUE,FALSE,TRUE,FALSE,"""event"",""trial"",""time""
""fullscreenenter"",""5"",""12958""
","
","
","""event"",""trial"",""time""
""fullscreenenter"",""5"",""12958""
","
",837.4600000679493,NA,48,NA,NA,3000,1,2733.2450000103563,49,images/tutgreenplanet.jpg,images/tutalien1,images/tutalien2,null,images/tutalien1,images/nothing.png,NA,practice,null,NA,NA,NA,NA,sub87
d3-animate-choice,36,218753,0.0-36.0,TRUE,FALSE,TRUE,FALSE,"""event"",""trial"",""time""
""fullscreenenter"",""5"",""12958""
","
","
","""event"",""trial"",""time""
""fullscreenenter"",""5"",""12958""
","
",381.30000000819564,NA,49,NA,NA,3000,1,NA,NA,images/tutgreenplanet.jpg,images/tutalien1,images/tutalien2,null,images/tutalien2,images/t.png,NA,practice,null,NA,NA,NA,NA,sub87
d3-animate-choice,37,221665,0.0-37.0,TRUE,FALSE,TRUE,FALSE,"""event"",""trial"",""time""
""fullscreenenter"",""5"",""12958""
","
","
","""event"",""trial"",""time""
""fullscreenenter"",""5"",""12958""
","
",909.5949999755248,NA,48,NA,NA,3000,1,2837.234999984503,49,images/tutgreenplanet.jpg,images/tutalien1,images/tutalien2,null,images/tutalien1,images/nothing.png,NA,practice,null,NA,NA,NA,NA,sub87
d3-animate-choice,38,224288,0.0-38.0,TRUE,FALSE,TRUE,FALSE,"""event"",""trial"",""time""
""fullscreenenter"",""5"",""12958""
","
","
","""event"",""trial"",""time""
""fullscreenenter"",""5"",""12958""
","
",620.1600000495091,NA,49,NA,NA,3000,1,NA,NA,images/tutgreenplanet.jpg,images/tutalien1,images/tutalien2,null,images/tutalien2,images/t.png,NA,practice,null,NA,NA,NA,NA,sub87
d3-animate-choice,39,226776,0.0-39.0,TRUE,FALSE,TRUE,FALSE,"""event"",""trial"",""time""
""fullscreenenter"",""5"",""12958""
","
","
","""event"",""trial"",""time""
""fullscreenenter"",""5"",""12958""
","
",485.6800000416115,NA,49,NA,NA,3000,1,NA,NA,images/tutgreenplanet.jpg,images/tutalien1,images/tutalien2,null,images/tutalien2,images/t.png,NA,practice,null,NA,NA,NA,NA,sub87
d3-animate-choice,40,229104,0.0-40.0,TRUE,FALSE,TRUE,FALSE,"""event"",""trial"",""time""
""fullscreenenter"",""5"",""12958""
","
","
","""event"",""trial"",""time""
""fullscreenenter"",""5"",""12958""
","
",325.6549999350682,NA,48,NA,NA,3000,1,1805.62999995891,49,images/tutgreenplanet.jpg,images/tutalien1,images/tutalien2,null,images/tutalien1,images/nothing.png,NA,practice,null,NA,NA,NA,NA,sub87
d3-animate-choice,41,231392,0.0-41.0,TRUE,FALSE,TRUE,FALSE,"""event"",""trial"",""time""
""fullscreenenter"",""5"",""12958""
","
","
","""event"",""trial"",""time""
""fullscreenenter"",""5"",""12958""
","
",285.62500001862645,NA,49,NA,NA,3000,1,NA,NA,images/tutgreenplanet.jpg,images/tutalien1,images/tutalien2,null,images/tutalien2,images/nothing.png,NA,practice,null,NA,NA,NA,NA,sub87
d3-animate-choice,42,234208,0.0-42.0,TRUE,FALSE,TRUE,FALSE,"""event"",""trial"",""time""
""fullscreenenter"",""5"",""12958""
","
","
","""event"",""trial"",""time""
""fullscreenenter"",""5"",""12958""
","
",813.7100000167266,NA,48,NA,NA,3000,1,NA,NA,images/tutgreenplanet.jpg,images/tutalien1,images/tutalien2,null,images/tutalien1,images/t.png,NA,practice,null,NA,NA,NA,NA,sub87
d3-animate-choice,43,236584,0.0-43.0,TRUE,FALSE,TRUE,FALSE,"""event"",""trial"",""time""
""fullscreenenter"",""5"",""12958""
","
","
","""event"",""trial"",""time""
""fullscreenenter"",""5"",""12958""
","
",374.11500001326203,NA,49,NA,NA,3000,1,NA,NA,images/tutgreenplanet.jpg,images/tutalien1,images/tutalien2,null,images/tutalien2,images/t.png,NA,practice,null,NA,NA,NA,NA,sub87
d3-instructions,44,249103,0.0-44.0,TRUE,FALSE,TRUE,FALSE,"""event"",""trial"",""time""
""fullscreenenter"",""5"",""12958""
","
","
","""event"",""trial"",""time""
""fullscreenenter"",""5"",""12958""
","
",NA,NA,NA,NA,NA,NA,NA,NA,NA,NA,NA,NA,NA,NA,NA,NA,NA,NA,NA,NA,NA,NA,sub87
d3-instructions,45,254896,0.0-45.0,TRUE,FALSE,TRUE,FALSE,"""event"",""trial"",""time""
""fullscreenenter"",""5"",""12958""
","
","
","""event"",""trial"",""time""
""fullscreenenter"",""5"",""12958""
","
",NA,NA,NA,NA,NA,NA,NA,NA,NA,NA,NA,NA,NA,NA,NA,NA,NA,NA,NA,NA,NA,NA,sub87
d3-instructions,46,260159,0.0-46.0,TRUE,FALSE,TRUE,FALSE,"""event"",""trial"",""time""
""fullscreenenter"",""5"",""12958""
","
","
","""event"",""trial"",""time""
""fullscreenenter"",""5"",""12958""
","
",NA,NA,NA,NA,NA,NA,NA,NA,NA,NA,NA,NA,NA,NA,NA,NA,NA,NA,NA,NA,NA,NA,sub87
d3-instructions,47,276671,0.0-47.0,TRUE,FALSE,TRUE,FALSE,"""event"",""trial"",""time""
""fullscreenenter"",""5"",""12958""
","
","
","""event"",""trial"",""time""
""fullscreenenter"",""5"",""12958""
","
",NA,NA,NA,NA,NA,NA,NA,NA,NA,NA,NA,NA,NA,NA,NA,NA,NA,NA,NA,NA,NA,NA,sub87
d3-instructions,48,282776,0.0-48.0,TRUE,FALSE,TRUE,FALSE,"""event"",""trial"",""time""
""fullscreenenter"",""5"",""12958""
","
","
","""event"",""trial"",""time""
""fullscreenenter"",""5"",""12958""
","
",NA,NA,NA,NA,NA,NA,NA,NA,NA,NA,NA,NA,NA,NA,NA,NA,NA,NA,NA,NA,NA,NA,sub87
d3-instructions,49,293975,0.0-49.0,TRUE,FALSE,TRUE,FALSE,"""event"",""trial"",""time""
""fullscreenenter"",""5"",""12958""
","
","
","""event"",""trial"",""time""
""fullscreenenter"",""5"",""12958""
","
",NA,NA,NA,NA,NA,NA,NA,NA,NA,NA,NA,NA,NA,NA,NA,NA,NA,NA,NA,NA,NA,NA,sub87
d3-instructions,50,302215,0.0-50.0,TRUE,FALSE,TRUE,FALSE,"""event"",""trial"",""time""
""fullscreenenter"",""5"",""12958""
","
","
","""event"",""trial"",""time""
""fullscreenenter"",""5"",""12958""
","
",NA,NA,NA,NA,NA,NA,NA,NA,NA,NA,NA,NA,NA,NA,NA,NA,NA,NA,NA,NA,NA,NA,sub87
d3-instructions,51,305439,0.0-51.0,TRUE,FALSE,TRUE,FALSE,"""event"",""trial"",""time""
""fullscreenenter"",""5"",""12958""
","
","
","""event"",""trial"",""time""
""fullscreenenter"",""5"",""12958""
","
",NA,NA,NA,NA,NA,NA,NA,NA,NA,NA,NA,NA,NA,NA,NA,NA,NA,NA,NA,NA,NA,NA,sub87
d3-instructions,52,307447,0.0-52.0,TRUE,FALSE,TRUE,FALSE,"""event"",""trial"",""time""
""fullscreenenter"",""5"",""12958""
","
","
","""event"",""trial"",""time""
""fullscreenenter"",""5"",""12958""
","
",NA,NA,NA,NA,NA,NA,NA,NA,NA,NA,NA,NA,NA,NA,NA,NA,NA,NA,NA,NA,NA,NA,sub87
d3-instructions,53,320319,0.0-53.0,TRUE,FALSE,TRUE,FALSE,"""event"",""trial"",""time""
""fullscreenenter"",""5"",""12958""
","
","
","""event"",""trial"",""time""
""fullscreenenter"",""5"",""12958""
","
",NA,NA,NA,NA,NA,NA,NA,NA,NA,NA,NA,NA,NA,NA,NA,NA,NA,NA,NA,NA,NA,NA,sub87
d3-instructions,54,333303,0.0-54.0,TRUE,FALSE,TRUE,FALSE,"""event"",""trial"",""time""
""fullscreenenter"",""5"",""12958""
","
","
","""event"",""trial"",""time""
""fullscreenenter"",""5"",""12958""
","
",NA,NA,NA,NA,NA,NA,NA,NA,NA,NA,NA,NA,NA,NA,NA,NA,NA,NA,NA,NA,NA,NA,sub87
d3-instructions,55,344087,0.0-55.0,TRUE,FALSE,TRUE,FALSE,"""event"",""trial"",""time""
""fullscreenenter"",""5"",""12958""
","
","
","""event"",""trial"",""time""
""fullscreenenter"",""5"",""12958""
","
",NA,NA,NA,NA,NA,NA,NA,NA,NA,NA,NA,NA,NA,NA,NA,NA,NA,NA,NA,NA,NA,NA,sub87
d3-instructions,56,352768,0.0-56.0,TRUE,FALSE,TRUE,FALSE,"""event"",""trial"",""time""
""fullscreenenter"",""5"",""12958""
","
","
","""event"",""trial"",""time""
""fullscreenenter"",""5"",""12958""
","
",NA,NA,NA,NA,NA,NA,NA,NA,NA,NA,NA,NA,NA,NA,NA,NA,NA,NA,NA,NA,NA,NA,sub87
d3-instructions,57,362512,0.0-57.0,TRUE,FALSE,TRUE,FALSE,"""event"",""trial"",""time""
""fullscreenenter"",""5"",""12958""
","
","
","""event"",""trial"",""time""
""fullscreenenter"",""5"",""12958""
","
",NA,NA,NA,NA,NA,NA,NA,NA,NA,NA,NA,NA,NA,NA,NA,NA,NA,NA,NA,NA,NA,NA,sub87
d3-instructions,58,373423,0.0-58.0,TRUE,FALSE,TRUE,FALSE,"""event"",""trial"",""time""
""fullscreenenter"",""5"",""12958""
","
","
","""event"",""trial"",""time""
""fullscreenenter"",""5"",""12958""
","
",NA,NA,NA,NA,NA,NA,NA,NA,NA,NA,NA,NA,NA,NA,NA,NA,NA,NA,NA,NA,NA,NA,sub87
d3-instructions,59,377960,0.0-59.0,TRUE,FALSE,TRUE,FALSE,"""event"",""trial"",""time""
""fullscreenenter"",""5"",""12958""
","
","
","""event"",""trial"",""time""
""fullscreenenter"",""5"",""12958""
","
",NA,NA,NA,NA,NA,NA,NA,NA,NA,NA,NA,NA,NA,NA,NA,NA,NA,NA,NA,NA,NA,NA,sub87
d3-instructions,60,384423,0.0-60.0,TRUE,FALSE,TRUE,FALSE,"""event"",""trial"",""time""
""fullscreenenter"",""5"",""12958""
","
","
","""event"",""trial"",""time""
""fullscreenenter"",""5"",""12958""
","
",NA,NA,NA,NA,NA,NA,NA,NA,NA,NA,NA,NA,NA,NA,NA,NA,NA,NA,NA,NA,NA,NA,sub87
d3-animate-choice,61,386697,0.0-61.0-0.0,TRUE,FALSE,TRUE,FALSE,"""event"",""trial"",""time""
""fullscreenenter"",""5"",""12958""
","
","
","""event"",""trial"",""time""
""fullscreenenter"",""5"",""12958""
","
",269.6449999930337,NA,49,NA,NA,3000,1,NA,NA,images/earth.jpg,images/tutrocket1,images/tutrocket2,null,images/tutrocket2,NA,1,practice,null,1,NA,NA,NA,sub87
d3-animate-choice,62,390394,0.0-61.0-1.0,TRUE,FALSE,TRUE,FALSE,"""event"",""trial"",""time""
""fullscreenenter"",""5"",""12958""
","
","
","""event"",""trial"",""time""
""fullscreenenter"",""5"",""12958""
","
",1692.159999976866,NA,49,NA,NA,3000,1,NA,NA,images/tutyellowplanet.jpg,images/tutalien4,images/tutalien3,images/tutrocket2,images/tutalien3,images/nothing.png,2,practice,false,1,rare,0,2020-06-23T16:50:29Z,sub87
two-step-fixation,63,391414,0.0-61.0-2.0,TRUE,FALSE,TRUE,FALSE,"""event"",""trial"",""time""
""fullscreenenter"",""5"",""12958""
","
","
","""event"",""trial"",""time""
""fullscreenenter"",""5"",""12958""
","
",NA,images/earth.jpg,NA,NA,NA,NA,NA,NA,NA,NA,NA,NA,NA,NA,NA,fixation,NA,NA,NA,NA,NA,NA,sub87
d3-animate-choice,64,395417,0.0-61.0-0.1,TRUE,FALSE,TRUE,FALSE,"""event"",""trial"",""time""
""fullscreenenter"",""5"",""12958""
","
","
","""event"",""trial"",""time""
""fullscreenenter"",""5"",""12958""
","
",2903.969999984838,NA,48,NA,NA,3000,1,NA,NA,images/earth.jpg,images/tutrocket1,images/tutrocket2,null,images/tutrocket1,NA,1,practice,null,2,NA,NA,NA,sub87
d3-animate-choice,65,398704,0.0-61.0-1.1,TRUE,FALSE,TRUE,FALSE,"""event"",""trial"",""time""
""fullscreenenter"",""5"",""12958""
","
","
","""event"",""trial"",""time""
""fullscreenenter"",""5"",""12958""
","
",1285.1550000486895,NA,48,NA,NA,3000,1,NA,NA,images/tutyellowplanet.jpg,images/tutalien4,images/tutalien3,images/tutrocket1,images/tutalien4,images/t.png,2,practice,true,2,common,1,2020-06-23T16:50:37Z,sub87
two-step-fixation,66,399707,0.0-61.0-2.1,TRUE,FALSE,TRUE,FALSE,"""event"",""trial"",""time""
""fullscreenenter"",""5"",""12958""
","
","
","""event"",""trial"",""time""
""fullscreenenter"",""5"",""12958""
","
",NA,images/earth.jpg,NA,NA,NA,NA,NA,NA,NA,NA,NA,NA,NA,NA,NA,fixation,NA,NA,NA,NA,NA,NA,sub87
d3-animate-choice,67,403104,0.0-61.0-0.2,TRUE,FALSE,TRUE,FALSE,"""event"",""trial"",""time""
""fullscreenenter"",""5"",""12958""
","
","
","""event"",""trial"",""time""
""fullscreenenter"",""5"",""12958""
","
",1394.1300000296906,NA,49,NA,NA,3000,1,NA,NA,images/earth.jpg,images/tutrocket1,images/tutrocket2,null,images/tutrocket2,NA,1,practice,null,1,NA,NA,NA,sub87
d3-animate-choice,68,406024,0.0-61.0-1.2,TRUE,FALSE,TRUE,FALSE,"""event"",""trial"",""time""
""fullscreenenter"",""5"",""12958""
","
","
","""event"",""trial"",""time""
""fullscreenenter"",""5"",""12958""
","
",917.215000023134,NA,48,NA,NA,3000,1,NA,NA,images/tutgreenplanet.jpg,images/tutalien2,images/tutalien1,images/tutrocket2,images/tutalien2,images/nothing.png,2,practice,true,2,common,0,2020-06-23T16:50:44Z,sub87
two-step-fixation,69,407027,0.0-61.0-2.2,TRUE,FALSE,TRUE,FALSE,"""event"",""trial"",""time""
""fullscreenenter"",""5"",""12958""
","
","
","""event"",""trial"",""time""
""fullscreenenter"",""5"",""12958""
","
",NA,images/earth.jpg,NA,NA,NA,NA,NA,NA,NA,NA,NA,NA,NA,NA,NA,fixation,NA,NA,NA,NA,NA,NA,sub87
d3-animate-choice,70,409289,0.0-61.0-0.3,TRUE,FALSE,TRUE,FALSE,"""event"",""trial"",""time""
""fullscreenenter"",""5"",""12958""
","
","
","""event"",""trial"",""time""
""fullscreenenter"",""5"",""12958""
","
",257.92500004172325,NA,49,NA,NA,3000,1,NA,NA,images/earth.jpg,images/tutrocket1,images/tutrocket2,null,images/tutrocket2,NA,1,practice,null,1,NA,NA,NA,sub87
d3-animate-choice,71,412256,0.0-61.0-1.3,TRUE,FALSE,TRUE,FALSE,"""event"",""trial"",""time""
""fullscreenenter"",""5"",""12958""
","
","
","""event"",""trial"",""time""
""fullscreenenter"",""5"",""12958""
","
",963.7299999594688,NA,48,NA,NA,3000,1,NA,NA,images/tutgreenplanet.jpg,images/tutalien2,images/tutalien1,images/tutrocket2,images/tutalien2,images/nothing.png,2,practice,true,2,common,0,2020-06-23T16:50:50Z,sub87
two-step-fixation,72,413259,0.0-61.0-2.3,TRUE,FALSE,TRUE,FALSE,"""event"",""trial"",""time""
""fullscreenenter"",""5"",""12958""
","
","
","""event"",""trial"",""time""
""fullscreenenter"",""5"",""12958""
","
",NA,images/earth.jpg,NA,NA,NA,NA,NA,NA,NA,NA,NA,NA,NA,NA,NA,fixation,NA,NA,NA,NA,NA,NA,sub87
d3-animate-choice,73,416752,0.0-61.0-0.4,TRUE,FALSE,TRUE,FALSE,"""event"",""trial"",""time""
""fullscreenenter"",""5"",""12958""
","
","
","""event"",""trial"",""time""
""fullscreenenter"",""5"",""12958""
","
",1490.0200000265613,NA,49,NA,NA,3000,1,NA,NA,images/earth.jpg,images/tutrocket1,images/tutrocket2,null,images/tutrocket2,NA,1,practice,null,1,NA,NA,NA,sub87
d3-animate-choice,74,419040,0.0-61.0-1.4,TRUE,FALSE,TRUE,FALSE,"""event"",""trial"",""time""
""fullscreenenter"",""5"",""12958""
","
","
","""event"",""trial"",""time""
""fullscreenenter"",""5"",""12958""
","
",284.43500003777444,NA,49,NA,NA,3000,1,NA,NA,images/tutgreenplanet.jpg,images/tutalien2,images/tutalien1,images/tutrocket2,images/tutalien1,images/nothing.png,2,practice,true,1,common,0,2020-06-23T16:50:57Z,sub87
two-step-fixation,75,420043,0.0-61.0-2.4,TRUE,FALSE,TRUE,FALSE,"""event"",""trial"",""time""
""fullscreenenter"",""5"",""12958""
","
","
","""event"",""trial"",""time""
""fullscreenenter"",""5"",""12958""
","
",NA,images/earth.jpg,NA,NA,NA,NA,NA,NA,NA,NA,NA,NA,NA,NA,NA,fixation,NA,NA,NA,NA,NA,NA,sub87
d3-animate-choice,76,422665,0.0-61.0-0.5,TRUE,FALSE,TRUE,FALSE,"""event"",""trial"",""time""
""fullscreenenter"",""5"",""12958""
","
","
","""event"",""trial"",""time""
""fullscreenenter"",""5"",""12958""
","
",617.6900001009926,NA,48,NA,NA,3000,1,NA,NA,images/earth.jpg,images/tutrocket1,images/tutrocket2,null,images/tutrocket1,NA,1,practice,null,2,NA,NA,NA,sub87
d3-animate-choice,77,425743,0.0-61.0-1.5,TRUE,FALSE,TRUE,FALSE,"""event"",""trial"",""time""
""fullscreenenter"",""5"",""12958""
","
","
","""event"",""trial"",""time""
""fullscreenenter"",""5"",""12958""
","
",1076.619999948889,NA,49,NA,NA,3000,1,NA,NA,images/tutyellowplanet.jpg,images/tutalien4,images/tutalien3,images/tutrocket1,images/tutalien3,images/nothing.png,2,practice,true,1,common,0,2020-06-23T16:51:04Z,sub87
two-step-fixation,78,426748,0.0-61.0-2.5,TRUE,FALSE,TRUE,FALSE,"""event"",""trial"",""time""
""fullscreenenter"",""5"",""12958""
","
","
","""event"",""trial"",""time""
""fullscreenenter"",""5"",""12958""
","
",NA,images/earth.jpg,NA,NA,NA,NA,NA,NA,NA,NA,NA,NA,NA,NA,NA,fixation,NA,NA,NA,NA,NA,NA,sub87
d3-animate-choice,79,430750,0.0-61.0-0.6,TRUE,FALSE,TRUE,FALSE,"""event"",""trial"",""time""
""fullscreenenter"",""5"",""12958""
","
","
","""event"",""trial"",""time""
""fullscreenenter"",""5"",""12958""
","
",2049.2200000444427,NA,49,NA,NA,3000,1,NA,NA,images/earth.jpg,images/tutrocket1,images/tutrocket2,null,images/tutrocket2,NA,1,practice,null,1,NA,NA,NA,sub87
d3-animate-choice,80,433135,0.0-61.0-1.6,TRUE,FALSE,TRUE,FALSE,"""event"",""trial"",""time""
""fullscreenenter"",""5"",""12958""
","
","
","""event"",""trial"",""time""
""fullscreenenter"",""5"",""12958""
","
",382.8199999406934,NA,48,NA,NA,3000,1,NA,NA,images/tutyellowplanet.jpg,images/tutalien4,images/tutalien3,images/tutrocket2,images/tutalien4,images/t.png,2,practice,false,2,rare,1,2020-06-23T16:51:11Z,sub87
two-step-fixation,81,434138,0.0-61.0-2.6,TRUE,FALSE,TRUE,FALSE,"""event"",""trial"",""time""
""fullscreenenter"",""5"",""12958""
","
","
","""event"",""trial"",""time""
""fullscreenenter"",""5"",""12958""
","
",NA,images/earth.jpg,NA,NA,NA,NA,NA,NA,NA,NA,NA,NA,NA,NA,NA,fixation,NA,NA,NA,NA,NA,NA,sub87
d3-animate-choice,82,436776,0.0-61.0-0.7,TRUE,FALSE,TRUE,FALSE,"""event"",""trial"",""time""
""fullscreenenter"",""5"",""12958""
","
","
","""event"",""trial"",""time""
""fullscreenenter"",""5"",""12958""
","
",633.8000000687316,NA,48,NA,NA,3000,1,NA,NA,images/earth.jpg,images/tutrocket1,images/tutrocket2,null,images/tutrocket1,NA,1,practice,null,2,NA,NA,NA,sub87
d3-animate-choice,83,439263,0.0-61.0-1.7,TRUE,FALSE,TRUE,FALSE,"""event"",""trial"",""time""
""fullscreenenter"",""5"",""12958""
","
","
","""event"",""trial"",""time""
""fullscreenenter"",""5"",""12958""
","
",484.67000003438443,NA,48,NA,NA,3000,1,NA,NA,images/tutyellowplanet.jpg,images/tutalien4,images/tutalien3,images/tutrocket1,images/tutalien4,images/nothing.png,2,practice,true,2,common,0,2020-06-23T16:51:17Z,sub87
two-step-fixation,84,440267,0.0-61.0-2.7,TRUE,FALSE,TRUE,FALSE,"""event"",""trial"",""time""
""fullscreenenter"",""5"",""12958""
","
","
","""event"",""trial"",""time""
""fullscreenenter"",""5"",""12958""
","
",NA,images/earth.jpg,NA,NA,NA,NA,NA,NA,NA,NA,NA,NA,NA,NA,NA,fixation,NA,NA,NA,NA,NA,NA,sub87
d3-animate-choice,85,443104,0.0-61.0-0.8,TRUE,FALSE,TRUE,FALSE,"""event"",""trial"",""time""
""fullscreenenter"",""5"",""12958""
","
","
","""event"",""trial"",""time""
""fullscreenenter"",""5"",""12958""
","
",834.4250000081956,NA,49,NA,NA,3000,1,NA,NA,images/earth.jpg,images/tutrocket1,images/tutrocket2,null,images/tutrocket2,NA,1,practice,null,1,NA,NA,NA,sub87
d3-animate-choice,86,445808,0.0-61.0-1.8,TRUE,FALSE,TRUE,FALSE,"""event"",""trial"",""time""
""fullscreenenter"",""5"",""12958""
","
","
","""event"",""trial"",""time""
""fullscreenenter"",""5"",""12958""
","
",700.3699999768287,NA,49,NA,NA,3000,1,NA,NA,images/tutgreenplanet.jpg,images/tutalien2,images/tutalien1,images/tutrocket2,images/tutalien1,images/nothing.png,2,practice,true,1,common,0,2020-06-23T16:51:24Z,sub87
two-step-fixation,87,446811,0.0-61.0-2.8,TRUE,FALSE,TRUE,FALSE,"""event"",""trial"",""time""
""fullscreenenter"",""5"",""12958""
","
","
","""event"",""trial"",""time""
""fullscreenenter"",""5"",""12958""
","
",NA,images/earth.jpg,NA,NA,NA,NA,NA,NA,NA,NA,NA,NA,NA,NA,NA,fixation,NA,NA,NA,NA,NA,NA,sub87
d3-animate-choice,88,449192,0.0-61.0-0.9,TRUE,FALSE,TRUE,FALSE,"""event"",""trial"",""time""
""fullscreenenter"",""5"",""12958""
","
","
","""event"",""trial"",""time""
""fullscreenenter"",""5"",""12958""
","
",377.3949999595061,NA,48,NA,NA,3000,1,NA,NA,images/earth.jpg,images/tutrocket1,images/tutrocket2,null,images/tutrocket1,NA,1,practice,null,2,NA,NA,NA,sub87
d3-animate-choice,89,452591,0.0-61.0-1.9,TRUE,FALSE,TRUE,FALSE,"""event"",""trial"",""time""
""fullscreenenter"",""5"",""12958""
","
","
","""event"",""trial"",""time""
""fullscreenenter"",""5"",""12958""
","
",1397.2000000067055,NA,49,NA,NA,3000,1,NA,NA,images/tutyellowplanet.jpg,images/tutalien4,images/tutalien3,images/tutrocket1,images/tutalien3,images/nothing.png,2,practice,true,1,common,0,2020-06-23T16:51:31Z,sub87
two-step-fixation,90,453596,0.0-61.0-2.9,TRUE,FALSE,TRUE,FALSE,"""event"",""trial"",""time""
""fullscreenenter"",""5"",""12958""
","
","
","""event"",""trial"",""time""
""fullscreenenter"",""5"",""12958""
","
",NA,images/earth.jpg,NA,NA,NA,NA,NA,NA,NA,NA,NA,NA,NA,NA,NA,fixation,NA,NA,NA,NA,NA,NA,sub87
d3-animate-choice,91,455935,0.0-61.0-0.10,TRUE,FALSE,TRUE,FALSE,"""event"",""trial"",""time""
""fullscreenenter"",""5"",""12958""
","
","
","""event"",""trial"",""time""
""fullscreenenter"",""5"",""12958""
","
",337.195000029169,NA,48,NA,NA,3000,1,NA,NA,images/earth.jpg,images/tutrocket1,images/tutrocket2,null,images/tutrocket1,NA,1,practice,null,2,NA,NA,NA,sub87
d3-animate-choice,92,459064,0.0-61.0-1.10,TRUE,FALSE,TRUE,FALSE,"""event"",""trial"",""time""
""fullscreenenter"",""5"",""12958""
","
","
","""event"",""trial"",""time""
""fullscreenenter"",""5"",""12958""
","
",1125.8549999911338,NA,48,NA,NA,3000,1,NA,NA,images/tutgreenplanet.jpg,images/tutalien2,images/tutalien1,images/tutrocket1,images/tutalien2,images/nothing.png,2,practice,false,2,rare,0,2020-06-23T16:51:37Z,sub87
two-step-fixation,93,460067,0.0-61.0-2.10,TRUE,FALSE,TRUE,FALSE,"""event"",""trial"",""time""
""fullscreenenter"",""5"",""12958""
","
","
","""event"",""trial"",""time""
""fullscreenenter"",""5"",""12958""
","
",NA,images/earth.jpg,NA,NA,NA,NA,NA,NA,NA,NA,NA,NA,NA,NA,NA,fixation,NA,NA,NA,NA,NA,NA,sub87
d3-animate-choice,94,462392,0.0-61.0-0.11,TRUE,FALSE,TRUE,FALSE,"""event"",""trial"",""time""
""fullscreenenter"",""5"",""12958""
","
","
","""event"",""trial"",""time""
""fullscreenenter"",""5"",""12958""
","
",321.49500004015863,NA,49,NA,NA,3000,1,NA,NA,images/earth.jpg,images/tutrocket1,images/tutrocket2,null,images/tutrocket2,NA,1,practice,null,1,NA,NA,NA,sub87
d3-animate-choice,95,466396,0.0-61.0-1.11,TRUE,FALSE,TRUE,FALSE,"""event"",""trial"",""time""
""fullscreenenter"",""5"",""12958""
","
","
","""event"",""trial"",""time""
""fullscreenenter"",""5"",""12958""
","
",null,NA,null,NA,NA,3000,0,NA,NA,images/tutgreenplanet.jpg,images/tutalien2,images/tutalien1,images/tutrocket2,NA,NA,2,practice,true,NA,common,0,2020-06-23T16:51:45Z,sub87
two-step-fixation,96,467399,0.0-61.0-2.11,TRUE,FALSE,TRUE,FALSE,"""event"",""trial"",""time""
""fullscreenenter"",""5"",""12958""
","
","
","""event"",""trial"",""time""
""fullscreenenter"",""5"",""12958""
","
",NA,images/earth.jpg,NA,NA,NA,NA,NA,NA,NA,NA,NA,NA,NA,NA,NA,fixation,NA,NA,NA,NA,NA,NA,sub87
d3-animate-choice,97,469841,0.0-61.0-0.12,TRUE,FALSE,TRUE,FALSE,"""event"",""trial"",""time""
""fullscreenenter"",""5"",""12958""
","
","
","""event"",""trial"",""time""
""fullscreenenter"",""5"",""12958""
","
",438.98500001523644,NA,48,NA,NA,3000,1,"750.9650000138208,1374.7049999656156,1694.6949999546632,1934.60999999661,2190.7999999821186,2374.6749999700114",494948484848,images/earth.jpg,images/tutrocket1,images/tutrocket2,null,images/tutrocket1,NA,1,practice,null,2,NA,NA,NA,sub87
d3-animate-choice,98,471977,0.0-61.0-1.12,TRUE,FALSE,TRUE,FALSE,"""event"",""trial"",""time""
""fullscreenenter"",""5"",""12958""
","
","
","""event"",""trial"",""time""
""fullscreenenter"",""5"",""12958""
","
",133.20000004023314,NA,48,NA,NA,3000,1,"317.1050000237301,716.9749999884516,933.0850000260398,1133.239999995567,1333.1900000339374,1541.1399999866262,1773.6949999816716,1973.2699999585748",4848484848484848,images/tutyellowplanet.jpg,images/tutalien4,images/tutalien3,images/tutrocket1,images/tutalien4,images/t.png,2,practice,true,2,common,1,2020-06-23T16:51:50Z,sub87
two-step-fixation,99,472980,0.0-61.0-2.12,TRUE,FALSE,TRUE,FALSE,"""event"",""trial"",""time""
""fullscreenenter"",""5"",""12958""
","
","
","""event"",""trial"",""time""
""fullscreenenter"",""5"",""12958""
","
",NA,images/earth.jpg,NA,NA,NA,NA,NA,NA,NA,NA,NA,NA,NA,NA,NA,fixation,NA,NA,NA,NA,NA,NA,sub87
d3-animate-choice,100,475136,0.0-61.0-0.13,TRUE,FALSE,TRUE,FALSE,"""event"",""trial"",""time""
""fullscreenenter"",""5"",""12958""
","
","
","""event"",""trial"",""time""
""fullscreenenter"",""5"",""12958""
","
",153.83500000461936,NA,48,NA,NA,3000,1,"585.7149999355897,809.69499994535,1281.6800000146031,1809.8799999570474",48484848,images/earth.jpg,images/tutrocket1,images/tutrocket2,null,images/tutrocket1,NA,1,practice,null,2,NA,NA,NA,sub87
d3-animate-choice,101,477329,0.0-61.0-1.13,TRUE,FALSE,TRUE,FALSE,"""event"",""trial"",""time""
""fullscreenenter"",""5"",""12958""
","
","
","""event"",""trial"",""time""
""fullscreenenter"",""5"",""12958""
","
",189.19499998446554,NA,48,NA,NA,3000,1,"717.1399999642745,1253.2049999572337,1765.1349999941885,1797.0799999311566",48484848,images/tutgreenplanet.jpg,images/tutalien2,images/tutalien1,images/tutrocket1,images/tutalien2,images/nothing.png,2,practice,false,2,rare,0,2020-06-23T16:51:55Z,sub87
two-step-fixation,102,478332,0.0-61.0-2.13,TRUE,FALSE,TRUE,FALSE,"""event"",""trial"",""time""
""fullscreenenter"",""5"",""12958""
","
","
","""event"",""trial"",""time""
""fullscreenenter"",""5"",""12958""
","
",NA,images/earth.jpg,NA,NA,NA,NA,NA,NA,NA,NA,NA,NA,NA,NA,NA,fixation,NA,NA,NA,NA,NA,NA,sub87
d3-animate-choice,103,480449,0.0-61.0-0.14,TRUE,FALSE,TRUE,FALSE,"""event"",""trial"",""time""
""fullscreenenter"",""5"",""12958""
","
","
","""event"",""trial"",""time""
""fullscreenenter"",""5"",""12958""
","
",113.32000000402331,NA,49,NA,NA,3000,1,NA,NA,images/earth.jpg,images/tutrocket1,images/tutrocket2,null,images/tutrocket2,NA,1,practice,null,1,NA,NA,NA,sub87
d3-animate-choice,104,483152,0.0-61.0-1.14,TRUE,FALSE,TRUE,FALSE,"""event"",""trial"",""time""
""fullscreenenter"",""5"",""12958""
","
","
","""event"",""trial"",""time""
""fullscreenenter"",""5"",""12958""
","
",701.0700000682846,NA,48,NA,NA,3000,1,NA,NA,images/tutyellowplanet.jpg,images/tutalien4,images/tutalien3,images/tutrocket2,images/tutalien4,images/t.png,2,practice,false,2,rare,1,2020-06-23T16:52:01Z,sub87
two-step-fixation,105,484154,0.0-61.0-2.14,TRUE,FALSE,TRUE,FALSE,"""event"",""trial"",""time""
""fullscreenenter"",""5"",""12958""
","
","
","""event"",""trial"",""time""
""fullscreenenter"",""5"",""12958""
","
",NA,images/earth.jpg,NA,NA,NA,NA,NA,NA,NA,NA,NA,NA,NA,NA,NA,fixation,NA,NA,NA,NA,NA,NA,sub87
d3-animate-choice,106,488157,0.0-61.0-0.15,TRUE,FALSE,TRUE,FALSE,"""event"",""trial"",""time""
""fullscreenenter"",""5"",""12958""
","
","
","""event"",""trial"",""time""
""fullscreenenter"",""5"",""12958""
","
",2026.8249999498948,NA,48,NA,NA,3000,1,NA,NA,images/earth.jpg,images/tutrocket1,images/tutrocket2,null,images/tutrocket1,NA,1,practice,null,2,NA,NA,NA,sub87
d3-animate-choice,107,490993,0.0-61.0-1.15,TRUE,FALSE,TRUE,FALSE,"""event"",""trial"",""time""
""fullscreenenter"",""5"",""12958""
","
","
","""event"",""trial"",""time""
""fullscreenenter"",""5"",""12958""
","
",832.2199999820441,NA,48,NA,NA,3000,1,NA,NA,images/tutyellowplanet.jpg,images/tutalien4,images/tutalien3,images/tutrocket1,images/tutalien4,images/nothing.png,2,practice,true,2,common,0,2020-06-23T16:52:09Z,sub87
two-step-fixation,108,491996,0.0-61.0-2.15,TRUE,FALSE,TRUE,FALSE,"""event"",""trial"",""time""
""fullscreenenter"",""5"",""12958""
","
","
","""event"",""trial"",""time""
""fullscreenenter"",""5"",""12958""
","
",NA,images/earth.jpg,NA,NA,NA,NA,NA,NA,NA,NA,NA,NA,NA,NA,NA,fixation,NA,NA,NA,NA,NA,NA,sub87
d3-animate-choice,109,494657,0.0-61.0-0.16,TRUE,FALSE,TRUE,FALSE,"""event"",""trial"",""time""
""fullscreenenter"",""5"",""12958""
","
","
","""event"",""trial"",""time""
""fullscreenenter"",""5"",""12958""
","
",657.3149999603629,NA,49,NA,NA,3000,1,NA,NA,images/earth.jpg,images/tutrocket1,images/tutrocket2,null,images/tutrocket2,NA,1,practice,null,1,NA,NA,NA,sub87
d3-animate-choice,110,497712,0.0-61.0-1.16,TRUE,FALSE,TRUE,FALSE,"""event"",""trial"",""time""
""fullscreenenter"",""5"",""12958""
","
","
","""event"",""trial"",""time""
""fullscreenenter"",""5"",""12958""
","
",1052.5399999460205,NA,49,NA,NA,3000,1,NA,NA,images/tutgreenplanet.jpg,images/tutalien2,images/tutalien1,images/tutrocket2,images/tutalien1,images/nothing.png,2,practice,true,1,common,0,2020-06-23T16:52:16Z,sub87
two-step-fixation,111,498715,0.0-61.0-2.16,TRUE,FALSE,TRUE,FALSE,"""event"",""trial"",""time""
""fullscreenenter"",""5"",""12958""
","
","
","""event"",""trial"",""time""
""fullscreenenter"",""5"",""12958""
","
",NA,images/earth.jpg,NA,NA,NA,NA,NA,NA,NA,NA,NA,NA,NA,NA,NA,fixation,NA,NA,NA,NA,NA,NA,sub87
d3-animate-choice,112,501137,0.0-61.0-0.17,TRUE,FALSE,TRUE,FALSE,"""event"",""trial"",""time""
""fullscreenenter"",""5"",""12958""
","
","
","""event"",""trial"",""time""
""fullscreenenter"",""5"",""12958""
","
",419.20999996364117,NA,48,NA,NA,3000,1,NA,NA,images/earth.jpg,images/tutrocket1,images/tutrocket2,null,images/tutrocket1,NA,1,practice,null,2,NA,NA,NA,sub87
d3-animate-choice,113,503865,0.0-61.0-1.17,TRUE,FALSE,TRUE,FALSE,"""event"",""trial"",""time""
""fullscreenenter"",""5"",""12958""
","
","
","""event"",""trial"",""time""
""fullscreenenter"",""5"",""12958""
","
",724.2899999255314,NA,48,NA,NA,3000,1,NA,NA,images/tutyellowplanet.jpg,images/tutalien4,images/tutalien3,images/tutrocket1,images/tutalien4,images/t.png,2,practice,true,2,common,1,2020-06-23T16:52:22Z,sub87
two-step-fixation,114,504868,0.0-61.0-2.17,TRUE,FALSE,TRUE,FALSE,"""event"",""trial"",""time""
""fullscreenenter"",""5"",""12958""
","
","
","""event"",""trial"",""time""
""fullscreenenter"",""5"",""12958""
","
",NA,images/earth.jpg,NA,NA,NA,NA,NA,NA,NA,NA,NA,NA,NA,NA,NA,fixation,NA,NA,NA,NA,NA,NA,sub87
d3-animate-choice,115,508025,0.0-61.0-0.18,TRUE,FALSE,TRUE,FALSE,"""event"",""trial"",""time""
""fullscreenenter"",""5"",""12958""
","
","
","""event"",""trial"",""time""
""fullscreenenter"",""5"",""12958""
","
",1153.5300000105053,NA,48,NA,NA,3000,1,NA,NA,images/earth.jpg,images/tutrocket1,images/tutrocket2,null,images/tutrocket1,NA,1,practice,null,2,NA,NA,NA,sub87
d3-animate-choice,116,511497,0.0-61.0-1.18,TRUE,FALSE,TRUE,FALSE,"""event"",""trial"",""time""
""fullscreenenter"",""5"",""12958""
","
","
","""event"",""trial"",""time""
""fullscreenenter"",""5"",""12958""
","
",1468.8099999912083,NA,49,NA,NA,3000,1,1924.7599999653175,49,images/tutgreenplanet.jpg,images/tutalien2,images/tutalien1,images/tutrocket1,images/tutalien1,images/t.png,2,practice,false,1,rare,1,2020-06-23T16:52:30Z,sub87
two-step-fixation,117,512500,0.0-61.0-2.18,TRUE,FALSE,TRUE,FALSE,"""event"",""trial"",""time""
""fullscreenenter"",""5"",""12958""
","
","
","""event"",""trial"",""time""
""fullscreenenter"",""5"",""12958""
","
",NA,images/earth.jpg,NA,NA,NA,NA,NA,NA,NA,NA,NA,NA,NA,NA,NA,fixation,NA,NA,NA,NA,NA,NA,sub87
d3-animate-choice,118,515360,0.0-61.0-0.19,TRUE,FALSE,TRUE,FALSE,"""event"",""trial"",""time""
""fullscreenenter"",""5"",""12958""
","
","
","""event"",""trial"",""time""
""fullscreenenter"",""5"",""12958""
","
",857.7449999283999,NA,48,NA,NA,3000,1,NA,NA,images/earth.jpg,images/tutrocket1,images/tutrocket2,null,images/tutrocket1,NA,1,practice,null,2,NA,NA,NA,sub87
d3-animate-choice,119,517880,0.0-61.0-1.19,TRUE,FALSE,TRUE,FALSE,"""event"",""trial"",""time""
""fullscreenenter"",""5"",""12958""
","
","
","""event"",""trial"",""time""
""fullscreenenter"",""5"",""12958""
","
",516.8650000123307,NA,48,NA,NA,3000,1,NA,NA,images/tutyellowplanet.jpg,images/tutalien4,images/tutalien3,images/tutrocket1,images/tutalien4,images/t.png,2,practice,true,2,common,1,2020-06-23T16:52:36Z,sub87
two-step-fixation,120,518883,0.0-61.0-2.19,TRUE,FALSE,TRUE,FALSE,"""event"",""trial"",""time""
""fullscreenenter"",""5"",""12958""
","
","
","""event"",""trial"",""time""
""fullscreenenter"",""5"",""12958""
","
",NA,images/earth.jpg,NA,NA,NA,NA,NA,NA,NA,NA,NA,NA,NA,NA,NA,fixation,NA,NA,NA,NA,NA,NA,sub87
d3-instructions,121,525511,0.0-62.0,TRUE,FALSE,TRUE,FALSE,"""event"",""trial"",""time""
""fullscreenenter"",""5"",""12958""
","
","
","""event"",""trial"",""time""
""fullscreenenter"",""5"",""12958""
","
",NA,NA,NA,NA,NA,NA,NA,NA,NA,NA,NA,NA,NA,NA,NA,NA,NA,NA,NA,NA,NA,NA,sub87
audio-keyboard-response,122,532536,0.0-63.0,TRUE,FALSE,TRUE,FALSE,"""event"",""trial"",""time""
""fullscreenenter"",""5"",""12958""
","
","
","""event"",""trial"",""time""
""fullscreenenter"",""5"",""12958""
","
",7019,audio/instructions/treasure_feedback.wav,32,NA,NA,NA,NA,NA,NA,NA,NA,NA,NA,NA,NA,NA,NA,NA,NA,NA,NA,NA,sub87
d3-instructions,123,547943,0.0-64.0,TRUE,FALSE,TRUE,FALSE,"""event"",""trial"",""time""
""fullscreenenter"",""5"",""12958""
","
","
","""event"",""trial"",""time""
""fullscreenenter"",""5"",""12958""
","
",NA,NA,NA,NA,NA,NA,NA,NA,NA,NA,NA,NA,NA,NA,NA,NA,NA,NA,NA,NA,NA,NA,sub87
d3-instructions,124,561975,0.0-65.0,TRUE,FALSE,TRUE,FALSE,"""event"",""trial"",""time""
""fullscreenenter"",""5"",""12958""
","
","
","""event"",""trial"",""time""
""fullscreenenter"",""5"",""12958""
","
",NA,NA,NA,NA,NA,NA,NA,NA,NA,NA,NA,NA,NA,NA,NA,NA,NA,NA,NA,NA,NA,NA,sub87
d3-instructions,125,586536,0.0-66.0,TRUE,FALSE,TRUE,FALSE,"""event"",""trial"",""time""
""fullscreenenter"",""5"",""12958""
","
","
","""event"",""trial"",""time""
""fullscreenenter"",""5"",""12958""
","
",NA,NA,NA,NA,NA,NA,NA,NA,NA,NA,NA,NA,NA,NA,NA,NA,NA,NA,NA,NA,NA,NA,sub87
d3-instructions,126,602520,0.0-67.0,TRUE,FALSE,TRUE,FALSE,"""event"",""trial"",""time""
""fullscreenenter"",""5"",""12958""
","
","
","""event"",""trial"",""time""
""fullscreenenter"",""5"",""12958""
","
",NA,NA,NA,NA,NA,NA,NA,NA,NA,NA,NA,NA,NA,NA,NA,NA,NA,NA,NA,NA,NA,NA,sub87
d3-instructions,127,608488,0.0-68.0,TRUE,FALSE,TRUE,FALSE,"""event"",""trial"",""time""
""fullscreenenter"",""5"",""12958""
","
","
","""event"",""trial"",""time""
""fullscreenenter"",""5"",""12958""
","
",NA,NA,NA,NA,NA,NA,NA,NA,NA,NA,NA,NA,NA,NA,NA,NA,NA,NA,NA,NA,NA,NA,sub87
instructions-quiz,128,611634,0.0-69.0,TRUE,FALSE,TRUE,FALSE,"""event"",""trial"",""time""
""fullscreenenter"",""5"",""12958""
","
","
","""event"",""trial"",""time""
""fullscreenenter"",""5"",""12958""
","
",3118.9099999610335,audio/quiz/Q1_Prompt.wav,NA,1,NA,NA,NA,NA,NA,NA,NA,NA,NA,NA,NA,NA,NA,NA,NA,NA,NA,NA,sub87
audio-keyboard-response,129,620798,0.0-70.0,TRUE,FALSE,TRUE,FALSE,"""event"",""trial"",""time""
""fullscreenenter"",""5"",""12958""
","
","
","""event"",""trial"",""time""
""fullscreenenter"",""5"",""12958""
","
",null,audio/quiz/Q1_Correct.wav,null,NA,NA,NA,NA,NA,NA,NA,NA,NA,NA,NA,NA,NA,NA,NA,NA,NA,NA,NA,sub87
instructions-quiz,130,627169,0.0-71.0,TRUE,FALSE,TRUE,FALSE,"""event"",""trial"",""time""
""fullscreenenter"",""5"",""12958""
","
","
","""event"",""trial"",""time""
""fullscreenenter"",""5"",""12958""
","
",6370.059999986552,audio/quiz/Q2_Prompt.wav,NA,0,NA,NA,NA,NA,NA,NA,NA,NA,NA,NA,NA,NA,NA,NA,NA,NA,NA,NA,sub87
audio-keyboard-response,131,640037,0.0-72.0,TRUE,FALSE,TRUE,FALSE,"""event"",""trial"",""time""
""fullscreenenter"",""5"",""12958""
","
","
","""event"",""trial"",""time""
""fullscreenenter"",""5"",""12958""
","
",null,audio/quiz/Q2_Correct.wav,null,NA,NA,NA,NA,NA,NA,NA,NA,NA,NA,NA,NA,NA,NA,NA,NA,NA,NA,NA,sub87
instructions-quiz,132,643234,0.0-73.0,TRUE,FALSE,TRUE,FALSE,"""event"",""trial"",""time""
""fullscreenenter"",""5"",""12958""
","
","
","""event"",""trial"",""time""
""fullscreenenter"",""5"",""12958""
","
",3195.1699999626726,audio/quiz/Q3_Prompt.wav,NA,1,NA,NA,NA,NA,NA,NA,NA,NA,NA,NA,NA,NA,NA,NA,NA,NA,NA,NA,sub87
audio-keyboard-response,133,649027,0.0-74.0,TRUE,FALSE,TRUE,FALSE,"""event"",""trial"",""time""
""fullscreenenter"",""5"",""12958""
","
","
","""event"",""trial"",""time""
""fullscreenenter"",""5"",""12958""
","
",null,audio/quiz/Q3_Correct.wav,null,NA,NA,NA,NA,NA,NA,NA,NA,NA,NA,NA,NA,NA,NA,NA,NA,NA,NA,NA,sub87
d3-instructions,134,662344,0.0-75.0,TRUE,FALSE,TRUE,FALSE,"""event"",""trial"",""time""
""fullscreenenter"",""5"",""12958""
","
","
","""event"",""trial"",""time""
""fullscreenenter"",""5"",""12958""
","
",NA,NA,NA,NA,NA,NA,NA,NA,NA,NA,NA,NA,NA,NA,NA,NA,NA,NA,NA,NA,NA,NA,sub87
d3-animate-choice,135,666348,0.0-76.0-0.0,TRUE,FALSE,TRUE,FALSE,"""event"",""trial"",""time""
""fullscreenenter"",""5"",""12958""
","
","
","""event"",""trial"",""time""
""fullscreenenter"",""5"",""12958""
","
",2509.5749999163672,NA,48,NA,NA,3000,1,NA,NA,images/earth.jpg,images/rocket2,images/rocket1,null,images/rocket2,NA,1,real,null,2,NA,NA,NA,sub87
d3-animate-choice,136,669064,0.0-76.0-1.0,TRUE,FALSE,TRUE,FALSE,"""event"",""trial"",""time""
""fullscreenenter"",""5"",""12958""
","
","
","""event"",""trial"",""time""
""fullscreenenter"",""5"",""12958""
","
",713.6699999682605,NA,48,NA,NA,3000,1,NA,NA,images/redplanet1.jpg,images/alien2,images/alien1,images/rocket2,images/alien2,images/t.png,2,real,true,2,common,1,2020-06-23T16:55:07Z,sub87
two-step-fixation,137,670067,0.0-76.0-2.0,TRUE,FALSE,TRUE,FALSE,"""event"",""trial"",""time""
""fullscreenenter"",""5"",""12958""
","
","
","""event"",""trial"",""time""
""fullscreenenter"",""5"",""12958""
","
",NA,images/earth.jpg,NA,NA,NA,NA,NA,NA,NA,NA,NA,NA,NA,NA,NA,fixation,NA,NA,NA,NA,NA,NA,sub87
d3-animate-choice,138,674070,0.0-76.0-0.1,TRUE,FALSE,TRUE,FALSE,"""event"",""trial"",""time""
""fullscreenenter"",""5"",""12958""
","
","
","""event"",""trial"",""time""
""fullscreenenter"",""5"",""12958""
","
",986.3100000657141,NA,50,NA,NA,3000,1,"1882.3100000154227,2266.1550000775605,2642.500000074506,2914.380000089295",50504949,images/earth.jpg,images/rocket2,images/rocket1,null,images/rocket1,NA,1,real,null,NA,NA,NA,NA,sub87
d3-animate-choice,139,677184,0.0-76.0-1.1,TRUE,FALSE,TRUE,FALSE,"""event"",""trial"",""time""
""fullscreenenter"",""5"",""12958""
","
","
","""event"",""trial"",""time""
""fullscreenenter"",""5"",""12958""
","
",1111.4300000481308,NA,49,NA,NA,3000,1,NA,NA,images/purpleplanet.jpg,images/alien4,images/alien3,images/rocket1,images/alien3,images/t.png,2,real,true,1,common,1,2020-06-23T16:55:15Z,sub87
two-step-fixation,140,678187,0.0-76.0-2.1,TRUE,FALSE,TRUE,FALSE,"""event"",""trial"",""time""
""fullscreenenter"",""5"",""12958""
","
","
","""event"",""trial"",""time""
""fullscreenenter"",""5"",""12958""
","
",NA,images/earth.jpg,NA,NA,NA,NA,NA,NA,NA,NA,NA,NA,NA,NA,NA,fixation,NA,NA,NA,NA,NA,NA,sub87
d3-animate-choice,141,680553,0.0-76.0-0.2,TRUE,FALSE,TRUE,FALSE,"""event"",""trial"",""time""
""fullscreenenter"",""5"",""12958""
","
","
","""event"",""trial"",""time""
""fullscreenenter"",""5"",""12958""
","
",362.1899998979643,NA,48,NA,NA,3000,1,NA,NA,images/earth.jpg,images/rocket2,images/rocket1,null,images/rocket2,NA,1,real,null,2,NA,NA,NA,sub87
d3-animate-choice,142,683376,0.0-76.0-1.2,TRUE,FALSE,TRUE,FALSE,"""event"",""trial"",""time""
""fullscreenenter"",""5"",""12958""
","
","
","""event"",""trial"",""time""
""fullscreenenter"",""5"",""12958""
","
",821.0699999472126,NA,48,NA,NA,3000,1,NA,NA,images/redplanet1.jpg,images/alien2,images/alien1,images/rocket2,images/alien2,images/nothing.png,2,real,true,2,common,0,2020-06-23T16:55:21Z,sub87
two-step-fixation,143,684380,0.0-76.0-2.2,TRUE,FALSE,TRUE,FALSE,"""event"",""trial"",""time""
""fullscreenenter"",""5"",""12958""
","
","
","""event"",""trial"",""time""
""fullscreenenter"",""5"",""12958""
","
",NA,images/earth.jpg,NA,NA,NA,NA,NA,NA,NA,NA,NA,NA,NA,NA,NA,fixation,NA,NA,NA,NA,NA,NA,sub87
d3-animate-choice,144,687648,0.0-76.0-0.3,TRUE,FALSE,TRUE,FALSE,"""event"",""trial"",""time""
""fullscreenenter"",""5"",""12958""
","
","
","""event"",""trial"",""time""
""fullscreenenter"",""5"",""12958""
","
",1265.9200000343844,NA,48,NA,NA,3000,1,NA,NA,images/earth.jpg,images/rocket2,images/rocket1,null,images/rocket2,NA,1,real,null,2,NA,NA,NA,sub87
d3-animate-choice,145,690136,0.0-76.0-1.3,TRUE,FALSE,TRUE,FALSE,"""event"",""trial"",""time""
""fullscreenenter"",""5"",""12958""
","
","
","""event"",""trial"",""time""
""fullscreenenter"",""5"",""12958""
","
",485.12500000651926,NA,49,NA,NA,3000,1,NA,NA,images/redplanet1.jpg,images/alien2,images/alien1,images/rocket2,images/alien1,images/t.png,2,real,true,1,common,1,2020-06-23T16:55:28Z,sub87
two-step-fixation,146,691139,0.0-76.0-2.3,TRUE,FALSE,TRUE,FALSE,"""event"",""trial"",""time""
""fullscreenenter"",""5"",""12958""
","
","
","""event"",""trial"",""time""
""fullscreenenter"",""5"",""12958""
","
",NA,images/earth.jpg,NA,NA,NA,NA,NA,NA,NA,NA,NA,NA,NA,NA,NA,fixation,NA,NA,NA,NA,NA,NA,sub87
d3-animate-choice,147,694041,0.0-76.0-0.4,TRUE,FALSE,TRUE,FALSE,"""event"",""trial"",""time""
""fullscreenenter"",""5"",""12958""
","
","
","""event"",""trial"",""time""
""fullscreenenter"",""5"",""12958""
","
",898.2400000095367,NA,49,NA,NA,3000,1,NA,NA,images/earth.jpg,images/rocket2,images/rocket1,null,images/rocket1,NA,1,real,null,1,NA,NA,NA,sub87
d3-animate-choice,148,696776,0.0-76.0-1.4,TRUE,FALSE,TRUE,FALSE,"""event"",""trial"",""time""
""fullscreenenter"",""5"",""12958""
","
","
","""event"",""trial"",""time""
""fullscreenenter"",""5"",""12958""
","
",732.5699999928474,NA,49,NA,NA,3000,1,NA,NA,images/purpleplanet.jpg,images/alien4,images/alien3,images/rocket1,images/alien3,images/t.png,2,real,true,1,common,1,2020-06-23T16:55:35Z,sub87
two-step-fixation,149,697779,0.0-76.0-2.4,TRUE,FALSE,TRUE,FALSE,"""event"",""trial"",""time""
""fullscreenenter"",""5"",""12958""
","
","
","""event"",""trial"",""time""
""fullscreenenter"",""5"",""12958""
","
",NA,images/earth.jpg,NA,NA,NA,NA,NA,NA,NA,NA,NA,NA,NA,NA,NA,fixation,NA,NA,NA,NA,NA,NA,sub87
d3-animate-choice,150,700161,0.0-76.0-0.5,TRUE,FALSE,TRUE,FALSE,"""event"",""trial"",""time""
""fullscreenenter"",""5"",""12958""
","
","
","""event"",""trial"",""time""
""fullscreenenter"",""5"",""12958""
","
",379.27499995566905,NA,49,NA,NA,3000,1,NA,NA,images/earth.jpg,images/rocket2,images/rocket1,null,images/rocket1,NA,1,real,null,1,NA,NA,NA,sub87
d3-animate-choice,151,702544,0.0-76.0-1.5,TRUE,FALSE,TRUE,FALSE,"""event"",""trial"",""time""
""fullscreenenter"",""5"",""12958""
","
","
","""event"",""trial"",""time""
""fullscreenenter"",""5"",""12958""
","
",380.1300000632182,NA,49,NA,NA,3000,1,NA,NA,images/purpleplanet.jpg,images/alien4,images/alien3,images/rocket1,images/alien3,images/t.png,2,real,true,1,common,1,2020-06-23T16:55:41Z,sub87
two-step-fixation,152,703546,0.0-76.0-2.5,TRUE,FALSE,TRUE,FALSE,"""event"",""trial"",""time""
""fullscreenenter"",""5"",""12958""
","
","
","""event"",""trial"",""time""
""fullscreenenter"",""5"",""12958""
","
",NA,images/earth.jpg,NA,NA,NA,NA,NA,NA,NA,NA,NA,NA,NA,NA,NA,fixation,NA,NA,NA,NA,NA,NA,sub87
d3-animate-choice,153,705977,0.0-76.0-0.6,TRUE,FALSE,TRUE,FALSE,"""event"",""trial"",""time""
""fullscreenenter"",""5"",""12958""
","
","
","""event"",""trial"",""time""
""fullscreenenter"",""5"",""12958""
","
",427.2900000214577,NA,49,NA,NA,3000,1,NA,NA,images/earth.jpg,images/rocket2,images/rocket1,null,images/rocket1,NA,1,real,null,1,NA,NA,NA,sub87
d3-animate-choice,154,708642,0.0-76.0-1.6,TRUE,FALSE,TRUE,FALSE,"""event"",""trial"",""time""
""fullscreenenter"",""5"",""12958""
","
","
","""event"",""trial"",""time""
""fullscreenenter"",""5"",""12958""
","
",660.5800000252202,NA,49,NA,NA,3000,1,NA,NA,images/purpleplanet.jpg,images/alien4,images/alien3,images/rocket1,images/alien3,images/nothing.png,2,real,true,1,common,0,2020-06-23T16:55:47Z,sub87
two-step-fixation,155,709645,0.0-76.0-2.6,TRUE,FALSE,TRUE,FALSE,"""event"",""trial"",""time""
""fullscreenenter"",""5"",""12958""
","
","
","""event"",""trial"",""time""
""fullscreenenter"",""5"",""12958""
","
",NA,images/earth.jpg,NA,NA,NA,NA,NA,NA,NA,NA,NA,NA,NA,NA,NA,fixation,NA,NA,NA,NA,NA,NA,sub87
d3-animate-choice,156,712290,0.0-76.0-0.7,TRUE,FALSE,TRUE,FALSE,"""event"",""trial"",""time""
""fullscreenenter"",""5"",""12958""
","
","
","""event"",""trial"",""time""
""fullscreenenter"",""5"",""12958""
","
",640.5800000065938,NA,49,NA,NA,3000,1,NA,NA,images/earth.jpg,images/rocket2,images/rocket1,null,images/rocket1,NA,1,real,null,1,NA,NA,NA,sub87
d3-animate-choice,157,714713,0.0-76.0-1.7,TRUE,FALSE,TRUE,FALSE,"""event"",""trial"",""time""
""fullscreenenter"",""5"",""12958""
","
","
","""event"",""trial"",""time""
""fullscreenenter"",""5"",""12958""
","
",419.60000002291054,NA,48,NA,NA,3000,1,NA,NA,images/purpleplanet.jpg,images/alien4,images/alien3,images/rocket1,images/alien4,images/t.png,2,real,true,2,common,1,2020-06-23T16:55:53Z,sub87
two-step-fixation,158,715716,0.0-76.0-2.7,TRUE,FALSE,TRUE,FALSE,"""event"",""trial"",""time""
""fullscreenenter"",""5"",""12958""
","
","
","""event"",""trial"",""time""
""fullscreenenter"",""5"",""12958""
","
",NA,images/earth.jpg,NA,NA,NA,NA,NA,NA,NA,NA,NA,NA,NA,NA,NA,fixation,NA,NA,NA,NA,NA,NA,sub87
d3-animate-choice,159,718682,0.0-76.0-0.8,TRUE,FALSE,TRUE,FALSE,"""event"",""trial"",""time""
""fullscreenenter"",""5"",""12958""
","
","
","""event"",""trial"",""time""
""fullscreenenter"",""5"",""12958""
","
",961.6099999984726,NA,48,NA,NA,3000,1,NA,NA,images/earth.jpg,images/rocket2,images/rocket1,null,images/rocket2,NA,1,real,null,2,NA,NA,NA,sub87
d3-animate-choice,160,721032,0.0-76.0-1.8,TRUE,FALSE,TRUE,FALSE,"""event"",""trial"",""time""
""fullscreenenter"",""5"",""12958""
","
","
","""event"",""trial"",""time""
""fullscreenenter"",""5"",""12958""
","
",348.5299999592826,NA,48,NA,NA,3000,1,NA,NA,images/redplanet1.jpg,images/alien2,images/alien1,images/rocket2,images/alien2,images/t.png,2,real,true,2,common,1,2020-06-23T16:55:59Z,sub87
two-step-fixation,161,722035,0.0-76.0-2.8,TRUE,FALSE,TRUE,FALSE,"""event"",""trial"",""time""
""fullscreenenter"",""5"",""12958""
","
","
","""event"",""trial"",""time""
""fullscreenenter"",""5"",""12958""
","
",NA,images/earth.jpg,NA,NA,NA,NA,NA,NA,NA,NA,NA,NA,NA,NA,NA,fixation,NA,NA,NA,NA,NA,NA,sub87
d3-animate-choice,162,724729,0.0-76.0-0.9,TRUE,FALSE,TRUE,FALSE,"""event"",""trial"",""time""
""fullscreenenter"",""5"",""12958""
","
","
","""event"",""trial"",""time""
""fullscreenenter"",""5"",""12958""
","
",690.3250000905246,NA,49,NA,NA,3000,1,NA,NA,images/earth.jpg,images/rocket2,images/rocket1,null,images/rocket1,NA,1,real,null,1,NA,NA,NA,sub87
d3-animate-choice,163,727201,0.0-76.0-1.9,TRUE,FALSE,TRUE,FALSE,"""event"",""trial"",""time""
""fullscreenenter"",""5"",""12958""
","
","
","""event"",""trial"",""time""
""fullscreenenter"",""5"",""12958""
","
",469.24999996554106,NA,48,NA,NA,3000,1,NA,NA,images/purpleplanet.jpg,images/alien4,images/alien3,images/rocket1,images/alien4,images/t.png,2,real,true,2,common,1,2020-06-23T16:56:05Z,sub87
two-step-fixation,164,728203,0.0-76.0-2.9,TRUE,FALSE,TRUE,FALSE,"""event"",""trial"",""time""
""fullscreenenter"",""5"",""12958""
","
","
","""event"",""trial"",""time""
""fullscreenenter"",""5"",""12958""
","
",NA,images/earth.jpg,NA,NA,NA,NA,NA,NA,NA,NA,NA,NA,NA,NA,NA,fixation,NA,NA,NA,NA,NA,NA,sub87
d3-animate-choice,165,730528,0.0-76.0-0.10,TRUE,FALSE,TRUE,FALSE,"""event"",""trial"",""time""
""fullscreenenter"",""5"",""12958""
","
","
","""event"",""trial"",""time""
""fullscreenenter"",""5"",""12958""
","
",323.01499997265637,NA,48,NA,NA,3000,1,NA,NA,images/earth.jpg,images/rocket2,images/rocket1,null,images/rocket2,NA,1,real,null,2,NA,NA,NA,sub87
d3-animate-choice,166,733394,0.0-76.0-1.10,TRUE,FALSE,TRUE,FALSE,"""event"",""trial"",""time""
""fullscreenenter"",""5"",""12958""
","
","
","""event"",""trial"",""time""
""fullscreenenter"",""5"",""12958""
","
",861.9049999397248,NA,48,NA,NA,3000,1,NA,NA,images/purpleplanet.jpg,images/alien4,images/alien3,images/rocket2,images/alien4,images/t.png,2,real,false,2,rare,1,2020-06-23T16:56:12Z,sub87
two-step-fixation,167,734397,0.0-76.0-2.10,TRUE,FALSE,TRUE,FALSE,"""event"",""trial"",""time""
""fullscreenenter"",""5"",""12958""
","
","
","""event"",""trial"",""time""
""fullscreenenter"",""5"",""12958""
","
",NA,images/earth.jpg,NA,NA,NA,NA,NA,NA,NA,NA,NA,NA,NA,NA,NA,fixation,NA,NA,NA,NA,NA,NA,sub87
d3-animate-choice,168,736978,0.0-76.0-0.11,TRUE,FALSE,TRUE,FALSE,"""event"",""trial"",""time""
""fullscreenenter"",""5"",""12958""
","
","
","""event"",""trial"",""time""
""fullscreenenter"",""5"",""12958""
","
",577.2450000513345,NA,49,NA,NA,3000,1,NA,NA,images/earth.jpg,images/rocket2,images/rocket1,null,images/rocket1,NA,1,real,null,1,NA,NA,NA,sub87
d3-animate-choice,169,740209,0.0-76.0-1.11,TRUE,FALSE,TRUE,FALSE,"""event"",""trial"",""time""
""fullscreenenter"",""5"",""12958""
","
","
","""event"",""trial"",""time""
""fullscreenenter"",""5"",""12958""
","
",1227.3050000658259,NA,49,NA,NA,3000,1,NA,NA,images/redplanet1.jpg,images/alien2,images/alien1,images/rocket1,images/alien1,images/t.png,2,real,false,1,rare,1,2020-06-23T16:56:18Z,sub87
two-step-fixation,170,741213,0.0-76.0-2.11,TRUE,FALSE,TRUE,FALSE,"""event"",""trial"",""time""
""fullscreenenter"",""5"",""12958""
","
","
","""event"",""trial"",""time""
""fullscreenenter"",""5"",""12958""
","
",NA,images/earth.jpg,NA,NA,NA,NA,NA,NA,NA,NA,NA,NA,NA,NA,NA,fixation,NA,NA,NA,NA,NA,NA,sub87
d3-animate-choice,171,744448,0.0-76.0-0.12,TRUE,FALSE,TRUE,FALSE,"""event"",""trial"",""time""
""fullscreenenter"",""5"",""12958""
","
","
","""event"",""trial"",""time""
""fullscreenenter"",""5"",""12958""
","
",1233.8549999985844,NA,48,NA,NA,3000,1,NA,NA,images/earth.jpg,images/rocket2,images/rocket1,null,images/rocket2,NA,1,real,null,2,NA,NA,NA,sub87
d3-animate-choice,172,746745,0.0-76.0-1.12,TRUE,FALSE,TRUE,FALSE,"""event"",""trial"",""time""
""fullscreenenter"",""5"",""12958""
","
","
","""event"",""trial"",""time""
""fullscreenenter"",""5"",""12958""
","
",293.3499999344349,NA,48,NA,NA,3000,1,NA,NA,images/purpleplanet.jpg,images/alien4,images/alien3,images/rocket2,images/alien4,images/nothing.png,2,real,false,2,rare,0,2020-06-23T16:56:25Z,sub87
two-step-fixation,173,747749,0.0-76.0-2.12,TRUE,FALSE,TRUE,FALSE,"""event"",""trial"",""time""
""fullscreenenter"",""5"",""12958""
","
","
","""event"",""trial"",""time""
""fullscreenenter"",""5"",""12958""
","
",NA,images/earth.jpg,NA,NA,NA,NA,NA,NA,NA,NA,NA,NA,NA,NA,NA,fixation,NA,NA,NA,NA,NA,NA,sub87
d3-animate-choice,174,750617,0.0-76.0-0.13,TRUE,FALSE,TRUE,FALSE,"""event"",""trial"",""time""
""fullscreenenter"",""5"",""12958""
","
","
","""event"",""trial"",""time""
""fullscreenenter"",""5"",""12958""
","
",864.5099999848753,NA,49,NA,NA,3000,1,NA,NA,images/earth.jpg,images/rocket2,images/rocket1,null,images/rocket1,NA,1,real,null,1,NA,NA,NA,sub87
d3-animate-choice,175,753368,0.0-76.0-1.13,TRUE,FALSE,TRUE,FALSE,"""event"",""trial"",""time""
""fullscreenenter"",""5"",""12958""
","
","
","""event"",""trial"",""time""
""fullscreenenter"",""5"",""12958""
","
",749.0599999437109,NA,48,NA,NA,3000,1,NA,NA,images/purpleplanet.jpg,images/alien4,images/alien3,images/rocket1,images/alien4,images/t.png,2,real,true,2,common,1,2020-06-23T16:56:31Z,sub87
two-step-fixation,176,754372,0.0-76.0-2.13,TRUE,FALSE,TRUE,FALSE,"""event"",""trial"",""time""
""fullscreenenter"",""5"",""12958""
","
","
","""event"",""trial"",""time""
""fullscreenenter"",""5"",""12958""
","
",NA,images/earth.jpg,NA,NA,NA,NA,NA,NA,NA,NA,NA,NA,NA,NA,NA,fixation,NA,NA,NA,NA,NA,NA,sub87
d3-animate-choice,177,756945,0.0-76.0-0.14,TRUE,FALSE,TRUE,FALSE,"""event"",""trial"",""time""
""fullscreenenter"",""5"",""12958""
","
","
","""event"",""trial"",""time""
""fullscreenenter"",""5"",""12958""
","
",570.1950000366196,NA,48,NA,NA,3000,1,NA,NA,images/earth.jpg,images/rocket2,images/rocket1,null,images/rocket2,NA,1,real,null,2,NA,NA,NA,sub87
d3-animate-choice,178,759329,0.0-76.0-1.14,TRUE,FALSE,TRUE,FALSE,"""event"",""trial"",""time""
""fullscreenenter"",""5"",""12958""
","
","
","""event"",""trial"",""time""
""fullscreenenter"",""5"",""12958""
","
",380.21499989554286,NA,49,NA,NA,3000,1,NA,NA,images/redplanet1.jpg,images/alien2,images/alien1,images/rocket2,images/alien1,images/nothing.png,2,real,true,1,common,0,2020-06-23T16:56:37Z,sub87
two-step-fixation,179,760331,0.0-76.0-2.14,TRUE,FALSE,TRUE,FALSE,"""event"",""trial"",""time""
""fullscreenenter"",""5"",""12958""
","
","
","""event"",""trial"",""time""
""fullscreenenter"",""5"",""12958""
","
",NA,images/earth.jpg,NA,NA,NA,NA,NA,NA,NA,NA,NA,NA,NA,NA,NA,fixation,NA,NA,NA,NA,NA,NA,sub87
d3-animate-choice,180,762666,0.0-76.0-0.15,TRUE,FALSE,TRUE,FALSE,"""event"",""trial"",""time""
""fullscreenenter"",""5"",""12958""
","
","
","""event"",""trial"",""time""
""fullscreenenter"",""5"",""12958""
","
",330.85999998729676,NA,48,NA,NA,3000,1,NA,NA,images/earth.jpg,images/rocket2,images/rocket1,null,images/rocket2,NA,1,real,null,2,NA,NA,NA,sub87
d3-animate-choice,181,765777,0.0-76.0-1.15,TRUE,FALSE,TRUE,FALSE,"""event"",""trial"",""time""
""fullscreenenter"",""5"",""12958""
","
","
","""event"",""trial"",""time""
""fullscreenenter"",""5"",""12958""
","
",1109.1850000666454,NA,49,NA,NA,3000,1,NA,NA,images/redplanet1.jpg,images/alien2,images/alien1,images/rocket2,images/alien1,images/t.png,2,real,true,1,common,1,2020-06-23T16:56:44Z,sub87
two-step-fixation,182,766780,0.0-76.0-2.15,TRUE,FALSE,TRUE,FALSE,"""event"",""trial"",""time""
""fullscreenenter"",""5"",""12958""
","
","
","""event"",""trial"",""time""
""fullscreenenter"",""5"",""12958""
","
",NA,images/earth.jpg,NA,NA,NA,NA,NA,NA,NA,NA,NA,NA,NA,NA,NA,fixation,NA,NA,NA,NA,NA,NA,sub87
d3-animate-choice,183,769178,0.0-76.0-0.16,TRUE,FALSE,TRUE,FALSE,"""event"",""trial"",""time""
""fullscreenenter"",""5"",""12958""
","
","
","""event"",""trial"",""time""
""fullscreenenter"",""5"",""12958""
","
",393.5450001154095,NA,49,NA,NA,3000,1,NA,NA,images/earth.jpg,images/rocket2,images/rocket1,null,images/rocket1,NA,1,real,null,1,NA,NA,NA,sub87
d3-animate-choice,184,771249,0.0-76.0-1.16,TRUE,FALSE,TRUE,FALSE,"""event"",""trial"",""time""
""fullscreenenter"",""5"",""12958""
","
","
","""event"",""trial"",""time""
""fullscreenenter"",""5"",""12958""
","
",67.67999997828156,NA,49,NA,NA,3000,1,NA,NA,images/purpleplanet.jpg,images/alien4,images/alien3,images/rocket1,images/alien3,images/t.png,2,real,true,1,common,1,2020-06-23T16:56:49Z,sub87
two-step-fixation,185,772253,0.0-76.0-2.16,TRUE,FALSE,TRUE,FALSE,"""event"",""trial"",""time""
""fullscreenenter"",""5"",""12958""
","
","
","""event"",""trial"",""time""
""fullscreenenter"",""5"",""12958""
","
",NA,images/earth.jpg,NA,NA,NA,NA,NA,NA,NA,NA,NA,NA,NA,NA,NA,fixation,NA,NA,NA,NA,NA,NA,sub87
d3-animate-choice,186,774641,0.0-76.0-0.17,TRUE,FALSE,TRUE,FALSE,"""event"",""trial"",""time""
""fullscreenenter"",""5"",""12958""
","
","
","""event"",""trial"",""time""
""fullscreenenter"",""5"",""12958""
","
",385.439999983646,NA,49,NA,NA,3000,1,NA,NA,images/earth.jpg,images/rocket2,images/rocket1,null,images/rocket1,NA,1,real,null,1,NA,NA,NA,sub87
d3-animate-choice,187,777208,0.0-76.0-1.17,TRUE,FALSE,TRUE,FALSE,"""event"",""trial"",""time""
""fullscreenenter"",""5"",""12958""
","
","
","""event"",""trial"",""time""
""fullscreenenter"",""5"",""12958""
","
",564.7249999456108,NA,48,NA,NA,3000,1,NA,NA,images/redplanet1.jpg,images/alien2,images/alien1,images/rocket1,images/alien2,images/t.png,2,real,false,2,rare,1,2020-06-23T16:56:55Z,sub87
two-step-fixation,188,778211,0.0-76.0-2.17,TRUE,FALSE,TRUE,FALSE,"""event"",""trial"",""time""
""fullscreenenter"",""5"",""12958""
","
","
","""event"",""trial"",""time""
""fullscreenenter"",""5"",""12958""
","
",NA,images/earth.jpg,NA,NA,NA,NA,NA,NA,NA,NA,NA,NA,NA,NA,NA,fixation,NA,NA,NA,NA,NA,NA,sub87
d3-animate-choice,189,780496,0.0-76.0-0.18,TRUE,FALSE,TRUE,FALSE,"""event"",""trial"",""time""
""fullscreenenter"",""5"",""12958""
","
","
","""event"",""trial"",""time""
""fullscreenenter"",""5"",""12958""
","
",282.950000022538,NA,49,NA,NA,3000,1,NA,NA,images/earth.jpg,images/rocket2,images/rocket1,null,images/rocket1,NA,1,real,null,1,NA,NA,NA,sub87
d3-animate-choice,190,782896,0.0-76.0-1.18,TRUE,FALSE,TRUE,FALSE,"""event"",""trial"",""time""
""fullscreenenter"",""5"",""12958""
","
","
","""event"",""trial"",""time""
""fullscreenenter"",""5"",""12958""
","
",396.92500000819564,NA,48,NA,NA,3000,1,NA,NA,images/purpleplanet.jpg,images/alien4,images/alien3,images/rocket1,images/alien4,images/t.png,2,real,true,2,common,1,2020-06-23T16:57:01Z,sub87
two-step-fixation,191,783899,0.0-76.0-2.18,TRUE,FALSE,TRUE,FALSE,"""event"",""trial"",""time""
""fullscreenenter"",""5"",""12958""
","
","
","""event"",""trial"",""time""
""fullscreenenter"",""5"",""12958""
","
",NA,images/earth.jpg,NA,NA,NA,NA,NA,NA,NA,NA,NA,NA,NA,NA,NA,fixation,NA,NA,NA,NA,NA,NA,sub87
d3-animate-choice,192,787201,0.0-76.0-0.19,TRUE,FALSE,TRUE,FALSE,"""event"",""trial"",""time""
""fullscreenenter"",""5"",""12958""
","
","
","""event"",""trial"",""time""
""fullscreenenter"",""5"",""12958""
","
",1299.1499999770895,NA,49,NA,NA,3000,1,NA,NA,images/earth.jpg,images/rocket2,images/rocket1,null,images/rocket1,NA,1,real,null,1,NA,NA,NA,sub87
d3-animate-choice,193,789528,0.0-76.0-1.19,TRUE,FALSE,TRUE,FALSE,"""event"",""trial"",""time""
""fullscreenenter"",""5"",""12958""
","
","
","""event"",""trial"",""time""
""fullscreenenter"",""5"",""12958""
","
",325.2449999563396,NA,48,NA,NA,3000,1,NA,NA,images/purpleplanet.jpg,images/alien4,images/alien3,images/rocket1,images/alien4,images/nothing.png,2,real,true,2,common,0,2020-06-23T16:57:08Z,sub87
two-step-fixation,194,790531,0.0-76.0-2.19,TRUE,FALSE,TRUE,FALSE,"""event"",""trial"",""time""
""fullscreenenter"",""5"",""12958""
","
","
","""event"",""trial"",""time""
""fullscreenenter"",""5"",""12958""
","
",NA,images/earth.jpg,NA,NA,NA,NA,NA,NA,NA,NA,NA,NA,NA,NA,NA,fixation,NA,NA,NA,NA,NA,NA,sub87
d3-animate-choice,195,793200,0.0-76.0-0.20,TRUE,FALSE,TRUE,FALSE,"""event"",""trial"",""time""
""fullscreenenter"",""5"",""12958""
","
","
","""event"",""trial"",""time""
""fullscreenenter"",""5"",""12958""
","
",667.0099999755621,NA,48,NA,NA,3000,1,NA,NA,images/earth.jpg,images/rocket2,images/rocket1,null,images/rocket2,NA,1,real,null,2,NA,NA,NA,sub87
d3-animate-choice,196,795466,0.0-76.0-1.20,TRUE,FALSE,TRUE,FALSE,"""event"",""trial"",""time""
""fullscreenenter"",""5"",""12958""
","
","
","""event"",""trial"",""time""
""fullscreenenter"",""5"",""12958""
","
",261.170000070706,NA,48,NA,NA,3000,1,NA,NA,images/purpleplanet.jpg,images/alien4,images/alien3,images/rocket2,images/alien4,images/nothing.png,2,real,false,2,rare,0,2020-06-23T16:57:14Z,sub87
two-step-fixation,197,796469,0.0-76.0-2.20,TRUE,FALSE,TRUE,FALSE,"""event"",""trial"",""time""
""fullscreenenter"",""5"",""12958""
","
","
","""event"",""trial"",""time""
""fullscreenenter"",""5"",""12958""
","
",NA,images/earth.jpg,NA,NA,NA,NA,NA,NA,NA,NA,NA,NA,NA,NA,NA,fixation,NA,NA,NA,NA,NA,NA,sub87
d3-animate-choice,198,798753,0.0-76.0-0.21,TRUE,FALSE,TRUE,FALSE,"""event"",""trial"",""time""
""fullscreenenter"",""5"",""12958""
","
","
","""event"",""trial"",""time""
""fullscreenenter"",""5"",""12958""
","
",280.7649999158457,NA,48,NA,NA,3000,1,NA,NA,images/earth.jpg,images/rocket2,images/rocket1,null,images/rocket2,NA,1,real,null,2,NA,NA,NA,sub87
d3-animate-choice,199,801072,0.0-76.0-1.21,TRUE,FALSE,TRUE,FALSE,"""event"",""trial"",""time""
""fullscreenenter"",""5"",""12958""
","
","
","""event"",""trial"",""time""
""fullscreenenter"",""5"",""12958""
","
",317.2200000844896,NA,49,NA,NA,3000,1,NA,NA,images/redplanet1.jpg,images/alien2,images/alien1,images/rocket2,images/alien1,images/t.png,2,real,true,1,common,1,2020-06-23T16:57:19Z,sub87
two-step-fixation,200,802075,0.0-76.0-2.21,TRUE,FALSE,TRUE,FALSE,"""event"",""trial"",""time""
""fullscreenenter"",""5"",""12958""
","
","
","""event"",""trial"",""time""
""fullscreenenter"",""5"",""12958""
","
",NA,images/earth.jpg,NA,NA,NA,NA,NA,NA,NA,NA,NA,NA,NA,NA,NA,fixation,NA,NA,NA,NA,NA,NA,sub87
d3-animate-choice,201,804457,0.0-76.0-0.22,TRUE,FALSE,TRUE,FALSE,"""event"",""trial"",""time""
""fullscreenenter"",""5"",""12958""
","
","
","""event"",""trial"",""time""
""fullscreenenter"",""5"",""12958""
","
",378.91500000841916,NA,48,NA,NA,3000,1,NA,NA,images/earth.jpg,images/rocket2,images/rocket1,null,images/rocket2,NA,1,real,null,2,NA,NA,NA,sub87
d3-animate-choice,202,807337,0.0-76.0-1.22,TRUE,FALSE,TRUE,FALSE,"""event"",""trial"",""time""
""fullscreenenter"",""5"",""12958""
","
","
","""event"",""trial"",""time""
""fullscreenenter"",""5"",""12958""
","
",876.7800000496209,NA,49,NA,NA,3000,1,NA,NA,images/redplanet1.jpg,images/alien2,images/alien1,images/rocket2,images/alien1,images/t.png,2,real,true,1,common,1,2020-06-23T16:57:25Z,sub87
two-step-fixation,203,808341,0.0-76.0-2.22,TRUE,FALSE,TRUE,FALSE,"""event"",""trial"",""time""
""fullscreenenter"",""5"",""12958""
","
","
","""event"",""trial"",""time""
""fullscreenenter"",""5"",""12958""
","
",NA,images/earth.jpg,NA,NA,NA,NA,NA,NA,NA,NA,NA,NA,NA,NA,NA,fixation,NA,NA,NA,NA,NA,NA,sub87
d3-animate-choice,204,810697,0.0-76.0-0.23,TRUE,FALSE,TRUE,FALSE,"""event"",""trial"",""time""
""fullscreenenter"",""5"",""12958""
","
","
","""event"",""trial"",""time""
""fullscreenenter"",""5"",""12958""
","
",353.1199999852106,NA,48,NA,NA,3000,1,NA,NA,images/earth.jpg,images/rocket2,images/rocket1,null,images/rocket2,NA,1,real,null,2,NA,NA,NA,sub87
d3-animate-choice,205,813297,0.0-76.0-1.23,TRUE,FALSE,TRUE,FALSE,"""event"",""trial"",""time""
""fullscreenenter"",""5"",""12958""
","
","
","""event"",""trial"",""time""
""fullscreenenter"",""5"",""12958""
","
",596.3850000407547,NA,49,NA,NA,3000,1,NA,NA,images/redplanet1.jpg,images/alien2,images/alien1,images/rocket2,images/alien1,images/t.png,2,real,true,1,common,1,2020-06-23T16:57:31Z,sub87
two-step-fixation,206,814300,0.0-76.0-2.23,TRUE,FALSE,TRUE,FALSE,"""event"",""trial"",""time""
""fullscreenenter"",""5"",""12958""
","
","
","""event"",""trial"",""time""
""fullscreenenter"",""5"",""12958""
","
",NA,images/earth.jpg,NA,NA,NA,NA,NA,NA,NA,NA,NA,NA,NA,NA,NA,fixation,NA,NA,NA,NA,NA,NA,sub87
d3-animate-choice,207,816665,0.0-76.0-0.24,TRUE,FALSE,TRUE,FALSE,"""event"",""trial"",""time""
""fullscreenenter"",""5"",""12958""
","
","
","""event"",""trial"",""time""
""fullscreenenter"",""5"",""12958""
","
",362.47000005096197,NA,48,NA,NA,3000,1,NA,NA,images/earth.jpg,images/rocket2,images/rocket1,null,images/rocket2,NA,1,real,null,2,NA,NA,NA,sub87
d3-animate-choice,208,819136,0.0-76.0-1.24,TRUE,FALSE,TRUE,FALSE,"""event"",""trial"",""time""
""fullscreenenter"",""5"",""12958""
","
","
","""event"",""trial"",""time""
""fullscreenenter"",""5"",""12958""
","
",468.8399999868125,NA,49,NA,NA,3000,1,NA,NA,images/redplanet1.jpg,images/alien2,images/alien1,images/rocket2,images/alien1,images/t.png,2,real,true,1,common,1,2020-06-23T16:57:37Z,sub87
two-step-fixation,209,820138,0.0-76.0-2.24,TRUE,FALSE,TRUE,FALSE,"""event"",""trial"",""time""
""fullscreenenter"",""5"",""12958""
","
","
","""event"",""trial"",""time""
""fullscreenenter"",""5"",""12958""
","
",NA,images/earth.jpg,NA,NA,NA,NA,NA,NA,NA,NA,NA,NA,NA,NA,NA,fixation,NA,NA,NA,NA,NA,NA,sub87
d3-animate-choice,210,822401,0.0-76.0-0.25,TRUE,FALSE,TRUE,FALSE,"""event"",""trial"",""time""
""fullscreenenter"",""5"",""12958""
","
","
","""event"",""trial"",""time""
""fullscreenenter"",""5"",""12958""
","
",260.06000000052154,NA,48,NA,NA,3000,1,NA,NA,images/earth.jpg,images/rocket2,images/rocket1,null,images/rocket2,NA,1,real,null,2,NA,NA,NA,sub87
d3-animate-choice,211,824689,0.0-76.0-1.25,TRUE,FALSE,TRUE,FALSE,"""event"",""trial"",""time""
""fullscreenenter"",""5"",""12958""
","
","
","""event"",""trial"",""time""
""fullscreenenter"",""5"",""12958""
","
",284.78999994695187,NA,48,NA,NA,3000,1,NA,NA,images/redplanet1.jpg,images/alien2,images/alien1,images/rocket2,images/alien2,images/nothing.png,2,real,true,2,common,0,2020-06-23T16:57:43Z,sub87
two-step-fixation,212,825691,0.0-76.0-2.25,TRUE,FALSE,TRUE,FALSE,"""event"",""trial"",""time""
""fullscreenenter"",""5"",""12958""
","
","
","""event"",""trial"",""time""
""fullscreenenter"",""5"",""12958""
","
",NA,images/earth.jpg,NA,NA,NA,NA,NA,NA,NA,NA,NA,NA,NA,NA,NA,fixation,NA,NA,NA,NA,NA,NA,sub87
d3-animate-choice,213,828057,0.0-76.0-0.26,TRUE,FALSE,TRUE,FALSE,"""event"",""trial"",""time""
""fullscreenenter"",""5"",""12958""
","
","
","""event"",""trial"",""time""
""fullscreenenter"",""5"",""12958""
","
",361.89000005833805,NA,49,NA,NA,3000,1,NA,NA,images/earth.jpg,images/rocket2,images/rocket1,null,images/rocket1,NA,1,real,null,1,NA,NA,NA,sub87
d3-animate-choice,214,830521,0.0-76.0-1.26,TRUE,FALSE,TRUE,FALSE,"""event"",""trial"",""time""
""fullscreenenter"",""5"",""12958""
","
","
","""event"",""trial"",""time""
""fullscreenenter"",""5"",""12958""
","
",460.64000006299466,NA,48,NA,NA,3000,1,NA,NA,images/redplanet1.jpg,images/alien2,images/alien1,images/rocket1,images/alien2,images/t.png,2,real,false,2,rare,1,2020-06-23T16:57:49Z,sub87
two-step-fixation,215,831524,0.0-76.0-2.26,TRUE,FALSE,TRUE,FALSE,"""event"",""trial"",""time""
""fullscreenenter"",""5"",""12958""
","
","
","""event"",""trial"",""time""
""fullscreenenter"",""5"",""12958""
","
",NA,images/earth.jpg,NA,NA,NA,NA,NA,NA,NA,NA,NA,NA,NA,NA,NA,fixation,NA,NA,NA,NA,NA,NA,sub87
d3-animate-choice,216,834409,0.0-76.0-0.27,TRUE,FALSE,TRUE,FALSE,"""event"",""trial"",""time""
""fullscreenenter"",""5"",""12958""
","
","
","""event"",""trial"",""time""
""fullscreenenter"",""5"",""12958""
","
",882.0200000191107,NA,49,NA,NA,3000,1,NA,NA,images/earth.jpg,images/rocket2,images/rocket1,null,images/rocket1,NA,1,real,null,1,NA,NA,NA,sub87
d3-animate-choice,217,837122,0.0-76.0-1.27,TRUE,FALSE,TRUE,FALSE,"""event"",""trial"",""time""
""fullscreenenter"",""5"",""12958""
","
","
","""event"",""trial"",""time""
""fullscreenenter"",""5"",""12958""
","
",708.4000000031665,NA,48,NA,NA,3000,1,NA,NA,images/purpleplanet.jpg,images/alien4,images/alien3,images/rocket1,images/alien4,images/t.png,2,real,true,2,common,1,2020-06-23T16:57:55Z,sub87
two-step-fixation,218,838124,0.0-76.0-2.27,TRUE,FALSE,TRUE,FALSE,"""event"",""trial"",""time""
""fullscreenenter"",""5"",""12958""
","
","
","""event"",""trial"",""time""
""fullscreenenter"",""5"",""12958""
","
",NA,images/earth.jpg,NA,NA,NA,NA,NA,NA,NA,NA,NA,NA,NA,NA,NA,fixation,NA,NA,NA,NA,NA,NA,sub87
d3-animate-choice,219,840553,0.0-76.0-0.28,TRUE,FALSE,TRUE,FALSE,"""event"",""trial"",""time""
""fullscreenenter"",""5"",""12958""
","
","
","""event"",""trial"",""time""
""fullscreenenter"",""5"",""12958""
","
",424.9649998964742,NA,49,NA,NA,3000,1,NA,NA,images/earth.jpg,images/rocket2,images/rocket1,null,images/rocket1,NA,1,real,null,1,NA,NA,NA,sub87
d3-animate-choice,220,842745,0.0-76.0-1.28,TRUE,FALSE,TRUE,FALSE,"""event"",""trial"",""time""
""fullscreenenter"",""5"",""12958""
","
","
","""event"",""trial"",""time""
""fullscreenenter"",""5"",""12958""
","
",188.44499997794628,NA,49,NA,NA,3000,1,NA,NA,images/purpleplanet.jpg,images/alien4,images/alien3,images/rocket1,images/alien3,images/t.png,2,real,true,1,common,1,2020-06-23T16:58:01Z,sub87
two-step-fixation,221,843750,0.0-76.0-2.28,TRUE,FALSE,TRUE,FALSE,"""event"",""trial"",""time""
""fullscreenenter"",""5"",""12958""
","
","
","""event"",""trial"",""time""
""fullscreenenter"",""5"",""12958""
","
",NA,images/earth.jpg,NA,NA,NA,NA,NA,NA,NA,NA,NA,NA,NA,NA,NA,fixation,NA,NA,NA,NA,NA,NA,sub87
d3-animate-choice,222,845810,0.0-76.0-0.29,TRUE,FALSE,TRUE,FALSE,"""event"",""trial"",""time""
""fullscreenenter"",""5"",""12958""
","
","
","""event"",""trial"",""time""
""fullscreenenter"",""5"",""12958""
","
",56.04499997571111,NA,49,NA,NA,3000,1,NA,NA,images/earth.jpg,images/rocket2,images/rocket1,null,images/rocket1,NA,1,real,null,1,NA,NA,NA,sub87
d3-animate-choice,223,848728,0.0-76.0-1.29,TRUE,FALSE,TRUE,FALSE,"""event"",""trial"",""time""
""fullscreenenter"",""5"",""12958""
","
","
","""event"",""trial"",""time""
""fullscreenenter"",""5"",""12958""
","
",915.1249999413267,NA,49,NA,NA,3000,1,NA,NA,images/redplanet1.jpg,images/alien2,images/alien1,images/rocket1,images/alien1,images/t.png,2,real,false,1,rare,1,2020-06-23T16:58:07Z,sub87
two-step-fixation,224,849731,0.0-76.0-2.29,TRUE,FALSE,TRUE,FALSE,"""event"",""trial"",""time""
""fullscreenenter"",""5"",""12958""
","
","
","""event"",""trial"",""time""
""fullscreenenter"",""5"",""12958""
","
",NA,images/earth.jpg,NA,NA,NA,NA,NA,NA,NA,NA,NA,NA,NA,NA,NA,fixation,NA,NA,NA,NA,NA,NA,sub87
d3-animate-choice,225,852641,0.0-76.0-0.30,TRUE,FALSE,TRUE,FALSE,"""event"",""trial"",""time""
""fullscreenenter"",""5"",""12958""
","
","
","""event"",""trial"",""time""
""fullscreenenter"",""5"",""12958""
","
",906.529999920167,NA,48,NA,NA,3000,1,NA,NA,images/earth.jpg,images/rocket2,images/rocket1,null,images/rocket2,NA,1,real,null,2,NA,NA,NA,sub87
d3-animate-choice,226,855096,0.0-76.0-1.30,TRUE,FALSE,TRUE,FALSE,"""event"",""trial"",""time""
""fullscreenenter"",""5"",""12958""
","
","
","""event"",""trial"",""time""
""fullscreenenter"",""5"",""12958""
","
",452.81000004615635,NA,48,NA,NA,3000,1,NA,NA,images/redplanet1.jpg,images/alien2,images/alien1,images/rocket2,images/alien2,images/t.png,2,real,true,2,common,1,2020-06-23T16:58:13Z,sub87
two-step-fixation,227,856099,0.0-76.0-2.30,TRUE,FALSE,TRUE,FALSE,"""event"",""trial"",""time""
""fullscreenenter"",""5"",""12958""
","
","
","""event"",""trial"",""time""
""fullscreenenter"",""5"",""12958""
","
",NA,images/earth.jpg,NA,NA,NA,NA,NA,NA,NA,NA,NA,NA,NA,NA,NA,fixation,NA,NA,NA,NA,NA,NA,sub87
d3-animate-choice,228,858601,0.0-76.0-0.31,TRUE,FALSE,TRUE,FALSE,"""event"",""trial"",""time""
""fullscreenenter"",""5"",""12958""
","
","
","""event"",""trial"",""time""
""fullscreenenter"",""5"",""12958""
","
",498.2099999906495,NA,49,NA,NA,3000,1,NA,NA,images/earth.jpg,images/rocket2,images/rocket1,null,images/rocket1,NA,1,real,null,1,NA,NA,NA,sub87
d3-animate-choice,229,860992,0.0-76.0-1.31,TRUE,FALSE,TRUE,FALSE,"""event"",""trial"",""time""
""fullscreenenter"",""5"",""12958""
","
","
","""event"",""trial"",""time""
""fullscreenenter"",""5"",""12958""
","
",388.5299999965355,NA,48,NA,NA,3000,1,NA,NA,images/purpleplanet.jpg,images/alien4,images/alien3,images/rocket1,images/alien4,images/t.png,2,real,true,2,common,1,2020-06-23T16:58:19Z,sub87
two-step-fixation,230,861996,0.0-76.0-2.31,TRUE,FALSE,TRUE,FALSE,"""event"",""trial"",""time""
""fullscreenenter"",""5"",""12958""
","
","
","""event"",""trial"",""time""
""fullscreenenter"",""5"",""12958""
","
",NA,images/earth.jpg,NA,NA,NA,NA,NA,NA,NA,NA,NA,NA,NA,NA,NA,fixation,NA,NA,NA,NA,NA,NA,sub87
d3-animate-choice,231,864584,0.0-76.0-0.32,TRUE,FALSE,TRUE,FALSE,"""event"",""trial"",""time""
""fullscreenenter"",""5"",""12958""
","
","
","""event"",""trial"",""time""
""fullscreenenter"",""5"",""12958""
","
",586.0450000036508,NA,48,NA,NA,3000,1,NA,NA,images/earth.jpg,images/rocket2,images/rocket1,null,images/rocket2,NA,1,real,null,2,NA,NA,NA,sub87
d3-animate-choice,232,867224,0.0-76.0-1.32,TRUE,FALSE,TRUE,FALSE,"""event"",""trial"",""time""
""fullscreenenter"",""5"",""12958""
","
","
","""event"",""trial"",""time""
""fullscreenenter"",""5"",""12958""
","
",637.019999907352,NA,48,NA,NA,3000,1,NA,NA,images/redplanet1.jpg,images/alien2,images/alien1,images/rocket2,images/alien2,images/t.png,2,real,true,2,common,1,2020-06-23T16:58:25Z,sub87
two-step-fixation,233,868227,0.0-76.0-2.32,TRUE,FALSE,TRUE,FALSE,"""event"",""trial"",""time""
""fullscreenenter"",""5"",""12958""
","
","
","""event"",""trial"",""time""
""fullscreenenter"",""5"",""12958""
","
",NA,images/earth.jpg,NA,NA,NA,NA,NA,NA,NA,NA,NA,NA,NA,NA,NA,fixation,NA,NA,NA,NA,NA,NA,sub87
d3-animate-choice,234,870921,0.0-76.0-0.33,TRUE,FALSE,TRUE,FALSE,"""event"",""trial"",""time""
""fullscreenenter"",""5"",""12958""
","
","
","""event"",""trial"",""time""
""fullscreenenter"",""5"",""12958""
","
",690.485000028275,NA,49,NA,NA,3000,1,NA,NA,images/earth.jpg,images/rocket2,images/rocket1,null,images/rocket1,NA,1,real,null,1,NA,NA,NA,sub87
d3-animate-choice,235,873512,0.0-76.0-1.33,TRUE,FALSE,TRUE,FALSE,"""event"",""trial"",""time""
""fullscreenenter"",""5"",""12958""
","
","
","""event"",""trial"",""time""
""fullscreenenter"",""5"",""12958""
","
",588.5149999521673,NA,48,NA,NA,3000,1,NA,NA,images/purpleplanet.jpg,images/alien4,images/alien3,images/rocket1,images/alien4,images/t.png,2,real,true,2,common,1,2020-06-23T16:58:32Z,sub87
two-step-fixation,236,874515,0.0-76.0-2.33,TRUE,FALSE,TRUE,FALSE,"""event"",""trial"",""time""
""fullscreenenter"",""5"",""12958""
","
","
","""event"",""trial"",""time""
""fullscreenenter"",""5"",""12958""
","
",NA,images/earth.jpg,NA,NA,NA,NA,NA,NA,NA,NA,NA,NA,NA,NA,NA,fixation,NA,NA,NA,NA,NA,NA,sub87
d3-animate-choice,237,876961,0.0-76.0-0.34,TRUE,FALSE,TRUE,FALSE,"""event"",""trial"",""time""
""fullscreenenter"",""5"",""12958""
","
","
","""event"",""trial"",""time""
""fullscreenenter"",""5"",""12958""
","
",441.0650000208989,NA,49,NA,NA,3000,1,NA,NA,images/earth.jpg,images/rocket2,images/rocket1,null,images/rocket1,NA,1,real,null,1,NA,NA,NA,sub87
d3-animate-choice,238,879609,0.0-76.0-1.34,TRUE,FALSE,TRUE,FALSE,"""event"",""trial"",""time""
""fullscreenenter"",""5"",""12958""
","
","
","""event"",""trial"",""time""
""fullscreenenter"",""5"",""12958""
","
",644.8749999981374,NA,48,NA,NA,3000,1,NA,NA,images/redplanet1.jpg,images/alien2,images/alien1,images/rocket1,images/alien2,images/nothing.png,2,real,false,2,rare,0,2020-06-23T16:58:38Z,sub87
two-step-fixation,239,880613,0.0-76.0-2.34,TRUE,FALSE,TRUE,FALSE,"""event"",""trial"",""time""
""fullscreenenter"",""5"",""12958""
","
","
","""event"",""trial"",""time""
""fullscreenenter"",""5"",""12958""
","
",NA,images/earth.jpg,NA,NA,NA,NA,NA,NA,NA,NA,NA,NA,NA,NA,NA,fixation,NA,NA,NA,NA,NA,NA,sub87
d3-animate-choice,240,882736,0.0-76.0-0.35,TRUE,FALSE,TRUE,FALSE,"""event"",""trial"",""time""
""fullscreenenter"",""5"",""12958""
","
","
","""event"",""trial"",""time""
""fullscreenenter"",""5"",""12958""
","
",120.95499993301928,NA,49,NA,NA,3000,1,NA,NA,images/earth.jpg,images/rocket2,images/rocket1,null,images/rocket1,NA,1,real,null,1,NA,NA,NA,sub87
d3-animate-choice,241,885536,0.0-76.0-1.35,TRUE,FALSE,TRUE,FALSE,"""event"",""trial"",""time""
""fullscreenenter"",""5"",""12958""
","
","
","""event"",""trial"",""time""
""fullscreenenter"",""5"",""12958""
","
",797.3699999274686,NA,48,NA,NA,3000,1,NA,NA,images/redplanet1.jpg,images/alien2,images/alien1,images/rocket1,images/alien2,images/nothing.png,2,real,false,2,rare,0,2020-06-23T16:58:44Z,sub87
two-step-fixation,242,886538,0.0-76.0-2.35,TRUE,FALSE,TRUE,FALSE,"""event"",""trial"",""time""
""fullscreenenter"",""5"",""12958""
","
","
","""event"",""trial"",""time""
""fullscreenenter"",""5"",""12958""
","
",NA,images/earth.jpg,NA,NA,NA,NA,NA,NA,NA,NA,NA,NA,NA,NA,NA,fixation,NA,NA,NA,NA,NA,NA,sub87
d3-animate-choice,243,890192,0.0-76.0-0.36,TRUE,FALSE,TRUE,FALSE,"""event"",""trial"",""time""
""fullscreenenter"",""5"",""12958""
","
","
","""event"",""trial"",""time""
""fullscreenenter"",""5"",""12958""
","
",1651.5149999177083,NA,48,NA,NA,3000,1,NA,NA,images/earth.jpg,images/rocket2,images/rocket1,null,images/rocket2,NA,1,real,null,2,NA,NA,NA,sub87
d3-animate-choice,244,893320,0.0-76.0-1.36,TRUE,FALSE,TRUE,FALSE,"""event"",""trial"",""time""
""fullscreenenter"",""5"",""12958""
","
","
","""event"",""trial"",""time""
""fullscreenenter"",""5"",""12958""
","
",1126.2400000123307,NA,48,NA,NA,3000,1,NA,NA,images/redplanet1.jpg,images/alien2,images/alien1,images/rocket2,images/alien2,images/t.png,2,real,true,2,common,1,2020-06-23T16:58:51Z,sub87
two-step-fixation,245,894322,0.0-76.0-2.36,TRUE,FALSE,TRUE,FALSE,"""event"",""trial"",""time""
""fullscreenenter"",""5"",""12958""
","
","
","""event"",""trial"",""time""
""fullscreenenter"",""5"",""12958""
","
",NA,images/earth.jpg,NA,NA,NA,NA,NA,NA,NA,NA,NA,NA,NA,NA,NA,fixation,NA,NA,NA,NA,NA,NA,sub87
d3-animate-choice,246,896624,0.0-76.0-0.37,TRUE,FALSE,TRUE,FALSE,"""event"",""trial"",""time""
""fullscreenenter"",""5"",""12958""
","
","
","""event"",""trial"",""time""
""fullscreenenter"",""5"",""12958""
","
",298.3249999815598,NA,48,NA,NA,3000,1,NA,NA,images/earth.jpg,images/rocket2,images/rocket1,null,images/rocket2,NA,1,real,null,2,NA,NA,NA,sub87
d3-animate-choice,247,899072,0.0-76.0-1.37,TRUE,FALSE,TRUE,FALSE,"""event"",""trial"",""time""
""fullscreenenter"",""5"",""12958""
","
","
","""event"",""trial"",""time""
""fullscreenenter"",""5"",""12958""
","
",445.4700000351295,NA,49,NA,NA,3000,1,NA,NA,images/redplanet1.jpg,images/alien2,images/alien1,images/rocket2,images/alien1,images/t.png,2,real,true,1,common,1,2020-06-23T16:58:57Z,sub87
two-step-fixation,248,900074,0.0-76.0-2.37,TRUE,FALSE,TRUE,FALSE,"""event"",""trial"",""time""
""fullscreenenter"",""5"",""12958""
","
","
","""event"",""trial"",""time""
""fullscreenenter"",""5"",""12958""
","
",NA,images/earth.jpg,NA,NA,NA,NA,NA,NA,NA,NA,NA,NA,NA,NA,NA,fixation,NA,NA,NA,NA,NA,NA,sub87
d3-animate-choice,249,904077,0.0-76.0-0.38,TRUE,FALSE,TRUE,FALSE,"""event"",""trial"",""time""
""fullscreenenter"",""5"",""12958""
","
","
","""event"",""trial"",""time""
""fullscreenenter"",""5"",""12958""
","
",2051.1000000406057,NA,49,NA,NA,3000,1,NA,NA,images/earth.jpg,images/rocket2,images/rocket1,null,images/rocket1,NA,1,real,null,1,NA,NA,NA,sub87
d3-animate-choice,250,906377,0.0-76.0-1.38,TRUE,FALSE,TRUE,FALSE,"""event"",""trial"",""time""
""fullscreenenter"",""5"",""12958""
","
","
","""event"",""trial"",""time""
""fullscreenenter"",""5"",""12958""
","
",296.254999935627,NA,48,NA,NA,3000,1,NA,NA,images/redplanet1.jpg,images/alien2,images/alien1,images/rocket1,images/alien2,images/nothing.png,2,real,false,2,rare,0,2020-06-23T16:59:04Z,sub87
two-step-fixation,251,907379,0.0-76.0-2.38,TRUE,FALSE,TRUE,FALSE,"""event"",""trial"",""time""
""fullscreenenter"",""5"",""12958""
","
","
","""event"",""trial"",""time""
""fullscreenenter"",""5"",""12958""
","
",NA,images/earth.jpg,NA,NA,NA,NA,NA,NA,NA,NA,NA,NA,NA,NA,NA,fixation,NA,NA,NA,NA,NA,NA,sub87
d3-animate-choice,252,909872,0.0-76.0-0.39,TRUE,FALSE,TRUE,FALSE,"""event"",""trial"",""time""
""fullscreenenter"",""5"",""12958""
","
","
","""event"",""trial"",""time""
""fullscreenenter"",""5"",""12958""
","
",490.02999998629093,NA,48,NA,NA,3000,1,NA,NA,images/earth.jpg,images/rocket2,images/rocket1,null,images/rocket2,NA,1,real,null,2,NA,NA,NA,sub87
d3-animate-choice,253,913368,0.0-76.0-1.39,TRUE,FALSE,TRUE,FALSE,"""event"",""trial"",""time""
""fullscreenenter"",""5"",""12958""
","
","
","""event"",""trial"",""time""
""fullscreenenter"",""5"",""12958""
","
",1492.9299999494106,NA,49,NA,NA,3000,1,NA,NA,images/purpleplanet.jpg,images/alien4,images/alien3,images/rocket2,images/alien3,images/nothing.png,2,real,false,1,rare,0,2020-06-23T16:59:11Z,sub87
two-step-fixation,254,914371,0.0-76.0-2.39,TRUE,FALSE,TRUE,FALSE,"""event"",""trial"",""time""
""fullscreenenter"",""5"",""12958""
","
","
","""event"",""trial"",""time""
""fullscreenenter"",""5"",""12958""
","
",NA,images/earth.jpg,NA,NA,NA,NA,NA,NA,NA,NA,NA,NA,NA,NA,NA,fixation,NA,NA,NA,NA,NA,NA,sub87
d3-animate-choice,255,916481,0.0-76.0-0.40,TRUE,FALSE,TRUE,FALSE,"""event"",""trial"",""time""
""fullscreenenter"",""5"",""12958""
","
","
","""event"",""trial"",""time""
""fullscreenenter"",""5"",""12958""
","
",106.00999998860061,NA,48,NA,NA,3000,1,1761.9549999944866,48,images/earth.jpg,images/rocket2,images/rocket1,null,images/rocket2,NA,1,real,null,2,NA,NA,NA,sub87
d3-animate-choice,256,918936,0.0-76.0-1.40,TRUE,FALSE,TRUE,FALSE,"""event"",""trial"",""time""
""fullscreenenter"",""5"",""12958""
","
","
","""event"",""trial"",""time""
""fullscreenenter"",""5"",""12958""
","
",452.47500005643815,NA,48,NA,NA,3000,1,NA,NA,images/redplanet1.jpg,images/alien2,images/alien1,images/rocket2,images/alien2,images/nothing.png,2,real,true,2,common,0,2020-06-23T16:59:17Z,sub87
two-step-fixation,257,919939,0.0-76.0-2.40,TRUE,FALSE,TRUE,FALSE,"""event"",""trial"",""time""
""fullscreenenter"",""5"",""12958""
","
","
","""event"",""trial"",""time""
""fullscreenenter"",""5"",""12958""
","
",NA,images/earth.jpg,NA,NA,NA,NA,NA,NA,NA,NA,NA,NA,NA,NA,NA,fixation,NA,NA,NA,NA,NA,NA,sub87
d3-animate-choice,258,922768,0.0-76.0-0.41,TRUE,FALSE,TRUE,FALSE,"""event"",""trial"",""time""
""fullscreenenter"",""5"",""12958""
","
","
","""event"",""trial"",""time""
""fullscreenenter"",""5"",""12958""
","
",826.2200000463054,NA,49,NA,NA,3000,1,NA,NA,images/earth.jpg,images/rocket2,images/rocket1,null,images/rocket1,NA,1,real,null,1,NA,NA,NA,sub87
d3-animate-choice,259,924984,0.0-76.0-1.41,TRUE,FALSE,TRUE,FALSE,"""event"",""trial"",""time""
""fullscreenenter"",""5"",""12958""
","
","
","""event"",""trial"",""time""
""fullscreenenter"",""5"",""12958""
","
",214.16500001214445,NA,48,NA,NA,3000,1,NA,NA,images/redplanet1.jpg,images/alien2,images/alien1,images/rocket1,images/alien2,images/nothing.png,2,real,false,2,rare,0,2020-06-23T16:59:23Z,sub87
two-step-fixation,260,925987,0.0-76.0-2.41,TRUE,FALSE,TRUE,FALSE,"""event"",""trial"",""time""
""fullscreenenter"",""5"",""12958""
","
","
","""event"",""trial"",""time""
""fullscreenenter"",""5"",""12958""
","
",NA,images/earth.jpg,NA,NA,NA,NA,NA,NA,NA,NA,NA,NA,NA,NA,NA,fixation,NA,NA,NA,NA,NA,NA,sub87
d3-animate-choice,261,928368,0.0-76.0-0.42,TRUE,FALSE,TRUE,FALSE,"""event"",""trial"",""time""
""fullscreenenter"",""5"",""12958""
","
","
","""event"",""trial"",""time""
""fullscreenenter"",""5"",""12958""
","
",378.17000003997236,NA,48,NA,NA,3000,1,NA,NA,images/earth.jpg,images/rocket2,images/rocket1,null,images/rocket2,NA,1,real,null,2,NA,NA,NA,sub87
d3-animate-choice,262,930928,0.0-76.0-1.42,TRUE,FALSE,TRUE,FALSE,"""event"",""trial"",""time""
""fullscreenenter"",""5"",""12958""
","
","
","""event"",""trial"",""time""
""fullscreenenter"",""5"",""12958""
","
",556.650000042282,NA,49,NA,NA,3000,1,900.800000061281,49,images/redplanet1.jpg,images/alien2,images/alien1,images/rocket2,images/alien1,images/nothing.png,2,real,true,1,common,0,2020-06-23T16:59:29Z,sub87
two-step-fixation,263,931930,0.0-76.0-2.42,TRUE,FALSE,TRUE,FALSE,"""event"",""trial"",""time""
""fullscreenenter"",""5"",""12958""
","
","
","""event"",""trial"",""time""
""fullscreenenter"",""5"",""12958""
","
",NA,images/earth.jpg,NA,NA,NA,NA,NA,NA,NA,NA,NA,NA,NA,NA,NA,fixation,NA,NA,NA,NA,NA,NA,sub87
d3-animate-choice,264,934896,0.0-76.0-0.43,TRUE,FALSE,TRUE,FALSE,"""event"",""trial"",""time""
""fullscreenenter"",""5"",""12958""
","
","
","""event"",""trial"",""time""
""fullscreenenter"",""5"",""12958""
","
",962.9600000334904,NA,48,NA,NA,3000,1,NA,NA,images/earth.jpg,images/rocket2,images/rocket1,null,images/rocket2,NA,1,real,null,2,NA,NA,NA,sub87
d3-animate-choice,265,937839,0.0-76.0-1.43,TRUE,FALSE,TRUE,FALSE,"""event"",""trial"",""time""
""fullscreenenter"",""5"",""12958""
","
","
","""event"",""trial"",""time""
""fullscreenenter"",""5"",""12958""
","
",941.1449999315664,NA,49,NA,NA,3000,1,NA,NA,images/redplanet1.jpg,images/alien2,images/alien1,images/rocket2,images/alien1,images/nothing.png,2,real,true,1,common,0,2020-06-23T16:59:36Z,sub87
two-step-fixation,266,938842,0.0-76.0-2.43,TRUE,FALSE,TRUE,FALSE,"""event"",""trial"",""time""
""fullscreenenter"",""5"",""12958""
","
","
","""event"",""trial"",""time""
""fullscreenenter"",""5"",""12958""
","
",NA,images/earth.jpg,NA,NA,NA,NA,NA,NA,NA,NA,NA,NA,NA,NA,NA,fixation,NA,NA,NA,NA,NA,NA,sub87
d3-animate-choice,267,941120,0.0-76.0-0.44,TRUE,FALSE,TRUE,FALSE,"""event"",""trial"",""time""
""fullscreenenter"",""5"",""12958""
","
","
","""event"",""trial"",""time""
""fullscreenenter"",""5"",""12958""
","
",275.72500007227063,NA,49,NA,NA,3000,1,NA,NA,images/earth.jpg,images/rocket2,images/rocket1,null,images/rocket1,NA,1,real,null,1,NA,NA,NA,sub87
d3-animate-choice,268,943785,0.0-76.0-1.44,TRUE,FALSE,TRUE,FALSE,"""event"",""trial"",""time""
""fullscreenenter"",""5"",""12958""
","
","
","""event"",""trial"",""time""
""fullscreenenter"",""5"",""12958""
","
",660.909999976866,NA,48,NA,NA,3000,1,NA,NA,images/purpleplanet.jpg,images/alien4,images/alien3,images/rocket1,images/alien4,images/nothing.png,2,real,true,2,common,0,2020-06-23T16:59:42Z,sub87
two-step-fixation,269,944788,0.0-76.0-2.44,TRUE,FALSE,TRUE,FALSE,"""event"",""trial"",""time""
""fullscreenenter"",""5"",""12958""
","
","
","""event"",""trial"",""time""
""fullscreenenter"",""5"",""12958""
","
",NA,images/earth.jpg,NA,NA,NA,NA,NA,NA,NA,NA,NA,NA,NA,NA,NA,fixation,NA,NA,NA,NA,NA,NA,sub87
d3-animate-choice,270,947279,0.0-76.0-0.45,TRUE,FALSE,TRUE,FALSE,"""event"",""trial"",""time""
""fullscreenenter"",""5"",""12958""
","
","
","""event"",""trial"",""time""
""fullscreenenter"",""5"",""12958""
","
",489.3150000134483,NA,48,NA,NA,3000,1,NA,NA,images/earth.jpg,images/rocket2,images/rocket1,null,images/rocket2,NA,1,real,null,2,NA,NA,NA,sub87
d3-animate-choice,271,950879,0.0-76.0-1.45,TRUE,FALSE,TRUE,FALSE,"""event"",""trial"",""time""
""fullscreenenter"",""5"",""12958""
","
","
","""event"",""trial"",""time""
""fullscreenenter"",""5"",""12958""
","
",1597.4200000055134,NA,48,NA,NA,3000,1,NA,NA,images/redplanet1.jpg,images/alien2,images/alien1,images/rocket2,images/alien2,images/t.png,2,real,true,2,common,1,2020-06-23T16:59:49Z,sub87
two-step-fixation,272,951881,0.0-76.0-2.45,TRUE,FALSE,TRUE,FALSE,"""event"",""trial"",""time""
""fullscreenenter"",""5"",""12958""
","
","
","""event"",""trial"",""time""
""fullscreenenter"",""5"",""12958""
","
",NA,images/earth.jpg,NA,NA,NA,NA,NA,NA,NA,NA,NA,NA,NA,NA,NA,fixation,NA,NA,NA,NA,NA,NA,sub87
d3-animate-choice,273,954648,0.0-76.0-0.46,TRUE,FALSE,TRUE,FALSE,"""event"",""trial"",""time""
""fullscreenenter"",""5"",""12958""
","
","
","""event"",""trial"",""time""
""fullscreenenter"",""5"",""12958""
","
",764.1849999781698,NA,49,NA,NA,3000,1,NA,NA,images/earth.jpg,images/rocket2,images/rocket1,null,images/rocket1,NA,1,real,null,1,NA,NA,NA,sub87
d3-animate-choice,274,957817,0.0-76.0-1.46,TRUE,FALSE,TRUE,FALSE,"""event"",""trial"",""time""
""fullscreenenter"",""5"",""12958""
","
","
","""event"",""trial"",""time""
""fullscreenenter"",""5"",""12958""
","
",1164.9249999318272,NA,49,NA,NA,3000,1,1572.8349999990314,49,images/purpleplanet.jpg,images/alien4,images/alien3,images/rocket1,images/alien3,images/nothing.png,2,real,true,1,common,0,2020-06-23T16:59:56Z,sub87
two-step-fixation,275,958820,0.0-76.0-2.46,TRUE,FALSE,TRUE,FALSE,"""event"",""trial"",""time""
""fullscreenenter"",""5"",""12958""
","
","
","""event"",""trial"",""time""
""fullscreenenter"",""5"",""12958""
","
",NA,images/earth.jpg,NA,NA,NA,NA,NA,NA,NA,NA,NA,NA,NA,NA,NA,fixation,NA,NA,NA,NA,NA,NA,sub87
d3-animate-choice,276,961200,0.0-76.0-0.47,TRUE,FALSE,TRUE,FALSE,"""event"",""trial"",""time""
""fullscreenenter"",""5"",""12958""
","
","
","""event"",""trial"",""time""
""fullscreenenter"",""5"",""12958""
","
",376.96499994490296,NA,48,NA,NA,3000,1,NA,NA,images/earth.jpg,images/rocket2,images/rocket1,null,images/rocket2,NA,1,real,null,2,NA,NA,NA,sub87
d3-animate-choice,277,963663,0.0-76.0-1.47,TRUE,FALSE,TRUE,FALSE,"""event"",""trial"",""time""
""fullscreenenter"",""5"",""12958""
","
","
","""event"",""trial"",""time""
""fullscreenenter"",""5"",""12958""
","
",461.1550000263378,NA,49,NA,NA,3000,1,2373.3099999371916,48,images/purpleplanet.jpg,images/alien4,images/alien3,images/rocket2,images/alien3,images/nothing.png,2,real,false,1,rare,0,2020-06-23T17:00:02Z,sub87
two-step-fixation,278,964666,0.0-76.0-2.47,TRUE,FALSE,TRUE,FALSE,"""event"",""trial"",""time""
""fullscreenenter"",""5"",""12958""
","
","
","""event"",""trial"",""time""
""fullscreenenter"",""5"",""12958""
","
",NA,images/earth.jpg,NA,NA,NA,NA,NA,NA,NA,NA,NA,NA,NA,NA,NA,fixation,NA,NA,NA,NA,NA,NA,sub87
