trial_type,trial_index,time_elapsed,internal_node_id,rocket_sides,red_planet_first_rocket,red_display_order,purple_display_order,interactions,blur_events,focus_events,fullscreenenter_events,fullscreenexit_events,rt,stimulus,key_press,button_pressed,success,duration,valid_pressed,rts,keys,planet_text,right_text,left_text,center_text,chosen_text,reward_text,trial_stage,practice_trial,transition_type,choice,transition,reward,timestamp,subject_id
pavlovia,0,5,0.0-0.0,TRUE,FALSE,TRUE,TRUE,"
","
","
","
","
",NA,NA,NA,NA,NA,NA,NA,NA,NA,NA,NA,NA,NA,NA,NA,NA,NA,NA,NA,NA,NA,NA,sub22
html-keyboard-response,1,1278,0.0-1.0,TRUE,FALSE,TRUE,TRUE,"
","
","
","
","
",1271.1450000060722,Welcome! Press the space bar to begin.,32,NA,NA,NA,NA,NA,NA,NA,NA,NA,NA,NA,NA,NA,NA,NA,NA,NA,NA,NA,sub22
audio-keyboard-response,2,3796,0.0-2.0,TRUE,FALSE,TRUE,TRUE,"
","
","
","
","
",2072,audio/beep_loop.wav,32,NA,NA,NA,NA,NA,NA,NA,NA,NA,NA,NA,NA,NA,NA,NA,NA,NA,NA,NA,sub22
audio-button-response,3,6054,0.0-3.0,TRUE,FALSE,TRUE,TRUE,"
","
","
","
","
",NaN,audio/fish.mp3,NA,1,NA,NA,NA,NA,NA,NA,NA,NA,NA,NA,NA,NA,NA,NA,NA,NA,NA,NA,sub22
audio-button-response,4,8412,0.0-4.0,TRUE,FALSE,TRUE,TRUE,"""event"",""trial"",""time""
""fullscreenenter"",""5"",""12129""
","
","
","""event"",""trial"",""time""
""fullscreenenter"",""5"",""12129""
","
",NaN,audio/tiger.mp3,NA,4,NA,NA,NA,NA,NA,NA,NA,NA,NA,NA,NA,NA,NA,NA,NA,NA,NA,NA,sub22
fullscreen,5,13125,0.0-5.0,TRUE,FALSE,TRUE,TRUE,"""event"",""trial"",""time""
""fullscreenenter"",""5"",""12129""
","
","
","""event"",""trial"",""time""
""fullscreenenter"",""5"",""12129""
","
",NA,NA,NA,NA,TRUE,NA,NA,NA,NA,NA,NA,NA,NA,NA,NA,NA,NA,NA,NA,NA,NA,NA,sub22
d3-instructions,6,27361,0.0-6.0,TRUE,FALSE,TRUE,TRUE,"""event"",""trial"",""time""
""fullscreenenter"",""5"",""12129""
","
","
","""event"",""trial"",""time""
""fullscreenenter"",""5"",""12129""
","
",NA,NA,NA,NA,NA,NA,NA,NA,NA,NA,NA,NA,NA,NA,NA,NA,NA,NA,NA,NA,NA,NA,sub22
d3-instructions,7,34703,0.0-7.0,TRUE,FALSE,TRUE,TRUE,"""event"",""trial"",""time""
""fullscreenenter"",""5"",""12129""
","
","
","""event"",""trial"",""time""
""fullscreenenter"",""5"",""12129""
","
",NA,NA,NA,NA,NA,NA,NA,NA,NA,NA,NA,NA,NA,NA,NA,NA,NA,NA,NA,NA,NA,NA,sub22
d3-instructions,8,41457,0.0-8.0,TRUE,FALSE,TRUE,TRUE,"""event"",""trial"",""time""
""fullscreenenter"",""5"",""12129""
","
","
","""event"",""trial"",""time""
""fullscreenenter"",""5"",""12129""
","
",NA,NA,NA,NA,NA,NA,NA,NA,NA,NA,NA,NA,NA,NA,NA,NA,NA,NA,NA,NA,NA,NA,sub22
d3-instructions,9,52554,0.0-9.0,TRUE,FALSE,TRUE,TRUE,"""event"",""trial"",""time""
""fullscreenenter"",""5"",""12129""
","
","
","""event"",""trial"",""time""
""fullscreenenter"",""5"",""12129""
","
",NA,NA,NA,NA,NA,NA,NA,NA,NA,NA,NA,NA,NA,NA,NA,NA,NA,NA,NA,NA,NA,NA,sub22
d3-instructions,10,71645,0.0-10.0,TRUE,FALSE,TRUE,TRUE,"""event"",""trial"",""time""
""fullscreenenter"",""5"",""12129""
","
","
","""event"",""trial"",""time""
""fullscreenenter"",""5"",""12129""
","
",NA,NA,NA,NA,NA,NA,NA,NA,NA,NA,NA,NA,NA,NA,NA,NA,NA,NA,NA,NA,NA,NA,sub22
d3-animate-choice,11,74742,0.0-11.0,TRUE,FALSE,TRUE,TRUE,"""event"",""trial"",""time""
""fullscreenenter"",""5"",""12129""
","
","
","""event"",""trial"",""time""
""fullscreenenter"",""5"",""12129""
","
",1086.549999890849,NA,49,NA,NA,3000,1,2798.1099999742582,49,images/tutgreenplanet.jpg,images/tutalien1,images/tutalien2,null,images/tutalien2,NA,NA,practice,null,NA,NA,NA,NA,sub22
d3-animate-choice,12,76972,0.0-12.0,TRUE,FALSE,TRUE,TRUE,"""event"",""trial"",""time""
""fullscreenenter"",""5"",""12129""
","
","
","""event"",""trial"",""time""
""fullscreenenter"",""5"",""12129""
","
",225.1549999928102,NA,48,NA,NA,3000,1,NA,NA,images/tutgreenplanet.jpg,images/tutalien1,images/tutalien2,null,images/tutalien1,NA,NA,practice,null,NA,NA,NA,NA,sub22
d3-animate-choice,13,80373,0.0-13.0,TRUE,FALSE,TRUE,TRUE,"""event"",""trial"",""time""
""fullscreenenter"",""5"",""12129""
","
","
","""event"",""trial"",""time""
""fullscreenenter"",""5"",""12129""
","
",1395.6400000024587,NA,48,NA,NA,3000,1,NA,NA,images/tutgreenplanet.jpg,images/tutalien1,images/tutalien2,null,images/tutalien1,NA,NA,practice,null,NA,NA,NA,NA,sub22
d3-animate-choice,14,82731,0.0-14.0,TRUE,FALSE,TRUE,TRUE,"""event"",""trial"",""time""
""fullscreenenter"",""5"",""12129""
","
","
","""event"",""trial"",""time""
""fullscreenenter"",""5"",""12129""
","
",351.56500001903623,NA,49,NA,NA,3000,1,NA,NA,images/tutgreenplanet.jpg,images/tutalien1,images/tutalien2,null,images/tutalien2,NA,NA,practice,null,NA,NA,NA,NA,sub22
d3-instructions,15,89909,0.0-15.0,TRUE,FALSE,TRUE,TRUE,"""event"",""trial"",""time""
""fullscreenenter"",""5"",""12129""
","
","
","""event"",""trial"",""time""
""fullscreenenter"",""5"",""12129""
","
",NA,NA,NA,NA,NA,NA,NA,NA,NA,NA,NA,NA,NA,NA,NA,NA,NA,NA,NA,NA,NA,NA,sub22
d3-instructions,16,101422,0.0-16.0,TRUE,FALSE,TRUE,TRUE,"""event"",""trial"",""time""
""fullscreenenter"",""5"",""12129""
","
","
","""event"",""trial"",""time""
""fullscreenenter"",""5"",""12129""
","
",NA,NA,NA,NA,NA,NA,NA,NA,NA,NA,NA,NA,NA,NA,NA,NA,NA,NA,NA,NA,NA,NA,sub22
d3-instructions,17,110389,0.0-17.0,TRUE,FALSE,TRUE,TRUE,"""event"",""trial"",""time""
""fullscreenenter"",""5"",""12129""
","
","
","""event"",""trial"",""time""
""fullscreenenter"",""5"",""12129""
","
",NA,NA,NA,NA,NA,NA,NA,NA,NA,NA,NA,NA,NA,NA,NA,NA,NA,NA,NA,NA,NA,NA,sub22
d3-instructions,18,124854,0.0-18.0,TRUE,FALSE,TRUE,TRUE,"""event"",""trial"",""time""
""fullscreenenter"",""5"",""12129""
","
","
","""event"",""trial"",""time""
""fullscreenenter"",""5"",""12129""
","
",NA,NA,NA,NA,NA,NA,NA,NA,NA,NA,NA,NA,NA,NA,NA,NA,NA,NA,NA,NA,NA,NA,sub22
d3-instructions,19,138397,0.0-19.0,TRUE,FALSE,TRUE,TRUE,"""event"",""trial"",""time""
""fullscreenenter"",""5"",""12129""
","
","
","""event"",""trial"",""time""
""fullscreenenter"",""5"",""12129""
","
",NA,NA,NA,NA,NA,NA,NA,NA,NA,NA,NA,NA,NA,NA,NA,NA,NA,NA,NA,NA,NA,NA,sub22
d3-animate-choice,20,141764,0.0-20.0,TRUE,FALSE,TRUE,TRUE,"""event"",""trial"",""time""
""fullscreenenter"",""5"",""12129""
","
","
","""event"",""trial"",""time""
""fullscreenenter"",""5"",""12129""
","
",1360.770000028424,NA,49,NA,NA,3000,1,NA,NA,images/tutyellowplanet.jpg,null,images/tutalien3,null,images/tutalien3,images/nothing.png,NA,practice,null,NA,NA,NA,NA,sub22
d3-animate-choice,21,144133,0.0-21.0,TRUE,FALSE,TRUE,TRUE,"""event"",""trial"",""time""
""fullscreenenter"",""5"",""12129""
","
","
","""event"",""trial"",""time""
""fullscreenenter"",""5"",""12129""
","
",366.40499997884035,NA,49,NA,NA,3000,1,NA,NA,images/tutyellowplanet.jpg,null,images/tutalien3,null,images/tutalien3,images/t.png,NA,practice,null,NA,NA,NA,NA,sub22
d3-animate-choice,22,146426,0.0-22.0,TRUE,FALSE,TRUE,TRUE,"""event"",""trial"",""time""
""fullscreenenter"",""5"",""12129""
","
","
","""event"",""trial"",""time""
""fullscreenenter"",""5"",""12129""
","
",287.1049999957904,NA,49,NA,NA,3000,1,NA,NA,images/tutyellowplanet.jpg,null,images/tutalien3,null,images/tutalien3,images/t.png,NA,practice,null,NA,NA,NA,NA,sub22
d3-animate-choice,23,148743,0.0-23.0,TRUE,FALSE,TRUE,TRUE,"""event"",""trial"",""time""
""fullscreenenter"",""5"",""12129""
","
","
","""event"",""trial"",""time""
""fullscreenenter"",""5"",""12129""
","
",313.2949999999255,NA,49,NA,NA,3000,1,NA,NA,images/tutyellowplanet.jpg,null,images/tutalien3,null,images/tutalien3,images/t.png,NA,practice,null,NA,NA,NA,NA,sub22
d3-animate-choice,24,151053,0.0-24.0,TRUE,FALSE,TRUE,TRUE,"""event"",""trial"",""time""
""fullscreenenter"",""5"",""12129""
","
","
","""event"",""trial"",""time""
""fullscreenenter"",""5"",""12129""
","
",304.7449999721721,NA,49,NA,NA,3000,1,NA,NA,images/tutyellowplanet.jpg,null,images/tutalien3,null,images/tutalien3,images/t.png,NA,practice,null,NA,NA,NA,NA,sub22
d3-animate-choice,25,153370,0.0-25.0,TRUE,FALSE,TRUE,TRUE,"""event"",""trial"",""time""
""fullscreenenter"",""5"",""12129""
","
","
","""event"",""trial"",""time""
""fullscreenenter"",""5"",""12129""
","
",308.8499999139458,NA,49,NA,NA,3000,1,NA,NA,images/tutyellowplanet.jpg,null,images/tutalien3,null,images/tutalien3,images/t.png,NA,practice,null,NA,NA,NA,NA,sub22
d3-animate-choice,26,155652,0.0-26.0,TRUE,FALSE,TRUE,TRUE,"""event"",""trial"",""time""
""fullscreenenter"",""5"",""12129""
","
","
","""event"",""trial"",""time""
""fullscreenenter"",""5"",""12129""
","
",276.1850000824779,NA,49,NA,NA,3000,1,NA,NA,images/tutyellowplanet.jpg,null,images/tutalien3,null,images/tutalien3,images/t.png,NA,practice,null,NA,NA,NA,NA,sub22
d3-animate-choice,27,157969,0.0-27.0,TRUE,FALSE,TRUE,TRUE,"""event"",""trial"",""time""
""fullscreenenter"",""5"",""12129""
","
","
","""event"",""trial"",""time""
""fullscreenenter"",""5"",""12129""
","
",311.2950000213459,NA,49,NA,NA,3000,1,NA,NA,images/tutyellowplanet.jpg,null,images/tutalien3,null,images/tutalien3,images/nothing.png,NA,practice,null,NA,NA,NA,NA,sub22
d3-animate-choice,28,160337,0.0-28.0,TRUE,FALSE,TRUE,TRUE,"""event"",""trial"",""time""
""fullscreenenter"",""5"",""12129""
","
","
","""event"",""trial"",""time""
""fullscreenenter"",""5"",""12129""
","
",364.73000003024936,NA,49,NA,NA,3000,1,NA,NA,images/tutyellowplanet.jpg,null,images/tutalien3,null,images/tutalien3,images/t.png,NA,practice,null,NA,NA,NA,NA,sub22
d3-animate-choice,29,162660,0.0-29.0,TRUE,FALSE,TRUE,TRUE,"""event"",""trial"",""time""
""fullscreenenter"",""5"",""12129""
","
","
","""event"",""trial"",""time""
""fullscreenenter"",""5"",""12129""
","
",319.7449999861419,NA,49,NA,NA,3000,1,NA,NA,images/tutyellowplanet.jpg,null,images/tutalien3,null,images/tutalien3,images/nothing.png,NA,practice,null,NA,NA,NA,NA,sub22
d3-instructions,30,168538,0.0-30.0,TRUE,FALSE,TRUE,TRUE,"""event"",""trial"",""time""
""fullscreenenter"",""5"",""12129""
","
","
","""event"",""trial"",""time""
""fullscreenenter"",""5"",""12129""
","
",NA,NA,NA,NA,NA,NA,NA,NA,NA,NA,NA,NA,NA,NA,NA,NA,NA,NA,NA,NA,NA,NA,sub22
d3-instructions,31,177637,0.0-31.0,TRUE,FALSE,TRUE,TRUE,"""event"",""trial"",""time""
""fullscreenenter"",""5"",""12129""
","
","
","""event"",""trial"",""time""
""fullscreenenter"",""5"",""12129""
","
",NA,NA,NA,NA,NA,NA,NA,NA,NA,NA,NA,NA,NA,NA,NA,NA,NA,NA,NA,NA,NA,NA,sub22
d3-instructions,32,185563,0.0-32.0,TRUE,FALSE,TRUE,TRUE,"""event"",""trial"",""time""
""fullscreenenter"",""5"",""12129""
","
","
","""event"",""trial"",""time""
""fullscreenenter"",""5"",""12129""
","
",NA,NA,NA,NA,NA,NA,NA,NA,NA,NA,NA,NA,NA,NA,NA,NA,NA,NA,NA,NA,NA,NA,sub22
d3-instructions,33,195745,0.0-33.0,TRUE,FALSE,TRUE,TRUE,"""event"",""trial"",""time""
""fullscreenenter"",""5"",""12129""
","
","
","""event"",""trial"",""time""
""fullscreenenter"",""5"",""12129""
","
",NA,NA,NA,NA,NA,NA,NA,NA,NA,NA,NA,NA,NA,NA,NA,NA,NA,NA,NA,NA,NA,NA,sub22
d3-animate-choice,34,199834,0.0-34.0,TRUE,FALSE,TRUE,TRUE,"""event"",""trial"",""time""
""fullscreenenter"",""5"",""12129""
","
","
","""event"",""trial"",""time""
""fullscreenenter"",""5"",""12129""
","
",2080.9100000187755,NA,49,NA,NA,3000,1,NA,NA,images/tutgreenplanet.jpg,images/tutalien1,images/tutalien2,null,images/tutalien2,images/t.png,NA,practice,null,NA,NA,NA,NA,sub22
d3-animate-choice,35,202539,0.0-35.0,TRUE,FALSE,TRUE,TRUE,"""event"",""trial"",""time""
""fullscreenenter"",""5"",""12129""
","
","
","""event"",""trial"",""time""
""fullscreenenter"",""5"",""12129""
","
",701.6499999444932,NA,48,NA,NA,3000,1,NA,NA,images/tutgreenplanet.jpg,images/tutalien1,images/tutalien2,null,images/tutalien1,images/nothing.png,NA,practice,null,NA,NA,NA,NA,sub22
d3-animate-choice,36,205059,0.0-36.0,TRUE,FALSE,TRUE,TRUE,"""event"",""trial"",""time""
""fullscreenenter"",""5"",""12129""
","
","
","""event"",""trial"",""time""
""fullscreenenter"",""5"",""12129""
","
",512.0350000215694,NA,48,NA,NA,3000,1,NA,NA,images/tutgreenplanet.jpg,images/tutalien1,images/tutalien2,null,images/tutalien1,images/nothing.png,NA,practice,null,NA,NA,NA,NA,sub22
d3-animate-choice,37,207422,0.0-37.0,TRUE,FALSE,TRUE,TRUE,"""event"",""trial"",""time""
""fullscreenenter"",""5"",""12129""
","
","
","""event"",""trial"",""time""
""fullscreenenter"",""5"",""12129""
","
",355.3400000091642,NA,49,NA,NA,3000,1,NA,NA,images/tutgreenplanet.jpg,images/tutalien1,images/tutalien2,null,images/tutalien2,images/t.png,NA,practice,null,NA,NA,NA,NA,sub22
d3-animate-choice,38,210133,0.0-38.0,TRUE,FALSE,TRUE,TRUE,"""event"",""trial"",""time""
""fullscreenenter"",""5"",""12129""
","
","
","""event"",""trial"",""time""
""fullscreenenter"",""5"",""12129""
","
",705.1549999741837,NA,49,NA,NA,3000,1,NA,NA,images/tutgreenplanet.jpg,images/tutalien1,images/tutalien2,null,images/tutalien2,images/t.png,NA,practice,null,NA,NA,NA,NA,sub22
d3-animate-choice,39,212489,0.0-39.0,TRUE,FALSE,TRUE,TRUE,"""event"",""trial"",""time""
""fullscreenenter"",""5"",""12129""
","
","
","""event"",""trial"",""time""
""fullscreenenter"",""5"",""12129""
","
",353.194999974221,NA,49,NA,NA,3000,1,NA,NA,images/tutgreenplanet.jpg,images/tutalien1,images/tutalien2,null,images/tutalien2,images/nothing.png,NA,practice,null,NA,NA,NA,NA,sub22
d3-animate-choice,40,214896,0.0-40.0,TRUE,FALSE,TRUE,TRUE,"""event"",""trial"",""time""
""fullscreenenter"",""5"",""12129""
","
","
","""event"",""trial"",""time""
""fullscreenenter"",""5"",""12129""
","
",400.81999998074025,NA,48,NA,NA,3000,1,NA,NA,images/tutgreenplanet.jpg,images/tutalien1,images/tutalien2,null,images/tutalien1,images/nothing.png,NA,practice,null,NA,NA,NA,NA,sub22
d3-animate-choice,41,217193,0.0-41.0,TRUE,FALSE,TRUE,TRUE,"""event"",""trial"",""time""
""fullscreenenter"",""5"",""12129""
","
","
","""event"",""trial"",""time""
""fullscreenenter"",""5"",""12129""
","
",292.1100000385195,NA,49,NA,NA,3000,1,NA,NA,images/tutgreenplanet.jpg,images/tutalien1,images/tutalien2,null,images/tutalien2,images/t.png,NA,practice,null,NA,NA,NA,NA,sub22
d3-animate-choice,42,219701,0.0-42.0,TRUE,FALSE,TRUE,TRUE,"""event"",""trial"",""time""
""fullscreenenter"",""5"",""12129""
","
","
","""event"",""trial"",""time""
""fullscreenenter"",""5"",""12129""
","
",503.41999996453524,NA,49,NA,NA,3000,1,NA,NA,images/tutgreenplanet.jpg,images/tutalien1,images/tutalien2,null,images/tutalien2,images/nothing.png,NA,practice,null,NA,NA,NA,NA,sub22
d3-animate-choice,43,221959,0.0-43.0,TRUE,FALSE,TRUE,TRUE,"""event"",""trial"",""time""
""fullscreenenter"",""5"",""12129""
","
","
","""event"",""trial"",""time""
""fullscreenenter"",""5"",""12129""
","
",250.96999993547797,NA,48,NA,NA,3000,1,NA,NA,images/tutgreenplanet.jpg,images/tutalien1,images/tutalien2,null,images/tutalien1,images/nothing.png,NA,practice,null,NA,NA,NA,NA,sub22
d3-instructions,44,235437,0.0-44.0,TRUE,FALSE,TRUE,TRUE,"""event"",""trial"",""time""
""fullscreenenter"",""5"",""12129""
","
","
","""event"",""trial"",""time""
""fullscreenenter"",""5"",""12129""
","
",NA,NA,NA,NA,NA,NA,NA,NA,NA,NA,NA,NA,NA,NA,NA,NA,NA,NA,NA,NA,NA,NA,sub22
d3-instructions,45,242168,0.0-45.0,TRUE,FALSE,TRUE,TRUE,"""event"",""trial"",""time""
""fullscreenenter"",""5"",""12129""
","
","
","""event"",""trial"",""time""
""fullscreenenter"",""5"",""12129""
","
",NA,NA,NA,NA,NA,NA,NA,NA,NA,NA,NA,NA,NA,NA,NA,NA,NA,NA,NA,NA,NA,NA,sub22
d3-instructions,46,247125,0.0-46.0,TRUE,FALSE,TRUE,TRUE,"""event"",""trial"",""time""
""fullscreenenter"",""5"",""12129""
","
","
","""event"",""trial"",""time""
""fullscreenenter"",""5"",""12129""
","
",NA,NA,NA,NA,NA,NA,NA,NA,NA,NA,NA,NA,NA,NA,NA,NA,NA,NA,NA,NA,NA,NA,sub22
d3-instructions,47,266614,0.0-47.0,TRUE,FALSE,TRUE,TRUE,"""event"",""trial"",""time""
""fullscreenenter"",""5"",""12129""
","
","
","""event"",""trial"",""time""
""fullscreenenter"",""5"",""12129""
","
",NA,NA,NA,NA,NA,NA,NA,NA,NA,NA,NA,NA,NA,NA,NA,NA,NA,NA,NA,NA,NA,NA,sub22
d3-instructions,48,274298,0.0-48.0,TRUE,FALSE,TRUE,TRUE,"""event"",""trial"",""time""
""fullscreenenter"",""5"",""12129""
","
","
","""event"",""trial"",""time""
""fullscreenenter"",""5"",""12129""
","
",NA,NA,NA,NA,NA,NA,NA,NA,NA,NA,NA,NA,NA,NA,NA,NA,NA,NA,NA,NA,NA,NA,sub22
d3-instructions,49,285077,0.0-49.0,TRUE,FALSE,TRUE,TRUE,"""event"",""trial"",""time""
""fullscreenenter"",""5"",""12129""
","
","
","""event"",""trial"",""time""
""fullscreenenter"",""5"",""12129""
","
",NA,NA,NA,NA,NA,NA,NA,NA,NA,NA,NA,NA,NA,NA,NA,NA,NA,NA,NA,NA,NA,NA,sub22
d3-instructions,50,293704,0.0-50.0,TRUE,FALSE,TRUE,TRUE,"""event"",""trial"",""time""
""fullscreenenter"",""5"",""12129""
","
","
","""event"",""trial"",""time""
""fullscreenenter"",""5"",""12129""
","
",NA,NA,NA,NA,NA,NA,NA,NA,NA,NA,NA,NA,NA,NA,NA,NA,NA,NA,NA,NA,NA,NA,sub22
d3-instructions,51,296707,0.0-51.0,TRUE,FALSE,TRUE,TRUE,"""event"",""trial"",""time""
""fullscreenenter"",""5"",""12129""
","
","
","""event"",""trial"",""time""
""fullscreenenter"",""5"",""12129""
","
",NA,NA,NA,NA,NA,NA,NA,NA,NA,NA,NA,NA,NA,NA,NA,NA,NA,NA,NA,NA,NA,NA,sub22
d3-instructions,52,299986,0.0-52.0,TRUE,FALSE,TRUE,TRUE,"""event"",""trial"",""time""
""fullscreenenter"",""5"",""12129""
","
","
","""event"",""trial"",""time""
""fullscreenenter"",""5"",""12129""
","
",NA,NA,NA,NA,NA,NA,NA,NA,NA,NA,NA,NA,NA,NA,NA,NA,NA,NA,NA,NA,NA,NA,sub22
d3-instructions,53,312441,0.0-53.0,TRUE,FALSE,TRUE,TRUE,"""event"",""trial"",""time""
""fullscreenenter"",""5"",""12129""
","
","
","""event"",""trial"",""time""
""fullscreenenter"",""5"",""12129""
","
",NA,NA,NA,NA,NA,NA,NA,NA,NA,NA,NA,NA,NA,NA,NA,NA,NA,NA,NA,NA,NA,NA,sub22
d3-instructions,54,326534,0.0-54.0,TRUE,FALSE,TRUE,TRUE,"""event"",""trial"",""time""
""fullscreenenter"",""5"",""12129""
","
","
","""event"",""trial"",""time""
""fullscreenenter"",""5"",""12129""
","
",NA,NA,NA,NA,NA,NA,NA,NA,NA,NA,NA,NA,NA,NA,NA,NA,NA,NA,NA,NA,NA,NA,sub22
d3-instructions,55,336821,0.0-55.0,TRUE,FALSE,TRUE,TRUE,"""event"",""trial"",""time""
""fullscreenenter"",""5"",""12129""
","
","
","""event"",""trial"",""time""
""fullscreenenter"",""5"",""12129""
","
",NA,NA,NA,NA,NA,NA,NA,NA,NA,NA,NA,NA,NA,NA,NA,NA,NA,NA,NA,NA,NA,NA,sub22
d3-instructions,56,346086,0.0-56.0,TRUE,FALSE,TRUE,TRUE,"""event"",""trial"",""time""
""fullscreenenter"",""5"",""12129""
","
","
","""event"",""trial"",""time""
""fullscreenenter"",""5"",""12129""
","
",NA,NA,NA,NA,NA,NA,NA,NA,NA,NA,NA,NA,NA,NA,NA,NA,NA,NA,NA,NA,NA,NA,sub22
d3-instructions,57,357189,0.0-57.0,TRUE,FALSE,TRUE,TRUE,"""event"",""trial"",""time""
""fullscreenenter"",""5"",""12129""
","
","
","""event"",""trial"",""time""
""fullscreenenter"",""5"",""12129""
","
",NA,NA,NA,NA,NA,NA,NA,NA,NA,NA,NA,NA,NA,NA,NA,NA,NA,NA,NA,NA,NA,NA,sub22
d3-instructions,58,367117,0.0-58.0,TRUE,FALSE,TRUE,TRUE,"""event"",""trial"",""time""
""fullscreenenter"",""5"",""12129""
","
","
","""event"",""trial"",""time""
""fullscreenenter"",""5"",""12129""
","
",NA,NA,NA,NA,NA,NA,NA,NA,NA,NA,NA,NA,NA,NA,NA,NA,NA,NA,NA,NA,NA,NA,sub22
d3-instructions,59,371846,0.0-59.0,TRUE,FALSE,TRUE,TRUE,"""event"",""trial"",""time""
""fullscreenenter"",""5"",""12129""
","
","
","""event"",""trial"",""time""
""fullscreenenter"",""5"",""12129""
","
",NA,NA,NA,NA,NA,NA,NA,NA,NA,NA,NA,NA,NA,NA,NA,NA,NA,NA,NA,NA,NA,NA,sub22
d3-instructions,60,377845,0.0-60.0,TRUE,FALSE,TRUE,TRUE,"""event"",""trial"",""time""
""fullscreenenter"",""5"",""12129""
","
","
","""event"",""trial"",""time""
""fullscreenenter"",""5"",""12129""
","
",NA,NA,NA,NA,NA,NA,NA,NA,NA,NA,NA,NA,NA,NA,NA,NA,NA,NA,NA,NA,NA,NA,sub22
d3-animate-choice,61,381341,0.0-61.0-0.0,TRUE,FALSE,TRUE,TRUE,"""event"",""trial"",""time""
""fullscreenenter"",""5"",""12129""
","
","
","""event"",""trial"",""time""
""fullscreenenter"",""5"",""12129""
","
",1488.6300000362098,NA,49,NA,NA,3000,1,NA,NA,images/earth.jpg,images/tutrocket2,images/tutrocket1,null,images/tutrocket1,NA,1,practice,null,1,NA,NA,NA,sub22
d3-animate-choice,62,384469,0.0-61.0-1.0,TRUE,FALSE,TRUE,TRUE,"""event"",""trial"",""time""
""fullscreenenter"",""5"",""12129""
","
","
","""event"",""trial"",""time""
""fullscreenenter"",""5"",""12129""
","
",1122.3350000800565,NA,48,NA,NA,3000,1,NA,NA,images/tutyellowplanet.jpg,images/tutalien4,images/tutalien3,images/tutrocket1,images/tutalien4,images/t.png,2,practice,true,2,common,1,2020-06-14T20:18:53Z,sub22
two-step-fixation,63,385480,0.0-61.0-2.0,TRUE,FALSE,TRUE,TRUE,"""event"",""trial"",""time""
""fullscreenenter"",""5"",""12129""
","
","
","""event"",""trial"",""time""
""fullscreenenter"",""5"",""12129""
","
",NA,images/earth.jpg,NA,NA,NA,NA,NA,NA,NA,NA,NA,NA,NA,NA,NA,fixation,NA,NA,NA,NA,NA,NA,sub22
d3-animate-choice,64,388913,0.0-61.0-0.1,TRUE,FALSE,TRUE,TRUE,"""event"",""trial"",""time""
""fullscreenenter"",""5"",""12129""
","
","
","""event"",""trial"",""time""
""fullscreenenter"",""5"",""12129""
","
",1428.5750000271946,NA,49,NA,NA,3000,1,NA,NA,images/earth.jpg,images/tutrocket2,images/tutrocket1,null,images/tutrocket1,NA,1,practice,null,1,NA,NA,NA,sub22
d3-animate-choice,65,392151,0.0-61.0-1.1,TRUE,FALSE,TRUE,TRUE,"""event"",""trial"",""time""
""fullscreenenter"",""5"",""12129""
","
","
","""event"",""trial"",""time""
""fullscreenenter"",""5"",""12129""
","
",1230.930000077933,NA,48,NA,NA,3000,1,NA,NA,images/tutyellowplanet.jpg,images/tutalien4,images/tutalien3,images/tutrocket1,images/tutalien4,images/nothing.png,2,practice,true,2,common,0,2020-06-14T20:19:00Z,sub22
two-step-fixation,66,393155,0.0-61.0-2.1,TRUE,FALSE,TRUE,TRUE,"""event"",""trial"",""time""
""fullscreenenter"",""5"",""12129""
","
","
","""event"",""trial"",""time""
""fullscreenenter"",""5"",""12129""
","
",NA,images/earth.jpg,NA,NA,NA,NA,NA,NA,NA,NA,NA,NA,NA,NA,NA,fixation,NA,NA,NA,NA,NA,NA,sub22
d3-animate-choice,67,396064,0.0-61.0-0.2,TRUE,FALSE,TRUE,TRUE,"""event"",""trial"",""time""
""fullscreenenter"",""5"",""12129""
","
","
","""event"",""trial"",""time""
""fullscreenenter"",""5"",""12129""
","
",900.0149999046698,NA,49,NA,NA,3000,1,NA,NA,images/earth.jpg,images/tutrocket2,images/tutrocket1,null,images/tutrocket1,NA,1,practice,null,1,NA,NA,NA,sub22
d3-animate-choice,68,398618,0.0-61.0-1.2,TRUE,FALSE,TRUE,TRUE,"""event"",""trial"",""time""
""fullscreenenter"",""5"",""12129""
","
","
","""event"",""trial"",""time""
""fullscreenenter"",""5"",""12129""
","
",550.0649999594316,NA,49,NA,NA,3000,1,NA,NA,images/tutyellowplanet.jpg,images/tutalien4,images/tutalien3,images/tutrocket1,images/tutalien3,images/nothing.png,2,practice,true,1,common,0,2020-06-14T20:19:07Z,sub22
two-step-fixation,69,399625,0.0-61.0-2.2,TRUE,FALSE,TRUE,TRUE,"""event"",""trial"",""time""
""fullscreenenter"",""5"",""12129""
","
","
","""event"",""trial"",""time""
""fullscreenenter"",""5"",""12129""
","
",NA,images/earth.jpg,NA,NA,NA,NA,NA,NA,NA,NA,NA,NA,NA,NA,NA,fixation,NA,NA,NA,NA,NA,NA,sub22
d3-animate-choice,70,402458,0.0-61.0-0.3,TRUE,FALSE,TRUE,TRUE,"""event"",""trial"",""time""
""fullscreenenter"",""5"",""12129""
","
","
","""event"",""trial"",""time""
""fullscreenenter"",""5"",""12129""
","
",828.5200000973418,NA,48,NA,NA,3000,1,NA,NA,images/earth.jpg,images/tutrocket2,images/tutrocket1,null,images/tutrocket2,NA,1,practice,null,2,NA,NA,NA,sub22
d3-animate-choice,71,405120,0.0-61.0-1.3,TRUE,FALSE,TRUE,TRUE,"""event"",""trial"",""time""
""fullscreenenter"",""5"",""12129""
","
","
","""event"",""trial"",""time""
""fullscreenenter"",""5"",""12129""
","
",656.3750000204891,NA,49,NA,NA,3000,1,NA,NA,images/tutyellowplanet.jpg,images/tutalien4,images/tutalien3,images/tutrocket2,images/tutalien3,images/nothing.png,2,practice,false,1,rare,0,2020-06-14T20:19:13Z,sub22
two-step-fixation,72,406125,0.0-61.0-2.3,TRUE,FALSE,TRUE,TRUE,"""event"",""trial"",""time""
""fullscreenenter"",""5"",""12129""
","
","
","""event"",""trial"",""time""
""fullscreenenter"",""5"",""12129""
","
",NA,images/earth.jpg,NA,NA,NA,NA,NA,NA,NA,NA,NA,NA,NA,NA,NA,fixation,NA,NA,NA,NA,NA,NA,sub22
d3-animate-choice,73,408477,0.0-61.0-0.4,TRUE,FALSE,TRUE,TRUE,"""event"",""trial"",""time""
""fullscreenenter"",""5"",""12129""
","
","
","""event"",""trial"",""time""
""fullscreenenter"",""5"",""12129""
","
",346.92500007804483,NA,48,NA,NA,3000,1,NA,NA,images/earth.jpg,images/tutrocket2,images/tutrocket1,null,images/tutrocket2,NA,1,practice,null,2,NA,NA,NA,sub22
d3-animate-choice,74,411706,0.0-61.0-1.4,TRUE,FALSE,TRUE,TRUE,"""event"",""trial"",""time""
""fullscreenenter"",""5"",""12129""
","
","
","""event"",""trial"",""time""
""fullscreenenter"",""5"",""12129""
","
",1222.1199999330565,NA,48,NA,NA,3000,1,NA,NA,images/tutgreenplanet.jpg,images/tutalien2,images/tutalien1,images/tutrocket2,images/tutalien2,images/nothing.png,2,practice,true,2,common,0,2020-06-14T20:19:20Z,sub22
two-step-fixation,75,412714,0.0-61.0-2.4,TRUE,FALSE,TRUE,TRUE,"""event"",""trial"",""time""
""fullscreenenter"",""5"",""12129""
","
","
","""event"",""trial"",""time""
""fullscreenenter"",""5"",""12129""
","
",NA,images/earth.jpg,NA,NA,NA,NA,NA,NA,NA,NA,NA,NA,NA,NA,NA,fixation,NA,NA,NA,NA,NA,NA,sub22
d3-animate-choice,76,415137,0.0-61.0-0.5,TRUE,FALSE,TRUE,TRUE,"""event"",""trial"",""time""
""fullscreenenter"",""5"",""12129""
","
","
","""event"",""trial"",""time""
""fullscreenenter"",""5"",""12129""
","
",417.9749999893829,NA,48,NA,NA,3000,1,NA,NA,images/earth.jpg,images/tutrocket2,images/tutrocket1,null,images/tutrocket2,NA,1,practice,null,2,NA,NA,NA,sub22
d3-animate-choice,77,418205,0.0-61.0-1.5,TRUE,FALSE,TRUE,TRUE,"""event"",""trial"",""time""
""fullscreenenter"",""5"",""12129""
","
","
","""event"",""trial"",""time""
""fullscreenenter"",""5"",""12129""
","
",1061.6249999729916,NA,48,NA,NA,3000,1,NA,NA,images/tutyellowplanet.jpg,images/tutalien4,images/tutalien3,images/tutrocket2,images/tutalien4,images/t.png,2,practice,false,2,rare,1,2020-06-14T20:19:26Z,sub22
two-step-fixation,78,419210,0.0-61.0-2.5,TRUE,FALSE,TRUE,TRUE,"""event"",""trial"",""time""
""fullscreenenter"",""5"",""12129""
","
","
","""event"",""trial"",""time""
""fullscreenenter"",""5"",""12129""
","
",NA,images/earth.jpg,NA,NA,NA,NA,NA,NA,NA,NA,NA,NA,NA,NA,NA,fixation,NA,NA,NA,NA,NA,NA,sub22
d3-animate-choice,79,422974,0.0-61.0-0.6,TRUE,FALSE,TRUE,TRUE,"""event"",""trial"",""time""
""fullscreenenter"",""5"",""12129""
","
","
","""event"",""trial"",""time""
""fullscreenenter"",""5"",""12129""
","
",1758.8449999457225,NA,49,NA,NA,3000,1,NA,NA,images/earth.jpg,images/tutrocket2,images/tutrocket1,null,images/tutrocket1,NA,1,practice,null,1,NA,NA,NA,sub22
d3-animate-choice,80,425431,0.0-61.0-1.6,TRUE,FALSE,TRUE,TRUE,"""event"",""trial"",""time""
""fullscreenenter"",""5"",""12129""
","
","
","""event"",""trial"",""time""
""fullscreenenter"",""5"",""12129""
","
",447.3800000268966,NA,48,NA,NA,3000,1,NA,NA,images/tutyellowplanet.jpg,images/tutalien4,images/tutalien3,images/tutrocket1,images/tutalien4,images/nothing.png,2,practice,true,2,common,0,2020-06-14T20:19:34Z,sub22
two-step-fixation,81,426440,0.0-61.0-2.6,TRUE,FALSE,TRUE,TRUE,"""event"",""trial"",""time""
""fullscreenenter"",""5"",""12129""
","
","
","""event"",""trial"",""time""
""fullscreenenter"",""5"",""12129""
","
",NA,images/earth.jpg,NA,NA,NA,NA,NA,NA,NA,NA,NA,NA,NA,NA,NA,fixation,NA,NA,NA,NA,NA,NA,sub22
d3-animate-choice,82,428876,0.0-61.0-0.7,TRUE,FALSE,TRUE,TRUE,"""event"",""trial"",""time""
""fullscreenenter"",""5"",""12129""
","
","
","""event"",""trial"",""time""
""fullscreenenter"",""5"",""12129""
","
",425.5849999608472,NA,48,NA,NA,3000,1,NA,NA,images/earth.jpg,images/tutrocket2,images/tutrocket1,null,images/tutrocket2,NA,1,practice,null,2,NA,NA,NA,sub22
d3-animate-choice,83,431772,0.0-61.0-1.7,TRUE,FALSE,TRUE,TRUE,"""event"",""trial"",""time""
""fullscreenenter"",""5"",""12129""
","
","
","""event"",""trial"",""time""
""fullscreenenter"",""5"",""12129""
","
",886.4599999506027,NA,48,NA,NA,3000,1,NA,NA,images/tutyellowplanet.jpg,images/tutalien4,images/tutalien3,images/tutrocket2,images/tutalien4,images/t.png,2,practice,false,2,rare,1,2020-06-14T20:19:40Z,sub22
two-step-fixation,84,432778,0.0-61.0-2.7,TRUE,FALSE,TRUE,TRUE,"""event"",""trial"",""time""
""fullscreenenter"",""5"",""12129""
","
","
","""event"",""trial"",""time""
""fullscreenenter"",""5"",""12129""
","
",NA,images/earth.jpg,NA,NA,NA,NA,NA,NA,NA,NA,NA,NA,NA,NA,NA,fixation,NA,NA,NA,NA,NA,NA,sub22
d3-animate-choice,85,435958,0.0-61.0-0.8,TRUE,FALSE,TRUE,TRUE,"""event"",""trial"",""time""
""fullscreenenter"",""5"",""12129""
","
","
","""event"",""trial"",""time""
""fullscreenenter"",""5"",""12129""
","
",1170.9149999078363,NA,48,NA,NA,3000,1,NA,NA,images/earth.jpg,images/tutrocket2,images/tutrocket1,null,images/tutrocket2,NA,1,practice,null,2,NA,NA,NA,sub22
d3-animate-choice,86,438693,0.0-61.0-1.8,TRUE,FALSE,TRUE,TRUE,"""event"",""trial"",""time""
""fullscreenenter"",""5"",""12129""
","
","
","""event"",""trial"",""time""
""fullscreenenter"",""5"",""12129""
","
",730.1499999593943,NA,48,NA,NA,3000,1,NA,NA,images/tutyellowplanet.jpg,images/tutalien4,images/tutalien3,images/tutrocket2,images/tutalien4,images/nothing.png,2,practice,false,2,rare,0,2020-06-14T20:19:47Z,sub22
two-step-fixation,87,439696,0.0-61.0-2.8,TRUE,FALSE,TRUE,TRUE,"""event"",""trial"",""time""
""fullscreenenter"",""5"",""12129""
","
","
","""event"",""trial"",""time""
""fullscreenenter"",""5"",""12129""
","
",NA,images/earth.jpg,NA,NA,NA,NA,NA,NA,NA,NA,NA,NA,NA,NA,NA,fixation,NA,NA,NA,NA,NA,NA,sub22
d3-animate-choice,88,442041,0.0-61.0-0.9,TRUE,FALSE,TRUE,TRUE,"""event"",""trial"",""time""
""fullscreenenter"",""5"",""12129""
","
","
","""event"",""trial"",""time""
""fullscreenenter"",""5"",""12129""
","
",339.71999993082136,NA,49,NA,NA,3000,1,NA,NA,images/earth.jpg,images/tutrocket2,images/tutrocket1,null,images/tutrocket1,NA,1,practice,null,1,NA,NA,NA,sub22
d3-animate-choice,89,444933,0.0-61.0-1.9,TRUE,FALSE,TRUE,TRUE,"""event"",""trial"",""time""
""fullscreenenter"",""5"",""12129""
","
","
","""event"",""trial"",""time""
""fullscreenenter"",""5"",""12129""
","
",882.8350000549108,NA,49,NA,NA,3000,1,NA,NA,images/tutyellowplanet.jpg,images/tutalien4,images/tutalien3,images/tutrocket1,images/tutalien3,images/nothing.png,2,practice,true,1,common,0,2020-06-14T20:19:53Z,sub22
two-step-fixation,90,445938,0.0-61.0-2.9,TRUE,FALSE,TRUE,TRUE,"""event"",""trial"",""time""
""fullscreenenter"",""5"",""12129""
","
","
","""event"",""trial"",""time""
""fullscreenenter"",""5"",""12129""
","
",NA,images/earth.jpg,NA,NA,NA,NA,NA,NA,NA,NA,NA,NA,NA,NA,NA,fixation,NA,NA,NA,NA,NA,NA,sub22
d3-animate-choice,91,448920,0.0-61.0-0.10,TRUE,FALSE,TRUE,TRUE,"""event"",""trial"",""time""
""fullscreenenter"",""5"",""12129""
","
","
","""event"",""trial"",""time""
""fullscreenenter"",""5"",""12129""
","
",974.4750000536442,NA,49,NA,NA,3000,1,NA,NA,images/earth.jpg,images/tutrocket2,images/tutrocket1,null,images/tutrocket1,NA,1,practice,null,1,NA,NA,NA,sub22
d3-animate-choice,92,451412,0.0-61.0-1.10,TRUE,FALSE,TRUE,TRUE,"""event"",""trial"",""time""
""fullscreenenter"",""5"",""12129""
","
","
","""event"",""trial"",""time""
""fullscreenenter"",""5"",""12129""
","
",486.35500005912036,NA,48,NA,NA,3000,1,NA,NA,images/tutyellowplanet.jpg,images/tutalien4,images/tutalien3,images/tutrocket1,images/tutalien4,images/t.png,2,practice,true,2,common,1,2020-06-14T20:20:00Z,sub22
two-step-fixation,93,452417,0.0-61.0-2.10,TRUE,FALSE,TRUE,TRUE,"""event"",""trial"",""time""
""fullscreenenter"",""5"",""12129""
","
","
","""event"",""trial"",""time""
""fullscreenenter"",""5"",""12129""
","
",NA,images/earth.jpg,NA,NA,NA,NA,NA,NA,NA,NA,NA,NA,NA,NA,NA,fixation,NA,NA,NA,NA,NA,NA,sub22
d3-animate-choice,94,455565,0.0-61.0-0.11,TRUE,FALSE,TRUE,TRUE,"""event"",""trial"",""time""
""fullscreenenter"",""5"",""12129""
","
","
","""event"",""trial"",""time""
""fullscreenenter"",""5"",""12129""
","
",1142.5100000342354,NA,49,NA,NA,3000,1,NA,NA,images/earth.jpg,images/tutrocket2,images/tutrocket1,null,images/tutrocket1,NA,1,practice,null,1,NA,NA,NA,sub22
d3-animate-choice,95,458609,0.0-61.0-1.11,TRUE,FALSE,TRUE,TRUE,"""event"",""trial"",""time""
""fullscreenenter"",""5"",""12129""
","
","
","""event"",""trial"",""time""
""fullscreenenter"",""5"",""12129""
","
",1039.2650000285357,NA,49,NA,NA,3000,1,NA,NA,images/tutgreenplanet.jpg,images/tutalien2,images/tutalien1,images/tutrocket1,images/tutalien1,images/nothing.png,2,practice,false,1,rare,0,2020-06-14T20:20:07Z,sub22
two-step-fixation,96,459616,0.0-61.0-2.11,TRUE,FALSE,TRUE,TRUE,"""event"",""trial"",""time""
""fullscreenenter"",""5"",""12129""
","
","
","""event"",""trial"",""time""
""fullscreenenter"",""5"",""12129""
","
",NA,images/earth.jpg,NA,NA,NA,NA,NA,NA,NA,NA,NA,NA,NA,NA,NA,fixation,NA,NA,NA,NA,NA,NA,sub22
d3-animate-choice,97,462132,0.0-61.0-0.12,TRUE,FALSE,TRUE,TRUE,"""event"",""trial"",""time""
""fullscreenenter"",""5"",""12129""
","
","
","""event"",""trial"",""time""
""fullscreenenter"",""5"",""12129""
","
",511.170000070706,NA,48,NA,NA,3000,1,NA,NA,images/earth.jpg,images/tutrocket2,images/tutrocket1,null,images/tutrocket2,NA,1,practice,null,2,NA,NA,NA,sub22
d3-animate-choice,98,465433,0.0-61.0-1.12,TRUE,FALSE,TRUE,TRUE,"""event"",""trial"",""time""
""fullscreenenter"",""5"",""12129""
","
","
","""event"",""trial"",""time""
""fullscreenenter"",""5"",""12129""
","
",1291.7700000107288,NA,48,NA,NA,3000,1,NA,NA,images/tutgreenplanet.jpg,images/tutalien2,images/tutalien1,images/tutrocket2,images/tutalien2,images/nothing.png,2,practice,true,2,common,0,2020-06-14T20:20:14Z,sub22
two-step-fixation,99,466443,0.0-61.0-2.12,TRUE,FALSE,TRUE,TRUE,"""event"",""trial"",""time""
""fullscreenenter"",""5"",""12129""
","
","
","""event"",""trial"",""time""
""fullscreenenter"",""5"",""12129""
","
",NA,images/earth.jpg,NA,NA,NA,NA,NA,NA,NA,NA,NA,NA,NA,NA,NA,fixation,NA,NA,NA,NA,NA,NA,sub22
d3-animate-choice,100,468928,0.0-61.0-0.13,TRUE,FALSE,TRUE,TRUE,"""event"",""trial"",""time""
""fullscreenenter"",""5"",""12129""
","
","
","""event"",""trial"",""time""
""fullscreenenter"",""5"",""12129""
","
",480.53499998059124,NA,48,NA,NA,3000,1,NA,NA,images/earth.jpg,images/tutrocket2,images/tutrocket1,null,images/tutrocket2,NA,1,practice,null,2,NA,NA,NA,sub22
d3-animate-choice,101,471603,0.0-61.0-1.13,TRUE,FALSE,TRUE,TRUE,"""event"",""trial"",""time""
""fullscreenenter"",""5"",""12129""
","
","
","""event"",""trial"",""time""
""fullscreenenter"",""5"",""12129""
","
",665.1550000533462,NA,49,NA,NA,3000,1,NA,NA,images/tutgreenplanet.jpg,images/tutalien2,images/tutalien1,images/tutrocket2,images/tutalien1,images/t.png,2,practice,true,1,common,1,2020-06-14T20:20:20Z,sub22
two-step-fixation,102,472611,0.0-61.0-2.13,TRUE,FALSE,TRUE,TRUE,"""event"",""trial"",""time""
""fullscreenenter"",""5"",""12129""
","
","
","""event"",""trial"",""time""
""fullscreenenter"",""5"",""12129""
","
",NA,images/earth.jpg,NA,NA,NA,NA,NA,NA,NA,NA,NA,NA,NA,NA,NA,fixation,NA,NA,NA,NA,NA,NA,sub22
d3-animate-choice,103,474965,0.0-61.0-0.14,TRUE,FALSE,TRUE,TRUE,"""event"",""trial"",""time""
""fullscreenenter"",""5"",""12129""
","
","
","""event"",""trial"",""time""
""fullscreenenter"",""5"",""12129""
","
",347.79000002890825,NA,48,NA,NA,3000,1,NA,NA,images/earth.jpg,images/tutrocket2,images/tutrocket1,null,images/tutrocket2,NA,1,practice,null,2,NA,NA,NA,sub22
d3-animate-choice,104,477567,0.0-61.0-1.14,TRUE,FALSE,TRUE,TRUE,"""event"",""trial"",""time""
""fullscreenenter"",""5"",""12129""
","
","
","""event"",""trial"",""time""
""fullscreenenter"",""5"",""12129""
","
",596.8049999792129,NA,49,NA,NA,3000,1,NA,NA,images/tutgreenplanet.jpg,images/tutalien2,images/tutalien1,images/tutrocket2,images/tutalien1,images/nothing.png,2,practice,true,1,common,0,2020-06-14T20:20:26Z,sub22
two-step-fixation,105,478571,0.0-61.0-2.14,TRUE,FALSE,TRUE,TRUE,"""event"",""trial"",""time""
""fullscreenenter"",""5"",""12129""
","
","
","""event"",""trial"",""time""
""fullscreenenter"",""5"",""12129""
","
",NA,images/earth.jpg,NA,NA,NA,NA,NA,NA,NA,NA,NA,NA,NA,NA,NA,fixation,NA,NA,NA,NA,NA,NA,sub22
d3-animate-choice,106,480947,0.0-61.0-0.15,TRUE,FALSE,TRUE,TRUE,"""event"",""trial"",""time""
""fullscreenenter"",""5"",""12129""
","
","
","""event"",""trial"",""time""
""fullscreenenter"",""5"",""12129""
","
",367.29000008199364,NA,48,NA,NA,3000,1,NA,NA,images/earth.jpg,images/tutrocket2,images/tutrocket1,null,images/tutrocket2,NA,1,practice,null,2,NA,NA,NA,sub22
d3-animate-choice,107,484338,0.0-61.0-1.15,TRUE,FALSE,TRUE,TRUE,"""event"",""trial"",""time""
""fullscreenenter"",""5"",""12129""
","
","
","""event"",""trial"",""time""
""fullscreenenter"",""5"",""12129""
","
",1380.944999982603,NA,48,NA,NA,3000,1,NA,NA,images/tutyellowplanet.jpg,images/tutalien4,images/tutalien3,images/tutrocket2,images/tutalien4,images/nothing.png,2,practice,false,2,rare,0,2020-06-14T20:20:32Z,sub22
two-step-fixation,108,485342,0.0-61.0-2.15,TRUE,FALSE,TRUE,TRUE,"""event"",""trial"",""time""
""fullscreenenter"",""5"",""12129""
","
","
","""event"",""trial"",""time""
""fullscreenenter"",""5"",""12129""
","
",NA,images/earth.jpg,NA,NA,NA,NA,NA,NA,NA,NA,NA,NA,NA,NA,NA,fixation,NA,NA,NA,NA,NA,NA,sub22
d3-animate-choice,109,487785,0.0-61.0-0.16,TRUE,FALSE,TRUE,TRUE,"""event"",""trial"",""time""
""fullscreenenter"",""5"",""12129""
","
","
","""event"",""trial"",""time""
""fullscreenenter"",""5"",""12129""
","
",436.16499996278435,NA,48,NA,NA,3000,1,NA,NA,images/earth.jpg,images/tutrocket2,images/tutrocket1,null,images/tutrocket2,NA,1,practice,null,2,NA,NA,NA,sub22
d3-animate-choice,110,490312,0.0-61.0-1.16,TRUE,FALSE,TRUE,TRUE,"""event"",""trial"",""time""
""fullscreenenter"",""5"",""12129""
","
","
","""event"",""trial"",""time""
""fullscreenenter"",""5"",""12129""
","
",520.4399999929592,NA,48,NA,NA,3000,1,NA,NA,images/tutyellowplanet.jpg,images/tutalien4,images/tutalien3,images/tutrocket2,images/tutalien4,images/t.png,2,practice,false,2,rare,1,2020-06-14T20:20:38Z,sub22
two-step-fixation,111,491316,0.0-61.0-2.16,TRUE,FALSE,TRUE,TRUE,"""event"",""trial"",""time""
""fullscreenenter"",""5"",""12129""
","
","
","""event"",""trial"",""time""
""fullscreenenter"",""5"",""12129""
","
",NA,images/earth.jpg,NA,NA,NA,NA,NA,NA,NA,NA,NA,NA,NA,NA,NA,fixation,NA,NA,NA,NA,NA,NA,sub22
d3-animate-choice,112,493784,0.0-61.0-0.17,TRUE,FALSE,TRUE,TRUE,"""event"",""trial"",""time""
""fullscreenenter"",""5"",""12129""
","
","
","""event"",""trial"",""time""
""fullscreenenter"",""5"",""12129""
","
",464.2350000794977,NA,48,NA,NA,3000,1,NA,NA,images/earth.jpg,images/tutrocket2,images/tutrocket1,null,images/tutrocket2,NA,1,practice,null,2,NA,NA,NA,sub22
d3-animate-choice,113,496370,0.0-61.0-1.17,TRUE,FALSE,TRUE,TRUE,"""event"",""trial"",""time""
""fullscreenenter"",""5"",""12129""
","
","
","""event"",""trial"",""time""
""fullscreenenter"",""5"",""12129""
","
",581.135000102222,NA,48,NA,NA,3000,1,NA,NA,images/tutyellowplanet.jpg,images/tutalien4,images/tutalien3,images/tutrocket2,images/tutalien4,images/nothing.png,2,practice,false,2,rare,0,2020-06-14T20:20:45Z,sub22
two-step-fixation,114,497376,0.0-61.0-2.17,TRUE,FALSE,TRUE,TRUE,"""event"",""trial"",""time""
""fullscreenenter"",""5"",""12129""
","
","
","""event"",""trial"",""time""
""fullscreenenter"",""5"",""12129""
","
",NA,images/earth.jpg,NA,NA,NA,NA,NA,NA,NA,NA,NA,NA,NA,NA,NA,fixation,NA,NA,NA,NA,NA,NA,sub22
d3-animate-choice,115,499442,0.0-61.0-0.18,TRUE,FALSE,TRUE,TRUE,"""event"",""trial"",""time""
""fullscreenenter"",""5"",""12129""
","
","
","""event"",""trial"",""time""
""fullscreenenter"",""5"",""12129""
","
",58.53999999817461,NA,49,NA,NA,3000,1,NA,NA,images/earth.jpg,images/tutrocket2,images/tutrocket1,null,images/tutrocket1,NA,1,practice,null,1,NA,NA,NA,sub22
d3-animate-choice,116,502776,0.0-61.0-1.18,TRUE,FALSE,TRUE,TRUE,"""event"",""trial"",""time""
""fullscreenenter"",""5"",""12129""
","
","
","""event"",""trial"",""time""
""fullscreenenter"",""5"",""12129""
","
",1328.3750000409782,NA,48,NA,NA,3000,1,NA,NA,images/tutgreenplanet.jpg,images/tutalien2,images/tutalien1,images/tutrocket1,images/tutalien2,images/t.png,2,practice,false,2,rare,1,2020-06-14T20:20:51Z,sub22
two-step-fixation,117,503781,0.0-61.0-2.18,TRUE,FALSE,TRUE,TRUE,"""event"",""trial"",""time""
""fullscreenenter"",""5"",""12129""
","
","
","""event"",""trial"",""time""
""fullscreenenter"",""5"",""12129""
","
",NA,images/earth.jpg,NA,NA,NA,NA,NA,NA,NA,NA,NA,NA,NA,NA,NA,fixation,NA,NA,NA,NA,NA,NA,sub22
d3-animate-choice,118,506367,0.0-61.0-0.19,TRUE,FALSE,TRUE,TRUE,"""event"",""trial"",""time""
""fullscreenenter"",""5"",""12129""
","
","
","""event"",""trial"",""time""
""fullscreenenter"",""5"",""12129""
","
",578.2599999802187,NA,49,NA,NA,3000,1,NA,NA,images/earth.jpg,images/tutrocket2,images/tutrocket1,null,images/tutrocket1,NA,1,practice,null,1,NA,NA,NA,sub22
d3-animate-choice,119,509017,0.0-61.0-1.19,TRUE,FALSE,TRUE,TRUE,"""event"",""trial"",""time""
""fullscreenenter"",""5"",""12129""
","
","
","""event"",""trial"",""time""
""fullscreenenter"",""5"",""12129""
","
",643.1699999375269,NA,48,NA,NA,3000,1,NA,NA,images/tutgreenplanet.jpg,images/tutalien2,images/tutalien1,images/tutrocket1,images/tutalien2,images/nothing.png,2,practice,false,2,rare,0,2020-06-14T20:20:57Z,sub22
two-step-fixation,120,510025,0.0-61.0-2.19,TRUE,FALSE,TRUE,TRUE,"""event"",""trial"",""time""
""fullscreenenter"",""5"",""12129""
","
","
","""event"",""trial"",""time""
""fullscreenenter"",""5"",""12129""
","
",NA,images/earth.jpg,NA,NA,NA,NA,NA,NA,NA,NA,NA,NA,NA,NA,NA,fixation,NA,NA,NA,NA,NA,NA,sub22
d3-instructions,121,517161,0.0-62.0,TRUE,FALSE,TRUE,TRUE,"""event"",""trial"",""time""
""fullscreenenter"",""5"",""12129""
","
","
","""event"",""trial"",""time""
""fullscreenenter"",""5"",""12129""
","
",NA,NA,NA,NA,NA,NA,NA,NA,NA,NA,NA,NA,NA,NA,NA,NA,NA,NA,NA,NA,NA,NA,sub22
audio-keyboard-response,122,520989,0.0-63.0,TRUE,FALSE,TRUE,TRUE,"""event"",""trial"",""time""
""fullscreenenter"",""5"",""12129""
","
","
","""event"",""trial"",""time""
""fullscreenenter"",""5"",""12129""
","
",3825,audio/instructions/treasure_feedback.wav,32,NA,NA,NA,NA,NA,NA,NA,NA,NA,NA,NA,NA,NA,NA,NA,NA,NA,NA,NA,sub22
d3-instructions,123,540372,0.0-64.0,TRUE,FALSE,TRUE,TRUE,"""event"",""trial"",""time""
""fullscreenenter"",""5"",""12129""
","
","
","""event"",""trial"",""time""
""fullscreenenter"",""5"",""12129""
","
",NA,NA,NA,NA,NA,NA,NA,NA,NA,NA,NA,NA,NA,NA,NA,NA,NA,NA,NA,NA,NA,NA,sub22
d3-instructions,124,553878,0.0-65.0,TRUE,FALSE,TRUE,TRUE,"""event"",""trial"",""time""
""fullscreenenter"",""5"",""12129""
","
","
","""event"",""trial"",""time""
""fullscreenenter"",""5"",""12129""
","
",NA,NA,NA,NA,NA,NA,NA,NA,NA,NA,NA,NA,NA,NA,NA,NA,NA,NA,NA,NA,NA,NA,sub22
d3-instructions,125,570908,0.0-66.0,TRUE,FALSE,TRUE,TRUE,"""event"",""trial"",""time""
""fullscreenenter"",""5"",""12129""
","
","
","""event"",""trial"",""time""
""fullscreenenter"",""5"",""12129""
","
",NA,NA,NA,NA,NA,NA,NA,NA,NA,NA,NA,NA,NA,NA,NA,NA,NA,NA,NA,NA,NA,NA,sub22
d3-instructions,126,586751,0.0-67.0,TRUE,FALSE,TRUE,TRUE,"""event"",""trial"",""time""
""fullscreenenter"",""5"",""12129""
","
","
","""event"",""trial"",""time""
""fullscreenenter"",""5"",""12129""
","
",NA,NA,NA,NA,NA,NA,NA,NA,NA,NA,NA,NA,NA,NA,NA,NA,NA,NA,NA,NA,NA,NA,sub22
d3-instructions,127,595814,0.0-68.0,TRUE,FALSE,TRUE,TRUE,"""event"",""trial"",""time""
""fullscreenenter"",""5"",""12129""
","
","
","""event"",""trial"",""time""
""fullscreenenter"",""5"",""12129""
","
",NA,NA,NA,NA,NA,NA,NA,NA,NA,NA,NA,NA,NA,NA,NA,NA,NA,NA,NA,NA,NA,NA,sub22
instructions-quiz,128,601097,0.0-69.0,TRUE,FALSE,TRUE,TRUE,"""event"",""trial"",""time""
""fullscreenenter"",""5"",""12129""
","
","
","""event"",""trial"",""time""
""fullscreenenter"",""5"",""12129""
","
",5280.54000006523,audio/quiz/Q1_Prompt.wav,NA,1,NA,NA,NA,NA,NA,NA,NA,NA,NA,NA,NA,NA,NA,NA,NA,NA,NA,NA,sub22
audio-keyboard-response,129,610269,0.0-70.0,TRUE,FALSE,TRUE,TRUE,"""event"",""trial"",""time""
""fullscreenenter"",""5"",""12129""
","
","
","""event"",""trial"",""time""
""fullscreenenter"",""5"",""12129""
","
",null,audio/quiz/Q1_Correct.wav,null,NA,NA,NA,NA,NA,NA,NA,NA,NA,NA,NA,NA,NA,NA,NA,NA,NA,NA,NA,sub22
instructions-quiz,130,615788,0.0-71.0,TRUE,FALSE,TRUE,TRUE,"""event"",""trial"",""time""
""fullscreenenter"",""5"",""12129""
","
","
","""event"",""trial"",""time""
""fullscreenenter"",""5"",""12129""
","
",5517.289999988861,audio/quiz/Q2_Prompt.wav,NA,0,NA,NA,NA,NA,NA,NA,NA,NA,NA,NA,NA,NA,NA,NA,NA,NA,NA,NA,sub22
audio-keyboard-response,131,628661,0.0-72.0,TRUE,FALSE,TRUE,TRUE,"""event"",""trial"",""time""
""fullscreenenter"",""5"",""12129""
","
","
","""event"",""trial"",""time""
""fullscreenenter"",""5"",""12129""
","
",null,audio/quiz/Q2_Correct.wav,null,NA,NA,NA,NA,NA,NA,NA,NA,NA,NA,NA,NA,NA,NA,NA,NA,NA,NA,NA,sub22
instructions-quiz,132,631750,0.0-73.0,TRUE,FALSE,TRUE,TRUE,"""event"",""trial"",""time""
""fullscreenenter"",""5"",""12129""
","
","
","""event"",""trial"",""time""
""fullscreenenter"",""5"",""12129""
","
",3086.714999983087,audio/quiz/Q3_Prompt.wav,NA,1,NA,NA,NA,NA,NA,NA,NA,NA,NA,NA,NA,NA,NA,NA,NA,NA,NA,NA,sub22
audio-keyboard-response,133,637550,0.0-74.0,TRUE,FALSE,TRUE,TRUE,"""event"",""trial"",""time""
""fullscreenenter"",""5"",""12129""
","
","
","""event"",""trial"",""time""
""fullscreenenter"",""5"",""12129""
","
",null,audio/quiz/Q3_Correct.wav,null,NA,NA,NA,NA,NA,NA,NA,NA,NA,NA,NA,NA,NA,NA,NA,NA,NA,NA,NA,sub22
d3-instructions,134,650899,0.0-75.0,TRUE,FALSE,TRUE,TRUE,"""event"",""trial"",""time""
""fullscreenenter"",""5"",""12129""
","
","
","""event"",""trial"",""time""
""fullscreenenter"",""5"",""12129""
","
",NA,NA,NA,NA,NA,NA,NA,NA,NA,NA,NA,NA,NA,NA,NA,NA,NA,NA,NA,NA,NA,NA,sub22
d3-animate-choice,135,654050,0.0-76.0-0.0,TRUE,FALSE,TRUE,TRUE,"""event"",""trial"",""time""
""fullscreenenter"",""5"",""12129""
","
","
","""event"",""trial"",""time""
""fullscreenenter"",""5"",""12129""
","
",1143.8850000267848,NA,49,NA,NA,3000,1,NA,NA,images/earth.jpg,images/rocket2,images/rocket1,null,images/rocket1,NA,1,real,null,1,NA,NA,NA,sub22
d3-animate-choice,136,657196,0.0-76.0-1.0,TRUE,FALSE,TRUE,TRUE,"""event"",""trial"",""time""
""fullscreenenter"",""5"",""12129""
","
","
","""event"",""trial"",""time""
""fullscreenenter"",""5"",""12129""
","
",1140.4649999458343,NA,48,NA,NA,3000,1,NA,NA,images/redplanet1.jpg,images/alien2,images/alien1,images/rocket1,images/alien2,images/nothing.png,2,real,false,2,rare,0,2020-06-14T20:23:25Z,sub22
two-step-fixation,137,658201,0.0-76.0-2.0,TRUE,FALSE,TRUE,TRUE,"""event"",""trial"",""time""
""fullscreenenter"",""5"",""12129""
","
","
","""event"",""trial"",""time""
""fullscreenenter"",""5"",""12129""
","
",NA,images/earth.jpg,NA,NA,NA,NA,NA,NA,NA,NA,NA,NA,NA,NA,NA,fixation,NA,NA,NA,NA,NA,NA,sub22
d3-animate-choice,138,660616,0.0-76.0-0.1,TRUE,FALSE,TRUE,TRUE,"""event"",""trial"",""time""
""fullscreenenter"",""5"",""12129""
","
","
","""event"",""trial"",""time""
""fullscreenenter"",""5"",""12129""
","
",410.82500002812594,NA,49,NA,NA,3000,1,NA,NA,images/earth.jpg,images/rocket2,images/rocket1,null,images/rocket1,NA,1,real,null,1,NA,NA,NA,sub22
d3-animate-choice,139,663746,0.0-76.0-1.1,TRUE,FALSE,TRUE,TRUE,"""event"",""trial"",""time""
""fullscreenenter"",""5"",""12129""
","
","
","""event"",""trial"",""time""
""fullscreenenter"",""5"",""12129""
","
",1125.679999939166,NA,48,NA,NA,3000,1,NA,NA,images/purpleplanet.jpg,images/alien4,images/alien3,images/rocket1,images/alien4,images/nothing.png,2,real,true,2,common,0,2020-06-14T20:23:32Z,sub22
two-step-fixation,140,664750,0.0-76.0-2.1,TRUE,FALSE,TRUE,TRUE,"""event"",""trial"",""time""
""fullscreenenter"",""5"",""12129""
","
","
","""event"",""trial"",""time""
""fullscreenenter"",""5"",""12129""
","
",NA,images/earth.jpg,NA,NA,NA,NA,NA,NA,NA,NA,NA,NA,NA,NA,NA,fixation,NA,NA,NA,NA,NA,NA,sub22
d3-animate-choice,141,667531,0.0-76.0-0.2,TRUE,FALSE,TRUE,TRUE,"""event"",""trial"",""time""
""fullscreenenter"",""5"",""12129""
","
","
","""event"",""trial"",""time""
""fullscreenenter"",""5"",""12129""
","
",775.7100000744686,NA,49,NA,NA,3000,1,NA,NA,images/earth.jpg,images/rocket2,images/rocket1,null,images/rocket1,NA,1,real,null,1,NA,NA,NA,sub22
d3-animate-choice,142,670382,0.0-76.0-1.2,TRUE,FALSE,TRUE,TRUE,"""event"",""trial"",""time""
""fullscreenenter"",""5"",""12129""
","
","
","""event"",""trial"",""time""
""fullscreenenter"",""5"",""12129""
","
",845.0199998915195,NA,49,NA,NA,3000,1,NA,NA,images/redplanet1.jpg,images/alien2,images/alien1,images/rocket1,images/alien1,images/nothing.png,2,real,false,1,rare,0,2020-06-14T20:23:39Z,sub22
two-step-fixation,143,671389,0.0-76.0-2.2,TRUE,FALSE,TRUE,TRUE,"""event"",""trial"",""time""
""fullscreenenter"",""5"",""12129""
","
","
","""event"",""trial"",""time""
""fullscreenenter"",""5"",""12129""
","
",NA,images/earth.jpg,NA,NA,NA,NA,NA,NA,NA,NA,NA,NA,NA,NA,NA,fixation,NA,NA,NA,NA,NA,NA,sub22
d3-animate-choice,144,673801,0.0-76.0-0.3,TRUE,FALSE,TRUE,TRUE,"""event"",""trial"",""time""
""fullscreenenter"",""5"",""12129""
","
","
","""event"",""trial"",""time""
""fullscreenenter"",""5"",""12129""
","
",406.45500004757196,NA,49,NA,NA,3000,1,NA,NA,images/earth.jpg,images/rocket2,images/rocket1,null,images/rocket1,NA,1,real,null,1,NA,NA,NA,sub22
d3-animate-choice,145,677177,0.0-76.0-1.3,TRUE,FALSE,TRUE,TRUE,"""event"",""trial"",""time""
""fullscreenenter"",""5"",""12129""
","
","
","""event"",""trial"",""time""
""fullscreenenter"",""5"",""12129""
","
",1371.4499999769032,NA,49,NA,NA,3000,1,NA,NA,images/purpleplanet.jpg,images/alien4,images/alien3,images/rocket1,images/alien3,images/nothing.png,2,real,true,1,common,0,2020-06-14T20:23:45Z,sub22
two-step-fixation,146,678182,0.0-76.0-2.3,TRUE,FALSE,TRUE,TRUE,"""event"",""trial"",""time""
""fullscreenenter"",""5"",""12129""
","
","
","""event"",""trial"",""time""
""fullscreenenter"",""5"",""12129""
","
",NA,images/earth.jpg,NA,NA,NA,NA,NA,NA,NA,NA,NA,NA,NA,NA,NA,fixation,NA,NA,NA,NA,NA,NA,sub22
d3-animate-choice,147,681258,0.0-76.0-0.4,TRUE,FALSE,TRUE,TRUE,"""event"",""trial"",""time""
""fullscreenenter"",""5"",""12129""
","
","
","""event"",""trial"",""time""
""fullscreenenter"",""5"",""12129""
","
",1070.229999953881,NA,49,NA,NA,3000,1,NA,NA,images/earth.jpg,images/rocket2,images/rocket1,null,images/rocket1,NA,1,real,null,1,NA,NA,NA,sub22
d3-animate-choice,148,684351,0.0-76.0-1.4,TRUE,FALSE,TRUE,TRUE,"""event"",""trial"",""time""
""fullscreenenter"",""5"",""12129""
","
","
","""event"",""trial"",""time""
""fullscreenenter"",""5"",""12129""
","
",1088.3450000546873,NA,49,NA,NA,3000,1,NA,NA,images/purpleplanet.jpg,images/alien4,images/alien3,images/rocket1,images/alien3,images/t.png,2,real,true,1,common,1,2020-06-14T20:23:53Z,sub22
two-step-fixation,149,685355,0.0-76.0-2.4,TRUE,FALSE,TRUE,TRUE,"""event"",""trial"",""time""
""fullscreenenter"",""5"",""12129""
","
","
","""event"",""trial"",""time""
""fullscreenenter"",""5"",""12129""
","
",NA,images/earth.jpg,NA,NA,NA,NA,NA,NA,NA,NA,NA,NA,NA,NA,NA,fixation,NA,NA,NA,NA,NA,NA,sub22
d3-animate-choice,150,688477,0.0-76.0-0.5,TRUE,FALSE,TRUE,TRUE,"""event"",""trial"",""time""
""fullscreenenter"",""5"",""12129""
","
","
","""event"",""trial"",""time""
""fullscreenenter"",""5"",""12129""
","
",1111.6749999346212,NA,48,NA,NA,3000,1,NA,NA,images/earth.jpg,images/rocket2,images/rocket1,null,images/rocket2,NA,1,real,null,2,NA,NA,NA,sub22
d3-animate-choice,151,692242,0.0-76.0-1.5,TRUE,FALSE,TRUE,TRUE,"""event"",""trial"",""time""
""fullscreenenter"",""5"",""12129""
","
","
","""event"",""trial"",""time""
""fullscreenenter"",""5"",""12129""
","
",1760.0749999983236,NA,48,NA,NA,3000,1,NA,NA,images/redplanet1.jpg,images/alien2,images/alien1,images/rocket2,images/alien2,images/t.png,2,real,true,2,common,1,2020-06-14T20:24:00Z,sub22
two-step-fixation,152,693247,0.0-76.0-2.5,TRUE,FALSE,TRUE,TRUE,"""event"",""trial"",""time""
""fullscreenenter"",""5"",""12129""
","
","
","""event"",""trial"",""time""
""fullscreenenter"",""5"",""12129""
","
",NA,images/earth.jpg,NA,NA,NA,NA,NA,NA,NA,NA,NA,NA,NA,NA,NA,fixation,NA,NA,NA,NA,NA,NA,sub22
d3-animate-choice,153,695566,0.0-76.0-0.6,TRUE,FALSE,TRUE,TRUE,"""event"",""trial"",""time""
""fullscreenenter"",""5"",""12129""
","
","
","""event"",""trial"",""time""
""fullscreenenter"",""5"",""12129""
","
",313.89500002842396,NA,48,NA,NA,3000,1,NA,NA,images/earth.jpg,images/rocket2,images/rocket1,null,images/rocket2,NA,1,real,null,2,NA,NA,NA,sub22
d3-animate-choice,154,698104,0.0-76.0-1.6,TRUE,FALSE,TRUE,TRUE,"""event"",""trial"",""time""
""fullscreenenter"",""5"",""12129""
","
","
","""event"",""trial"",""time""
""fullscreenenter"",""5"",""12129""
","
",530.0099999876693,NA,48,NA,NA,3000,1,NA,NA,images/redplanet1.jpg,images/alien2,images/alien1,images/rocket2,images/alien2,images/nothing.png,2,real,true,2,common,0,2020-06-14T20:24:06Z,sub22
two-step-fixation,155,699113,0.0-76.0-2.6,TRUE,FALSE,TRUE,TRUE,"""event"",""trial"",""time""
""fullscreenenter"",""5"",""12129""
","
","
","""event"",""trial"",""time""
""fullscreenenter"",""5"",""12129""
","
",NA,images/earth.jpg,NA,NA,NA,NA,NA,NA,NA,NA,NA,NA,NA,NA,NA,fixation,NA,NA,NA,NA,NA,NA,sub22
d3-animate-choice,156,702791,0.0-76.0-0.7,TRUE,FALSE,TRUE,TRUE,"""event"",""trial"",""time""
""fullscreenenter"",""5"",""12129""
","
","
","""event"",""trial"",""time""
""fullscreenenter"",""5"",""12129""
","
",1669.0099999541417,NA,48,NA,NA,3000,1,NA,NA,images/earth.jpg,images/rocket2,images/rocket1,null,images/rocket2,NA,1,real,null,2,NA,NA,NA,sub22
d3-animate-choice,157,705356,0.0-76.0-1.7,TRUE,FALSE,TRUE,TRUE,"""event"",""trial"",""time""
""fullscreenenter"",""5"",""12129""
","
","
","""event"",""trial"",""time""
""fullscreenenter"",""5"",""12129""
","
",559.914999990724,NA,48,NA,NA,3000,1,NA,NA,images/redplanet1.jpg,images/alien2,images/alien1,images/rocket2,images/alien2,images/t.png,2,real,true,2,common,1,2020-06-14T20:24:14Z,sub22
two-step-fixation,158,706360,0.0-76.0-2.7,TRUE,FALSE,TRUE,TRUE,"""event"",""trial"",""time""
""fullscreenenter"",""5"",""12129""
","
","
","""event"",""trial"",""time""
""fullscreenenter"",""5"",""12129""
","
",NA,images/earth.jpg,NA,NA,NA,NA,NA,NA,NA,NA,NA,NA,NA,NA,NA,fixation,NA,NA,NA,NA,NA,NA,sub22
d3-animate-choice,159,708713,0.0-76.0-0.8,TRUE,FALSE,TRUE,TRUE,"""event"",""trial"",""time""
""fullscreenenter"",""5"",""12129""
","
","
","""event"",""trial"",""time""
""fullscreenenter"",""5"",""12129""
","
",347.83999994397163,NA,48,NA,NA,3000,1,NA,NA,images/earth.jpg,images/rocket2,images/rocket1,null,images/rocket2,NA,1,real,null,2,NA,NA,NA,sub22
d3-animate-choice,160,711306,0.0-76.0-1.8,TRUE,FALSE,TRUE,TRUE,"""event"",""trial"",""time""
""fullscreenenter"",""5"",""12129""
","
","
","""event"",""trial"",""time""
""fullscreenenter"",""5"",""12129""
","
",588.6600000085309,NA,48,NA,NA,3000,1,NA,NA,images/redplanet1.jpg,images/alien2,images/alien1,images/rocket2,images/alien2,images/t.png,2,real,true,2,common,1,2020-06-14T20:24:19Z,sub22
two-step-fixation,161,712312,0.0-76.0-2.8,TRUE,FALSE,TRUE,TRUE,"""event"",""trial"",""time""
""fullscreenenter"",""5"",""12129""
","
","
","""event"",""trial"",""time""
""fullscreenenter"",""5"",""12129""
","
",NA,images/earth.jpg,NA,NA,NA,NA,NA,NA,NA,NA,NA,NA,NA,NA,NA,fixation,NA,NA,NA,NA,NA,NA,sub22
d3-animate-choice,162,714648,0.0-76.0-0.9,TRUE,FALSE,TRUE,TRUE,"""event"",""trial"",""time""
""fullscreenenter"",""5"",""12129""
","
","
","""event"",""trial"",""time""
""fullscreenenter"",""5"",""12129""
","
",326.9299999810755,NA,48,NA,NA,3000,1,NA,NA,images/earth.jpg,images/rocket2,images/rocket1,null,images/rocket2,NA,1,real,null,2,NA,NA,NA,sub22
d3-animate-choice,163,717114,0.0-76.0-1.9,TRUE,FALSE,TRUE,TRUE,"""event"",""trial"",""time""
""fullscreenenter"",""5"",""12129""
","
","
","""event"",""trial"",""time""
""fullscreenenter"",""5"",""12129""
","
",457.12499995715916,NA,48,NA,NA,3000,1,NA,NA,images/redplanet1.jpg,images/alien2,images/alien1,images/rocket2,images/alien2,images/t.png,2,real,true,2,common,1,2020-06-14T20:24:25Z,sub22
two-step-fixation,164,718119,0.0-76.0-2.9,TRUE,FALSE,TRUE,TRUE,"""event"",""trial"",""time""
""fullscreenenter"",""5"",""12129""
","
","
","""event"",""trial"",""time""
""fullscreenenter"",""5"",""12129""
","
",NA,images/earth.jpg,NA,NA,NA,NA,NA,NA,NA,NA,NA,NA,NA,NA,NA,fixation,NA,NA,NA,NA,NA,NA,sub22
d3-animate-choice,165,720430,0.0-76.0-0.10,TRUE,FALSE,TRUE,TRUE,"""event"",""trial"",""time""
""fullscreenenter"",""5"",""12129""
","
","
","""event"",""trial"",""time""
""fullscreenenter"",""5"",""12129""
","
",305.59500004164875,NA,48,NA,NA,3000,1,NA,NA,images/earth.jpg,images/rocket2,images/rocket1,null,images/rocket2,NA,1,real,null,2,NA,NA,NA,sub22
d3-animate-choice,166,722875,0.0-76.0-1.10,TRUE,FALSE,TRUE,TRUE,"""event"",""trial"",""time""
""fullscreenenter"",""5"",""12129""
","
","
","""event"",""trial"",""time""
""fullscreenenter"",""5"",""12129""
","
",438.0349999992177,NA,48,NA,NA,3000,1,NA,NA,images/redplanet1.jpg,images/alien2,images/alien1,images/rocket2,images/alien2,images/nothing.png,2,real,true,2,common,0,2020-06-14T20:24:31Z,sub22
two-step-fixation,167,723880,0.0-76.0-2.10,TRUE,FALSE,TRUE,TRUE,"""event"",""trial"",""time""
""fullscreenenter"",""5"",""12129""
","
","
","""event"",""trial"",""time""
""fullscreenenter"",""5"",""12129""
","
",NA,images/earth.jpg,NA,NA,NA,NA,NA,NA,NA,NA,NA,NA,NA,NA,NA,fixation,NA,NA,NA,NA,NA,NA,sub22
d3-animate-choice,168,726308,0.0-76.0-0.11,TRUE,FALSE,TRUE,TRUE,"""event"",""trial"",""time""
""fullscreenenter"",""5"",""12129""
","
","
","""event"",""trial"",""time""
""fullscreenenter"",""5"",""12129""
","
",423.72000007890165,NA,49,NA,NA,3000,1,NA,NA,images/earth.jpg,images/rocket2,images/rocket1,null,images/rocket1,NA,1,real,null,1,NA,NA,NA,sub22
d3-animate-choice,169,729925,0.0-76.0-1.11,TRUE,FALSE,TRUE,TRUE,"""event"",""trial"",""time""
""fullscreenenter"",""5"",""12129""
","
","
","""event"",""trial"",""time""
""fullscreenenter"",""5"",""12129""
","
",1611.0800000606105,NA,48,NA,NA,3000,1,NA,NA,images/purpleplanet.jpg,images/alien4,images/alien3,images/rocket1,images/alien4,images/t.png,2,real,true,2,common,1,2020-06-14T20:24:38Z,sub22
two-step-fixation,170,730931,0.0-76.0-2.11,TRUE,FALSE,TRUE,TRUE,"""event"",""trial"",""time""
""fullscreenenter"",""5"",""12129""
","
","
","""event"",""trial"",""time""
""fullscreenenter"",""5"",""12129""
","
",NA,images/earth.jpg,NA,NA,NA,NA,NA,NA,NA,NA,NA,NA,NA,NA,NA,fixation,NA,NA,NA,NA,NA,NA,sub22
d3-animate-choice,171,734299,0.0-76.0-0.12,TRUE,FALSE,TRUE,TRUE,"""event"",""trial"",""time""
""fullscreenenter"",""5"",""12129""
","
","
","""event"",""trial"",""time""
""fullscreenenter"",""5"",""12129""
","
",1361.4999999990687,NA,49,NA,NA,3000,1,NA,NA,images/earth.jpg,images/rocket2,images/rocket1,null,images/rocket1,NA,1,real,null,1,NA,NA,NA,sub22
d3-animate-choice,172,736726,0.0-76.0-1.12,TRUE,FALSE,TRUE,TRUE,"""event"",""trial"",""time""
""fullscreenenter"",""5"",""12129""
","
","
","""event"",""trial"",""time""
""fullscreenenter"",""5"",""12129""
","
",419.21500000171363,NA,48,NA,NA,3000,1,NA,NA,images/redplanet1.jpg,images/alien2,images/alien1,images/rocket1,images/alien2,images/t.png,2,real,false,2,rare,1,2020-06-14T20:24:45Z,sub22
two-step-fixation,173,737731,0.0-76.0-2.12,TRUE,FALSE,TRUE,TRUE,"""event"",""trial"",""time""
""fullscreenenter"",""5"",""12129""
","
","
","""event"",""trial"",""time""
""fullscreenenter"",""5"",""12129""
","
",NA,images/earth.jpg,NA,NA,NA,NA,NA,NA,NA,NA,NA,NA,NA,NA,NA,fixation,NA,NA,NA,NA,NA,NA,sub22
d3-animate-choice,174,740135,0.0-76.0-0.13,TRUE,FALSE,TRUE,TRUE,"""event"",""trial"",""time""
""fullscreenenter"",""5"",""12129""
","
","
","""event"",""trial"",""time""
""fullscreenenter"",""5"",""12129""
","
",398.5150000080466,NA,49,NA,NA,3000,1,NA,NA,images/earth.jpg,images/rocket2,images/rocket1,null,images/rocket1,NA,1,real,null,1,NA,NA,NA,sub22
d3-animate-choice,175,742830,0.0-76.0-1.13,TRUE,FALSE,TRUE,TRUE,"""event"",""trial"",""time""
""fullscreenenter"",""5"",""12129""
","
","
","""event"",""trial"",""time""
""fullscreenenter"",""5"",""12129""
","
",689.5000000949949,NA,48,NA,NA,3000,1,NA,NA,images/purpleplanet.jpg,images/alien4,images/alien3,images/rocket1,images/alien4,images/t.png,2,real,true,2,common,1,2020-06-14T20:24:51Z,sub22
two-step-fixation,176,743834,0.0-76.0-2.13,TRUE,FALSE,TRUE,TRUE,"""event"",""trial"",""time""
""fullscreenenter"",""5"",""12129""
","
","
","""event"",""trial"",""time""
""fullscreenenter"",""5"",""12129""
","
",NA,images/earth.jpg,NA,NA,NA,NA,NA,NA,NA,NA,NA,NA,NA,NA,NA,fixation,NA,NA,NA,NA,NA,NA,sub22
d3-animate-choice,177,746284,0.0-76.0-0.14,TRUE,FALSE,TRUE,TRUE,"""event"",""trial"",""time""
""fullscreenenter"",""5"",""12129""
","
","
","""event"",""trial"",""time""
""fullscreenenter"",""5"",""12129""
","
",439.8350000847131,NA,49,NA,NA,3000,1,NA,NA,images/earth.jpg,images/rocket2,images/rocket1,null,images/rocket1,NA,1,real,null,1,NA,NA,NA,sub22
d3-animate-choice,178,748766,0.0-76.0-1.14,TRUE,FALSE,TRUE,TRUE,"""event"",""trial"",""time""
""fullscreenenter"",""5"",""12129""
","
","
","""event"",""trial"",""time""
""fullscreenenter"",""5"",""12129""
","
",476.36500000953674,NA,48,NA,NA,3000,1,NA,NA,images/purpleplanet.jpg,images/alien4,images/alien3,images/rocket1,images/alien4,images/t.png,2,real,true,2,common,1,2020-06-14T20:24:57Z,sub22
two-step-fixation,179,749771,0.0-76.0-2.14,TRUE,FALSE,TRUE,TRUE,"""event"",""trial"",""time""
""fullscreenenter"",""5"",""12129""
","
","
","""event"",""trial"",""time""
""fullscreenenter"",""5"",""12129""
","
",NA,images/earth.jpg,NA,NA,NA,NA,NA,NA,NA,NA,NA,NA,NA,NA,NA,fixation,NA,NA,NA,NA,NA,NA,sub22
d3-animate-choice,180,752175,0.0-76.0-0.15,TRUE,FALSE,TRUE,TRUE,"""event"",""trial"",""time""
""fullscreenenter"",""5"",""12129""
","
","
","""event"",""trial"",""time""
""fullscreenenter"",""5"",""12129""
","
",399.4949999032542,NA,49,NA,NA,3000,1,NA,NA,images/earth.jpg,images/rocket2,images/rocket1,null,images/rocket1,NA,1,real,null,1,NA,NA,NA,sub22
d3-animate-choice,181,754670,0.0-76.0-1.15,TRUE,FALSE,TRUE,TRUE,"""event"",""trial"",""time""
""fullscreenenter"",""5"",""12129""
","
","
","""event"",""trial"",""time""
""fullscreenenter"",""5"",""12129""
","
",487.18499997630715,NA,48,NA,NA,3000,1,NA,NA,images/purpleplanet.jpg,images/alien4,images/alien3,images/rocket1,images/alien4,images/t.png,2,real,true,2,common,1,2020-06-14T20:25:03Z,sub22
two-step-fixation,182,755676,0.0-76.0-2.15,TRUE,FALSE,TRUE,TRUE,"""event"",""trial"",""time""
""fullscreenenter"",""5"",""12129""
","
","
","""event"",""trial"",""time""
""fullscreenenter"",""5"",""12129""
","
",NA,images/earth.jpg,NA,NA,NA,NA,NA,NA,NA,NA,NA,NA,NA,NA,NA,fixation,NA,NA,NA,NA,NA,NA,sub22
d3-animate-choice,183,758036,0.0-76.0-0.16,TRUE,FALSE,TRUE,TRUE,"""event"",""trial"",""time""
""fullscreenenter"",""5"",""12129""
","
","
","""event"",""trial"",""time""
""fullscreenenter"",""5"",""12129""
","
",354.1399999521673,NA,49,NA,NA,3000,1,NA,NA,images/earth.jpg,images/rocket2,images/rocket1,null,images/rocket1,NA,1,real,null,1,NA,NA,NA,sub22
d3-animate-choice,184,760460,0.0-76.0-1.16,TRUE,FALSE,TRUE,TRUE,"""event"",""trial"",""time""
""fullscreenenter"",""5"",""12129""
","
","
","""event"",""trial"",""time""
""fullscreenenter"",""5"",""12129""
","
",415.720000048168,NA,48,NA,NA,3000,1,NA,NA,images/purpleplanet.jpg,images/alien4,images/alien3,images/rocket1,images/alien4,images/t.png,2,real,true,2,common,1,2020-06-14T20:25:09Z,sub22
two-step-fixation,185,761465,0.0-76.0-2.16,TRUE,FALSE,TRUE,TRUE,"""event"",""trial"",""time""
""fullscreenenter"",""5"",""12129""
","
","
","""event"",""trial"",""time""
""fullscreenenter"",""5"",""12129""
","
",NA,images/earth.jpg,NA,NA,NA,NA,NA,NA,NA,NA,NA,NA,NA,NA,NA,fixation,NA,NA,NA,NA,NA,NA,sub22
d3-animate-choice,186,763852,0.0-76.0-0.17,TRUE,FALSE,TRUE,TRUE,"""event"",""trial"",""time""
""fullscreenenter"",""5"",""12129""
","
","
","""event"",""trial"",""time""
""fullscreenenter"",""5"",""12129""
","
",382.46500003151596,NA,49,NA,NA,3000,1,NA,NA,images/earth.jpg,images/rocket2,images/rocket1,null,images/rocket1,NA,1,real,null,1,NA,NA,NA,sub22
d3-animate-choice,187,766242,0.0-76.0-1.17,TRUE,FALSE,TRUE,TRUE,"""event"",""trial"",""time""
""fullscreenenter"",""5"",""12129""
","
","
","""event"",""trial"",""time""
""fullscreenenter"",""5"",""12129""
","
",383.25000007171184,NA,48,NA,NA,3000,1,NA,NA,images/purpleplanet.jpg,images/alien4,images/alien3,images/rocket1,images/alien4,images/t.png,2,real,true,2,common,1,2020-06-14T20:25:14Z,sub22
two-step-fixation,188,767246,0.0-76.0-2.17,TRUE,FALSE,TRUE,TRUE,"""event"",""trial"",""time""
""fullscreenenter"",""5"",""12129""
","
","
","""event"",""trial"",""time""
""fullscreenenter"",""5"",""12129""
","
",NA,images/earth.jpg,NA,NA,NA,NA,NA,NA,NA,NA,NA,NA,NA,NA,NA,fixation,NA,NA,NA,NA,NA,NA,sub22
d3-animate-choice,189,769735,0.0-76.0-0.18,TRUE,FALSE,TRUE,TRUE,"""event"",""trial"",""time""
""fullscreenenter"",""5"",""12129""
","
","
","""event"",""trial"",""time""
""fullscreenenter"",""5"",""12129""
","
",482.8099999576807,NA,49,NA,NA,3000,1,NA,NA,images/earth.jpg,images/rocket2,images/rocket1,null,images/rocket1,NA,1,real,null,1,NA,NA,NA,sub22
d3-animate-choice,190,772330,0.0-76.0-1.18,TRUE,FALSE,TRUE,TRUE,"""event"",""trial"",""time""
""fullscreenenter"",""5"",""12129""
","
","
","""event"",""trial"",""time""
""fullscreenenter"",""5"",""12129""
","
",591.0150000127032,NA,48,NA,NA,3000,1,NA,NA,images/purpleplanet.jpg,images/alien4,images/alien3,images/rocket1,images/alien4,images/t.png,2,real,true,2,common,1,2020-06-14T20:25:20Z,sub22
two-step-fixation,191,773334,0.0-76.0-2.18,TRUE,FALSE,TRUE,TRUE,"""event"",""trial"",""time""
""fullscreenenter"",""5"",""12129""
","
","
","""event"",""trial"",""time""
""fullscreenenter"",""5"",""12129""
","
",NA,images/earth.jpg,NA,NA,NA,NA,NA,NA,NA,NA,NA,NA,NA,NA,NA,fixation,NA,NA,NA,NA,NA,NA,sub22
d3-animate-choice,192,775747,0.0-76.0-0.19,TRUE,FALSE,TRUE,TRUE,"""event"",""trial"",""time""
""fullscreenenter"",""5"",""12129""
","
","
","""event"",""trial"",""time""
""fullscreenenter"",""5"",""12129""
","
",408.00499997567385,NA,49,NA,NA,3000,1,NA,NA,images/earth.jpg,images/rocket2,images/rocket1,null,images/rocket1,NA,1,real,null,1,NA,NA,NA,sub22
d3-animate-choice,193,778163,0.0-76.0-1.19,TRUE,FALSE,TRUE,TRUE,"""event"",""trial"",""time""
""fullscreenenter"",""5"",""12129""
","
","
","""event"",""trial"",""time""
""fullscreenenter"",""5"",""12129""
","
",409.4150000018999,NA,48,NA,NA,3000,1,NA,NA,images/purpleplanet.jpg,images/alien4,images/alien3,images/rocket1,images/alien4,images/t.png,2,real,true,2,common,1,2020-06-14T20:25:26Z,sub22
two-step-fixation,194,779169,0.0-76.0-2.19,TRUE,FALSE,TRUE,TRUE,"""event"",""trial"",""time""
""fullscreenenter"",""5"",""12129""
","
","
","""event"",""trial"",""time""
""fullscreenenter"",""5"",""12129""
","
",NA,images/earth.jpg,NA,NA,NA,NA,NA,NA,NA,NA,NA,NA,NA,NA,NA,fixation,NA,NA,NA,NA,NA,NA,sub22
d3-animate-choice,195,781500,0.0-76.0-0.20,TRUE,FALSE,TRUE,TRUE,"""event"",""trial"",""time""
""fullscreenenter"",""5"",""12129""
","
","
","""event"",""trial"",""time""
""fullscreenenter"",""5"",""12129""
","
",324.15000000037253,NA,49,NA,NA,3000,1,NA,NA,images/earth.jpg,images/rocket2,images/rocket1,null,images/rocket1,NA,1,real,null,1,NA,NA,NA,sub22
d3-animate-choice,196,783884,0.0-76.0-1.20,TRUE,FALSE,TRUE,TRUE,"""event"",""trial"",""time""
""fullscreenenter"",""5"",""12129""
","
","
","""event"",""trial"",""time""
""fullscreenenter"",""5"",""12129""
","
",374.72999992314726,NA,48,NA,NA,3000,1,NA,NA,images/purpleplanet.jpg,images/alien4,images/alien3,images/rocket1,images/alien4,images/nothing.png,2,real,true,2,common,0,2020-06-14T20:25:32Z,sub22
two-step-fixation,197,784891,0.0-76.0-2.20,TRUE,FALSE,TRUE,TRUE,"""event"",""trial"",""time""
""fullscreenenter"",""5"",""12129""
","
","
","""event"",""trial"",""time""
""fullscreenenter"",""5"",""12129""
","
",NA,images/earth.jpg,NA,NA,NA,NA,NA,NA,NA,NA,NA,NA,NA,NA,NA,fixation,NA,NA,NA,NA,NA,NA,sub22
d3-animate-choice,198,787498,0.0-76.0-0.21,TRUE,FALSE,TRUE,TRUE,"""event"",""trial"",""time""
""fullscreenenter"",""5"",""12129""
","
","
","""event"",""trial"",""time""
""fullscreenenter"",""5"",""12129""
","
",599.8649999964982,NA,48,NA,NA,3000,1,NA,NA,images/earth.jpg,images/rocket2,images/rocket1,null,images/rocket2,NA,1,real,null,2,NA,NA,NA,sub22
d3-animate-choice,199,789849,0.0-76.0-1.21,TRUE,FALSE,TRUE,TRUE,"""event"",""trial"",""time""
""fullscreenenter"",""5"",""12129""
","
","
","""event"",""trial"",""time""
""fullscreenenter"",""5"",""12129""
","
",346.28499997779727,NA,48,NA,NA,3000,1,NA,NA,images/redplanet1.jpg,images/alien2,images/alien1,images/rocket2,images/alien2,images/t.png,2,real,true,2,common,1,2020-06-14T20:25:38Z,sub22
two-step-fixation,200,790853,0.0-76.0-2.21,TRUE,FALSE,TRUE,TRUE,"""event"",""trial"",""time""
""fullscreenenter"",""5"",""12129""
","
","
","""event"",""trial"",""time""
""fullscreenenter"",""5"",""12129""
","
",NA,images/earth.jpg,NA,NA,NA,NA,NA,NA,NA,NA,NA,NA,NA,NA,NA,fixation,NA,NA,NA,NA,NA,NA,sub22
d3-animate-choice,201,793189,0.0-76.0-0.22,TRUE,FALSE,TRUE,TRUE,"""event"",""trial"",""time""
""fullscreenenter"",""5"",""12129""
","
","
","""event"",""trial"",""time""
""fullscreenenter"",""5"",""12129""
","
",330.5799999507144,NA,48,NA,NA,3000,1,NA,NA,images/earth.jpg,images/rocket2,images/rocket1,null,images/rocket2,NA,1,real,null,2,NA,NA,NA,sub22
d3-animate-choice,202,795573,0.0-76.0-1.22,TRUE,FALSE,TRUE,TRUE,"""event"",""trial"",""time""
""fullscreenenter"",""5"",""12129""
","
","
","""event"",""trial"",""time""
""fullscreenenter"",""5"",""12129""
","
",378.61499993596226,NA,48,NA,NA,3000,1,NA,NA,images/redplanet1.jpg,images/alien2,images/alien1,images/rocket2,images/alien2,images/t.png,2,real,true,2,common,1,2020-06-14T20:25:44Z,sub22
two-step-fixation,203,796578,0.0-76.0-2.22,TRUE,FALSE,TRUE,TRUE,"""event"",""trial"",""time""
""fullscreenenter"",""5"",""12129""
","
","
","""event"",""trial"",""time""
""fullscreenenter"",""5"",""12129""
","
",NA,images/earth.jpg,NA,NA,NA,NA,NA,NA,NA,NA,NA,NA,NA,NA,NA,fixation,NA,NA,NA,NA,NA,NA,sub22
d3-animate-choice,204,799074,0.0-76.0-0.23,TRUE,FALSE,TRUE,TRUE,"""event"",""trial"",""time""
""fullscreenenter"",""5"",""12129""
","
","
","""event"",""trial"",""time""
""fullscreenenter"",""5"",""12129""
","
",486.99000000488013,NA,48,NA,NA,3000,1,NA,NA,images/earth.jpg,images/rocket2,images/rocket1,null,images/rocket2,NA,1,real,null,2,NA,NA,NA,sub22
d3-animate-choice,205,801484,0.0-76.0-1.23,TRUE,FALSE,TRUE,TRUE,"""event"",""trial"",""time""
""fullscreenenter"",""5"",""12129""
","
","
","""event"",""trial"",""time""
""fullscreenenter"",""5"",""12129""
","
",404.380000079982,NA,48,NA,NA,3000,1,NA,NA,images/redplanet1.jpg,images/alien2,images/alien1,images/rocket2,images/alien2,images/t.png,2,real,true,2,common,1,2020-06-14T20:25:50Z,sub22
two-step-fixation,206,802488,0.0-76.0-2.23,TRUE,FALSE,TRUE,TRUE,"""event"",""trial"",""time""
""fullscreenenter"",""5"",""12129""
","
","
","""event"",""trial"",""time""
""fullscreenenter"",""5"",""12129""
","
",NA,images/earth.jpg,NA,NA,NA,NA,NA,NA,NA,NA,NA,NA,NA,NA,NA,fixation,NA,NA,NA,NA,NA,NA,sub22
d3-animate-choice,207,804864,0.0-76.0-0.24,TRUE,FALSE,TRUE,TRUE,"""event"",""trial"",""time""
""fullscreenenter"",""5"",""12129""
","
","
","""event"",""trial"",""time""
""fullscreenenter"",""5"",""12129""
","
",370.36499998066574,NA,48,NA,NA,3000,1,NA,NA,images/earth.jpg,images/rocket2,images/rocket1,null,images/rocket2,NA,1,real,null,2,NA,NA,NA,sub22
d3-animate-choice,208,807234,0.0-76.0-1.24,TRUE,FALSE,TRUE,TRUE,"""event"",""trial"",""time""
""fullscreenenter"",""5"",""12129""
","
","
","""event"",""trial"",""time""
""fullscreenenter"",""5"",""12129""
","
",362.44499997701496,NA,48,NA,NA,3000,1,NA,NA,images/redplanet1.jpg,images/alien2,images/alien1,images/rocket2,images/alien2,images/t.png,2,real,true,2,common,1,2020-06-14T20:25:55Z,sub22
two-step-fixation,209,808238,0.0-76.0-2.24,TRUE,FALSE,TRUE,TRUE,"""event"",""trial"",""time""
""fullscreenenter"",""5"",""12129""
","
","
","""event"",""trial"",""time""
""fullscreenenter"",""5"",""12129""
","
",NA,images/earth.jpg,NA,NA,NA,NA,NA,NA,NA,NA,NA,NA,NA,NA,NA,fixation,NA,NA,NA,NA,NA,NA,sub22
d3-animate-choice,210,810630,0.0-76.0-0.25,TRUE,FALSE,TRUE,TRUE,"""event"",""trial"",""time""
""fullscreenenter"",""5"",""12129""
","
","
","""event"",""trial"",""time""
""fullscreenenter"",""5"",""12129""
","
",386.8800000054762,NA,48,NA,NA,3000,1,NA,NA,images/earth.jpg,images/rocket2,images/rocket1,null,images/rocket2,NA,1,real,null,2,NA,NA,NA,sub22
d3-animate-choice,211,813164,0.0-76.0-1.25,TRUE,FALSE,TRUE,TRUE,"""event"",""trial"",""time""
""fullscreenenter"",""5"",""12129""
","
","
","""event"",""trial"",""time""
""fullscreenenter"",""5"",""12129""
","
",527.570000034757,NA,48,NA,NA,3000,1,NA,NA,images/purpleplanet.jpg,images/alien4,images/alien3,images/rocket2,images/alien4,images/t.png,2,real,false,2,rare,1,2020-06-14T20:26:01Z,sub22
two-step-fixation,212,814170,0.0-76.0-2.25,TRUE,FALSE,TRUE,TRUE,"""event"",""trial"",""time""
""fullscreenenter"",""5"",""12129""
","
","
","""event"",""trial"",""time""
""fullscreenenter"",""5"",""12129""
","
",NA,images/earth.jpg,NA,NA,NA,NA,NA,NA,NA,NA,NA,NA,NA,NA,NA,fixation,NA,NA,NA,NA,NA,NA,sub22
d3-animate-choice,213,816579,0.0-76.0-0.26,TRUE,FALSE,TRUE,TRUE,"""event"",""trial"",""time""
""fullscreenenter"",""5"",""12129""
","
","
","""event"",""trial"",""time""
""fullscreenenter"",""5"",""12129""
","
",404.8750000074506,NA,48,NA,NA,3000,1,NA,NA,images/earth.jpg,images/rocket2,images/rocket1,null,images/rocket2,NA,1,real,null,2,NA,NA,NA,sub22
d3-animate-choice,214,819157,0.0-76.0-1.26,TRUE,FALSE,TRUE,TRUE,"""event"",""trial"",""time""
""fullscreenenter"",""5"",""12129""
","
","
","""event"",""trial"",""time""
""fullscreenenter"",""5"",""12129""
","
",571.3299999479204,NA,48,NA,NA,3000,1,NA,NA,images/redplanet1.jpg,images/alien2,images/alien1,images/rocket2,images/alien2,images/t.png,2,real,true,2,common,1,2020-06-14T20:26:07Z,sub22
two-step-fixation,215,820164,0.0-76.0-2.26,TRUE,FALSE,TRUE,TRUE,"""event"",""trial"",""time""
""fullscreenenter"",""5"",""12129""
","
","
","""event"",""trial"",""time""
""fullscreenenter"",""5"",""12129""
","
",NA,images/earth.jpg,NA,NA,NA,NA,NA,NA,NA,NA,NA,NA,NA,NA,NA,fixation,NA,NA,NA,NA,NA,NA,sub22
d3-animate-choice,216,822502,0.0-76.0-0.27,TRUE,FALSE,TRUE,TRUE,"""event"",""trial"",""time""
""fullscreenenter"",""5"",""12129""
","
","
","""event"",""trial"",""time""
""fullscreenenter"",""5"",""12129""
","
",333.45499995630234,NA,48,NA,NA,3000,1,NA,NA,images/earth.jpg,images/rocket2,images/rocket1,null,images/rocket2,NA,1,real,null,2,NA,NA,NA,sub22
d3-animate-choice,217,824987,0.0-76.0-1.27,TRUE,FALSE,TRUE,TRUE,"""event"",""trial"",""time""
""fullscreenenter"",""5"",""12129""
","
","
","""event"",""trial"",""time""
""fullscreenenter"",""5"",""12129""
","
",476.8649999750778,NA,48,NA,NA,3000,1,NA,NA,images/redplanet1.jpg,images/alien2,images/alien1,images/rocket2,images/alien2,images/t.png,2,real,true,2,common,1,2020-06-14T20:26:13Z,sub22
two-step-fixation,218,825994,0.0-76.0-2.27,TRUE,FALSE,TRUE,TRUE,"""event"",""trial"",""time""
""fullscreenenter"",""5"",""12129""
","
","
","""event"",""trial"",""time""
""fullscreenenter"",""5"",""12129""
","
",NA,images/earth.jpg,NA,NA,NA,NA,NA,NA,NA,NA,NA,NA,NA,NA,NA,fixation,NA,NA,NA,NA,NA,NA,sub22
d3-animate-choice,219,828388,0.0-76.0-0.28,TRUE,FALSE,TRUE,TRUE,"""event"",""trial"",""time""
""fullscreenenter"",""5"",""12129""
","
","
","""event"",""trial"",""time""
""fullscreenenter"",""5"",""12129""
","
",386.60000008530915,NA,48,NA,NA,3000,1,NA,NA,images/earth.jpg,images/rocket2,images/rocket1,null,images/rocket2,NA,1,real,null,2,NA,NA,NA,sub22
d3-animate-choice,220,830716,0.0-76.0-1.28,TRUE,FALSE,TRUE,TRUE,"""event"",""trial"",""time""
""fullscreenenter"",""5"",""12129""
","
","
","""event"",""trial"",""time""
""fullscreenenter"",""5"",""12129""
","
",318.6149999964982,NA,48,NA,NA,3000,1,NA,NA,images/purpleplanet.jpg,images/alien4,images/alien3,images/rocket2,images/alien4,images/t.png,2,real,false,2,rare,1,2020-06-14T20:26:19Z,sub22
two-step-fixation,221,831721,0.0-76.0-2.28,TRUE,FALSE,TRUE,TRUE,"""event"",""trial"",""time""
""fullscreenenter"",""5"",""12129""
","
","
","""event"",""trial"",""time""
""fullscreenenter"",""5"",""12129""
","
",NA,images/earth.jpg,NA,NA,NA,NA,NA,NA,NA,NA,NA,NA,NA,NA,NA,fixation,NA,NA,NA,NA,NA,NA,sub22
d3-animate-choice,222,834617,0.0-76.0-0.29,TRUE,FALSE,TRUE,TRUE,"""event"",""trial"",""time""
""fullscreenenter"",""5"",""12129""
","
","
","""event"",""trial"",""time""
""fullscreenenter"",""5"",""12129""
","
",890.489999903366,NA,48,NA,NA,3000,1,NA,NA,images/earth.jpg,images/rocket2,images/rocket1,null,images/rocket2,NA,1,real,null,2,NA,NA,NA,sub22
d3-animate-choice,223,837161,0.0-76.0-1.29,TRUE,FALSE,TRUE,TRUE,"""event"",""trial"",""time""
""fullscreenenter"",""5"",""12129""
","
","
","""event"",""trial"",""time""
""fullscreenenter"",""5"",""12129""
","
",538.7499999487773,NA,48,NA,NA,3000,1,NA,NA,images/redplanet1.jpg,images/alien2,images/alien1,images/rocket2,images/alien2,images/nothing.png,2,real,true,2,common,0,2020-06-14T20:26:25Z,sub22
two-step-fixation,224,838165,0.0-76.0-2.29,TRUE,FALSE,TRUE,TRUE,"""event"",""trial"",""time""
""fullscreenenter"",""5"",""12129""
","
","
","""event"",""trial"",""time""
""fullscreenenter"",""5"",""12129""
","
",NA,images/earth.jpg,NA,NA,NA,NA,NA,NA,NA,NA,NA,NA,NA,NA,NA,fixation,NA,NA,NA,NA,NA,NA,sub22
d3-animate-choice,225,840498,0.0-76.0-0.30,TRUE,FALSE,TRUE,TRUE,"""event"",""trial"",""time""
""fullscreenenter"",""5"",""12129""
","
","
","""event"",""trial"",""time""
""fullscreenenter"",""5"",""12129""
","
",327.67500006593764,NA,49,NA,NA,3000,1,NA,NA,images/earth.jpg,images/rocket2,images/rocket1,null,images/rocket1,NA,1,real,null,1,NA,NA,NA,sub22
d3-animate-choice,226,842981,0.0-76.0-1.30,TRUE,FALSE,TRUE,TRUE,"""event"",""trial"",""time""
""fullscreenenter"",""5"",""12129""
","
","
","""event"",""trial"",""time""
""fullscreenenter"",""5"",""12129""
","
",476.9549999618903,NA,48,NA,NA,3000,1,NA,NA,images/purpleplanet.jpg,images/alien4,images/alien3,images/rocket1,images/alien4,images/t.png,2,real,true,2,common,1,2020-06-14T20:26:31Z,sub22
two-step-fixation,227,843987,0.0-76.0-2.30,TRUE,FALSE,TRUE,TRUE,"""event"",""trial"",""time""
""fullscreenenter"",""5"",""12129""
","
","
","""event"",""trial"",""time""
""fullscreenenter"",""5"",""12129""
","
",NA,images/earth.jpg,NA,NA,NA,NA,NA,NA,NA,NA,NA,NA,NA,NA,NA,fixation,NA,NA,NA,NA,NA,NA,sub22
d3-animate-choice,228,846380,0.0-76.0-0.31,TRUE,FALSE,TRUE,TRUE,"""event"",""trial"",""time""
""fullscreenenter"",""5"",""12129""
","
","
","""event"",""trial"",""time""
""fullscreenenter"",""5"",""12129""
","
",386.7800000589341,NA,49,NA,NA,3000,1,NA,NA,images/earth.jpg,images/rocket2,images/rocket1,null,images/rocket1,NA,1,real,null,1,NA,NA,NA,sub22
d3-animate-choice,229,848950,0.0-76.0-1.31,TRUE,FALSE,TRUE,TRUE,"""event"",""trial"",""time""
""fullscreenenter"",""5"",""12129""
","
","
","""event"",""trial"",""time""
""fullscreenenter"",""5"",""12129""
","
",563.6650000233203,NA,48,NA,NA,3000,1,NA,NA,images/purpleplanet.jpg,images/alien4,images/alien3,images/rocket1,images/alien4,images/t.png,2,real,true,2,common,1,2020-06-14T20:26:37Z,sub22
two-step-fixation,230,849955,0.0-76.0-2.31,TRUE,FALSE,TRUE,TRUE,"""event"",""trial"",""time""
""fullscreenenter"",""5"",""12129""
","
","
","""event"",""trial"",""time""
""fullscreenenter"",""5"",""12129""
","
",NA,images/earth.jpg,NA,NA,NA,NA,NA,NA,NA,NA,NA,NA,NA,NA,NA,fixation,NA,NA,NA,NA,NA,NA,sub22
d3-animate-choice,231,852448,0.0-76.0-0.32,TRUE,FALSE,TRUE,TRUE,"""event"",""trial"",""time""
""fullscreenenter"",""5"",""12129""
","
","
","""event"",""trial"",""time""
""fullscreenenter"",""5"",""12129""
","
",487.2549999272451,NA,49,NA,NA,3000,1,NA,NA,images/earth.jpg,images/rocket2,images/rocket1,null,images/rocket1,NA,1,real,null,1,NA,NA,NA,sub22
d3-animate-choice,232,855415,0.0-76.0-1.32,TRUE,FALSE,TRUE,TRUE,"""event"",""trial"",""time""
""fullscreenenter"",""5"",""12129""
","
","
","""event"",""trial"",""time""
""fullscreenenter"",""5"",""12129""
","
",960.5100000044331,NA,48,NA,NA,3000,1,NA,NA,images/redplanet1.jpg,images/alien2,images/alien1,images/rocket1,images/alien2,images/nothing.png,2,real,false,2,rare,0,2020-06-14T20:26:44Z,sub22
two-step-fixation,233,856422,0.0-76.0-2.32,TRUE,FALSE,TRUE,TRUE,"""event"",""trial"",""time""
""fullscreenenter"",""5"",""12129""
","
","
","""event"",""trial"",""time""
""fullscreenenter"",""5"",""12129""
","
",NA,images/earth.jpg,NA,NA,NA,NA,NA,NA,NA,NA,NA,NA,NA,NA,NA,fixation,NA,NA,NA,NA,NA,NA,sub22
d3-animate-choice,234,858828,0.0-76.0-0.33,TRUE,FALSE,TRUE,TRUE,"""event"",""trial"",""time""
""fullscreenenter"",""5"",""12129""
","
","
","""event"",""trial"",""time""
""fullscreenenter"",""5"",""12129""
","
",398.5850000753999,NA,49,NA,NA,3000,1,NA,NA,images/earth.jpg,images/rocket2,images/rocket1,null,images/rocket1,NA,1,real,null,1,NA,NA,NA,sub22
d3-animate-choice,235,861300,0.0-76.0-1.33,TRUE,FALSE,TRUE,TRUE,"""event"",""trial"",""time""
""fullscreenenter"",""5"",""12129""
","
","
","""event"",""trial"",""time""
""fullscreenenter"",""5"",""12129""
","
",467.9550000000745,NA,48,NA,NA,3000,1,NA,NA,images/purpleplanet.jpg,images/alien4,images/alien3,images/rocket1,images/alien4,images/t.png,2,real,true,2,common,1,2020-06-14T20:26:49Z,sub22
two-step-fixation,236,862306,0.0-76.0-2.33,TRUE,FALSE,TRUE,TRUE,"""event"",""trial"",""time""
""fullscreenenter"",""5"",""12129""
","
","
","""event"",""trial"",""time""
""fullscreenenter"",""5"",""12129""
","
",NA,images/earth.jpg,NA,NA,NA,NA,NA,NA,NA,NA,NA,NA,NA,NA,NA,fixation,NA,NA,NA,NA,NA,NA,sub22
d3-animate-choice,237,864718,0.0-76.0-0.34,TRUE,FALSE,TRUE,TRUE,"""event"",""trial"",""time""
""fullscreenenter"",""5"",""12129""
","
","
","""event"",""trial"",""time""
""fullscreenenter"",""5"",""12129""
","
",406.16999997291714,NA,49,NA,NA,3000,1,NA,NA,images/earth.jpg,images/rocket2,images/rocket1,null,images/rocket1,NA,1,real,null,1,NA,NA,NA,sub22
d3-animate-choice,238,867331,0.0-76.0-1.34,TRUE,FALSE,TRUE,TRUE,"""event"",""trial"",""time""
""fullscreenenter"",""5"",""12129""
","
","
","""event"",""trial"",""time""
""fullscreenenter"",""5"",""12129""
","
",605.4950000252575,NA,48,NA,NA,3000,1,NA,NA,images/purpleplanet.jpg,images/alien4,images/alien3,images/rocket1,images/alien4,images/nothing.png,2,real,true,2,common,0,2020-06-14T20:26:55Z,sub22
two-step-fixation,239,868337,0.0-76.0-2.34,TRUE,FALSE,TRUE,TRUE,"""event"",""trial"",""time""
""fullscreenenter"",""5"",""12129""
","
","
","""event"",""trial"",""time""
""fullscreenenter"",""5"",""12129""
","
",NA,images/earth.jpg,NA,NA,NA,NA,NA,NA,NA,NA,NA,NA,NA,NA,NA,fixation,NA,NA,NA,NA,NA,NA,sub22
d3-animate-choice,240,870699,0.0-76.0-0.35,TRUE,FALSE,TRUE,TRUE,"""event"",""trial"",""time""
""fullscreenenter"",""5"",""12129""
","
","
","""event"",""trial"",""time""
""fullscreenenter"",""5"",""12129""
","
",355.92999996151775,NA,48,NA,NA,3000,1,NA,NA,images/earth.jpg,images/rocket2,images/rocket1,null,images/rocket2,NA,1,real,null,2,NA,NA,NA,sub22
d3-animate-choice,241,873128,0.0-76.0-1.35,TRUE,FALSE,TRUE,TRUE,"""event"",""trial"",""time""
""fullscreenenter"",""5"",""12129""
","
","
","""event"",""trial"",""time""
""fullscreenenter"",""5"",""12129""
","
",423.2649999903515,NA,48,NA,NA,3000,1,NA,NA,images/redplanet1.jpg,images/alien2,images/alien1,images/rocket2,images/alien2,images/nothing.png,2,real,true,2,common,0,2020-06-14T20:27:01Z,sub22
two-step-fixation,242,874135,0.0-76.0-2.35,TRUE,FALSE,TRUE,TRUE,"""event"",""trial"",""time""
""fullscreenenter"",""5"",""12129""
","
","
","""event"",""trial"",""time""
""fullscreenenter"",""5"",""12129""
","
",NA,images/earth.jpg,NA,NA,NA,NA,NA,NA,NA,NA,NA,NA,NA,NA,NA,fixation,NA,NA,NA,NA,NA,NA,sub22
d3-animate-choice,243,876642,0.0-76.0-0.36,TRUE,FALSE,TRUE,TRUE,"""event"",""trial"",""time""
""fullscreenenter"",""5"",""12129""
","
","
","""event"",""trial"",""time""
""fullscreenenter"",""5"",""12129""
","
",502.0850000437349,NA,49,NA,NA,3000,1,NA,NA,images/earth.jpg,images/rocket2,images/rocket1,null,images/rocket1,NA,1,real,null,1,NA,NA,NA,sub22
d3-animate-choice,244,879078,0.0-76.0-1.36,TRUE,FALSE,TRUE,TRUE,"""event"",""trial"",""time""
""fullscreenenter"",""5"",""12129""
","
","
","""event"",""trial"",""time""
""fullscreenenter"",""5"",""12129""
","
",431.74499995075166,NA,48,NA,NA,3000,1,NA,NA,images/purpleplanet.jpg,images/alien4,images/alien3,images/rocket1,images/alien4,images/nothing.png,2,real,true,2,common,0,2020-06-14T20:27:07Z,sub22
two-step-fixation,245,880084,0.0-76.0-2.36,TRUE,FALSE,TRUE,TRUE,"""event"",""trial"",""time""
""fullscreenenter"",""5"",""12129""
","
","
","""event"",""trial"",""time""
""fullscreenenter"",""5"",""12129""
","
",NA,images/earth.jpg,NA,NA,NA,NA,NA,NA,NA,NA,NA,NA,NA,NA,NA,fixation,NA,NA,NA,NA,NA,NA,sub22
d3-animate-choice,246,882405,0.0-76.0-0.37,TRUE,FALSE,TRUE,TRUE,"""event"",""trial"",""time""
""fullscreenenter"",""5"",""12129""
","
","
","""event"",""trial"",""time""
""fullscreenenter"",""5"",""12129""
","
",315.3950000414625,NA,48,NA,NA,3000,1,NA,NA,images/earth.jpg,images/rocket2,images/rocket1,null,images/rocket2,NA,1,real,null,2,NA,NA,NA,sub22
d3-animate-choice,247,885066,0.0-76.0-1.37,TRUE,FALSE,TRUE,TRUE,"""event"",""trial"",""time""
""fullscreenenter"",""5"",""12129""
","
","
","""event"",""trial"",""time""
""fullscreenenter"",""5"",""12129""
","
",656.1300000175834,NA,48,NA,NA,3000,1,NA,NA,images/purpleplanet.jpg,images/alien4,images/alien3,images/rocket2,images/alien4,images/nothing.png,2,real,false,2,rare,0,2020-06-14T20:27:13Z,sub22
two-step-fixation,248,886070,0.0-76.0-2.37,TRUE,FALSE,TRUE,TRUE,"""event"",""trial"",""time""
""fullscreenenter"",""5"",""12129""
","
","
","""event"",""trial"",""time""
""fullscreenenter"",""5"",""12129""
","
",NA,images/earth.jpg,NA,NA,NA,NA,NA,NA,NA,NA,NA,NA,NA,NA,NA,fixation,NA,NA,NA,NA,NA,NA,sub22
d3-animate-choice,249,888439,0.0-76.0-0.38,TRUE,FALSE,TRUE,TRUE,"""event"",""trial"",""time""
""fullscreenenter"",""5"",""12129""
","
","
","""event"",""trial"",""time""
""fullscreenenter"",""5"",""12129""
","
",364.8599999723956,NA,49,NA,NA,3000,1,NA,NA,images/earth.jpg,images/rocket2,images/rocket1,null,images/rocket1,NA,1,real,null,1,NA,NA,NA,sub22
d3-animate-choice,250,891040,0.0-76.0-1.38,TRUE,FALSE,TRUE,TRUE,"""event"",""trial"",""time""
""fullscreenenter"",""5"",""12129""
","
","
","""event"",""trial"",""time""
""fullscreenenter"",""5"",""12129""
","
",595.960000064224,NA,49,NA,NA,3000,1,NA,NA,images/purpleplanet.jpg,images/alien4,images/alien3,images/rocket1,images/alien3,images/nothing.png,2,real,true,1,common,0,2020-06-14T20:27:19Z,sub22
two-step-fixation,251,892044,0.0-76.0-2.38,TRUE,FALSE,TRUE,TRUE,"""event"",""trial"",""time""
""fullscreenenter"",""5"",""12129""
","
","
","""event"",""trial"",""time""
""fullscreenenter"",""5"",""12129""
","
",NA,images/earth.jpg,NA,NA,NA,NA,NA,NA,NA,NA,NA,NA,NA,NA,NA,fixation,NA,NA,NA,NA,NA,NA,sub22
d3-animate-choice,252,894415,0.0-76.0-0.39,TRUE,FALSE,TRUE,TRUE,"""event"",""trial"",""time""
""fullscreenenter"",""5"",""12129""
","
","
","""event"",""trial"",""time""
""fullscreenenter"",""5"",""12129""
","
",365.8399999840185,NA,49,NA,NA,3000,1,NA,NA,images/earth.jpg,images/rocket2,images/rocket1,null,images/rocket1,NA,1,real,null,1,NA,NA,NA,sub22
d3-animate-choice,253,897353,0.0-76.0-1.39,TRUE,FALSE,TRUE,TRUE,"""event"",""trial"",""time""
""fullscreenenter"",""5"",""12129""
","
","
","""event"",""trial"",""time""
""fullscreenenter"",""5"",""12129""
","
",931.3449999317527,NA,48,NA,NA,3000,1,NA,NA,images/redplanet1.jpg,images/alien2,images/alien1,images/rocket1,images/alien2,images/nothing.png,2,real,false,2,rare,0,2020-06-14T20:27:26Z,sub22
two-step-fixation,254,898360,0.0-76.0-2.39,TRUE,FALSE,TRUE,TRUE,"""event"",""trial"",""time""
""fullscreenenter"",""5"",""12129""
","
","
","""event"",""trial"",""time""
""fullscreenenter"",""5"",""12129""
","
",NA,images/earth.jpg,NA,NA,NA,NA,NA,NA,NA,NA,NA,NA,NA,NA,NA,fixation,NA,NA,NA,NA,NA,NA,sub22
d3-animate-choice,255,900848,0.0-76.0-0.40,TRUE,FALSE,TRUE,TRUE,"""event"",""trial"",""time""
""fullscreenenter"",""5"",""12129""
","
","
","""event"",""trial"",""time""
""fullscreenenter"",""5"",""12129""
","
",481.9549999665469,NA,49,NA,NA,3000,1,NA,NA,images/earth.jpg,images/rocket2,images/rocket1,null,images/rocket1,NA,1,real,null,1,NA,NA,NA,sub22
d3-animate-choice,256,903597,0.0-76.0-1.40,TRUE,FALSE,TRUE,TRUE,"""event"",""trial"",""time""
""fullscreenenter"",""5"",""12129""
","
","
","""event"",""trial"",""time""
""fullscreenenter"",""5"",""12129""
","
",743.4250001097098,NA,48,NA,NA,3000,1,NA,NA,images/redplanet1.jpg,images/alien2,images/alien1,images/rocket1,images/alien2,images/nothing.png,2,real,false,2,rare,0,2020-06-14T20:27:32Z,sub22
two-step-fixation,257,904601,0.0-76.0-2.40,TRUE,FALSE,TRUE,TRUE,"""event"",""trial"",""time""
""fullscreenenter"",""5"",""12129""
","
","
","""event"",""trial"",""time""
""fullscreenenter"",""5"",""12129""
","
",NA,images/earth.jpg,NA,NA,NA,NA,NA,NA,NA,NA,NA,NA,NA,NA,NA,fixation,NA,NA,NA,NA,NA,NA,sub22
d3-animate-choice,258,907252,0.0-76.0-0.41,TRUE,FALSE,TRUE,TRUE,"""event"",""trial"",""time""
""fullscreenenter"",""5"",""12129""
","
","
","""event"",""trial"",""time""
""fullscreenenter"",""5"",""12129""
","
",646.2600000668317,NA,49,NA,NA,3000,1,NA,NA,images/earth.jpg,images/rocket2,images/rocket1,null,images/rocket1,NA,1,real,null,1,NA,NA,NA,sub22
d3-animate-choice,259,910030,0.0-76.0-1.41,TRUE,FALSE,TRUE,TRUE,"""event"",""trial"",""time""
""fullscreenenter"",""5"",""12129""
","
","
","""event"",""trial"",""time""
""fullscreenenter"",""5"",""12129""
","
",773.5000000102445,NA,48,NA,NA,3000,1,NA,NA,images/purpleplanet.jpg,images/alien4,images/alien3,images/rocket1,images/alien4,images/nothing.png,2,real,true,2,common,0,2020-06-14T20:27:38Z,sub22
two-step-fixation,260,911035,0.0-76.0-2.41,TRUE,FALSE,TRUE,TRUE,"""event"",""trial"",""time""
""fullscreenenter"",""5"",""12129""
","
","
","""event"",""trial"",""time""
""fullscreenenter"",""5"",""12129""
","
",NA,images/earth.jpg,NA,NA,NA,NA,NA,NA,NA,NA,NA,NA,NA,NA,NA,fixation,NA,NA,NA,NA,NA,NA,sub22
d3-animate-choice,261,913850,0.0-76.0-0.42,TRUE,FALSE,TRUE,TRUE,"""event"",""trial"",""time""
""fullscreenenter"",""5"",""12129""
","
","
","""event"",""trial"",""time""
""fullscreenenter"",""5"",""12129""
","
",809.235000051558,NA,48,NA,NA,3000,1,NA,NA,images/earth.jpg,images/rocket2,images/rocket1,null,images/rocket2,NA,1,real,null,2,NA,NA,NA,sub22
d3-animate-choice,262,916428,0.0-76.0-1.42,TRUE,FALSE,TRUE,TRUE,"""event"",""trial"",""time""
""fullscreenenter"",""5"",""12129""
","
","
","""event"",""trial"",""time""
""fullscreenenter"",""5"",""12129""
","
",569.7500000242144,NA,48,NA,NA,3000,1,NA,NA,images/redplanet1.jpg,images/alien2,images/alien1,images/rocket2,images/alien2,images/t.png,2,real,true,2,common,1,2020-06-14T20:27:45Z,sub22
two-step-fixation,263,917431,0.0-76.0-2.42,TRUE,FALSE,TRUE,TRUE,"""event"",""trial"",""time""
""fullscreenenter"",""5"",""12129""
","
","
","""event"",""trial"",""time""
""fullscreenenter"",""5"",""12129""
","
",NA,images/earth.jpg,NA,NA,NA,NA,NA,NA,NA,NA,NA,NA,NA,NA,NA,fixation,NA,NA,NA,NA,NA,NA,sub22
d3-animate-choice,264,919859,0.0-76.0-0.43,TRUE,FALSE,TRUE,TRUE,"""event"",""trial"",""time""
""fullscreenenter"",""5"",""12129""
","
","
","""event"",""trial"",""time""
""fullscreenenter"",""5"",""12129""
","
",421.74499994143844,NA,48,NA,NA,3000,1,NA,NA,images/earth.jpg,images/rocket2,images/rocket1,null,images/rocket2,NA,1,real,null,2,NA,NA,NA,sub22
d3-animate-choice,265,923753,0.0-76.0-1.43,TRUE,FALSE,TRUE,TRUE,"""event"",""trial"",""time""
""fullscreenenter"",""5"",""12129""
","
","
","""event"",""trial"",""time""
""fullscreenenter"",""5"",""12129""
","
",1886.10499992501,NA,48,NA,NA,3000,1,NA,NA,images/purpleplanet.jpg,images/alien4,images/alien3,images/rocket2,images/alien4,images/nothing.png,2,real,false,2,rare,0,2020-06-14T20:27:52Z,sub22
two-step-fixation,266,924757,0.0-76.0-2.43,TRUE,FALSE,TRUE,TRUE,"""event"",""trial"",""time""
""fullscreenenter"",""5"",""12129""
","
","
","""event"",""trial"",""time""
""fullscreenenter"",""5"",""12129""
","
",NA,images/earth.jpg,NA,NA,NA,NA,NA,NA,NA,NA,NA,NA,NA,NA,NA,fixation,NA,NA,NA,NA,NA,NA,sub22
d3-animate-choice,267,927089,0.0-76.0-0.44,TRUE,FALSE,TRUE,TRUE,"""event"",""trial"",""time""
""fullscreenenter"",""5"",""12129""
","
","
","""event"",""trial"",""time""
""fullscreenenter"",""5"",""12129""
","
",322.5749999983236,NA,48,NA,NA,3000,1,NA,NA,images/earth.jpg,images/rocket2,images/rocket1,null,images/rocket2,NA,1,real,null,2,NA,NA,NA,sub22
d3-animate-choice,268,930545,0.0-76.0-1.44,TRUE,FALSE,TRUE,TRUE,"""event"",""trial"",""time""
""fullscreenenter"",""5"",""12129""
","
","
","""event"",""trial"",""time""
""fullscreenenter"",""5"",""12129""
","
",1450.7100000046194,NA,48,NA,NA,3000,1,NA,NA,images/redplanet1.jpg,images/alien2,images/alien1,images/rocket2,images/alien2,images/nothing.png,2,real,true,2,common,0,2020-06-14T20:27:59Z,sub22
two-step-fixation,269,931550,0.0-76.0-2.44,TRUE,FALSE,TRUE,TRUE,"""event"",""trial"",""time""
""fullscreenenter"",""5"",""12129""
","
","
","""event"",""trial"",""time""
""fullscreenenter"",""5"",""12129""
","
",NA,images/earth.jpg,NA,NA,NA,NA,NA,NA,NA,NA,NA,NA,NA,NA,NA,fixation,NA,NA,NA,NA,NA,NA,sub22
d3-animate-choice,270,933984,0.0-76.0-0.45,TRUE,FALSE,TRUE,TRUE,"""event"",""trial"",""time""
""fullscreenenter"",""5"",""12129""
","
","
","""event"",""trial"",""time""
""fullscreenenter"",""5"",""12129""
","
",428.49500000011176,NA,48,NA,NA,3000,1,NA,NA,images/earth.jpg,images/rocket2,images/rocket1,null,images/rocket2,NA,1,real,null,2,NA,NA,NA,sub22
d3-animate-choice,271,936972,0.0-76.0-1.45,TRUE,FALSE,TRUE,TRUE,"""event"",""trial"",""time""
""fullscreenenter"",""5"",""12129""
","
","
","""event"",""trial"",""time""
""fullscreenenter"",""5"",""12129""
","
",981.7000000039116,NA,49,NA,NA,3000,1,NA,NA,images/redplanet1.jpg,images/alien2,images/alien1,images/rocket2,images/alien1,images/nothing.png,2,real,true,1,common,0,2020-06-14T20:28:05Z,sub22
two-step-fixation,272,937979,0.0-76.0-2.45,TRUE,FALSE,TRUE,TRUE,"""event"",""trial"",""time""
""fullscreenenter"",""5"",""12129""
","
","
","""event"",""trial"",""time""
""fullscreenenter"",""5"",""12129""
","
",NA,images/earth.jpg,NA,NA,NA,NA,NA,NA,NA,NA,NA,NA,NA,NA,NA,fixation,NA,NA,NA,NA,NA,NA,sub22
d3-animate-choice,273,940355,0.0-76.0-0.46,TRUE,FALSE,TRUE,TRUE,"""event"",""trial"",""time""
""fullscreenenter"",""5"",""12129""
","
","
","""event"",""trial"",""time""
""fullscreenenter"",""5"",""12129""
","
",371.0499999579042,NA,48,NA,NA,3000,1,NA,NA,images/earth.jpg,images/rocket2,images/rocket1,null,images/rocket2,NA,1,real,null,2,NA,NA,NA,sub22
d3-animate-choice,274,943179,0.0-76.0-1.46,TRUE,FALSE,TRUE,TRUE,"""event"",""trial"",""time""
""fullscreenenter"",""5"",""12129""
","
","
","""event"",""trial"",""time""
""fullscreenenter"",""5"",""12129""
","
",817.6550000207499,NA,48,NA,NA,3000,1,NA,NA,images/purpleplanet.jpg,images/alien4,images/alien3,images/rocket2,images/alien4,images/nothing.png,2,real,false,2,rare,0,2020-06-14T20:28:11Z,sub22
two-step-fixation,275,944185,0.0-76.0-2.46,TRUE,FALSE,TRUE,TRUE,"""event"",""trial"",""time""
""fullscreenenter"",""5"",""12129""
","
","
","""event"",""trial"",""time""
""fullscreenenter"",""5"",""12129""
","
",NA,images/earth.jpg,NA,NA,NA,NA,NA,NA,NA,NA,NA,NA,NA,NA,NA,fixation,NA,NA,NA,NA,NA,NA,sub22
d3-animate-choice,276,946541,0.0-76.0-0.47,TRUE,FALSE,TRUE,TRUE,"""event"",""trial"",""time""
""fullscreenenter"",""5"",""12129""
","
","
","""event"",""trial"",""time""
""fullscreenenter"",""5"",""12129""
","
",350.00000009313226,NA,48,NA,NA,3000,1,NA,NA,images/earth.jpg,images/rocket2,images/rocket1,null,images/rocket2,NA,1,real,null,2,NA,NA,NA,sub22
d3-animate-choice,277,949043,0.0-76.0-1.47,TRUE,FALSE,TRUE,TRUE,"""event"",""trial"",""time""
""fullscreenenter"",""5"",""12129""
","
","
","""event"",""trial"",""time""
""fullscreenenter"",""5"",""12129""
","
",496.87499995343387,NA,48,NA,NA,3000,1,NA,NA,images/redplanet1.jpg,images/alien2,images/alien1,images/rocket2,images/alien2,images/nothing.png,2,real,true,2,common,0,2020-06-14T20:28:17Z,sub22
two-step-fixation,278,950048,0.0-76.0-2.47,TRUE,FALSE,TRUE,TRUE,"""event"",""trial"",""time""
""fullscreenenter"",""5"",""12129""
","
","
","""event"",""trial"",""time""
""fullscreenenter"",""5"",""12129""
","
",NA,images/earth.jpg,NA,NA,NA,NA,NA,NA,NA,NA,NA,NA,NA,NA,NA,fixation,NA,NA,NA,NA,NA,NA,sub22
d3-animate-choice,279,952476,0.0-76.0-0.48,TRUE,FALSE,TRUE,TRUE,"""event"",""trial"",""time""
""fullscreenenter"",""5"",""12129""
","
","
","""event"",""trial"",""time""
""fullscreenenter"",""5"",""12129""
","
",421.4650000212714,NA,49,NA,NA,3000,1,NA,NA,images/earth.jpg,images/rocket2,images/rocket1,null,images/rocket1,NA,1,real,null,1,NA,NA,NA,sub22
d3-animate-choice,280,955342,0.0-76.0-1.48,TRUE,FALSE,TRUE,TRUE,"""event"",""trial"",""time""
""fullscreenenter"",""5"",""12129""
","
","
","""event"",""trial"",""time""
""fullscreenenter"",""5"",""12129""
","
",859.3000000109896,NA,48,NA,NA,3000,1,NA,NA,images/redplanet1.jpg,images/alien2,images/alien1,images/rocket1,images/alien2,images/t.png,2,real,false,2,rare,1,2020-06-14T20:28:23Z,sub22
two-step-fixation,281,956347,0.0-76.0-2.48,TRUE,FALSE,TRUE,TRUE,"""event"",""trial"",""time""
""fullscreenenter"",""5"",""12129""
","
","
","""event"",""trial"",""time""
""fullscreenenter"",""5"",""12129""
","
",NA,images/earth.jpg,NA,NA,NA,NA,NA,NA,NA,NA,NA,NA,NA,NA,NA,fixation,NA,NA,NA,NA,NA,NA,sub22
d3-animate-choice,282,958874,0.0-76.0-0.49,TRUE,FALSE,TRUE,TRUE,"""event"",""trial"",""time""
""fullscreenenter"",""5"",""12129""
","
","
","""event"",""trial"",""time""
""fullscreenenter"",""5"",""12129""
","
",520.5100000603124,NA,49,NA,NA,3000,1,NA,NA,images/earth.jpg,images/rocket2,images/rocket1,null,images/rocket1,NA,1,real,null,1,NA,NA,NA,sub22
d3-animate-choice,283,961487,0.0-76.0-1.49,TRUE,FALSE,TRUE,TRUE,"""event"",""trial"",""time""
""fullscreenenter"",""5"",""12129""
","
","
","""event"",""trial"",""time""
""fullscreenenter"",""5"",""12129""
","
",608.5449999663979,NA,48,NA,NA,3000,1,NA,NA,images/purpleplanet.jpg,images/alien4,images/alien3,images/rocket1,images/alien4,images/t.png,2,real,true,2,common,1,2020-06-14T20:28:30Z,sub22
two-step-fixation,284,962491,0.0-76.0-2.49,TRUE,FALSE,TRUE,TRUE,"""event"",""trial"",""time""
""fullscreenenter"",""5"",""12129""
""blur"",""285"",""968616""
""focus"",""285"",""974417""
","""event"",""trial"",""time""
