trial_type,trial_index,time_elapsed,internal_node_id,rocket_sides,red_planet_first_rocket,red_display_order,purple_display_order,interactions,blur_events,focus_events,fullscreenenter_events,fullscreenexit_events,rt,stimulus,key_press,button_pressed,success,duration,valid_pressed,rts,keys,planet_text,right_text,left_text,center_text,chosen_text,reward_text,trial_stage,practice_trial,transition_type,choice,transition,reward,timestamp,subject_id
pavlovia,0,6,0.0-0.0,TRUE,TRUE,TRUE,FALSE,"""event"",""trial"",""time""
""focus"",""1"",""17833""
","
","""event"",""trial"",""time""
""focus"",""1"",""17833""
","
","
",NA,NA,NA,NA,NA,NA,NA,NA,NA,NA,NA,NA,NA,NA,NA,NA,NA,NA,NA,NA,NA,NA,sub150
html-keyboard-response,1,18445,0.0-1.0,TRUE,TRUE,TRUE,FALSE,"""event"",""trial"",""time""
""focus"",""1"",""17833""
","
","""event"",""trial"",""time""
""focus"",""1"",""17833""
","
","
",18438.20499999856,Welcome! Press the space bar to begin.,32,NA,NA,NA,NA,NA,NA,NA,NA,NA,NA,NA,NA,NA,NA,NA,NA,NA,NA,NA,sub150
audio-keyboard-response,2,20569,0.0-2.0,TRUE,TRUE,TRUE,FALSE,"""event"",""trial"",""time""
""focus"",""1"",""17833""
","
","""event"",""trial"",""time""
""focus"",""1"",""17833""
","
","
",2117,audio/beep_loop.wav,32,NA,NA,NA,NA,NA,NA,NA,NA,NA,NA,NA,NA,NA,NA,NA,NA,NA,NA,NA,sub150
audio-button-response,3,22512,0.0-3.0,TRUE,TRUE,TRUE,FALSE,"""event"",""trial"",""time""
""focus"",""1"",""17833""
","
","""event"",""trial"",""time""
""focus"",""1"",""17833""
","
","
",NaN,audio/fish.mp3,NA,1,NA,NA,NA,NA,NA,NA,NA,NA,NA,NA,NA,NA,NA,NA,NA,NA,NA,NA,sub150
audio-button-response,4,25648,0.0-4.0,TRUE,TRUE,TRUE,FALSE,"""event"",""trial"",""time""
""focus"",""1"",""17833""
""blur"",""5"",""28364""
""focus"",""5"",""30833""
""fullscreenenter"",""5"",""31688""
","""event"",""trial"",""time""
""blur"",""5"",""28364""
","""event"",""trial"",""time""
""focus"",""1"",""17833""
""focus"",""5"",""30833""
","""event"",""trial"",""time""
""fullscreenenter"",""5"",""31688""
","
",NaN,audio/tiger.mp3,NA,4,NA,NA,NA,NA,NA,NA,NA,NA,NA,NA,NA,NA,NA,NA,NA,NA,NA,NA,sub150
fullscreen,5,32659,0.0-5.0,TRUE,TRUE,TRUE,FALSE,"""event"",""trial"",""time""
""focus"",""1"",""17833""
""blur"",""5"",""28364""
""focus"",""5"",""30833""
""fullscreenenter"",""5"",""31688""
","""event"",""trial"",""time""
""blur"",""5"",""28364""
","""event"",""trial"",""time""
""focus"",""1"",""17833""
""focus"",""5"",""30833""
","""event"",""trial"",""time""
""fullscreenenter"",""5"",""31688""
","
",NA,NA,NA,NA,TRUE,NA,NA,NA,NA,NA,NA,NA,NA,NA,NA,NA,NA,NA,NA,NA,NA,NA,sub150
d3-instructions,6,43869,0.0-6.0,TRUE,TRUE,TRUE,FALSE,"""event"",""trial"",""time""
""focus"",""1"",""17833""
""blur"",""5"",""28364""
""focus"",""5"",""30833""
""fullscreenenter"",""5"",""31688""
","""event"",""trial"",""time""
""blur"",""5"",""28364""
","""event"",""trial"",""time""
""focus"",""1"",""17833""
""focus"",""5"",""30833""
","""event"",""trial"",""time""
""fullscreenenter"",""5"",""31688""
","
",NA,NA,NA,NA,NA,NA,NA,NA,NA,NA,NA,NA,NA,NA,NA,NA,NA,NA,NA,NA,NA,NA,sub150
d3-instructions,7,49473,0.0-7.0,TRUE,TRUE,TRUE,FALSE,"""event"",""trial"",""time""
""focus"",""1"",""17833""
""blur"",""5"",""28364""
""focus"",""5"",""30833""
""fullscreenenter"",""5"",""31688""
","""event"",""trial"",""time""
""blur"",""5"",""28364""
","""event"",""trial"",""time""
""focus"",""1"",""17833""
""focus"",""5"",""30833""
","""event"",""trial"",""time""
""fullscreenenter"",""5"",""31688""
","
",NA,NA,NA,NA,NA,NA,NA,NA,NA,NA,NA,NA,NA,NA,NA,NA,NA,NA,NA,NA,NA,NA,sub150
d3-instructions,8,55829,0.0-8.0,TRUE,TRUE,TRUE,FALSE,"""event"",""trial"",""time""
""focus"",""1"",""17833""
""blur"",""5"",""28364""
""focus"",""5"",""30833""
""fullscreenenter"",""5"",""31688""
","""event"",""trial"",""time""
""blur"",""5"",""28364""
","""event"",""trial"",""time""
""focus"",""1"",""17833""
""focus"",""5"",""30833""
","""event"",""trial"",""time""
""fullscreenenter"",""5"",""31688""
","
",NA,NA,NA,NA,NA,NA,NA,NA,NA,NA,NA,NA,NA,NA,NA,NA,NA,NA,NA,NA,NA,NA,sub150
d3-instructions,9,70002,0.0-9.0,TRUE,TRUE,TRUE,FALSE,"""event"",""trial"",""time""
""focus"",""1"",""17833""
""blur"",""5"",""28364""
""focus"",""5"",""30833""
""fullscreenenter"",""5"",""31688""
","""event"",""trial"",""time""
""blur"",""5"",""28364""
","""event"",""trial"",""time""
""focus"",""1"",""17833""
""focus"",""5"",""30833""
","""event"",""trial"",""time""
""fullscreenenter"",""5"",""31688""
","
",NA,NA,NA,NA,NA,NA,NA,NA,NA,NA,NA,NA,NA,NA,NA,NA,NA,NA,NA,NA,NA,NA,sub150
d3-instructions,10,81901,0.0-10.0,TRUE,TRUE,TRUE,FALSE,"""event"",""trial"",""time""
""focus"",""1"",""17833""
""blur"",""5"",""28364""
""focus"",""5"",""30833""
""fullscreenenter"",""5"",""31688""
","""event"",""trial"",""time""
""blur"",""5"",""28364""
","""event"",""trial"",""time""
""focus"",""1"",""17833""
""focus"",""5"",""30833""
","""event"",""trial"",""time""
""fullscreenenter"",""5"",""31688""
","
",NA,NA,NA,NA,NA,NA,NA,NA,NA,NA,NA,NA,NA,NA,NA,NA,NA,NA,NA,NA,NA,NA,sub150
d3-animate-choice,11,85141,0.0-11.0,TRUE,TRUE,TRUE,FALSE,"""event"",""trial"",""time""
""focus"",""1"",""17833""
""blur"",""5"",""28364""
""focus"",""5"",""30833""
""fullscreenenter"",""5"",""31688""
","""event"",""trial"",""time""
""blur"",""5"",""28364""
","""event"",""trial"",""time""
""focus"",""1"",""17833""
""focus"",""5"",""30833""
","""event"",""trial"",""time""
""fullscreenenter"",""5"",""31688""
","
",1234.745000001567,NA,49,NA,NA,3000,1,1882.6699999990524,48,images/tutgreenplanet.jpg,images/tutalien1,images/tutalien2,null,images/tutalien2,NA,NA,practice,null,NA,NA,NA,NA,sub150
d3-animate-choice,12,87254,0.0-12.0,TRUE,TRUE,TRUE,FALSE,"""event"",""trial"",""time""
""focus"",""1"",""17833""
""blur"",""5"",""28364""
""focus"",""5"",""30833""
""fullscreenenter"",""5"",""31688""
","""event"",""trial"",""time""
""blur"",""5"",""28364""
","""event"",""trial"",""time""
""focus"",""1"",""17833""
""focus"",""5"",""30833""
","""event"",""trial"",""time""
""fullscreenenter"",""5"",""31688""
","
",109.85999999684282,NA,48,NA,NA,3000,1,NA,NA,images/tutgreenplanet.jpg,images/tutalien1,images/tutalien2,null,images/tutalien1,NA,NA,practice,null,NA,NA,NA,NA,sub150
d3-animate-choice,13,89829,0.0-13.0,TRUE,TRUE,TRUE,FALSE,"""event"",""trial"",""time""
""focus"",""1"",""17833""
""blur"",""5"",""28364""
""focus"",""5"",""30833""
""fullscreenenter"",""5"",""31688""
","""event"",""trial"",""time""
""blur"",""5"",""28364""
","""event"",""trial"",""time""
""focus"",""1"",""17833""
""focus"",""5"",""30833""
","""event"",""trial"",""time""
""fullscreenenter"",""5"",""31688""
","
",570.400000004156,NA,49,NA,NA,3000,1,NA,NA,images/tutgreenplanet.jpg,images/tutalien1,images/tutalien2,null,images/tutalien2,NA,NA,practice,null,NA,NA,NA,NA,sub150
d3-animate-choice,14,92197,0.0-14.0,TRUE,TRUE,TRUE,FALSE,"""event"",""trial"",""time""
""focus"",""1"",""17833""
""blur"",""5"",""28364""
""focus"",""5"",""30833""
""fullscreenenter"",""5"",""31688""
","""event"",""trial"",""time""
""blur"",""5"",""28364""
","""event"",""trial"",""time""
""focus"",""1"",""17833""
""focus"",""5"",""30833""
","""event"",""trial"",""time""
""fullscreenenter"",""5"",""31688""
","
",362.69500000344124,NA,48,NA,NA,3000,1,NA,NA,images/tutgreenplanet.jpg,images/tutalien1,images/tutalien2,null,images/tutalien1,NA,NA,practice,null,NA,NA,NA,NA,sub150
d3-instructions,15,97674,0.0-15.0,TRUE,TRUE,TRUE,FALSE,"""event"",""trial"",""time""
""focus"",""1"",""17833""
""blur"",""5"",""28364""
""focus"",""5"",""30833""
""fullscreenenter"",""5"",""31688""
","""event"",""trial"",""time""
""blur"",""5"",""28364""
","""event"",""trial"",""time""
""focus"",""1"",""17833""
""focus"",""5"",""30833""
","""event"",""trial"",""time""
""fullscreenenter"",""5"",""31688""
","
",NA,NA,NA,NA,NA,NA,NA,NA,NA,NA,NA,NA,NA,NA,NA,NA,NA,NA,NA,NA,NA,NA,sub150
d3-instructions,16,103221,0.0-16.0,TRUE,TRUE,TRUE,FALSE,"""event"",""trial"",""time""
""focus"",""1"",""17833""
""blur"",""5"",""28364""
""focus"",""5"",""30833""
""fullscreenenter"",""5"",""31688""
","""event"",""trial"",""time""
""blur"",""5"",""28364""
","""event"",""trial"",""time""
""focus"",""1"",""17833""
""focus"",""5"",""30833""
","""event"",""trial"",""time""
""fullscreenenter"",""5"",""31688""
","
",NA,NA,NA,NA,NA,NA,NA,NA,NA,NA,NA,NA,NA,NA,NA,NA,NA,NA,NA,NA,NA,NA,sub150
d3-instructions,17,111058,0.0-17.0,TRUE,TRUE,TRUE,FALSE,"""event"",""trial"",""time""
""focus"",""1"",""17833""
""blur"",""5"",""28364""
""focus"",""5"",""30833""
""fullscreenenter"",""5"",""31688""
","""event"",""trial"",""time""
""blur"",""5"",""28364""
","""event"",""trial"",""time""
""focus"",""1"",""17833""
""focus"",""5"",""30833""
","""event"",""trial"",""time""
""fullscreenenter"",""5"",""31688""
","
",NA,NA,NA,NA,NA,NA,NA,NA,NA,NA,NA,NA,NA,NA,NA,NA,NA,NA,NA,NA,NA,NA,sub150
d3-instructions,18,117374,0.0-18.0,TRUE,TRUE,TRUE,FALSE,"""event"",""trial"",""time""
""focus"",""1"",""17833""
""blur"",""5"",""28364""
""focus"",""5"",""30833""
""fullscreenenter"",""5"",""31688""
","""event"",""trial"",""time""
""blur"",""5"",""28364""
","""event"",""trial"",""time""
""focus"",""1"",""17833""
""focus"",""5"",""30833""
","""event"",""trial"",""time""
""fullscreenenter"",""5"",""31688""
","
",NA,NA,NA,NA,NA,NA,NA,NA,NA,NA,NA,NA,NA,NA,NA,NA,NA,NA,NA,NA,NA,NA,sub150
d3-instructions,19,125754,0.0-19.0,TRUE,TRUE,TRUE,FALSE,"""event"",""trial"",""time""
""focus"",""1"",""17833""
""blur"",""5"",""28364""
""focus"",""5"",""30833""
""fullscreenenter"",""5"",""31688""
","""event"",""trial"",""time""
""blur"",""5"",""28364""
","""event"",""trial"",""time""
""focus"",""1"",""17833""
""focus"",""5"",""30833""
","""event"",""trial"",""time""
""fullscreenenter"",""5"",""31688""
","
",NA,NA,NA,NA,NA,NA,NA,NA,NA,NA,NA,NA,NA,NA,NA,NA,NA,NA,NA,NA,NA,NA,sub150
d3-animate-choice,20,128724,0.0-20.0,TRUE,TRUE,TRUE,FALSE,"""event"",""trial"",""time""
""focus"",""1"",""17833""
""blur"",""5"",""28364""
""focus"",""5"",""30833""
""fullscreenenter"",""5"",""31688""
","""event"",""trial"",""time""
""blur"",""5"",""28364""
","""event"",""trial"",""time""
""focus"",""1"",""17833""
""focus"",""5"",""30833""
","""event"",""trial"",""time""
""fullscreenenter"",""5"",""31688""
","
",966.4100000009057,NA,49,NA,NA,3000,1,NA,NA,images/tutyellowplanet.jpg,null,images/tutalien3,null,images/tutalien3,images/nothing.png,NA,practice,null,NA,NA,NA,NA,sub150
d3-animate-choice,21,131059,0.0-21.0,TRUE,TRUE,TRUE,FALSE,"""event"",""trial"",""time""
""focus"",""1"",""17833""
""blur"",""5"",""28364""
""focus"",""5"",""30833""
""fullscreenenter"",""5"",""31688""
","""event"",""trial"",""time""
""blur"",""5"",""28364""
","""event"",""trial"",""time""
""focus"",""1"",""17833""
""focus"",""5"",""30833""
","""event"",""trial"",""time""
""fullscreenenter"",""5"",""31688""
","
",328.80499999737367,NA,49,NA,NA,3000,1,NA,NA,images/tutyellowplanet.jpg,null,images/tutalien3,null,images/tutalien3,images/t.png,NA,practice,null,NA,NA,NA,NA,sub150
d3-animate-choice,22,133319,0.0-22.0,TRUE,TRUE,TRUE,FALSE,"""event"",""trial"",""time""
""focus"",""1"",""17833""
""blur"",""5"",""28364""
""focus"",""5"",""30833""
""fullscreenenter"",""5"",""31688""
","""event"",""trial"",""time""
""blur"",""5"",""28364""
","""event"",""trial"",""time""
""focus"",""1"",""17833""
""focus"",""5"",""30833""
","""event"",""trial"",""time""
""fullscreenenter"",""5"",""31688""
","
",253.7949999968987,NA,49,NA,NA,3000,1,NA,NA,images/tutyellowplanet.jpg,null,images/tutalien3,null,images/tutalien3,images/t.png,NA,practice,null,NA,NA,NA,NA,sub150
d3-animate-choice,23,135542,0.0-23.0,TRUE,TRUE,TRUE,FALSE,"""event"",""trial"",""time""
""focus"",""1"",""17833""
""blur"",""5"",""28364""
""focus"",""5"",""30833""
""fullscreenenter"",""5"",""31688""
","""event"",""trial"",""time""
""blur"",""5"",""28364""
","""event"",""trial"",""time""
""focus"",""1"",""17833""
""focus"",""5"",""30833""
","""event"",""trial"",""time""
""fullscreenenter"",""5"",""31688""
","
",220.45000000071013,NA,49,NA,NA,3000,1,NA,NA,images/tutyellowplanet.jpg,null,images/tutalien3,null,images/tutalien3,images/t.png,NA,practice,null,NA,NA,NA,NA,sub150
d3-animate-choice,24,137788,0.0-24.0,TRUE,TRUE,TRUE,FALSE,"""event"",""trial"",""time""
""focus"",""1"",""17833""
""blur"",""5"",""28364""
""focus"",""5"",""30833""
""fullscreenenter"",""5"",""31688""
","""event"",""trial"",""time""
""blur"",""5"",""28364""
","""event"",""trial"",""time""
""focus"",""1"",""17833""
""focus"",""5"",""30833""
","""event"",""trial"",""time""
""fullscreenenter"",""5"",""31688""
","
",243.71000000246568,NA,49,NA,NA,3000,1,NA,NA,images/tutyellowplanet.jpg,null,images/tutalien3,null,images/tutalien3,images/t.png,NA,practice,null,NA,NA,NA,NA,sub150
d3-animate-choice,25,140018,0.0-25.0,TRUE,TRUE,TRUE,FALSE,"""event"",""trial"",""time""
""focus"",""1"",""17833""
""blur"",""5"",""28364""
""focus"",""5"",""30833""
""fullscreenenter"",""5"",""31688""
","""event"",""trial"",""time""
""blur"",""5"",""28364""
","""event"",""trial"",""time""
""focus"",""1"",""17833""
""focus"",""5"",""30833""
","""event"",""trial"",""time""
""fullscreenenter"",""5"",""31688""
","
",224.0799999999581,NA,49,NA,NA,3000,1,NA,NA,images/tutyellowplanet.jpg,null,images/tutalien3,null,images/tutalien3,images/t.png,NA,practice,null,NA,NA,NA,NA,sub150
d3-animate-choice,26,142323,0.0-26.0,TRUE,TRUE,TRUE,FALSE,"""event"",""trial"",""time""
""focus"",""1"",""17833""
""blur"",""5"",""28364""
""focus"",""5"",""30833""
""fullscreenenter"",""5"",""31688""
","""event"",""trial"",""time""
""blur"",""5"",""28364""
","""event"",""trial"",""time""
""focus"",""1"",""17833""
""focus"",""5"",""30833""
","""event"",""trial"",""time""
""fullscreenenter"",""5"",""31688""
","
",302.3499999981141,NA,49,NA,NA,3000,1,NA,NA,images/tutyellowplanet.jpg,null,images/tutalien3,null,images/tutalien3,images/t.png,NA,practice,null,NA,NA,NA,NA,sub150
d3-animate-choice,27,144480,0.0-27.0,TRUE,TRUE,TRUE,FALSE,"""event"",""trial"",""time""
""focus"",""1"",""17833""
""blur"",""5"",""28364""
""focus"",""5"",""30833""
""fullscreenenter"",""5"",""31688""
","""event"",""trial"",""time""
""blur"",""5"",""28364""
","""event"",""trial"",""time""
""focus"",""1"",""17833""
""focus"",""5"",""30833""
","""event"",""trial"",""time""
""fullscreenenter"",""5"",""31688""
","
",153.35999999661,NA,49,NA,NA,3000,1,NA,NA,images/tutyellowplanet.jpg,null,images/tutalien3,null,images/tutalien3,images/t.png,NA,practice,null,NA,NA,NA,NA,sub150
d3-animate-choice,28,146707,0.0-28.0,TRUE,TRUE,TRUE,FALSE,"""event"",""trial"",""time""
""focus"",""1"",""17833""
""blur"",""5"",""28364""
""focus"",""5"",""30833""
""fullscreenenter"",""5"",""31688""
","""event"",""trial"",""time""
""blur"",""5"",""28364""
","""event"",""trial"",""time""
""focus"",""1"",""17833""
""focus"",""5"",""30833""
","""event"",""trial"",""time""
""fullscreenenter"",""5"",""31688""
","
",224.5649999968009,NA,49,NA,NA,3000,1,NA,NA,images/tutyellowplanet.jpg,null,images/tutalien3,null,images/tutalien3,images/t.png,NA,practice,null,NA,NA,NA,NA,sub150
d3-animate-choice,29,149026,0.0-29.0,TRUE,TRUE,TRUE,FALSE,"""event"",""trial"",""time""
""focus"",""1"",""17833""
""blur"",""5"",""28364""
""focus"",""5"",""30833""
""fullscreenenter"",""5"",""31688""
","""event"",""trial"",""time""
""blur"",""5"",""28364""
","""event"",""trial"",""time""
""focus"",""1"",""17833""
""focus"",""5"",""30833""
","""event"",""trial"",""time""
""fullscreenenter"",""5"",""31688""
","
",313.86499999644,NA,49,NA,NA,3000,1,NA,NA,images/tutyellowplanet.jpg,null,images/tutalien3,null,images/tutalien3,images/nothing.png,NA,practice,null,NA,NA,NA,NA,sub150
d3-instructions,30,152738,0.0-30.0,TRUE,TRUE,TRUE,FALSE,"""event"",""trial"",""time""
""focus"",""1"",""17833""
""blur"",""5"",""28364""
""focus"",""5"",""30833""
""fullscreenenter"",""5"",""31688""
","""event"",""trial"",""time""
""blur"",""5"",""28364""
","""event"",""trial"",""time""
""focus"",""1"",""17833""
""focus"",""5"",""30833""
","""event"",""trial"",""time""
""fullscreenenter"",""5"",""31688""
","
",NA,NA,NA,NA,NA,NA,NA,NA,NA,NA,NA,NA,NA,NA,NA,NA,NA,NA,NA,NA,NA,NA,sub150
d3-instructions,31,159334,0.0-31.0,TRUE,TRUE,TRUE,FALSE,"""event"",""trial"",""time""
""focus"",""1"",""17833""
""blur"",""5"",""28364""
""focus"",""5"",""30833""
""fullscreenenter"",""5"",""31688""
","""event"",""trial"",""time""
""blur"",""5"",""28364""
","""event"",""trial"",""time""
""focus"",""1"",""17833""
""focus"",""5"",""30833""
","""event"",""trial"",""time""
""fullscreenenter"",""5"",""31688""
","
",NA,NA,NA,NA,NA,NA,NA,NA,NA,NA,NA,NA,NA,NA,NA,NA,NA,NA,NA,NA,NA,NA,sub150
d3-instructions,32,163459,0.0-32.0,TRUE,TRUE,TRUE,FALSE,"""event"",""trial"",""time""
""focus"",""1"",""17833""
""blur"",""5"",""28364""
""focus"",""5"",""30833""
""fullscreenenter"",""5"",""31688""
","""event"",""trial"",""time""
""blur"",""5"",""28364""
","""event"",""trial"",""time""
""focus"",""1"",""17833""
""focus"",""5"",""30833""
","""event"",""trial"",""time""
""fullscreenenter"",""5"",""31688""
","
",NA,NA,NA,NA,NA,NA,NA,NA,NA,NA,NA,NA,NA,NA,NA,NA,NA,NA,NA,NA,NA,NA,sub150
d3-instructions,33,166830,0.0-33.0,TRUE,TRUE,TRUE,FALSE,"""event"",""trial"",""time""
""focus"",""1"",""17833""
""blur"",""5"",""28364""
""focus"",""5"",""30833""
""fullscreenenter"",""5"",""31688""
","""event"",""trial"",""time""
""blur"",""5"",""28364""
","""event"",""trial"",""time""
""focus"",""1"",""17833""
""focus"",""5"",""30833""
","""event"",""trial"",""time""
""fullscreenenter"",""5"",""31688""
","
",NA,NA,NA,NA,NA,NA,NA,NA,NA,NA,NA,NA,NA,NA,NA,NA,NA,NA,NA,NA,NA,NA,sub150
d3-animate-choice,34,169819,0.0-34.0,TRUE,TRUE,TRUE,FALSE,"""event"",""trial"",""time""
""focus"",""1"",""17833""
""blur"",""5"",""28364""
""focus"",""5"",""30833""
""fullscreenenter"",""5"",""31688""
","""event"",""trial"",""time""
""blur"",""5"",""28364""
","""event"",""trial"",""time""
""focus"",""1"",""17833""
""focus"",""5"",""30833""
","""event"",""trial"",""time""
""fullscreenenter"",""5"",""31688""
","
",987.4249999993481,NA,49,NA,NA,3000,1,NA,NA,images/tutgreenplanet.jpg,images/tutalien1,images/tutalien2,null,images/tutalien2,images/t.png,NA,practice,null,NA,NA,NA,NA,sub150
d3-animate-choice,35,172051,0.0-35.0,TRUE,TRUE,TRUE,FALSE,"""event"",""trial"",""time""
""focus"",""1"",""17833""
""blur"",""5"",""28364""
""focus"",""5"",""30833""
""fullscreenenter"",""5"",""31688""
","""event"",""trial"",""time""
""blur"",""5"",""28364""
","""event"",""trial"",""time""
""focus"",""1"",""17833""
""focus"",""5"",""30833""
","""event"",""trial"",""time""
""fullscreenenter"",""5"",""31688""
","
",225.66000000369968,NA,49,NA,NA,3000,1,NA,NA,images/tutgreenplanet.jpg,images/tutalien1,images/tutalien2,null,images/tutalien2,images/t.png,NA,practice,null,NA,NA,NA,NA,sub150
d3-animate-choice,36,174261,0.0-36.0,TRUE,TRUE,TRUE,FALSE,"""event"",""trial"",""time""
""focus"",""1"",""17833""
""blur"",""5"",""28364""
""focus"",""5"",""30833""
""fullscreenenter"",""5"",""31688""
","""event"",""trial"",""time""
""blur"",""5"",""28364""
","""event"",""trial"",""time""
""focus"",""1"",""17833""
""focus"",""5"",""30833""
","""event"",""trial"",""time""
""fullscreenenter"",""5"",""31688""
","
",206.27999999851454,NA,49,NA,NA,3000,1,NA,NA,images/tutgreenplanet.jpg,images/tutalien1,images/tutalien2,null,images/tutalien2,images/t.png,NA,practice,null,NA,NA,NA,NA,sub150
d3-animate-choice,37,176496,0.0-37.0,TRUE,TRUE,TRUE,FALSE,"""event"",""trial"",""time""
""focus"",""1"",""17833""
""blur"",""5"",""28364""
""focus"",""5"",""30833""
""fullscreenenter"",""5"",""31688""
","""event"",""trial"",""time""
""blur"",""5"",""28364""
","""event"",""trial"",""time""
""focus"",""1"",""17833""
""focus"",""5"",""30833""
","""event"",""trial"",""time""
""fullscreenenter"",""5"",""31688""
","
",232.09000000497326,NA,49,NA,NA,3000,1,NA,NA,images/tutgreenplanet.jpg,images/tutalien1,images/tutalien2,null,images/tutalien2,images/t.png,NA,practice,null,NA,NA,NA,NA,sub150
d3-animate-choice,38,178638,0.0-38.0,TRUE,TRUE,TRUE,FALSE,"""event"",""trial"",""time""
""focus"",""1"",""17833""
""blur"",""5"",""28364""
""focus"",""5"",""30833""
""fullscreenenter"",""5"",""31688""
","""event"",""trial"",""time""
""blur"",""5"",""28364""
","""event"",""trial"",""time""
""focus"",""1"",""17833""
""focus"",""5"",""30833""
","""event"",""trial"",""time""
""fullscreenenter"",""5"",""31688""
","
",136.6649999981746,NA,49,NA,NA,3000,1,NA,NA,images/tutgreenplanet.jpg,images/tutalien1,images/tutalien2,null,images/tutalien2,images/nothing.png,NA,practice,null,NA,NA,NA,NA,sub150
d3-animate-choice,39,180784,0.0-39.0,TRUE,TRUE,TRUE,FALSE,"""event"",""trial"",""time""
""focus"",""1"",""17833""
""blur"",""5"",""28364""
""focus"",""5"",""30833""
""fullscreenenter"",""5"",""31688""
","""event"",""trial"",""time""
""blur"",""5"",""28364""
","""event"",""trial"",""time""
""focus"",""1"",""17833""
""focus"",""5"",""30833""
","""event"",""trial"",""time""
""fullscreenenter"",""5"",""31688""
","
",142.66500000667293,NA,49,NA,NA,3000,1,NA,NA,images/tutgreenplanet.jpg,images/tutalien1,images/tutalien2,null,images/tutalien2,images/nothing.png,NA,practice,null,NA,NA,NA,NA,sub150
d3-animate-choice,40,182838,0.0-40.0,TRUE,TRUE,TRUE,FALSE,"""event"",""trial"",""time""
""focus"",""1"",""17833""
""blur"",""5"",""28364""
""focus"",""5"",""30833""
""fullscreenenter"",""5"",""31688""
","""event"",""trial"",""time""
""blur"",""5"",""28364""
","""event"",""trial"",""time""
""focus"",""1"",""17833""
""focus"",""5"",""30833""
","""event"",""trial"",""time""
""fullscreenenter"",""5"",""31688""
","
",49.89000000205124,NA,49,NA,NA,3000,1,NA,NA,images/tutgreenplanet.jpg,images/tutalien1,images/tutalien2,null,images/tutalien2,images/t.png,NA,practice,null,NA,NA,NA,NA,sub150
d3-animate-choice,41,185055,0.0-41.0,TRUE,TRUE,TRUE,FALSE,"""event"",""trial"",""time""
""focus"",""1"",""17833""
""blur"",""5"",""28364""
""focus"",""5"",""30833""
""fullscreenenter"",""5"",""31688""
","""event"",""trial"",""time""
""blur"",""5"",""28364""
","""event"",""trial"",""time""
""focus"",""1"",""17833""
""focus"",""5"",""30833""
","""event"",""trial"",""time""
""fullscreenenter"",""5"",""31688""
","
",214.2149999999674,NA,49,NA,NA,3000,1,2178.794999999809,49,images/tutgreenplanet.jpg,images/tutalien1,images/tutalien2,null,images/tutalien2,images/t.png,NA,practice,null,NA,NA,NA,NA,sub150
d3-animate-choice,42,187528,0.0-42.0,TRUE,TRUE,TRUE,FALSE,"""event"",""trial"",""time""
""focus"",""1"",""17833""
""blur"",""5"",""28364""
""focus"",""5"",""30833""
""fullscreenenter"",""5"",""31688""
","""event"",""trial"",""time""
""blur"",""5"",""28364""
","""event"",""trial"",""time""
""focus"",""1"",""17833""
""focus"",""5"",""30833""
","""event"",""trial"",""time""
""fullscreenenter"",""5"",""31688""
","
",468.82999999797903,NA,49,NA,NA,3000,1,NA,NA,images/tutgreenplanet.jpg,images/tutalien1,images/tutalien2,null,images/tutalien2,images/t.png,NA,practice,null,NA,NA,NA,NA,sub150
d3-animate-choice,43,189734,0.0-43.0,TRUE,TRUE,TRUE,FALSE,"""event"",""trial"",""time""
""focus"",""1"",""17833""
""blur"",""5"",""28364""
""focus"",""5"",""30833""
""fullscreenenter"",""5"",""31688""
","""event"",""trial"",""time""
""blur"",""5"",""28364""
","""event"",""trial"",""time""
""focus"",""1"",""17833""
""focus"",""5"",""30833""
","""event"",""trial"",""time""
""fullscreenenter"",""5"",""31688""
","
",201.535000000149,NA,49,NA,NA,3000,1,NA,NA,images/tutgreenplanet.jpg,images/tutalien1,images/tutalien2,null,images/tutalien2,images/t.png,NA,practice,null,NA,NA,NA,NA,sub150
d3-instructions,44,198763,0.0-44.0,TRUE,TRUE,TRUE,FALSE,"""event"",""trial"",""time""
""focus"",""1"",""17833""
""blur"",""5"",""28364""
""focus"",""5"",""30833""
""fullscreenenter"",""5"",""31688""
","""event"",""trial"",""time""
""blur"",""5"",""28364""
","""event"",""trial"",""time""
""focus"",""1"",""17833""
""focus"",""5"",""30833""
","""event"",""trial"",""time""
""fullscreenenter"",""5"",""31688""
","
",NA,NA,NA,NA,NA,NA,NA,NA,NA,NA,NA,NA,NA,NA,NA,NA,NA,NA,NA,NA,NA,NA,sub150
d3-instructions,45,203302,0.0-45.0,TRUE,TRUE,TRUE,FALSE,"""event"",""trial"",""time""
""focus"",""1"",""17833""
""blur"",""5"",""28364""
""focus"",""5"",""30833""
""fullscreenenter"",""5"",""31688""
","""event"",""trial"",""time""
""blur"",""5"",""28364""
","""event"",""trial"",""time""
""focus"",""1"",""17833""
""focus"",""5"",""30833""
","""event"",""trial"",""time""
""fullscreenenter"",""5"",""31688""
","
",NA,NA,NA,NA,NA,NA,NA,NA,NA,NA,NA,NA,NA,NA,NA,NA,NA,NA,NA,NA,NA,NA,sub150
d3-instructions,46,206596,0.0-46.0,TRUE,TRUE,TRUE,FALSE,"""event"",""trial"",""time""
""focus"",""1"",""17833""
""blur"",""5"",""28364""
""focus"",""5"",""30833""
""fullscreenenter"",""5"",""31688""
","""event"",""trial"",""time""
""blur"",""5"",""28364""
","""event"",""trial"",""time""
""focus"",""1"",""17833""
""focus"",""5"",""30833""
","""event"",""trial"",""time""
""fullscreenenter"",""5"",""31688""
","
",NA,NA,NA,NA,NA,NA,NA,NA,NA,NA,NA,NA,NA,NA,NA,NA,NA,NA,NA,NA,NA,NA,sub150
d3-instructions,47,214702,0.0-47.0,TRUE,TRUE,TRUE,FALSE,"""event"",""trial"",""time""
""focus"",""1"",""17833""
""blur"",""5"",""28364""
""focus"",""5"",""30833""
""fullscreenenter"",""5"",""31688""
","""event"",""trial"",""time""
""blur"",""5"",""28364""
","""event"",""trial"",""time""
""focus"",""1"",""17833""
""focus"",""5"",""30833""
","""event"",""trial"",""time""
""fullscreenenter"",""5"",""31688""
","
",NA,NA,NA,NA,NA,NA,NA,NA,NA,NA,NA,NA,NA,NA,NA,NA,NA,NA,NA,NA,NA,NA,sub150
d3-instructions,48,220548,0.0-48.0,TRUE,TRUE,TRUE,FALSE,"""event"",""trial"",""time""
""focus"",""1"",""17833""
""blur"",""5"",""28364""
""focus"",""5"",""30833""
""fullscreenenter"",""5"",""31688""
","""event"",""trial"",""time""
""blur"",""5"",""28364""
","""event"",""trial"",""time""
""focus"",""1"",""17833""
""focus"",""5"",""30833""
","""event"",""trial"",""time""
""fullscreenenter"",""5"",""31688""
","
",NA,NA,NA,NA,NA,NA,NA,NA,NA,NA,NA,NA,NA,NA,NA,NA,NA,NA,NA,NA,NA,NA,sub150
d3-instructions,49,228303,0.0-49.0,TRUE,TRUE,TRUE,FALSE,"""event"",""trial"",""time""
""focus"",""1"",""17833""
""blur"",""5"",""28364""
""focus"",""5"",""30833""
""fullscreenenter"",""5"",""31688""
","""event"",""trial"",""time""
""blur"",""5"",""28364""
","""event"",""trial"",""time""
""focus"",""1"",""17833""
""focus"",""5"",""30833""
","""event"",""trial"",""time""
""fullscreenenter"",""5"",""31688""
","
",NA,NA,NA,NA,NA,NA,NA,NA,NA,NA,NA,NA,NA,NA,NA,NA,NA,NA,NA,NA,NA,NA,sub150
d3-instructions,50,236340,0.0-50.0,TRUE,TRUE,TRUE,FALSE,"""event"",""trial"",""time""
""focus"",""1"",""17833""
""blur"",""5"",""28364""
""focus"",""5"",""30833""
""fullscreenenter"",""5"",""31688""
","""event"",""trial"",""time""
""blur"",""5"",""28364""
","""event"",""trial"",""time""
""focus"",""1"",""17833""
""focus"",""5"",""30833""
","""event"",""trial"",""time""
""fullscreenenter"",""5"",""31688""
","
",NA,NA,NA,NA,NA,NA,NA,NA,NA,NA,NA,NA,NA,NA,NA,NA,NA,NA,NA,NA,NA,NA,sub150
d3-instructions,51,239830,0.0-51.0,TRUE,TRUE,TRUE,FALSE,"""event"",""trial"",""time""
""focus"",""1"",""17833""
""blur"",""5"",""28364""
""focus"",""5"",""30833""
""fullscreenenter"",""5"",""31688""
","""event"",""trial"",""time""
""blur"",""5"",""28364""
","""event"",""trial"",""time""
""focus"",""1"",""17833""
""focus"",""5"",""30833""
","""event"",""trial"",""time""
""fullscreenenter"",""5"",""31688""
","
",NA,NA,NA,NA,NA,NA,NA,NA,NA,NA,NA,NA,NA,NA,NA,NA,NA,NA,NA,NA,NA,NA,sub150
d3-instructions,52,243436,0.0-52.0,TRUE,TRUE,TRUE,FALSE,"""event"",""trial"",""time""
""focus"",""1"",""17833""
""blur"",""5"",""28364""
""focus"",""5"",""30833""
""fullscreenenter"",""5"",""31688""
","""event"",""trial"",""time""
""blur"",""5"",""28364""
","""event"",""trial"",""time""
""focus"",""1"",""17833""
""focus"",""5"",""30833""
","""event"",""trial"",""time""
""fullscreenenter"",""5"",""31688""
","
",NA,NA,NA,NA,NA,NA,NA,NA,NA,NA,NA,NA,NA,NA,NA,NA,NA,NA,NA,NA,NA,NA,sub150
d3-instructions,53,250559,0.0-53.0,TRUE,TRUE,TRUE,FALSE,"""event"",""trial"",""time""
""focus"",""1"",""17833""
""blur"",""5"",""28364""
""focus"",""5"",""30833""
""fullscreenenter"",""5"",""31688""
","""event"",""trial"",""time""
""blur"",""5"",""28364""
","""event"",""trial"",""time""
""focus"",""1"",""17833""
""focus"",""5"",""30833""
","""event"",""trial"",""time""
""fullscreenenter"",""5"",""31688""
","
",NA,NA,NA,NA,NA,NA,NA,NA,NA,NA,NA,NA,NA,NA,NA,NA,NA,NA,NA,NA,NA,NA,sub150
d3-instructions,54,261836,0.0-54.0,TRUE,TRUE,TRUE,FALSE,"""event"",""trial"",""time""
""focus"",""1"",""17833""
""blur"",""5"",""28364""
""focus"",""5"",""30833""
""fullscreenenter"",""5"",""31688""
","""event"",""trial"",""time""
""blur"",""5"",""28364""
","""event"",""trial"",""time""
""focus"",""1"",""17833""
""focus"",""5"",""30833""
","""event"",""trial"",""time""
""fullscreenenter"",""5"",""31688""
","
",NA,NA,NA,NA,NA,NA,NA,NA,NA,NA,NA,NA,NA,NA,NA,NA,NA,NA,NA,NA,NA,NA,sub150
d3-instructions,55,271480,0.0-55.0,TRUE,TRUE,TRUE,FALSE,"""event"",""trial"",""time""
""focus"",""1"",""17833""
""blur"",""5"",""28364""
""focus"",""5"",""30833""
""fullscreenenter"",""5"",""31688""
","""event"",""trial"",""time""
""blur"",""5"",""28364""
","""event"",""trial"",""time""
""focus"",""1"",""17833""
""focus"",""5"",""30833""
","""event"",""trial"",""time""
""fullscreenenter"",""5"",""31688""
","
",NA,NA,NA,NA,NA,NA,NA,NA,NA,NA,NA,NA,NA,NA,NA,NA,NA,NA,NA,NA,NA,NA,sub150
d3-instructions,56,279052,0.0-56.0,TRUE,TRUE,TRUE,FALSE,"""event"",""trial"",""time""
""focus"",""1"",""17833""
""blur"",""5"",""28364""
""focus"",""5"",""30833""
""fullscreenenter"",""5"",""31688""
","""event"",""trial"",""time""
""blur"",""5"",""28364""
","""event"",""trial"",""time""
""focus"",""1"",""17833""
""focus"",""5"",""30833""
","""event"",""trial"",""time""
""fullscreenenter"",""5"",""31688""
","
",NA,NA,NA,NA,NA,NA,NA,NA,NA,NA,NA,NA,NA,NA,NA,NA,NA,NA,NA,NA,NA,NA,sub150
d3-instructions,57,285015,0.0-57.0,TRUE,TRUE,TRUE,FALSE,"""event"",""trial"",""time""
""focus"",""1"",""17833""
""blur"",""5"",""28364""
""focus"",""5"",""30833""
""fullscreenenter"",""5"",""31688""
","""event"",""trial"",""time""
""blur"",""5"",""28364""
","""event"",""trial"",""time""
""focus"",""1"",""17833""
""focus"",""5"",""30833""
","""event"",""trial"",""time""
""fullscreenenter"",""5"",""31688""
","
",NA,NA,NA,NA,NA,NA,NA,NA,NA,NA,NA,NA,NA,NA,NA,NA,NA,NA,NA,NA,NA,NA,sub150
d3-instructions,58,290597,0.0-58.0,TRUE,TRUE,TRUE,FALSE,"""event"",""trial"",""time""
""focus"",""1"",""17833""
""blur"",""5"",""28364""
""focus"",""5"",""30833""
""fullscreenenter"",""5"",""31688""
","""event"",""trial"",""time""
""blur"",""5"",""28364""
","""event"",""trial"",""time""
""focus"",""1"",""17833""
""focus"",""5"",""30833""
","""event"",""trial"",""time""
""fullscreenenter"",""5"",""31688""
","
",NA,NA,NA,NA,NA,NA,NA,NA,NA,NA,NA,NA,NA,NA,NA,NA,NA,NA,NA,NA,NA,NA,sub150
d3-instructions,59,293960,0.0-59.0,TRUE,TRUE,TRUE,FALSE,"""event"",""trial"",""time""
""focus"",""1"",""17833""
""blur"",""5"",""28364""
""focus"",""5"",""30833""
""fullscreenenter"",""5"",""31688""
","""event"",""trial"",""time""
""blur"",""5"",""28364""
","""event"",""trial"",""time""
""focus"",""1"",""17833""
""focus"",""5"",""30833""
","""event"",""trial"",""time""
""fullscreenenter"",""5"",""31688""
","
",NA,NA,NA,NA,NA,NA,NA,NA,NA,NA,NA,NA,NA,NA,NA,NA,NA,NA,NA,NA,NA,NA,sub150
d3-instructions,60,297084,0.0-60.0,TRUE,TRUE,TRUE,FALSE,"""event"",""trial"",""time""
""focus"",""1"",""17833""
""blur"",""5"",""28364""
""focus"",""5"",""30833""
""fullscreenenter"",""5"",""31688""
","""event"",""trial"",""time""
""blur"",""5"",""28364""
","""event"",""trial"",""time""
""focus"",""1"",""17833""
""focus"",""5"",""30833""
","""event"",""trial"",""time""
""fullscreenenter"",""5"",""31688""
","
",NA,NA,NA,NA,NA,NA,NA,NA,NA,NA,NA,NA,NA,NA,NA,NA,NA,NA,NA,NA,NA,NA,sub150
d3-animate-choice,61,299784,0.0-61.0-0.0,TRUE,TRUE,TRUE,FALSE,"""event"",""trial"",""time""
""focus"",""1"",""17833""
""blur"",""5"",""28364""
""focus"",""5"",""30833""
""fullscreenenter"",""5"",""31688""
","""event"",""trial"",""time""
""blur"",""5"",""28364""
","""event"",""trial"",""time""
""focus"",""1"",""17833""
""focus"",""5"",""30833""
","""event"",""trial"",""time""
""fullscreenenter"",""5"",""31688""
","
",694.1399999996065,NA,48,NA,NA,3000,1,NA,NA,images/earth.jpg,images/tutrocket1,images/tutrocket2,null,images/tutrocket1,NA,1,practice,null,2,NA,NA,NA,sub150
d3-animate-choice,62,302887,0.0-61.0-1.0,TRUE,TRUE,TRUE,FALSE,"""event"",""trial"",""time""
""focus"",""1"",""17833""
""blur"",""5"",""28364""
""focus"",""5"",""30833""
""fullscreenenter"",""5"",""31688""
","""event"",""trial"",""time""
""blur"",""5"",""28364""
","""event"",""trial"",""time""
""focus"",""1"",""17833""
""focus"",""5"",""30833""
","""event"",""trial"",""time""
""fullscreenenter"",""5"",""31688""
","
",1097.2550000005867,NA,49,NA,NA,3000,1,NA,NA,images/tutgreenplanet.jpg,images/tutalien2,images/tutalien1,images/tutrocket1,images/tutalien1,images/nothing.png,2,practice,true,1,common,0,2020-07-04T14:53:12Z,sub150
two-step-fixation,63,303891,0.0-61.0-2.0,TRUE,TRUE,TRUE,FALSE,"""event"",""trial"",""time""
""focus"",""1"",""17833""
""blur"",""5"",""28364""
""focus"",""5"",""30833""
""fullscreenenter"",""5"",""31688""
","""event"",""trial"",""time""
""blur"",""5"",""28364""
","""event"",""trial"",""time""
""focus"",""1"",""17833""
""focus"",""5"",""30833""
","""event"",""trial"",""time""
""fullscreenenter"",""5"",""31688""
","
",NA,images/earth.jpg,NA,NA,NA,NA,NA,NA,NA,NA,NA,NA,NA,NA,NA,fixation,NA,NA,NA,NA,NA,NA,sub150
d3-animate-choice,64,306960,0.0-61.0-0.1,TRUE,TRUE,TRUE,FALSE,"""event"",""trial"",""time""
""focus"",""1"",""17833""
""blur"",""5"",""28364""
""focus"",""5"",""30833""
""fullscreenenter"",""5"",""31688""
","""event"",""trial"",""time""
""blur"",""5"",""28364""
","""event"",""trial"",""time""
""focus"",""1"",""17833""
""focus"",""5"",""30833""
","""event"",""trial"",""time""
""fullscreenenter"",""5"",""31688""
","
",1066.899999997986,NA,49,NA,NA,3000,1,NA,NA,images/earth.jpg,images/tutrocket1,images/tutrocket2,null,images/tutrocket2,NA,1,practice,null,1,NA,NA,NA,sub150
d3-animate-choice,65,310964,0.0-61.0-1.1,TRUE,TRUE,TRUE,FALSE,"""event"",""trial"",""time""
""focus"",""1"",""17833""
""blur"",""5"",""28364""
""focus"",""5"",""30833""
""fullscreenenter"",""5"",""31688""
","""event"",""trial"",""time""
""blur"",""5"",""28364""
","""event"",""trial"",""time""
""focus"",""1"",""17833""
""focus"",""5"",""30833""
","""event"",""trial"",""time""
""fullscreenenter"",""5"",""31688""
","
",1459.4700000016019,NA,50,NA,NA,3000,1,2306.9550000000163,48,images/tutgreenplanet.jpg,images/tutalien2,images/tutalien1,images/tutrocket2,images/tutalien2,images/nothing.png,2,practice,false,NA,rare,0,2020-07-04T14:53:20Z,sub150
two-step-fixation,66,311968,0.0-61.0-2.1,TRUE,TRUE,TRUE,FALSE,"""event"",""trial"",""time""
""focus"",""1"",""17833""
""blur"",""5"",""28364""
""focus"",""5"",""30833""
""fullscreenenter"",""5"",""31688""
","""event"",""trial"",""time""
""blur"",""5"",""28364""
","""event"",""trial"",""time""
""focus"",""1"",""17833""
""focus"",""5"",""30833""
","""event"",""trial"",""time""
""fullscreenenter"",""5"",""31688""
","
",NA,images/earth.jpg,NA,NA,NA,NA,NA,NA,NA,NA,NA,NA,NA,NA,NA,fixation,NA,NA,NA,NA,NA,NA,sub150
d3-animate-choice,67,314549,0.0-61.0-0.2,TRUE,TRUE,TRUE,FALSE,"""event"",""trial"",""time""
""focus"",""1"",""17833""
""blur"",""5"",""28364""
""focus"",""5"",""30833""
""fullscreenenter"",""5"",""31688""
","""event"",""trial"",""time""
""blur"",""5"",""28364""
","""event"",""trial"",""time""
""focus"",""1"",""17833""
""focus"",""5"",""30833""
","""event"",""trial"",""time""
""fullscreenenter"",""5"",""31688""
","
",577.9350000011618,NA,49,NA,NA,3000,1,NA,NA,images/earth.jpg,images/tutrocket1,images/tutrocket2,null,images/tutrocket2,NA,1,practice,null,1,NA,NA,NA,sub150
d3-animate-choice,68,317204,0.0-61.0-1.2,TRUE,TRUE,TRUE,FALSE,"""event"",""trial"",""time""
""focus"",""1"",""17833""
""blur"",""5"",""28364""
""focus"",""5"",""30833""
""fullscreenenter"",""5"",""31688""
","""event"",""trial"",""time""
""blur"",""5"",""28364""
","""event"",""trial"",""time""
""focus"",""1"",""17833""
""focus"",""5"",""30833""
","""event"",""trial"",""time""
""fullscreenenter"",""5"",""31688""
","
",648.7800000031712,NA,49,NA,NA,3000,1,NA,NA,images/tutyellowplanet.jpg,images/tutalien4,images/tutalien3,images/tutrocket2,images/tutalien3,images/nothing.png,2,practice,true,1,common,0,2020-07-04T14:53:26Z,sub150
two-step-fixation,69,318209,0.0-61.0-2.2,TRUE,TRUE,TRUE,FALSE,"""event"",""trial"",""time""
""focus"",""1"",""17833""
""blur"",""5"",""28364""
""focus"",""5"",""30833""
""fullscreenenter"",""5"",""31688""
","""event"",""trial"",""time""
""blur"",""5"",""28364""
","""event"",""trial"",""time""
""focus"",""1"",""17833""
""focus"",""5"",""30833""
","""event"",""trial"",""time""
""fullscreenenter"",""5"",""31688""
","
",NA,images/earth.jpg,NA,NA,NA,NA,NA,NA,NA,NA,NA,NA,NA,NA,NA,fixation,NA,NA,NA,NA,NA,NA,sub150
d3-animate-choice,70,320690,0.0-61.0-0.3,TRUE,TRUE,TRUE,FALSE,"""event"",""trial"",""time""
""focus"",""1"",""17833""
""blur"",""5"",""28364""
""focus"",""5"",""30833""
""fullscreenenter"",""5"",""31688""
","""event"",""trial"",""time""
""blur"",""5"",""28364""
","""event"",""trial"",""time""
""focus"",""1"",""17833""
""focus"",""5"",""30833""
","""event"",""trial"",""time""
""fullscreenenter"",""5"",""31688""
","
",474.80499999801395,NA,48,NA,NA,3000,1,NA,NA,images/earth.jpg,images/tutrocket1,images/tutrocket2,null,images/tutrocket1,NA,1,practice,null,2,NA,NA,NA,sub150
d3-animate-choice,71,323295,0.0-61.0-1.3,TRUE,TRUE,TRUE,FALSE,"""event"",""trial"",""time""
""focus"",""1"",""17833""
""blur"",""5"",""28364""
""focus"",""5"",""30833""
""fullscreenenter"",""5"",""31688""
","""event"",""trial"",""time""
""blur"",""5"",""28364""
","""event"",""trial"",""time""
""focus"",""1"",""17833""
""focus"",""5"",""30833""
","""event"",""trial"",""time""
""fullscreenenter"",""5"",""31688""
","
",600.9399999966263,NA,49,NA,NA,3000,1,NA,NA,images/tutgreenplanet.jpg,images/tutalien2,images/tutalien1,images/tutrocket1,images/tutalien1,images/nothing.png,2,practice,true,1,common,0,2020-07-04T14:53:32Z,sub150
two-step-fixation,72,324299,0.0-61.0-2.3,TRUE,TRUE,TRUE,FALSE,"""event"",""trial"",""time""
""focus"",""1"",""17833""
""blur"",""5"",""28364""
""focus"",""5"",""30833""
""fullscreenenter"",""5"",""31688""
","""event"",""trial"",""time""
""blur"",""5"",""28364""
","""event"",""trial"",""time""
""focus"",""1"",""17833""
""focus"",""5"",""30833""
","""event"",""trial"",""time""
""fullscreenenter"",""5"",""31688""
","
",NA,images/earth.jpg,NA,NA,NA,NA,NA,NA,NA,NA,NA,NA,NA,NA,NA,fixation,NA,NA,NA,NA,NA,NA,sub150
d3-animate-choice,73,327334,0.0-61.0-0.4,TRUE,TRUE,TRUE,FALSE,"""event"",""trial"",""time""
""focus"",""1"",""17833""
""blur"",""5"",""28364""
""focus"",""5"",""30833""
""fullscreenenter"",""5"",""31688""
","""event"",""trial"",""time""
""blur"",""5"",""28364""
","""event"",""trial"",""time""
""focus"",""1"",""17833""
""focus"",""5"",""30833""
","""event"",""trial"",""time""
""fullscreenenter"",""5"",""31688""
","
",1032.099999996717,NA,48,NA,NA,3000,1,NA,NA,images/earth.jpg,images/tutrocket1,images/tutrocket2,null,images/tutrocket1,NA,1,practice,null,2,NA,NA,NA,sub150
d3-animate-choice,74,330001,0.0-61.0-1.4,TRUE,TRUE,TRUE,FALSE,"""event"",""trial"",""time""
""focus"",""1"",""17833""
""blur"",""5"",""28364""
""focus"",""5"",""30833""
""fullscreenenter"",""5"",""31688""
","""event"",""trial"",""time""
""blur"",""5"",""28364""
","""event"",""trial"",""time""
""focus"",""1"",""17833""
""focus"",""5"",""30833""
","""event"",""trial"",""time""
""fullscreenenter"",""5"",""31688""
","
",664.1950000048382,NA,48,NA,NA,3000,1,NA,NA,images/tutgreenplanet.jpg,images/tutalien2,images/tutalien1,images/tutrocket1,images/tutalien2,images/nothing.png,2,practice,true,2,common,0,2020-07-04T14:53:39Z,sub150
two-step-fixation,75,331010,0.0-61.0-2.4,TRUE,TRUE,TRUE,FALSE,"""event"",""trial"",""time""
""focus"",""1"",""17833""
""blur"",""5"",""28364""
""focus"",""5"",""30833""
""fullscreenenter"",""5"",""31688""
","""event"",""trial"",""time""
""blur"",""5"",""28364""
","""event"",""trial"",""time""
""focus"",""1"",""17833""
""focus"",""5"",""30833""
","""event"",""trial"",""time""
""fullscreenenter"",""5"",""31688""
","
",NA,images/earth.jpg,NA,NA,NA,NA,NA,NA,NA,NA,NA,NA,NA,NA,NA,fixation,NA,NA,NA,NA,NA,NA,sub150
d3-animate-choice,76,333300,0.0-61.0-0.5,TRUE,TRUE,TRUE,FALSE,"""event"",""trial"",""time""
""focus"",""1"",""17833""
""blur"",""5"",""28364""
""focus"",""5"",""30833""
""fullscreenenter"",""5"",""31688""
","""event"",""trial"",""time""
""blur"",""5"",""28364""
","""event"",""trial"",""time""
""focus"",""1"",""17833""
""focus"",""5"",""30833""
","""event"",""trial"",""time""
""fullscreenenter"",""5"",""31688""
","
",282.01999999873806,NA,48,NA,NA,3000,1,NA,NA,images/earth.jpg,images/tutrocket1,images/tutrocket2,null,images/tutrocket1,NA,1,practice,null,2,NA,NA,NA,sub150
d3-animate-choice,77,335692,0.0-61.0-1.5,TRUE,TRUE,TRUE,FALSE,"""event"",""trial"",""time""
""focus"",""1"",""17833""
""blur"",""5"",""28364""
""focus"",""5"",""30833""
""fullscreenenter"",""5"",""31688""
","""event"",""trial"",""time""
""blur"",""5"",""28364""
","""event"",""trial"",""time""
""focus"",""1"",""17833""
""focus"",""5"",""30833""
","""event"",""trial"",""time""
""fullscreenenter"",""5"",""31688""
","
",385.98500000080094,NA,48,NA,NA,3000,1,NA,NA,images/tutgreenplanet.jpg,images/tutalien2,images/tutalien1,images/tutrocket1,images/tutalien2,images/nothing.png,2,practice,true,2,common,0,2020-07-04T14:53:44Z,sub150
two-step-fixation,78,336697,0.0-61.0-2.5,TRUE,TRUE,TRUE,FALSE,"""event"",""trial"",""time""
""focus"",""1"",""17833""
""blur"",""5"",""28364""
""focus"",""5"",""30833""
""fullscreenenter"",""5"",""31688""
","""event"",""trial"",""time""
""blur"",""5"",""28364""
","""event"",""trial"",""time""
""focus"",""1"",""17833""
""focus"",""5"",""30833""
","""event"",""trial"",""time""
""fullscreenenter"",""5"",""31688""
","
",NA,images/earth.jpg,NA,NA,NA,NA,NA,NA,NA,NA,NA,NA,NA,NA,NA,fixation,NA,NA,NA,NA,NA,NA,sub150
d3-animate-choice,79,338734,0.0-61.0-0.6,TRUE,TRUE,TRUE,FALSE,"""event"",""trial"",""time""
""focus"",""1"",""17833""
""blur"",""5"",""28364""
""focus"",""5"",""30833""
""fullscreenenter"",""5"",""31688""
","""event"",""trial"",""time""
""blur"",""5"",""28364""
","""event"",""trial"",""time""
""focus"",""1"",""17833""
""focus"",""5"",""30833""
","""event"",""trial"",""time""
""fullscreenenter"",""5"",""31688""
","
",34.31500000442611,NA,49,NA,NA,3000,1,NA,NA,images/earth.jpg,images/tutrocket1,images/tutrocket2,null,images/tutrocket2,NA,1,practice,null,1,NA,NA,NA,sub150
d3-animate-choice,80,341090,0.0-61.0-1.6,TRUE,TRUE,TRUE,FALSE,"""event"",""trial"",""time""
""focus"",""1"",""17833""
""blur"",""5"",""28364""
""focus"",""5"",""30833""
""fullscreenenter"",""5"",""31688""
","""event"",""trial"",""time""
""blur"",""5"",""28364""
","""event"",""trial"",""time""
""focus"",""1"",""17833""
""focus"",""5"",""30833""
","""event"",""trial"",""time""
""fullscreenenter"",""5"",""31688""
","
",352.96999999991385,NA,49,NA,NA,3000,1,NA,NA,images/tutyellowplanet.jpg,images/tutalien4,images/tutalien3,images/tutrocket2,images/tutalien3,images/t.png,2,practice,true,1,common,1,2020-07-04T14:53:50Z,sub150
two-step-fixation,81,342098,0.0-61.0-2.6,TRUE,TRUE,TRUE,FALSE,"""event"",""trial"",""time""
""focus"",""1"",""17833""
""blur"",""5"",""28364""
""focus"",""5"",""30833""
""fullscreenenter"",""5"",""31688""
","""event"",""trial"",""time""
""blur"",""5"",""28364""
","""event"",""trial"",""time""
""focus"",""1"",""17833""
""focus"",""5"",""30833""
","""event"",""trial"",""time""
""fullscreenenter"",""5"",""31688""
","
",NA,images/earth.jpg,NA,NA,NA,NA,NA,NA,NA,NA,NA,NA,NA,NA,NA,fixation,NA,NA,NA,NA,NA,NA,sub150
d3-animate-choice,82,344369,0.0-61.0-0.7,TRUE,TRUE,TRUE,FALSE,"""event"",""trial"",""time""
""focus"",""1"",""17833""
""blur"",""5"",""28364""
""focus"",""5"",""30833""
""fullscreenenter"",""5"",""31688""
","""event"",""trial"",""time""
""blur"",""5"",""28364""
","""event"",""trial"",""time""
""focus"",""1"",""17833""
""focus"",""5"",""30833""
","""event"",""trial"",""time""
""fullscreenenter"",""5"",""31688""
","
",265.65999999729684,NA,49,NA,NA,3000,1,NA,NA,images/earth.jpg,images/tutrocket1,images/tutrocket2,null,images/tutrocket2,NA,1,practice,null,1,NA,NA,NA,sub150
d3-animate-choice,83,346856,0.0-61.0-1.7,TRUE,TRUE,TRUE,FALSE,"""event"",""trial"",""time""
""focus"",""1"",""17833""
""blur"",""5"",""28364""
""focus"",""5"",""30833""
""fullscreenenter"",""5"",""31688""
","""event"",""trial"",""time""
""blur"",""5"",""28364""
","""event"",""trial"",""time""
""focus"",""1"",""17833""
""focus"",""5"",""30833""
","""event"",""trial"",""time""
""fullscreenenter"",""5"",""31688""
","
",482.8750000015134,NA,48,NA,NA,3000,1,NA,NA,images/tutyellowplanet.jpg,images/tutalien4,images/tutalien3,images/tutrocket2,images/tutalien4,images/t.png,2,practice,true,2,common,1,2020-07-04T14:53:56Z,sub150
two-step-fixation,84,347861,0.0-61.0-2.7,TRUE,TRUE,TRUE,FALSE,"""event"",""trial"",""time""
""focus"",""1"",""17833""
""blur"",""5"",""28364""
""focus"",""5"",""30833""
""fullscreenenter"",""5"",""31688""
","""event"",""trial"",""time""
""blur"",""5"",""28364""
","""event"",""trial"",""time""
""focus"",""1"",""17833""
""focus"",""5"",""30833""
","""event"",""trial"",""time""
""fullscreenenter"",""5"",""31688""
","
",NA,images/earth.jpg,NA,NA,NA,NA,NA,NA,NA,NA,NA,NA,NA,NA,NA,fixation,NA,NA,NA,NA,NA,NA,sub150
d3-animate-choice,85,350123,0.0-61.0-0.8,TRUE,TRUE,TRUE,FALSE,"""event"",""trial"",""time""
""focus"",""1"",""17833""
""blur"",""5"",""28364""
""focus"",""5"",""30833""
""fullscreenenter"",""5"",""31688""
","""event"",""trial"",""time""
""blur"",""5"",""28364""
","""event"",""trial"",""time""
""focus"",""1"",""17833""
""focus"",""5"",""30833""
","""event"",""trial"",""time""
""fullscreenenter"",""5"",""31688""
","
",254.43499999528285,NA,49,NA,NA,3000,1,NA,NA,images/earth.jpg,images/tutrocket1,images/tutrocket2,null,images/tutrocket2,NA,1,practice,null,1,NA,NA,NA,sub150
d3-animate-choice,86,352499,0.0-61.0-1.8,TRUE,TRUE,TRUE,FALSE,"""event"",""trial"",""time""
""focus"",""1"",""17833""
""blur"",""5"",""28364""
""focus"",""5"",""30833""
""fullscreenenter"",""5"",""31688""
","""event"",""trial"",""time""
""blur"",""5"",""28364""
","""event"",""trial"",""time""
""focus"",""1"",""17833""
""focus"",""5"",""30833""
","""event"",""trial"",""time""
""fullscreenenter"",""5"",""31688""
","
",368.7950000021374,NA,48,NA,NA,3000,1,NA,NA,images/tutgreenplanet.jpg,images/tutalien2,images/tutalien1,images/tutrocket2,images/tutalien2,images/nothing.png,2,practice,false,2,rare,0,2020-07-04T14:54:01Z,sub150
two-step-fixation,87,353504,0.0-61.0-2.8,TRUE,TRUE,TRUE,FALSE,"""event"",""trial"",""time""
""focus"",""1"",""17833""
""blur"",""5"",""28364""
""focus"",""5"",""30833""
""fullscreenenter"",""5"",""31688""
","""event"",""trial"",""time""
""blur"",""5"",""28364""
","""event"",""trial"",""time""
""focus"",""1"",""17833""
""focus"",""5"",""30833""
","""event"",""trial"",""time""
""fullscreenenter"",""5"",""31688""
","
",NA,images/earth.jpg,NA,NA,NA,NA,NA,NA,NA,NA,NA,NA,NA,NA,NA,fixation,NA,NA,NA,NA,NA,NA,sub150
d3-animate-choice,88,355877,0.0-61.0-0.9,TRUE,TRUE,TRUE,FALSE,"""event"",""trial"",""time""
""focus"",""1"",""17833""
""blur"",""5"",""28364""
""focus"",""5"",""30833""
""fullscreenenter"",""5"",""31688""
","""event"",""trial"",""time""
""blur"",""5"",""28364""
","""event"",""trial"",""time""
""focus"",""1"",""17833""
""focus"",""5"",""30833""
","""event"",""trial"",""time""
""fullscreenenter"",""5"",""31688""
","
",368.2849999968312,NA,49,NA,NA,3000,1,NA,NA,images/earth.jpg,images/tutrocket1,images/tutrocket2,null,images/tutrocket2,NA,1,practice,null,1,NA,NA,NA,sub150
d3-animate-choice,89,358329,0.0-61.0-1.9,TRUE,TRUE,TRUE,FALSE,"""event"",""trial"",""time""
""focus"",""1"",""17833""
""blur"",""5"",""28364""
""focus"",""5"",""30833""
""fullscreenenter"",""5"",""31688""
","""event"",""trial"",""time""
""blur"",""5"",""28364""
","""event"",""trial"",""time""
""focus"",""1"",""17833""
""focus"",""5"",""30833""
","""event"",""trial"",""time""
""fullscreenenter"",""5"",""31688""
","
",446.75000000279397,NA,48,NA,NA,3000,1,NA,NA,images/tutyellowplanet.jpg,images/tutalien4,images/tutalien3,images/tutrocket2,images/tutalien4,images/t.png,2,practice,true,2,common,1,2020-07-04T14:54:07Z,sub150
two-step-fixation,90,359337,0.0-61.0-2.9,TRUE,TRUE,TRUE,FALSE,"""event"",""trial"",""time""
""focus"",""1"",""17833""
""blur"",""5"",""28364""
""focus"",""5"",""30833""
""fullscreenenter"",""5"",""31688""
","""event"",""trial"",""time""
""blur"",""5"",""28364""
","""event"",""trial"",""time""
""focus"",""1"",""17833""
""focus"",""5"",""30833""
","""event"",""trial"",""time""
""fullscreenenter"",""5"",""31688""
","
",NA,images/earth.jpg,NA,NA,NA,NA,NA,NA,NA,NA,NA,NA,NA,NA,NA,fixation,NA,NA,NA,NA,NA,NA,sub150
d3-animate-choice,91,361675,0.0-61.0-0.10,TRUE,TRUE,TRUE,FALSE,"""event"",""trial"",""time""
""focus"",""1"",""17833""
""blur"",""5"",""28364""
""focus"",""5"",""30833""
""fullscreenenter"",""5"",""31688""
","""event"",""trial"",""time""
""blur"",""5"",""28364""
","""event"",""trial"",""time""
""focus"",""1"",""17833""
""focus"",""5"",""30833""
","""event"",""trial"",""time""
""fullscreenenter"",""5"",""31688""
","
",333.6249999993015,NA,49,NA,NA,3000,1,NA,NA,images/earth.jpg,images/tutrocket1,images/tutrocket2,null,images/tutrocket2,NA,1,practice,null,1,NA,NA,NA,sub150
d3-animate-choice,92,364007,0.0-61.0-1.10,TRUE,TRUE,TRUE,FALSE,"""event"",""trial"",""time""
""focus"",""1"",""17833""
""blur"",""5"",""28364""
""focus"",""5"",""30833""
""fullscreenenter"",""5"",""31688""
","""event"",""trial"",""time""
""blur"",""5"",""28364""
","""event"",""trial"",""time""
""focus"",""1"",""17833""
""focus"",""5"",""30833""
","""event"",""trial"",""time""
""fullscreenenter"",""5"",""31688""
","
",329.10500000434695,NA,48,NA,NA,3000,1,NA,NA,images/tutyellowplanet.jpg,images/tutalien4,images/tutalien3,images/tutrocket2,images/tutalien4,images/t.png,2,practice,true,2,common,1,2020-07-04T14:54:13Z,sub150
two-step-fixation,93,365015,0.0-61.0-2.10,TRUE,TRUE,TRUE,FALSE,"""event"",""trial"",""time""
""focus"",""1"",""17833""
""blur"",""5"",""28364""
""focus"",""5"",""30833""
""fullscreenenter"",""5"",""31688""
","""event"",""trial"",""time""
""blur"",""5"",""28364""
","""event"",""trial"",""time""
""focus"",""1"",""17833""
""focus"",""5"",""30833""
","""event"",""trial"",""time""
""fullscreenenter"",""5"",""31688""
","
",NA,images/earth.jpg,NA,NA,NA,NA,NA,NA,NA,NA,NA,NA,NA,NA,NA,fixation,NA,NA,NA,NA,NA,NA,sub150
d3-animate-choice,94,367340,0.0-61.0-0.11,TRUE,TRUE,TRUE,FALSE,"""event"",""trial"",""time""
""focus"",""1"",""17833""
""blur"",""5"",""28364""
""focus"",""5"",""30833""
""fullscreenenter"",""5"",""31688""
","""event"",""trial"",""time""
""blur"",""5"",""28364""
","""event"",""trial"",""time""
""focus"",""1"",""17833""
""focus"",""5"",""30833""
","""event"",""trial"",""time""
""fullscreenenter"",""5"",""31688""
","
",318.8899999950081,NA,49,NA,NA,3000,1,NA,NA,images/earth.jpg,images/tutrocket1,images/tutrocket2,null,images/tutrocket2,NA,1,practice,null,1,NA,NA,NA,sub150
d3-animate-choice,95,369680,0.0-61.0-1.11,TRUE,TRUE,TRUE,FALSE,"""event"",""trial"",""time""
""focus"",""1"",""17833""
""blur"",""5"",""28364""
""focus"",""5"",""30833""
""fullscreenenter"",""5"",""31688""
","""event"",""trial"",""time""
""blur"",""5"",""28364""
","""event"",""trial"",""time""
""focus"",""1"",""17833""
""focus"",""5"",""30833""
","""event"",""trial"",""time""
""fullscreenenter"",""5"",""31688""
","
",335.254999998142,NA,48,NA,NA,3000,1,NA,NA,images/tutyellowplanet.jpg,images/tutalien4,images/tutalien3,images/tutrocket2,images/tutalien4,images/nothing.png,2,practice,true,2,common,0,2020-07-04T14:54:18Z,sub150
two-step-fixation,96,370685,0.0-61.0-2.11,TRUE,TRUE,TRUE,FALSE,"""event"",""trial"",""time""
""focus"",""1"",""17833""
""blur"",""5"",""28364""
""focus"",""5"",""30833""
""fullscreenenter"",""5"",""31688""
","""event"",""trial"",""time""
""blur"",""5"",""28364""
","""event"",""trial"",""time""
""focus"",""1"",""17833""
""focus"",""5"",""30833""
","""event"",""trial"",""time""
""fullscreenenter"",""5"",""31688""
","
",NA,images/earth.jpg,NA,NA,NA,NA,NA,NA,NA,NA,NA,NA,NA,NA,NA,fixation,NA,NA,NA,NA,NA,NA,sub150
d3-animate-choice,97,372786,0.0-61.0-0.12,TRUE,TRUE,TRUE,FALSE,"""event"",""trial"",""time""
""focus"",""1"",""17833""
""blur"",""5"",""28364""
""focus"",""5"",""30833""
""fullscreenenter"",""5"",""31688""
","""event"",""trial"",""time""
""blur"",""5"",""28364""
","""event"",""trial"",""time""
""focus"",""1"",""17833""
""focus"",""5"",""30833""
","""event"",""trial"",""time""
""fullscreenenter"",""5"",""31688""
","
",94.94500000437256,NA,49,NA,NA,3000,1,NA,NA,images/earth.jpg,images/tutrocket1,images/tutrocket2,null,images/tutrocket2,NA,1,practice,null,1,NA,NA,NA,sub150
d3-animate-choice,98,375472,0.0-61.0-1.12,TRUE,TRUE,TRUE,FALSE,"""event"",""trial"",""time""
""focus"",""1"",""17833""
""blur"",""5"",""28364""
""focus"",""5"",""30833""
""fullscreenenter"",""5"",""31688""
","""event"",""trial"",""time""
""blur"",""5"",""28364""
","""event"",""trial"",""time""
""focus"",""1"",""17833""
""focus"",""5"",""30833""
","""event"",""trial"",""time""
""fullscreenenter"",""5"",""31688""
","
",682.1099999942817,NA,48,NA,NA,3000,1,NA,NA,images/tutgreenplanet.jpg,images/tutalien2,images/tutalien1,images/tutrocket2,images/tutalien2,images/nothing.png,2,practice,false,2,rare,0,2020-07-04T14:54:24Z,sub150
two-step-fixation,99,376476,0.0-61.0-2.12,TRUE,TRUE,TRUE,FALSE,"""event"",""trial"",""time""
""focus"",""1"",""17833""
""blur"",""5"",""28364""
""focus"",""5"",""30833""
""fullscreenenter"",""5"",""31688""
","""event"",""trial"",""time""
""blur"",""5"",""28364""
","""event"",""trial"",""time""
""focus"",""1"",""17833""
""focus"",""5"",""30833""
","""event"",""trial"",""time""
""fullscreenenter"",""5"",""31688""
","
",NA,images/earth.jpg,NA,NA,NA,NA,NA,NA,NA,NA,NA,NA,NA,NA,NA,fixation,NA,NA,NA,NA,NA,NA,sub150
d3-animate-choice,100,378814,0.0-61.0-0.13,TRUE,TRUE,TRUE,FALSE,"""event"",""trial"",""time""
""focus"",""1"",""17833""
""blur"",""5"",""28364""
""focus"",""5"",""30833""
""fullscreenenter"",""5"",""31688""
","""event"",""trial"",""time""
""blur"",""5"",""28364""
","""event"",""trial"",""time""
""focus"",""1"",""17833""
""focus"",""5"",""30833""
","""event"",""trial"",""time""
""fullscreenenter"",""5"",""31688""
","
",331.35500000207685,NA,49,NA,NA,3000,1,NA,NA,images/earth.jpg,images/tutrocket1,images/tutrocket2,null,images/tutrocket2,NA,1,practice,null,1,NA,NA,NA,sub150
d3-animate-choice,101,381514,0.0-61.0-1.13,TRUE,TRUE,TRUE,FALSE,"""event"",""trial"",""time""
""focus"",""1"",""17833""
""blur"",""5"",""28364""
""focus"",""5"",""30833""
""fullscreenenter"",""5"",""31688""
","""event"",""trial"",""time""
""blur"",""5"",""28364""
","""event"",""trial"",""time""
""focus"",""1"",""17833""
""focus"",""5"",""30833""
","""event"",""trial"",""time""
""fullscreenenter"",""5"",""31688""
","
",693.5250000024098,NA,48,NA,NA,3000,1,NA,NA,images/tutyellowplanet.jpg,images/tutalien4,images/tutalien3,images/tutrocket2,images/tutalien4,images/t.png,2,practice,true,2,common,1,2020-07-04T14:54:30Z,sub150
two-step-fixation,102,382520,0.0-61.0-2.13,TRUE,TRUE,TRUE,FALSE,"""event"",""trial"",""time""
""focus"",""1"",""17833""
""blur"",""5"",""28364""
""focus"",""5"",""30833""
""fullscreenenter"",""5"",""31688""
","""event"",""trial"",""time""
""blur"",""5"",""28364""
","""event"",""trial"",""time""
""focus"",""1"",""17833""
""focus"",""5"",""30833""
","""event"",""trial"",""time""
""fullscreenenter"",""5"",""31688""
","
",NA,images/earth.jpg,NA,NA,NA,NA,NA,NA,NA,NA,NA,NA,NA,NA,NA,fixation,NA,NA,NA,NA,NA,NA,sub150
d3-animate-choice,103,384663,0.0-61.0-0.14,TRUE,TRUE,TRUE,FALSE,"""event"",""trial"",""time""
""focus"",""1"",""17833""
""blur"",""5"",""28364""
""focus"",""5"",""30833""
""fullscreenenter"",""5"",""31688""
","""event"",""trial"",""time""
""blur"",""5"",""28364""
","""event"",""trial"",""time""
""focus"",""1"",""17833""
""focus"",""5"",""30833""
","""event"",""trial"",""time""
""fullscreenenter"",""5"",""31688""
","
",139.36500000272645,NA,49,NA,NA,3000,1,NA,NA,images/earth.jpg,images/tutrocket1,images/tutrocket2,null,images/tutrocket2,NA,1,practice,null,1,NA,NA,NA,sub150
d3-animate-choice,104,387234,0.0-61.0-1.14,TRUE,TRUE,TRUE,FALSE,"""event"",""trial"",""time""
""focus"",""1"",""17833""
""blur"",""5"",""28364""
""focus"",""5"",""30833""
""fullscreenenter"",""5"",""31688""
","""event"",""trial"",""time""
""blur"",""5"",""28364""
","""event"",""trial"",""time""
""focus"",""1"",""17833""
""focus"",""5"",""30833""
","""event"",""trial"",""time""
""fullscreenenter"",""5"",""31688""
","
",565.1149999976042,NA,48,NA,NA,3000,1,NA,NA,images/tutyellowplanet.jpg,images/tutalien4,images/tutalien3,images/tutrocket2,images/tutalien4,images/nothing.png,2,practice,true,2,common,0,2020-07-04T14:54:36Z,sub150
two-step-fixation,105,388237,0.0-61.0-2.14,TRUE,TRUE,TRUE,FALSE,"""event"",""trial"",""time""
""focus"",""1"",""17833""
""blur"",""5"",""28364""
""focus"",""5"",""30833""
""fullscreenenter"",""5"",""31688""
","""event"",""trial"",""time""
""blur"",""5"",""28364""
","""event"",""trial"",""time""
""focus"",""1"",""17833""
""focus"",""5"",""30833""
","""event"",""trial"",""time""
""fullscreenenter"",""5"",""31688""
","
",NA,images/earth.jpg,NA,NA,NA,NA,NA,NA,NA,NA,NA,NA,NA,NA,NA,fixation,NA,NA,NA,NA,NA,NA,sub150
d3-animate-choice,106,390488,0.0-61.0-0.15,TRUE,TRUE,TRUE,FALSE,"""event"",""trial"",""time""
""focus"",""1"",""17833""
""blur"",""5"",""28364""
""focus"",""5"",""30833""
""fullscreenenter"",""5"",""31688""
","""event"",""trial"",""time""
""blur"",""5"",""28364""
","""event"",""trial"",""time""
""focus"",""1"",""17833""
""focus"",""5"",""30833""
","""event"",""trial"",""time""
""fullscreenenter"",""5"",""31688""
","
",246.42000000312692,NA,48,NA,NA,3000,1,NA,NA,images/earth.jpg,images/tutrocket1,images/tutrocket2,null,images/tutrocket1,NA,1,practice,null,2,NA,NA,NA,sub150
d3-animate-choice,107,392801,0.0-61.0-1.15,TRUE,TRUE,TRUE,FALSE,"""event"",""trial"",""time""
""focus"",""1"",""17833""
""blur"",""5"",""28364""
""focus"",""5"",""30833""
""fullscreenenter"",""5"",""31688""
","""event"",""trial"",""time""
""blur"",""5"",""28364""
","""event"",""trial"",""time""
""focus"",""1"",""17833""
""focus"",""5"",""30833""
","""event"",""trial"",""time""
""fullscreenenter"",""5"",""31688""
","
",308.3000000042375,NA,49,NA,NA,3000,1,NA,NA,images/tutgreenplanet.jpg,images/tutalien2,images/tutalien1,images/tutrocket1,images/tutalien1,images/nothing.png,2,practice,true,1,common,0,2020-07-04T14:54:42Z,sub150
two-step-fixation,108,393808,0.0-61.0-2.15,TRUE,TRUE,TRUE,FALSE,"""event"",""trial"",""time""
""focus"",""1"",""17833""
""blur"",""5"",""28364""
""focus"",""5"",""30833""
""fullscreenenter"",""5"",""31688""
","""event"",""trial"",""time""
""blur"",""5"",""28364""
","""event"",""trial"",""time""
""focus"",""1"",""17833""
""focus"",""5"",""30833""
","""event"",""trial"",""time""
""fullscreenenter"",""5"",""31688""
","
",NA,images/earth.jpg,NA,NA,NA,NA,NA,NA,NA,NA,NA,NA,NA,NA,NA,fixation,NA,NA,NA,NA,NA,NA,sub150
d3-animate-choice,109,395981,0.0-61.0-0.16,TRUE,TRUE,TRUE,FALSE,"""event"",""trial"",""time""
""focus"",""1"",""17833""
""blur"",""5"",""28364""
""focus"",""5"",""30833""
""fullscreenenter"",""5"",""31688""
","""event"",""trial"",""time""
""blur"",""5"",""28364""
","""event"",""trial"",""time""
""focus"",""1"",""17833""
""focus"",""5"",""30833""
","""event"",""trial"",""time""
""fullscreenenter"",""5"",""31688""
","
",167.7750000017113,NA,48,NA,NA,3000,1,NA,NA,images/earth.jpg,images/tutrocket1,images/tutrocket2,null,images/tutrocket1,NA,1,practice,null,2,NA,NA,NA,sub150
d3-animate-choice,110,398363,0.0-61.0-1.16,TRUE,TRUE,TRUE,FALSE,"""event"",""trial"",""time""
""focus"",""1"",""17833""
""blur"",""5"",""28364""
""focus"",""5"",""30833""
""fullscreenenter"",""5"",""31688""
","""event"",""trial"",""time""
""blur"",""5"",""28364""
","""event"",""trial"",""time""
""focus"",""1"",""17833""
""focus"",""5"",""30833""
","""event"",""trial"",""time""
""fullscreenenter"",""5"",""31688""
","
",375.0399999989895,NA,48,NA,NA,3000,1,NA,NA,images/tutgreenplanet.jpg,images/tutalien2,images/tutalien1,images/tutrocket1,images/tutalien2,images/nothing.png,2,practice,true,2,common,0,2020-07-04T14:54:47Z,sub150
two-step-fixation,111,399367,0.0-61.0-2.16,TRUE,TRUE,TRUE,FALSE,"""event"",""trial"",""time""
""focus"",""1"",""17833""
""blur"",""5"",""28364""
""focus"",""5"",""30833""
""fullscreenenter"",""5"",""31688""
","""event"",""trial"",""time""
""blur"",""5"",""28364""
","""event"",""trial"",""time""
""focus"",""1"",""17833""
""focus"",""5"",""30833""
","""event"",""trial"",""time""
""fullscreenenter"",""5"",""31688""
","
",NA,images/earth.jpg,NA,NA,NA,NA,NA,NA,NA,NA,NA,NA,NA,NA,NA,fixation,NA,NA,NA,NA,NA,NA,sub150
d3-animate-choice,112,401623,0.0-61.0-0.17,TRUE,TRUE,TRUE,FALSE,"""event"",""trial"",""time""
""focus"",""1"",""17833""
""blur"",""5"",""28364""
""focus"",""5"",""30833""
""fullscreenenter"",""5"",""31688""
","""event"",""trial"",""time""
""blur"",""5"",""28364""
","""event"",""trial"",""time""
""focus"",""1"",""17833""
""focus"",""5"",""30833""
","""event"",""trial"",""time""
""fullscreenenter"",""5"",""31688""
","
",253.0800000022282,NA,48,NA,NA,3000,1,NA,NA,images/earth.jpg,images/tutrocket1,images/tutrocket2,null,images/tutrocket1,NA,1,practice,null,2,NA,NA,NA,sub150
d3-animate-choice,113,403812,0.0-61.0-1.17,TRUE,TRUE,TRUE,FALSE,"""event"",""trial"",""time""
""focus"",""1"",""17833""
""blur"",""5"",""28364""
""focus"",""5"",""30833""
""fullscreenenter"",""5"",""31688""
","""event"",""trial"",""time""
""blur"",""5"",""28364""
","""event"",""trial"",""time""
""focus"",""1"",""17833""
""focus"",""5"",""30833""
","""event"",""trial"",""time""
""fullscreenenter"",""5"",""31688""
","
",181.06499999703374,NA,49,NA,NA,3000,1,463.595000001078,49,images/tutgreenplanet.jpg,images/tutalien2,images/tutalien1,images/tutrocket1,images/tutalien1,images/t.png,2,practice,true,1,common,1,2020-07-04T14:54:53Z,sub150
two-step-fixation,114,404816,0.0-61.0-2.17,TRUE,TRUE,TRUE,FALSE,"""event"",""trial"",""time""
""focus"",""1"",""17833""
""blur"",""5"",""28364""
""focus"",""5"",""30833""
""fullscreenenter"",""5"",""31688""
","""event"",""trial"",""time""
""blur"",""5"",""28364""
","""event"",""trial"",""time""
""focus"",""1"",""17833""
""focus"",""5"",""30833""
","""event"",""trial"",""time""
""fullscreenenter"",""5"",""31688""
","
",NA,images/earth.jpg,NA,NA,NA,NA,NA,NA,NA,NA,NA,NA,NA,NA,NA,fixation,NA,NA,NA,NA,NA,NA,sub150
d3-animate-choice,115,406984,0.0-61.0-0.18,TRUE,TRUE,TRUE,FALSE,"""event"",""trial"",""time""
""focus"",""1"",""17833""
""blur"",""5"",""28364""
""focus"",""5"",""30833""
""fullscreenenter"",""5"",""31688""
","""event"",""trial"",""time""
""blur"",""5"",""28364""
","""event"",""trial"",""time""
""focus"",""1"",""17833""
""focus"",""5"",""30833""
","""event"",""trial"",""time""
""fullscreenenter"",""5"",""31688""
","
",164.49000000284286,NA,48,NA,NA,3000,1,NA,NA,images/earth.jpg,images/tutrocket1,images/tutrocket2,null,images/tutrocket1,NA,1,practice,null,2,NA,NA,NA,sub150
d3-animate-choice,116,409330,0.0-61.0-1.18,TRUE,TRUE,TRUE,FALSE,"""event"",""trial"",""time""
""focus"",""1"",""17833""
""blur"",""5"",""28364""
""focus"",""5"",""30833""
""fullscreenenter"",""5"",""31688""
","""event"",""trial"",""time""
""blur"",""5"",""28364""
","""event"",""trial"",""time""
""focus"",""1"",""17833""
""focus"",""5"",""30833""
","""event"",""trial"",""time""
""fullscreenenter"",""5"",""31688""
","
",339.91499999683583,NA,49,NA,NA,3000,1,NA,NA,images/tutyellowplanet.jpg,images/tutalien4,images/tutalien3,images/tutrocket1,images/tutalien3,images/nothing.png,2,practice,false,1,rare,0,2020-07-04T14:54:58Z,sub150
two-step-fixation,117,410339,0.0-61.0-2.18,TRUE,TRUE,TRUE,FALSE,"""event"",""trial"",""time""
""focus"",""1"",""17833""
""blur"",""5"",""28364""
""focus"",""5"",""30833""
""fullscreenenter"",""5"",""31688""
","""event"",""trial"",""time""
""blur"",""5"",""28364""
","""event"",""trial"",""time""
""focus"",""1"",""17833""
""focus"",""5"",""30833""
","""event"",""trial"",""time""
""fullscreenenter"",""5"",""31688""
","
",NA,images/earth.jpg,NA,NA,NA,NA,NA,NA,NA,NA,NA,NA,NA,NA,NA,fixation,NA,NA,NA,NA,NA,NA,sub150
d3-animate-choice,118,412616,0.0-61.0-0.19,TRUE,TRUE,TRUE,FALSE,"""event"",""trial"",""time""
""focus"",""1"",""17833""
""blur"",""5"",""28364""
""focus"",""5"",""30833""
""fullscreenenter"",""5"",""31688""
","""event"",""trial"",""time""
""blur"",""5"",""28364""
","""event"",""trial"",""time""
""focus"",""1"",""17833""
""focus"",""5"",""30833""
","""event"",""trial"",""time""
""fullscreenenter"",""5"",""31688""
","
",273.3449999941513,NA,48,NA,NA,3000,1,NA,NA,images/earth.jpg,images/tutrocket1,images/tutrocket2,null,images/tutrocket1,NA,1,practice,null,2,NA,NA,NA,sub150
d3-animate-choice,119,415416,0.0-61.0-1.19,TRUE,TRUE,TRUE,FALSE,"""event"",""trial"",""time""
""focus"",""1"",""17833""
""blur"",""5"",""28364""
""focus"",""5"",""30833""
""fullscreenenter"",""5"",""31688""
","""event"",""trial"",""time""
""blur"",""5"",""28364""
","""event"",""trial"",""time""
""focus"",""1"",""17833""
""focus"",""5"",""30833""
","""event"",""trial"",""time""
""fullscreenenter"",""5"",""31688""
","
",796.3349999990896,NA,49,NA,NA,3000,1,NA,NA,images/tutgreenplanet.jpg,images/tutalien2,images/tutalien1,images/tutrocket1,images/tutalien1,images/nothing.png,2,practice,true,1,common,0,2020-07-04T14:55:04Z,sub150
two-step-fixation,120,416421,0.0-61.0-2.19,TRUE,TRUE,TRUE,FALSE,"""event"",""trial"",""time""
""focus"",""1"",""17833""
""blur"",""5"",""28364""
""focus"",""5"",""30833""
""fullscreenenter"",""5"",""31688""
","""event"",""trial"",""time""
""blur"",""5"",""28364""
","""event"",""trial"",""time""
""focus"",""1"",""17833""
""focus"",""5"",""30833""
","""event"",""trial"",""time""
""fullscreenenter"",""5"",""31688""
","
",NA,images/earth.jpg,NA,NA,NA,NA,NA,NA,NA,NA,NA,NA,NA,NA,NA,fixation,NA,NA,NA,NA,NA,NA,sub150
d3-instructions,121,438837,0.0-62.0,TRUE,TRUE,TRUE,FALSE,"""event"",""trial"",""time""
""focus"",""1"",""17833""
""blur"",""5"",""28364""
""focus"",""5"",""30833""
""fullscreenenter"",""5"",""31688""
","""event"",""trial"",""time""
""blur"",""5"",""28364""
","""event"",""trial"",""time""
""focus"",""1"",""17833""
""focus"",""5"",""30833""
","""event"",""trial"",""time""
""fullscreenenter"",""5"",""31688""
","
",NA,NA,NA,NA,NA,NA,NA,NA,NA,NA,NA,NA,NA,NA,NA,NA,NA,NA,NA,NA,NA,NA,sub150
audio-keyboard-response,122,443217,0.0-63.0,TRUE,TRUE,TRUE,FALSE,"""event"",""trial"",""time""
""focus"",""1"",""17833""
""blur"",""5"",""28364""
""focus"",""5"",""30833""
""fullscreenenter"",""5"",""31688""
","""event"",""trial"",""time""
""blur"",""5"",""28364""
","""event"",""trial"",""time""
""focus"",""1"",""17833""
""focus"",""5"",""30833""
","""event"",""trial"",""time""
""fullscreenenter"",""5"",""31688""
","
",4379,audio/instructions/treasure_feedback.wav,32,NA,NA,NA,NA,NA,NA,NA,NA,NA,NA,NA,NA,NA,NA,NA,NA,NA,NA,NA,sub150
d3-instructions,123,456094,0.0-64.0,TRUE,TRUE,TRUE,FALSE,"""event"",""trial"",""time""
""focus"",""1"",""17833""
""blur"",""5"",""28364""
""focus"",""5"",""30833""
""fullscreenenter"",""5"",""31688""
","""event"",""trial"",""time""
""blur"",""5"",""28364""
","""event"",""trial"",""time""
""focus"",""1"",""17833""
""focus"",""5"",""30833""
","""event"",""trial"",""time""
""fullscreenenter"",""5"",""31688""
","
",NA,NA,NA,NA,NA,NA,NA,NA,NA,NA,NA,NA,NA,NA,NA,NA,NA,NA,NA,NA,NA,NA,sub150
d3-instructions,124,463434,0.0-65.0,TRUE,TRUE,TRUE,FALSE,"""event"",""trial"",""time""
""focus"",""1"",""17833""
""blur"",""5"",""28364""
""focus"",""5"",""30833""
""fullscreenenter"",""5"",""31688""
","""event"",""trial"",""time""
""blur"",""5"",""28364""
","""event"",""trial"",""time""
""focus"",""1"",""17833""
""focus"",""5"",""30833""
","""event"",""trial"",""time""
""fullscreenenter"",""5"",""31688""
","
",NA,NA,NA,NA,NA,NA,NA,NA,NA,NA,NA,NA,NA,NA,NA,NA,NA,NA,NA,NA,NA,NA,sub150
d3-instructions,125,486038,0.0-66.0,TRUE,TRUE,TRUE,FALSE,"""event"",""trial"",""time""
""focus"",""1"",""17833""
""blur"",""5"",""28364""
""focus"",""5"",""30833""
""fullscreenenter"",""5"",""31688""
","""event"",""trial"",""time""
""blur"",""5"",""28364""
","""event"",""trial"",""time""
""focus"",""1"",""17833""
""focus"",""5"",""30833""
","""event"",""trial"",""time""
""fullscreenenter"",""5"",""31688""
","
",NA,NA,NA,NA,NA,NA,NA,NA,NA,NA,NA,NA,NA,NA,NA,NA,NA,NA,NA,NA,NA,NA,sub150
d3-instructions,126,529658,0.0-67.0,TRUE,TRUE,TRUE,FALSE,"""event"",""trial"",""time""
""focus"",""1"",""17833""
""blur"",""5"",""28364""
""focus"",""5"",""30833""
""fullscreenenter"",""5"",""31688""
","""event"",""trial"",""time""
""blur"",""5"",""28364""
","""event"",""trial"",""time""
""focus"",""1"",""17833""
""focus"",""5"",""30833""
","""event"",""trial"",""time""
""fullscreenenter"",""5"",""31688""
","
",NA,NA,NA,NA,NA,NA,NA,NA,NA,NA,NA,NA,NA,NA,NA,NA,NA,NA,NA,NA,NA,NA,sub150
d3-instructions,127,533767,0.0-68.0,TRUE,TRUE,TRUE,FALSE,"""event"",""trial"",""time""
""focus"",""1"",""17833""
""blur"",""5"",""28364""
""focus"",""5"",""30833""
""fullscreenenter"",""5"",""31688""
","""event"",""trial"",""time""
""blur"",""5"",""28364""
","""event"",""trial"",""time""
""focus"",""1"",""17833""
""focus"",""5"",""30833""
","""event"",""trial"",""time""
""fullscreenenter"",""5"",""31688""
","
",NA,NA,NA,NA,NA,NA,NA,NA,NA,NA,NA,NA,NA,NA,NA,NA,NA,NA,NA,NA,NA,NA,sub150
instructions-quiz,128,536231,0.0-69.0,TRUE,TRUE,TRUE,FALSE,"""event"",""trial"",""time""
""focus"",""1"",""17833""
""blur"",""5"",""28364""
""focus"",""5"",""30833""
""fullscreenenter"",""5"",""31688""
","""event"",""trial"",""time""
""blur"",""5"",""28364""
","""event"",""trial"",""time""
""focus"",""1"",""17833""
""focus"",""5"",""30833""
","""event"",""trial"",""time""
""fullscreenenter"",""5"",""31688""
","
",2462.715000001481,audio/quiz/Q1_Prompt.wav,NA,1,NA,NA,NA,NA,NA,NA,NA,NA,NA,NA,NA,NA,NA,NA,NA,NA,NA,NA,sub150
audio-keyboard-response,129,538194,0.0-70.0,TRUE,TRUE,TRUE,FALSE,"""event"",""trial"",""time""
""focus"",""1"",""17833""
""blur"",""5"",""28364""
""focus"",""5"",""30833""
""fullscreenenter"",""5"",""31688""
","""event"",""trial"",""time""
""blur"",""5"",""28364""
","""event"",""trial"",""time""
""focus"",""1"",""17833""
""focus"",""5"",""30833""
","""event"",""trial"",""time""
""fullscreenenter"",""5"",""31688""
","
",1957,audio/quiz/Q1_Correct.wav,32,NA,NA,NA,NA,NA,NA,NA,NA,NA,NA,NA,NA,NA,NA,NA,NA,NA,NA,NA,sub150
instructions-quiz,130,542974,0.0-71.0,TRUE,TRUE,TRUE,FALSE,"""event"",""trial"",""time""
""focus"",""1"",""17833""
""blur"",""5"",""28364""
""focus"",""5"",""30833""
""fullscreenenter"",""5"",""31688""
","""event"",""trial"",""time""
""blur"",""5"",""28364""
","""event"",""trial"",""time""
""focus"",""1"",""17833""
""focus"",""5"",""30833""
","""event"",""trial"",""time""
""fullscreenenter"",""5"",""31688""
","
",4778.8650000002235,audio/quiz/Q2_Prompt.wav,NA,0,NA,NA,NA,NA,NA,NA,NA,NA,NA,NA,NA,NA,NA,NA,NA,NA,NA,NA,sub150
audio-keyboard-response,131,543927,0.0-72.0,TRUE,TRUE,TRUE,FALSE,"""event"",""trial"",""time""
""focus"",""1"",""17833""
""blur"",""5"",""28364""
""focus"",""5"",""30833""
""fullscreenenter"",""5"",""31688""
","""event"",""trial"",""time""
""blur"",""5"",""28364""
","""event"",""trial"",""time""
""focus"",""1"",""17833""
""focus"",""5"",""30833""
","""event"",""trial"",""time""
""fullscreenenter"",""5"",""31688""
","
",955,audio/quiz/Q2_Correct.wav,32,NA,NA,NA,NA,NA,NA,NA,NA,NA,NA,NA,NA,NA,NA,NA,NA,NA,NA,NA,sub150
instructions-quiz,132,546214,0.0-73.0,TRUE,TRUE,TRUE,FALSE,"""event"",""trial"",""time""
""focus"",""1"",""17833""
""blur"",""5"",""28364""
""focus"",""5"",""30833""
""fullscreenenter"",""5"",""31688""
","""event"",""trial"",""time""
""blur"",""5"",""28364""
","""event"",""trial"",""time""
""focus"",""1"",""17833""
""focus"",""5"",""30833""
","""event"",""trial"",""time""
""fullscreenenter"",""5"",""31688""
","
",2286.225000003469,audio/quiz/Q3_Prompt.wav,NA,1,NA,NA,NA,NA,NA,NA,NA,NA,NA,NA,NA,NA,NA,NA,NA,NA,NA,NA,sub150
audio-keyboard-response,133,546890,0.0-74.0,TRUE,TRUE,TRUE,FALSE,"""event"",""trial"",""time""
""focus"",""1"",""17833""
""blur"",""5"",""28364""
""focus"",""5"",""30833""
""fullscreenenter"",""5"",""31688""
","""event"",""trial"",""time""
""blur"",""5"",""28364""
","""event"",""trial"",""time""
""focus"",""1"",""17833""
""focus"",""5"",""30833""
","""event"",""trial"",""time""
""fullscreenenter"",""5"",""31688""
","
",677,audio/quiz/Q3_Correct.wav,32,NA,NA,NA,NA,NA,NA,NA,NA,NA,NA,NA,NA,NA,NA,NA,NA,NA,NA,NA,sub150
d3-instructions,134,557511,0.0-75.0,TRUE,TRUE,TRUE,FALSE,"""event"",""trial"",""time""
""focus"",""1"",""17833""
""blur"",""5"",""28364""
""focus"",""5"",""30833""
""fullscreenenter"",""5"",""31688""
","""event"",""trial"",""time""
""blur"",""5"",""28364""
","""event"",""trial"",""time""
""focus"",""1"",""17833""
""focus"",""5"",""30833""
","""event"",""trial"",""time""
""fullscreenenter"",""5"",""31688""
","
",NA,NA,NA,NA,NA,NA,NA,NA,NA,NA,NA,NA,NA,NA,NA,NA,NA,NA,NA,NA,NA,NA,sub150
d3-animate-choice,135,561375,0.0-76.0-0.0,TRUE,TRUE,TRUE,FALSE,"""event"",""trial"",""time""
""focus"",""1"",""17833""
""blur"",""5"",""28364""
""focus"",""5"",""30833""
""fullscreenenter"",""5"",""31688""
","""event"",""trial"",""time""
""blur"",""5"",""28364""
","""event"",""trial"",""time""
""focus"",""1"",""17833""
""focus"",""5"",""30833""
","""event"",""trial"",""time""
""fullscreenenter"",""5"",""31688""
","
",1862.5299999985145,NA,48,NA,NA,3000,1,NA,NA,images/earth.jpg,images/rocket2,images/rocket1,null,images/rocket2,NA,1,real,null,2,NA,NA,NA,sub150
d3-animate-choice,136,564849,0.0-76.0-1.0,TRUE,TRUE,TRUE,FALSE,"""event"",""trial"",""time""
""focus"",""1"",""17833""
""blur"",""5"",""28364""
""focus"",""5"",""30833""
""fullscreenenter"",""5"",""31688""
","""event"",""trial"",""time""
""blur"",""5"",""28364""
","""event"",""trial"",""time""
""focus"",""1"",""17833""
""focus"",""5"",""30833""
","""event"",""trial"",""time""
""fullscreenenter"",""5"",""31688""
","
",1469.9499999987893,NA,49,NA,NA,3000,1,NA,NA,images/purpleplanet.jpg,images/alien4,images/alien3,images/rocket2,images/alien3,images/nothing.png,2,real,true,1,common,0,2020-07-04T14:57:34Z,sub150
two-step-fixation,137,565851,0.0-76.0-2.0,TRUE,TRUE,TRUE,FALSE,"""event"",""trial"",""time""
""focus"",""1"",""17833""
""blur"",""5"",""28364""
""focus"",""5"",""30833""
""fullscreenenter"",""5"",""31688""
","""event"",""trial"",""time""
""blur"",""5"",""28364""
","""event"",""trial"",""time""
""focus"",""1"",""17833""
""focus"",""5"",""30833""
","""event"",""trial"",""time""
""fullscreenenter"",""5"",""31688""
","
",NA,images/earth.jpg,NA,NA,NA,NA,NA,NA,NA,NA,NA,NA,NA,NA,NA,fixation,NA,NA,NA,NA,NA,NA,sub150
d3-animate-choice,138,568432,0.0-76.0-0.1,TRUE,TRUE,TRUE,FALSE,"""event"",""trial"",""time""
""focus"",""1"",""17833""
""blur"",""5"",""28364""
""focus"",""5"",""30833""
""fullscreenenter"",""5"",""31688""
","""event"",""trial"",""time""
""blur"",""5"",""28364""
","""event"",""trial"",""time""
""focus"",""1"",""17833""
""focus"",""5"",""30833""
","""event"",""trial"",""time""
""fullscreenenter"",""5"",""31688""
","
",577.6100000002189,NA,48,NA,NA,3000,1,NA,NA,images/earth.jpg,images/rocket2,images/rocket1,null,images/rocket2,NA,1,real,null,2,NA,NA,NA,sub150
d3-animate-choice,139,571086,0.0-76.0-1.1,TRUE,TRUE,TRUE,FALSE,"""event"",""trial"",""time""
""focus"",""1"",""17833""
""blur"",""5"",""28364""
""focus"",""5"",""30833""
""fullscreenenter"",""5"",""31688""
","""event"",""trial"",""time""
""blur"",""5"",""28364""
","""event"",""trial"",""time""
""focus"",""1"",""17833""
""focus"",""5"",""30833""
","""event"",""trial"",""time""
""fullscreenenter"",""5"",""31688""
","
",648.3299999963492,NA,48,NA,NA,3000,1,NA,NA,images/purpleplanet.jpg,images/alien4,images/alien3,images/rocket2,images/alien4,images/t.png,2,real,true,2,common,1,2020-07-04T14:57:40Z,sub150
two-step-fixation,140,572093,0.0-76.0-2.1,TRUE,TRUE,TRUE,FALSE,"""event"",""trial"",""time""
""focus"",""1"",""17833""
""blur"",""5"",""28364""
""focus"",""5"",""30833""
""fullscreenenter"",""5"",""31688""
","""event"",""trial"",""time""
""blur"",""5"",""28364""
","""event"",""trial"",""time""
""focus"",""1"",""17833""
""focus"",""5"",""30833""
","""event"",""trial"",""time""
""fullscreenenter"",""5"",""31688""
","
",NA,images/earth.jpg,NA,NA,NA,NA,NA,NA,NA,NA,NA,NA,NA,NA,NA,fixation,NA,NA,NA,NA,NA,NA,sub150
d3-animate-choice,141,574395,0.0-76.0-0.2,TRUE,TRUE,TRUE,FALSE,"""event"",""trial"",""time""
""focus"",""1"",""17833""
""blur"",""5"",""28364""
""focus"",""5"",""30833""
""fullscreenenter"",""5"",""31688""
","""event"",""trial"",""time""
""blur"",""5"",""28364""
","""event"",""trial"",""time""
""focus"",""1"",""17833""
""focus"",""5"",""30833""
","""event"",""trial"",""time""
""fullscreenenter"",""5"",""31688""
","
",296.5649999969173,NA,48,NA,NA,3000,1,NA,NA,images/earth.jpg,images/rocket2,images/rocket1,null,images/rocket2,NA,1,real,null,2,NA,NA,NA,sub150
d3-animate-choice,142,576772,0.0-76.0-1.2,TRUE,TRUE,TRUE,FALSE,"""event"",""trial"",""time""
""focus"",""1"",""17833""
""blur"",""5"",""28364""
""focus"",""5"",""30833""
""fullscreenenter"",""5"",""31688""
","""event"",""trial"",""time""
""blur"",""5"",""28364""
","""event"",""trial"",""time""
""focus"",""1"",""17833""
""focus"",""5"",""30833""
","""event"",""trial"",""time""
""fullscreenenter"",""5"",""31688""
","
",372.8350000018254,NA,48,NA,NA,3000,1,NA,NA,images/purpleplanet.jpg,images/alien4,images/alien3,images/rocket2,images/alien4,images/t.png,2,real,true,2,common,1,2020-07-04T14:57:46Z,sub150
two-step-fixation,143,577779,0.0-76.0-2.2,TRUE,TRUE,TRUE,FALSE,"""event"",""trial"",""time""
""focus"",""1"",""17833""
""blur"",""5"",""28364""
""focus"",""5"",""30833""
""fullscreenenter"",""5"",""31688""
","""event"",""trial"",""time""
""blur"",""5"",""28364""
","""event"",""trial"",""time""
""focus"",""1"",""17833""
""focus"",""5"",""30833""
","""event"",""trial"",""time""
""fullscreenenter"",""5"",""31688""
","
",NA,images/earth.jpg,NA,NA,NA,NA,NA,NA,NA,NA,NA,NA,NA,NA,NA,fixation,NA,NA,NA,NA,NA,NA,sub150
d3-animate-choice,144,580028,0.0-76.0-0.3,TRUE,TRUE,TRUE,FALSE,"""event"",""trial"",""time""
""focus"",""1"",""17833""
""blur"",""5"",""28364""
""focus"",""5"",""30833""
""fullscreenenter"",""5"",""31688""
","""event"",""trial"",""time""
""blur"",""5"",""28364""
","""event"",""trial"",""time""
""focus"",""1"",""17833""
""focus"",""5"",""30833""
","""event"",""trial"",""time""
""fullscreenenter"",""5"",""31688""
","
",244.64499999885447,NA,48,NA,NA,3000,1,NA,NA,images/earth.jpg,images/rocket2,images/rocket1,null,images/rocket2,NA,1,real,null,2,NA,NA,NA,sub150
d3-animate-choice,145,583138,0.0-76.0-1.3,TRUE,TRUE,TRUE,FALSE,"""event"",""trial"",""time""
""focus"",""1"",""17833""
""blur"",""5"",""28364""
""focus"",""5"",""30833""
""fullscreenenter"",""5"",""31688""
","""event"",""trial"",""time""
""blur"",""5"",""28364""
","""event"",""trial"",""time""
""focus"",""1"",""17833""
""focus"",""5"",""30833""
","""event"",""trial"",""time""
""fullscreenenter"",""5"",""31688""
","
",1106.6300000019837,NA,49,NA,NA,3000,1,NA,NA,images/redplanet1.jpg,images/alien2,images/alien1,images/rocket2,images/alien1,images/t.png,2,real,false,1,rare,1,2020-07-04T14:57:52Z,sub150
two-step-fixation,146,584142,0.0-76.0-2.3,TRUE,TRUE,TRUE,FALSE,"""event"",""trial"",""time""
""focus"",""1"",""17833""
""blur"",""5"",""28364""
""focus"",""5"",""30833""
""fullscreenenter"",""5"",""31688""
","""event"",""trial"",""time""
""blur"",""5"",""28364""
","""event"",""trial"",""time""
""focus"",""1"",""17833""
""focus"",""5"",""30833""
","""event"",""trial"",""time""
""fullscreenenter"",""5"",""31688""
","
",NA,images/earth.jpg,NA,NA,NA,NA,NA,NA,NA,NA,NA,NA,NA,NA,NA,fixation,NA,NA,NA,NA,NA,NA,sub150
d3-animate-choice,147,586369,0.0-76.0-0.4,TRUE,TRUE,TRUE,FALSE,"""event"",""trial"",""time""
""focus"",""1"",""17833""
""blur"",""5"",""28364""
""focus"",""5"",""30833""
""fullscreenenter"",""5"",""31688""
","""event"",""trial"",""time""
""blur"",""5"",""28364""
","""event"",""trial"",""time""
""focus"",""1"",""17833""
""focus"",""5"",""30833""
","""event"",""trial"",""time""
""fullscreenenter"",""5"",""31688""
","
",224.07000000379048,NA,48,NA,NA,3000,1,NA,NA,images/earth.jpg,images/rocket2,images/rocket1,null,images/rocket2,NA,1,real,null,2,NA,NA,NA,sub150
d3-animate-choice,148,588707,0.0-76.0-1.4,TRUE,TRUE,TRUE,FALSE,"""event"",""trial"",""time""
""focus"",""1"",""17833""
""blur"",""5"",""28364""
""focus"",""5"",""30833""
""fullscreenenter"",""5"",""31688""
","""event"",""trial"",""time""
""blur"",""5"",""28364""
","""event"",""trial"",""time""
""focus"",""1"",""17833""
""focus"",""5"",""30833""
","""event"",""trial"",""time""
""fullscreenenter"",""5"",""31688""
","
",335.2450000020908,NA,48,NA,NA,3000,1,NA,NA,images/purpleplanet.jpg,images/alien4,images/alien3,images/rocket2,images/alien4,images/t.png,2,real,true,2,common,1,2020-07-04T14:57:57Z,sub150
two-step-fixation,149,589712,0.0-76.0-2.4,TRUE,TRUE,TRUE,FALSE,"""event"",""trial"",""time""
""focus"",""1"",""17833""
""blur"",""5"",""28364""
""focus"",""5"",""30833""
""fullscreenenter"",""5"",""31688""
","""event"",""trial"",""time""
""blur"",""5"",""28364""
","""event"",""trial"",""time""
""focus"",""1"",""17833""
""focus"",""5"",""30833""
","""event"",""trial"",""time""
""fullscreenenter"",""5"",""31688""
","
",NA,images/earth.jpg,NA,NA,NA,NA,NA,NA,NA,NA,NA,NA,NA,NA,NA,fixation,NA,NA,NA,NA,NA,NA,sub150
d3-animate-choice,150,592007,0.0-76.0-0.5,TRUE,TRUE,TRUE,FALSE,"""event"",""trial"",""time""
""focus"",""1"",""17833""
""blur"",""5"",""28364""
""focus"",""5"",""30833""
""fullscreenenter"",""5"",""31688""
","""event"",""trial"",""time""
""blur"",""5"",""28364""
","""event"",""trial"",""time""
""focus"",""1"",""17833""
""focus"",""5"",""30833""
","""event"",""trial"",""time""
""fullscreenenter"",""5"",""31688""
","
",289.7649999940768,NA,48,NA,NA,3000,1,NA,NA,images/earth.jpg,images/rocket2,images/rocket1,null,images/rocket2,NA,1,real,null,2,NA,NA,NA,sub150
d3-animate-choice,151,594595,0.0-76.0-1.5,TRUE,TRUE,TRUE,FALSE,"""event"",""trial"",""time""
""focus"",""1"",""17833""
""blur"",""5"",""28364""
""focus"",""5"",""30833""
""fullscreenenter"",""5"",""31688""
","""event"",""trial"",""time""
""blur"",""5"",""28364""
","""event"",""trial"",""time""
""focus"",""1"",""17833""
""focus"",""5"",""30833""
","""event"",""trial"",""time""
""fullscreenenter"",""5"",""31688""
","
",585.220000000787,NA,48,NA,NA,3000,1,NA,NA,images/purpleplanet.jpg,images/alien4,images/alien3,images/rocket2,images/alien4,images/t.png,2,real,true,2,common,1,2020-07-04T14:58:03Z,sub150
two-step-fixation,152,595598,0.0-76.0-2.5,TRUE,TRUE,TRUE,FALSE,"""event"",""trial"",""time""
""focus"",""1"",""17833""
""blur"",""5"",""28364""
""focus"",""5"",""30833""
""fullscreenenter"",""5"",""31688""
","""event"",""trial"",""time""
""blur"",""5"",""28364""
","""event"",""trial"",""time""
""focus"",""1"",""17833""
""focus"",""5"",""30833""
","""event"",""trial"",""time""
""fullscreenenter"",""5"",""31688""
","
",NA,images/earth.jpg,NA,NA,NA,NA,NA,NA,NA,NA,NA,NA,NA,NA,NA,fixation,NA,NA,NA,NA,NA,NA,sub150
d3-animate-choice,153,597815,0.0-76.0-0.6,TRUE,TRUE,TRUE,FALSE,"""event"",""trial"",""time""
""focus"",""1"",""17833""
""blur"",""5"",""28364""
""focus"",""5"",""30833""
""fullscreenenter"",""5"",""31688""
","""event"",""trial"",""time""
""blur"",""5"",""28364""
","""event"",""trial"",""time""
""focus"",""1"",""17833""
""focus"",""5"",""30833""
","""event"",""trial"",""time""
""fullscreenenter"",""5"",""31688""
","
",211.90000000211876,NA,48,NA,NA,3000,1,NA,NA,images/earth.jpg,images/rocket2,images/rocket1,null,images/rocket2,NA,1,real,null,2,NA,NA,NA,sub150
d3-animate-choice,154,600852,0.0-76.0-1.6,TRUE,TRUE,TRUE,FALSE,"""event"",""trial"",""time""
""focus"",""1"",""17833""
""blur"",""5"",""28364""
""focus"",""5"",""30833""
""fullscreenenter"",""5"",""31688""
","""event"",""trial"",""time""
""blur"",""5"",""28364""
","""event"",""trial"",""time""
""focus"",""1"",""17833""
""focus"",""5"",""30833""
","""event"",""trial"",""time""
""fullscreenenter"",""5"",""31688""
","
",1031.1950000032084,NA,49,NA,NA,3000,1,NA,NA,images/redplanet1.jpg,images/alien2,images/alien1,images/rocket2,images/alien1,images/nothing.png,2,real,false,1,rare,0,2020-07-04T14:58:10Z,sub150
two-step-fixation,155,601856,0.0-76.0-2.6,TRUE,TRUE,TRUE,FALSE,"""event"",""trial"",""time""
""focus"",""1"",""17833""
""blur"",""5"",""28364""
""focus"",""5"",""30833""
""fullscreenenter"",""5"",""31688""
","""event"",""trial"",""time""
""blur"",""5"",""28364""
","""event"",""trial"",""time""
""focus"",""1"",""17833""
""focus"",""5"",""30833""
","""event"",""trial"",""time""
""fullscreenenter"",""5"",""31688""
","
",NA,images/earth.jpg,NA,NA,NA,NA,NA,NA,NA,NA,NA,NA,NA,NA,NA,fixation,NA,NA,NA,NA,NA,NA,sub150
d3-animate-choice,156,603996,0.0-76.0-0.7,TRUE,TRUE,TRUE,FALSE,"""event"",""trial"",""time""
""focus"",""1"",""17833""
""blur"",""5"",""28364""
""focus"",""5"",""30833""
""fullscreenenter"",""5"",""31688""
","""event"",""trial"",""time""
""blur"",""5"",""28364""
","""event"",""trial"",""time""
""focus"",""1"",""17833""
""focus"",""5"",""30833""
","""event"",""trial"",""time""
""fullscreenenter"",""5"",""31688""
","
",134.61499999533407,NA,48,NA,NA,3000,1,NA,NA,images/earth.jpg,images/rocket2,images/rocket1,null,images/rocket2,NA,1,real,null,2,NA,NA,NA,sub150
d3-animate-choice,157,606528,0.0-76.0-1.7,TRUE,TRUE,TRUE,FALSE,"""event"",""trial"",""time""
""focus"",""1"",""17833""
""blur"",""5"",""28364""
""focus"",""5"",""30833""
""fullscreenenter"",""5"",""31688""
","""event"",""trial"",""time""
""blur"",""5"",""28364""
","""event"",""trial"",""time""
""focus"",""1"",""17833""
""focus"",""5"",""30833""
","""event"",""trial"",""time""
""fullscreenenter"",""5"",""31688""
","
",527.4799999969546,NA,48,NA,NA,3000,1,NA,NA,images/redplanet1.jpg,images/alien2,images/alien1,images/rocket2,images/alien2,images/nothing.png,2,real,false,2,rare,0,2020-07-04T14:58:15Z,sub150
two-step-fixation,158,607536,0.0-76.0-2.7,TRUE,TRUE,TRUE,FALSE,"""event"",""trial"",""time""
""focus"",""1"",""17833""
""blur"",""5"",""28364""
""focus"",""5"",""30833""
""fullscreenenter"",""5"",""31688""
","""event"",""trial"",""time""
""blur"",""5"",""28364""
","""event"",""trial"",""time""
""focus"",""1"",""17833""
""focus"",""5"",""30833""
","""event"",""trial"",""time""
""fullscreenenter"",""5"",""31688""
","
",NA,images/earth.jpg,NA,NA,NA,NA,NA,NA,NA,NA,NA,NA,NA,NA,NA,fixation,NA,NA,NA,NA,NA,NA,sub150
d3-animate-choice,159,609964,0.0-76.0-0.8,TRUE,TRUE,TRUE,FALSE,"""event"",""trial"",""time""
""focus"",""1"",""17833""
""blur"",""5"",""28364""
""focus"",""5"",""30833""
""fullscreenenter"",""5"",""31688""
","""event"",""trial"",""time""
""blur"",""5"",""28364""
","""event"",""trial"",""time""
""focus"",""1"",""17833""
""focus"",""5"",""30833""
","""event"",""trial"",""time""
""fullscreenenter"",""5"",""31688""
","
",423.96500000171363,NA,48,NA,NA,3000,1,NA,NA,images/earth.jpg,images/rocket2,images/rocket1,null,images/rocket2,NA,1,real,null,2,NA,NA,NA,sub150
d3-animate-choice,160,612577,0.0-76.0-1.8,TRUE,TRUE,TRUE,FALSE,"""event"",""trial"",""time""
""focus"",""1"",""17833""
""blur"",""5"",""28364""
""focus"",""5"",""30833""
""fullscreenenter"",""5"",""31688""
","""event"",""trial"",""time""
""blur"",""5"",""28364""
","""event"",""trial"",""time""
""focus"",""1"",""17833""
""focus"",""5"",""30833""
","""event"",""trial"",""time""
""fullscreenenter"",""5"",""31688""
","
",608.6300000024494,NA,48,NA,NA,3000,1,NA,NA,images/purpleplanet.jpg,images/alien4,images/alien3,images/rocket2,images/alien4,images/t.png,2,real,true,2,common,1,2020-07-04T14:58:21Z,sub150
two-step-fixation,161,613581,0.0-76.0-2.8,TRUE,TRUE,TRUE,FALSE,"""event"",""trial"",""time""
""focus"",""1"",""17833""
""blur"",""5"",""28364""
""focus"",""5"",""30833""
""fullscreenenter"",""5"",""31688""
","""event"",""trial"",""time""
""blur"",""5"",""28364""
","""event"",""trial"",""time""
""focus"",""1"",""17833""
""focus"",""5"",""30833""
","""event"",""trial"",""time""
""fullscreenenter"",""5"",""31688""
","
",NA,images/earth.jpg,NA,NA,NA,NA,NA,NA,NA,NA,NA,NA,NA,NA,NA,fixation,NA,NA,NA,NA,NA,NA,sub150
d3-animate-choice,162,615862,0.0-76.0-0.9,TRUE,TRUE,TRUE,FALSE,"""event"",""trial"",""time""
""focus"",""1"",""17833""
""blur"",""5"",""28364""
""focus"",""5"",""30833""
""fullscreenenter"",""5"",""31688""
","""event"",""trial"",""time""
""blur"",""5"",""28364""
","""event"",""trial"",""time""
""focus"",""1"",""17833""
""focus"",""5"",""30833""
","""event"",""trial"",""time""
""fullscreenenter"",""5"",""31688""
","
",276.82999999518506,NA,48,NA,NA,3000,1,NA,NA,images/earth.jpg,images/rocket2,images/rocket1,null,images/rocket2,NA,1,real,null,2,NA,NA,NA,sub150
d3-animate-choice,163,618678,0.0-76.0-1.9,TRUE,TRUE,TRUE,FALSE,"""event"",""trial"",""time""
""focus"",""1"",""17833""
""blur"",""5"",""28364""
""focus"",""5"",""30833""
""fullscreenenter"",""5"",""31688""
","""event"",""trial"",""time""
""blur"",""5"",""28364""
","""event"",""trial"",""time""
""focus"",""1"",""17833""
""focus"",""5"",""30833""
","""event"",""trial"",""time""
""fullscreenenter"",""5"",""31688""
","
",810.4299999977229,NA,49,NA,NA,3000,1,NA,NA,images/redplanet1.jpg,images/alien2,images/alien1,images/rocket2,images/alien1,images/t.png,2,real,false,1,rare,1,2020-07-04T14:58:27Z,sub150
two-step-fixation,164,619683,0.0-76.0-2.9,TRUE,TRUE,TRUE,FALSE,"""event"",""trial"",""time""
""focus"",""1"",""17833""
""blur"",""5"",""28364""
""focus"",""5"",""30833""
""fullscreenenter"",""5"",""31688""
","""event"",""trial"",""time""
""blur"",""5"",""28364""
","""event"",""trial"",""time""
""focus"",""1"",""17833""
""focus"",""5"",""30833""
","""event"",""trial"",""time""
""fullscreenenter"",""5"",""31688""
","
",NA,images/earth.jpg,NA,NA,NA,NA,NA,NA,NA,NA,NA,NA,NA,NA,NA,fixation,NA,NA,NA,NA,NA,NA,sub150
d3-animate-choice,165,621707,0.0-76.0-0.10,TRUE,TRUE,TRUE,FALSE,"""event"",""trial"",""time""
""focus"",""1"",""17833""
""blur"",""5"",""28364""
""focus"",""5"",""30833""
""fullscreenenter"",""5"",""31688""
","""event"",""trial"",""time""
""blur"",""5"",""28364""
","""event"",""trial"",""time""
""focus"",""1"",""17833""
""focus"",""5"",""30833""
","""event"",""trial"",""time""
""fullscreenenter"",""5"",""31688""
","
",21.23500000021886,NA,48,NA,NA,3000,1,NA,NA,images/earth.jpg,images/rocket2,images/rocket1,null,images/rocket2,NA,1,real,null,2,NA,NA,NA,sub150
d3-animate-choice,166,624296,0.0-76.0-1.10,TRUE,TRUE,TRUE,FALSE,"""event"",""trial"",""time""
""focus"",""1"",""17833""
""blur"",""5"",""28364""
""focus"",""5"",""30833""
""fullscreenenter"",""5"",""31688""
","""event"",""trial"",""time""
""blur"",""5"",""28364""
","""event"",""trial"",""time""
""focus"",""1"",""17833""
""focus"",""5"",""30833""
","""event"",""trial"",""time""
""fullscreenenter"",""5"",""31688""
","
",583.650000000489,NA,48,NA,NA,3000,1,938.2699999987381,48,images/redplanet1.jpg,images/alien2,images/alien1,images/rocket2,images/alien2,images/t.png,2,real,false,2,rare,1,2020-07-04T14:58:33Z,sub150
two-step-fixation,167,625303,0.0-76.0-2.10,TRUE,TRUE,TRUE,FALSE,"""event"",""trial"",""time""
""focus"",""1"",""17833""
""blur"",""5"",""28364""
""focus"",""5"",""30833""
""fullscreenenter"",""5"",""31688""
","""event"",""trial"",""time""
""blur"",""5"",""28364""
","""event"",""trial"",""time""
""focus"",""1"",""17833""
""focus"",""5"",""30833""
","""event"",""trial"",""time""
""fullscreenenter"",""5"",""31688""
","
",NA,images/earth.jpg,NA,NA,NA,NA,NA,NA,NA,NA,NA,NA,NA,NA,NA,fixation,NA,NA,NA,NA,NA,NA,sub150
d3-animate-choice,168,627598,0.0-76.0-0.11,TRUE,TRUE,TRUE,FALSE,"""event"",""trial"",""time""
""focus"",""1"",""17833""
""blur"",""5"",""28364""
""focus"",""5"",""30833""
""fullscreenenter"",""5"",""31688""
","""event"",""trial"",""time""
""blur"",""5"",""28364""
","""event"",""trial"",""time""
""focus"",""1"",""17833""
""focus"",""5"",""30833""
","""event"",""trial"",""time""
""fullscreenenter"",""5"",""31688""
","
",291.51500000432134,NA,48,NA,NA,3000,1,NA,NA,images/earth.jpg,images/rocket2,images/rocket1,null,images/rocket2,NA,1,real,null,2,NA,NA,NA,sub150
d3-animate-choice,169,630486,0.0-76.0-1.11,TRUE,TRUE,TRUE,FALSE,"""event"",""trial"",""time""
""focus"",""1"",""17833""
""blur"",""5"",""28364""
""focus"",""5"",""30833""
""fullscreenenter"",""5"",""31688""
","""event"",""trial"",""time""
""blur"",""5"",""28364""
","""event"",""trial"",""time""
""focus"",""1"",""17833""
""focus"",""5"",""30833""
","""event"",""trial"",""time""
""fullscreenenter"",""5"",""31688""
","
",881.5499999983003,NA,49,NA,NA,3000,1,NA,NA,images/redplanet1.jpg,images/alien2,images/alien1,images/rocket2,images/alien1,images/t.png,2,real,false,1,rare,1,2020-07-04T14:58:39Z,sub150
two-step-fixation,170,631489,0.0-76.0-2.11,TRUE,TRUE,TRUE,FALSE,"""event"",""trial"",""time""
""focus"",""1"",""17833""
""blur"",""5"",""28364""
""focus"",""5"",""30833""
""fullscreenenter"",""5"",""31688""
","""event"",""trial"",""time""
""blur"",""5"",""28364""
","""event"",""trial"",""time""
""focus"",""1"",""17833""
""focus"",""5"",""30833""
","""event"",""trial"",""time""
""fullscreenenter"",""5"",""31688""
","
",NA,images/earth.jpg,NA,NA,NA,NA,NA,NA,NA,NA,NA,NA,NA,NA,NA,fixation,NA,NA,NA,NA,NA,NA,sub150
d3-animate-choice,171,633756,0.0-76.0-0.12,TRUE,TRUE,TRUE,FALSE,"""event"",""trial"",""time""
""focus"",""1"",""17833""
""blur"",""5"",""28364""
""focus"",""5"",""30833""
""fullscreenenter"",""5"",""31688""
","""event"",""trial"",""time""
""blur"",""5"",""28364""
","""event"",""trial"",""time""
""focus"",""1"",""17833""
""focus"",""5"",""30833""
","""event"",""trial"",""time""
""fullscreenenter"",""5"",""31688""
","
",262.2750000008382,NA,48,NA,NA,3000,1,NA,NA,images/earth.jpg,images/rocket2,images/rocket1,null,images/rocket2,NA,1,real,null,2,NA,NA,NA,sub150
d3-animate-choice,172,636482,0.0-76.0-1.12,TRUE,TRUE,TRUE,FALSE,"""event"",""trial"",""time""
""focus"",""1"",""17833""
""blur"",""5"",""28364""
""focus"",""5"",""30833""
""fullscreenenter"",""5"",""31688""
","""event"",""trial"",""time""
""blur"",""5"",""28364""
","""event"",""trial"",""time""
""focus"",""1"",""17833""
""focus"",""5"",""30833""
","""event"",""trial"",""time""
""fullscreenenter"",""5"",""31688""
","
",718.0449999941047,NA,48,NA,NA,3000,1,NA,NA,images/purpleplanet.jpg,images/alien4,images/alien3,images/rocket2,images/alien4,images/t.png,2,real,true,2,common,1,2020-07-04T14:58:45Z,sub150
two-step-fixation,173,637490,0.0-76.0-2.12,TRUE,TRUE,TRUE,FALSE,"""event"",""trial"",""time""
""focus"",""1"",""17833""
""blur"",""5"",""28364""
""focus"",""5"",""30833""
""fullscreenenter"",""5"",""31688""
","""event"",""trial"",""time""
""blur"",""5"",""28364""
","""event"",""trial"",""time""
""focus"",""1"",""17833""
""focus"",""5"",""30833""
","""event"",""trial"",""time""
""fullscreenenter"",""5"",""31688""
","
",NA,images/earth.jpg,NA,NA,NA,NA,NA,NA,NA,NA,NA,NA,NA,NA,NA,fixation,NA,NA,NA,NA,NA,NA,sub150
d3-animate-choice,174,639780,0.0-76.0-0.13,TRUE,TRUE,TRUE,FALSE,"""event"",""trial"",""time""
""focus"",""1"",""17833""
""blur"",""5"",""28364""
""focus"",""5"",""30833""
""fullscreenenter"",""5"",""31688""
","""event"",""trial"",""time""
""blur"",""5"",""28364""
","""event"",""trial"",""time""
""focus"",""1"",""17833""
""focus"",""5"",""30833""
","""event"",""trial"",""time""
""fullscreenenter"",""5"",""31688""
","
",285.06999999808613,NA,48,NA,NA,3000,1,NA,NA,images/earth.jpg,images/rocket2,images/rocket1,null,images/rocket2,NA,1,real,null,2,NA,NA,NA,sub150
d3-animate-choice,175,642590,0.0-76.0-1.13,TRUE,TRUE,TRUE,FALSE,"""event"",""trial"",""time""
""focus"",""1"",""17833""
""blur"",""5"",""28364""
""focus"",""5"",""30833""
""fullscreenenter"",""5"",""31688""
","""event"",""trial"",""time""
""blur"",""5"",""28364""
","""event"",""trial"",""time""
""focus"",""1"",""17833""
""focus"",""5"",""30833""
","""event"",""trial"",""time""
""fullscreenenter"",""5"",""31688""
","
",803.7649999969872,NA,49,NA,NA,3000,1,NA,NA,images/purpleplanet.jpg,images/alien4,images/alien3,images/rocket2,images/alien3,images/t.png,2,real,true,1,common,1,2020-07-04T14:58:51Z,sub150
two-step-fixation,176,643594,0.0-76.0-2.13,TRUE,TRUE,TRUE,FALSE,"""event"",""trial"",""time""
""focus"",""1"",""17833""
""blur"",""5"",""28364""
""focus"",""5"",""30833""
""fullscreenenter"",""5"",""31688""
","""event"",""trial"",""time""
""blur"",""5"",""28364""
","""event"",""trial"",""time""
""focus"",""1"",""17833""
""focus"",""5"",""30833""
","""event"",""trial"",""time""
""fullscreenenter"",""5"",""31688""
","
",NA,images/earth.jpg,NA,NA,NA,NA,NA,NA,NA,NA,NA,NA,NA,NA,NA,fixation,NA,NA,NA,NA,NA,NA,sub150
d3-animate-choice,177,645650,0.0-76.0-0.14,TRUE,TRUE,TRUE,FALSE,"""event"",""trial"",""time""
""focus"",""1"",""17833""
""blur"",""5"",""28364""
""focus"",""5"",""30833""
""fullscreenenter"",""5"",""31688""
","""event"",""trial"",""time""
""blur"",""5"",""28364""
","""event"",""trial"",""time""
""focus"",""1"",""17833""
""focus"",""5"",""30833""
","""event"",""trial"",""time""
""fullscreenenter"",""5"",""31688""
","
",53.225000003236346,NA,48,NA,NA,3000,1,NA,NA,images/earth.jpg,images/rocket2,images/rocket1,null,images/rocket2,NA,1,real,null,2,NA,NA,NA,sub150
d3-animate-choice,178,648588,0.0-76.0-1.14,TRUE,TRUE,TRUE,FALSE,"""event"",""trial"",""time""
""focus"",""1"",""17833""
""blur"",""5"",""28364""
""focus"",""5"",""30833""
""fullscreenenter"",""5"",""31688""
