trial_type,trial_index,time_elapsed,internal_node_id,rocket_sides,red_planet_first_rocket,red_display_order,purple_display_order,interactions,blur_events,focus_events,fullscreenenter_events,fullscreenexit_events,rt,stimulus,key_press,button_pressed,success,duration,valid_pressed,rts,keys,planet_text,right_text,left_text,center_text,chosen_text,reward_text,trial_stage,practice_trial,transition_type,choice,transition,reward,timestamp,subject_id
pavlovia,0,4,0.0-0.0,TRUE,TRUE,FALSE,FALSE,"
","
","
","
","
",NA,NA,NA,NA,NA,NA,NA,NA,NA,NA,NA,NA,NA,NA,NA,NA,NA,NA,NA,NA,NA,NA,sub120
html-keyboard-response,1,1053,0.0-1.0,TRUE,TRUE,FALSE,FALSE,"
","
","
","
","
",1047.9850000001534,Welcome! Press the space bar to begin.,32,NA,NA,NA,NA,NA,NA,NA,NA,NA,NA,NA,NA,NA,NA,NA,NA,NA,NA,NA,sub120
audio-keyboard-response,2,6932,0.0-2.0,TRUE,TRUE,FALSE,FALSE,"
","
","
","
","
",5759,audio/beep_loop.wav,32,NA,NA,NA,NA,NA,NA,NA,NA,NA,NA,NA,NA,NA,NA,NA,NA,NA,NA,NA,sub120
audio-button-response,3,9912,0.0-3.0,TRUE,TRUE,FALSE,FALSE,"
","
","
","
","
",NaN,audio/fish.mp3,NA,1,NA,NA,NA,NA,NA,NA,NA,NA,NA,NA,NA,NA,NA,NA,NA,NA,NA,NA,sub120
audio-button-response,4,12940,0.0-4.0,TRUE,TRUE,FALSE,FALSE,"""event"",""trial"",""time""
""fullscreenenter"",""5"",""16988""
","
","
","""event"",""trial"",""time""
""fullscreenenter"",""5"",""16988""
","
",NaN,audio/tiger.mp3,NA,4,NA,NA,NA,NA,NA,NA,NA,NA,NA,NA,NA,NA,NA,NA,NA,NA,NA,NA,sub120
fullscreen,5,17974,0.0-5.0,TRUE,TRUE,FALSE,FALSE,"""event"",""trial"",""time""
""fullscreenenter"",""5"",""16988""
","
","
","""event"",""trial"",""time""
""fullscreenenter"",""5"",""16988""
","
",NA,NA,NA,NA,TRUE,NA,NA,NA,NA,NA,NA,NA,NA,NA,NA,NA,NA,NA,NA,NA,NA,NA,sub120
d3-instructions,6,31259,0.0-6.0,TRUE,TRUE,FALSE,FALSE,"""event"",""trial"",""time""
""fullscreenenter"",""5"",""16988""
","
","
","""event"",""trial"",""time""
""fullscreenenter"",""5"",""16988""
","
",NA,NA,NA,NA,NA,NA,NA,NA,NA,NA,NA,NA,NA,NA,NA,NA,NA,NA,NA,NA,NA,NA,sub120
d3-instructions,7,39433,0.0-7.0,TRUE,TRUE,FALSE,FALSE,"""event"",""trial"",""time""
""fullscreenenter"",""5"",""16988""
","
","
","""event"",""trial"",""time""
""fullscreenenter"",""5"",""16988""
","
",NA,NA,NA,NA,NA,NA,NA,NA,NA,NA,NA,NA,NA,NA,NA,NA,NA,NA,NA,NA,NA,NA,sub120
d3-instructions,8,46757,0.0-8.0,TRUE,TRUE,FALSE,FALSE,"""event"",""trial"",""time""
""fullscreenenter"",""5"",""16988""
","
","
","""event"",""trial"",""time""
""fullscreenenter"",""5"",""16988""
","
",NA,NA,NA,NA,NA,NA,NA,NA,NA,NA,NA,NA,NA,NA,NA,NA,NA,NA,NA,NA,NA,NA,sub120
d3-instructions,9,57483,0.0-9.0,TRUE,TRUE,FALSE,FALSE,"""event"",""trial"",""time""
""fullscreenenter"",""5"",""16988""
","
","
","""event"",""trial"",""time""
""fullscreenenter"",""5"",""16988""
","
",NA,NA,NA,NA,NA,NA,NA,NA,NA,NA,NA,NA,NA,NA,NA,NA,NA,NA,NA,NA,NA,NA,sub120
d3-instructions,10,77993,0.0-10.0,TRUE,TRUE,FALSE,FALSE,"""event"",""trial"",""time""
""fullscreenenter"",""5"",""16988""
","
","
","""event"",""trial"",""time""
""fullscreenenter"",""5"",""16988""
","
",NA,NA,NA,NA,NA,NA,NA,NA,NA,NA,NA,NA,NA,NA,NA,NA,NA,NA,NA,NA,NA,NA,sub120
d3-animate-choice,11,80911,0.0-11.0,TRUE,TRUE,FALSE,FALSE,"""event"",""trial"",""time""
""fullscreenenter"",""5"",""16988""
","
","
","""event"",""trial"",""time""
""fullscreenenter"",""5"",""16988""
","
",912.1999999997643,NA,49,NA,NA,3000,1,NA,NA,images/tutgreenplanet.jpg,images/tutalien1,images/tutalien2,null,images/tutalien2,NA,NA,practice,null,NA,NA,NA,NA,sub120
d3-animate-choice,12,82929,0.0-12.0,TRUE,TRUE,FALSE,FALSE,"""event"",""trial"",""time""
""fullscreenenter"",""5"",""16988""
","
","
","""event"",""trial"",""time""
""fullscreenenter"",""5"",""16988""
","
",13.789999999964493,NA,49,NA,NA,3000,1,"719.9749999999767,1335.5400000000373,1891.0850000002101",484848,images/tutgreenplanet.jpg,images/tutalien1,images/tutalien2,null,images/tutalien2,NA,NA,practice,null,NA,NA,NA,NA,sub120
d3-animate-choice,13,85385,0.0-13.0,TRUE,TRUE,FALSE,FALSE,"""event"",""trial"",""time""
""fullscreenenter"",""5"",""16988""
","
","
","""event"",""trial"",""time""
""fullscreenenter"",""5"",""16988""
","
",450.6200000000681,NA,48,NA,NA,3000,1,"1171.875,1570.1699999999691",4848,images/tutgreenplanet.jpg,images/tutalien1,images/tutalien2,null,images/tutalien1,NA,NA,practice,null,NA,NA,NA,NA,sub120
d3-animate-choice,14,87968,0.0-14.0,TRUE,TRUE,FALSE,FALSE,"""event"",""trial"",""time""
""fullscreenenter"",""5"",""16988""
","
","
","""event"",""trial"",""time""
""fullscreenenter"",""5"",""16988""
","
",581.2150000001566,NA,49,NA,NA,3000,1,"1130.2650000002468,2016.8350000003556",4848,images/tutgreenplanet.jpg,images/tutalien1,images/tutalien2,null,images/tutalien2,NA,NA,practice,null,NA,NA,NA,NA,sub120
d3-instructions,15,94928,0.0-15.0,TRUE,TRUE,FALSE,FALSE,"""event"",""trial"",""time""
""fullscreenenter"",""5"",""16988""
","
","
","""event"",""trial"",""time""
""fullscreenenter"",""5"",""16988""
","
",NA,NA,NA,NA,NA,NA,NA,NA,NA,NA,NA,NA,NA,NA,NA,NA,NA,NA,NA,NA,NA,NA,sub120
d3-instructions,16,100871,0.0-16.0,TRUE,TRUE,FALSE,FALSE,"""event"",""trial"",""time""
""fullscreenenter"",""5"",""16988""
","
","
","""event"",""trial"",""time""
""fullscreenenter"",""5"",""16988""
","
",NA,NA,NA,NA,NA,NA,NA,NA,NA,NA,NA,NA,NA,NA,NA,NA,NA,NA,NA,NA,NA,NA,sub120
d3-instructions,17,110376,0.0-17.0,TRUE,TRUE,FALSE,FALSE,"""event"",""trial"",""time""
""fullscreenenter"",""5"",""16988""
","
","
","""event"",""trial"",""time""
""fullscreenenter"",""5"",""16988""
","
",NA,NA,NA,NA,NA,NA,NA,NA,NA,NA,NA,NA,NA,NA,NA,NA,NA,NA,NA,NA,NA,NA,sub120
d3-instructions,18,118873,0.0-18.0,TRUE,TRUE,FALSE,FALSE,"""event"",""trial"",""time""
""fullscreenenter"",""5"",""16988""
","
","
","""event"",""trial"",""time""
""fullscreenenter"",""5"",""16988""
","
",NA,NA,NA,NA,NA,NA,NA,NA,NA,NA,NA,NA,NA,NA,NA,NA,NA,NA,NA,NA,NA,NA,sub120
d3-instructions,19,122234,0.0-19.0,TRUE,TRUE,FALSE,FALSE,"""event"",""trial"",""time""
""fullscreenenter"",""5"",""16988""
","
","
","""event"",""trial"",""time""
""fullscreenenter"",""5"",""16988""
","
",NA,NA,NA,NA,NA,NA,NA,NA,NA,NA,NA,NA,NA,NA,NA,NA,NA,NA,NA,NA,NA,NA,sub120
d3-animate-choice,20,127843,0.0-20.0,TRUE,TRUE,FALSE,FALSE,"""event"",""trial"",""time""
""fullscreenenter"",""5"",""16988""
","
","
","""event"",""trial"",""time""
""fullscreenenter"",""5"",""16988""
","
",3606.125000000233,NA,49,NA,NA,3000,1,NA,NA,images/tutyellowplanet.jpg,null,images/tutalien3,null,images/tutalien3,images/t.png,NA,practice,null,NA,NA,NA,NA,sub120
d3-animate-choice,21,130879,0.0-21.0,TRUE,TRUE,FALSE,FALSE,"""event"",""trial"",""time""
""fullscreenenter"",""5"",""16988""
","
","
","""event"",""trial"",""time""
""fullscreenenter"",""5"",""16988""
","
",1030.1549999999115,NA,49,NA,NA,3000,1,NA,NA,images/tutyellowplanet.jpg,null,images/tutalien3,null,images/tutalien3,images/t.png,NA,practice,null,NA,NA,NA,NA,sub120
d3-animate-choice,22,136770,0.0-22.0,TRUE,TRUE,FALSE,FALSE,"""event"",""trial"",""time""
""fullscreenenter"",""5"",""16988""
","
","
","""event"",""trial"",""time""
""fullscreenenter"",""5"",""16988""
","
",1159.335000000283,NA,48,NA,NA,3000,1,"3887.900000000169,5108.780000000028",4949,images/tutyellowplanet.jpg,null,images/tutalien3,null,images/tutalien3,images/t.png,NA,practice,null,NA,NA,NA,NA,sub120
d3-animate-choice,23,139139,0.0-23.0,TRUE,TRUE,FALSE,FALSE,"""event"",""trial"",""time""
""fullscreenenter"",""5"",""16988""
","
","
","""event"",""trial"",""time""
""fullscreenenter"",""5"",""16988""
","
",364.88999999983935,NA,49,NA,NA,3000,1,NA,NA,images/tutyellowplanet.jpg,null,images/tutalien3,null,images/tutalien3,images/t.png,NA,practice,null,NA,NA,NA,NA,sub120
d3-animate-choice,24,144079,0.0-24.0,TRUE,TRUE,FALSE,FALSE,"""event"",""trial"",""time""
""fullscreenenter"",""5"",""16988""
","
","
","""event"",""trial"",""time""
""fullscreenenter"",""5"",""16988""
","
",2933.8099999999977,NA,49,NA,NA,3000,1,"3448.4200000001583,3854.430000000313,4237.440000000352",494932,images/tutyellowplanet.jpg,null,images/tutalien3,null,images/tutalien3,images/t.png,NA,practice,null,NA,NA,NA,NA,sub120
d3-animate-choice,25,161217,0.0-25.0,TRUE,TRUE,FALSE,FALSE,"""event"",""trial"",""time""
""fullscreenenter"",""5"",""16988""
","
","
","""event"",""trial"",""time""
""fullscreenenter"",""5"",""16988""
","
",373.6499999999942,NA,32,NA,NA,3000,1,"748.8499999999476,999.4349999997357,10421.374999999913,11708.360000000102,11971.28999999995,12224.200000000128,12662.229999999923,13048.365000000107,13383.170000000071,13750.16499999992,14102.33999999991,14450.205000000104,14808.285000000062,15135.27999999997,15718.35999999984,16077.284999999858,16446.12499999994",32323248485756574e17,images/tutyellowplanet.jpg,null,images/tutalien3,null,images/tutalien3,images/nothing.png,NA,practice,null,NA,NA,NA,NA,sub120
d3-animate-choice,26,163463,0.0-26.0,TRUE,TRUE,FALSE,FALSE,"""event"",""trial"",""time""
""fullscreenenter"",""5"",""16988""
","
","
","""event"",""trial"",""time""
""fullscreenenter"",""5"",""16988""
","
",242.08000000045286,NA,49,NA,NA,3000,1,1701.2350000004517,49,images/tutyellowplanet.jpg,null,images/tutalien3,null,images/tutalien3,images/t.png,NA,practice,null,NA,NA,NA,NA,sub120
d3-animate-choice,27,165878,0.0-27.0,TRUE,TRUE,FALSE,FALSE,"""event"",""trial"",""time""
""fullscreenenter"",""5"",""16988""
","
","
","""event"",""trial"",""time""
""fullscreenenter"",""5"",""16988""
","
",410.55000000004657,NA,49,NA,NA,3000,1,"1448.9650000000256,1949.175000000192",4949,images/tutyellowplanet.jpg,null,images/tutalien3,null,images/tutalien3,images/t.png,NA,practice,null,NA,NA,NA,NA,sub120
d3-animate-choice,28,167892,0.0-28.0,TRUE,TRUE,FALSE,FALSE,"""event"",""trial"",""time""
""fullscreenenter"",""5"",""16988""
","
","
","""event"",""trial"",""time""
""fullscreenenter"",""5"",""16988""
","
",9.935000000026776,NA,49,NA,NA,3000,1,"437.08500000002095,1023.5849999999045,1438.7350000001607,1853.8499999999476",49494949,images/tutyellowplanet.jpg,null,images/tutalien3,null,images/tutalien3,images/t.png,NA,practice,null,NA,NA,NA,NA,sub120
d3-animate-choice,29,170035,0.0-29.0,TRUE,TRUE,FALSE,FALSE,"""event"",""trial"",""time""
""fullscreenenter"",""5"",""16988""
","
","
","""event"",""trial"",""time""
""fullscreenenter"",""5"",""16988""
","
",136.14999999981956,NA,49,NA,NA,3000,1,"426.78499999965425,684.6649999997753,929.1749999997846,1142.324999999808,1330.9700000000012,1557.0800000000454,1772.9249999997846,2019.049999999901",4949494949494949,images/tutyellowplanet.jpg,null,images/tutalien3,null,images/tutalien3,images/t.png,NA,practice,null,NA,NA,NA,NA,sub120
d3-instructions,30,173431,0.0-30.0,TRUE,TRUE,FALSE,FALSE,"""event"",""trial"",""time""
""fullscreenenter"",""5"",""16988""
","
","
","""event"",""trial"",""time""
""fullscreenenter"",""5"",""16988""
","
",NA,NA,NA,NA,NA,NA,NA,NA,NA,NA,NA,NA,NA,NA,NA,NA,NA,NA,NA,NA,NA,NA,sub120
d3-instructions,31,179621,0.0-31.0,TRUE,TRUE,FALSE,FALSE,"""event"",""trial"",""time""
""fullscreenenter"",""5"",""16988""
","
","
","""event"",""trial"",""time""
""fullscreenenter"",""5"",""16988""
","
",NA,NA,NA,NA,NA,NA,NA,NA,NA,NA,NA,NA,NA,NA,NA,NA,NA,NA,NA,NA,NA,NA,sub120
d3-instructions,32,188557,0.0-32.0,TRUE,TRUE,FALSE,FALSE,"""event"",""trial"",""time""
""fullscreenenter"",""5"",""16988""
","
","
","""event"",""trial"",""time""
""fullscreenenter"",""5"",""16988""
","
",NA,NA,NA,NA,NA,NA,NA,NA,NA,NA,NA,NA,NA,NA,NA,NA,NA,NA,NA,NA,NA,NA,sub120
d3-instructions,33,191479,0.0-33.0,TRUE,TRUE,FALSE,FALSE,"""event"",""trial"",""time""
""fullscreenenter"",""5"",""16988""
","
","
","""event"",""trial"",""time""
""fullscreenenter"",""5"",""16988""
","
",NA,NA,NA,NA,NA,NA,NA,NA,NA,NA,NA,NA,NA,NA,NA,NA,NA,NA,NA,NA,NA,NA,sub120
d3-animate-choice,34,194702,0.0-34.0,TRUE,TRUE,FALSE,FALSE,"""event"",""trial"",""time""
""fullscreenenter"",""5"",""16988""
","
","
","""event"",""trial"",""time""
""fullscreenenter"",""5"",""16988""
","
",1221.1350000002421,NA,48,NA,NA,3000,1,NA,NA,images/tutgreenplanet.jpg,images/tutalien1,images/tutalien2,null,images/tutalien1,images/nothing.png,NA,practice,null,NA,NA,NA,NA,sub120
d3-animate-choice,35,197566,0.0-35.0,TRUE,TRUE,FALSE,FALSE,"""event"",""trial"",""time""
""fullscreenenter"",""5"",""16988""
","
","
","""event"",""trial"",""time""
""fullscreenenter"",""5"",""16988""
","
",860.0950000000012,NA,48,NA,NA,3000,1,NA,NA,images/tutgreenplanet.jpg,images/tutalien1,images/tutalien2,null,images/tutalien1,images/nothing.png,NA,practice,null,NA,NA,NA,NA,sub120
d3-animate-choice,36,199899,0.0-36.0,TRUE,TRUE,FALSE,FALSE,"""event"",""trial"",""time""
""fullscreenenter"",""5"",""16988""
","
","
","""event"",""trial"",""time""
""fullscreenenter"",""5"",""16988""
","
",329.2799999999115,NA,49,NA,NA,3000,1,NA,NA,images/tutgreenplanet.jpg,images/tutalien1,images/tutalien2,null,images/tutalien2,images/t.png,NA,practice,null,NA,NA,NA,NA,sub120
d3-animate-choice,37,202237,0.0-37.0,TRUE,TRUE,FALSE,FALSE,"""event"",""trial"",""time""
""fullscreenenter"",""5"",""16988""
","
","
","""event"",""trial"",""time""
""fullscreenenter"",""5"",""16988""
","
",333.6699999999837,NA,49,NA,NA,3000,1,NA,NA,images/tutgreenplanet.jpg,images/tutalien1,images/tutalien2,null,images/tutalien2,images/t.png,NA,practice,null,NA,NA,NA,NA,sub120
d3-animate-choice,38,204566,0.0-38.0,TRUE,TRUE,FALSE,FALSE,"""event"",""trial"",""time""
""fullscreenenter"",""5"",""16988""
","
","
","""event"",""trial"",""time""
""fullscreenenter"",""5"",""16988""
","
",322.02000000007683,NA,49,NA,NA,3000,1,NA,NA,images/tutgreenplanet.jpg,images/tutalien1,images/tutalien2,null,images/tutalien2,images/t.png,NA,practice,null,NA,NA,NA,NA,sub120
d3-animate-choice,39,206924,0.0-39.0,TRUE,TRUE,FALSE,FALSE,"""event"",""trial"",""time""
""fullscreenenter"",""5"",""16988""
","
","
","""event"",""trial"",""time""
""fullscreenenter"",""5"",""16988""
","
",352.4900000002235,NA,49,NA,NA,3000,1,1835.5700000001816,49,images/tutgreenplanet.jpg,images/tutalien1,images/tutalien2,null,images/tutalien2,images/t.png,NA,practice,null,NA,NA,NA,NA,sub120
d3-animate-choice,40,209524,0.0-40.0,TRUE,TRUE,FALSE,FALSE,"""event"",""trial"",""time""
""fullscreenenter"",""5"",""16988""
","
","
","""event"",""trial"",""time""
""fullscreenenter"",""5"",""16988""
","
",596.5300000002317,NA,49,NA,NA,3000,1,2247.8450000003213,49,images/tutgreenplanet.jpg,images/tutalien1,images/tutalien2,null,images/tutalien2,images/t.png,NA,practice,null,NA,NA,NA,NA,sub120
d3-animate-choice,41,211864,0.0-41.0,TRUE,TRUE,FALSE,FALSE,"""event"",""trial"",""time""
""fullscreenenter"",""5"",""16988""
","
","
","""event"",""trial"",""time""
""fullscreenenter"",""5"",""16988""
","
",336.2600000000384,NA,49,NA,NA,3000,1,2119.204999999958,49,images/tutgreenplanet.jpg,images/tutalien1,images/tutalien2,null,images/tutalien2,images/t.png,NA,practice,null,NA,NA,NA,NA,sub120
d3-animate-choice,42,214261,0.0-42.0,TRUE,TRUE,FALSE,FALSE,"""event"",""trial"",""time""
""fullscreenenter"",""5"",""16988""
","
","
","""event"",""trial"",""time""
""fullscreenenter"",""5"",""16988""
","
",392.95000000039,NA,49,NA,NA,3000,1,1855.950000000128,49,images/tutgreenplanet.jpg,images/tutalien1,images/tutalien2,null,images/tutalien2,images/t.png,NA,practice,null,NA,NA,NA,NA,sub120
d3-animate-choice,43,216746,0.0-43.0,TRUE,TRUE,FALSE,FALSE,"""event"",""trial"",""time""
""fullscreenenter"",""5"",""16988""
","
","
","""event"",""trial"",""time""
""fullscreenenter"",""5"",""16988""
","
",478.2450000002282,NA,49,NA,NA,3000,1,1993.3600000003935,49,images/tutgreenplanet.jpg,images/tutalien1,images/tutalien2,null,images/tutalien2,images/t.png,NA,practice,null,NA,NA,NA,NA,sub120
d3-instructions,44,225942,0.0-44.0,TRUE,TRUE,FALSE,FALSE,"""event"",""trial"",""time""
""fullscreenenter"",""5"",""16988""
","
","
","""event"",""trial"",""time""
""fullscreenenter"",""5"",""16988""
","
",NA,NA,NA,NA,NA,NA,NA,NA,NA,NA,NA,NA,NA,NA,NA,NA,NA,NA,NA,NA,NA,NA,sub120
d3-instructions,45,229945,0.0-45.0,TRUE,TRUE,FALSE,FALSE,"""event"",""trial"",""time""
""fullscreenenter"",""5"",""16988""
","
","
","""event"",""trial"",""time""
""fullscreenenter"",""5"",""16988""
","
",NA,NA,NA,NA,NA,NA,NA,NA,NA,NA,NA,NA,NA,NA,NA,NA,NA,NA,NA,NA,NA,NA,sub120
d3-instructions,46,234718,0.0-46.0,TRUE,TRUE,FALSE,FALSE,"""event"",""trial"",""time""
""fullscreenenter"",""5"",""16988""
","
","
","""event"",""trial"",""time""
""fullscreenenter"",""5"",""16988""
","
",NA,NA,NA,NA,NA,NA,NA,NA,NA,NA,NA,NA,NA,NA,NA,NA,NA,NA,NA,NA,NA,NA,sub120
d3-instructions,47,240791,0.0-47.0,TRUE,TRUE,FALSE,FALSE,"""event"",""trial"",""time""
""fullscreenenter"",""5"",""16988""
","
","
","""event"",""trial"",""time""
""fullscreenenter"",""5"",""16988""
","
",NA,NA,NA,NA,NA,NA,NA,NA,NA,NA,NA,NA,NA,NA,NA,NA,NA,NA,NA,NA,NA,NA,sub120
d3-instructions,48,245639,0.0-48.0,TRUE,TRUE,FALSE,FALSE,"""event"",""trial"",""time""
""fullscreenenter"",""5"",""16988""
","
","
","""event"",""trial"",""time""
""fullscreenenter"",""5"",""16988""
","
",NA,NA,NA,NA,NA,NA,NA,NA,NA,NA,NA,NA,NA,NA,NA,NA,NA,NA,NA,NA,NA,NA,sub120
d3-instructions,49,249564,0.0-49.0,TRUE,TRUE,FALSE,FALSE,"""event"",""trial"",""time""
""fullscreenenter"",""5"",""16988""
","
","
","""event"",""trial"",""time""
""fullscreenenter"",""5"",""16988""
","
",NA,NA,NA,NA,NA,NA,NA,NA,NA,NA,NA,NA,NA,NA,NA,NA,NA,NA,NA,NA,NA,NA,sub120
d3-instructions,50,259740,0.0-50.0,TRUE,TRUE,FALSE,FALSE,"""event"",""trial"",""time""
""fullscreenenter"",""5"",""16988""
","
","
","""event"",""trial"",""time""
""fullscreenenter"",""5"",""16988""
","
",NA,NA,NA,NA,NA,NA,NA,NA,NA,NA,NA,NA,NA,NA,NA,NA,NA,NA,NA,NA,NA,NA,sub120
d3-instructions,51,261864,0.0-51.0,TRUE,TRUE,FALSE,FALSE,"""event"",""trial"",""time""
""fullscreenenter"",""5"",""16988""
","
","
","""event"",""trial"",""time""
""fullscreenenter"",""5"",""16988""
","
",NA,NA,NA,NA,NA,NA,NA,NA,NA,NA,NA,NA,NA,NA,NA,NA,NA,NA,NA,NA,NA,NA,sub120
d3-instructions,52,263189,0.0-52.0,TRUE,TRUE,FALSE,FALSE,"""event"",""trial"",""time""
""fullscreenenter"",""5"",""16988""
","
","
","""event"",""trial"",""time""
""fullscreenenter"",""5"",""16988""
","
",NA,NA,NA,NA,NA,NA,NA,NA,NA,NA,NA,NA,NA,NA,NA,NA,NA,NA,NA,NA,NA,NA,sub120
d3-instructions,53,275624,0.0-53.0,TRUE,TRUE,FALSE,FALSE,"""event"",""trial"",""time""
""fullscreenenter"",""5"",""16988""
","
","
","""event"",""trial"",""time""
""fullscreenenter"",""5"",""16988""
","
",NA,NA,NA,NA,NA,NA,NA,NA,NA,NA,NA,NA,NA,NA,NA,NA,NA,NA,NA,NA,NA,NA,sub120
d3-instructions,54,284183,0.0-54.0,TRUE,TRUE,FALSE,FALSE,"""event"",""trial"",""time""
""fullscreenenter"",""5"",""16988""
","
","
","""event"",""trial"",""time""
""fullscreenenter"",""5"",""16988""
","
",NA,NA,NA,NA,NA,NA,NA,NA,NA,NA,NA,NA,NA,NA,NA,NA,NA,NA,NA,NA,NA,NA,sub120
d3-instructions,55,286180,0.0-55.0,TRUE,TRUE,FALSE,FALSE,"""event"",""trial"",""time""
""fullscreenenter"",""5"",""16988""
","
","
","""event"",""trial"",""time""
""fullscreenenter"",""5"",""16988""
","
",NA,NA,NA,NA,NA,NA,NA,NA,NA,NA,NA,NA,NA,NA,NA,NA,NA,NA,NA,NA,NA,NA,sub120
d3-instructions,56,288886,0.0-56.0,TRUE,TRUE,FALSE,FALSE,"""event"",""trial"",""time""
""fullscreenenter"",""5"",""16988""
","
","
","""event"",""trial"",""time""
""fullscreenenter"",""5"",""16988""
","
",NA,NA,NA,NA,NA,NA,NA,NA,NA,NA,NA,NA,NA,NA,NA,NA,NA,NA,NA,NA,NA,NA,sub120
d3-instructions,57,295344,0.0-57.0,TRUE,TRUE,FALSE,FALSE,"""event"",""trial"",""time""
""fullscreenenter"",""5"",""16988""
","
","
","""event"",""trial"",""time""
""fullscreenenter"",""5"",""16988""
","
",NA,NA,NA,NA,NA,NA,NA,NA,NA,NA,NA,NA,NA,NA,NA,NA,NA,NA,NA,NA,NA,NA,sub120
d3-instructions,58,305460,0.0-58.0,TRUE,TRUE,FALSE,FALSE,"""event"",""trial"",""time""
""fullscreenenter"",""5"",""16988""
","
","
","""event"",""trial"",""time""
""fullscreenenter"",""5"",""16988""
","
",NA,NA,NA,NA,NA,NA,NA,NA,NA,NA,NA,NA,NA,NA,NA,NA,NA,NA,NA,NA,NA,NA,sub120
d3-instructions,59,308277,0.0-59.0,TRUE,TRUE,FALSE,FALSE,"""event"",""trial"",""time""
""fullscreenenter"",""5"",""16988""
","
","
","""event"",""trial"",""time""
""fullscreenenter"",""5"",""16988""
","
",NA,NA,NA,NA,NA,NA,NA,NA,NA,NA,NA,NA,NA,NA,NA,NA,NA,NA,NA,NA,NA,NA,sub120
d3-instructions,60,312331,0.0-60.0,TRUE,TRUE,FALSE,FALSE,"""event"",""trial"",""time""
""fullscreenenter"",""5"",""16988""
","
","
","""event"",""trial"",""time""
""fullscreenenter"",""5"",""16988""
","
",NA,NA,NA,NA,NA,NA,NA,NA,NA,NA,NA,NA,NA,NA,NA,NA,NA,NA,NA,NA,NA,NA,sub120
d3-animate-choice,61,315131,0.0-61.0-0.0,TRUE,TRUE,FALSE,FALSE,"""event"",""trial"",""time""
""fullscreenenter"",""5"",""16988""
","
","
","""event"",""trial"",""time""
""fullscreenenter"",""5"",""16988""
","
",796.034999999858,NA,48,NA,NA,3000,1,NA,NA,images/earth.jpg,images/tutrocket1,images/tutrocket2,null,images/tutrocket1,NA,1,practice,null,2,NA,NA,NA,sub120
d3-animate-choice,62,318292,0.0-61.0-1.0,TRUE,TRUE,FALSE,FALSE,"""event"",""trial"",""time""
""fullscreenenter"",""5"",""16988""
","
","
","""event"",""trial"",""time""
""fullscreenenter"",""5"",""16988""
","
",1156.6349999998347,NA,49,NA,NA,3000,1,NA,NA,images/tutyellowplanet.jpg,images/tutalien4,images/tutalien3,images/tutrocket1,images/tutalien3,images/nothing.png,2,practice,false,1,rare,0,2020-06-22T01:21:48Z,sub120
two-step-fixation,63,319297,0.0-61.0-2.0,TRUE,TRUE,FALSE,FALSE,"""event"",""trial"",""time""
""fullscreenenter"",""5"",""16988""
","
","
","""event"",""trial"",""time""
""fullscreenenter"",""5"",""16988""
","
",NA,images/earth.jpg,NA,NA,NA,NA,NA,NA,NA,NA,NA,NA,NA,NA,NA,fixation,NA,NA,NA,NA,NA,NA,sub120
d3-animate-choice,64,322687,0.0-61.0-0.1,TRUE,TRUE,FALSE,FALSE,"""event"",""trial"",""time""
""fullscreenenter"",""5"",""16988""
","
","
","""event"",""trial"",""time""
""fullscreenenter"",""5"",""16988""
","
",1386.9100000002072,NA,49,NA,NA,3000,1,NA,NA,images/earth.jpg,images/tutrocket1,images/tutrocket2,null,images/tutrocket2,NA,1,practice,null,1,NA,NA,NA,sub120
d3-animate-choice,65,325113,0.0-61.0-1.1,TRUE,TRUE,FALSE,FALSE,"""event"",""trial"",""time""
""fullscreenenter"",""5"",""16988""
","
","
","""event"",""trial"",""time""
""fullscreenenter"",""5"",""16988""
","
",423.4000000001397,NA,48,NA,NA,3000,1,NA,NA,images/tutyellowplanet.jpg,images/tutalien4,images/tutalien3,images/tutrocket2,images/tutalien4,images/nothing.png,2,practice,true,2,common,0,2020-06-22T01:21:55Z,sub120
two-step-fixation,66,326115,0.0-61.0-2.1,TRUE,TRUE,FALSE,FALSE,"""event"",""trial"",""time""
""fullscreenenter"",""5"",""16988""
","
","
","""event"",""trial"",""time""
""fullscreenenter"",""5"",""16988""
","
",NA,images/earth.jpg,NA,NA,NA,NA,NA,NA,NA,NA,NA,NA,NA,NA,NA,fixation,NA,NA,NA,NA,NA,NA,sub120
d3-animate-choice,67,328579,0.0-61.0-0.2,TRUE,TRUE,FALSE,FALSE,"""event"",""trial"",""time""
""fullscreenenter"",""5"",""16988""
","
","
","""event"",""trial"",""time""
""fullscreenenter"",""5"",""16988""
","
",455.1049999999814,NA,49,NA,NA,3000,1,NA,NA,images/earth.jpg,images/tutrocket1,images/tutrocket2,null,images/tutrocket2,NA,1,practice,null,1,NA,NA,NA,sub120
d3-animate-choice,68,331150,0.0-61.0-1.2,TRUE,TRUE,FALSE,FALSE,"""event"",""trial"",""time""
""fullscreenenter"",""5"",""16988""
","
","
","""event"",""trial"",""time""
""fullscreenenter"",""5"",""16988""
","
",565.6950000002398,NA,49,NA,NA,3000,1,NA,NA,images/tutyellowplanet.jpg,images/tutalien4,images/tutalien3,images/tutrocket2,images/tutalien3,images/nothing.png,2,practice,true,1,common,0,2020-06-22T01:22:01Z,sub120
two-step-fixation,69,332155,0.0-61.0-2.2,TRUE,TRUE,FALSE,FALSE,"""event"",""trial"",""time""
""fullscreenenter"",""5"",""16988""
","
","
","""event"",""trial"",""time""
""fullscreenenter"",""5"",""16988""
","
",NA,images/earth.jpg,NA,NA,NA,NA,NA,NA,NA,NA,NA,NA,NA,NA,NA,fixation,NA,NA,NA,NA,NA,NA,sub120
d3-animate-choice,70,334593,0.0-61.0-0.3,TRUE,TRUE,FALSE,FALSE,"""event"",""trial"",""time""
""fullscreenenter"",""5"",""16988""
","
","
","""event"",""trial"",""time""
""fullscreenenter"",""5"",""16988""
","
",433.7799999998533,NA,49,NA,NA,3000,1,NA,NA,images/earth.jpg,images/tutrocket1,images/tutrocket2,null,images/tutrocket2,NA,1,practice,null,1,NA,NA,NA,sub120
d3-animate-choice,71,337014,0.0-61.0-1.3,TRUE,TRUE,FALSE,FALSE,"""event"",""trial"",""time""
""fullscreenenter"",""5"",""16988""
","
","
","""event"",""trial"",""time""
""fullscreenenter"",""5"",""16988""
","
",413.43499999993946,NA,48,NA,NA,3000,1,NA,NA,images/tutgreenplanet.jpg,images/tutalien2,images/tutalien1,images/tutrocket2,images/tutalien2,images/nothing.png,2,practice,false,2,rare,0,2020-06-22T01:22:07Z,sub120
two-step-fixation,72,338018,0.0-61.0-2.3,TRUE,TRUE,FALSE,FALSE,"""event"",""trial"",""time""
""fullscreenenter"",""5"",""16988""
","
","
","""event"",""trial"",""time""
""fullscreenenter"",""5"",""16988""
","
",NA,images/earth.jpg,NA,NA,NA,NA,NA,NA,NA,NA,NA,NA,NA,NA,NA,fixation,NA,NA,NA,NA,NA,NA,sub120
d3-animate-choice,73,340500,0.0-61.0-0.4,TRUE,TRUE,FALSE,FALSE,"""event"",""trial"",""time""
""fullscreenenter"",""5"",""16988""
","
","
","""event"",""trial"",""time""
""fullscreenenter"",""5"",""16988""
","
",477.0749999997788,NA,49,NA,NA,3000,1,NA,NA,images/earth.jpg,images/tutrocket1,images/tutrocket2,null,images/tutrocket2,NA,1,practice,null,1,NA,NA,NA,sub120
d3-animate-choice,74,343041,0.0-61.0-1.4,TRUE,TRUE,FALSE,FALSE,"""event"",""trial"",""time""
""fullscreenenter"",""5"",""16988""
","
","
","""event"",""trial"",""time""
""fullscreenenter"",""5"",""16988""
","
",536.0150000001304,NA,48,NA,NA,3000,1,NA,NA,images/tutgreenplanet.jpg,images/tutalien2,images/tutalien1,images/tutrocket2,images/tutalien2,images/nothing.png,2,practice,false,2,rare,0,2020-06-22T01:22:13Z,sub120
two-step-fixation,75,344044,0.0-61.0-2.4,TRUE,TRUE,FALSE,FALSE,"""event"",""trial"",""time""
""fullscreenenter"",""5"",""16988""
","
","
","""event"",""trial"",""time""
""fullscreenenter"",""5"",""16988""
","
",NA,images/earth.jpg,NA,NA,NA,NA,NA,NA,NA,NA,NA,NA,NA,NA,NA,fixation,NA,NA,NA,NA,NA,NA,sub120
d3-animate-choice,76,346558,0.0-61.0-0.5,TRUE,TRUE,FALSE,FALSE,"""event"",""trial"",""time""
""fullscreenenter"",""5"",""16988""
","
","
","""event"",""trial"",""time""
""fullscreenenter"",""5"",""16988""
","
",505.3099999999977,NA,48,NA,NA,3000,1,NA,NA,images/earth.jpg,images/tutrocket1,images/tutrocket2,null,images/tutrocket1,NA,1,practice,null,2,NA,NA,NA,sub120
d3-animate-choice,77,349042,0.0-61.0-1.5,TRUE,TRUE,FALSE,FALSE,"""event"",""trial"",""time""
""fullscreenenter"",""5"",""16988""
","
","
","""event"",""trial"",""time""
""fullscreenenter"",""5"",""16988""
","
",479.83500000007916,NA,49,NA,NA,3000,1,NA,NA,images/tutgreenplanet.jpg,images/tutalien2,images/tutalien1,images/tutrocket1,images/tutalien1,images/t.png,2,practice,true,1,common,1,2020-06-22T01:22:19Z,sub120
two-step-fixation,78,350046,0.0-61.0-2.5,TRUE,TRUE,FALSE,FALSE,"""event"",""trial"",""time""
""fullscreenenter"",""5"",""16988""
","
","
","""event"",""trial"",""time""
""fullscreenenter"",""5"",""16988""
","
",NA,images/earth.jpg,NA,NA,NA,NA,NA,NA,NA,NA,NA,NA,NA,NA,NA,fixation,NA,NA,NA,NA,NA,NA,sub120
d3-animate-choice,79,352471,0.0-61.0-0.6,TRUE,TRUE,FALSE,FALSE,"""event"",""trial"",""time""
""fullscreenenter"",""5"",""16988""
","
","
","""event"",""trial"",""time""
""fullscreenenter"",""5"",""16988""
","
",420.5449999999837,NA,48,NA,NA,3000,1,NA,NA,images/earth.jpg,images/tutrocket1,images/tutrocket2,null,images/tutrocket1,NA,1,practice,null,2,NA,NA,NA,sub120
d3-animate-choice,80,355118,0.0-61.0-1.6,TRUE,TRUE,FALSE,FALSE,"""event"",""trial"",""time""
""fullscreenenter"",""5"",""16988""
","
","
","""event"",""trial"",""time""
""fullscreenenter"",""5"",""16988""
","
",642.7950000002165,NA,49,NA,NA,3000,1,NA,NA,images/tutgreenplanet.jpg,images/tutalien2,images/tutalien1,images/tutrocket1,images/tutalien1,images/nothing.png,2,practice,true,1,common,0,2020-06-22T01:22:25Z,sub120
two-step-fixation,81,356122,0.0-61.0-2.6,TRUE,TRUE,FALSE,FALSE,"""event"",""trial"",""time""
""fullscreenenter"",""5"",""16988""
","
","
","""event"",""trial"",""time""
""fullscreenenter"",""5"",""16988""
","
",NA,images/earth.jpg,NA,NA,NA,NA,NA,NA,NA,NA,NA,NA,NA,NA,NA,fixation,NA,NA,NA,NA,NA,NA,sub120
d3-animate-choice,82,359220,0.0-61.0-0.7,TRUE,TRUE,FALSE,FALSE,"""event"",""trial"",""time""
""fullscreenenter"",""5"",""16988""
","
","
","""event"",""trial"",""time""
""fullscreenenter"",""5"",""16988""
","
",1092.7500000002328,NA,48,NA,NA,3000,1,NA,NA,images/earth.jpg,images/tutrocket1,images/tutrocket2,null,images/tutrocket1,NA,1,practice,null,2,NA,NA,NA,sub120
d3-animate-choice,83,361642,0.0-61.0-1.7,TRUE,TRUE,FALSE,FALSE,"""event"",""trial"",""time""
""fullscreenenter"",""5"",""16988""
","
","
","""event"",""trial"",""time""
""fullscreenenter"",""5"",""16988""
","
",414.80000000004657,NA,48,NA,NA,3000,1,NA,NA,images/tutyellowplanet.jpg,images/tutalien4,images/tutalien3,images/tutrocket1,images/tutalien4,images/t.png,2,practice,false,2,rare,1,2020-06-22T01:22:32Z,sub120
two-step-fixation,84,362648,0.0-61.0-2.7,TRUE,TRUE,FALSE,FALSE,"""event"",""trial"",""time""
""fullscreenenter"",""5"",""16988""
","
","
","""event"",""trial"",""time""
""fullscreenenter"",""5"",""16988""
","
",NA,images/earth.jpg,NA,NA,NA,NA,NA,NA,NA,NA,NA,NA,NA,NA,NA,fixation,NA,NA,NA,NA,NA,NA,sub120
d3-animate-choice,85,365635,0.0-61.0-0.8,TRUE,TRUE,FALSE,FALSE,"""event"",""trial"",""time""
""fullscreenenter"",""5"",""16988""
","
","
","""event"",""trial"",""time""
""fullscreenenter"",""5"",""16988""
","
",981.3500000000349,NA,48,NA,NA,3000,1,NA,NA,images/earth.jpg,images/tutrocket1,images/tutrocket2,null,images/tutrocket1,NA,1,practice,null,2,NA,NA,NA,sub120
d3-animate-choice,86,368167,0.0-61.0-1.8,TRUE,TRUE,FALSE,FALSE,"""event"",""trial"",""time""
""fullscreenenter"",""5"",""16988""
","
","
","""event"",""trial"",""time""
""fullscreenenter"",""5"",""16988""
","
",526.2750000001979,NA,48,NA,NA,3000,1,NA,NA,images/tutyellowplanet.jpg,images/tutalien4,images/tutalien3,images/tutrocket1,images/tutalien4,images/t.png,2,practice,false,2,rare,1,2020-06-22T01:22:38Z,sub120
two-step-fixation,87,369170,0.0-61.0-2.8,TRUE,TRUE,FALSE,FALSE,"""event"",""trial"",""time""
""fullscreenenter"",""5"",""16988""
","
","
","""event"",""trial"",""time""
""fullscreenenter"",""5"",""16988""
","
",NA,images/earth.jpg,NA,NA,NA,NA,NA,NA,NA,NA,NA,NA,NA,NA,NA,fixation,NA,NA,NA,NA,NA,NA,sub120
d3-animate-choice,88,371625,0.0-61.0-0.9,TRUE,TRUE,FALSE,FALSE,"""event"",""trial"",""time""
""fullscreenenter"",""5"",""16988""
","
","
","""event"",""trial"",""time""
""fullscreenenter"",""5"",""16988""
","
",451.60000000032596,NA,48,NA,NA,3000,1,NA,NA,images/earth.jpg,images/tutrocket1,images/tutrocket2,null,images/tutrocket1,NA,1,practice,null,2,NA,NA,NA,sub120
d3-animate-choice,89,374319,0.0-61.0-1.9,TRUE,TRUE,FALSE,FALSE,"""event"",""trial"",""time""
""fullscreenenter"",""5"",""16988""
","
","
","""event"",""trial"",""time""
""fullscreenenter"",""5"",""16988""
","
",685.5850000001956,NA,48,NA,NA,3000,1,NA,NA,images/tutgreenplanet.jpg,images/tutalien2,images/tutalien1,images/tutrocket1,images/tutalien2,images/nothing.png,2,practice,true,2,common,0,2020-06-22T01:22:44Z,sub120
two-step-fixation,90,375324,0.0-61.0-2.9,TRUE,TRUE,FALSE,FALSE,"""event"",""trial"",""time""
""fullscreenenter"",""5"",""16988""
","
","
","""event"",""trial"",""time""
""fullscreenenter"",""5"",""16988""
","
",NA,images/earth.jpg,NA,NA,NA,NA,NA,NA,NA,NA,NA,NA,NA,NA,NA,fixation,NA,NA,NA,NA,NA,NA,sub120
d3-animate-choice,91,377999,0.0-61.0-0.10,TRUE,TRUE,FALSE,FALSE,"""event"",""trial"",""time""
""fullscreenenter"",""5"",""16988""
","
","
","""event"",""trial"",""time""
""fullscreenenter"",""5"",""16988""
","
",672.164999999979,NA,48,NA,NA,3000,1,NA,NA,images/earth.jpg,images/tutrocket1,images/tutrocket2,null,images/tutrocket1,NA,1,practice,null,2,NA,NA,NA,sub120
d3-animate-choice,92,380724,0.0-61.0-1.10,TRUE,TRUE,FALSE,FALSE,"""event"",""trial"",""time""
""fullscreenenter"",""5"",""16988""
","
","
","""event"",""trial"",""time""
""fullscreenenter"",""5"",""16988""
","
",715.839999999851,NA,49,NA,NA,3000,1,NA,NA,images/tutgreenplanet.jpg,images/tutalien2,images/tutalien1,images/tutrocket1,images/tutalien1,images/t.png,2,practice,true,1,common,1,2020-06-22T01:22:51Z,sub120
two-step-fixation,93,381730,0.0-61.0-2.10,TRUE,TRUE,FALSE,FALSE,"""event"",""trial"",""time""
""fullscreenenter"",""5"",""16988""
","
","
","""event"",""trial"",""time""
""fullscreenenter"",""5"",""16988""
","
",NA,images/earth.jpg,NA,NA,NA,NA,NA,NA,NA,NA,NA,NA,NA,NA,NA,fixation,NA,NA,NA,NA,NA,NA,sub120
d3-animate-choice,94,384347,0.0-61.0-0.11,TRUE,TRUE,FALSE,FALSE,"""event"",""trial"",""time""
""fullscreenenter"",""5"",""16988""
","
","
","""event"",""trial"",""time""
""fullscreenenter"",""5"",""16988""
","
",612.2649999997229,NA,48,NA,NA,3000,1,NA,NA,images/earth.jpg,images/tutrocket1,images/tutrocket2,null,images/tutrocket1,NA,1,practice,null,2,NA,NA,NA,sub120
d3-animate-choice,95,386960,0.0-61.0-1.11,TRUE,TRUE,FALSE,FALSE,"""event"",""trial"",""time""
""fullscreenenter"",""5"",""16988""
","
","
","""event"",""trial"",""time""
""fullscreenenter"",""5"",""16988""
","
",608.5650000000023,NA,49,NA,NA,3000,1,NA,NA,images/tutgreenplanet.jpg,images/tutalien2,images/tutalien1,images/tutrocket1,images/tutalien1,images/nothing.png,2,practice,true,1,common,0,2020-06-22T01:22:57Z,sub120
two-step-fixation,96,387965,0.0-61.0-2.11,TRUE,TRUE,FALSE,FALSE,"""event"",""trial"",""time""
""fullscreenenter"",""5"",""16988""
","
","
","""event"",""trial"",""time""
""fullscreenenter"",""5"",""16988""
","
",NA,images/earth.jpg,NA,NA,NA,NA,NA,NA,NA,NA,NA,NA,NA,NA,NA,fixation,NA,NA,NA,NA,NA,NA,sub120
d3-animate-choice,97,390811,0.0-61.0-0.12,TRUE,TRUE,FALSE,FALSE,"""event"",""trial"",""time""
""fullscreenenter"",""5"",""16988""
","
","
","""event"",""trial"",""time""
""fullscreenenter"",""5"",""16988""
","
",842.5050000001211,NA,49,NA,NA,3000,1,NA,NA,images/earth.jpg,images/tutrocket1,images/tutrocket2,null,images/tutrocket2,NA,1,practice,null,1,NA,NA,NA,sub120
d3-animate-choice,98,393425,0.0-61.0-1.12,TRUE,TRUE,FALSE,FALSE,"""event"",""trial"",""time""
""fullscreenenter"",""5"",""16988""
","
","
","""event"",""trial"",""time""
""fullscreenenter"",""5"",""16988""
","
",610.3499999999185,NA,48,NA,NA,3000,1,NA,NA,images/tutyellowplanet.jpg,images/tutalien4,images/tutalien3,images/tutrocket2,images/tutalien4,images/t.png,2,practice,true,2,common,1,2020-06-22T01:23:03Z,sub120
two-step-fixation,99,394428,0.0-61.0-2.12,TRUE,TRUE,FALSE,FALSE,"""event"",""trial"",""time""
""fullscreenenter"",""5"",""16988""
","
","
","""event"",""trial"",""time""
""fullscreenenter"",""5"",""16988""
","
",NA,images/earth.jpg,NA,NA,NA,NA,NA,NA,NA,NA,NA,NA,NA,NA,NA,fixation,NA,NA,NA,NA,NA,NA,sub120
d3-animate-choice,100,396828,0.0-61.0-0.13,TRUE,TRUE,FALSE,FALSE,"""event"",""trial"",""time""
""fullscreenenter"",""5"",""16988""
","
","
","""event"",""trial"",""time""
""fullscreenenter"",""5"",""16988""
","
",391.1250000001164,NA,49,NA,NA,3000,1,NA,NA,images/earth.jpg,images/tutrocket1,images/tutrocket2,null,images/tutrocket2,NA,1,practice,null,1,NA,NA,NA,sub120
d3-animate-choice,101,399374,0.0-61.0-1.13,TRUE,TRUE,FALSE,FALSE,"""event"",""trial"",""time""
""fullscreenenter"",""5"",""16988""
","
","
","""event"",""trial"",""time""
""fullscreenenter"",""5"",""16988""
","
",538.5599999999395,NA,48,NA,NA,3000,1,NA,NA,images/tutyellowplanet.jpg,images/tutalien4,images/tutalien3,images/tutrocket2,images/tutalien4,images/t.png,2,practice,true,2,common,1,2020-06-22T01:23:09Z,sub120
two-step-fixation,102,400378,0.0-61.0-2.13,TRUE,TRUE,FALSE,FALSE,"""event"",""trial"",""time""
""fullscreenenter"",""5"",""16988""
","
","
","""event"",""trial"",""time""
""fullscreenenter"",""5"",""16988""
","
",NA,images/earth.jpg,NA,NA,NA,NA,NA,NA,NA,NA,NA,NA,NA,NA,NA,fixation,NA,NA,NA,NA,NA,NA,sub120
d3-animate-choice,103,402796,0.0-61.0-0.14,TRUE,TRUE,FALSE,FALSE,"""event"",""trial"",""time""
""fullscreenenter"",""5"",""16988""
","
","
","""event"",""trial"",""time""
""fullscreenenter"",""5"",""16988""
","
",412.6700000001583,NA,49,NA,NA,3000,1,NA,NA,images/earth.jpg,images/tutrocket1,images/tutrocket2,null,images/tutrocket2,NA,1,practice,null,1,NA,NA,NA,sub120
d3-animate-choice,104,405197,0.0-61.0-1.14,TRUE,TRUE,FALSE,FALSE,"""event"",""trial"",""time""
""fullscreenenter"",""5"",""16988""
","
","
","""event"",""trial"",""time""
""fullscreenenter"",""5"",""16988""
","
",392.8049999999348,NA,48,NA,NA,3000,1,NA,NA,images/tutgreenplanet.jpg,images/tutalien2,images/tutalien1,images/tutrocket2,images/tutalien2,images/t.png,2,practice,false,2,rare,1,2020-06-22T01:23:15Z,sub120
two-step-fixation,105,406201,0.0-61.0-2.14,TRUE,TRUE,FALSE,FALSE,"""event"",""trial"",""time""
""fullscreenenter"",""5"",""16988""
","
","
","""event"",""trial"",""time""
""fullscreenenter"",""5"",""16988""
","
",NA,images/earth.jpg,NA,NA,NA,NA,NA,NA,NA,NA,NA,NA,NA,NA,NA,fixation,NA,NA,NA,NA,NA,NA,sub120
d3-animate-choice,106,408826,0.0-61.0-0.15,TRUE,TRUE,FALSE,FALSE,"""event"",""trial"",""time""
""fullscreenenter"",""5"",""16988""
","
","
","""event"",""trial"",""time""
""fullscreenenter"",""5"",""16988""
","
",616.1350000001839,NA,49,NA,NA,3000,1,NA,NA,images/earth.jpg,images/tutrocket1,images/tutrocket2,null,images/tutrocket2,NA,1,practice,null,1,NA,NA,NA,sub120
d3-animate-choice,107,411263,0.0-61.0-1.15,TRUE,TRUE,FALSE,FALSE,"""event"",""trial"",""time""
""fullscreenenter"",""5"",""16988""
","
","
","""event"",""trial"",""time""
""fullscreenenter"",""5"",""16988""
","
",433.9800000002142,NA,48,NA,NA,3000,1,NA,NA,images/tutyellowplanet.jpg,images/tutalien4,images/tutalien3,images/tutrocket2,images/tutalien4,images/t.png,2,practice,true,2,common,1,2020-06-22T01:23:21Z,sub120
two-step-fixation,108,412268,0.0-61.0-2.15,TRUE,TRUE,FALSE,FALSE,"""event"",""trial"",""time""
""fullscreenenter"",""5"",""16988""
","
","
","""event"",""trial"",""time""
""fullscreenenter"",""5"",""16988""
","
",NA,images/earth.jpg,NA,NA,NA,NA,NA,NA,NA,NA,NA,NA,NA,NA,NA,fixation,NA,NA,NA,NA,NA,NA,sub120
d3-animate-choice,109,414695,0.0-61.0-0.16,TRUE,TRUE,FALSE,FALSE,"""event"",""trial"",""time""
""fullscreenenter"",""5"",""16988""
","
","
","""event"",""trial"",""time""
""fullscreenenter"",""5"",""16988""
","
",422.9649999997346,NA,49,NA,NA,3000,1,NA,NA,images/earth.jpg,images/tutrocket1,images/tutrocket2,null,images/tutrocket2,NA,1,practice,null,1,NA,NA,NA,sub120
d3-animate-choice,110,417077,0.0-61.0-1.16,TRUE,TRUE,FALSE,FALSE,"""event"",""trial"",""time""
""fullscreenenter"",""5"",""16988""
","
","
","""event"",""trial"",""time""
""fullscreenenter"",""5"",""16988""
","
",377.6349999998347,NA,48,NA,NA,3000,1,NA,NA,images/tutyellowplanet.jpg,images/tutalien4,images/tutalien3,images/tutrocket2,images/tutalien4,images/nothing.png,2,practice,true,2,common,0,2020-06-22T01:23:27Z,sub120
two-step-fixation,111,418081,0.0-61.0-2.16,TRUE,TRUE,FALSE,FALSE,"""event"",""trial"",""time""
""fullscreenenter"",""5"",""16988""
","
","
","""event"",""trial"",""time""
""fullscreenenter"",""5"",""16988""
","
",NA,images/earth.jpg,NA,NA,NA,NA,NA,NA,NA,NA,NA,NA,NA,NA,NA,fixation,NA,NA,NA,NA,NA,NA,sub120
d3-animate-choice,112,420995,0.0-61.0-0.17,TRUE,TRUE,FALSE,FALSE,"""event"",""trial"",""time""
""fullscreenenter"",""5"",""16988""
","
","
","""event"",""trial"",""time""
""fullscreenenter"",""5"",""16988""
","
",910.0399999997462,NA,48,NA,NA,3000,1,NA,NA,images/earth.jpg,images/tutrocket1,images/tutrocket2,null,images/tutrocket1,NA,1,practice,null,2,NA,NA,NA,sub120
d3-animate-choice,113,423582,0.0-61.0-1.17,TRUE,TRUE,FALSE,FALSE,"""event"",""trial"",""time""
""fullscreenenter"",""5"",""16988""
","
","
","""event"",""trial"",""time""
""fullscreenenter"",""5"",""16988""
","
",580.554999999993,NA,49,NA,NA,3000,1,NA,NA,images/tutgreenplanet.jpg,images/tutalien2,images/tutalien1,images/tutrocket1,images/tutalien1,images/nothing.png,2,practice,true,1,common,0,2020-06-22T01:23:34Z,sub120
two-step-fixation,114,424590,0.0-61.0-2.17,TRUE,TRUE,FALSE,FALSE,"""event"",""trial"",""time""
""fullscreenenter"",""5"",""16988""
","
","
","""event"",""trial"",""time""
""fullscreenenter"",""5"",""16988""
","
",NA,images/earth.jpg,NA,NA,NA,NA,NA,NA,NA,NA,NA,NA,NA,NA,NA,fixation,NA,NA,NA,NA,NA,NA,sub120
d3-animate-choice,115,427108,0.0-61.0-0.18,TRUE,TRUE,FALSE,FALSE,"""event"",""trial"",""time""
""fullscreenenter"",""5"",""16988""
","
","
","""event"",""trial"",""time""
""fullscreenenter"",""5"",""16988""
","
",511.9199999999255,NA,48,NA,NA,3000,1,NA,NA,images/earth.jpg,images/tutrocket1,images/tutrocket2,null,images/tutrocket1,NA,1,practice,null,2,NA,NA,NA,sub120
d3-animate-choice,116,429520,0.0-61.0-1.18,TRUE,TRUE,FALSE,FALSE,"""event"",""trial"",""time""
""fullscreenenter"",""5"",""16988""
","
","
","""event"",""trial"",""time""
""fullscreenenter"",""5"",""16988""
","
",403.87999999983003,NA,48,NA,NA,3000,1,NA,NA,images/tutgreenplanet.jpg,images/tutalien2,images/tutalien1,images/tutrocket1,images/tutalien2,images/t.png,2,practice,true,2,common,1,2020-06-22T01:23:39Z,sub120
two-step-fixation,117,430523,0.0-61.0-2.18,TRUE,TRUE,FALSE,FALSE,"""event"",""trial"",""time""
""fullscreenenter"",""5"",""16988""
","
","
","""event"",""trial"",""time""
""fullscreenenter"",""5"",""16988""
","
",NA,images/earth.jpg,NA,NA,NA,NA,NA,NA,NA,NA,NA,NA,NA,NA,NA,fixation,NA,NA,NA,NA,NA,NA,sub120
d3-animate-choice,118,432922,0.0-61.0-0.19,TRUE,TRUE,FALSE,FALSE,"""event"",""trial"",""time""
""fullscreenenter"",""5"",""16988""
","
","
","""event"",""trial"",""time""
""fullscreenenter"",""5"",""16988""
","
",393.9949999998789,NA,48,NA,NA,3000,1,NA,NA,images/earth.jpg,images/tutrocket1,images/tutrocket2,null,images/tutrocket1,NA,1,practice,null,2,NA,NA,NA,sub120
d3-animate-choice,119,435401,0.0-61.0-1.19,TRUE,TRUE,FALSE,FALSE,"""event"",""trial"",""time""
""fullscreenenter"",""5"",""16988""
","
","
","""event"",""trial"",""time""
""fullscreenenter"",""5"",""16988""
","
",474.63999999989755,NA,48,NA,NA,3000,1,NA,NA,images/tutgreenplanet.jpg,images/tutalien2,images/tutalien1,images/tutrocket1,images/tutalien2,images/nothing.png,2,practice,true,2,common,0,2020-06-22T01:23:45Z,sub120
two-step-fixation,120,436406,0.0-61.0-2.19,TRUE,TRUE,FALSE,FALSE,"""event"",""trial"",""time""
""fullscreenenter"",""5"",""16988""
","
","
","""event"",""trial"",""time""
""fullscreenenter"",""5"",""16988""
","
",NA,images/earth.jpg,NA,NA,NA,NA,NA,NA,NA,NA,NA,NA,NA,NA,NA,fixation,NA,NA,NA,NA,NA,NA,sub120
d3-instructions,121,442774,0.0-62.0,TRUE,TRUE,FALSE,FALSE,"""event"",""trial"",""time""
""fullscreenenter"",""5"",""16988""
","
","
","""event"",""trial"",""time""
""fullscreenenter"",""5"",""16988""
","
",NA,NA,NA,NA,NA,NA,NA,NA,NA,NA,NA,NA,NA,NA,NA,NA,NA,NA,NA,NA,NA,NA,sub120
audio-keyboard-response,122,449020,0.0-63.0,TRUE,TRUE,FALSE,FALSE,"""event"",""trial"",""time""
""fullscreenenter"",""5"",""16988""
","
","
","""event"",""trial"",""time""
""fullscreenenter"",""5"",""16988""
","
",6246,audio/instructions/treasure_feedback.wav,32,NA,NA,NA,NA,NA,NA,NA,NA,NA,NA,NA,NA,NA,NA,NA,NA,NA,NA,NA,sub120
d3-instructions,123,458200,0.0-64.0,TRUE,TRUE,FALSE,FALSE,"""event"",""trial"",""time""
""fullscreenenter"",""5"",""16988""
","
","
","""event"",""trial"",""time""
""fullscreenenter"",""5"",""16988""
","
",NA,NA,NA,NA,NA,NA,NA,NA,NA,NA,NA,NA,NA,NA,NA,NA,NA,NA,NA,NA,NA,NA,sub120
d3-instructions,124,470502,0.0-65.0,TRUE,TRUE,FALSE,FALSE,"""event"",""trial"",""time""
""fullscreenenter"",""5"",""16988""
","
","
","""event"",""trial"",""time""
""fullscreenenter"",""5"",""16988""
","
",NA,NA,NA,NA,NA,NA,NA,NA,NA,NA,NA,NA,NA,NA,NA,NA,NA,NA,NA,NA,NA,NA,sub120
d3-instructions,125,480237,0.0-66.0,TRUE,TRUE,FALSE,FALSE,"""event"",""trial"",""time""
""fullscreenenter"",""5"",""16988""
","
","
","""event"",""trial"",""time""
""fullscreenenter"",""5"",""16988""
","
",NA,NA,NA,NA,NA,NA,NA,NA,NA,NA,NA,NA,NA,NA,NA,NA,NA,NA,NA,NA,NA,NA,sub120
d3-instructions,126,485071,0.0-67.0,TRUE,TRUE,FALSE,FALSE,"""event"",""trial"",""time""
""fullscreenenter"",""5"",""16988""
","
","
","""event"",""trial"",""time""
""fullscreenenter"",""5"",""16988""
","
",NA,NA,NA,NA,NA,NA,NA,NA,NA,NA,NA,NA,NA,NA,NA,NA,NA,NA,NA,NA,NA,NA,sub120
d3-instructions,127,488585,0.0-68.0,TRUE,TRUE,FALSE,FALSE,"""event"",""trial"",""time""
""fullscreenenter"",""5"",""16988""
","
","
","""event"",""trial"",""time""
""fullscreenenter"",""5"",""16988""
","
",NA,NA,NA,NA,NA,NA,NA,NA,NA,NA,NA,NA,NA,NA,NA,NA,NA,NA,NA,NA,NA,NA,sub120
instructions-quiz,128,491435,0.0-69.0,TRUE,TRUE,FALSE,FALSE,"""event"",""trial"",""time""
""fullscreenenter"",""5"",""16988""
","
","
","""event"",""trial"",""time""
""fullscreenenter"",""5"",""16988""
","
",2847.9149999998044,audio/quiz/Q1_Prompt.wav,NA,1,NA,NA,NA,NA,NA,NA,NA,NA,NA,NA,NA,NA,NA,NA,NA,NA,NA,NA,sub120
audio-keyboard-response,129,492820,0.0-70.0,TRUE,TRUE,FALSE,FALSE,"""event"",""trial"",""time""
""fullscreenenter"",""5"",""16988""
","
","
","""event"",""trial"",""time""
""fullscreenenter"",""5"",""16988""
","
",1387,audio/quiz/Q1_Correct.wav,32,NA,NA,NA,NA,NA,NA,NA,NA,NA,NA,NA,NA,NA,NA,NA,NA,NA,NA,NA,sub120
instructions-quiz,130,497192,0.0-71.0,TRUE,TRUE,FALSE,FALSE,"""event"",""trial"",""time""
""fullscreenenter"",""5"",""16988""
","
","
","""event"",""trial"",""time""
""fullscreenenter"",""5"",""16988""
","
",4370.0999999996275,audio/quiz/Q2_Prompt.wav,NA,0,NA,NA,NA,NA,NA,NA,NA,NA,NA,NA,NA,NA,NA,NA,NA,NA,NA,NA,sub120
audio-keyboard-response,131,501398,0.0-72.0,TRUE,TRUE,FALSE,FALSE,"""event"",""trial"",""time""
""fullscreenenter"",""5"",""16988""
","
","
","""event"",""trial"",""time""
""fullscreenenter"",""5"",""16988""
","
",4203,audio/quiz/Q2_Correct.wav,32,NA,NA,NA,NA,NA,NA,NA,NA,NA,NA,NA,NA,NA,NA,NA,NA,NA,NA,NA,sub120
instructions-quiz,132,504543,0.0-73.0,TRUE,TRUE,FALSE,FALSE,"""event"",""trial"",""time""
""fullscreenenter"",""5"",""16988""
","
","
","""event"",""trial"",""time""
""fullscreenenter"",""5"",""16988""
","
",3143.630000000063,audio/quiz/Q3_Prompt.wav,NA,1,NA,NA,NA,NA,NA,NA,NA,NA,NA,NA,NA,NA,NA,NA,NA,NA,NA,NA,sub120
audio-keyboard-response,133,505772,0.0-74.0,TRUE,TRUE,FALSE,FALSE,"""event"",""trial"",""time""
""fullscreenenter"",""5"",""16988""
","
","
","""event"",""trial"",""time""
""fullscreenenter"",""5"",""16988""
","
",1231,audio/quiz/Q3_Correct.wav,32,NA,NA,NA,NA,NA,NA,NA,NA,NA,NA,NA,NA,NA,NA,NA,NA,NA,NA,NA,sub120
d3-instructions,134,508964,0.0-75.0,TRUE,TRUE,FALSE,FALSE,"""event"",""trial"",""time""
""fullscreenenter"",""5"",""16988""
","
","
","""event"",""trial"",""time""
""fullscreenenter"",""5"",""16988""
","
",NA,NA,NA,NA,NA,NA,NA,NA,NA,NA,NA,NA,NA,NA,NA,NA,NA,NA,NA,NA,NA,NA,sub120
d3-animate-choice,135,512028,0.0-76.0-0.0,TRUE,TRUE,FALSE,FALSE,"""event"",""trial"",""time""
""fullscreenenter"",""5"",""16988""
","
","
","""event"",""trial"",""time""
""fullscreenenter"",""5"",""16988""
","
",1056.4549999998417,NA,49,NA,NA,3000,1,NA,NA,images/earth.jpg,images/rocket2,images/rocket1,null,images/rocket1,NA,1,real,null,1,NA,NA,NA,sub120
d3-animate-choice,136,514960,0.0-76.0-1.0,TRUE,TRUE,FALSE,FALSE,"""event"",""trial"",""time""
""fullscreenenter"",""5"",""16988""
","
","
","""event"",""trial"",""time""
""fullscreenenter"",""5"",""16988""
","
",929.5900000002002,NA,49,NA,NA,3000,1,NA,NA,images/purpleplanet.jpg,images/alien4,images/alien3,images/rocket1,images/alien3,images/nothing.png,2,real,false,1,rare,0,2020-06-22T01:25:05Z,sub120
two-step-fixation,137,515963,0.0-76.0-2.0,TRUE,TRUE,FALSE,FALSE,"""event"",""trial"",""time""
""fullscreenenter"",""5"",""16988""
","
","
","""event"",""trial"",""time""
""fullscreenenter"",""5"",""16988""
","
",NA,images/earth.jpg,NA,NA,NA,NA,NA,NA,NA,NA,NA,NA,NA,NA,NA,fixation,NA,NA,NA,NA,NA,NA,sub120
d3-animate-choice,138,518350,0.0-76.0-0.1,TRUE,TRUE,FALSE,FALSE,"""event"",""trial"",""time""
""fullscreenenter"",""5"",""16988""
","
","
","""event"",""trial"",""time""
""fullscreenenter"",""5"",""16988""
","
",384.3100000004051,NA,49,NA,NA,3000,1,NA,NA,images/earth.jpg,images/rocket2,images/rocket1,null,images/rocket1,NA,1,real,null,1,NA,NA,NA,sub120
d3-animate-choice,139,520747,0.0-76.0-1.1,TRUE,TRUE,FALSE,FALSE,"""event"",""trial"",""time""
""fullscreenenter"",""5"",""16988""
","
","
","""event"",""trial"",""time""
""fullscreenenter"",""5"",""16988""
","
",395.5900000000838,NA,48,NA,NA,3000,1,NA,NA,images/purpleplanet.jpg,images/alien4,images/alien3,images/rocket1,images/alien4,images/t.png,2,real,false,2,rare,1,2020-06-22T01:25:11Z,sub120
two-step-fixation,140,521752,0.0-76.0-2.1,TRUE,TRUE,FALSE,FALSE,"""event"",""trial"",""time""
""fullscreenenter"",""5"",""16988""
","
","
","""event"",""trial"",""time""
""fullscreenenter"",""5"",""16988""
","
",NA,images/earth.jpg,NA,NA,NA,NA,NA,NA,NA,NA,NA,NA,NA,NA,NA,fixation,NA,NA,NA,NA,NA,NA,sub120
d3-animate-choice,141,524161,0.0-76.0-0.2,TRUE,TRUE,FALSE,FALSE,"""event"",""trial"",""time""
""fullscreenenter"",""5"",""16988""
","
","
","""event"",""trial"",""time""
""fullscreenenter"",""5"",""16988""
","
",406.5700000000652,NA,49,NA,NA,3000,1,NA,NA,images/earth.jpg,images/rocket2,images/rocket1,null,images/rocket1,NA,1,real,null,1,NA,NA,NA,sub120
d3-animate-choice,142,526552,0.0-76.0-1.2,TRUE,TRUE,FALSE,FALSE,"""event"",""trial"",""time""
""fullscreenenter"",""5"",""16988""
","
","
","""event"",""trial"",""time""
""fullscreenenter"",""5"",""16988""
","
",386.53000000026077,NA,48,NA,NA,3000,1,NA,NA,images/redplanet1.jpg,images/alien2,images/alien1,images/rocket1,images/alien2,images/nothing.png,2,real,true,2,common,0,2020-06-22T01:25:16Z,sub120
two-step-fixation,143,527556,0.0-76.0-2.2,TRUE,TRUE,FALSE,FALSE,"""event"",""trial"",""time""
""fullscreenenter"",""5"",""16988""
","
","
","""event"",""trial"",""time""
""fullscreenenter"",""5"",""16988""
","
",NA,images/earth.jpg,NA,NA,NA,NA,NA,NA,NA,NA,NA,NA,NA,NA,NA,fixation,NA,NA,NA,NA,NA,NA,sub120
d3-animate-choice,144,530049,0.0-76.0-0.3,TRUE,TRUE,FALSE,FALSE,"""event"",""trial"",""time""
""fullscreenenter"",""5"",""16988""
","
","
","""event"",""trial"",""time""
""fullscreenenter"",""5"",""16988""
","
",489.0050000003539,NA,49,NA,NA,3000,1,NA,NA,images/earth.jpg,images/rocket2,images/rocket1,null,images/rocket1,NA,1,real,null,1,NA,NA,NA,sub120
d3-animate-choice,145,533164,0.0-76.0-1.3,TRUE,TRUE,FALSE,FALSE,"""event"",""trial"",""time""
""fullscreenenter"",""5"",""16988""
","
","
","""event"",""trial"",""time""
""fullscreenenter"",""5"",""16988""
","
",1112.8499999999767,NA,49,NA,NA,3000,1,NA,NA,images/redplanet1.jpg,images/alien2,images/alien1,images/rocket1,images/alien1,images/t.png,2,real,true,1,common,1,2020-06-22T01:25:23Z,sub120
two-step-fixation,146,534169,0.0-76.0-2.3,TRUE,TRUE,FALSE,FALSE,"""event"",""trial"",""time""
""fullscreenenter"",""5"",""16988""
","
","
","""event"",""trial"",""time""
""fullscreenenter"",""5"",""16988""
","
",NA,images/earth.jpg,NA,NA,NA,NA,NA,NA,NA,NA,NA,NA,NA,NA,NA,fixation,NA,NA,NA,NA,NA,NA,sub120
d3-animate-choice,147,536619,0.0-76.0-0.4,TRUE,TRUE,FALSE,FALSE,"""event"",""trial"",""time""
""fullscreenenter"",""5"",""16988""
","
","
","""event"",""trial"",""time""
""fullscreenenter"",""5"",""16988""
","
",443.78000000002794,NA,49,NA,NA,3000,1,NA,NA,images/earth.jpg,images/rocket2,images/rocket1,null,images/rocket1,NA,1,real,null,1,NA,NA,NA,sub120
d3-animate-choice,148,539813,0.0-76.0-1.4,TRUE,TRUE,FALSE,FALSE,"""event"",""trial"",""time""
""fullscreenenter"",""5"",""16988""
","
","
","""event"",""trial"",""time""
""fullscreenenter"",""5"",""16988""
","
",1190.259999999893,NA,49,NA,NA,3000,1,NA,NA,images/redplanet1.jpg,images/alien2,images/alien1,images/rocket1,images/alien1,images/nothing.png,2,real,true,1,common,0,2020-06-22T01:25:30Z,sub120
two-step-fixation,149,540817,0.0-76.0-2.4,TRUE,TRUE,FALSE,FALSE,"""event"",""trial"",""time""
""fullscreenenter"",""5"",""16988""
","
","
","""event"",""trial"",""time""
""fullscreenenter"",""5"",""16988""
","
",NA,images/earth.jpg,NA,NA,NA,NA,NA,NA,NA,NA,NA,NA,NA,NA,NA,fixation,NA,NA,NA,NA,NA,NA,sub120
d3-animate-choice,150,543251,0.0-76.0-0.5,TRUE,TRUE,FALSE,FALSE,"""event"",""trial"",""time""
""fullscreenenter"",""5"",""16988""
","
","
","""event"",""trial"",""time""
""fullscreenenter"",""5"",""16988""
","
",427.77000000025146,NA,48,NA,NA,3000,1,NA,NA,images/earth.jpg,images/rocket2,images/rocket1,null,images/rocket2,NA,1,real,null,2,NA,NA,NA,sub120
d3-animate-choice,151,546047,0.0-76.0-1.5,TRUE,TRUE,FALSE,FALSE,"""event"",""trial"",""time""
""fullscreenenter"",""5"",""16988""
","
","
","""event"",""trial"",""time""
""fullscreenenter"",""5"",""16988""
","
",791.6249999998836,NA,49,NA,NA,3000,1,NA,NA,images/purpleplanet.jpg,images/alien4,images/alien3,images/rocket2,images/alien3,images/t.png,2,real,true,1,common,1,2020-06-22T01:25:36Z,sub120
two-step-fixation,152,547051,0.0-76.0-2.5,TRUE,TRUE,FALSE,FALSE,"""event"",""trial"",""time""
""fullscreenenter"",""5"",""16988""
","
","
","""event"",""trial"",""time""
""fullscreenenter"",""5"",""16988""
","
",NA,images/earth.jpg,NA,NA,NA,NA,NA,NA,NA,NA,NA,NA,NA,NA,NA,fixation,NA,NA,NA,NA,NA,NA,sub120
d3-animate-choice,153,549635,0.0-76.0-0.6,TRUE,TRUE,FALSE,FALSE,"""event"",""trial"",""time""
""fullscreenenter"",""5"",""16988""
","
","
","""event"",""trial"",""time""
""fullscreenenter"",""5"",""16988""
","
",578.4449999995995,NA,48,NA,NA,3000,1,NA,NA,images/earth.jpg,images/rocket2,images/rocket1,null,images/rocket2,NA,1,real,null,2,NA,NA,NA,sub120
d3-animate-choice,154,552047,0.0-76.0-1.6,TRUE,TRUE,FALSE,FALSE,"""event"",""trial"",""time""
""fullscreenenter"",""5"",""16988""
","
","
","""event"",""trial"",""time""
""fullscreenenter"",""5"",""16988""
","
",403.574999999837,NA,49,NA,NA,3000,1,NA,NA,images/purpleplanet.jpg,images/alien4,images/alien3,images/rocket2,images/alien3,images/t.png,2,real,true,1,common,1,2020-06-22T01:25:42Z,sub120
two-step-fixation,155,553050,0.0-76.0-2.6,TRUE,TRUE,FALSE,FALSE,"""event"",""trial"",""time""
""fullscreenenter"",""5"",""16988""
","
","
","""event"",""trial"",""time""
""fullscreenenter"",""5"",""16988""
","
",NA,images/earth.jpg,NA,NA,NA,NA,NA,NA,NA,NA,NA,NA,NA,NA,NA,fixation,NA,NA,NA,NA,NA,NA,sub120
d3-animate-choice,156,555496,0.0-76.0-0.7,TRUE,TRUE,FALSE,FALSE,"""event"",""trial"",""time""
""fullscreenenter"",""5"",""16988""
","
","
","""event"",""trial"",""time""
""fullscreenenter"",""5"",""16988""
","
",443.05500000016764,NA,48,NA,NA,3000,1,NA,NA,images/earth.jpg,images/rocket2,images/rocket1,null,images/rocket2,NA,1,real,null,2,NA,NA,NA,sub120
d3-animate-choice,157,557988,0.0-76.0-1.7,TRUE,TRUE,FALSE,FALSE,"""event"",""trial"",""time""
""fullscreenenter"",""5"",""16988""
","
","
","""event"",""trial"",""time""
""fullscreenenter"",""5"",""16988""
","
",485.6549999999115,NA,49,NA,NA,3000,1,NA,NA,images/purpleplanet.jpg,images/alien4,images/alien3,images/rocket2,images/alien3,images/nothing.png,2,real,true,1,common,0,2020-06-22T01:25:48Z,sub120
two-step-fixation,158,558993,0.0-76.0-2.7,TRUE,TRUE,FALSE,FALSE,"""event"",""trial"",""time""
""fullscreenenter"",""5"",""16988""
","
","
","""event"",""trial"",""time""
""fullscreenenter"",""5"",""16988""
","
",NA,images/earth.jpg,NA,NA,NA,NA,NA,NA,NA,NA,NA,NA,NA,NA,NA,fixation,NA,NA,NA,NA,NA,NA,sub120
d3-animate-choice,159,561635,0.0-76.0-0.8,TRUE,TRUE,FALSE,FALSE,"""event"",""trial"",""time""
""fullscreenenter"",""5"",""16988""
","
","
","""event"",""trial"",""time""
""fullscreenenter"",""5"",""16988""
","
",634.6399999997811,NA,49,NA,NA,3000,1,NA,NA,images/earth.jpg,images/rocket2,images/rocket1,null,images/rocket1,NA,1,real,null,1,NA,NA,NA,sub120
d3-animate-choice,160,563976,0.0-76.0-1.8,TRUE,TRUE,FALSE,FALSE,"""event"",""trial"",""time""
""fullscreenenter"",""5"",""16988""
","
","
","""event"",""trial"",""time""
""fullscreenenter"",""5"",""16988""
","
",337.73500000010245,NA,48,NA,NA,3000,1,NA,NA,images/redplanet1.jpg,images/alien2,images/alien1,images/rocket1,images/alien2,images/t.png,2,real,true,2,common,1,2020-06-22T01:25:54Z,sub120
two-step-fixation,161,564981,0.0-76.0-2.8,TRUE,TRUE,FALSE,FALSE,"""event"",""trial"",""time""
""fullscreenenter"",""5"",""16988""
","
","
","""event"",""trial"",""time""
""fullscreenenter"",""5"",""16988""
","
",NA,images/earth.jpg,NA,NA,NA,NA,NA,NA,NA,NA,NA,NA,NA,NA,NA,fixation,NA,NA,NA,NA,NA,NA,sub120
d3-animate-choice,162,567364,0.0-76.0-0.9,TRUE,TRUE,FALSE,FALSE,"""event"",""trial"",""time""
""fullscreenenter"",""5"",""16988""
","
","
","""event"",""trial"",""time""
""fullscreenenter"",""5"",""16988""
","
",379.3949999999022,NA,49,NA,NA,3000,1,NA,NA,images/earth.jpg,images/rocket2,images/rocket1,null,images/rocket1,NA,1,real,null,1,NA,NA,NA,sub120
d3-animate-choice,163,570298,0.0-76.0-1.9,TRUE,TRUE,FALSE,FALSE,"""event"",""trial"",""time""
""fullscreenenter"",""5"",""16988""
","
","
","""event"",""trial"",""time""
""fullscreenenter"",""5"",""16988""
","
",928.7049999997253,NA,49,NA,NA,3000,1,NA,NA,images/redplanet1.jpg,images/alien2,images/alien1,images/rocket1,images/alien1,images/nothing.png,2,real,true,1,common,0,2020-06-22T01:26:00Z,sub120
two-step-fixation,164,571305,0.0-76.0-2.9,TRUE,TRUE,FALSE,FALSE,"""event"",""trial"",""time""
""fullscreenenter"",""5"",""16988""
","
","
","""event"",""trial"",""time""
""fullscreenenter"",""5"",""16988""
","
",NA,images/earth.jpg,NA,NA,NA,NA,NA,NA,NA,NA,NA,NA,NA,NA,NA,fixation,NA,NA,NA,NA,NA,NA,sub120
d3-animate-choice,165,573616,0.0-76.0-0.10,TRUE,TRUE,FALSE,FALSE,"""event"",""trial"",""time""
""fullscreenenter"",""5"",""16988""
","
","
","""event"",""trial"",""time""
""fullscreenenter"",""5"",""16988""
","
",304.2450000003446,NA,49,NA,NA,3000,1,NA,NA,images/earth.jpg,images/rocket2,images/rocket1,null,images/rocket1,NA,1,real,null,1,NA,NA,NA,sub120
d3-animate-choice,166,576032,0.0-76.0-1.10,TRUE,TRUE,FALSE,FALSE,"""event"",""trial"",""time""
""fullscreenenter"",""5"",""16988""
","
","
","""event"",""trial"",""time""
""fullscreenenter"",""5"",""16988""
","
",412.64000000001397,NA,48,NA,NA,3000,1,NA,NA,images/purpleplanet.jpg,images/alien4,images/alien3,images/rocket1,images/alien4,images/nothing.png,2,real,false,2,rare,0,2020-06-22T01:26:06Z,sub120
two-step-fixation,167,577040,0.0-76.0-2.10,TRUE,TRUE,FALSE,FALSE,"""event"",""trial"",""time""
""fullscreenenter"",""5"",""16988""
","
","
","""event"",""trial"",""time""
""fullscreenenter"",""5"",""16988""
","
",NA,images/earth.jpg,NA,NA,NA,NA,NA,NA,NA,NA,NA,NA,NA,NA,NA,fixation,NA,NA,NA,NA,NA,NA,sub120
d3-animate-choice,168,579452,0.0-76.0-0.11,TRUE,TRUE,FALSE,FALSE,"""event"",""trial"",""time""
""fullscreenenter"",""5"",""16988""
","
","
","""event"",""trial"",""time""
""fullscreenenter"",""5"",""16988""
","
",405.92500000004657,NA,49,NA,NA,3000,1,NA,NA,images/earth.jpg,images/rocket2,images/rocket1,null,images/rocket1,NA,1,real,null,1,NA,NA,NA,sub120
d3-animate-choice,169,582641,0.0-76.0-1.11,TRUE,TRUE,FALSE,FALSE,"""event"",""trial"",""time""
""fullscreenenter"",""5"",""16988""
","
","
","""event"",""trial"",""time""
""fullscreenenter"",""5"",""16988""
","
",1185.7149999996182,NA,48,NA,NA,3000,1,NA,NA,images/redplanet1.jpg,images/alien2,images/alien1,images/rocket1,images/alien2,images/t.png,2,real,true,2,common,1,2020-06-22T01:26:13Z,sub120
two-step-fixation,170,583647,0.0-76.0-2.11,TRUE,TRUE,FALSE,FALSE,"""event"",""trial"",""time""
""fullscreenenter"",""5"",""16988""
","
","
","""event"",""trial"",""time""
""fullscreenenter"",""5"",""16988""
","
",NA,images/earth.jpg,NA,NA,NA,NA,NA,NA,NA,NA,NA,NA,NA,NA,NA,fixation,NA,NA,NA,NA,NA,NA,sub120
d3-animate-choice,171,586393,0.0-76.0-0.12,TRUE,TRUE,FALSE,FALSE,"""event"",""trial"",""time""
""fullscreenenter"",""5"",""16988""
","
","
","""event"",""trial"",""time""
""fullscreenenter"",""5"",""16988""
","
",740.2950000000419,NA,49,NA,NA,3000,1,NA,NA,images/earth.jpg,images/rocket2,images/rocket1,null,images/rocket1,NA,1,real,null,1,NA,NA,NA,sub120
d3-animate-choice,172,588931,0.0-76.0-1.12,TRUE,TRUE,FALSE,FALSE,"""event"",""trial"",""time""
""fullscreenenter"",""5"",""16988""
","
","
","""event"",""trial"",""time""
""fullscreenenter"",""5"",""16988""
","
",532.4599999998463,NA,48,NA,NA,3000,1,NA,NA,images/purpleplanet.jpg,images/alien4,images/alien3,images/rocket1,images/alien4,images/t.png,2,real,false,2,rare,1,2020-06-22T01:26:19Z,sub120
two-step-fixation,173,589937,0.0-76.0-2.12,TRUE,TRUE,FALSE,FALSE,"""event"",""trial"",""time""
""fullscreenenter"",""5"",""16988""
","
","
","""event"",""trial"",""time""
""fullscreenenter"",""5"",""16988""
","
",NA,images/earth.jpg,NA,NA,NA,NA,NA,NA,NA,NA,NA,NA,NA,NA,NA,fixation,NA,NA,NA,NA,NA,NA,sub120
d3-animate-choice,174,592366,0.0-76.0-0.13,TRUE,TRUE,FALSE,FALSE,"""event"",""trial"",""time""
""fullscreenenter"",""5"",""16988""
","
","
","""event"",""trial"",""time""
""fullscreenenter"",""5"",""16988""
","
",421.82499999995343,NA,49,NA,NA,3000,1,NA,NA,images/earth.jpg,images/rocket2,images/rocket1,null,images/rocket1,NA,1,real,null,1,NA,NA,NA,sub120
d3-animate-choice,175,594905,0.0-76.0-1.13,TRUE,TRUE,FALSE,FALSE,"""event"",""trial"",""time""
""fullscreenenter"",""5"",""16988""
","
","
","""event"",""trial"",""time""
""fullscreenenter"",""5"",""16988""
","
",534.2800000003772,NA,48,NA,NA,3000,1,NA,NA,images/redplanet1.jpg,images/alien2,images/alien1,images/rocket1,images/alien2,images/t.png,2,real,true,2,common,1,2020-06-22T01:26:25Z,sub120
two-step-fixation,176,595908,0.0-76.0-2.13,TRUE,TRUE,FALSE,FALSE,"""event"",""trial"",""time""
""fullscreenenter"",""5"",""16988""
","
","
","""event"",""trial"",""time""
""fullscreenenter"",""5"",""16988""
","
",NA,images/earth.jpg,NA,NA,NA,NA,NA,NA,NA,NA,NA,NA,NA,NA,NA,fixation,NA,NA,NA,NA,NA,NA,sub120
d3-animate-choice,177,598207,0.0-76.0-0.14,TRUE,TRUE,FALSE,FALSE,"""event"",""trial"",""time""
""fullscreenenter"",""5"",""16988""
","
","
","""event"",""trial"",""time""
""fullscreenenter"",""5"",""16988""
","
",292.5149999996647,NA,49,NA,NA,3000,1,NA,NA,images/earth.jpg,images/rocket2,images/rocket1,null,images/rocket1,NA,1,real,null,1,NA,NA,NA,sub120
d3-animate-choice,178,600767,0.0-76.0-1.14,TRUE,TRUE,FALSE,FALSE,"""event"",""trial"",""time""
""fullscreenenter"",""5"",""16988""
","
","
","""event"",""trial"",""time""
""fullscreenenter"",""5"",""16988""
","
",554.0700000001816,NA,48,NA,NA,3000,1,NA,NA,images/redplanet1.jpg,images/alien2,images/alien1,images/rocket1,images/alien2,images/t.png,2,real,true,2,common,1,2020-06-22T01:26:31Z,sub120
two-step-fixation,179,601771,0.0-76.0-2.14,TRUE,TRUE,FALSE,FALSE,"""event"",""trial"",""time""
""fullscreenenter"",""5"",""16988""
","
","
","""event"",""trial"",""time""
""fullscreenenter"",""5"",""16988""
","
",NA,images/earth.jpg,NA,NA,NA,NA,NA,NA,NA,NA,NA,NA,NA,NA,NA,fixation,NA,NA,NA,NA,NA,NA,sub120
d3-animate-choice,180,604233,0.0-76.0-0.15,TRUE,TRUE,FALSE,FALSE,"""event"",""trial"",""time""
""fullscreenenter"",""5"",""16988""
","
","
","""event"",""trial"",""time""
""fullscreenenter"",""5"",""16988""
","
",458.48500000010245,NA,49,NA,NA,3000,1,NA,NA,images/earth.jpg,images/rocket2,images/rocket1,null,images/rocket1,NA,1,real,null,1,NA,NA,NA,sub120
d3-animate-choice,181,606751,0.0-76.0-1.15,TRUE,TRUE,FALSE,FALSE,"""event"",""trial"",""time""
""fullscreenenter"",""5"",""16988""
","
","
","""event"",""trial"",""time""
""fullscreenenter"",""5"",""16988""
","
",512.7400000001071,NA,48,NA,NA,3000,1,NA,NA,images/purpleplanet.jpg,images/alien4,images/alien3,images/rocket1,images/alien4,images/t.png,2,real,false,2,rare,1,2020-06-22T01:26:37Z,sub120
two-step-fixation,182,607757,0.0-76.0-2.15,TRUE,TRUE,FALSE,FALSE,"""event"",""trial"",""time""
""fullscreenenter"",""5"",""16988""
","
","
","""event"",""trial"",""time""
""fullscreenenter"",""5"",""16988""
","
",NA,images/earth.jpg,NA,NA,NA,NA,NA,NA,NA,NA,NA,NA,NA,NA,NA,fixation,NA,NA,NA,NA,NA,NA,sub120
d3-animate-choice,183,609843,0.0-76.0-0.16,TRUE,TRUE,FALSE,FALSE,"""event"",""trial"",""time""
""fullscreenenter"",""5"",""16988""
","
","
","""event"",""trial"",""time""
""fullscreenenter"",""5"",""16988""
","
",79.23499999963678,NA,49,NA,NA,3000,1,957.3949999999022,48,images/earth.jpg,images/rocket2,images/rocket1,null,images/rocket1,NA,1,real,null,1,NA,NA,NA,sub120
d3-animate-choice,184,612546,0.0-76.0-1.16,TRUE,TRUE,FALSE,FALSE,"""event"",""trial"",""time""
""fullscreenenter"",""5"",""16988""
","
","
","""event"",""trial"",""time""
""fullscreenenter"",""5"",""16988""
","
",699.4399999998277,NA,48,NA,NA,3000,1,NA,NA,images/redplanet1.jpg,images/alien2,images/alien1,images/rocket1,images/alien2,images/t.png,2,real,true,2,common,1,2020-06-22T01:26:42Z,sub120
two-step-fixation,185,613550,0.0-76.0-2.16,TRUE,TRUE,FALSE,FALSE,"""event"",""trial"",""time""
""fullscreenenter"",""5"",""16988""
","
","
","""event"",""trial"",""time""
""fullscreenenter"",""5"",""16988""
","
",NA,images/earth.jpg,NA,NA,NA,NA,NA,NA,NA,NA,NA,NA,NA,NA,NA,fixation,NA,NA,NA,NA,NA,NA,sub120
d3-animate-choice,186,616337,0.0-76.0-0.17,TRUE,TRUE,FALSE,FALSE,"""event"",""trial"",""time""
""fullscreenenter"",""5"",""16988""
","
","
","""event"",""trial"",""time""
""fullscreenenter"",""5"",""16988""
","
",780.5800000000745,NA,49,NA,NA,3000,1,NA,NA,images/earth.jpg,images/rocket2,images/rocket1,null,images/rocket1,NA,1,real,null,1,NA,NA,NA,sub120
d3-animate-choice,187,618728,0.0-76.0-1.17,TRUE,TRUE,FALSE,FALSE,"""event"",""trial"",""time""
""fullscreenenter"",""5"",""16988""
","
","
","""event"",""trial"",""time""
""fullscreenenter"",""5"",""16988""
","
",385.8549999999814,NA,48,NA,NA,3000,1,NA,NA,images/redplanet1.jpg,images/alien2,images/alien1,images/rocket1,images/alien2,images/t.png,2,real,true,2,common,1,2020-06-22T01:26:49Z,sub120
two-step-fixation,188,619733,0.0-76.0-2.17,TRUE,TRUE,FALSE,FALSE,"""event"",""trial"",""time""
""fullscreenenter"",""5"",""16988""
","
","
","""event"",""trial"",""time""
""fullscreenenter"",""5"",""16988""
","
",NA,images/earth.jpg,NA,NA,NA,NA,NA,NA,NA,NA,NA,NA,NA,NA,NA,fixation,NA,NA,NA,NA,NA,NA,sub120
d3-animate-choice,189,622160,0.0-76.0-0.18,TRUE,TRUE,FALSE,FALSE,"""event"",""trial"",""time""
""fullscreenenter"",""5"",""16988""
","
","
","""event"",""trial"",""time""
""fullscreenenter"",""5"",""16988""
","
",422.8299999999581,NA,49,NA,NA,3000,1,NA,NA,images/earth.jpg,images/rocket2,images/rocket1,null,images/rocket1,NA,1,real,null,1,NA,NA,NA,sub120
d3-animate-choice,190,624614,0.0-76.0-1.18,TRUE,TRUE,FALSE,FALSE,"""event"",""trial"",""time""
""fullscreenenter"",""5"",""16988""
","
","
","""event"",""trial"",""time""
""fullscreenenter"",""5"",""16988""
","
",448.11999999999534,NA,48,NA,NA,3000,1,NA,NA,images/purpleplanet.jpg,images/alien4,images/alien3,images/rocket1,images/alien4,images/nothing.png,2,real,false,2,rare,0,2020-06-22T01:26:55Z,sub120
two-step-fixation,191,625619,0.0-76.0-2.18,TRUE,TRUE,FALSE,FALSE,"""event"",""trial"",""time""
""fullscreenenter"",""5"",""16988""
","
","
","""event"",""trial"",""time""
""fullscreenenter"",""5"",""16988""
","
",NA,images/earth.jpg,NA,NA,NA,NA,NA,NA,NA,NA,NA,NA,NA,NA,NA,fixation,NA,NA,NA,NA,NA,NA,sub120
d3-animate-choice,192,628327,0.0-76.0-0.19,TRUE,TRUE,FALSE,FALSE,"""event"",""trial"",""time""
""fullscreenenter"",""5"",""16988""
","
","
","""event"",""trial"",""time""
""fullscreenenter"",""5"",""16988""
","
",701.6300000000047,NA,49,NA,NA,3000,1,NA,NA,images/earth.jpg,images/rocket2,images/rocket1,null,images/rocket1,NA,1,real,null,1,NA,NA,NA,sub120
d3-animate-choice,193,631111,0.0-76.0-1.19,TRUE,TRUE,FALSE,FALSE,"""event"",""trial"",""time""
""fullscreenenter"",""5"",""16988""
","
","
","""event"",""trial"",""time""
""fullscreenenter"",""5"",""16988""
","
",777.160000000149,NA,48,NA,NA,3000,1,NA,NA,images/redplanet1.jpg,images/alien2,images/alien1,images/rocket1,images/alien2,images/t.png,2,real,true,2,common,1,2020-06-22T01:27:01Z,sub120
two-step-fixation,194,632115,0.0-76.0-2.19,TRUE,TRUE,FALSE,FALSE,"""event"",""trial"",""time""
""fullscreenenter"",""5"",""16988""
","
","
","""event"",""trial"",""time""
""fullscreenenter"",""5"",""16988""
","
",NA,images/earth.jpg,NA,NA,NA,NA,NA,NA,NA,NA,NA,NA,NA,NA,NA,fixation,NA,NA,NA,NA,NA,NA,sub120
d3-animate-choice,195,634613,0.0-76.0-0.20,TRUE,TRUE,FALSE,FALSE,"""event"",""trial"",""time""
""fullscreenenter"",""5"",""16988""
","
","
","""event"",""trial"",""time""
""fullscreenenter"",""5"",""16988""
","
",490.80500000028405,NA,49,NA,NA,3000,1,NA,NA,images/earth.jpg,images/rocket2,images/rocket1,null,images/rocket1,NA,1,real,null,1,NA,NA,NA,sub120
d3-animate-choice,196,637257,0.0-76.0-1.20,TRUE,TRUE,FALSE,FALSE,"""event"",""trial"",""time""
""fullscreenenter"",""5"",""16988""
","
","
","""event"",""trial"",""time""
""fullscreenenter"",""5"",""16988""
","
",639.4599999999627,NA,49,NA,NA,3000,1,NA,NA,images/purpleplanet.jpg,images/alien4,images/alien3,images/rocket1,images/alien3,images/t.png,2,real,false,1,rare,1,2020-06-22T01:27:07Z,sub120
two-step-fixation,197,638263,0.0-76.0-2.20,TRUE,TRUE,FALSE,FALSE,"""event"",""trial"",""time""
""fullscreenenter"",""5"",""16988""
","
","
","""event"",""trial"",""time""
""fullscreenenter"",""5"",""16988""
","
",NA,images/earth.jpg,NA,NA,NA,NA,NA,NA,NA,NA,NA,NA,NA,NA,NA,fixation,NA,NA,NA,NA,NA,NA,sub120
d3-animate-choice,198,640806,0.0-76.0-0.21,TRUE,TRUE,FALSE,FALSE,"""event"",""trial"",""time""
""fullscreenenter"",""5"",""16988""
","
","
","""event"",""trial"",""time""
""fullscreenenter"",""5"",""16988""
","
",536.2500000001164,NA,49,NA,NA,3000,1,NA,NA,images/earth.jpg,images/rocket2,images/rocket1,null,images/rocket1,NA,1,real,null,1,NA,NA,NA,sub120
d3-animate-choice,199,643353,0.0-76.0-1.21,TRUE,TRUE,FALSE,FALSE,"""event"",""trial"",""time""
""fullscreenenter"",""5"",""16988""
","
","
","""event"",""trial"",""time""
""fullscreenenter"",""5"",""16988""
","
",540.3500000002095,NA,48,NA,NA,3000,1,NA,NA,images/redplanet1.jpg,images/alien2,images/alien1,images/rocket1,images/alien2,images/nothing.png,2,real,true,2,common,0,2020-06-22T01:27:13Z,sub120
two-step-fixation,200,644356,0.0-76.0-2.21,TRUE,TRUE,FALSE,FALSE,"""event"",""trial"",""time""
""fullscreenenter"",""5"",""16988""
","
","
","""event"",""trial"",""time""
""fullscreenenter"",""5"",""16988""
","
",NA,images/earth.jpg,NA,NA,NA,NA,NA,NA,NA,NA,NA,NA,NA,NA,NA,fixation,NA,NA,NA,NA,NA,NA,sub120
d3-animate-choice,201,646953,0.0-76.0-0.22,TRUE,TRUE,FALSE,FALSE,"""event"",""trial"",""time""
""fullscreenenter"",""5"",""16988""
","
","
","""event"",""trial"",""time""
""fullscreenenter"",""5"",""16988""
","
",592.945000000298,NA,49,NA,NA,3000,1,NA,NA,images/earth.jpg,images/rocket2,images/rocket1,null,images/rocket1,NA,1,real,null,1,NA,NA,NA,sub120
d3-animate-choice,202,649600,0.0-76.0-1.22,TRUE,TRUE,FALSE,FALSE,"""event"",""trial"",""time""
""fullscreenenter"",""5"",""16988""
","
","
","""event"",""trial"",""time""
""fullscreenenter"",""5"",""16988""
","
",642.7550000003539,NA,49,NA,NA,3000,1,NA,NA,images/redplanet1.jpg,images/alien2,images/alien1,images/rocket1,images/alien1,images/t.png,2,real,true,1,common,1,2020-06-22T01:27:20Z,sub120
two-step-fixation,203,650605,0.0-76.0-2.22,TRUE,TRUE,FALSE,FALSE,"""event"",""trial"",""time""
""fullscreenenter"",""5"",""16988""
","
","
","""event"",""trial"",""time""
""fullscreenenter"",""5"",""16988""
","
",NA,images/earth.jpg,NA,NA,NA,NA,NA,NA,NA,NA,NA,NA,NA,NA,NA,fixation,NA,NA,NA,NA,NA,NA,sub120
d3-animate-choice,204,653026,0.0-76.0-0.23,TRUE,TRUE,FALSE,FALSE,"""event"",""trial"",""time""
""fullscreenenter"",""5"",""16988""
","
","
","""event"",""trial"",""time""
""fullscreenenter"",""5"",""16988""
","
",415.6749999996973,NA,49,NA,NA,3000,1,NA,NA,images/earth.jpg,images/rocket2,images/rocket1,null,images/rocket1,NA,1,real,null,1,NA,NA,NA,sub120
d3-animate-choice,205,655609,0.0-76.0-1.23,TRUE,TRUE,FALSE,FALSE,"""event"",""trial"",""time""
""fullscreenenter"",""5"",""16988""
","
","
","""event"",""trial"",""time""
""fullscreenenter"",""5"",""16988""
","
",574.7649999997811,NA,49,NA,NA,3000,1,NA,NA,images/redplanet1.jpg,images/alien2,images/alien1,images/rocket1,images/alien1,images/nothing.png,2,real,true,1,common,0,2020-06-22T01:27:26Z,sub120
two-step-fixation,206,656614,0.0-76.0-2.23,TRUE,TRUE,FALSE,FALSE,"""event"",""trial"",""time""
""fullscreenenter"",""5"",""16988""
","
","
","""event"",""trial"",""time""
""fullscreenenter"",""5"",""16988""
","
",NA,images/earth.jpg,NA,NA,NA,NA,NA,NA,NA,NA,NA,NA,NA,NA,NA,fixation,NA,NA,NA,NA,NA,NA,sub120
d3-animate-choice,207,659062,0.0-76.0-0.24,TRUE,TRUE,FALSE,FALSE,"""event"",""trial"",""time""
""fullscreenenter"",""5"",""16988""
","
","
","""event"",""trial"",""time""
""fullscreenenter"",""5"",""16988""
","
",444.33000000030734,NA,49,NA,NA,3000,1,NA,NA,images/earth.jpg,images/rocket2,images/rocket1,null,images/rocket1,NA,1,real,null,1,NA,NA,NA,sub120
d3-animate-choice,208,662288,0.0-76.0-1.24,TRUE,TRUE,FALSE,FALSE,"""event"",""trial"",""time""
""fullscreenenter"",""5"",""16988""
","
","
","""event"",""trial"",""time""
""fullscreenenter"",""5"",""16988""
","
",1221.4749999997439,NA,48,NA,NA,3000,1,NA,NA,images/redplanet1.jpg,images/alien2,images/alien1,images/rocket1,images/alien2,images/nothing.png,2,real,true,2,common,0,2020-06-22T01:27:32Z,sub120
two-step-fixation,209,663293,0.0-76.0-2.24,TRUE,TRUE,FALSE,FALSE,"""event"",""trial"",""time""
""fullscreenenter"",""5"",""16988""
","
","
","""event"",""trial"",""time""
""fullscreenenter"",""5"",""16988""
","
",NA,images/earth.jpg,NA,NA,NA,NA,NA,NA,NA,NA,NA,NA,NA,NA,NA,fixation,NA,NA,NA,NA,NA,NA,sub120
d3-animate-choice,210,666440,0.0-76.0-0.25,TRUE,TRUE,FALSE,FALSE,"""event"",""trial"",""time""
""fullscreenenter"",""5"",""16988""
","
","
","""event"",""trial"",""time""
""fullscreenenter"",""5"",""16988""
","
",1143.6250000002328,NA,48,NA,NA,3000,1,NA,NA,images/earth.jpg,images/rocket2,images/rocket1,null,images/rocket2,NA,1,real,null,2,NA,NA,NA,sub120
d3-animate-choice,211,669551,0.0-76.0-1.25,TRUE,TRUE,FALSE,FALSE,"""event"",""trial"",""time""
""fullscreenenter"",""5"",""16988""
","
","
","""event"",""trial"",""time""
""fullscreenenter"",""5"",""16988""
","
",1106.204999999958,NA,48,NA,NA,3000,1,NA,NA,images/redplanet1.jpg,images/alien2,images/alien1,images/rocket2,images/alien2,images/nothing.png,2,real,false,2,rare,0,2020-06-22T01:27:39Z,sub120
two-step-fixation,212,670556,0.0-76.0-2.25,TRUE,TRUE,FALSE,FALSE,"""event"",""trial"",""time""
""fullscreenenter"",""5"",""16988""
","
","
","""event"",""trial"",""time""
""fullscreenenter"",""5"",""16988""
","
",NA,images/earth.jpg,NA,NA,NA,NA,NA,NA,NA,NA,NA,NA,NA,NA,NA,fixation,NA,NA,NA,NA,NA,NA,sub120
d3-animate-choice,213,673046,0.0-76.0-0.26,TRUE,TRUE,FALSE,FALSE,"""event"",""trial"",""time""
""fullscreenenter"",""5"",""16988""
","
","
","""event"",""trial"",""time""
""fullscreenenter"",""5"",""16988""
","
",481.6599999999162,NA,48,NA,NA,3000,1,NA,NA,images/earth.jpg,images/rocket2,images/rocket1,null,images/rocket2,NA,1,real,null,2,NA,NA,NA,sub120
d3-animate-choice,214,676084,0.0-76.0-1.26,TRUE,TRUE,FALSE,FALSE,"""event"",""trial"",""time""
""fullscreenenter"",""5"",""16988""
","
","
","""event"",""trial"",""time""
""fullscreenenter"",""5"",""16988""
","
",1034.0649999998277,NA,49,NA,NA,3000,1,NA,NA,images/redplanet1.jpg,images/alien2,images/alien1,images/rocket2,images/alien1,images/nothing.png,2,real,false,1,rare,0,2020-06-22T01:27:46Z,sub120
two-step-fixation,215,677088,0.0-76.0-2.26,TRUE,TRUE,FALSE,FALSE,"""event"",""trial"",""time""
""fullscreenenter"",""5"",""16988""
","
","
","""event"",""trial"",""time""
""fullscreenenter"",""5"",""16988""
","
",NA,images/earth.jpg,NA,NA,NA,NA,NA,NA,NA,NA,NA,NA,NA,NA,NA,fixation,NA,NA,NA,NA,NA,NA,sub120
d3-animate-choice,216,679743,0.0-76.0-0.27,TRUE,TRUE,FALSE,FALSE,"""event"",""trial"",""time""
""fullscreenenter"",""5"",""16988""
","
","
","""event"",""trial"",""time""
""fullscreenenter"",""5"",""16988""
","
",649.0600000001723,NA,48,NA,NA,3000,1,NA,NA,images/earth.jpg,images/rocket2,images/rocket1,null,images/rocket2,NA,1,real,null,2,NA,NA,NA,sub120
d3-animate-choice,217,682399,0.0-76.0-1.27,TRUE,TRUE,FALSE,FALSE,"""event"",""trial"",""time""
""fullscreenenter"",""5"",""16988""
","
","
","""event"",""trial"",""time""
""fullscreenenter"",""5"",""16988""
","
",651.4600000000792,NA,48,NA,NA,3000,1,NA,NA,images/purpleplanet.jpg,images/alien4,images/alien3,images/rocket2,images/alien4,images/t.png,2,real,true,2,common,1,2020-06-22T01:27:52Z,sub120
two-step-fixation,218,683403,0.0-76.0-2.27,TRUE,TRUE,FALSE,FALSE,"""event"",""trial"",""time""
""fullscreenenter"",""5"",""16988""
","
","
","""event"",""trial"",""time""
""fullscreenenter"",""5"",""16988""
","
",NA,images/earth.jpg,NA,NA,NA,NA,NA,NA,NA,NA,NA,NA,NA,NA,NA,fixation,NA,NA,NA,NA,NA,NA,sub120
d3-animate-choice,219,685917,0.0-76.0-0.28,TRUE,TRUE,FALSE,FALSE,"""event"",""trial"",""time""
""fullscreenenter"",""5"",""16988""
","
","
","""event"",""trial"",""time""
""fullscreenenter"",""5"",""16988""
","
",511.12000000011176,NA,48,NA,NA,3000,1,NA,NA,images/earth.jpg,images/rocket2,images/rocket1,null,images/rocket2,NA,1,real,null,2,NA,NA,NA,sub120
d3-animate-choice,220,688750,0.0-76.0-1.28,TRUE,TRUE,FALSE,FALSE,"""event"",""trial"",""time""
""fullscreenenter"",""5"",""16988""
","
","
","""event"",""trial"",""time""
""fullscreenenter"",""5"",""16988""
","
",827.8099999997066,NA,48,NA,NA,3000,1,NA,NA,images/purpleplanet.jpg,images/alien4,images/alien3,images/rocket2,images/alien4,images/nothing.png,2,real,true,2,common,0,2020-06-22T01:27:59Z,sub120
two-step-fixation,221,689755,0.0-76.0-2.28,TRUE,TRUE,FALSE,FALSE,"""event"",""trial"",""time""
""fullscreenenter"",""5"",""16988""
","
","
","""event"",""trial"",""time""
""fullscreenenter"",""5"",""16988""
","
",NA,images/earth.jpg,NA,NA,NA,NA,NA,NA,NA,NA,NA,NA,NA,NA,NA,fixation,NA,NA,NA,NA,NA,NA,sub120
d3-animate-choice,222,692222,0.0-76.0-0.29,TRUE,TRUE,FALSE,FALSE,"""event"",""trial"",""time""
""fullscreenenter"",""5"",""16988""
","
","
","""event"",""trial"",""time""
""fullscreenenter"",""5"",""16988""
","
",459.54499999969266,NA,48,NA,NA,3000,1,NA,NA,images/earth.jpg,images/rocket2,images/rocket1,null,images/rocket2,NA,1,real,null,2,NA,NA,NA,sub120
d3-animate-choice,223,694771,0.0-76.0-1.29,TRUE,TRUE,FALSE,FALSE,"""event"",""trial"",""time""
""fullscreenenter"",""5"",""16988""
","
","
","""event"",""trial"",""time""
""fullscreenenter"",""5"",""16988""
","
",545.5499999998137,NA,49,NA,NA,3000,1,NA,NA,images/purpleplanet.jpg,images/alien4,images/alien3,images/rocket2,images/alien3,images/t.png,2,real,true,1,common,1,2020-06-22T01:28:05Z,sub120
two-step-fixation,224,695775,0.0-76.0-2.29,TRUE,TRUE,FALSE,FALSE,"""event"",""trial"",""time""
""fullscreenenter"",""5"",""16988""
","
","
","""event"",""trial"",""time""
""fullscreenenter"",""5"",""16988""
","
",NA,images/earth.jpg,NA,NA,NA,NA,NA,NA,NA,NA,NA,NA,NA,NA,NA,fixation,NA,NA,NA,NA,NA,NA,sub120
d3-animate-choice,225,699338,0.0-76.0-0.30,TRUE,TRUE,FALSE,FALSE,"""event"",""trial"",""time""
""fullscreenenter"",""5"",""16988""
","
","
","""event"",""trial"",""time""
""fullscreenenter"",""5"",""16988""
","
",1559.240000000107,NA,48,NA,NA,3000,1,NA,NA,images/earth.jpg,images/rocket2,images/rocket1,null,images/rocket2,NA,1,real,null,2,NA,NA,NA,sub120
d3-animate-choice,226,701830,0.0-76.0-1.30,TRUE,TRUE,FALSE,FALSE,"""event"",""trial"",""time""
""fullscreenenter"",""5"",""16988""
","
","
","""event"",""trial"",""time""
""fullscreenenter"",""5"",""16988""
","
",483.05500000016764,NA,49,NA,NA,3000,1,NA,NA,images/purpleplanet.jpg,images/alien4,images/alien3,images/rocket2,images/alien3,images/nothing.png,2,real,true,1,common,0,2020-06-22T01:28:12Z,sub120
two-step-fixation,227,702837,0.0-76.0-2.30,TRUE,TRUE,FALSE,FALSE,"""event"",""trial"",""time""
""fullscreenenter"",""5"",""16988""
","
","
","""event"",""trial"",""time""
""fullscreenenter"",""5"",""16988""
","
",NA,images/earth.jpg,NA,NA,NA,NA,NA,NA,NA,NA,NA,NA,NA,NA,NA,fixation,NA,NA,NA,NA,NA,NA,sub120
d3-animate-choice,228,705260,0.0-76.0-0.31,TRUE,TRUE,FALSE,FALSE,"""event"",""trial"",""time""
""fullscreenenter"",""5"",""16988""
","
","
","""event"",""trial"",""time""
""fullscreenenter"",""5"",""16988""
","
",419.9049999996787,NA,49,NA,NA,3000,1,NA,NA,images/earth.jpg,images/rocket2,images/rocket1,null,images/rocket1,NA,1,real,null,1,NA,NA,NA,sub120
d3-animate-choice,229,708094,0.0-76.0-1.31,TRUE,TRUE,FALSE,FALSE,"""event"",""trial"",""time""
""fullscreenenter"",""5"",""16988""
","
","
","""event"",""trial"",""time""
""fullscreenenter"",""5"",""16988""
","
",830.4549999997253,NA,48,NA,NA,3000,1,NA,NA,images/redplanet1.jpg,images/alien2,images/alien1,images/rocket1,images/alien2,images/nothing.png,2,real,true,2,common,0,2020-06-22T01:28:18Z,sub120
two-step-fixation,230,709097,0.0-76.0-2.31,TRUE,TRUE,FALSE,FALSE,"""event"",""trial"",""time""
""fullscreenenter"",""5"",""16988""
","
","
","""event"",""trial"",""time""
""fullscreenenter"",""5"",""16988""
","
",NA,images/earth.jpg,NA,NA,NA,NA,NA,NA,NA,NA,NA,NA,NA,NA,NA,fixation,NA,NA,NA,NA,NA,NA,sub120
d3-animate-choice,231,711523,0.0-76.0-0.32,TRUE,TRUE,FALSE,FALSE,"""event"",""trial"",""time""
""fullscreenenter"",""5"",""16988""
","
","
","""event"",""trial"",""time""
""fullscreenenter"",""5"",""16988""
","
",421.3049999998184,NA,49,NA,NA,3000,1,NA,NA,images/earth.jpg,images/rocket2,images/rocket1,null,images/rocket1,NA,1,real,null,1,NA,NA,NA,sub120
d3-animate-choice,232,714175,0.0-76.0-1.32,TRUE,TRUE,FALSE,FALSE,"""event"",""trial"",""time""
""fullscreenenter"",""5"",""16988""
","
","
","""event"",""trial"",""time""
""fullscreenenter"",""5"",""16988""
","
",648.1699999999255,NA,49,NA,NA,3000,1,NA,NA,images/redplanet1.jpg,images/alien2,images/alien1,images/rocket1,images/alien1,images/nothing.png,2,real,true,1,common,0,2020-06-22T01:28:24Z,sub120
two-step-fixation,233,715179,0.0-76.0-2.32,TRUE,TRUE,FALSE,FALSE,"""event"",""trial"",""time""
""fullscreenenter"",""5"",""16988""
","
","
","""event"",""trial"",""time""
""fullscreenenter"",""5"",""16988""
","
",NA,images/earth.jpg,NA,NA,NA,NA,NA,NA,NA,NA,NA,NA,NA,NA,NA,fixation,NA,NA,NA,NA,NA,NA,sub120
d3-animate-choice,234,717658,0.0-76.0-0.33,TRUE,TRUE,FALSE,FALSE,"""event"",""trial"",""time""
""fullscreenenter"",""5"",""16988""
","
","
","""event"",""trial"",""time""
""fullscreenenter"",""5"",""16988""
","
",475.4849999998696,NA,48,NA,NA,3000,1,NA,NA,images/earth.jpg,images/rocket2,images/rocket1,null,images/rocket2,NA,1,real,null,2,NA,NA,NA,sub120
d3-animate-choice,235,720124,0.0-76.0-1.33,TRUE,TRUE,FALSE,FALSE,"""event"",""trial"",""time""
""fullscreenenter"",""5"",""16988""
","
","
","""event"",""trial"",""time""
""fullscreenenter"",""5"",""16988""
","
",462.0199999999022,NA,49,NA,NA,3000,1,NA,NA,images/purpleplanet.jpg,images/alien4,images/alien3,images/rocket2,images/alien3,images/nothing.png,2,real,true,1,common,0,2020-06-22T01:28:30Z,sub120
two-step-fixation,236,721126,0.0-76.0-2.33,TRUE,TRUE,FALSE,FALSE,"""event"",""trial"",""time""
""fullscreenenter"",""5"",""16988""
","
","
","""event"",""trial"",""time""
""fullscreenenter"",""5"",""16988""
","
",NA,images/earth.jpg,NA,NA,NA,NA,NA,NA,NA,NA,NA,NA,NA,NA,NA,fixation,NA,NA,NA,NA,NA,NA,sub120
d3-animate-choice,237,723762,0.0-76.0-0.34,TRUE,TRUE,FALSE,FALSE,"""event"",""trial"",""time""
""fullscreenenter"",""5"",""16988""
","
","
","""event"",""trial"",""time""
""fullscreenenter"",""5"",""16988""
","
",628.4099999997998,NA,48,NA,NA,3000,1,NA,NA,images/earth.jpg,images/rocket2,images/rocket1,null,images/rocket2,NA,1,real,null,2,NA,NA,NA,sub120
d3-animate-choice,238,726136,0.0-76.0-1.34,TRUE,TRUE,FALSE,FALSE,"""event"",""trial"",""time""
""fullscreenenter"",""5"",""16988""
","
","
","""event"",""trial"",""time""
""fullscreenenter"",""5"",""16988""
","
",371.96999999973923,NA,48,NA,NA,3000,1,NA,NA,images/purpleplanet.jpg,images/alien4,images/alien3,images/rocket2,images/alien4,images/t.png,2,real,true,2,common,1,2020-06-22T01:28:36Z,sub120
two-step-fixation,239,727138,0.0-76.0-2.34,TRUE,TRUE,FALSE,FALSE,"""event"",""trial"",""time""
""fullscreenenter"",""5"",""16988""
","
","
","""event"",""trial"",""time""
""fullscreenenter"",""5"",""16988""
","
",NA,images/earth.jpg,NA,NA,NA,NA,NA,NA,NA,NA,NA,NA,NA,NA,NA,fixation,NA,NA,NA,NA,NA,NA,sub120
d3-animate-choice,240,729631,0.0-76.0-0.35,TRUE,TRUE,FALSE,FALSE,"""event"",""trial"",""time""
""fullscreenenter"",""5"",""16988""
","
","
","""event"",""trial"",""time""
""fullscreenenter"",""5"",""16988""
","
",489.0700000000652,NA,49,NA,NA,3000,1,NA,NA,images/earth.jpg,images/rocket2,images/rocket1,null,images/rocket1,NA,1,real,null,1,NA,NA,NA,sub120
d3-animate-choice,241,732107,0.0-76.0-1.35,TRUE,TRUE,FALSE,FALSE,"""event"",""trial"",""time""
""fullscreenenter"",""5"",""16988""
","
","
","""event"",""trial"",""time""
""fullscreenenter"",""5"",""16988""
","
",471.300000000163,NA,49,NA,NA,3000,1,NA,NA,images/purpleplanet.jpg,images/alien4,images/alien3,images/rocket1,images/alien3,images/nothing.png,2,real,false,1,rare,0,2020-06-22T01:28:42Z,sub120
two-step-fixation,242,733112,0.0-76.0-2.35,TRUE,TRUE,FALSE,FALSE,"""event"",""trial"",""time""
""fullscreenenter"",""5"",""16988""
","
","
","""event"",""trial"",""time""
""fullscreenenter"",""5"",""16988""
","
",NA,images/earth.jpg,NA,NA,NA,NA,NA,NA,NA,NA,NA,NA,NA,NA,NA,fixation,NA,NA,NA,NA,NA,NA,sub120
d3-animate-choice,243,735462,0.0-76.0-0.36,TRUE,TRUE,FALSE,FALSE,"""event"",""trial"",""time""
""fullscreenenter"",""5"",""16988""
","
","
","""event"",""trial"",""time""
""fullscreenenter"",""5"",""16988""
","
",343.7299999999814,NA,49,NA,NA,3000,1,NA,NA,images/earth.jpg,images/rocket2,images/rocket1,null,images/rocket1,NA,1,real,null,1,NA,NA,NA,sub120
d3-animate-choice,244,737903,0.0-76.0-1.36,TRUE,TRUE,FALSE,FALSE,"""event"",""trial"",""time""
""fullscreenenter"",""5"",""16988""
","
","
","""event"",""trial"",""time""
""fullscreenenter"",""5"",""16988""
","
",438.2150000000838,NA,48,NA,NA,3000,1,NA,NA,images/purpleplanet.jpg,images/alien4,images/alien3,images/rocket1,images/alien4,images/t.png,2,real,false,2,rare,1,2020-06-22T01:28:48Z,sub120
two-step-fixation,245,738907,0.0-76.0-2.36,TRUE,TRUE,FALSE,FALSE,"""event"",""trial"",""time""
""fullscreenenter"",""5"",""16988""
","
","
","""event"",""trial"",""time""
""fullscreenenter"",""5"",""16988""
","
",NA,images/earth.jpg,NA,NA,NA,NA,NA,NA,NA,NA,NA,NA,NA,NA,NA,fixation,NA,NA,NA,NA,NA,NA,sub120
d3-animate-choice,246,741645,0.0-76.0-0.37,TRUE,TRUE,FALSE,FALSE,"""event"",""trial"",""time""
""fullscreenenter"",""5"",""16988""
","
","
","""event"",""trial"",""time""
""fullscreenenter"",""5"",""16988""
","
",735.479999999865,NA,49,NA,NA,3000,1,NA,NA,images/earth.jpg,images/rocket2,images/rocket1,null,images/rocket1,NA,1,real,null,1,NA,NA,NA,sub120
d3-animate-choice,247,744311,0.0-76.0-1.37,TRUE,TRUE,FALSE,FALSE,"""event"",""trial"",""time""
""fullscreenenter"",""5"",""16988""
","
","
","""event"",""trial"",""time""
""fullscreenenter"",""5"",""16988""
","
",662.7299999999814,NA,48,NA,NA,3000,1,NA,NA,images/redplanet1.jpg,images/alien2,images/alien1,images/rocket1,images/alien2,images/nothing.png,2,real,true,2,common,0,2020-06-22T01:28:54Z,sub120
two-step-fixation,248,745315,0.0-76.0-2.37,TRUE,TRUE,FALSE,FALSE,"""event"",""trial"",""time""
""fullscreenenter"",""5"",""16988""
","
","
","""event"",""trial"",""time""
""fullscreenenter"",""5"",""16988""
","
",NA,images/earth.jpg,NA,NA,NA,NA,NA,NA,NA,NA,NA,NA,NA,NA,NA,fixation,NA,NA,NA,NA,NA,NA,sub120
d3-animate-choice,249,748261,0.0-76.0-0.38,TRUE,TRUE,FALSE,FALSE,"""event"",""trial"",""time""
""fullscreenenter"",""5"",""16988""
","
","
","""event"",""trial"",""time""
""fullscreenenter"",""5"",""16988""
","
",942.9700000000885,NA,49,NA,NA,3000,1,NA,NA,images/earth.jpg,images/rocket2,images/rocket1,null,images/rocket1,NA,1,real,null,1,NA,NA,NA,sub120
d3-animate-choice,250,751288,0.0-76.0-1.38,TRUE,TRUE,FALSE,FALSE,"""event"",""trial"",""time""
""fullscreenenter"",""5"",""16988""
","
","
","""event"",""trial"",""time""
""fullscreenenter"",""5"",""16988""
","
",1024.1949999999488,NA,48,NA,NA,3000,1,NA,NA,images/purpleplanet.jpg,images/alien4,images/alien3,images/rocket1,images/alien4,images/nothing.png,2,real,false,2,rare,0,2020-06-22T01:29:01Z,sub120
two-step-fixation,251,752294,0.0-76.0-2.38,TRUE,TRUE,FALSE,FALSE,"""event"",""trial"",""time""
""fullscreenenter"",""5"",""16988""
","
","
","""event"",""trial"",""time""
""fullscreenenter"",""5"",""16988""
","
",NA,images/earth.jpg,NA,NA,NA,NA,NA,NA,NA,NA,NA,NA,NA,NA,NA,fixation,NA,NA,NA,NA,NA,NA,sub120
d3-animate-choice,252,755101,0.0-76.0-0.39,TRUE,TRUE,FALSE,FALSE,"""event"",""trial"",""time""
""fullscreenenter"",""5"",""16988""
","
","
","""event"",""trial"",""time""
""fullscreenenter"",""5"",""16988""
","
",803.0349999999162,NA,48,NA,NA,3000,1,NA,NA,images/earth.jpg,images/rocket2,images/rocket1,null,images/rocket2,NA,1,real,null,2,NA,NA,NA,sub120
d3-animate-choice,253,757771,0.0-76.0-1.39,TRUE,TRUE,FALSE,FALSE,"""event"",""trial"",""time""
""fullscreenenter"",""5"",""16988""
","
","
","""event"",""trial"",""time""
""fullscreenenter"",""5"",""16988""
","
",665.5850000001956,NA,49,NA,NA,3000,1,NA,NA,images/redplanet1.jpg,images/alien2,images/alien1,images/rocket2,images/alien1,images/t.png,2,real,false,1,rare,1,2020-06-22T01:29:08Z,sub120
two-step-fixation,254,758776,0.0-76.0-2.39,TRUE,TRUE,FALSE,FALSE,"""event"",""trial"",""time""
""fullscreenenter"",""5"",""16988""
","
","
","""event"",""trial"",""time""
""fullscreenenter"",""5"",""16988""
","
",NA,images/earth.jpg,NA,NA,NA,NA,NA,NA,NA,NA,NA,NA,NA,NA,NA,fixation,NA,NA,NA,NA,NA,NA,sub120
d3-animate-choice,255,760872,0.0-76.0-0.40,TRUE,TRUE,FALSE,FALSE,"""event"",""trial"",""time""
""fullscreenenter"",""5"",""16988""
","
","
","""event"",""trial"",""time""
""fullscreenenter"",""5"",""16988""
","
",90.67499999993015,NA,49,NA,NA,3000,1,NA,NA,images/earth.jpg,images/rocket2,images/rocket1,null,images/rocket1,NA,1,real,null,1,NA,NA,NA,sub120
d3-animate-choice,256,764273,0.0-76.0-1.40,TRUE,TRUE,FALSE,FALSE,"""event"",""trial"",""time""
""fullscreenenter"",""5"",""16988""
","
","
","""event"",""trial"",""time""
""fullscreenenter"",""5"",""16988""
","
",1393.4899999998743,NA,48,NA,NA,3000,1,NA,NA,images/redplanet1.jpg,images/alien2,images/alien1,images/rocket1,images/alien2,images/t.png,2,real,true,2,common,1,2020-06-22T01:29:14Z,sub120
two-step-fixation,257,765276,0.0-76.0-2.40,TRUE,TRUE,FALSE,FALSE,"""event"",""trial"",""time""
""fullscreenenter"",""5"",""16988""
","
","
","""event"",""trial"",""time""
""fullscreenenter"",""5"",""16988""
","
",NA,images/earth.jpg,NA,NA,NA,NA,NA,NA,NA,NA,NA,NA,NA,NA,NA,fixation,NA,NA,NA,NA,NA,NA,sub120
d3-animate-choice,258,769282,0.0-76.0-0.41,TRUE,TRUE,FALSE,FALSE,"""event"",""trial"",""time""
""fullscreenenter"",""5"",""16988""
","
","
","""event"",""trial"",""time""
""fullscreenenter"",""5"",""16988""
","
",3125.4499999999534,NA,49,NA,NA,3000,0,NA,NA,images/earth.jpg,images/rocket2,images/rocket1,null,NA,NA,1,real,null,1,NA,NA,NA,sub120
d3-animate-choice,259,770290,0.0-76.0-1.41,TRUE,TRUE,FALSE,FALSE,"""event"",""trial"",""time""
""fullscreenenter"",""5"",""16988""
","
","
","""event"",""trial"",""time""
""fullscreenenter"",""5"",""16988""
","
",null,NA,null,NA,NA,0,0,NA,NA,images/earth.jpg,images/rocket2,images/rocket1,null,NA,NA,2,real,null,NA,NA,0,2020-06-22T01:29:20Z,sub120
two-step-fixation,260,771294,0.0-76.0-2.41,TRUE,TRUE,FALSE,FALSE,"""event"",""trial"",""time""
""fullscreenenter"",""5"",""16988""
","
","
","""event"",""trial"",""time""
""fullscreenenter"",""5"",""16988""
","
",NA,images/earth.jpg,NA,NA,NA,NA,NA,NA,NA,NA,NA,NA,NA,NA,NA,fixation,NA,NA,NA,NA,NA,NA,sub120
d3-animate-choice,261,773997,0.0-76.0-0.42,TRUE,TRUE,FALSE,FALSE,"""event"",""trial"",""time""
""fullscreenenter"",""5"",""16988""
","
","
","""event"",""trial"",""time""
""fullscreenenter"",""5"",""16988""
","
",697.0849999997299,NA,49,NA,NA,3000,1,NA,NA,images/earth.jpg,images/rocket2,images/rocket1,null,images/rocket1,NA,1,real,null,1,NA,NA,NA,sub120
d3-animate-choice,262,776632,0.0-76.0-1.42,TRUE,TRUE,FALSE,FALSE,"""event"",""trial"",""time""
""fullscreenenter"",""5"",""16988""
","
","
","""event"",""trial"",""time""
""fullscreenenter"",""5"",""16988""
","
",630.930000000284,NA,48,NA,NA,3000,1,NA,NA,images/redplanet1.jpg,images/alien2,images/alien1,images/rocket1,images/alien2,images/nothing.png,2,real,true,2,common,0,2020-06-22T01:29:27Z,sub120
two-step-fixation,263,777637,0.0-76.0-2.42,TRUE,TRUE,FALSE,FALSE,"""event"",""trial"",""time""
""fullscreenenter"",""5"",""16988""
","
","
","""event"",""trial"",""time""
""fullscreenenter"",""5"",""16988""
","
",NA,images/earth.jpg,NA,NA,NA,NA,NA,NA,NA,NA,NA,NA,NA,NA,NA,fixation,NA,NA,NA,NA,NA,NA,sub120
d3-animate-choice,264,780529,0.0-76.0-0.43,TRUE,TRUE,FALSE,FALSE,"""event"",""trial"",""time""
""fullscreenenter"",""5"",""16988""
","
","
","""event"",""trial"",""time""
""fullscreenenter"",""5"",""16988""
","
",887.3750000002328,NA,48,NA,NA,3000,1,NA,NA,images/earth.jpg,images/rocket2,images/rocket1,null,images/rocket2,NA,1,real,null,2,NA,NA,NA,sub120
d3-animate-choice,265,783008,0.0-76.0-1.43,TRUE,TRUE,FALSE,FALSE,"""event"",""trial"",""time""
""fullscreenenter"",""5"",""16988""
","
","
","""event"",""trial"",""time""
""fullscreenenter"",""5"",""16988""
","
",473.91500000003725,NA,49,NA,NA,3000,1,NA,NA,images/purpleplanet.jpg,images/alien4,images/alien3,images/rocket2,images/alien3,images/t.png,2,real,true,1,common,1,2020-06-22T01:29:33Z,sub120
two-step-fixation,266,784014,0.0-76.0-2.43,TRUE,TRUE,FALSE,FALSE,"""event"",""trial"",""time""
""fullscreenenter"",""5"",""16988""
","
","
","""event"",""trial"",""time""
""fullscreenenter"",""5"",""16988""
","
",NA,images/earth.jpg,NA,NA,NA,NA,NA,NA,NA,NA,NA,NA,NA,NA,NA,fixation,NA,NA,NA,NA,NA,NA,sub120
d3-animate-choice,267,786481,0.0-76.0-0.44,TRUE,TRUE,FALSE,FALSE,"""event"",""trial"",""time""
""fullscreenenter"",""5"",""16988""
","
","
","""event"",""trial"",""time""
""fullscreenenter"",""5"",""16988""
","
",461.7699999999022,NA,49,NA,NA,3000,1,NA,NA,images/earth.jpg,images/rocket2,images/rocket1,null,images/rocket1,NA,1,real,null,1,NA,NA,NA,sub120
d3-animate-choice,268,789100,0.0-76.0-1.44,TRUE,TRUE,FALSE,FALSE,"""event"",""trial"",""time""
""fullscreenenter"",""5"",""16988""
","
","
","""event"",""trial"",""time""
""fullscreenenter"",""5"",""16988""
","
",612.6549999999115,NA,48,NA,NA,3000,1,NA,NA,images/redplanet1.jpg,images/alien2,images/alien1,images/rocket1,images/alien2,images/t.png,2,real,true,2,common,1,2020-06-22T01:29:39Z,sub120
two-step-fixation,269,790104,0.0-76.0-2.44,TRUE,TRUE,FALSE,FALSE,"""event"",""trial"",""time""
""fullscreenenter"",""5"",""16988""
","
","
","""event"",""trial"",""time""
""fullscreenenter"",""5"",""16988""
","
",NA,images/earth.jpg,NA,NA,NA,NA,NA,NA,NA,NA,NA,NA,NA,NA,NA,fixation,NA,NA,NA,NA,NA,NA,sub120
d3-animate-choice,270,792691,0.0-76.0-0.45,TRUE,TRUE,FALSE,FALSE,"""event"",""trial"",""time""
""fullscreenenter"",""5"",""16988""
","
","
","""event"",""trial"",""time""
""fullscreenenter"",""5"",""16988""
","
",581.0250000000233,NA,48,NA,NA,3000,1,NA,NA,images/earth.jpg,images/rocket2,images/rocket1,null,images/rocket2,NA,1,real,null,2,NA,NA,NA,sub120
d3-animate-choice,271,795162,0.0-76.0-1.45,TRUE,TRUE,FALSE,FALSE,"""event"",""trial"",""time""
""fullscreenenter"",""5"",""16988""
","
","
","""event"",""trial"",""time""
""fullscreenenter"",""5"",""16988""
","
",466.6400000001304,NA,49,NA,NA,3000,1,NA,NA,images/redplanet1.jpg,images/alien2,images/alien1,images/rocket2,images/alien1,images/t.png,2,real,false,1,rare,1,2020-06-22T01:29:45Z,sub120
two-step-fixation,272,796166,0.0-76.0-2.45,TRUE,TRUE,FALSE,FALSE,"""event"",""trial"",""time""
""fullscreenenter"",""5"",""16988""
","
","
","""event"",""trial"",""time""
""fullscreenenter"",""5"",""16988""
","
",NA,images/earth.jpg,NA,NA,NA,NA,NA,NA,NA,NA,NA,NA,NA,NA,NA,fixation,NA,NA,NA,NA,NA,NA,sub120
d3-animate-choice,273,798869,0.0-76.0-0.46,TRUE,TRUE,FALSE,FALSE,"""event"",""trial"",""time""
""fullscreenenter"",""5"",""16988""
","
","
","""event"",""trial"",""time""
""fullscreenenter"",""5"",""16988""
","
",698.4400000000605,NA,49,NA,NA,3000,1,NA,NA,images/earth.jpg,images/rocket2,images/rocket1,null,images/rocket1,NA,1,real,null,1,NA,NA,NA,sub120
d3-animate-choice,274,801382,0.0-76.0-1.46,TRUE,TRUE,FALSE,FALSE,"""event"",""trial"",""time""
""fullscreenenter"",""5"",""16988""
","
","
","""event"",""trial"",""time""
""fullscreenenter"",""5"",""16988""
","
",507.9900000001071,NA,48,NA,NA,3000,1,NA,NA,images/redplanet1.jpg,images/alien2,images/alien1,images/rocket1,images/alien2,images/t.png,2,real,true,2,common,1,2020-06-22T01:29:51Z,sub120
two-step-fixation,275,802387,0.0-76.0-2.46,TRUE,TRUE,FALSE,FALSE,"""event"",""trial"",""time""
""fullscreenenter"",""5"",""16988""
","
","
","""event"",""trial"",""time""
""fullscreenenter"",""5"",""16988""
","
",NA,images/earth.jpg,NA,NA,NA,NA,NA,NA,NA,NA,NA,NA,NA,NA,NA,fixation,NA,NA,NA,NA,NA,NA,sub120
d3-animate-choice,276,804759,0.0-76.0-0.47,TRUE,TRUE,FALSE,FALSE,"""event"",""trial"",""time""
""fullscreenenter"",""5"",""16988""
","
","
","""event"",""trial"",""time""
""fullscreenenter"",""5"",""16988""
","
",367.2550000001211,NA,48,NA,NA,3000,1,NA,NA,images/earth.jpg,images/rocket2,images/rocket1,null,images/rocket2,NA,1,real,null,2,NA,NA,NA,sub120
d3-animate-choice,277,807239,0.0-76.0-1.47,TRUE,TRUE,FALSE,FALSE,"""event"",""trial"",""time""
""fullscreenenter"",""5"",""16988""
","
","
","""event"",""trial"",""time""
""fullscreenenter"",""5"",""16988""
","
",475.71999999997206,NA,49,NA,NA,3000,1,NA,NA,images/purpleplanet.jpg,images/alien4,images/alien3,images/rocket2,images/alien3,images/t.png,2,real,true,1,common,1,2020-06-22T01:29:57Z,sub120
two-step-fixation,278,808244,0.0-76.0-2.47,TRUE,TRUE,FALSE,FALSE,"""event"",""trial"",""time""
""fullscreenenter"",""5"",""16988""
","
","
","""event"",""trial"",""time""
""fullscreenenter"",""5"",""16988""
","
",NA,images/earth.jpg,NA,NA,NA,NA,NA,NA,NA,NA,NA,NA,NA,NA,NA,fixation,NA,NA,NA,NA,NA,NA,sub120
d3-animate-choice,279,810624,0.0-76.0-0.48,TRUE,TRUE,FALSE,FALSE,"""event"",""trial"",""time""
""fullscreenenter"",""5"",""16988""
","
","
","""event"",""trial"",""time""
""fullscreenenter"",""5"",""16988""
","
",371.2599999998929,NA,49,NA,NA,3000,1,NA,NA,images/earth.jpg,images/rocket2,images/rocket1,null,images/rocket1,NA,1,real,null,1,NA,NA,NA,sub120
d3-animate-choice,280,813138,0.0-76.0-1.48,TRUE,TRUE,FALSE,FALSE,"""event"",""trial"",""time""
""fullscreenenter"",""5"",""16988""
","
","
","""event"",""trial"",""time""
""fullscreenenter"",""5"",""16988""
","
