trial_type,trial_index,time_elapsed,internal_node_id,rocket_sides,red_planet_first_rocket,red_display_order,purple_display_order,interactions,blur_events,focus_events,fullscreenenter_events,fullscreenexit_events,rt,stimulus,key_press,button_pressed,success,duration,valid_pressed,rts,keys,planet_text,right_text,left_text,center_text,chosen_text,reward_text,trial_stage,practice_trial,transition_type,choice,reward,timestamp,transition,subject_id
pavlovia,0,6,0.0-0.0,TRUE,TRUE,TRUE,TRUE,"
","
","
","
","
",NA,NA,NA,NA,NA,NA,NA,NA,NA,NA,NA,NA,NA,NA,NA,NA,NA,NA,NA,NA,NA,NA,sub18
html-keyboard-response,1,6899,0.0-1.0,TRUE,TRUE,TRUE,TRUE,"
","
","
","
","
",6890,Welcome! Press the space bar to begin.,32,NA,NA,NA,NA,NA,NA,NA,NA,NA,NA,NA,NA,NA,NA,NA,NA,NA,NA,NA,sub18
audio-keyboard-response,2,10509,0.0-2.0,TRUE,TRUE,TRUE,TRUE,"
","
","
","
","
",3589,audio/beep_loop.wav,32,NA,NA,NA,NA,NA,NA,NA,NA,NA,NA,NA,NA,NA,NA,NA,NA,NA,NA,NA,sub18
audio-button-response,3,13663,0.0-3.0,TRUE,TRUE,TRUE,TRUE,"
","
","
","
","
",NaN,audio/fish.mp3,NA,1,NA,NA,NA,NA,NA,NA,NA,NA,NA,NA,NA,NA,NA,NA,NA,NA,NA,NA,sub18
audio-button-response,4,17664,0.0-4.0,TRUE,TRUE,TRUE,TRUE,"""event"",""trial"",""time""
""fullscreenenter"",""5"",""21591""
","
","
","""event"",""trial"",""time""
""fullscreenenter"",""5"",""21591""
","
",NaN,audio/tiger.mp3,NA,4,NA,NA,NA,NA,NA,NA,NA,NA,NA,NA,NA,NA,NA,NA,NA,NA,NA,NA,sub18
fullscreen,5,22351,0.0-5.0,TRUE,TRUE,TRUE,TRUE,"""event"",""trial"",""time""
""fullscreenenter"",""5"",""21591""
","
","
","""event"",""trial"",""time""
""fullscreenenter"",""5"",""21591""
","
",NA,NA,NA,NA,TRUE,NA,NA,NA,NA,NA,NA,NA,NA,NA,NA,NA,NA,NA,NA,NA,NA,NA,sub18
d3-instructions,6,48196,0.0-6.0,TRUE,TRUE,TRUE,TRUE,"""event"",""trial"",""time""
""fullscreenenter"",""5"",""21591""
","
","
","""event"",""trial"",""time""
""fullscreenenter"",""5"",""21591""
","
",NA,NA,NA,NA,NA,NA,NA,NA,NA,NA,NA,NA,NA,NA,NA,NA,NA,NA,NA,NA,NA,NA,sub18
d3-instructions,7,59396,0.0-7.0,TRUE,TRUE,TRUE,TRUE,"""event"",""trial"",""time""
""fullscreenenter"",""5"",""21591""
","
","
","""event"",""trial"",""time""
""fullscreenenter"",""5"",""21591""
","
",NA,NA,NA,NA,NA,NA,NA,NA,NA,NA,NA,NA,NA,NA,NA,NA,NA,NA,NA,NA,NA,NA,sub18
d3-instructions,8,66925,0.0-8.0,TRUE,TRUE,TRUE,TRUE,"""event"",""trial"",""time""
""fullscreenenter"",""5"",""21591""
","
","
","""event"",""trial"",""time""
""fullscreenenter"",""5"",""21591""
","
",NA,NA,NA,NA,NA,NA,NA,NA,NA,NA,NA,NA,NA,NA,NA,NA,NA,NA,NA,NA,NA,NA,sub18
d3-instructions,9,79429,0.0-9.0,TRUE,TRUE,TRUE,TRUE,"""event"",""trial"",""time""
""fullscreenenter"",""5"",""21591""
","
","
","""event"",""trial"",""time""
""fullscreenenter"",""5"",""21591""
","
",NA,NA,NA,NA,NA,NA,NA,NA,NA,NA,NA,NA,NA,NA,NA,NA,NA,NA,NA,NA,NA,NA,sub18
d3-instructions,10,98879,0.0-10.0,TRUE,TRUE,TRUE,TRUE,"""event"",""trial"",""time""
""fullscreenenter"",""5"",""21591""
","
","
","""event"",""trial"",""time""
""fullscreenenter"",""5"",""21591""
","
",NA,NA,NA,NA,NA,NA,NA,NA,NA,NA,NA,NA,NA,NA,NA,NA,NA,NA,NA,NA,NA,NA,sub18
d3-animate-choice,11,106027,0.0-11.0,TRUE,TRUE,TRUE,TRUE,"""event"",""trial"",""time""
""fullscreenenter"",""5"",""21591""
","
","
","""event"",""trial"",""time""
""fullscreenenter"",""5"",""21591""
","
",5130,NA,49,NA,NA,3000,1,NA,NA,images/tutgreenplanet.jpg,images/tutalien1,images/tutalien2,null,images/tutalien2,NA,NA,practice,null,NA,NA,NA,NA,sub18
d3-animate-choice,12,109187,0.0-12.0,TRUE,TRUE,TRUE,TRUE,"""event"",""trial"",""time""
""fullscreenenter"",""5"",""21591""
","
","
","""event"",""trial"",""time""
""fullscreenenter"",""5"",""21591""
","
",1136,NA,48,NA,NA,3000,1,NA,NA,images/tutgreenplanet.jpg,images/tutalien1,images/tutalien2,null,images/tutalien1,NA,NA,practice,null,NA,NA,NA,NA,sub18
d3-animate-choice,13,114009,0.0-13.0,TRUE,TRUE,TRUE,TRUE,"""event"",""trial"",""time""
""fullscreenenter"",""5"",""21591""
","
","
","""event"",""trial"",""time""
""fullscreenenter"",""5"",""21591""
","
",2799,NA,49,NA,NA,3000,1,NA,NA,images/tutgreenplanet.jpg,images/tutalien1,images/tutalien2,null,images/tutalien2,NA,NA,practice,null,NA,NA,NA,NA,sub18
d3-animate-choice,14,116558,0.0-14.0,TRUE,TRUE,TRUE,TRUE,"""event"",""trial"",""time""
""fullscreenenter"",""5"",""21591""
","
","
","""event"",""trial"",""time""
""fullscreenenter"",""5"",""21591""
","
",540,NA,48,NA,NA,3000,1,NA,NA,images/tutgreenplanet.jpg,images/tutalien1,images/tutalien2,null,images/tutalien1,NA,NA,practice,null,NA,NA,NA,NA,sub18
d3-instructions,15,123590,0.0-15.0,TRUE,TRUE,TRUE,TRUE,"""event"",""trial"",""time""
""fullscreenenter"",""5"",""21591""
","
","
","""event"",""trial"",""time""
""fullscreenenter"",""5"",""21591""
","
",NA,NA,NA,NA,NA,NA,NA,NA,NA,NA,NA,NA,NA,NA,NA,NA,NA,NA,NA,NA,NA,NA,sub18
d3-instructions,16,130249,0.0-16.0,TRUE,TRUE,TRUE,TRUE,"""event"",""trial"",""time""
""fullscreenenter"",""5"",""21591""
","
","
","""event"",""trial"",""time""
""fullscreenenter"",""5"",""21591""
","
",NA,NA,NA,NA,NA,NA,NA,NA,NA,NA,NA,NA,NA,NA,NA,NA,NA,NA,NA,NA,NA,NA,sub18
d3-instructions,17,138815,0.0-17.0,TRUE,TRUE,TRUE,TRUE,"""event"",""trial"",""time""
""fullscreenenter"",""5"",""21591""
","
","
","""event"",""trial"",""time""
""fullscreenenter"",""5"",""21591""
","
",NA,NA,NA,NA,NA,NA,NA,NA,NA,NA,NA,NA,NA,NA,NA,NA,NA,NA,NA,NA,NA,NA,sub18
d3-instructions,18,151457,0.0-18.0,TRUE,TRUE,TRUE,TRUE,"""event"",""trial"",""time""
""fullscreenenter"",""5"",""21591""
","
","
","""event"",""trial"",""time""
""fullscreenenter"",""5"",""21591""
","
",NA,NA,NA,NA,NA,NA,NA,NA,NA,NA,NA,NA,NA,NA,NA,NA,NA,NA,NA,NA,NA,NA,sub18
d3-instructions,19,164124,0.0-19.0,TRUE,TRUE,TRUE,TRUE,"""event"",""trial"",""time""
""fullscreenenter"",""5"",""21591""
","
","
","""event"",""trial"",""time""
""fullscreenenter"",""5"",""21591""
","
",NA,NA,NA,NA,NA,NA,NA,NA,NA,NA,NA,NA,NA,NA,NA,NA,NA,NA,NA,NA,NA,NA,sub18
d3-animate-choice,20,170211,0.0-20.0,TRUE,TRUE,TRUE,TRUE,"""event"",""trial"",""time""
""fullscreenenter"",""5"",""21591""
","
","
","""event"",""trial"",""time""
""fullscreenenter"",""5"",""21591""
","
",4066,NA,49,NA,NA,3000,1,NA,NA,images/tutyellowplanet.jpg,null,images/tutalien3,null,images/tutalien3,images/t.png,NA,practice,null,NA,NA,NA,NA,sub18
d3-animate-choice,21,172242,0.0-21.0,TRUE,TRUE,TRUE,TRUE,"""event"",""trial"",""time""
""fullscreenenter"",""5"",""21591""
","
","
","""event"",""trial"",""time""
""fullscreenenter"",""5"",""21591""
","
",23,NA,49,NA,NA,3000,1,1749,49,images/tutyellowplanet.jpg,null,images/tutalien3,null,images/tutalien3,images/t.png,NA,practice,null,NA,NA,NA,NA,sub18
d3-animate-choice,22,174872,0.0-22.0,TRUE,TRUE,TRUE,TRUE,"""event"",""trial"",""time""
""fullscreenenter"",""5"",""21591""
","
","
","""event"",""trial"",""time""
""fullscreenenter"",""5"",""21591""
","
",605,NA,49,NA,NA,3000,1,2398,49,images/tutyellowplanet.jpg,null,images/tutalien3,null,images/tutalien3,images/t.png,NA,practice,null,NA,NA,NA,NA,sub18
d3-animate-choice,23,177661,0.0-23.0,TRUE,TRUE,TRUE,TRUE,"""event"",""trial"",""time""
""fullscreenenter"",""5"",""21591""
","
","
","""event"",""trial"",""time""
""fullscreenenter"",""5"",""21591""
","
",781,NA,49,NA,NA,3000,1,NA,NA,images/tutyellowplanet.jpg,null,images/tutalien3,null,images/tutalien3,images/t.png,NA,practice,null,NA,NA,NA,NA,sub18
d3-animate-choice,24,179752,0.0-24.0,TRUE,TRUE,TRUE,TRUE,"""event"",""trial"",""time""
""fullscreenenter"",""5"",""21591""
","
","
","""event"",""trial"",""time""
""fullscreenenter"",""5"",""21591""
","
",81,NA,49,NA,NA,3000,1,1723,49,images/tutyellowplanet.jpg,null,images/tutalien3,null,images/tutalien3,images/t.png,NA,practice,null,NA,NA,NA,NA,sub18
d3-animate-choice,25,182301,0.0-25.0,TRUE,TRUE,TRUE,TRUE,"""event"",""trial"",""time""
""fullscreenenter"",""5"",""21591""
","
","
","""event"",""trial"",""time""
""fullscreenenter"",""5"",""21591""
","
",544,NA,49,NA,NA,3000,1,NA,NA,images/tutyellowplanet.jpg,null,images/tutalien3,null,images/tutalien3,images/t.png,NA,practice,null,NA,NA,NA,NA,sub18
d3-animate-choice,26,184682,0.0-26.0,TRUE,TRUE,TRUE,TRUE,"""event"",""trial"",""time""
""fullscreenenter"",""5"",""21591""
","
","
","""event"",""trial"",""time""
""fullscreenenter"",""5"",""21591""
","
",363,NA,49,NA,NA,3000,1,2212,49,images/tutyellowplanet.jpg,null,images/tutalien3,null,images/tutalien3,images/t.png,NA,practice,null,NA,NA,NA,NA,sub18
d3-animate-choice,27,187373,0.0-27.0,TRUE,TRUE,TRUE,TRUE,"""event"",""trial"",""time""
""fullscreenenter"",""5"",""21591""
","
","
","""event"",""trial"",""time""
""fullscreenenter"",""5"",""21591""
","
",670,NA,49,NA,NA,3000,1,NA,NA,images/tutyellowplanet.jpg,null,images/tutalien3,null,images/tutalien3,images/t.png,NA,practice,null,NA,NA,NA,NA,sub18
d3-animate-choice,28,189412,0.0-28.0,TRUE,TRUE,TRUE,TRUE,"""event"",""trial"",""time""
""fullscreenenter"",""5"",""21591""
","
","
","""event"",""trial"",""time""
""fullscreenenter"",""5"",""21591""
","
",22,NA,49,NA,NA,3000,1,NA,NA,images/tutyellowplanet.jpg,null,images/tutalien3,null,images/tutalien3,images/nothing.png,NA,practice,null,NA,NA,NA,NA,sub18
d3-animate-choice,29,191859,0.0-29.0,TRUE,TRUE,TRUE,TRUE,"""event"",""trial"",""time""
""fullscreenenter"",""5"",""21591""
","
","
","""event"",""trial"",""time""
""fullscreenenter"",""5"",""21591""
","
",428,NA,49,NA,NA,3000,1,NA,NA,images/tutyellowplanet.jpg,null,images/tutalien3,null,images/tutalien3,images/t.png,NA,practice,null,NA,NA,NA,NA,sub18
d3-instructions,30,199412,0.0-30.0,TRUE,TRUE,TRUE,TRUE,"""event"",""trial"",""time""
""fullscreenenter"",""5"",""21591""
","
","
","""event"",""trial"",""time""
""fullscreenenter"",""5"",""21591""
","
",NA,NA,NA,NA,NA,NA,NA,NA,NA,NA,NA,NA,NA,NA,NA,NA,NA,NA,NA,NA,NA,NA,sub18
d3-instructions,31,209429,0.0-31.0,TRUE,TRUE,TRUE,TRUE,"""event"",""trial"",""time""
""fullscreenenter"",""5"",""21591""
","
","
","""event"",""trial"",""time""
""fullscreenenter"",""5"",""21591""
","
",NA,NA,NA,NA,NA,NA,NA,NA,NA,NA,NA,NA,NA,NA,NA,NA,NA,NA,NA,NA,NA,NA,sub18
d3-instructions,32,216806,0.0-32.0,TRUE,TRUE,TRUE,TRUE,"""event"",""trial"",""time""
""fullscreenenter"",""5"",""21591""
","
","
","""event"",""trial"",""time""
""fullscreenenter"",""5"",""21591""
","
",NA,NA,NA,NA,NA,NA,NA,NA,NA,NA,NA,NA,NA,NA,NA,NA,NA,NA,NA,NA,NA,NA,sub18
d3-instructions,33,221583,0.0-33.0,TRUE,TRUE,TRUE,TRUE,"""event"",""trial"",""time""
""fullscreenenter"",""5"",""21591""
","
","
","""event"",""trial"",""time""
""fullscreenenter"",""5"",""21591""
","
",NA,NA,NA,NA,NA,NA,NA,NA,NA,NA,NA,NA,NA,NA,NA,NA,NA,NA,NA,NA,NA,NA,sub18
d3-animate-choice,34,226666,0.0-34.0,TRUE,TRUE,TRUE,TRUE,"""event"",""trial"",""time""
""fullscreenenter"",""5"",""21591""
","
","
","""event"",""trial"",""time""
""fullscreenenter"",""5"",""21591""
","
",3062,NA,49,NA,NA,3000,1,4812,48,images/tutgreenplanet.jpg,images/tutalien1,images/tutalien2,null,images/tutalien2,images/t.png,NA,practice,null,NA,NA,NA,NA,sub18
d3-animate-choice,35,229246,0.0-35.0,TRUE,TRUE,TRUE,TRUE,"""event"",""trial"",""time""
""fullscreenenter"",""5"",""21591""
","
","
","""event"",""trial"",""time""
""fullscreenenter"",""5"",""21591""
","
",561,NA,48,NA,NA,3000,1,2489,49,images/tutgreenplanet.jpg,images/tutalien1,images/tutalien2,null,images/tutalien1,images/nothing.png,NA,practice,null,NA,NA,NA,NA,sub18
d3-animate-choice,36,231766,0.0-36.0,TRUE,TRUE,TRUE,TRUE,"""event"",""trial"",""time""
""fullscreenenter"",""5"",""21591""
","
","
","""event"",""trial"",""time""
""fullscreenenter"",""5"",""21591""
","
",503,NA,49,NA,NA,3000,1,2063,49,images/tutgreenplanet.jpg,images/tutalien1,images/tutalien2,null,images/tutalien2,images/t.png,NA,practice,null,NA,NA,NA,NA,sub18
d3-animate-choice,37,234266,0.0-37.0,TRUE,TRUE,TRUE,TRUE,"""event"",""trial"",""time""
""fullscreenenter"",""5"",""21591""
","
","
","""event"",""trial"",""time""
""fullscreenenter"",""5"",""21591""
","
",485,NA,49,NA,NA,3000,1,NA,NA,images/tutgreenplanet.jpg,images/tutalien1,images/tutalien2,null,images/tutalien2,images/t.png,NA,practice,null,NA,NA,NA,NA,sub18
d3-animate-choice,38,236886,0.0-38.0,TRUE,TRUE,TRUE,TRUE,"""event"",""trial"",""time""
""fullscreenenter"",""5"",""21591""
","
","
","""event"",""trial"",""time""
""fullscreenenter"",""5"",""21591""
","
",609,NA,49,NA,NA,3000,1,2579,49,images/tutgreenplanet.jpg,images/tutalien1,images/tutalien2,null,images/tutalien2,images/t.png,NA,practice,null,NA,NA,NA,NA,sub18
d3-animate-choice,39,239321,0.0-39.0,TRUE,TRUE,TRUE,TRUE,"""event"",""trial"",""time""
""fullscreenenter"",""5"",""21591""
","
","
","""event"",""trial"",""time""
""fullscreenenter"",""5"",""21591""
","
",415,NA,49,NA,NA,3000,1,2335,49,images/tutgreenplanet.jpg,images/tutalien1,images/tutalien2,null,images/tutalien2,images/t.png,NA,practice,null,NA,NA,NA,NA,sub18
d3-animate-choice,40,241765,0.0-40.0,TRUE,TRUE,TRUE,TRUE,"""event"",""trial"",""time""
""fullscreenenter"",""5"",""21591""
","
","
","""event"",""trial"",""time""
""fullscreenenter"",""5"",""21591""
","
",435,NA,49,NA,NA,3000,1,NA,NA,images/tutgreenplanet.jpg,images/tutalien1,images/tutalien2,null,images/tutalien2,images/t.png,NA,practice,null,NA,NA,NA,NA,sub18
d3-animate-choice,41,243827,0.0-41.0,TRUE,TRUE,TRUE,TRUE,"""event"",""trial"",""time""
""fullscreenenter"",""5"",""21591""
","
","
","""event"",""trial"",""time""
""fullscreenenter"",""5"",""21591""
","
",39,NA,49,NA,NA,3000,1,1680,49,images/tutgreenplanet.jpg,images/tutalien1,images/tutalien2,null,images/tutalien2,images/t.png,NA,practice,null,NA,NA,NA,NA,sub18
d3-animate-choice,42,245895,0.0-42.0,TRUE,TRUE,TRUE,TRUE,"""event"",""trial"",""time""
""fullscreenenter"",""5"",""21591""
","
","
","""event"",""trial"",""time""
""fullscreenenter"",""5"",""21591""
","
",57,NA,49,NA,NA,3000,1,NA,NA,images/tutgreenplanet.jpg,images/tutalien1,images/tutalien2,null,images/tutalien2,images/t.png,NA,practice,null,NA,NA,NA,NA,sub18
d3-animate-choice,43,248216,0.0-43.0,TRUE,TRUE,TRUE,TRUE,"""event"",""trial"",""time""
""fullscreenenter"",""5"",""21591""
","
","
","""event"",""trial"",""time""
""fullscreenenter"",""5"",""21591""
","
",300,NA,49,NA,NA,3000,1,2196,49,images/tutgreenplanet.jpg,images/tutalien1,images/tutalien2,null,images/tutalien2,images/t.png,NA,practice,null,NA,NA,NA,NA,sub18
d3-instructions,44,260960,0.0-44.0,TRUE,TRUE,TRUE,TRUE,"""event"",""trial"",""time""
""fullscreenenter"",""5"",""21591""
","
","
","""event"",""trial"",""time""
""fullscreenenter"",""5"",""21591""
","
",NA,NA,NA,NA,NA,NA,NA,NA,NA,NA,NA,NA,NA,NA,NA,NA,NA,NA,NA,NA,NA,NA,sub18
d3-instructions,45,266465,0.0-45.0,TRUE,TRUE,TRUE,TRUE,"""event"",""trial"",""time""
""fullscreenenter"",""5"",""21591""
","
","
","""event"",""trial"",""time""
""fullscreenenter"",""5"",""21591""
","
",NA,NA,NA,NA,NA,NA,NA,NA,NA,NA,NA,NA,NA,NA,NA,NA,NA,NA,NA,NA,NA,NA,sub18
d3-instructions,46,270393,0.0-46.0,TRUE,TRUE,TRUE,TRUE,"""event"",""trial"",""time""
""fullscreenenter"",""5"",""21591""
","
","
","""event"",""trial"",""time""
""fullscreenenter"",""5"",""21591""
","
",NA,NA,NA,NA,NA,NA,NA,NA,NA,NA,NA,NA,NA,NA,NA,NA,NA,NA,NA,NA,NA,NA,sub18
d3-instructions,47,277235,0.0-47.0,TRUE,TRUE,TRUE,TRUE,"""event"",""trial"",""time""
""fullscreenenter"",""5"",""21591""
","
","
","""event"",""trial"",""time""
""fullscreenenter"",""5"",""21591""
","
",NA,NA,NA,NA,NA,NA,NA,NA,NA,NA,NA,NA,NA,NA,NA,NA,NA,NA,NA,NA,NA,NA,sub18
d3-instructions,48,283299,0.0-48.0,TRUE,TRUE,TRUE,TRUE,"""event"",""trial"",""time""
""fullscreenenter"",""5"",""21591""
","
","
","""event"",""trial"",""time""
""fullscreenenter"",""5"",""21591""
","
",NA,NA,NA,NA,NA,NA,NA,NA,NA,NA,NA,NA,NA,NA,NA,NA,NA,NA,NA,NA,NA,NA,sub18
d3-instructions,49,293852,0.0-49.0,TRUE,TRUE,TRUE,TRUE,"""event"",""trial"",""time""
""fullscreenenter"",""5"",""21591""
","
","
","""event"",""trial"",""time""
""fullscreenenter"",""5"",""21591""
","
",NA,NA,NA,NA,NA,NA,NA,NA,NA,NA,NA,NA,NA,NA,NA,NA,NA,NA,NA,NA,NA,NA,sub18
d3-instructions,50,300420,0.0-50.0,TRUE,TRUE,TRUE,TRUE,"""event"",""trial"",""time""
""fullscreenenter"",""5"",""21591""
","
","
","""event"",""trial"",""time""
""fullscreenenter"",""5"",""21591""
","
",NA,NA,NA,NA,NA,NA,NA,NA,NA,NA,NA,NA,NA,NA,NA,NA,NA,NA,NA,NA,NA,NA,sub18
d3-instructions,51,304524,0.0-51.0,TRUE,TRUE,TRUE,TRUE,"""event"",""trial"",""time""
""fullscreenenter"",""5"",""21591""
","
","
","""event"",""trial"",""time""
""fullscreenenter"",""5"",""21591""
","
",NA,NA,NA,NA,NA,NA,NA,NA,NA,NA,NA,NA,NA,NA,NA,NA,NA,NA,NA,NA,NA,NA,sub18
d3-instructions,52,307181,0.0-52.0,TRUE,TRUE,TRUE,TRUE,"""event"",""trial"",""time""
""fullscreenenter"",""5"",""21591""
","
","
","""event"",""trial"",""time""
""fullscreenenter"",""5"",""21591""
","
",NA,NA,NA,NA,NA,NA,NA,NA,NA,NA,NA,NA,NA,NA,NA,NA,NA,NA,NA,NA,NA,NA,sub18
d3-instructions,53,318622,0.0-53.0,TRUE,TRUE,TRUE,TRUE,"""event"",""trial"",""time""
""fullscreenenter"",""5"",""21591""
","
","
","""event"",""trial"",""time""
""fullscreenenter"",""5"",""21591""
","
",NA,NA,NA,NA,NA,NA,NA,NA,NA,NA,NA,NA,NA,NA,NA,NA,NA,NA,NA,NA,NA,NA,sub18
d3-instructions,54,324696,0.0-54.0,TRUE,TRUE,TRUE,TRUE,"""event"",""trial"",""time""
""fullscreenenter"",""5"",""21591""
","
","
","""event"",""trial"",""time""
""fullscreenenter"",""5"",""21591""
","
",NA,NA,NA,NA,NA,NA,NA,NA,NA,NA,NA,NA,NA,NA,NA,NA,NA,NA,NA,NA,NA,NA,sub18
d3-instructions,55,329549,0.0-55.0,TRUE,TRUE,TRUE,TRUE,"""event"",""trial"",""time""
""fullscreenenter"",""5"",""21591""
","
","
","""event"",""trial"",""time""
""fullscreenenter"",""5"",""21591""
","
",NA,NA,NA,NA,NA,NA,NA,NA,NA,NA,NA,NA,NA,NA,NA,NA,NA,NA,NA,NA,NA,NA,sub18
d3-instructions,56,337414,0.0-56.0,TRUE,TRUE,TRUE,TRUE,"""event"",""trial"",""time""
""fullscreenenter"",""5"",""21591""
","
","
","""event"",""trial"",""time""
""fullscreenenter"",""5"",""21591""
","
",NA,NA,NA,NA,NA,NA,NA,NA,NA,NA,NA,NA,NA,NA,NA,NA,NA,NA,NA,NA,NA,NA,sub18
d3-instructions,57,348408,0.0-57.0,TRUE,TRUE,TRUE,TRUE,"""event"",""trial"",""time""
""fullscreenenter"",""5"",""21591""
","
","
","""event"",""trial"",""time""
""fullscreenenter"",""5"",""21591""
","
",NA,NA,NA,NA,NA,NA,NA,NA,NA,NA,NA,NA,NA,NA,NA,NA,NA,NA,NA,NA,NA,NA,sub18
d3-instructions,58,359712,0.0-58.0,TRUE,TRUE,TRUE,TRUE,"""event"",""trial"",""time""
""fullscreenenter"",""5"",""21591""
","
","
","""event"",""trial"",""time""
""fullscreenenter"",""5"",""21591""
","
",NA,NA,NA,NA,NA,NA,NA,NA,NA,NA,NA,NA,NA,NA,NA,NA,NA,NA,NA,NA,NA,NA,sub18
d3-instructions,59,362824,0.0-59.0,TRUE,TRUE,TRUE,TRUE,"""event"",""trial"",""time""
""fullscreenenter"",""5"",""21591""
","
","
","""event"",""trial"",""time""
""fullscreenenter"",""5"",""21591""
","
",NA,NA,NA,NA,NA,NA,NA,NA,NA,NA,NA,NA,NA,NA,NA,NA,NA,NA,NA,NA,NA,NA,sub18
d3-instructions,60,367897,0.0-60.0,TRUE,TRUE,TRUE,TRUE,"""event"",""trial"",""time""
""fullscreenenter"",""5"",""21591""
","
","
","""event"",""trial"",""time""
""fullscreenenter"",""5"",""21591""
","
",NA,NA,NA,NA,NA,NA,NA,NA,NA,NA,NA,NA,NA,NA,NA,NA,NA,NA,NA,NA,NA,NA,sub18
d3-animate-choice,61,371934,0.0-61.0-0.0,TRUE,TRUE,TRUE,TRUE,"""event"",""trial"",""time""
""fullscreenenter"",""5"",""21591""
","
","
","""event"",""trial"",""time""
""fullscreenenter"",""5"",""21591""
","
",3051,NA,49,NA,NA,3000,0,NA,NA,images/earth.jpg,images/tutrocket1,images/tutrocket2,null,NA,NA,1,practice,null,1,NA,NA,NA,sub18
d3-animate-choice,62,372955,0.0-61.0-1.0,TRUE,TRUE,TRUE,TRUE,"""event"",""trial"",""time""
""fullscreenenter"",""5"",""21591""
","
","
","""event"",""trial"",""time""
""fullscreenenter"",""5"",""21591""
","
",null,NA,null,NA,NA,0,0,NA,NA,images/earth.jpg,images/tutrocket1,images/tutrocket2,null,NA,NA,2,practice,null,NA,0,2020-06-05T18:43:39Z,NA,sub18
two-step-fixation,63,373974,0.0-61.0-2.0,TRUE,TRUE,TRUE,TRUE,"""event"",""trial"",""time""
""fullscreenenter"",""5"",""21591""
","
","
","""event"",""trial"",""time""
""fullscreenenter"",""5"",""21591""
","
",NA,images/earth.jpg,NA,NA,NA,NA,NA,NA,NA,NA,NA,NA,NA,NA,NA,fixation,NA,NA,NA,NA,NA,NA,sub18
d3-animate-choice,64,376785,0.0-61.0-0.1,TRUE,TRUE,TRUE,TRUE,"""event"",""trial"",""time""
""fullscreenenter"",""5"",""21591""
","
","
","""event"",""trial"",""time""
""fullscreenenter"",""5"",""21591""
","
",790,NA,48,NA,NA,3000,1,NA,NA,images/earth.jpg,images/tutrocket1,images/tutrocket2,null,images/tutrocket1,NA,1,practice,null,2,NA,NA,NA,sub18
d3-animate-choice,65,380527,0.0-61.0-1.1,TRUE,TRUE,TRUE,TRUE,"""event"",""trial"",""time""
""fullscreenenter"",""5"",""21591""
","
","
","""event"",""trial"",""time""
""fullscreenenter"",""5"",""21591""
","
",1731,NA,48,NA,NA,3000,1,NA,NA,images/tutgreenplanet.jpg,images/tutalien2,images/tutalien1,images/tutrocket1,images/tutalien2,images/nothing.png,2,practice,true,2,0,2020-06-05T18:43:46Z,common,sub18
two-step-fixation,66,381546,0.0-61.0-2.1,TRUE,TRUE,TRUE,TRUE,"""event"",""trial"",""time""
""fullscreenenter"",""5"",""21591""
","
","
","""event"",""trial"",""time""
""fullscreenenter"",""5"",""21591""
","
",NA,images/earth.jpg,NA,NA,NA,NA,NA,NA,NA,NA,NA,NA,NA,NA,NA,fixation,NA,NA,NA,NA,NA,NA,sub18
d3-animate-choice,67,384156,0.0-61.0-0.2,TRUE,TRUE,TRUE,TRUE,"""event"",""trial"",""time""
""fullscreenenter"",""5"",""21591""
","
","
","""event"",""trial"",""time""
""fullscreenenter"",""5"",""21591""
","
",588,NA,49,NA,NA,3000,1,NA,NA,images/earth.jpg,images/tutrocket1,images/tutrocket2,null,images/tutrocket2,NA,1,practice,null,1,NA,NA,NA,sub18
d3-animate-choice,68,387026,0.0-61.0-1.2,TRUE,TRUE,TRUE,TRUE,"""event"",""trial"",""time""
""fullscreenenter"",""5"",""21591""
","
","
","""event"",""trial"",""time""
""fullscreenenter"",""5"",""21591""
","
",859,NA,49,NA,NA,3000,1,NA,NA,images/tutgreenplanet.jpg,images/tutalien2,images/tutalien1,images/tutrocket2,images/tutalien1,images/nothing.png,2,practice,false,1,0,2020-06-05T18:43:53Z,rare,sub18
two-step-fixation,69,388047,0.0-61.0-2.2,TRUE,TRUE,TRUE,TRUE,"""event"",""trial"",""time""
""fullscreenenter"",""5"",""21591""
","
","
","""event"",""trial"",""time""
""fullscreenenter"",""5"",""21591""
","
",NA,images/earth.jpg,NA,NA,NA,NA,NA,NA,NA,NA,NA,NA,NA,NA,NA,fixation,NA,NA,NA,NA,NA,NA,sub18
d3-animate-choice,70,391085,0.0-61.0-0.3,TRUE,TRUE,TRUE,TRUE,"""event"",""trial"",""time""
""fullscreenenter"",""5"",""21591""
","
","
","""event"",""trial"",""time""
""fullscreenenter"",""5"",""21591""
","
",1031,NA,48,NA,NA,3000,1,NA,NA,images/earth.jpg,images/tutrocket1,images/tutrocket2,null,images/tutrocket1,NA,1,practice,null,2,NA,NA,NA,sub18
d3-animate-choice,71,393906,0.0-61.0-1.3,TRUE,TRUE,TRUE,TRUE,"""event"",""trial"",""time""
""fullscreenenter"",""5"",""21591""
","
","
","""event"",""trial"",""time""
""fullscreenenter"",""5"",""21591""
","
",810,NA,48,NA,NA,3000,1,NA,NA,images/tutgreenplanet.jpg,images/tutalien2,images/tutalien1,images/tutrocket1,images/tutalien2,images/nothing.png,2,practice,true,2,0,2020-06-05T18:44:00Z,common,sub18
two-step-fixation,72,394926,0.0-61.0-2.3,TRUE,TRUE,TRUE,TRUE,"""event"",""trial"",""time""
""fullscreenenter"",""5"",""21591""
","
","
","""event"",""trial"",""time""
""fullscreenenter"",""5"",""21591""
","
",NA,images/earth.jpg,NA,NA,NA,NA,NA,NA,NA,NA,NA,NA,NA,NA,NA,fixation,NA,NA,NA,NA,NA,NA,sub18
d3-animate-choice,73,397738,0.0-61.0-0.4,TRUE,TRUE,TRUE,TRUE,"""event"",""trial"",""time""
""fullscreenenter"",""5"",""21591""
","
","
","""event"",""trial"",""time""
""fullscreenenter"",""5"",""21591""
","
",800,NA,49,NA,NA,3000,1,NA,NA,images/earth.jpg,images/tutrocket1,images/tutrocket2,null,images/tutrocket2,NA,1,practice,null,1,NA,NA,NA,sub18
d3-animate-choice,74,400946,0.0-61.0-1.4,TRUE,TRUE,TRUE,TRUE,"""event"",""trial"",""time""
""fullscreenenter"",""5"",""21591""
","
","
","""event"",""trial"",""time""
""fullscreenenter"",""5"",""21591""
","
",1197,NA,48,NA,NA,3000,1,NA,NA,images/tutyellowplanet.jpg,images/tutalien4,images/tutalien3,images/tutrocket2,images/tutalien4,images/t.png,2,practice,true,2,1,2020-06-05T18:44:07Z,common,sub18
two-step-fixation,75,401967,0.0-61.0-2.4,TRUE,TRUE,TRUE,TRUE,"""event"",""trial"",""time""
""fullscreenenter"",""5"",""21591""
","
","
","""event"",""trial"",""time""
""fullscreenenter"",""5"",""21591""
","
",NA,images/earth.jpg,NA,NA,NA,NA,NA,NA,NA,NA,NA,NA,NA,NA,NA,fixation,NA,NA,NA,NA,NA,NA,sub18
d3-animate-choice,76,404647,0.0-61.0-0.5,TRUE,TRUE,TRUE,TRUE,"""event"",""trial"",""time""
""fullscreenenter"",""5"",""21591""
","
","
","""event"",""trial"",""time""
""fullscreenenter"",""5"",""21591""
","
",664,NA,49,NA,NA,3000,1,NA,NA,images/earth.jpg,images/tutrocket1,images/tutrocket2,null,images/tutrocket2,NA,1,practice,null,1,NA,NA,NA,sub18
d3-animate-choice,77,407568,0.0-61.0-1.5,TRUE,TRUE,TRUE,TRUE,"""event"",""trial"",""time""
""fullscreenenter"",""5"",""21591""
","
","
","""event"",""trial"",""time""
""fullscreenenter"",""5"",""21591""
","
",892,NA,49,NA,NA,3000,1,NA,NA,images/tutgreenplanet.jpg,images/tutalien2,images/tutalien1,images/tutrocket2,images/tutalien1,images/nothing.png,2,practice,false,1,0,2020-06-05T18:44:13Z,rare,sub18
two-step-fixation,78,408587,0.0-61.0-2.5,TRUE,TRUE,TRUE,TRUE,"""event"",""trial"",""time""
""fullscreenenter"",""5"",""21591""
","
","
","""event"",""trial"",""time""
""fullscreenenter"",""5"",""21591""
","
",NA,images/earth.jpg,NA,NA,NA,NA,NA,NA,NA,NA,NA,NA,NA,NA,NA,fixation,NA,NA,NA,NA,NA,NA,sub18
d3-animate-choice,79,411077,0.0-61.0-0.6,TRUE,TRUE,TRUE,TRUE,"""event"",""trial"",""time""
""fullscreenenter"",""5"",""21591""
","
","
","""event"",""trial"",""time""
""fullscreenenter"",""5"",""21591""
","
",484,NA,48,NA,NA,3000,1,NA,NA,images/earth.jpg,images/tutrocket1,images/tutrocket2,null,images/tutrocket1,NA,1,practice,null,2,NA,NA,NA,sub18
d3-animate-choice,80,414028,0.0-61.0-1.6,TRUE,TRUE,TRUE,TRUE,"""event"",""trial"",""time""
""fullscreenenter"",""5"",""21591""
","
","
","""event"",""trial"",""time""
""fullscreenenter"",""5"",""21591""
","
",938,NA,48,NA,NA,3000,1,NA,NA,images/tutyellowplanet.jpg,images/tutalien4,images/tutalien3,images/tutrocket1,images/tutalien4,images/t.png,2,practice,false,2,1,2020-06-05T18:44:20Z,rare,sub18
two-step-fixation,81,415048,0.0-61.0-2.6,TRUE,TRUE,TRUE,TRUE,"""event"",""trial"",""time""
""fullscreenenter"",""5"",""21591""
","
","
","""event"",""trial"",""time""
""fullscreenenter"",""5"",""21591""
","
",NA,images/earth.jpg,NA,NA,NA,NA,NA,NA,NA,NA,NA,NA,NA,NA,NA,fixation,NA,NA,NA,NA,NA,NA,sub18
d3-animate-choice,82,417588,0.0-61.0-0.7,TRUE,TRUE,TRUE,TRUE,"""event"",""trial"",""time""
""fullscreenenter"",""5"",""21591""
","
","
","""event"",""trial"",""time""
""fullscreenenter"",""5"",""21591""
","
",528,NA,49,NA,NA,3000,1,NA,NA,images/earth.jpg,images/tutrocket1,images/tutrocket2,null,images/tutrocket2,NA,1,practice,null,1,NA,NA,NA,sub18
d3-animate-choice,83,420728,0.0-61.0-1.7,TRUE,TRUE,TRUE,TRUE,"""event"",""trial"",""time""
""fullscreenenter"",""5"",""21591""
","
","
","""event"",""trial"",""time""
""fullscreenenter"",""5"",""21591""
","
",1131,NA,49,NA,NA,3000,1,NA,NA,images/tutyellowplanet.jpg,images/tutalien4,images/tutalien3,images/tutrocket2,images/tutalien3,images/nothing.png,2,practice,true,1,0,2020-06-05T18:44:26Z,common,sub18
two-step-fixation,84,421749,0.0-61.0-2.7,TRUE,TRUE,TRUE,TRUE,"""event"",""trial"",""time""
""fullscreenenter"",""5"",""21591""
","
","
","""event"",""trial"",""time""
""fullscreenenter"",""5"",""21591""
","
",NA,images/earth.jpg,NA,NA,NA,NA,NA,NA,NA,NA,NA,NA,NA,NA,NA,fixation,NA,NA,NA,NA,NA,NA,sub18
d3-animate-choice,85,424759,0.0-61.0-0.8,TRUE,TRUE,TRUE,TRUE,"""event"",""trial"",""time""
""fullscreenenter"",""5"",""21591""
","
","
","""event"",""trial"",""time""
""fullscreenenter"",""5"",""21591""
","
",997,NA,49,NA,NA,3000,1,NA,NA,images/earth.jpg,images/tutrocket1,images/tutrocket2,null,images/tutrocket2,NA,1,practice,null,1,NA,NA,NA,sub18
d3-animate-choice,86,427539,0.0-61.0-1.8,TRUE,TRUE,TRUE,TRUE,"""event"",""trial"",""time""
""fullscreenenter"",""5"",""21591""
","
","
","""event"",""trial"",""time""
""fullscreenenter"",""5"",""21591""
","
",761,NA,48,NA,NA,3000,1,NA,NA,images/tutyellowplanet.jpg,images/tutalien4,images/tutalien3,images/tutrocket2,images/tutalien4,images/t.png,2,practice,true,2,1,2020-06-05T18:44:33Z,common,sub18
two-step-fixation,87,428559,0.0-61.0-2.8,TRUE,TRUE,TRUE,TRUE,"""event"",""trial"",""time""
""fullscreenenter"",""5"",""21591""
","
","
","""event"",""trial"",""time""
""fullscreenenter"",""5"",""21591""
","
",NA,images/earth.jpg,NA,NA,NA,NA,NA,NA,NA,NA,NA,NA,NA,NA,NA,fixation,NA,NA,NA,NA,NA,NA,sub18
d3-animate-choice,88,431160,0.0-61.0-0.9,TRUE,TRUE,TRUE,TRUE,"""event"",""trial"",""time""
""fullscreenenter"",""5"",""21591""
","
","
","""event"",""trial"",""time""
""fullscreenenter"",""5"",""21591""
","
",587,NA,48,NA,NA,3000,1,NA,NA,images/earth.jpg,images/tutrocket1,images/tutrocket2,null,images/tutrocket1,NA,1,practice,null,2,NA,NA,NA,sub18
d3-animate-choice,89,433960,0.0-61.0-1.9,TRUE,TRUE,TRUE,TRUE,"""event"",""trial"",""time""
""fullscreenenter"",""5"",""21591""
","
","
","""event"",""trial"",""time""
""fullscreenenter"",""5"",""21591""
","
",793,NA,48,NA,NA,3000,1,NA,NA,images/tutyellowplanet.jpg,images/tutalien4,images/tutalien3,images/tutrocket1,images/tutalien4,images/nothing.png,2,practice,false,2,0,2020-06-05T18:44:40Z,rare,sub18
two-step-fixation,90,434979,0.0-61.0-2.9,TRUE,TRUE,TRUE,TRUE,"""event"",""trial"",""time""
""fullscreenenter"",""5"",""21591""
","
","
","""event"",""trial"",""time""
""fullscreenenter"",""5"",""21591""
","
",NA,images/earth.jpg,NA,NA,NA,NA,NA,NA,NA,NA,NA,NA,NA,NA,NA,fixation,NA,NA,NA,NA,NA,NA,sub18
d3-animate-choice,91,437519,0.0-61.0-0.10,TRUE,TRUE,TRUE,TRUE,"""event"",""trial"",""time""
""fullscreenenter"",""5"",""21591""
","
","
","""event"",""trial"",""time""
""fullscreenenter"",""5"",""21591""
","
",534,NA,48,NA,NA,3000,1,NA,NA,images/earth.jpg,images/tutrocket1,images/tutrocket2,null,images/tutrocket1,NA,1,practice,null,2,NA,NA,NA,sub18
d3-animate-choice,92,440130,0.0-61.0-1.10,TRUE,TRUE,TRUE,TRUE,"""event"",""trial"",""time""
""fullscreenenter"",""5"",""21591""
","
","
","""event"",""trial"",""time""
""fullscreenenter"",""5"",""21591""
","
",601,NA,49,NA,NA,3000,1,NA,NA,images/tutyellowplanet.jpg,images/tutalien4,images/tutalien3,images/tutrocket1,images/tutalien3,images/nothing.png,2,practice,false,1,0,2020-06-05T18:44:46Z,rare,sub18
two-step-fixation,93,441151,0.0-61.0-2.10,TRUE,TRUE,TRUE,TRUE,"""event"",""trial"",""time""
""fullscreenenter"",""5"",""21591""
","
","
","""event"",""trial"",""time""
""fullscreenenter"",""5"",""21591""
","
",NA,images/earth.jpg,NA,NA,NA,NA,NA,NA,NA,NA,NA,NA,NA,NA,NA,fixation,NA,NA,NA,NA,NA,NA,sub18
d3-animate-choice,94,443650,0.0-61.0-0.11,TRUE,TRUE,TRUE,TRUE,"""event"",""trial"",""time""
""fullscreenenter"",""5"",""21591""
","
","
","""event"",""trial"",""time""
""fullscreenenter"",""5"",""21591""
","
",475,NA,49,NA,NA,3000,1,NA,NA,images/earth.jpg,images/tutrocket1,images/tutrocket2,null,images/tutrocket2,NA,1,practice,null,1,NA,NA,NA,sub18
d3-animate-choice,95,446360,0.0-61.0-1.11,TRUE,TRUE,TRUE,TRUE,"""event"",""trial"",""time""
""fullscreenenter"",""5"",""21591""
","
","
","""event"",""trial"",""time""
""fullscreenenter"",""5"",""21591""
","
",695,NA,48,NA,NA,3000,1,NA,NA,images/tutyellowplanet.jpg,images/tutalien4,images/tutalien3,images/tutrocket2,images/tutalien4,images/t.png,2,practice,true,2,1,2020-06-05T18:44:52Z,common,sub18
two-step-fixation,96,447380,0.0-61.0-2.11,TRUE,TRUE,TRUE,TRUE,"""event"",""trial"",""time""
""fullscreenenter"",""5"",""21591""
","
","
","""event"",""trial"",""time""
""fullscreenenter"",""5"",""21591""
","
",NA,images/earth.jpg,NA,NA,NA,NA,NA,NA,NA,NA,NA,NA,NA,NA,NA,fixation,NA,NA,NA,NA,NA,NA,sub18
d3-animate-choice,97,449980,0.0-61.0-0.12,TRUE,TRUE,TRUE,TRUE,"""event"",""trial"",""time""
""fullscreenenter"",""5"",""21591""
","
","
","""event"",""trial"",""time""
""fullscreenenter"",""5"",""21591""
","
",583,NA,49,NA,NA,3000,1,NA,NA,images/earth.jpg,images/tutrocket1,images/tutrocket2,null,images/tutrocket2,NA,1,practice,null,1,NA,NA,NA,sub18
d3-animate-choice,98,452601,0.0-61.0-1.12,TRUE,TRUE,TRUE,TRUE,"""event"",""trial"",""time""
""fullscreenenter"",""5"",""21591""
","
","
","""event"",""trial"",""time""
""fullscreenenter"",""5"",""21591""
","
",606,NA,48,NA,NA,3000,1,NA,NA,images/tutyellowplanet.jpg,images/tutalien4,images/tutalien3,images/tutrocket2,images/tutalien4,images/t.png,2,practice,true,2,1,2020-06-05T18:44:58Z,common,sub18
two-step-fixation,99,453622,0.0-61.0-2.12,TRUE,TRUE,TRUE,TRUE,"""event"",""trial"",""time""
""fullscreenenter"",""5"",""21591""
","
","
","""event"",""trial"",""time""
""fullscreenenter"",""5"",""21591""
","
",NA,images/earth.jpg,NA,NA,NA,NA,NA,NA,NA,NA,NA,NA,NA,NA,NA,fixation,NA,NA,NA,NA,NA,NA,sub18
d3-animate-choice,100,456471,0.0-61.0-0.13,TRUE,TRUE,TRUE,TRUE,"""event"",""trial"",""time""
""fullscreenenter"",""5"",""21591""
","
","
","""event"",""trial"",""time""
""fullscreenenter"",""5"",""21591""
","
",830,NA,48,NA,NA,3000,1,NA,NA,images/earth.jpg,images/tutrocket1,images/tutrocket2,null,images/tutrocket1,NA,1,practice,null,2,NA,NA,NA,sub18
d3-animate-choice,101,458990,0.0-61.0-1.13,TRUE,TRUE,TRUE,TRUE,"""event"",""trial"",""time""
""fullscreenenter"",""5"",""21591""
","
","
","""event"",""trial"",""time""
""fullscreenenter"",""5"",""21591""
","
",509,NA,48,NA,NA,3000,1,NA,NA,images/tutyellowplanet.jpg,images/tutalien4,images/tutalien3,images/tutrocket1,images/tutalien4,images/t.png,2,practice,false,2,1,2020-06-05T18:45:05Z,rare,sub18
two-step-fixation,102,460010,0.0-61.0-2.13,TRUE,TRUE,TRUE,TRUE,"""event"",""trial"",""time""
""fullscreenenter"",""5"",""21591""
","
","
","""event"",""trial"",""time""
""fullscreenenter"",""5"",""21591""
","
",NA,images/earth.jpg,NA,NA,NA,NA,NA,NA,NA,NA,NA,NA,NA,NA,NA,fixation,NA,NA,NA,NA,NA,NA,sub18
d3-animate-choice,103,462551,0.0-61.0-0.14,TRUE,TRUE,TRUE,TRUE,"""event"",""trial"",""time""
""fullscreenenter"",""5"",""21591""
","
","
","""event"",""trial"",""time""
""fullscreenenter"",""5"",""21591""
","
",521,NA,48,NA,NA,3000,1,NA,NA,images/earth.jpg,images/tutrocket1,images/tutrocket2,null,images/tutrocket1,NA,1,practice,null,2,NA,NA,NA,sub18
d3-animate-choice,104,465802,0.0-61.0-1.14,TRUE,TRUE,TRUE,TRUE,"""event"",""trial"",""time""
""fullscreenenter"",""5"",""21591""
","
","
","""event"",""trial"",""time""
""fullscreenenter"",""5"",""21591""
","
",1244,NA,48,NA,NA,3000,1,NA,NA,images/tutgreenplanet.jpg,images/tutalien2,images/tutalien1,images/tutrocket1,images/tutalien2,images/nothing.png,2,practice,true,2,0,2020-06-05T18:45:11Z,common,sub18
two-step-fixation,105,466822,0.0-61.0-2.14,TRUE,TRUE,TRUE,TRUE,"""event"",""trial"",""time""
""fullscreenenter"",""5"",""21591""
","
","
","""event"",""trial"",""time""
""fullscreenenter"",""5"",""21591""
","
",NA,images/earth.jpg,NA,NA,NA,NA,NA,NA,NA,NA,NA,NA,NA,NA,NA,fixation,NA,NA,NA,NA,NA,NA,sub18
d3-animate-choice,106,469702,0.0-61.0-0.15,TRUE,TRUE,TRUE,TRUE,"""event"",""trial"",""time""
""fullscreenenter"",""5"",""21591""
","
","
","""event"",""trial"",""time""
""fullscreenenter"",""5"",""21591""
","
",863,NA,48,NA,NA,3000,1,NA,NA,images/earth.jpg,images/tutrocket1,images/tutrocket2,null,images/tutrocket1,NA,1,practice,null,2,NA,NA,NA,sub18
d3-animate-choice,107,473292,0.0-61.0-1.15,TRUE,TRUE,TRUE,TRUE,"""event"",""trial"",""time""
""fullscreenenter"",""5"",""21591""
","
","
","""event"",""trial"",""time""
""fullscreenenter"",""5"",""21591""
","
",1566,NA,49,NA,NA,3000,1,NA,NA,images/tutgreenplanet.jpg,images/tutalien2,images/tutalien1,images/tutrocket1,images/tutalien1,images/nothing.png,2,practice,true,1,0,2020-06-05T18:45:19Z,common,sub18
two-step-fixation,108,474313,0.0-61.0-2.15,TRUE,TRUE,TRUE,TRUE,"""event"",""trial"",""time""
""fullscreenenter"",""5"",""21591""
","
","
","""event"",""trial"",""time""
""fullscreenenter"",""5"",""21591""
","
",NA,images/earth.jpg,NA,NA,NA,NA,NA,NA,NA,NA,NA,NA,NA,NA,NA,fixation,NA,NA,NA,NA,NA,NA,sub18
d3-animate-choice,109,476793,0.0-61.0-0.16,TRUE,TRUE,TRUE,TRUE,"""event"",""trial"",""time""
""fullscreenenter"",""5"",""21591""
","
","
","""event"",""trial"",""time""
""fullscreenenter"",""5"",""21591""
","
",467,NA,48,NA,NA,3000,1,NA,NA,images/earth.jpg,images/tutrocket1,images/tutrocket2,null,images/tutrocket1,NA,1,practice,null,2,NA,NA,NA,sub18
d3-animate-choice,110,479933,0.0-61.0-1.16,TRUE,TRUE,TRUE,TRUE,"""event"",""trial"",""time""
""fullscreenenter"",""5"",""21591""
","
","
","""event"",""trial"",""time""
""fullscreenenter"",""5"",""21591""
","
",1130,NA,48,NA,NA,3000,1,NA,NA,images/tutgreenplanet.jpg,images/tutalien2,images/tutalien1,images/tutrocket1,images/tutalien2,images/nothing.png,2,practice,true,2,0,2020-06-05T18:45:26Z,common,sub18
two-step-fixation,111,480952,0.0-61.0-2.16,TRUE,TRUE,TRUE,TRUE,"""event"",""trial"",""time""
""fullscreenenter"",""5"",""21591""
","
","
","""event"",""trial"",""time""
""fullscreenenter"",""5"",""21591""
","
",NA,images/earth.jpg,NA,NA,NA,NA,NA,NA,NA,NA,NA,NA,NA,NA,NA,fixation,NA,NA,NA,NA,NA,NA,sub18
d3-animate-choice,112,483193,0.0-61.0-0.17,TRUE,TRUE,TRUE,TRUE,"""event"",""trial"",""time""
""fullscreenenter"",""5"",""21591""
","
","
","""event"",""trial"",""time""
""fullscreenenter"",""5"",""21591""
","
",221,NA,49,NA,NA,3000,1,NA,NA,images/earth.jpg,images/tutrocket1,images/tutrocket2,null,images/tutrocket2,NA,1,practice,null,1,NA,NA,NA,sub18
d3-animate-choice,113,485883,0.0-61.0-1.17,TRUE,TRUE,TRUE,TRUE,"""event"",""trial"",""time""
""fullscreenenter"",""5"",""21591""
","
","
","""event"",""trial"",""time""
""fullscreenenter"",""5"",""21591""
","
",685,NA,48,NA,NA,3000,1,NA,NA,images/tutyellowplanet.jpg,images/tutalien4,images/tutalien3,images/tutrocket2,images/tutalien4,images/t.png,2,practice,true,2,1,2020-06-05T18:45:32Z,common,sub18
two-step-fixation,114,486902,0.0-61.0-2.17,TRUE,TRUE,TRUE,TRUE,"""event"",""trial"",""time""
""fullscreenenter"",""5"",""21591""
","
","
","""event"",""trial"",""time""
""fullscreenenter"",""5"",""21591""
","
",NA,images/earth.jpg,NA,NA,NA,NA,NA,NA,NA,NA,NA,NA,NA,NA,NA,fixation,NA,NA,NA,NA,NA,NA,sub18
d3-animate-choice,115,489704,0.0-61.0-0.18,TRUE,TRUE,TRUE,TRUE,"""event"",""trial"",""time""
""fullscreenenter"",""5"",""21591""
","
","
","""event"",""trial"",""time""
""fullscreenenter"",""5"",""21591""
","
",790,NA,48,NA,NA,3000,1,NA,NA,images/earth.jpg,images/tutrocket1,images/tutrocket2,null,images/tutrocket1,NA,1,practice,null,2,NA,NA,NA,sub18
d3-animate-choice,116,492283,0.0-61.0-1.18,TRUE,TRUE,TRUE,TRUE,"""event"",""trial"",""time""
""fullscreenenter"",""5"",""21591""
","
","
","""event"",""trial"",""time""
""fullscreenenter"",""5"",""21591""
","
",558,NA,48,NA,NA,3000,1,NA,NA,images/tutyellowplanet.jpg,images/tutalien4,images/tutalien3,images/tutrocket1,images/tutalien4,images/nothing.png,2,practice,false,2,0,2020-06-05T18:45:38Z,rare,sub18
two-step-fixation,117,493304,0.0-61.0-2.18,TRUE,TRUE,TRUE,TRUE,"""event"",""trial"",""time""
""fullscreenenter"",""5"",""21591""
","
","
","""event"",""trial"",""time""
""fullscreenenter"",""5"",""21591""
","
",NA,images/earth.jpg,NA,NA,NA,NA,NA,NA,NA,NA,NA,NA,NA,NA,NA,fixation,NA,NA,NA,NA,NA,NA,sub18
d3-animate-choice,118,496114,0.0-61.0-0.19,TRUE,TRUE,TRUE,TRUE,"""event"",""trial"",""time""
""fullscreenenter"",""5"",""21591""
","
","
","""event"",""trial"",""time""
""fullscreenenter"",""5"",""21591""
","
",790,NA,49,NA,NA,3000,1,NA,NA,images/earth.jpg,images/tutrocket1,images/tutrocket2,null,images/tutrocket2,NA,1,practice,null,1,NA,NA,NA,sub18
d3-animate-choice,119,498784,0.0-61.0-1.19,TRUE,TRUE,TRUE,TRUE,"""event"",""trial"",""time""
""fullscreenenter"",""5"",""21591""
","
","
","""event"",""trial"",""time""
""fullscreenenter"",""5"",""21591""
","
",651,NA,49,NA,NA,3000,1,NA,NA,images/tutyellowplanet.jpg,images/tutalien4,images/tutalien3,images/tutrocket2,images/tutalien3,images/t.png,2,practice,true,1,1,2020-06-05T18:45:44Z,common,sub18
two-step-fixation,120,499789,0.0-61.0-2.19,TRUE,TRUE,TRUE,TRUE,"""event"",""trial"",""time""
""fullscreenenter"",""5"",""21591""
","
","
","""event"",""trial"",""time""
""fullscreenenter"",""5"",""21591""
","
",NA,images/earth.jpg,NA,NA,NA,NA,NA,NA,NA,NA,NA,NA,NA,NA,NA,fixation,NA,NA,NA,NA,NA,NA,sub18
d3-instructions,121,505458,0.0-62.0,TRUE,TRUE,TRUE,TRUE,"""event"",""trial"",""time""
""fullscreenenter"",""5"",""21591""
","
","
","""event"",""trial"",""time""
""fullscreenenter"",""5"",""21591""
","
",NA,NA,NA,NA,NA,NA,NA,NA,NA,NA,NA,NA,NA,NA,NA,NA,NA,NA,NA,NA,NA,NA,sub18
audio-keyboard-response,122,509321,0.0-63.0,TRUE,TRUE,TRUE,TRUE,"""event"",""trial"",""time""
""fullscreenenter"",""5"",""21591""
","
","
","""event"",""trial"",""time""
""fullscreenenter"",""5"",""21591""
","
",3861,audio/instructions/treasure_feedback.wav,32,NA,NA,NA,NA,NA,NA,NA,NA,NA,NA,NA,NA,NA,NA,NA,NA,NA,NA,NA,sub18
d3-instructions,123,529699,0.0-64.0,TRUE,TRUE,TRUE,TRUE,"""event"",""trial"",""time""
""fullscreenenter"",""5"",""21591""
","
","
","""event"",""trial"",""time""
""fullscreenenter"",""5"",""21591""
","
",NA,NA,NA,NA,NA,NA,NA,NA,NA,NA,NA,NA,NA,NA,NA,NA,NA,NA,NA,NA,NA,NA,sub18
d3-instructions,124,543741,0.0-65.0,TRUE,TRUE,TRUE,TRUE,"""event"",""trial"",""time""
""fullscreenenter"",""5"",""21591""
","
","
","""event"",""trial"",""time""
""fullscreenenter"",""5"",""21591""
","
",NA,NA,NA,NA,NA,NA,NA,NA,NA,NA,NA,NA,NA,NA,NA,NA,NA,NA,NA,NA,NA,NA,sub18
d3-instructions,125,571486,0.0-66.0,TRUE,TRUE,TRUE,TRUE,"""event"",""trial"",""time""
""fullscreenenter"",""5"",""21591""
","
","
","""event"",""trial"",""time""
""fullscreenenter"",""5"",""21591""
","
",NA,NA,NA,NA,NA,NA,NA,NA,NA,NA,NA,NA,NA,NA,NA,NA,NA,NA,NA,NA,NA,NA,sub18
d3-instructions,126,587472,0.0-67.0,TRUE,TRUE,TRUE,TRUE,"""event"",""trial"",""time""
""fullscreenenter"",""5"",""21591""
","
","
","""event"",""trial"",""time""
""fullscreenenter"",""5"",""21591""
","
",NA,NA,NA,NA,NA,NA,NA,NA,NA,NA,NA,NA,NA,NA,NA,NA,NA,NA,NA,NA,NA,NA,sub18
d3-instructions,127,591495,0.0-68.0,TRUE,TRUE,TRUE,TRUE,"""event"",""trial"",""time""
""fullscreenenter"",""5"",""21591""
","
","
","""event"",""trial"",""time""
""fullscreenenter"",""5"",""21591""
","
",NA,NA,NA,NA,NA,NA,NA,NA,NA,NA,NA,NA,NA,NA,NA,NA,NA,NA,NA,NA,NA,NA,sub18
instructions-quiz,128,596880,0.0-69.0,TRUE,TRUE,TRUE,TRUE,"""event"",""trial"",""time""
""fullscreenenter"",""5"",""21591""
","
","
","""event"",""trial"",""time""
""fullscreenenter"",""5"",""21591""
","
",5382,audio/quiz/Q1_Prompt.wav,NA,1,NA,NA,NA,NA,NA,NA,NA,NA,NA,NA,NA,NA,NA,NA,NA,NA,NA,NA,sub18
audio-keyboard-response,129,606062,0.0-70.0,TRUE,TRUE,TRUE,TRUE,"""event"",""trial"",""time""
""fullscreenenter"",""5"",""21591""
","
","
","""event"",""trial"",""time""
""fullscreenenter"",""5"",""21591""
","
",null,audio/quiz/Q1_Correct.wav,null,NA,NA,NA,NA,NA,NA,NA,NA,NA,NA,NA,NA,NA,NA,NA,NA,NA,NA,NA,sub18
instructions-quiz,130,610708,0.0-71.0,TRUE,TRUE,TRUE,TRUE,"""event"",""trial"",""time""
""fullscreenenter"",""5"",""21591""
","
","
","""event"",""trial"",""time""
""fullscreenenter"",""5"",""21591""
","
",4645,audio/quiz/Q2_Prompt.wav,NA,0,NA,NA,NA,NA,NA,NA,NA,NA,NA,NA,NA,NA,NA,NA,NA,NA,NA,NA,sub18
audio-keyboard-response,131,623583,0.0-72.0,TRUE,TRUE,TRUE,TRUE,"""event"",""trial"",""time""
""fullscreenenter"",""5"",""21591""
","
","
","""event"",""trial"",""time""
""fullscreenenter"",""5"",""21591""
","
",null,audio/quiz/Q2_Correct.wav,null,NA,NA,NA,NA,NA,NA,NA,NA,NA,NA,NA,NA,NA,NA,NA,NA,NA,NA,NA,sub18
instructions-quiz,132,627655,0.0-73.0,TRUE,TRUE,TRUE,TRUE,"""event"",""trial"",""time""
""fullscreenenter"",""5"",""21591""
","
","
","""event"",""trial"",""time""
""fullscreenenter"",""5"",""21591""
","
",4071,audio/quiz/Q3_Prompt.wav,NA,1,NA,NA,NA,NA,NA,NA,NA,NA,NA,NA,NA,NA,NA,NA,NA,NA,NA,NA,sub18
audio-keyboard-response,133,633464,0.0-74.0,TRUE,TRUE,TRUE,TRUE,"""event"",""trial"",""time""
""fullscreenenter"",""5"",""21591""
","
","
","""event"",""trial"",""time""
""fullscreenenter"",""5"",""21591""
","
",null,audio/quiz/Q3_Correct.wav,null,NA,NA,NA,NA,NA,NA,NA,NA,NA,NA,NA,NA,NA,NA,NA,NA,NA,NA,NA,sub18
d3-instructions,134,647404,0.0-75.0,TRUE,TRUE,TRUE,TRUE,"""event"",""trial"",""time""
""fullscreenenter"",""5"",""21591""
","
","
","""event"",""trial"",""time""
""fullscreenenter"",""5"",""21591""
","
",NA,NA,NA,NA,NA,NA,NA,NA,NA,NA,NA,NA,NA,NA,NA,NA,NA,NA,NA,NA,NA,NA,sub18
d3-animate-choice,135,651429,0.0-76.0-0.0,TRUE,TRUE,TRUE,TRUE,"""event"",""trial"",""time""
""fullscreenenter"",""5"",""21591""
","
","
","""event"",""trial"",""time""
""fullscreenenter"",""5"",""21591""
","
",null,NA,null,NA,NA,3000,0,NA,NA,images/earth.jpg,images/rocket2,images/rocket1,null,NA,NA,1,real,null,NA,NA,NA,NA,sub18
d3-animate-choice,136,652444,0.0-76.0-1.0,TRUE,TRUE,TRUE,TRUE,"""event"",""trial"",""time""
""fullscreenenter"",""5"",""21591""
","
","
","""event"",""trial"",""time""
""fullscreenenter"",""5"",""21591""
","
",null,NA,null,NA,NA,0,0,NA,NA,images/earth.jpg,images/rocket2,images/rocket1,null,NA,NA,2,real,null,NA,0,2020-06-05T18:48:18Z,NA,sub18
two-step-fixation,137,653462,0.0-76.0-2.0,TRUE,TRUE,TRUE,TRUE,"""event"",""trial"",""time""
""fullscreenenter"",""5"",""21591""
","
","
","""event"",""trial"",""time""
""fullscreenenter"",""5"",""21591""
","
",NA,images/earth.jpg,NA,NA,NA,NA,NA,NA,NA,NA,NA,NA,NA,NA,NA,fixation,NA,NA,NA,NA,NA,NA,sub18
d3-animate-choice,138,656895,0.0-76.0-0.1,TRUE,TRUE,TRUE,TRUE,"""event"",""trial"",""time""
""fullscreenenter"",""5"",""21591""
","
","
","""event"",""trial"",""time""
""fullscreenenter"",""5"",""21591""
","
",1425,NA,49,NA,NA,3000,1,NA,NA,images/earth.jpg,images/rocket2,images/rocket1,null,images/rocket1,NA,1,real,null,1,NA,NA,NA,sub18
d3-animate-choice,139,659895,0.0-76.0-1.1,TRUE,TRUE,TRUE,TRUE,"""event"",""trial"",""time""
""fullscreenenter"",""5"",""21591""
","
","
","""event"",""trial"",""time""
""fullscreenenter"",""5"",""21591""
","
",993,NA,48,NA,NA,3000,1,NA,NA,images/purpleplanet.jpg,images/alien4,images/alien3,images/rocket1,images/alien4,images/t.png,2,real,false,2,1,2020-06-05T18:48:26Z,rare,sub18
two-step-fixation,140,660915,0.0-76.0-2.1,TRUE,TRUE,TRUE,TRUE,"""event"",""trial"",""time""
""fullscreenenter"",""5"",""21591""
","
","
","""event"",""trial"",""time""
""fullscreenenter"",""5"",""21591""
","
",NA,images/earth.jpg,NA,NA,NA,NA,NA,NA,NA,NA,NA,NA,NA,NA,NA,fixation,NA,NA,NA,NA,NA,NA,sub18
d3-animate-choice,141,663715,0.0-76.0-0.2,TRUE,TRUE,TRUE,TRUE,"""event"",""trial"",""time""
""fullscreenenter"",""5"",""21591""
","
","
","""event"",""trial"",""time""
""fullscreenenter"",""5"",""21591""
","
",791,NA,48,NA,NA,3000,1,NA,NA,images/earth.jpg,images/rocket2,images/rocket1,null,images/rocket2,NA,1,real,null,2,NA,NA,NA,sub18
d3-animate-choice,142,666626,0.0-76.0-1.2,TRUE,TRUE,TRUE,TRUE,"""event"",""trial"",""time""
""fullscreenenter"",""5"",""21591""
","
","
","""event"",""trial"",""time""
""fullscreenenter"",""5"",""21591""
","
",894,NA,49,NA,NA,3000,1,NA,NA,images/purpleplanet.jpg,images/alien4,images/alien3,images/rocket2,images/alien3,images/nothing.png,2,real,true,1,0,2020-06-05T18:48:32Z,common,sub18
two-step-fixation,143,667636,0.0-76.0-2.2,TRUE,TRUE,TRUE,TRUE,"""event"",""trial"",""time""
""fullscreenenter"",""5"",""21591""
","
","
","""event"",""trial"",""time""
""fullscreenenter"",""5"",""21591""
","
",NA,images/earth.jpg,NA,NA,NA,NA,NA,NA,NA,NA,NA,NA,NA,NA,NA,fixation,NA,NA,NA,NA,NA,NA,sub18
d3-animate-choice,144,670226,0.0-76.0-0.3,TRUE,TRUE,TRUE,TRUE,"""event"",""trial"",""time""
""fullscreenenter"",""5"",""21591""
","
","
","""event"",""trial"",""time""
""fullscreenenter"",""5"",""21591""
","
",582,NA,48,NA,NA,3000,1,NA,NA,images/earth.jpg,images/rocket2,images/rocket1,null,images/rocket2,NA,1,real,null,2,NA,NA,NA,sub18
d3-animate-choice,145,672847,0.0-76.0-1.3,TRUE,TRUE,TRUE,TRUE,"""event"",""trial"",""time""
""fullscreenenter"",""5"",""21591""
","
","
","""event"",""trial"",""time""
""fullscreenenter"",""5"",""21591""
","
",599,NA,48,NA,NA,3000,1,NA,NA,images/purpleplanet.jpg,images/alien4,images/alien3,images/rocket2,images/alien4,images/t.png,2,real,true,2,1,2020-06-05T18:48:38Z,common,sub18
two-step-fixation,146,673867,0.0-76.0-2.3,TRUE,TRUE,TRUE,TRUE,"""event"",""trial"",""time""
""fullscreenenter"",""5"",""21591""
","
","
","""event"",""trial"",""time""
""fullscreenenter"",""5"",""21591""
","
",NA,images/earth.jpg,NA,NA,NA,NA,NA,NA,NA,NA,NA,NA,NA,NA,NA,fixation,NA,NA,NA,NA,NA,NA,sub18
d3-animate-choice,147,676405,0.0-76.0-0.4,TRUE,TRUE,TRUE,TRUE,"""event"",""trial"",""time""
""fullscreenenter"",""5"",""21591""
","
","
","""event"",""trial"",""time""
""fullscreenenter"",""5"",""21591""
","
",519,NA,49,NA,NA,3000,1,NA,NA,images/earth.jpg,images/rocket2,images/rocket1,null,images/rocket1,NA,1,real,null,1,NA,NA,NA,sub18
d3-animate-choice,148,679037,0.0-76.0-1.4,TRUE,TRUE,TRUE,TRUE,"""event"",""trial"",""time""
""fullscreenenter"",""5"",""21591""
","
","
","""event"",""trial"",""time""
""fullscreenenter"",""5"",""21591""
","
",620,NA,48,NA,NA,3000,1,NA,NA,images/purpleplanet.jpg,images/alien4,images/alien3,images/rocket1,images/alien4,images/nothing.png,2,real,false,2,0,2020-06-05T18:48:45Z,rare,sub18
two-step-fixation,149,680057,0.0-76.0-2.4,TRUE,TRUE,TRUE,TRUE,"""event"",""trial"",""time""
""fullscreenenter"",""5"",""21591""
","
","
","""event"",""trial"",""time""
""fullscreenenter"",""5"",""21591""
","
",NA,images/earth.jpg,NA,NA,NA,NA,NA,NA,NA,NA,NA,NA,NA,NA,NA,fixation,NA,NA,NA,NA,NA,NA,sub18
d3-animate-choice,150,683076,0.0-76.0-0.5,TRUE,TRUE,TRUE,TRUE,"""event"",""trial"",""time""
""fullscreenenter"",""5"",""21591""
","
","
","""event"",""trial"",""time""
""fullscreenenter"",""5"",""21591""
","
",1011,NA,49,NA,NA,3000,1,NA,NA,images/earth.jpg,images/rocket2,images/rocket1,null,images/rocket1,NA,1,real,null,1,NA,NA,NA,sub18
d3-animate-choice,151,686507,0.0-76.0-1.5,TRUE,TRUE,TRUE,TRUE,"""event"",""trial"",""time""
""fullscreenenter"",""5"",""21591""
","
","
","""event"",""trial"",""time""
""fullscreenenter"",""5"",""21591""
","
",1404,NA,48,NA,NA,3000,1,NA,NA,images/redplanet1.jpg,images/alien2,images/alien1,images/rocket1,images/alien2,images/t.png,2,real,true,2,1,2020-06-05T18:48:52Z,common,sub18
two-step-fixation,152,687516,0.0-76.0-2.5,TRUE,TRUE,TRUE,TRUE,"""event"",""trial"",""time""
""fullscreenenter"",""5"",""21591""
","
","
","""event"",""trial"",""time""
""fullscreenenter"",""5"",""21591""
","
",NA,images/earth.jpg,NA,NA,NA,NA,NA,NA,NA,NA,NA,NA,NA,NA,NA,fixation,NA,NA,NA,NA,NA,NA,sub18
d3-animate-choice,153,690458,0.0-76.0-0.6,TRUE,TRUE,TRUE,TRUE,"""event"",""trial"",""time""
""fullscreenenter"",""5"",""21591""
","
","
","""event"",""trial"",""time""
""fullscreenenter"",""5"",""21591""
","
",934,NA,49,NA,NA,3000,1,NA,NA,images/earth.jpg,images/rocket2,images/rocket1,null,images/rocket1,NA,1,real,null,1,NA,NA,NA,sub18
d3-animate-choice,154,693506,0.0-76.0-1.6,TRUE,TRUE,TRUE,TRUE,"""event"",""trial"",""time""
""fullscreenenter"",""5"",""21591""
","
","
","""event"",""trial"",""time""
""fullscreenenter"",""5"",""21591""
","
",1026,NA,49,NA,NA,3000,1,NA,NA,images/redplanet1.jpg,images/alien2,images/alien1,images/rocket1,images/alien1,images/t.png,2,real,true,1,1,2020-06-05T18:48:59Z,common,sub18
two-step-fixation,155,694527,0.0-76.0-2.6,TRUE,TRUE,TRUE,TRUE,"""event"",""trial"",""time""
""fullscreenenter"",""5"",""21591""
","
","
","""event"",""trial"",""time""
""fullscreenenter"",""5"",""21591""
","
",NA,images/earth.jpg,NA,NA,NA,NA,NA,NA,NA,NA,NA,NA,NA,NA,NA,fixation,NA,NA,NA,NA,NA,NA,sub18
d3-animate-choice,156,697148,0.0-76.0-0.7,TRUE,TRUE,TRUE,TRUE,"""event"",""trial"",""time""
""fullscreenenter"",""5"",""21591""
","
","
","""event"",""trial"",""time""
""fullscreenenter"",""5"",""21591""
","
",613,NA,49,NA,NA,3000,1,NA,NA,images/earth.jpg,images/rocket2,images/rocket1,null,images/rocket1,NA,1,real,null,1,NA,NA,NA,sub18
d3-animate-choice,157,700268,0.0-76.0-1.7,TRUE,TRUE,TRUE,TRUE,"""event"",""trial"",""time""
""fullscreenenter"",""5"",""21591""
","
","
","""event"",""trial"",""time""
""fullscreenenter"",""5"",""21591""
","
",1111,NA,49,NA,NA,3000,1,NA,NA,images/purpleplanet.jpg,images/alien4,images/alien3,images/rocket1,images/alien3,images/nothing.png,2,real,false,1,0,2020-06-05T18:49:06Z,rare,sub18
two-step-fixation,158,701287,0.0-76.0-2.7,TRUE,TRUE,TRUE,TRUE,"""event"",""trial"",""time""
""fullscreenenter"",""5"",""21591""
","
","
","""event"",""trial"",""time""
""fullscreenenter"",""5"",""21591""
","
",NA,images/earth.jpg,NA,NA,NA,NA,NA,NA,NA,NA,NA,NA,NA,NA,NA,fixation,NA,NA,NA,NA,NA,NA,sub18
d3-animate-choice,159,703819,0.0-76.0-0.8,TRUE,TRUE,TRUE,TRUE,"""event"",""trial"",""time""
""fullscreenenter"",""5"",""21591""
","
","
","""event"",""trial"",""time""
""fullscreenenter"",""5"",""21591""
","
",509,NA,48,NA,NA,3000,1,NA,NA,images/earth.jpg,images/rocket2,images/rocket1,null,images/rocket2,NA,1,real,null,2,NA,NA,NA,sub18
d3-animate-choice,160,706398,0.0-76.0-1.8,TRUE,TRUE,TRUE,TRUE,"""event"",""trial"",""time""
""fullscreenenter"",""5"",""21591""
","
","
","""event"",""trial"",""time""
""fullscreenenter"",""5"",""21591""
","
",569,NA,48,NA,NA,3000,1,681,93,images/purpleplanet.jpg,images/alien4,images/alien3,images/rocket2,images/alien4,images/t.png,2,real,true,2,1,2020-06-05T18:49:12Z,common,sub18
two-step-fixation,161,707418,0.0-76.0-2.8,TRUE,TRUE,TRUE,TRUE,"""event"",""trial"",""time""
""fullscreenenter"",""5"",""21591""
","
","
","""event"",""trial"",""time""
""fullscreenenter"",""5"",""21591""
","
",NA,images/earth.jpg,NA,NA,NA,NA,NA,NA,NA,NA,NA,NA,NA,NA,NA,fixation,NA,NA,NA,NA,NA,NA,sub18
d3-animate-choice,162,711458,0.0-76.0-0.9,TRUE,TRUE,TRUE,TRUE,"""event"",""trial"",""time""
""fullscreenenter"",""5"",""21591""
","
","
","""event"",""trial"",""time""
""fullscreenenter"",""5"",""21591""
","
",null,NA,null,NA,NA,3000,0,NA,NA,images/earth.jpg,images/rocket2,images/rocket1,null,NA,NA,1,real,null,NA,NA,NA,NA,sub18
d3-animate-choice,163,712488,0.0-76.0-1.9,TRUE,TRUE,TRUE,TRUE,"""event"",""trial"",""time""
""fullscreenenter"",""5"",""21591""
","
","
","""event"",""trial"",""time""
""fullscreenenter"",""5"",""21591""
","
",null,NA,null,NA,NA,0,0,NA,NA,images/earth.jpg,images/rocket2,images/rocket1,null,NA,NA,2,real,null,NA,0,2020-06-05T18:49:18Z,NA,sub18
two-step-fixation,164,713500,0.0-76.0-2.9,TRUE,TRUE,TRUE,TRUE,"""event"",""trial"",""time""
""fullscreenenter"",""5"",""21591""
","
","
","""event"",""trial"",""time""
""fullscreenenter"",""5"",""21591""
","
",NA,images/earth.jpg,NA,NA,NA,NA,NA,NA,NA,NA,NA,NA,NA,NA,NA,fixation,NA,NA,NA,NA,NA,NA,sub18
d3-animate-choice,165,716970,0.0-76.0-0.10,TRUE,TRUE,TRUE,TRUE,"""event"",""trial"",""time""
""fullscreenenter"",""5"",""21591""
","
","
","""event"",""trial"",""time""
""fullscreenenter"",""5"",""21591""
","
",1460,NA,48,NA,NA,3000,1,NA,NA,images/earth.jpg,images/rocket2,images/rocket1,null,images/rocket2,NA,1,real,null,2,NA,NA,NA,sub18
d3-animate-choice,166,719749,0.0-76.0-1.10,TRUE,TRUE,TRUE,TRUE,"""event"",""trial"",""time""
""fullscreenenter"",""5"",""21591""
","
","
","""event"",""trial"",""time""
""fullscreenenter"",""5"",""21591""
","
",772,NA,48,NA,NA,3000,1,NA,NA,images/purpleplanet.jpg,images/alien4,images/alien3,images/rocket2,images/alien4,images/t.png,2,real,true,2,1,2020-06-05T18:49:25Z,common,sub18
two-step-fixation,167,720769,0.0-76.0-2.10,TRUE,TRUE,TRUE,TRUE,"""event"",""trial"",""time""
""fullscreenenter"",""5"",""21591""
","
","
","""event"",""trial"",""time""
""fullscreenenter"",""5"",""21591""
","
",NA,images/earth.jpg,NA,NA,NA,NA,NA,NA,NA,NA,NA,NA,NA,NA,NA,fixation,NA,NA,NA,NA,NA,NA,sub18
d3-animate-choice,168,723289,0.0-76.0-0.11,TRUE,TRUE,TRUE,TRUE,"""event"",""trial"",""time""
""fullscreenenter"",""5"",""21591""
","
","
","""event"",""trial"",""time""
""fullscreenenter"",""5"",""21591""
","
",501,NA,48,NA,NA,3000,1,NA,NA,images/earth.jpg,images/rocket2,images/rocket1,null,images/rocket2,NA,1,real,null,2,NA,NA,NA,sub18
d3-animate-choice,169,725990,0.0-76.0-1.11,TRUE,TRUE,TRUE,TRUE,"""event"",""trial"",""time""
""fullscreenenter"",""5"",""21591""
","
","
","""event"",""trial"",""time""
""fullscreenenter"",""5"",""21591""
","
",692,NA,48,NA,NA,3000,1,NA,NA,images/purpleplanet.jpg,images/alien4,images/alien3,images/rocket2,images/alien4,images/t.png,2,real,true,2,1,2020-06-05T18:49:32Z,common,sub18
two-step-fixation,170,726999,0.0-76.0-2.11,TRUE,TRUE,TRUE,TRUE,"""event"",""trial"",""time""
""fullscreenenter"",""5"",""21591""
","
","
","""event"",""trial"",""time""
""fullscreenenter"",""5"",""21591""
","
",NA,images/earth.jpg,NA,NA,NA,NA,NA,NA,NA,NA,NA,NA,NA,NA,NA,fixation,NA,NA,NA,NA,NA,NA,sub18
d3-animate-choice,171,729530,0.0-76.0-0.12,TRUE,TRUE,TRUE,TRUE,"""event"",""trial"",""time""
""fullscreenenter"",""5"",""21591""
","
","
","""event"",""trial"",""time""
""fullscreenenter"",""5"",""21591""
","
",510,NA,48,NA,NA,3000,1,NA,NA,images/earth.jpg,images/rocket2,images/rocket1,null,images/rocket2,NA,1,real,null,2,NA,NA,NA,sub18
d3-animate-choice,172,731959,0.0-76.0-1.12,TRUE,TRUE,TRUE,TRUE,"""event"",""trial"",""time""
""fullscreenenter"",""5"",""21591""
","
","
","""event"",""trial"",""time""
""fullscreenenter"",""5"",""21591""
","
",411,NA,48,NA,NA,3000,1,NA,NA,images/purpleplanet.jpg,images/alien4,images/alien3,images/rocket2,images/alien4,images/t.png,2,real,true,2,1,2020-06-05T18:49:38Z,common,sub18
two-step-fixation,173,732980,0.0-76.0-2.12,TRUE,TRUE,TRUE,TRUE,"""event"",""trial"",""time""
""fullscreenenter"",""5"",""21591""
","
","
","""event"",""trial"",""time""
""fullscreenenter"",""5"",""21591""
","
",NA,images/earth.jpg,NA,NA,NA,NA,NA,NA,NA,NA,NA,NA,NA,NA,NA,fixation,NA,NA,NA,NA,NA,NA,sub18
d3-animate-choice,174,735631,0.0-76.0-0.13,TRUE,TRUE,TRUE,TRUE,"""event"",""trial"",""time""
""fullscreenenter"",""5"",""21591""
","
","
","""event"",""trial"",""time""
""fullscreenenter"",""5"",""21591""
","
",643,NA,48,NA,NA,3000,1,NA,NA,images/earth.jpg,images/rocket2,images/rocket1,null,images/rocket2,NA,1,real,null,2,NA,NA,NA,sub18
d3-animate-choice,175,738171,0.0-76.0-1.13,TRUE,TRUE,TRUE,TRUE,"""event"",""trial"",""time""
""fullscreenenter"",""5"",""21591""
","
","
","""event"",""trial"",""time""
""fullscreenenter"",""5"",""21591""
","
",519,NA,48,NA,NA,3000,1,NA,NA,images/purpleplanet.jpg,images/alien4,images/alien3,images/rocket2,images/alien4,images/t.png,2,real,true,2,1,2020-06-05T18:49:44Z,common,sub18
two-step-fixation,176,739191,0.0-76.0-2.13,TRUE,TRUE,TRUE,TRUE,"""event"",""trial"",""time""
""fullscreenenter"",""5"",""21591""
","
","
","""event"",""trial"",""time""
""fullscreenenter"",""5"",""21591""
","
",NA,images/earth.jpg,NA,NA,NA,NA,NA,NA,NA,NA,NA,NA,NA,NA,NA,fixation,NA,NA,NA,NA,NA,NA,sub18
d3-animate-choice,177,741611,0.0-76.0-0.14,TRUE,TRUE,TRUE,TRUE,"""event"",""trial"",""time""
""fullscreenenter"",""5"",""21591""
","
","
","""event"",""trial"",""time""
""fullscreenenter"",""5"",""21591""
","
",401,NA,48,NA,NA,3000,1,NA,NA,images/earth.jpg,images/rocket2,images/rocket1,null,images/rocket2,NA,1,real,null,2,NA,NA,NA,sub18
d3-animate-choice,178,744071,0.0-76.0-1.14,TRUE,TRUE,TRUE,TRUE,"""event"",""trial"",""time""
""fullscreenenter"",""5"",""21591""
","
","
","""event"",""trial"",""time""
""fullscreenenter"",""5"",""21591""
","
",452,NA,48,NA,NA,3000,1,NA,NA,images/purpleplanet.jpg,images/alien4,images/alien3,images/rocket2,images/alien4,images/nothing.png,2,real,true,2,0,2020-06-05T18:49:50Z,common,sub18
two-step-fixation,179,745091,0.0-76.0-2.14,TRUE,TRUE,TRUE,TRUE,"""event"",""trial"",""time""
""fullscreenenter"",""5"",""21591""
","
","
","""event"",""trial"",""time""
""fullscreenenter"",""5"",""21591""
","
",NA,images/earth.jpg,NA,NA,NA,NA,NA,NA,NA,NA,NA,NA,NA,NA,NA,fixation,NA,NA,NA,NA,NA,NA,sub18
d3-animate-choice,180,747871,0.0-76.0-0.15,TRUE,TRUE,TRUE,TRUE,"""event"",""trial"",""time""
""fullscreenenter"",""5"",""21591""
","
","
","""event"",""trial"",""time""
""fullscreenenter"",""5"",""21591""
","
",756,NA,49,NA,NA,3000,1,NA,NA,images/earth.jpg,images/rocket2,images/rocket1,null,images/rocket1,NA,1,real,null,1,NA,NA,NA,sub18
d3-animate-choice,181,749911,0.0-76.0-1.15,TRUE,TRUE,TRUE,TRUE,"""event"",""trial"",""time""
""fullscreenenter"",""5"",""21591""
","
","
","""event"",""trial"",""time""
""fullscreenenter"",""5"",""21591""
","
",32,NA,48,NA,NA,3000,1,414,48,images/purpleplanet.jpg,images/alien4,images/alien3,images/rocket1,images/alien4,images/t.png,2,real,false,2,1,2020-06-05T18:49:56Z,rare,sub18
two-step-fixation,182,750931,0.0-76.0-2.15,TRUE,TRUE,TRUE,TRUE,"""event"",""trial"",""time""
""fullscreenenter"",""5"",""21591""
","
","
","""event"",""trial"",""time""
""fullscreenenter"",""5"",""21591""
","
",NA,images/earth.jpg,NA,NA,NA,NA,NA,NA,NA,NA,NA,NA,NA,NA,NA,fixation,NA,NA,NA,NA,NA,NA,sub18
d3-animate-choice,183,753712,0.0-76.0-0.16,TRUE,TRUE,TRUE,TRUE,"""event"",""trial"",""time""
""fullscreenenter"",""5"",""21591""
","
","
","""event"",""trial"",""time""
""fullscreenenter"",""5"",""21591""
","
",773,NA,48,NA,NA,3000,1,NA,NA,images/earth.jpg,images/rocket2,images/rocket1,null,images/rocket2,NA,1,real,null,2,NA,NA,NA,sub18
d3-animate-choice,184,756692,0.0-76.0-1.16,TRUE,TRUE,TRUE,TRUE,"""event"",""trial"",""time""
""fullscreenenter"",""5"",""21591""
","
","
","""event"",""trial"",""time""
""fullscreenenter"",""5"",""21591""
","
",968,NA,49,NA,NA,3000,1,NA,NA,images/redplanet1.jpg,images/alien2,images/alien1,images/rocket2,images/alien1,images/t.png,2,real,false,1,1,2020-06-05T18:50:02Z,rare,sub18
two-step-fixation,185,757712,0.0-76.0-2.16,TRUE,TRUE,TRUE,TRUE,"""event"",""trial"",""time""
""fullscreenenter"",""5"",""21591""
","
","
","""event"",""trial"",""time""
""fullscreenenter"",""5"",""21591""
","
",NA,images/earth.jpg,NA,NA,NA,NA,NA,NA,NA,NA,NA,NA,NA,NA,NA,fixation,NA,NA,NA,NA,NA,NA,sub18
d3-animate-choice,186,760553,0.0-76.0-0.17,TRUE,TRUE,TRUE,TRUE,"""event"",""trial"",""time""
""fullscreenenter"",""5"",""21591""
","
","
","""event"",""trial"",""time""
""fullscreenenter"",""5"",""21591""
","
",825,NA,49,NA,NA,3000,1,NA,NA,images/earth.jpg,images/rocket2,images/rocket1,null,images/rocket1,NA,1,real,null,1,NA,NA,NA,sub18
d3-animate-choice,187,763102,0.0-76.0-1.17,TRUE,TRUE,TRUE,TRUE,"""event"",""trial"",""time""
""fullscreenenter"",""5"",""21591""
","
","
","""event"",""trial"",""time""
""fullscreenenter"",""5"",""21591""
","
",529,NA,48,NA,NA,3000,1,NA,NA,images/purpleplanet.jpg,images/alien4,images/alien3,images/rocket1,images/alien4,images/t.png,2,real,false,2,1,2020-06-05T18:50:09Z,rare,sub18
two-step-fixation,188,764122,0.0-76.0-2.17,TRUE,TRUE,TRUE,TRUE,"""event"",""trial"",""time""
""fullscreenenter"",""5"",""21591""
","
","
","""event"",""trial"",""time""
""fullscreenenter"",""5"",""21591""
","
",NA,images/earth.jpg,NA,NA,NA,NA,NA,NA,NA,NA,NA,NA,NA,NA,NA,fixation,NA,NA,NA,NA,NA,NA,sub18
d3-animate-choice,189,766732,0.0-76.0-0.18,TRUE,TRUE,TRUE,TRUE,"""event"",""trial"",""time""
""fullscreenenter"",""5"",""21591""
","
","
","""event"",""trial"",""time""
""fullscreenenter"",""5"",""21591""
","
",598,NA,49,NA,NA,3000,1,NA,NA,images/earth.jpg,images/rocket2,images/rocket1,null,images/rocket1,NA,1,real,null,1,NA,NA,NA,sub18
d3-animate-choice,190,769472,0.0-76.0-1.18,TRUE,TRUE,TRUE,TRUE,"""event"",""trial"",""time""
""fullscreenenter"",""5"",""21591""
","
","
","""event"",""trial"",""time""
""fullscreenenter"",""5"",""21591""
","
",717,NA,48,NA,NA,3000,1,NA,NA,images/redplanet1.jpg,images/alien2,images/alien1,images/rocket1,images/alien2,images/t.png,2,real,true,2,1,2020-06-05T18:50:15Z,common,sub18
two-step-fixation,191,770492,0.0-76.0-2.18,TRUE,TRUE,TRUE,TRUE,"""event"",""trial"",""time""
""fullscreenenter"",""5"",""21591""
","
","
","""event"",""trial"",""time""
""fullscreenenter"",""5"",""21591""
","
",NA,images/earth.jpg,NA,NA,NA,NA,NA,NA,NA,NA,NA,NA,NA,NA,NA,fixation,NA,NA,NA,NA,NA,NA,sub18
d3-animate-choice,192,773112,0.0-76.0-0.19,TRUE,TRUE,TRUE,TRUE,"""event"",""trial"",""time""
""fullscreenenter"",""5"",""21591""
","
","
","""event"",""trial"",""time""
""fullscreenenter"",""5"",""21591""
","
",596,NA,48,NA,NA,3000,1,NA,NA,images/earth.jpg,images/rocket2,images/rocket1,null,images/rocket2,NA,1,real,null,2,NA,NA,NA,sub18
d3-animate-choice,193,775714,0.0-76.0-1.19,TRUE,TRUE,TRUE,TRUE,"""event"",""trial"",""time""
""fullscreenenter"",""5"",""21591""
","
","
","""event"",""trial"",""time""
""fullscreenenter"",""5"",""21591""
","
",592,NA,48,NA,NA,3000,1,NA,NA,images/purpleplanet.jpg,images/alien4,images/alien3,images/rocket2,images/alien4,images/t.png,2,real,true,2,1,2020-06-05T18:50:21Z,common,sub18
two-step-fixation,194,776733,0.0-76.0-2.19,TRUE,TRUE,TRUE,TRUE,"""event"",""trial"",""time""
""fullscreenenter"",""5"",""21591""
","
","
","""event"",""trial"",""time""
""fullscreenenter"",""5"",""21591""
","
",NA,images/earth.jpg,NA,NA,NA,NA,NA,NA,NA,NA,NA,NA,NA,NA,NA,fixation,NA,NA,NA,NA,NA,NA,sub18
d3-animate-choice,195,780503,0.0-76.0-0.20,TRUE,TRUE,TRUE,TRUE,"""event"",""trial"",""time""
""fullscreenenter"",""5"",""21591""
","
","
","""event"",""trial"",""time""
""fullscreenenter"",""5"",""21591""
","
",1763,NA,49,NA,NA,3000,1,NA,NA,images/earth.jpg,images/rocket2,images/rocket1,null,images/rocket1,NA,1,real,null,1,NA,NA,NA,sub18
d3-animate-choice,196,783303,0.0-76.0-1.20,TRUE,TRUE,TRUE,TRUE,"""event"",""trial"",""time""
""fullscreenenter"",""5"",""21591""
","
","
","""event"",""trial"",""time""
""fullscreenenter"",""5"",""21591""
","
",775,NA,48,NA,NA,3000,1,NA,NA,images/redplanet1.jpg,images/alien2,images/alien1,images/rocket1,images/alien2,images/t.png,2,real,true,2,1,2020-06-05T18:50:29Z,common,sub18
two-step-fixation,197,784323,0.0-76.0-2.20,TRUE,TRUE,TRUE,TRUE,"""event"",""trial"",""time""
""fullscreenenter"",""5"",""21591""
","
","
","""event"",""trial"",""time""
""fullscreenenter"",""5"",""21591""
","
",NA,images/earth.jpg,NA,NA,NA,NA,NA,NA,NA,NA,NA,NA,NA,NA,NA,fixation,NA,NA,NA,NA,NA,NA,sub18
d3-animate-choice,198,787003,0.0-76.0-0.21,TRUE,TRUE,TRUE,TRUE,"""event"",""trial"",""time""
""fullscreenenter"",""5"",""21591""
","
","
","""event"",""trial"",""time""
""fullscreenenter"",""5"",""21591""
","
",671,NA,48,NA,NA,3000,1,NA,NA,images/earth.jpg,images/rocket2,images/rocket1,null,images/rocket2,NA,1,real,null,2,NA,NA,NA,sub18
d3-animate-choice,199,789784,0.0-76.0-1.21,TRUE,TRUE,TRUE,TRUE,"""event"",""trial"",""time""
""fullscreenenter"",""5"",""21591""
","
","
","""event"",""trial"",""time""
""fullscreenenter"",""5"",""21591""
","
",774,NA,48,NA,NA,3000,1,NA,NA,images/redplanet1.jpg,images/alien2,images/alien1,images/rocket2,images/alien2,images/t.png,2,real,false,2,1,2020-06-05T18:50:35Z,rare,sub18
two-step-fixation,200,790804,0.0-76.0-2.21,TRUE,TRUE,TRUE,TRUE,"""event"",""trial"",""time""
""fullscreenenter"",""5"",""21591""
","
","
","""event"",""trial"",""time""
""fullscreenenter"",""5"",""21591""
","
",NA,images/earth.jpg,NA,NA,NA,NA,NA,NA,NA,NA,NA,NA,NA,NA,NA,fixation,NA,NA,NA,NA,NA,NA,sub18
d3-animate-choice,201,793384,0.0-76.0-0.22,TRUE,TRUE,TRUE,TRUE,"""event"",""trial"",""time""
""fullscreenenter"",""5"",""21591""
","
","
","""event"",""trial"",""time""
""fullscreenenter"",""5"",""21591""
","
",575,NA,49,NA,NA,3000,1,NA,NA,images/earth.jpg,images/rocket2,images/rocket1,null,images/rocket1,NA,1,real,null,1,NA,NA,NA,sub18
d3-animate-choice,202,796014,0.0-76.0-1.22,TRUE,TRUE,TRUE,TRUE,"""event"",""trial"",""time""
""fullscreenenter"",""5"",""21591""
","
","
","""event"",""trial"",""time""
""fullscreenenter"",""5"",""21591""
","
",610,NA,48,NA,NA,3000,1,NA,NA,images/purpleplanet.jpg,images/alien4,images/alien3,images/rocket1,images/alien4,images/t.png,2,real,false,2,1,2020-06-05T18:50:42Z,rare,sub18
two-step-fixation,203,797034,0.0-76.0-2.22,TRUE,TRUE,TRUE,TRUE,"""event"",""trial"",""time""
""fullscreenenter"",""5"",""21591""
","
","
","""event"",""trial"",""time""
""fullscreenenter"",""5"",""21591""
","
",NA,images/earth.jpg,NA,NA,NA,NA,NA,NA,NA,NA,NA,NA,NA,NA,NA,fixation,NA,NA,NA,NA,NA,NA,sub18
d3-animate-choice,204,799565,0.0-76.0-0.23,TRUE,TRUE,TRUE,TRUE,"""event"",""trial"",""time""
""fullscreenenter"",""5"",""21591""
","
","
","""event"",""trial"",""time""
""fullscreenenter"",""5"",""21591""
","
",513,NA,48,NA,NA,3000,1,NA,NA,images/earth.jpg,images/rocket2,images/rocket1,null,images/rocket2,NA,1,real,null,2,NA,NA,NA,sub18
d3-animate-choice,205,801984,0.0-76.0-1.23,TRUE,TRUE,TRUE,TRUE,"""event"",""trial"",""time""
""fullscreenenter"",""5"",""21591""
","
","
","""event"",""trial"",""time""
""fullscreenenter"",""5"",""21591""
","
",413,NA,48,NA,NA,3000,1,2399,48,images/purpleplanet.jpg,images/alien4,images/alien3,images/rocket2,images/alien4,images/t.png,2,real,true,2,1,2020-06-05T18:50:48Z,common,sub18
two-step-fixation,206,803005,0.0-76.0-2.23,TRUE,TRUE,TRUE,TRUE,"""event"",""trial"",""time""
""fullscreenenter"",""5"",""21591""
","
","
","""event"",""trial"",""time""
""fullscreenenter"",""5"",""21591""
","
",NA,images/earth.jpg,NA,NA,NA,NA,NA,NA,NA,NA,NA,NA,NA,NA,NA,fixation,NA,NA,NA,NA,NA,NA,sub18
d3-animate-choice,207,805504,0.0-76.0-0.24,TRUE,TRUE,TRUE,TRUE,"""event"",""trial"",""time""
""fullscreenenter"",""5"",""21591""
","
","
","""event"",""trial"",""time""
""fullscreenenter"",""5"",""21591""
","
",478,NA,48,NA,NA,3000,1,NA,NA,images/earth.jpg,images/rocket2,images/rocket1,null,images/rocket2,NA,1,real,null,2,NA,NA,NA,sub18
d3-animate-choice,208,808105,0.0-76.0-1.24,TRUE,TRUE,TRUE,TRUE,"""event"",""trial"",""time""
""fullscreenenter"",""5"",""21591""
","
","
","""event"",""trial"",""time""
""fullscreenenter"",""5"",""21591""
","
",580,NA,48,NA,NA,3000,1,NA,NA,images/purpleplanet.jpg,images/alien4,images/alien3,images/rocket2,images/alien4,images/t.png,2,real,true,2,1,2020-06-05T18:50:54Z,common,sub18
two-step-fixation,209,809125,0.0-76.0-2.24,TRUE,TRUE,TRUE,TRUE,"""event"",""trial"",""time""
""fullscreenenter"",""5"",""21591""
","
","
","""event"",""trial"",""time""
""fullscreenenter"",""5"",""21591""
","
",NA,images/earth.jpg,NA,NA,NA,NA,NA,NA,NA,NA,NA,NA,NA,NA,NA,fixation,NA,NA,NA,NA,NA,NA,sub18
d3-animate-choice,210,811585,0.0-76.0-0.25,TRUE,TRUE,TRUE,TRUE,"""event"",""trial"",""time""
""fullscreenenter"",""5"",""21591""
","
","
","""event"",""trial"",""time""
""fullscreenenter"",""5"",""21591""
","
",439,NA,48,NA,NA,3000,1,NA,NA,images/earth.jpg,images/rocket2,images/rocket1,null,images/rocket2,NA,1,real,null,2,NA,NA,NA,sub18
d3-animate-choice,211,814385,0.0-76.0-1.25,TRUE,TRUE,TRUE,TRUE,"""event"",""trial"",""time""
""fullscreenenter"",""5"",""21591""
","
","
","""event"",""trial"",""time""
""fullscreenenter"",""5"",""21591""
","
",783,NA,48,NA,NA,3000,1,NA,NA,images/purpleplanet.jpg,images/alien4,images/alien3,images/rocket2,images/alien4,images/t.png,2,real,true,2,1,2020-06-05T18:51:00Z,common,sub18
two-step-fixation,212,815405,0.0-76.0-2.25,TRUE,TRUE,TRUE,TRUE,"""event"",""trial"",""time""
""fullscreenenter"",""5"",""21591""
","
","
","""event"",""trial"",""time""
""fullscreenenter"",""5"",""21591""
","
",NA,images/earth.jpg,NA,NA,NA,NA,NA,NA,NA,NA,NA,NA,NA,NA,NA,fixation,NA,NA,NA,NA,NA,NA,sub18
d3-animate-choice,213,818067,0.0-76.0-0.26,TRUE,TRUE,TRUE,TRUE,"""event"",""trial"",""time""
""fullscreenenter"",""5"",""21591""
","
","
","""event"",""trial"",""time""
""fullscreenenter"",""5"",""21591""
","
",655,NA,48,NA,NA,3000,1,NA,NA,images/earth.jpg,images/rocket2,images/rocket1,null,images/rocket2,NA,1,real,null,2,NA,NA,NA,sub18
d3-animate-choice,214,820636,0.0-76.0-1.26,TRUE,TRUE,TRUE,TRUE,"""event"",""trial"",""time""
""fullscreenenter"",""5"",""21591""
","
","
","""event"",""trial"",""time""
""fullscreenenter"",""5"",""21591""
","
",553,NA,48,NA,NA,3000,1,NA,NA,images/purpleplanet.jpg,images/alien4,images/alien3,images/rocket2,images/alien4,images/t.png,2,real,true,2,1,2020-06-05T18:51:06Z,common,sub18
two-step-fixation,215,821645,0.0-76.0-2.26,TRUE,TRUE,TRUE,TRUE,"""event"",""trial"",""time""
""fullscreenenter"",""5"",""21591""
","
","
","""event"",""trial"",""time""
""fullscreenenter"",""5"",""21591""
","
",NA,images/earth.jpg,NA,NA,NA,NA,NA,NA,NA,NA,NA,NA,NA,NA,NA,fixation,NA,NA,NA,NA,NA,NA,sub18
d3-animate-choice,216,823676,0.0-76.0-0.27,TRUE,TRUE,TRUE,TRUE,"""event"",""trial"",""time""
""fullscreenenter"",""5"",""21591""
","
","
","""event"",""trial"",""time""
""fullscreenenter"",""5"",""21591""
","
",21,NA,48,NA,NA,3000,1,NA,NA,images/earth.jpg,images/rocket2,images/rocket1,null,images/rocket2,NA,1,real,null,2,NA,NA,NA,sub18
d3-animate-choice,217,827096,0.0-76.0-1.27,TRUE,TRUE,TRUE,TRUE,"""event"",""trial"",""time""
""fullscreenenter"",""5"",""21591""
","
","
","""event"",""trial"",""time""
""fullscreenenter"",""5"",""21591""
","
",1399,NA,48,NA,NA,3000,1,NA,NA,images/redplanet1.jpg,images/alien2,images/alien1,images/rocket2,images/alien2,images/t.png,2,real,false,2,1,2020-06-05T18:51:13Z,rare,sub18
two-step-fixation,218,828117,0.0-76.0-2.27,TRUE,TRUE,TRUE,TRUE,"""event"",""trial"",""time""
""fullscreenenter"",""5"",""21591""
","
","
","""event"",""trial"",""time""
""fullscreenenter"",""5"",""21591""
","
",NA,images/earth.jpg,NA,NA,NA,NA,NA,NA,NA,NA,NA,NA,NA,NA,NA,fixation,NA,NA,NA,NA,NA,NA,sub18
d3-animate-choice,219,830756,0.0-76.0-0.28,TRUE,TRUE,TRUE,TRUE,"""event"",""trial"",""time""
""fullscreenenter"",""5"",""21591""
","
","
","""event"",""trial"",""time""
""fullscreenenter"",""5"",""21591""
","
",634,NA,49,NA,NA,3000,1,NA,NA,images/earth.jpg,images/rocket2,images/rocket1,null,images/rocket1,NA,1,real,null,1,NA,NA,NA,sub18
d3-animate-choice,220,833657,0.0-76.0-1.28,TRUE,TRUE,TRUE,TRUE,"""event"",""trial"",""time""
""fullscreenenter"",""5"",""21591""
","
","
","""event"",""trial"",""time""
""fullscreenenter"",""5"",""21591""
","
",881,NA,48,NA,NA,3000,1,NA,NA,images/purpleplanet.jpg,images/alien4,images/alien3,images/rocket1,images/alien4,images/t.png,2,real,false,2,1,2020-06-05T18:51:19Z,rare,sub18
two-step-fixation,221,834667,0.0-76.0-2.28,TRUE,TRUE,TRUE,TRUE,"""event"",""trial"",""time""
""fullscreenenter"",""5"",""21591""
","
","
","""event"",""trial"",""time""
""fullscreenenter"",""5"",""21591""
","
",NA,images/earth.jpg,NA,NA,NA,NA,NA,NA,NA,NA,NA,NA,NA,NA,NA,fixation,NA,NA,NA,NA,NA,NA,sub18
d3-animate-choice,222,837746,0.0-76.0-0.29,TRUE,TRUE,TRUE,TRUE,"""event"",""trial"",""time""
""fullscreenenter"",""5"",""21591""
","
","
","""event"",""trial"",""time""
""fullscreenenter"",""5"",""21591""
","
",1074,NA,49,NA,NA,3000,1,NA,NA,images/earth.jpg,images/rocket2,images/rocket1,null,images/rocket1,NA,1,real,null,1,NA,NA,NA,sub18
d3-animate-choice,223,840377,0.0-76.0-1.29,TRUE,TRUE,TRUE,TRUE,"""event"",""trial"",""time""
""fullscreenenter"",""5"",""21591""
","
","
","""event"",""trial"",""time""
""fullscreenenter"",""5"",""21591""
","
",618,NA,48,NA,NA,3000,1,NA,NA,images/redplanet1.jpg,images/alien2,images/alien1,images/rocket1,images/alien2,images/t.png,2,real,true,2,1,2020-06-05T18:51:26Z,common,sub18
two-step-fixation,224,841397,0.0-76.0-2.29,TRUE,TRUE,TRUE,TRUE,"""event"",""trial"",""time""
""fullscreenenter"",""5"",""21591""
","
","
","""event"",""trial"",""time""
""fullscreenenter"",""5"",""21591""
","
",NA,images/earth.jpg,NA,NA,NA,NA,NA,NA,NA,NA,NA,NA,NA,NA,NA,fixation,NA,NA,NA,NA,NA,NA,sub18
d3-animate-choice,225,844337,0.0-76.0-0.30,TRUE,TRUE,TRUE,TRUE,"""event"",""trial"",""time""
""fullscreenenter"",""5"",""21591""
","
","
","""event"",""trial"",""time""
""fullscreenenter"",""5"",""21591""
","
",921,NA,48,NA,NA,3000,1,923,49,images/earth.jpg,images/rocket2,images/rocket1,null,images/rocket2,NA,1,real,null,2,NA,NA,NA,sub18
d3-animate-choice,226,847359,0.0-76.0-1.30,TRUE,TRUE,TRUE,TRUE,"""event"",""trial"",""time""
""fullscreenenter"",""5"",""21591""
","
","
","""event"",""trial"",""time""
""fullscreenenter"",""5"",""21591""
","
",1011,NA,48,NA,NA,3000,1,NA,NA,images/purpleplanet.jpg,images/alien4,images/alien3,images/rocket2,images/alien4,images/t.png,2,real,true,2,1,2020-06-05T18:51:33Z,common,sub18
two-step-fixation,227,848368,0.0-76.0-2.30,TRUE,TRUE,TRUE,TRUE,"""event"",""trial"",""time""
""fullscreenenter"",""5"",""21591""
","
","
","""event"",""trial"",""time""
""fullscreenenter"",""5"",""21591""
","
",NA,images/earth.jpg,NA,NA,NA,NA,NA,NA,NA,NA,NA,NA,NA,NA,NA,fixation,NA,NA,NA,NA,NA,NA,sub18
d3-animate-choice,228,850829,0.0-76.0-0.31,TRUE,TRUE,TRUE,TRUE,"""event"",""trial"",""time""
""fullscreenenter"",""5"",""21591""
","
","
","""event"",""trial"",""time""
""fullscreenenter"",""5"",""21591""
","
",454,NA,48,NA,NA,3000,1,NA,NA,images/earth.jpg,images/rocket2,images/rocket1,null,images/rocket2,NA,1,real,null,2,NA,NA,NA,sub18
d3-animate-choice,229,853508,0.0-76.0-1.31,TRUE,TRUE,TRUE,TRUE,"""event"",""trial"",""time""
""fullscreenenter"",""5"",""21591""
","
","
","""event"",""trial"",""time""
""fullscreenenter"",""5"",""21591""
","
",673,NA,48,NA,NA,3000,1,NA,NA,images/purpleplanet.jpg,images/alien4,images/alien3,images/rocket2,images/alien4,images/nothing.png,2,real,true,2,0,2020-06-05T18:51:39Z,common,sub18
two-step-fixation,230,854528,0.0-76.0-2.31,TRUE,TRUE,TRUE,TRUE,"""event"",""trial"",""time""
""fullscreenenter"",""5"",""21591""
","
","
","""event"",""trial"",""time""
""fullscreenenter"",""5"",""21591""
","
",NA,images/earth.jpg,NA,NA,NA,NA,NA,NA,NA,NA,NA,NA,NA,NA,NA,fixation,NA,NA,NA,NA,NA,NA,sub18
d3-animate-choice,231,857130,0.0-76.0-0.32,TRUE,TRUE,TRUE,TRUE,"""event"",""trial"",""time""
""fullscreenenter"",""5"",""21591""
","
","
","""event"",""trial"",""time""
""fullscreenenter"",""5"",""21591""
","
",590,NA,49,NA,NA,3000,1,NA,NA,images/earth.jpg,images/rocket2,images/rocket1,null,images/rocket1,NA,1,real,null,1,NA,NA,NA,sub18
d3-animate-choice,232,859829,0.0-76.0-1.32,TRUE,TRUE,TRUE,TRUE,"""event"",""trial"",""time""
""fullscreenenter"",""5"",""21591""
","
","
","""event"",""trial"",""time""
""fullscreenenter"",""5"",""21591""
","
",694,NA,49,NA,NA,3000,1,NA,NA,images/redplanet1.jpg,images/alien2,images/alien1,images/rocket1,images/alien1,images/nothing.png,2,real,true,1,0,2020-06-05T18:51:45Z,common,sub18
two-step-fixation,233,860839,0.0-76.0-2.32,TRUE,TRUE,TRUE,TRUE,"""event"",""trial"",""time""
""fullscreenenter"",""5"",""21591""
","
","
","""event"",""trial"",""time""
""fullscreenenter"",""5"",""21591""
","
",NA,images/earth.jpg,NA,NA,NA,NA,NA,NA,NA,NA,NA,NA,NA,NA,NA,fixation,NA,NA,NA,NA,NA,NA,sub18
d3-animate-choice,234,863378,0.0-76.0-0.33,TRUE,TRUE,TRUE,TRUE,"""event"",""trial"",""time""
""fullscreenenter"",""5"",""21591""
","
","
","""event"",""trial"",""time""
""fullscreenenter"",""5"",""21591""
","
",522,NA,49,NA,NA,3000,1,NA,NA,images/earth.jpg,images/rocket2,images/rocket1,null,images/rocket1,NA,1,real,null,1,NA,NA,NA,sub18
d3-animate-choice,235,865909,0.0-76.0-1.33,TRUE,TRUE,TRUE,TRUE,"""event"",""trial"",""time""
""fullscreenenter"",""5"",""21591""
","
","
","""event"",""trial"",""time""
""fullscreenenter"",""5"",""21591""
","
",525,NA,48,NA,NA,3000,1,NA,NA,images/redplanet1.jpg,images/alien2,images/alien1,images/rocket1,images/alien2,images/nothing.png,2,real,true,2,0,2020-06-05T18:51:52Z,common,sub18
two-step-fixation,236,866930,0.0-76.0-2.33,TRUE,TRUE,TRUE,TRUE,"""event"",""trial"",""time""
""fullscreenenter"",""5"",""21591""
","
","
","""event"",""trial"",""time""
""fullscreenenter"",""5"",""21591""
","
",NA,images/earth.jpg,NA,NA,NA,NA,NA,NA,NA,NA,NA,NA,NA,NA,NA,fixation,NA,NA,NA,NA,NA,NA,sub18
d3-animate-choice,237,869449,0.0-76.0-0.34,TRUE,TRUE,TRUE,TRUE,"""event"",""trial"",""time""
""fullscreenenter"",""5"",""21591""
","
","
","""event"",""trial"",""time""
""fullscreenenter"",""5"",""21591""
","
",502,NA,49,NA,NA,3000,1,NA,NA,images/earth.jpg,images/rocket2,images/rocket1,null,images/rocket1,NA,1,real,null,1,NA,NA,NA,sub18
d3-animate-choice,238,872389,0.0-76.0-1.34,TRUE,TRUE,TRUE,TRUE,"""event"",""trial"",""time""
""fullscreenenter"",""5"",""21591""
","
","
","""event"",""trial"",""time""
""fullscreenenter"",""5"",""21591""
","
",934,NA,48,NA,NA,3000,1,NA,NA,images/redplanet1.jpg,images/alien2,images/alien1,images/rocket1,images/alien2,images/t.png,2,real,true,2,1,2020-06-05T18:51:58Z,common,sub18
two-step-fixation,239,873409,0.0-76.0-2.34,TRUE,TRUE,TRUE,TRUE,"""event"",""trial"",""time""
""fullscreenenter"",""5"",""21591""
","
","
","""event"",""trial"",""time""
""fullscreenenter"",""5"",""21591""
","
",NA,images/earth.jpg,NA,NA,NA,NA,NA,NA,NA,NA,NA,NA,NA,NA,NA,fixation,NA,NA,NA,NA,NA,NA,sub18
d3-animate-choice,240,876230,0.0-76.0-0.35,TRUE,TRUE,TRUE,TRUE,"""event"",""trial"",""time""
""fullscreenenter"",""5"",""21591""
","
","
","""event"",""trial"",""time""
""fullscreenenter"",""5"",""21591""
","
",798,NA,49,NA,NA,3000,1,NA,NA,images/earth.jpg,images/rocket2,images/rocket1,null,images/rocket1,NA,1,real,null,1,NA,NA,NA,sub18
d3-animate-choice,241,879000,0.0-76.0-1.35,TRUE,TRUE,TRUE,TRUE,"""event"",""trial"",""time""
""fullscreenenter"",""5"",""21591""
","
","
","""event"",""trial"",""time""
""fullscreenenter"",""5"",""21591""
","
",746,NA,48,NA,NA,3000,1,NA,NA,images/redplanet1.jpg,images/alien2,images/alien1,images/rocket1,images/alien2,images/t.png,2,real,true,2,1,2020-06-05T18:52:05Z,common,sub18
two-step-fixation,242,880020,0.0-76.0-2.35,TRUE,TRUE,TRUE,TRUE,"""event"",""trial"",""time""
""fullscreenenter"",""5"",""21591""
","
","
","""event"",""trial"",""time""
""fullscreenenter"",""5"",""21591""
","
",NA,images/earth.jpg,NA,NA,NA,NA,NA,NA,NA,NA,NA,NA,NA,NA,NA,fixation,NA,NA,NA,NA,NA,NA,sub18
d3-animate-choice,243,883640,0.0-76.0-0.36,TRUE,TRUE,TRUE,TRUE,"""event"",""trial"",""time""
""fullscreenenter"",""5"",""21591""
","
","
","""event"",""trial"",""time""
""fullscreenenter"",""5"",""21591""
","
",1599,NA,48,NA,NA,3000,1,NA,NA,images/earth.jpg,images/rocket2,images/rocket1,null,images/rocket2,NA,1,real,null,2,NA,NA,NA,sub18
d3-animate-choice,244,886021,0.0-76.0-1.36,TRUE,TRUE,TRUE,TRUE,"""event"",""trial"",""time""
""fullscreenenter"",""5"",""21591""
","
","
","""event"",""trial"",""time""
""fullscreenenter"",""5"",""21591""
","
",374,NA,48,NA,NA,3000,1,NA,NA,images/redplanet1.jpg,images/alien2,images/alien1,images/rocket2,images/alien2,images/nothing.png,2,real,false,2,0,2020-06-05T18:52:12Z,rare,sub18
two-step-fixation,245,887042,0.0-76.0-2.36,TRUE,TRUE,TRUE,TRUE,"""event"",""trial"",""time""
""fullscreenenter"",""5"",""21591""
","
","
","""event"",""trial"",""time""
""fullscreenenter"",""5"",""21591""
","
",NA,images/earth.jpg,NA,NA,NA,NA,NA,NA,NA,NA,NA,NA,NA,NA,NA,fixation,NA,NA,NA,NA,NA,NA,sub18
d3-animate-choice,246,890311,0.0-76.0-0.37,TRUE,TRUE,TRUE,TRUE,"""event"",""trial"",""time""
""fullscreenenter"",""5"",""21591""
","
","
","""event"",""trial"",""time""
""fullscreenenter"",""5"",""21591""
","
",1265,NA,48,NA,NA,3000,1,NA,NA,images/earth.jpg,images/rocket2,images/rocket1,null,images/rocket2,NA,1,real,null,2,NA,NA,NA,sub18
d3-animate-choice,247,892931,0.0-76.0-1.37,TRUE,TRUE,TRUE,TRUE,"""event"",""trial"",""time""
""fullscreenenter"",""5"",""21591""
","
","
","""event"",""trial"",""time""
""fullscreenenter"",""5"",""21591""
","
",610,NA,48,NA,NA,3000,1,NA,NA,images/purpleplanet.jpg,images/alien4,images/alien3,images/rocket2,images/alien4,images/nothing.png,2,real,true,2,0,2020-06-05T18:52:19Z,common,sub18
two-step-fixation,248,893951,0.0-76.0-2.37,TRUE,TRUE,TRUE,TRUE,"""event"",""trial"",""time""
""fullscreenenter"",""5"",""21591""
","
","
","""event"",""trial"",""time""
""fullscreenenter"",""5"",""21591""
","
",NA,images/earth.jpg,NA,NA,NA,NA,NA,NA,NA,NA,NA,NA,NA,NA,NA,fixation,NA,NA,NA,NA,NA,NA,sub18
d3-animate-choice,249,896792,0.0-76.0-0.38,TRUE,TRUE,TRUE,TRUE,"""event"",""trial"",""time""
""fullscreenenter"",""5"",""21591""
","
","
","""event"",""trial"",""time""
""fullscreenenter"",""5"",""21591""
","
",828,NA,48,NA,NA,3000,1,NA,NA,images/earth.jpg,images/rocket2,images/rocket1,null,images/rocket2,NA,1,real,null,2,NA,NA,NA,sub18
d3-animate-choice,250,899592,0.0-76.0-1.38,TRUE,TRUE,TRUE,TRUE,"""event"",""trial"",""time""
""fullscreenenter"",""5"",""21591""
","
","
","""event"",""trial"",""time""
""fullscreenenter"",""5"",""21591""
","
",786,NA,48,NA,NA,3000,1,NA,NA,images/redplanet1.jpg,images/alien2,images/alien1,images/rocket2,images/alien2,images/t.png,2,real,false,2,1,2020-06-05T18:52:25Z,rare,sub18
two-step-fixation,251,900612,0.0-76.0-2.38,TRUE,TRUE,TRUE,TRUE,"""event"",""trial"",""time""
""fullscreenenter"",""5"",""21591""
","
","
","""event"",""trial"",""time""
""fullscreenenter"",""5"",""21591""
","
",NA,images/earth.jpg,NA,NA,NA,NA,NA,NA,NA,NA,NA,NA,NA,NA,NA,fixation,NA,NA,NA,NA,NA,NA,sub18
d3-animate-choice,252,903562,0.0-76.0-0.39,TRUE,TRUE,TRUE,TRUE,"""event"",""trial"",""time""
""fullscreenenter"",""5"",""21591""
","
","
","""event"",""trial"",""time""
""fullscreenenter"",""5"",""21591""
","
",943,NA,48,NA,NA,3000,1,NA,NA,images/earth.jpg,images/rocket2,images/rocket1,null,images/rocket2,NA,1,real,null,2,NA,NA,NA,sub18
d3-animate-choice,253,906402,0.0-76.0-1.39,TRUE,TRUE,TRUE,TRUE,"""event"",""trial"",""time""
""fullscreenenter"",""5"",""21591""
","
","
","""event"",""trial"",""time""
""fullscreenenter"",""5"",""21591""
","
",815,NA,48,NA,NA,3000,1,NA,NA,images/purpleplanet.jpg,images/alien4,images/alien3,images/rocket2,images/alien4,images/nothing.png,2,real,true,2,0,2020-06-05T18:52:32Z,common,sub18
two-step-fixation,254,907422,0.0-76.0-2.39,TRUE,TRUE,TRUE,TRUE,"""event"",""trial"",""time""
""fullscreenenter"",""5"",""21591""
","
","
","""event"",""trial"",""time""
""fullscreenenter"",""5"",""21591""
","
",NA,images/earth.jpg,NA,NA,NA,NA,NA,NA,NA,NA,NA,NA,NA,NA,NA,fixation,NA,NA,NA,NA,NA,NA,sub18
d3-animate-choice,255,910463,0.0-76.0-0.40,TRUE,TRUE,TRUE,TRUE,"""event"",""trial"",""time""
""fullscreenenter"",""5"",""21591""
","
","
","""event"",""trial"",""time""
""fullscreenenter"",""5"",""21591""
","
",1021,NA,48,NA,NA,3000,1,NA,NA,images/earth.jpg,images/rocket2,images/rocket1,null,images/rocket2,NA,1,real,null,2,NA,NA,NA,sub18
d3-animate-choice,256,913153,0.0-76.0-1.40,TRUE,TRUE,TRUE,TRUE,"""event"",""trial"",""time""
""fullscreenenter"",""5"",""21591""
","
","
","""event"",""trial"",""time""
""fullscreenenter"",""5"",""21591""
","
",669,NA,49,NA,NA,3000,1,NA,NA,images/purpleplanet.jpg,images/alien4,images/alien3,images/rocket2,images/alien3,images/t.png,2,real,true,1,1,2020-06-05T18:52:39Z,common,sub18
two-step-fixation,257,914173,0.0-76.0-2.40,TRUE,TRUE,TRUE,TRUE,"""event"",""trial"",""time""
""fullscreenenter"",""5"",""21591""
","
","
","""event"",""trial"",""time""
""fullscreenenter"",""5"",""21591""
","
",NA,images/earth.jpg,NA,NA,NA,NA,NA,NA,NA,NA,NA,NA,NA,NA,NA,fixation,NA,NA,NA,NA,NA,NA,sub18
d3-animate-choice,258,917443,0.0-76.0-0.41,TRUE,TRUE,TRUE,TRUE,"""event"",""trial"",""time""
""fullscreenenter"",""5"",""21591""
","
","
","""event"",""trial"",""time""
""fullscreenenter"",""5"",""21591""
","
",1254,NA,48,NA,NA,3000,1,NA,NA,images/earth.jpg,images/rocket2,images/rocket1,null,images/rocket2,NA,1,real,null,2,NA,NA,NA,sub18
d3-animate-choice,259,919955,0.0-76.0-1.41,TRUE,TRUE,TRUE,TRUE,"""event"",""trial"",""time""
""fullscreenenter"",""5"",""21591""
","
","
","""event"",""trial"",""time""
""fullscreenenter"",""5"",""21591""
","
",496,NA,49,NA,NA,3000,1,NA,NA,images/purpleplanet.jpg,images/alien4,images/alien3,images/rocket2,images/alien3,images/nothing.png,2,real,true,1,0,2020-06-05T18:52:46Z,common,sub18
two-step-fixation,260,920973,0.0-76.0-2.41,TRUE,TRUE,TRUE,TRUE,"""event"",""trial"",""time""
""fullscreenenter"",""5"",""21591""
","
","
","""event"",""trial"",""time""
""fullscreenenter"",""5"",""21591""
","
",NA,images/earth.jpg,NA,NA,NA,NA,NA,NA,NA,NA,NA,NA,NA,NA,NA,fixation,NA,NA,NA,NA,NA,NA,sub18
d3-animate-choice,261,923683,0.0-76.0-0.42,TRUE,TRUE,TRUE,TRUE,"""event"",""trial"",""time""
""fullscreenenter"",""5"",""21591""
","
","
","""event"",""trial"",""time""
""fullscreenenter"",""5"",""21591""
","
",694,NA,48,NA,NA,3000,1,NA,NA,images/earth.jpg,images/rocket2,images/rocket1,null,images/rocket2,NA,1,real,null,2,NA,NA,NA,sub18
d3-animate-choice,262,926554,0.0-76.0-1.42,TRUE,TRUE,TRUE,TRUE,"""event"",""trial"",""time""
""fullscreenenter"",""5"",""21591""
","
","
","""event"",""trial"",""time""
""fullscreenenter"",""5"",""21591""
","
",849,NA,48,NA,NA,3000,1,NA,NA,images/redplanet1.jpg,images/alien2,images/alien1,images/rocket2,images/alien2,images/t.png,2,real,false,2,1,2020-06-05T18:52:52Z,rare,sub18
two-step-fixation,263,927574,0.0-76.0-2.42,TRUE,TRUE,TRUE,TRUE,"""event"",""trial"",""time""
""fullscreenenter"",""5"",""21591""
","
","
","""event"",""trial"",""time""
""fullscreenenter"",""5"",""21591""
","
",NA,images/earth.jpg,NA,NA,NA,NA,NA,NA,NA,NA,NA,NA,NA,NA,NA,fixation,NA,NA,NA,NA,NA,NA,sub18
d3-animate-choice,264,930504,0.0-76.0-0.43,TRUE,TRUE,TRUE,TRUE,"""event"",""trial"",""time""
""fullscreenenter"",""5"",""21591""
","
","
","""event"",""trial"",""time""
""fullscreenenter"",""5"",""21591""
","
",910,NA,48,NA,NA,3000,1,1118,49,images/earth.jpg,images/rocket2,images/rocket1,null,images/rocket2,NA,1,real,null,2,NA,NA,NA,sub18
d3-animate-choice,265,933123,0.0-76.0-1.43,TRUE,TRUE,TRUE,TRUE,"""event"",""trial"",""time""
""fullscreenenter"",""5"",""21591""
","
","
","""event"",""trial"",""time""
""fullscreenenter"",""5"",""21591""
","
",595,NA,49,NA,NA,3000,1,NA,NA,images/purpleplanet.jpg,images/alien4,images/alien3,images/rocket2,images/alien3,images/nothing.png,2,real,true,1,0,2020-06-05T18:52:59Z,common,sub18
two-step-fixation,266,934143,0.0-76.0-2.43,TRUE,TRUE,TRUE,TRUE,"""event"",""trial"",""time""
""fullscreenenter"",""5"",""21591""
","
","
","""event"",""trial"",""time""
""fullscreenenter"",""5"",""21591""
","
",NA,images/earth.jpg,NA,NA,NA,NA,NA,NA,NA,NA,NA,NA,NA,NA,NA,fixation,NA,NA,NA,NA,NA,NA,sub18
d3-animate-choice,267,936805,0.0-76.0-0.44,TRUE,TRUE,TRUE,TRUE,"""event"",""trial"",""time""
""fullscreenenter"",""5"",""21591""
","
","
","""event"",""trial"",""time""
""fullscreenenter"",""5"",""21591""
","
",638,NA,48,NA,NA,3000,1,NA,NA,images/earth.jpg,images/rocket2,images/rocket1,null,images/rocket2,NA,1,real,null,2,NA,NA,NA,sub18
d3-animate-choice,268,940175,0.0-76.0-1.44,TRUE,TRUE,TRUE,TRUE,"""event"",""trial"",""time""
""fullscreenenter"",""5"",""21591""
","
","
","""event"",""trial"",""time""
""fullscreenenter"",""5"",""21591""
","
",1360,NA,48,NA,NA,3000,1,NA,NA,images/purpleplanet.jpg,images/alien4,images/alien3,images/rocket2,images/alien4,images/t.png,2,real,true,2,1,2020-06-05T18:53:06Z,common,sub18
two-step-fixation,269,941195,0.0-76.0-2.44,TRUE,TRUE,TRUE,TRUE,"""event"",""trial"",""time""
""fullscreenenter"",""5"",""21591""
","
","
","""event"",""trial"",""time""
""fullscreenenter"",""5"",""21591""
","
",NA,images/earth.jpg,NA,NA,NA,NA,NA,NA,NA,NA,NA,NA,NA,NA,NA,fixation,NA,NA,NA,NA,NA,NA,sub18
d3-animate-choice,270,943866,0.0-76.0-0.45,TRUE,TRUE,TRUE,TRUE,"""event"",""trial"",""time""
""fullscreenenter"",""5"",""21591""
","
","
","""event"",""trial"",""time""
""fullscreenenter"",""5"",""21591""
","
",651,NA,48,NA,NA,3000,1,NA,NA,images/earth.jpg,images/rocket2,images/rocket1,null,images/rocket2,NA,1,real,null,2,NA,NA,NA,sub18
d3-animate-choice,271,946765,0.0-76.0-1.45,TRUE,TRUE,TRUE,TRUE,"""event"",""trial"",""time""
""fullscreenenter"",""5"",""21591""
","
","
","""event"",""trial"",""time""
""fullscreenenter"",""5"",""21591""
","
",888,NA,48,NA,NA,3000,1,NA,NA,images/purpleplanet.jpg,images/alien4,images/alien3,images/rocket2,images/alien4,images/t.png,2,real,true,2,1,2020-06-05T18:53:12Z,common,sub18
two-step-fixation,272,947785,0.0-76.0-2.45,TRUE,TRUE,TRUE,TRUE,"""event"",""trial"",""time""
""fullscreenenter"",""5"",""21591""
","
","
","""event"",""trial"",""time""
""fullscreenenter"",""5"",""21591""
","
",NA,images/earth.jpg,NA,NA,NA,NA,NA,NA,NA,NA,NA,NA,NA,NA,NA,fixation,NA,NA,NA,NA,NA,NA,sub18
d3-animate-choice,273,950405,0.0-76.0-0.46,TRUE,TRUE,TRUE,TRUE,"""event"",""trial"",""time""
""fullscreenenter"",""5"",""21591""
","
","
","""event"",""trial"",""time""
""fullscreenenter"",""5"",""21591""
","
",613,NA,48,NA,NA,3000,1,NA,NA,images/earth.jpg,images/rocket2,images/rocket1,null,images/rocket2,NA,1,real,null,2,NA,NA,NA,sub18
d3-animate-choice,274,953115,0.0-76.0-1.46,TRUE,TRUE,TRUE,TRUE,"""event"",""trial"",""time""
""fullscreenenter"",""5"",""21591""
","
","
","""event"",""trial"",""time""
""fullscreenenter"",""5"",""21591""
","
",688,NA,48,NA,NA,3000,1,NA,NA,images/purpleplanet.jpg,images/alien4,images/alien3,images/rocket2,images/alien4,images/nothing.png,2,real,true,2,0,2020-06-05T18:53:19Z,common,sub18
two-step-fixation,275,954134,0.0-76.0-2.46,TRUE,TRUE,TRUE,TRUE,"""event"",""trial"",""time""
""fullscreenenter"",""5"",""21591""
","
","
","""event"",""trial"",""time""
""fullscreenenter"",""5"",""21591""
","
",NA,images/earth.jpg,NA,NA,NA,NA,NA,NA,NA,NA,NA,NA,NA,NA,NA,fixation,NA,NA,NA,NA,NA,NA,sub18
d3-animate-choice,276,957006,0.0-76.0-0.47,TRUE,TRUE,TRUE,TRUE,"""event"",""trial"",""time""
""fullscreenenter"",""5"",""21591""
","
","
","""event"",""trial"",""time""
""fullscreenenter"",""5"",""21591""
","
",854,NA,49,NA,NA,3000,1,NA,NA,images/earth.jpg,images/rocket2,images/rocket1,null,images/rocket1,NA,1,real,null,1,NA,NA,NA,sub18
d3-animate-choice,277,960155,0.0-76.0-1.47,TRUE,TRUE,TRUE,TRUE,"""event"",""trial"",""time""
""fullscreenenter"",""5"",""21591""
","
","
","""event"",""trial"",""time""
""fullscreenenter"",""5"",""21591""
","
",1145,NA,49,NA,NA,3000,1,NA,NA,images/purpleplanet.jpg,images/alien4,images/alien3,images/rocket1,images/alien3,images/t.png,2,real,false,1,1,2020-06-05T18:53:26Z,rare,sub18
two-step-fixation,278,961175,0.0-76.0-2.47,TRUE,TRUE,TRUE,TRUE,"""event"",""trial"",""time""
""fullscreenenter"",""5"",""21591""
","
","
","""event"",""trial"",""time""
""fullscreenenter"",""5"",""21591""
","
",NA,images/earth.jpg,NA,NA,NA,NA,NA,NA,NA,NA,NA,NA,NA,NA,NA,fixation,NA,NA,NA,NA,NA,NA,sub18
d3-animate-choice,279,963756,0.0-76.0-0.48,TRUE,TRUE,TRUE,TRUE,"""event"",""trial"",""time""
""fullscreenenter"",""5"",""21591""
","
","
","""event"",""trial"",""time""
""fullscreenenter"",""5"",""21591""
","
",575,NA,49,NA,NA,3000,1,NA,NA,images/earth.jpg,images/rocket2,images/rocket1,null,images/rocket1,NA,1,real,null,1,NA,NA,NA,sub18
d3-animate-choice,280,966936,0.0-76.0-1.48,TRUE,TRUE,TRUE,TRUE,"""event"",""trial"",""time""
""fullscreenenter"",""5"",""21591""
","
","
","""event"",""trial"",""time""
""fullscreenenter"",""5"",""21591""
","
",1162,NA,48,NA,NA,3000,1,NA,NA,images/redplanet1.jpg,images/alien2,images/alien1,images/rocket1,images/alien2,images/nothing.png,2,real,true,2,0,2020-06-05T18:53:33Z,common,sub18
two-step-fixation,281,967956,0.0-76.0-2.48,TRUE,TRUE,TRUE,TRUE,"""event"",""trial"",""time""
""fullscreenenter"",""5"",""21591""
","
","
","""event"",""trial"",""time""
""fullscreenenter"",""5"",""21591""
","
",NA,images/earth.jpg,NA,NA,NA,NA,NA,NA,NA,NA,NA,NA,NA,NA,NA,fixation,NA,NA,NA,NA,NA,NA,sub18
d3-animate-choice,282,970386,0.0-76.0-0.49,TRUE,TRUE,TRUE,TRUE,"""event"",""trial"",""time""
""fullscreenenter"",""5"",""21591""
","
","
","""event"",""trial"",""time""
""fullscreenenter"",""5"",""21591""
","
",426,NA,49,NA,NA,3000,1,NA,NA,images/earth.jpg,images/rocket2,images/rocket1,null,images/rocket1,NA,1,real,null,1,NA,NA,NA,sub18
d3-animate-choice,283,973137,0.0-76.0-1.49,TRUE,TRUE,TRUE,TRUE,"""event"",""trial"",""time""
""fullscreenenter"",""5"",""21591""
","
","
","""event"",""trial"",""time""
""fullscreenenter"",""5"",""21591""
","
",740,NA,49,NA,NA,3000,1,NA,NA,images/purpleplanet.jpg,images/alien4,images/alien3,images/rocket1,images/alien3,images/t.png,2,real,false,1,1,2020-06-05T18:53:39Z,rare,sub18
two-step-fixation,284,974156,0.0-76.0-2.49,TRUE,TRUE,TRUE,TRUE,"""event"",""trial"",""time""
""fullscreenenter"",""5"",""21591""
","
","
","""event"",""trial"",""time""
""fullscreenenter"",""5"",""21591""
","
",NA,images/earth.jpg,NA,NA,NA,NA,NA,NA,NA,NA,NA,NA,NA,NA,NA,fixation,NA,NA,NA,NA,NA,NA,sub18
audio-button-response-2,285,1048783,0.0-77.0,TRUE,TRUE,TRUE,TRUE,"""event"",""trial"",""time""
""fullscreenenter"",""5"",""21591""
","
","
","""event"",""trial"",""time""
""fullscreenenter"",""5"",""21591""
","
",74625,audio/instructions/break_1.wav,NA,0,NA,NA,NA,NA,NA,NA,NA,NA,NA,NA,NA,NA,NA,NA,NA,NA,NA,NA,sub18
d3-animate-choice,286,1052811,0.0-78.0-0.0,TRUE,TRUE,TRUE,TRUE,"""event"",""trial"",""time""
""fullscreenenter"",""5"",""21591""
","
","
","""event"",""trial"",""time""
""fullscreenenter"",""5"",""21591""
","
",null,NA,null,NA,NA,3000,0,NA,NA,images/earth.jpg,images/rocket2,images/rocket1,null,NA,NA,1,real,null,NA,NA,NA,NA,sub18
d3-animate-choice,287,1053827,0.0-78.0-1.0,TRUE,TRUE,TRUE,TRUE,"""event"",""trial"",""time""
""fullscreenenter"",""5"",""21591""
","
","
","""event"",""trial"",""time""
""fullscreenenter"",""5"",""21591""
","
",null,NA,null,NA,NA,0,0,NA,NA,images/earth.jpg,images/rocket2,images/rocket1,null,NA,NA,2,real,null,NA,0,2020-06-05T18:54:59Z,NA,sub18
two-step-fixation,288,1054843,0.0-78.0-2.0,TRUE,TRUE,TRUE,TRUE,"""event"",""trial"",""time""
""fullscreenenter"",""5"",""21591""
","
","
","""event"",""trial"",""time""
""fullscreenenter"",""5"",""21591""
","
",NA,images/earth.jpg,NA,NA,NA,NA,NA,NA,NA,NA,NA,NA,NA,NA,NA,fixation,NA,NA,NA,NA,NA,NA,sub18
d3-animate-choice,289,1057563,0.0-78.0-0.1,TRUE,TRUE,TRUE,TRUE,"""event"",""trial"",""time""
""fullscreenenter"",""5"",""21591""
","
","
","""event"",""trial"",""time""
""fullscreenenter"",""5"",""21591""
","
",715,NA,49,NA,NA,3000,1,NA,NA,images/earth.jpg,images/rocket2,images/rocket1,null,images/rocket1,NA,1,real,null,1,NA,NA,NA,sub18
d3-animate-choice,290,1060323,0.0-78.0-1.1,TRUE,TRUE,TRUE,TRUE,"""event"",""trial"",""time""
""fullscreenenter"",""5"",""21591""
","
","
","""event"",""trial"",""time""
""fullscreenenter"",""5"",""21591""
","
",746,NA,49,NA,NA,3000,1,NA,NA,images/purpleplanet.jpg,images/alien4,images/alien3,images/rocket1,images/alien3,images/t.png,2,real,false,1,1,2020-06-05T18:55:06Z,rare,sub18
two-step-fixation,291,1061333,0.0-78.0-2.1,TRUE,TRUE,TRUE,TRUE,"""event"",""trial"",""time""
""fullscreenenter"",""5"",""21591""
","
","
","""event"",""trial"",""time""
""fullscreenenter"",""5"",""21591""
","
",NA,images/earth.jpg,NA,NA,NA,NA,NA,NA,NA,NA,NA,NA,NA,NA,NA,fixation,NA,NA,NA,NA,NA,NA,sub18
d3-animate-choice,292,1063953,0.0-78.0-0.2,TRUE,TRUE,TRUE,TRUE,"""event"",""trial"",""time""
""fullscreenenter"",""5"",""21591""
","
","
","""event"",""trial"",""time""
""fullscreenenter"",""5"",""21591""
","
",608,NA,49,NA,NA,3000,1,NA,NA,images/earth.jpg,images/rocket2,images/rocket1,null,images/rocket1,NA,1,real,null,1,NA,NA,NA,sub18
