trial_type,trial_index,time_elapsed,internal_node_id,rocket_sides,red_planet_first_rocket,red_display_order,purple_display_order,interactions,blur_events,focus_events,fullscreenenter_events,fullscreenexit_events,rt,stimulus,key_press,button_pressed,success,duration,valid_pressed,rts,keys,planet_text,right_text,left_text,center_text,chosen_text,reward_text,trial_stage,practice_trial,transition_type,choice,transition,reward,timestamp,subject_id
pavlovia,0,10,0.0-0.0,FALSE,FALSE,FALSE,TRUE,"
","
","
","
","
",NA,NA,NA,NA,NA,NA,NA,NA,NA,NA,NA,NA,NA,NA,NA,NA,NA,NA,NA,NA,NA,NA,sub82
html-keyboard-response,1,1684,0.0-1.0,FALSE,FALSE,FALSE,TRUE,"
","
","
","
","
",1669,Welcome! Press the space bar to begin.,32,NA,NA,NA,NA,NA,NA,NA,NA,NA,NA,NA,NA,NA,NA,NA,NA,NA,NA,NA,sub82
audio-keyboard-response,2,4527,0.0-2.0,FALSE,FALSE,FALSE,TRUE,"
","
","
","
","
",2723,audio/beep_loop.wav,32,NA,NA,NA,NA,NA,NA,NA,NA,NA,NA,NA,NA,NA,NA,NA,NA,NA,NA,NA,sub82
audio-button-response,3,8410,0.0-3.0,FALSE,FALSE,FALSE,TRUE,"
","
","
","
","
",NaN,audio/fish.mp3,NA,1,NA,NA,NA,NA,NA,NA,NA,NA,NA,NA,NA,NA,NA,NA,NA,NA,NA,NA,sub82
audio-button-response,4,11644,0.0-4.0,FALSE,FALSE,FALSE,TRUE,"""event"",""trial"",""time""
""fullscreenenter"",""5"",""18679""
","
","
","""event"",""trial"",""time""
""fullscreenenter"",""5"",""18679""
","
",NaN,audio/tiger.mp3,NA,4,NA,NA,NA,NA,NA,NA,NA,NA,NA,NA,NA,NA,NA,NA,NA,NA,NA,NA,sub82
fullscreen,5,19638,0.0-5.0,FALSE,FALSE,FALSE,TRUE,"""event"",""trial"",""time""
""fullscreenenter"",""5"",""18679""
","
","
","""event"",""trial"",""time""
""fullscreenenter"",""5"",""18679""
","
",NA,NA,NA,NA,TRUE,NA,NA,NA,NA,NA,NA,NA,NA,NA,NA,NA,NA,NA,NA,NA,NA,NA,sub82
d3-instructions,6,35030,0.0-6.0,FALSE,FALSE,FALSE,TRUE,"""event"",""trial"",""time""
""fullscreenenter"",""5"",""18679""
","
","
","""event"",""trial"",""time""
""fullscreenenter"",""5"",""18679""
","
",NA,NA,NA,NA,NA,NA,NA,NA,NA,NA,NA,NA,NA,NA,NA,NA,NA,NA,NA,NA,NA,NA,sub82
d3-instructions,7,47480,0.0-7.0,FALSE,FALSE,FALSE,TRUE,"""event"",""trial"",""time""
""fullscreenenter"",""5"",""18679""
","
","
","""event"",""trial"",""time""
""fullscreenenter"",""5"",""18679""
","
",NA,NA,NA,NA,NA,NA,NA,NA,NA,NA,NA,NA,NA,NA,NA,NA,NA,NA,NA,NA,NA,NA,sub82
d3-instructions,8,55680,0.0-8.0,FALSE,FALSE,FALSE,TRUE,"""event"",""trial"",""time""
""fullscreenenter"",""5"",""18679""
","
","
","""event"",""trial"",""time""
""fullscreenenter"",""5"",""18679""
","
",NA,NA,NA,NA,NA,NA,NA,NA,NA,NA,NA,NA,NA,NA,NA,NA,NA,NA,NA,NA,NA,NA,sub82
d3-instructions,9,66939,0.0-9.0,FALSE,FALSE,FALSE,TRUE,"""event"",""trial"",""time""
""fullscreenenter"",""5"",""18679""
","
","
","""event"",""trial"",""time""
""fullscreenenter"",""5"",""18679""
","
",NA,NA,NA,NA,NA,NA,NA,NA,NA,NA,NA,NA,NA,NA,NA,NA,NA,NA,NA,NA,NA,NA,sub82
d3-instructions,10,87688,0.0-10.0,FALSE,FALSE,FALSE,TRUE,"""event"",""trial"",""time""
""fullscreenenter"",""5"",""18679""
","
","
","""event"",""trial"",""time""
""fullscreenenter"",""5"",""18679""
","
",NA,NA,NA,NA,NA,NA,NA,NA,NA,NA,NA,NA,NA,NA,NA,NA,NA,NA,NA,NA,NA,NA,sub82
d3-animate-choice,11,93092,0.0-11.0,FALSE,FALSE,FALSE,TRUE,"""event"",""trial"",""time""
""fullscreenenter"",""5"",""18679""
","
","
","""event"",""trial"",""time""
""fullscreenenter"",""5"",""18679""
","
",3396,NA,49,NA,NA,3000,1,NA,NA,images/tutgreenplanet.jpg,images/tutalien1,images/tutalien2,null,images/tutalien2,NA,NA,practice,null,NA,NA,NA,NA,sub82
d3-animate-choice,12,95126,0.0-12.0,FALSE,FALSE,FALSE,TRUE,"""event"",""trial"",""time""
""fullscreenenter"",""5"",""18679""
","
","
","""event"",""trial"",""time""
""fullscreenenter"",""5"",""18679""
","
",32.000000000029104,NA,48,NA,NA,3000,1,1777,49,images/tutgreenplanet.jpg,images/tutalien1,images/tutalien2,null,images/tutalien1,NA,NA,practice,null,NA,NA,NA,NA,sub82
d3-animate-choice,13,98340,0.0-13.0,FALSE,FALSE,FALSE,TRUE,"""event"",""trial"",""time""
""fullscreenenter"",""5"",""18679""
","
","
","""event"",""trial"",""time""
""fullscreenenter"",""5"",""18679""
","
",1210,NA,49,NA,NA,3000,1,3072,48,images/tutgreenplanet.jpg,images/tutalien1,images/tutalien2,null,images/tutalien2,NA,NA,practice,null,NA,NA,NA,NA,sub82
d3-animate-choice,14,100789,0.0-14.0,FALSE,FALSE,FALSE,TRUE,"""event"",""trial"",""time""
""fullscreenenter"",""5"",""18679""
","
","
","""event"",""trial"",""time""
""fullscreenenter"",""5"",""18679""
","
",447,NA,48,NA,NA,3000,1,NA,NA,images/tutgreenplanet.jpg,images/tutalien1,images/tutalien2,null,images/tutalien1,NA,NA,practice,null,NA,NA,NA,NA,sub82
d3-instructions,15,107399,0.0-15.0,FALSE,FALSE,FALSE,TRUE,"""event"",""trial"",""time""
""fullscreenenter"",""5"",""18679""
","
","
","""event"",""trial"",""time""
""fullscreenenter"",""5"",""18679""
","
",NA,NA,NA,NA,NA,NA,NA,NA,NA,NA,NA,NA,NA,NA,NA,NA,NA,NA,NA,NA,NA,NA,sub82
d3-instructions,16,115118,0.0-16.0,FALSE,FALSE,FALSE,TRUE,"""event"",""trial"",""time""
""fullscreenenter"",""5"",""18679""
","
","
","""event"",""trial"",""time""
""fullscreenenter"",""5"",""18679""
","
",NA,NA,NA,NA,NA,NA,NA,NA,NA,NA,NA,NA,NA,NA,NA,NA,NA,NA,NA,NA,NA,NA,sub82
d3-instructions,17,124122,0.0-17.0,FALSE,FALSE,FALSE,TRUE,"""event"",""trial"",""time""
""fullscreenenter"",""5"",""18679""
","
","
","""event"",""trial"",""time""
""fullscreenenter"",""5"",""18679""
","
",NA,NA,NA,NA,NA,NA,NA,NA,NA,NA,NA,NA,NA,NA,NA,NA,NA,NA,NA,NA,NA,NA,sub82
d3-instructions,18,137613,0.0-18.0,FALSE,FALSE,FALSE,TRUE,"""event"",""trial"",""time""
""fullscreenenter"",""5"",""18679""
","
","
","""event"",""trial"",""time""
""fullscreenenter"",""5"",""18679""
","
",NA,NA,NA,NA,NA,NA,NA,NA,NA,NA,NA,NA,NA,NA,NA,NA,NA,NA,NA,NA,NA,NA,sub82
d3-instructions,19,152254,0.0-19.0,FALSE,FALSE,FALSE,TRUE,"""event"",""trial"",""time""
""fullscreenenter"",""5"",""18679""
","
","
","""event"",""trial"",""time""
""fullscreenenter"",""5"",""18679""
","
",NA,NA,NA,NA,NA,NA,NA,NA,NA,NA,NA,NA,NA,NA,NA,NA,NA,NA,NA,NA,NA,NA,sub82
d3-animate-choice,20,155346,0.0-20.0,FALSE,FALSE,FALSE,TRUE,"""event"",""trial"",""time""
""fullscreenenter"",""5"",""18679""
","
","
","""event"",""trial"",""time""
""fullscreenenter"",""5"",""18679""
","
",1089,NA,49,NA,NA,3000,1,"1795.000000000029,2893",4949,images/tutyellowplanet.jpg,null,images/tutalien3,null,images/tutalien3,images/t.png,NA,practice,null,NA,NA,NA,NA,sub82
d3-animate-choice,21,158010,0.0-21.0,FALSE,FALSE,FALSE,TRUE,"""event"",""trial"",""time""
""fullscreenenter"",""5"",""18679""
","
","
","""event"",""trial"",""time""
""fullscreenenter"",""5"",""18679""
","
",660,NA,49,NA,NA,3000,1,"1229,2165",4949,images/tutyellowplanet.jpg,null,images/tutalien3,null,images/tutalien3,images/t.png,NA,practice,null,NA,NA,NA,NA,sub82
d3-animate-choice,22,160370,0.0-22.0,FALSE,FALSE,FALSE,TRUE,"""event"",""trial"",""time""
""fullscreenenter"",""5"",""18679""
","
","
","""event"",""trial"",""time""
""fullscreenenter"",""5"",""18679""
","
",358,NA,49,NA,NA,3000,1,1345,49,images/tutyellowplanet.jpg,null,images/tutalien3,null,images/tutalien3,images/nothing.png,NA,practice,null,NA,NA,NA,NA,sub82
d3-animate-choice,23,162379,0.0-23.0,FALSE,FALSE,FALSE,TRUE,"""event"",""trial"",""time""
""fullscreenenter"",""5"",""18679""
","
","
","""event"",""trial"",""time""
""fullscreenenter"",""5"",""18679""
","
",6,NA,49,NA,NA,3000,1,"888.9999999999709,1605.999999999971",4949,images/tutyellowplanet.jpg,null,images/tutalien3,null,images/tutalien3,images/t.png,NA,practice,null,NA,NA,NA,NA,sub82
d3-animate-choice,24,164756,0.0-24.0,FALSE,FALSE,FALSE,TRUE,"""event"",""trial"",""time""
""fullscreenenter"",""5"",""18679""
","
","
","""event"",""trial"",""time""
""fullscreenenter"",""5"",""18679""
","
",374,NA,49,NA,NA,3000,1,"1201,1964",4949,images/tutyellowplanet.jpg,null,images/tutalien3,null,images/tutalien3,images/t.png,NA,practice,null,NA,NA,NA,NA,sub82
d3-animate-choice,25,167093,0.0-25.0,FALSE,FALSE,FALSE,TRUE,"""event"",""trial"",""time""
""fullscreenenter"",""5"",""18679""
","
","
","""event"",""trial"",""time""
""fullscreenenter"",""5"",""18679""
","
",334,NA,49,NA,NA,3000,1,"1163,1848",4949,images/tutyellowplanet.jpg,null,images/tutalien3,null,images/tutalien3,images/nothing.png,NA,practice,null,NA,NA,NA,NA,sub82
d3-animate-choice,26,169258,0.0-26.0,FALSE,FALSE,FALSE,TRUE,"""event"",""trial"",""time""
""fullscreenenter"",""5"",""18679""
","
","
","""event"",""trial"",""time""
""fullscreenenter"",""5"",""18679""
","
",163,NA,49,NA,NA,3000,1,"873,1672",4949,images/tutyellowplanet.jpg,null,images/tutalien3,null,images/tutalien3,images/nothing.png,NA,practice,null,NA,NA,NA,NA,sub82
d3-animate-choice,27,171547,0.0-27.0,FALSE,FALSE,FALSE,TRUE,"""event"",""trial"",""time""
""fullscreenenter"",""5"",""18679""
","
","
","""event"",""trial"",""time""
""fullscreenenter"",""5"",""18679""
","
",286.9999999999709,NA,49,NA,NA,3000,1,"1457.999999999971,2149.999999999971",4949,images/tutyellowplanet.jpg,null,images/tutalien3,null,images/tutalien3,images/t.png,NA,practice,null,NA,NA,NA,NA,sub82
d3-animate-choice,28,174207,0.0-28.0,FALSE,FALSE,FALSE,TRUE,"""event"",""trial"",""time""
""fullscreenenter"",""5"",""18679""
","
","
","""event"",""trial"",""time""
""fullscreenenter"",""5"",""18679""
","
",657.0000000000291,NA,49,NA,NA,3000,1,"1384,2561",4949,images/tutyellowplanet.jpg,null,images/tutalien3,null,images/tutalien3,images/t.png,NA,practice,null,NA,NA,NA,NA,sub82
d3-animate-choice,29,176689,0.0-29.0,FALSE,FALSE,FALSE,TRUE,"""event"",""trial"",""time""
""fullscreenenter"",""5"",""18679""
","
","
","""event"",""trial"",""time""
""fullscreenenter"",""5"",""18679""
","
",479,NA,49,NA,NA,3000,1,"1225,1933",4949,images/tutyellowplanet.jpg,null,images/tutalien3,null,images/tutalien3,images/t.png,NA,practice,null,NA,NA,NA,NA,sub82
d3-instructions,30,183476,0.0-30.0,FALSE,FALSE,FALSE,TRUE,"""event"",""trial"",""time""
""fullscreenenter"",""5"",""18679""
","
","
","""event"",""trial"",""time""
""fullscreenenter"",""5"",""18679""
","
",NA,NA,NA,NA,NA,NA,NA,NA,NA,NA,NA,NA,NA,NA,NA,NA,NA,NA,NA,NA,NA,NA,sub82
d3-instructions,31,193534,0.0-31.0,FALSE,FALSE,FALSE,TRUE,"""event"",""trial"",""time""
""fullscreenenter"",""5"",""18679""
","
","
","""event"",""trial"",""time""
""fullscreenenter"",""5"",""18679""
","
",NA,NA,NA,NA,NA,NA,NA,NA,NA,NA,NA,NA,NA,NA,NA,NA,NA,NA,NA,NA,NA,NA,sub82
d3-instructions,32,208970,0.0-32.0,FALSE,FALSE,FALSE,TRUE,"""event"",""trial"",""time""
""fullscreenenter"",""5"",""18679""
","
","
","""event"",""trial"",""time""
""fullscreenenter"",""5"",""18679""
","
",NA,NA,NA,NA,NA,NA,NA,NA,NA,NA,NA,NA,NA,NA,NA,NA,NA,NA,NA,NA,NA,NA,sub82
d3-instructions,33,220188,0.0-33.0,FALSE,FALSE,FALSE,TRUE,"""event"",""trial"",""time""
""fullscreenenter"",""5"",""18679""
","
","
","""event"",""trial"",""time""
""fullscreenenter"",""5"",""18679""
","
",NA,NA,NA,NA,NA,NA,NA,NA,NA,NA,NA,NA,NA,NA,NA,NA,NA,NA,NA,NA,NA,NA,sub82
d3-animate-choice,34,225438,0.0-34.0,FALSE,FALSE,FALSE,TRUE,"""event"",""trial"",""time""
""fullscreenenter"",""5"",""18679""
","
","
","""event"",""trial"",""time""
""fullscreenenter"",""5"",""18679""
","
",3247,NA,49,NA,NA,3000,1,4903,49,images/tutgreenplanet.jpg,images/tutalien1,images/tutalien2,null,images/tutalien2,images/t.png,NA,practice,null,NA,NA,NA,NA,sub82
d3-animate-choice,35,230316,0.0-35.0,FALSE,FALSE,FALSE,TRUE,"""event"",""trial"",""time""
""fullscreenenter"",""5"",""18679""
","
","
","""event"",""trial"",""time""
""fullscreenenter"",""5"",""18679""
","
",2875,NA,48,NA,NA,3000,1,NA,NA,images/tutgreenplanet.jpg,images/tutalien1,images/tutalien2,null,images/tutalien1,images/nothing.png,NA,practice,null,NA,NA,NA,NA,sub82
d3-animate-choice,36,233729,0.0-36.0,FALSE,FALSE,FALSE,TRUE,"""event"",""trial"",""time""
""fullscreenenter"",""5"",""18679""
","
","
","""event"",""trial"",""time""
""fullscreenenter"",""5"",""18679""
","
",1409.9999999999418,NA,49,NA,NA,3000,1,NA,NA,images/tutgreenplanet.jpg,images/tutalien1,images/tutalien2,null,images/tutalien2,images/t.png,NA,practice,null,NA,NA,NA,NA,sub82
d3-animate-choice,37,237297,0.0-37.0,FALSE,FALSE,FALSE,TRUE,"""event"",""trial"",""time""
""fullscreenenter"",""5"",""18679""
","
","
","""event"",""trial"",""time""
""fullscreenenter"",""5"",""18679""
","
",1563.0000000000582,NA,49,NA,NA,3000,1,NA,NA,images/tutgreenplanet.jpg,images/tutalien1,images/tutalien2,null,images/tutalien2,images/t.png,NA,practice,null,NA,NA,NA,NA,sub82
d3-animate-choice,38,240960,0.0-38.0,FALSE,FALSE,FALSE,TRUE,"""event"",""trial"",""time""
""fullscreenenter"",""5"",""18679""
","
","
","""event"",""trial"",""time""
""fullscreenenter"",""5"",""18679""
","
",1660,NA,49,NA,NA,3000,1,NA,NA,images/tutgreenplanet.jpg,images/tutalien1,images/tutalien2,null,images/tutalien2,images/t.png,NA,practice,null,NA,NA,NA,NA,sub82
d3-animate-choice,39,244115,0.0-39.0,FALSE,FALSE,FALSE,TRUE,"""event"",""trial"",""time""
""fullscreenenter"",""5"",""18679""
","
","
","""event"",""trial"",""time""
""fullscreenenter"",""5"",""18679""
","
",1152,NA,49,NA,NA,3000,1,NA,NA,images/tutgreenplanet.jpg,images/tutalien1,images/tutalien2,null,images/tutalien2,images/t.png,NA,practice,null,NA,NA,NA,NA,sub82
d3-animate-choice,40,246888,0.0-40.0,FALSE,FALSE,FALSE,TRUE,"""event"",""trial"",""time""
""fullscreenenter"",""5"",""18679""
","
","
","""event"",""trial"",""time""
""fullscreenenter"",""5"",""18679""
","
",769.9999999999418,NA,49,NA,NA,3000,1,NA,NA,images/tutgreenplanet.jpg,images/tutalien1,images/tutalien2,null,images/tutalien2,images/t.png,NA,practice,null,NA,NA,NA,NA,sub82
d3-animate-choice,41,249430,0.0-41.0,FALSE,FALSE,FALSE,TRUE,"""event"",""trial"",""time""
""fullscreenenter"",""5"",""18679""
","
","
","""event"",""trial"",""time""
""fullscreenenter"",""5"",""18679""
","
",540,NA,49,NA,NA,3000,1,NA,NA,images/tutgreenplanet.jpg,images/tutalien1,images/tutalien2,null,images/tutalien2,images/t.png,NA,practice,null,NA,NA,NA,NA,sub82
d3-animate-choice,42,252329,0.0-42.0,FALSE,FALSE,FALSE,TRUE,"""event"",""trial"",""time""
""fullscreenenter"",""5"",""18679""
","
","
","""event"",""trial"",""time""
""fullscreenenter"",""5"",""18679""
","
",895.9999999999418,NA,49,NA,NA,3000,1,NA,NA,images/tutgreenplanet.jpg,images/tutalien1,images/tutalien2,null,images/tutalien2,images/t.png,NA,practice,null,NA,NA,NA,NA,sub82
d3-animate-choice,43,255189,0.0-43.0,FALSE,FALSE,FALSE,TRUE,"""event"",""trial"",""time""
""fullscreenenter"",""5"",""18679""
","
","
","""event"",""trial"",""time""
""fullscreenenter"",""5"",""18679""
","
",855.9999999999418,NA,49,NA,NA,3000,1,NA,NA,images/tutgreenplanet.jpg,images/tutalien1,images/tutalien2,null,images/tutalien2,images/t.png,NA,practice,null,NA,NA,NA,NA,sub82
d3-instructions,44,268427,0.0-44.0,FALSE,FALSE,FALSE,TRUE,"""event"",""trial"",""time""
""fullscreenenter"",""5"",""18679""
","
","
","""event"",""trial"",""time""
""fullscreenenter"",""5"",""18679""
","
",NA,NA,NA,NA,NA,NA,NA,NA,NA,NA,NA,NA,NA,NA,NA,NA,NA,NA,NA,NA,NA,NA,sub82
d3-instructions,45,274661,0.0-45.0,FALSE,FALSE,FALSE,TRUE,"""event"",""trial"",""time""
""fullscreenenter"",""5"",""18679""
","
","
","""event"",""trial"",""time""
""fullscreenenter"",""5"",""18679""
","
",NA,NA,NA,NA,NA,NA,NA,NA,NA,NA,NA,NA,NA,NA,NA,NA,NA,NA,NA,NA,NA,NA,sub82
d3-instructions,46,280094,0.0-46.0,FALSE,FALSE,FALSE,TRUE,"""event"",""trial"",""time""
""fullscreenenter"",""5"",""18679""
","
","
","""event"",""trial"",""time""
""fullscreenenter"",""5"",""18679""
","
",NA,NA,NA,NA,NA,NA,NA,NA,NA,NA,NA,NA,NA,NA,NA,NA,NA,NA,NA,NA,NA,NA,sub82
d3-instructions,47,298200,0.0-47.0,FALSE,FALSE,FALSE,TRUE,"""event"",""trial"",""time""
""fullscreenenter"",""5"",""18679""
","
","
","""event"",""trial"",""time""
""fullscreenenter"",""5"",""18679""
","
",NA,NA,NA,NA,NA,NA,NA,NA,NA,NA,NA,NA,NA,NA,NA,NA,NA,NA,NA,NA,NA,NA,sub82
d3-instructions,48,304862,0.0-48.0,FALSE,FALSE,FALSE,TRUE,"""event"",""trial"",""time""
""fullscreenenter"",""5"",""18679""
","
","
","""event"",""trial"",""time""
""fullscreenenter"",""5"",""18679""
","
",NA,NA,NA,NA,NA,NA,NA,NA,NA,NA,NA,NA,NA,NA,NA,NA,NA,NA,NA,NA,NA,NA,sub82
d3-instructions,49,316710,0.0-49.0,FALSE,FALSE,FALSE,TRUE,"""event"",""trial"",""time""
""fullscreenenter"",""5"",""18679""
","
","
","""event"",""trial"",""time""
""fullscreenenter"",""5"",""18679""
","
",NA,NA,NA,NA,NA,NA,NA,NA,NA,NA,NA,NA,NA,NA,NA,NA,NA,NA,NA,NA,NA,NA,sub82
d3-instructions,50,325937,0.0-50.0,FALSE,FALSE,FALSE,TRUE,"""event"",""trial"",""time""
""fullscreenenter"",""5"",""18679""
","
","
","""event"",""trial"",""time""
""fullscreenenter"",""5"",""18679""
","
",NA,NA,NA,NA,NA,NA,NA,NA,NA,NA,NA,NA,NA,NA,NA,NA,NA,NA,NA,NA,NA,NA,sub82
d3-instructions,51,329159,0.0-51.0,FALSE,FALSE,FALSE,TRUE,"""event"",""trial"",""time""
""fullscreenenter"",""5"",""18679""
","
","
","""event"",""trial"",""time""
""fullscreenenter"",""5"",""18679""
","
",NA,NA,NA,NA,NA,NA,NA,NA,NA,NA,NA,NA,NA,NA,NA,NA,NA,NA,NA,NA,NA,NA,sub82
d3-instructions,52,331953,0.0-52.0,FALSE,FALSE,FALSE,TRUE,"""event"",""trial"",""time""
""fullscreenenter"",""5"",""18679""
","
","
","""event"",""trial"",""time""
""fullscreenenter"",""5"",""18679""
","
",NA,NA,NA,NA,NA,NA,NA,NA,NA,NA,NA,NA,NA,NA,NA,NA,NA,NA,NA,NA,NA,NA,sub82
d3-instructions,53,345499,0.0-53.0,FALSE,FALSE,FALSE,TRUE,"""event"",""trial"",""time""
""fullscreenenter"",""5"",""18679""
","
","
","""event"",""trial"",""time""
""fullscreenenter"",""5"",""18679""
","
",NA,NA,NA,NA,NA,NA,NA,NA,NA,NA,NA,NA,NA,NA,NA,NA,NA,NA,NA,NA,NA,NA,sub82
d3-instructions,54,360340,0.0-54.0,FALSE,FALSE,FALSE,TRUE,"""event"",""trial"",""time""
""fullscreenenter"",""5"",""18679""
","
","
","""event"",""trial"",""time""
""fullscreenenter"",""5"",""18679""
","
",NA,NA,NA,NA,NA,NA,NA,NA,NA,NA,NA,NA,NA,NA,NA,NA,NA,NA,NA,NA,NA,NA,sub82
d3-instructions,55,371481,0.0-55.0,FALSE,FALSE,FALSE,TRUE,"""event"",""trial"",""time""
""fullscreenenter"",""5"",""18679""
","
","
","""event"",""trial"",""time""
""fullscreenenter"",""5"",""18679""
","
",NA,NA,NA,NA,NA,NA,NA,NA,NA,NA,NA,NA,NA,NA,NA,NA,NA,NA,NA,NA,NA,NA,sub82
d3-instructions,56,380647,0.0-56.0,FALSE,FALSE,FALSE,TRUE,"""event"",""trial"",""time""
""fullscreenenter"",""5"",""18679""
","
","
","""event"",""trial"",""time""
""fullscreenenter"",""5"",""18679""
","
",NA,NA,NA,NA,NA,NA,NA,NA,NA,NA,NA,NA,NA,NA,NA,NA,NA,NA,NA,NA,NA,NA,sub82
d3-instructions,57,391448,0.0-57.0,FALSE,FALSE,FALSE,TRUE,"""event"",""trial"",""time""
""fullscreenenter"",""5"",""18679""
","
","
","""event"",""trial"",""time""
""fullscreenenter"",""5"",""18679""
","
",NA,NA,NA,NA,NA,NA,NA,NA,NA,NA,NA,NA,NA,NA,NA,NA,NA,NA,NA,NA,NA,NA,sub82
d3-instructions,58,402035,0.0-58.0,FALSE,FALSE,FALSE,TRUE,"""event"",""trial"",""time""
""fullscreenenter"",""5"",""18679""
","
","
","""event"",""trial"",""time""
""fullscreenenter"",""5"",""18679""
","
",NA,NA,NA,NA,NA,NA,NA,NA,NA,NA,NA,NA,NA,NA,NA,NA,NA,NA,NA,NA,NA,NA,sub82
d3-instructions,59,406984,0.0-59.0,FALSE,FALSE,FALSE,TRUE,"""event"",""trial"",""time""
""fullscreenenter"",""5"",""18679""
","
","
","""event"",""trial"",""time""
""fullscreenenter"",""5"",""18679""
","
",NA,NA,NA,NA,NA,NA,NA,NA,NA,NA,NA,NA,NA,NA,NA,NA,NA,NA,NA,NA,NA,NA,sub82
d3-instructions,60,413275,0.0-60.0,FALSE,FALSE,FALSE,TRUE,"""event"",""trial"",""time""
""fullscreenenter"",""5"",""18679""
","
","
","""event"",""trial"",""time""
""fullscreenenter"",""5"",""18679""
","
",NA,NA,NA,NA,NA,NA,NA,NA,NA,NA,NA,NA,NA,NA,NA,NA,NA,NA,NA,NA,NA,NA,sub82
d3-animate-choice,61,417279,0.0-61.0-0.0,FALSE,FALSE,FALSE,TRUE,"""event"",""trial"",""time""
""fullscreenenter"",""5"",""18679""
","
","
","""event"",""trial"",""time""
""fullscreenenter"",""5"",""18679""
","
",2380,NA,48,NA,NA,3000,1,NA,NA,images/earth.jpg,images/tutrocket2,images/tutrocket1,null,images/tutrocket2,NA,1,practice,null,2,NA,NA,NA,sub82
d3-animate-choice,62,421284,0.0-61.0-1.0,FALSE,FALSE,FALSE,TRUE,"""event"",""trial"",""time""
""fullscreenenter"",""5"",""18679""
","
","
","""event"",""trial"",""time""
""fullscreenenter"",""5"",""18679""
","
",2963,NA,49,NA,NA,3000,1,NA,NA,images/tutgreenplanet.jpg,images/tutalien2,images/tutalien1,images/tutrocket2,images/tutalien1,NA,2,practice,true,1,common,0,2020-06-16T17:45:41Z,sub82
two-step-fixation,63,422286,0.0-61.0-2.0,FALSE,FALSE,FALSE,TRUE,"""event"",""trial"",""time""
""fullscreenenter"",""5"",""18679""
","
","
","""event"",""trial"",""time""
""fullscreenenter"",""5"",""18679""
","
",NA,images/earth.jpg,NA,NA,NA,NA,NA,NA,NA,NA,NA,NA,NA,NA,NA,fixation,NA,NA,NA,NA,NA,NA,sub82
d3-animate-choice,64,426290,0.0-61.0-0.1,FALSE,FALSE,FALSE,TRUE,"""event"",""trial"",""time""
""fullscreenenter"",""5"",""18679""
","
","
","""event"",""trial"",""time""
""fullscreenenter"",""5"",""18679""
","
",2549,NA,49,NA,NA,3000,1,NA,NA,images/earth.jpg,images/tutrocket2,images/tutrocket1,null,images/tutrocket1,NA,1,practice,null,1,NA,NA,NA,sub82
d3-animate-choice,65,429730,0.0-61.0-1.1,FALSE,FALSE,FALSE,TRUE,"""event"",""trial"",""time""
""fullscreenenter"",""5"",""18679""
","
","
","""event"",""trial"",""time""
""fullscreenenter"",""5"",""18679""
","
",1436.9999999999418,NA,48,NA,NA,3000,1,NA,NA,images/tutyellowplanet.jpg,images/tutalien4,images/tutalien3,images/tutrocket1,images/tutalien4,images/t.png,2,practice,true,2,common,1,2020-06-16T17:45:49Z,sub82
two-step-fixation,66,430732,0.0-61.0-2.1,FALSE,FALSE,FALSE,TRUE,"""event"",""trial"",""time""
""fullscreenenter"",""5"",""18679""
","
","
","""event"",""trial"",""time""
""fullscreenenter"",""5"",""18679""
","
",NA,images/earth.jpg,NA,NA,NA,NA,NA,NA,NA,NA,NA,NA,NA,NA,NA,fixation,NA,NA,NA,NA,NA,NA,sub82
d3-animate-choice,67,433786,0.0-61.0-0.2,FALSE,FALSE,FALSE,TRUE,"""event"",""trial"",""time""
""fullscreenenter"",""5"",""18679""
","
","
","""event"",""trial"",""time""
""fullscreenenter"",""5"",""18679""
","
",1050,NA,49,NA,NA,3000,1,NA,NA,images/earth.jpg,images/tutrocket2,images/tutrocket1,null,images/tutrocket1,NA,1,practice,null,1,NA,NA,NA,sub82
d3-animate-choice,68,436715,0.0-61.0-1.2,FALSE,FALSE,FALSE,TRUE,"""event"",""trial"",""time""
""fullscreenenter"",""5"",""18679""
","
","
","""event"",""trial"",""time""
""fullscreenenter"",""5"",""18679""
","
",927,NA,48,NA,NA,3000,1,NA,NA,images/tutyellowplanet.jpg,images/tutalien4,images/tutalien3,images/tutrocket1,images/tutalien4,images/nothing.png,2,practice,true,2,common,0,2020-06-16T17:45:56Z,sub82
two-step-fixation,69,437716,0.0-61.0-2.2,FALSE,FALSE,FALSE,TRUE,"""event"",""trial"",""time""
""fullscreenenter"",""5"",""18679""
","
","
","""event"",""trial"",""time""
""fullscreenenter"",""5"",""18679""
","
",NA,images/earth.jpg,NA,NA,NA,NA,NA,NA,NA,NA,NA,NA,NA,NA,NA,fixation,NA,NA,NA,NA,NA,NA,sub82
d3-animate-choice,70,440876,0.0-61.0-0.3,FALSE,FALSE,FALSE,TRUE,"""event"",""trial"",""time""
""fullscreenenter"",""5"",""18679""
","
","
","""event"",""trial"",""time""
""fullscreenenter"",""5"",""18679""
","
",1158,NA,48,NA,NA,3000,1,NA,NA,images/earth.jpg,images/tutrocket2,images/tutrocket1,null,images/tutrocket2,NA,1,practice,null,2,NA,NA,NA,sub82
d3-animate-choice,71,444648,0.0-61.0-1.3,FALSE,FALSE,FALSE,TRUE,"""event"",""trial"",""time""
""fullscreenenter"",""5"",""18679""
","
","
","""event"",""trial"",""time""
""fullscreenenter"",""5"",""18679""
","
",1769,NA,48,NA,NA,3000,1,NA,NA,images/tutgreenplanet.jpg,images/tutalien2,images/tutalien1,images/tutrocket2,images/tutalien2,images/nothing.png,2,practice,true,2,common,0,2020-06-16T17:46:04Z,sub82
two-step-fixation,72,445649,0.0-61.0-2.3,FALSE,FALSE,FALSE,TRUE,"""event"",""trial"",""time""
""fullscreenenter"",""5"",""18679""
","
","
","""event"",""trial"",""time""
""fullscreenenter"",""5"",""18679""
","
",NA,images/earth.jpg,NA,NA,NA,NA,NA,NA,NA,NA,NA,NA,NA,NA,NA,fixation,NA,NA,NA,NA,NA,NA,sub82
d3-animate-choice,73,448519,0.0-61.0-0.4,FALSE,FALSE,FALSE,TRUE,"""event"",""trial"",""time""
""fullscreenenter"",""5"",""18679""
","
","
","""event"",""trial"",""time""
""fullscreenenter"",""5"",""18679""
","
",867,NA,49,NA,NA,3000,1,NA,NA,images/earth.jpg,images/tutrocket2,images/tutrocket1,null,images/tutrocket1,NA,1,practice,null,1,NA,NA,NA,sub82
d3-animate-choice,74,452110,0.0-61.0-1.4,FALSE,FALSE,FALSE,TRUE,"""event"",""trial"",""time""
""fullscreenenter"",""5"",""18679""
","
","
","""event"",""trial"",""time""
""fullscreenenter"",""5"",""18679""
","
",1588,NA,49,NA,NA,3000,1,NA,NA,images/tutyellowplanet.jpg,images/tutalien4,images/tutalien3,images/tutrocket1,images/tutalien3,images/nothing.png,2,practice,true,1,common,0,2020-06-16T17:46:12Z,sub82
two-step-fixation,75,453111,0.0-61.0-2.4,FALSE,FALSE,FALSE,TRUE,"""event"",""trial"",""time""
""fullscreenenter"",""5"",""18679""
","
","
","""event"",""trial"",""time""
""fullscreenenter"",""5"",""18679""
","
",NA,images/earth.jpg,NA,NA,NA,NA,NA,NA,NA,NA,NA,NA,NA,NA,NA,fixation,NA,NA,NA,NA,NA,NA,sub82
d3-animate-choice,76,456069,0.0-61.0-0.5,FALSE,FALSE,FALSE,TRUE,"""event"",""trial"",""time""
""fullscreenenter"",""5"",""18679""
","
","
","""event"",""trial"",""time""
""fullscreenenter"",""5"",""18679""
","
",954,NA,48,NA,NA,3000,1,NA,NA,images/earth.jpg,images/tutrocket2,images/tutrocket1,null,images/tutrocket2,NA,1,practice,null,2,NA,NA,NA,sub82
d3-animate-choice,77,459700,0.0-61.0-1.5,FALSE,FALSE,FALSE,TRUE,"""event"",""trial"",""time""
""fullscreenenter"",""5"",""18679""
","
","
","""event"",""trial"",""time""
""fullscreenenter"",""5"",""18679""
","
",1628.0000000000582,NA,48,NA,NA,3000,1,NA,NA,images/tutgreenplanet.jpg,images/tutalien2,images/tutalien1,images/tutrocket2,images/tutalien2,images/t.png,2,practice,true,2,common,1,2020-06-16T17:46:19Z,sub82
two-step-fixation,78,460701,0.0-61.0-2.5,FALSE,FALSE,FALSE,TRUE,"""event"",""trial"",""time""
""fullscreenenter"",""5"",""18679""
","
","
","""event"",""trial"",""time""
""fullscreenenter"",""5"",""18679""
","
",NA,images/earth.jpg,NA,NA,NA,NA,NA,NA,NA,NA,NA,NA,NA,NA,NA,fixation,NA,NA,NA,NA,NA,NA,sub82
d3-animate-choice,79,463523,0.0-61.0-0.6,FALSE,FALSE,FALSE,TRUE,"""event"",""trial"",""time""
""fullscreenenter"",""5"",""18679""
","
","
","""event"",""trial"",""time""
""fullscreenenter"",""5"",""18679""
","
",819,NA,49,NA,NA,3000,1,NA,NA,images/earth.jpg,images/tutrocket2,images/tutrocket1,null,images/tutrocket1,NA,1,practice,null,1,NA,NA,NA,sub82
d3-animate-choice,80,467322,0.0-61.0-1.6,FALSE,FALSE,FALSE,TRUE,"""event"",""trial"",""time""
""fullscreenenter"",""5"",""18679""
","
","
","""event"",""trial"",""time""
""fullscreenenter"",""5"",""18679""
","
",1796,NA,49,NA,NA,3000,1,NA,NA,images/tutyellowplanet.jpg,images/tutalien4,images/tutalien3,images/tutrocket1,images/tutalien3,images/nothing.png,2,practice,true,1,common,0,2020-06-16T17:46:27Z,sub82
two-step-fixation,81,468324,0.0-61.0-2.6,FALSE,FALSE,FALSE,TRUE,"""event"",""trial"",""time""
""fullscreenenter"",""5"",""18679""
","
","
","""event"",""trial"",""time""
""fullscreenenter"",""5"",""18679""
","
",NA,images/earth.jpg,NA,NA,NA,NA,NA,NA,NA,NA,NA,NA,NA,NA,NA,fixation,NA,NA,NA,NA,NA,NA,sub82
d3-animate-choice,82,471967,0.0-61.0-0.7,FALSE,FALSE,FALSE,TRUE,"""event"",""trial"",""time""
""fullscreenenter"",""5"",""18679""
","
","
","""event"",""trial"",""time""
""fullscreenenter"",""5"",""18679""
","
",1641,NA,48,NA,NA,3000,1,NA,NA,images/earth.jpg,images/tutrocket2,images/tutrocket1,null,images/tutrocket2,NA,1,practice,null,2,NA,NA,NA,sub82
d3-animate-choice,83,474871,0.0-61.0-1.7,FALSE,FALSE,FALSE,TRUE,"""event"",""trial"",""time""
""fullscreenenter"",""5"",""18679""
","
","
","""event"",""trial"",""time""
""fullscreenenter"",""5"",""18679""
","
",902,NA,48,NA,NA,3000,1,NA,NA,images/tutgreenplanet.jpg,images/tutalien2,images/tutalien1,images/tutrocket2,images/tutalien2,images/t.png,2,practice,true,2,common,1,2020-06-16T17:46:34Z,sub82
two-step-fixation,84,475873,0.0-61.0-2.7,FALSE,FALSE,FALSE,TRUE,"""event"",""trial"",""time""
""fullscreenenter"",""5"",""18679""
","
","
","""event"",""trial"",""time""
""fullscreenenter"",""5"",""18679""
","
",NA,images/earth.jpg,NA,NA,NA,NA,NA,NA,NA,NA,NA,NA,NA,NA,NA,fixation,NA,NA,NA,NA,NA,NA,sub82
d3-animate-choice,85,478671,0.0-61.0-0.8,FALSE,FALSE,FALSE,TRUE,"""event"",""trial"",""time""
""fullscreenenter"",""5"",""18679""
","
","
","""event"",""trial"",""time""
""fullscreenenter"",""5"",""18679""
","
",795,NA,48,NA,NA,3000,1,NA,NA,images/earth.jpg,images/tutrocket2,images/tutrocket1,null,images/tutrocket2,NA,1,practice,null,2,NA,NA,NA,sub82
d3-animate-choice,86,482514,0.0-61.0-1.8,FALSE,FALSE,FALSE,TRUE,"""event"",""trial"",""time""
""fullscreenenter"",""5"",""18679""
","
","
","""event"",""trial"",""time""
""fullscreenenter"",""5"",""18679""
","
",1841,NA,49,NA,NA,3000,1,NA,NA,images/tutyellowplanet.jpg,images/tutalien4,images/tutalien3,images/tutrocket2,images/tutalien3,images/t.png,2,practice,false,1,rare,1,2020-06-16T17:46:42Z,sub82
two-step-fixation,87,483516,0.0-61.0-2.8,FALSE,FALSE,FALSE,TRUE,"""event"",""trial"",""time""
""fullscreenenter"",""5"",""18679""
","
","
","""event"",""trial"",""time""
""fullscreenenter"",""5"",""18679""
","
",NA,images/earth.jpg,NA,NA,NA,NA,NA,NA,NA,NA,NA,NA,NA,NA,NA,fixation,NA,NA,NA,NA,NA,NA,sub82
d3-animate-choice,88,486400,0.0-61.0-0.9,FALSE,FALSE,FALSE,TRUE,"""event"",""trial"",""time""
""fullscreenenter"",""5"",""18679""
","
","
","""event"",""trial"",""time""
""fullscreenenter"",""5"",""18679""
","
",882,NA,48,NA,NA,3000,1,NA,NA,images/earth.jpg,images/tutrocket2,images/tutrocket1,null,images/tutrocket2,NA,1,practice,null,2,NA,NA,NA,sub82
d3-animate-choice,89,489331,0.0-61.0-1.9,FALSE,FALSE,FALSE,TRUE,"""event"",""trial"",""time""
""fullscreenenter"",""5"",""18679""
","
","
","""event"",""trial"",""time""
""fullscreenenter"",""5"",""18679""
","
",928,NA,48,NA,NA,3000,1,NA,NA,images/tutgreenplanet.jpg,images/tutalien2,images/tutalien1,images/tutrocket2,images/tutalien2,images/t.png,2,practice,true,2,common,1,2020-06-16T17:46:49Z,sub82
two-step-fixation,90,490334,0.0-61.0-2.9,FALSE,FALSE,FALSE,TRUE,"""event"",""trial"",""time""
""fullscreenenter"",""5"",""18679""
","
","
","""event"",""trial"",""time""
""fullscreenenter"",""5"",""18679""
","
",NA,images/earth.jpg,NA,NA,NA,NA,NA,NA,NA,NA,NA,NA,NA,NA,NA,fixation,NA,NA,NA,NA,NA,NA,sub82
d3-animate-choice,91,493083,0.0-61.0-0.10,FALSE,FALSE,FALSE,TRUE,"""event"",""trial"",""time""
""fullscreenenter"",""5"",""18679""
","
","
","""event"",""trial"",""time""
""fullscreenenter"",""5"",""18679""
","
",747,NA,48,NA,NA,3000,1,NA,NA,images/earth.jpg,images/tutrocket2,images/tutrocket1,null,images/tutrocket2,NA,1,practice,null,2,NA,NA,NA,sub82
d3-animate-choice,92,496145,0.0-61.0-1.10,FALSE,FALSE,FALSE,TRUE,"""event"",""trial"",""time""
""fullscreenenter"",""5"",""18679""
","
","
","""event"",""trial"",""time""
""fullscreenenter"",""5"",""18679""
","
",1059,NA,48,NA,NA,3000,1,NA,NA,images/tutgreenplanet.jpg,images/tutalien2,images/tutalien1,images/tutrocket2,images/tutalien2,images/nothing.png,2,practice,true,2,common,0,2020-06-16T17:46:56Z,sub82
two-step-fixation,93,497146,0.0-61.0-2.10,FALSE,FALSE,FALSE,TRUE,"""event"",""trial"",""time""
""fullscreenenter"",""5"",""18679""
","
","
","""event"",""trial"",""time""
""fullscreenenter"",""5"",""18679""
","
",NA,images/earth.jpg,NA,NA,NA,NA,NA,NA,NA,NA,NA,NA,NA,NA,NA,fixation,NA,NA,NA,NA,NA,NA,sub82
d3-animate-choice,94,500132,0.0-61.0-0.11,FALSE,FALSE,FALSE,TRUE,"""event"",""trial"",""time""
""fullscreenenter"",""5"",""18679""
","
","
","""event"",""trial"",""time""
""fullscreenenter"",""5"",""18679""
","
",983,NA,49,NA,NA,3000,1,NA,NA,images/earth.jpg,images/tutrocket2,images/tutrocket1,null,images/tutrocket1,NA,1,practice,null,1,NA,NA,NA,sub82
d3-animate-choice,95,503230,0.0-61.0-1.11,FALSE,FALSE,FALSE,TRUE,"""event"",""trial"",""time""
""fullscreenenter"",""5"",""18679""
","
","
","""event"",""trial"",""time""
""fullscreenenter"",""5"",""18679""
","
",1096,NA,49,NA,NA,3000,1,NA,NA,images/tutyellowplanet.jpg,images/tutalien4,images/tutalien3,images/tutrocket1,images/tutalien3,images/nothing.png,2,practice,true,1,common,0,2020-06-16T17:47:03Z,sub82
two-step-fixation,96,504232,0.0-61.0-2.11,FALSE,FALSE,FALSE,TRUE,"""event"",""trial"",""time""
""fullscreenenter"",""5"",""18679""
","
","
","""event"",""trial"",""time""
""fullscreenenter"",""5"",""18679""
","
",NA,images/earth.jpg,NA,NA,NA,NA,NA,NA,NA,NA,NA,NA,NA,NA,NA,fixation,NA,NA,NA,NA,NA,NA,sub82
d3-animate-choice,97,506849,0.0-61.0-0.12,FALSE,FALSE,FALSE,TRUE,"""event"",""trial"",""time""
""fullscreenenter"",""5"",""18679""
","
","
","""event"",""trial"",""time""
""fullscreenenter"",""5"",""18679""
","
",615.0000000001164,NA,48,NA,NA,3000,1,NA,NA,images/earth.jpg,images/tutrocket2,images/tutrocket1,null,images/tutrocket2,NA,1,practice,null,2,NA,NA,NA,sub82
d3-animate-choice,98,510047,0.0-61.0-1.12,FALSE,FALSE,FALSE,TRUE,"""event"",""trial"",""time""
""fullscreenenter"",""5"",""18679""
","
","
","""event"",""trial"",""time""
""fullscreenenter"",""5"",""18679""
","
",1195,NA,48,NA,NA,3000,1,NA,NA,images/tutgreenplanet.jpg,images/tutalien2,images/tutalien1,images/tutrocket2,images/tutalien2,images/t.png,2,practice,true,2,common,1,2020-06-16T17:47:10Z,sub82
two-step-fixation,99,511050,0.0-61.0-2.12,FALSE,FALSE,FALSE,TRUE,"""event"",""trial"",""time""
""fullscreenenter"",""5"",""18679""
","
","
","""event"",""trial"",""time""
""fullscreenenter"",""5"",""18679""
","
",NA,images/earth.jpg,NA,NA,NA,NA,NA,NA,NA,NA,NA,NA,NA,NA,NA,fixation,NA,NA,NA,NA,NA,NA,sub82
d3-animate-choice,100,513529,0.0-61.0-0.13,FALSE,FALSE,FALSE,TRUE,"""event"",""trial"",""time""
""fullscreenenter"",""5"",""18679""
","
","
","""event"",""trial"",""time""
""fullscreenenter"",""5"",""18679""
","
",475.0000000001164,NA,48,NA,NA,3000,1,NA,NA,images/earth.jpg,images/tutrocket2,images/tutrocket1,null,images/tutrocket2,NA,1,practice,null,2,NA,NA,NA,sub82
d3-animate-choice,101,516274,0.0-61.0-1.13,FALSE,FALSE,FALSE,TRUE,"""event"",""trial"",""time""
""fullscreenenter"",""5"",""18679""
","
","
","""event"",""trial"",""time""
""fullscreenenter"",""5"",""18679""
","
",743,NA,48,NA,NA,3000,1,NA,NA,images/tutgreenplanet.jpg,images/tutalien2,images/tutalien1,images/tutrocket2,images/tutalien2,images/nothing.png,2,practice,true,2,common,0,2020-06-16T17:47:16Z,sub82
two-step-fixation,102,517276,0.0-61.0-2.13,FALSE,FALSE,FALSE,TRUE,"""event"",""trial"",""time""
""fullscreenenter"",""5"",""18679""
","
","
","""event"",""trial"",""time""
""fullscreenenter"",""5"",""18679""
","
",NA,images/earth.jpg,NA,NA,NA,NA,NA,NA,NA,NA,NA,NA,NA,NA,NA,fixation,NA,NA,NA,NA,NA,NA,sub82
d3-animate-choice,103,519836,0.0-61.0-0.14,FALSE,FALSE,FALSE,TRUE,"""event"",""trial"",""time""
""fullscreenenter"",""5"",""18679""
","
","
","""event"",""trial"",""time""
""fullscreenenter"",""5"",""18679""
","
",557.9999999998836,NA,48,NA,NA,3000,1,NA,NA,images/earth.jpg,images/tutrocket2,images/tutrocket1,null,images/tutrocket2,NA,1,practice,null,2,NA,NA,NA,sub82
d3-animate-choice,104,522683,0.0-61.0-1.14,FALSE,FALSE,FALSE,TRUE,"""event"",""trial"",""time""
""fullscreenenter"",""5"",""18679""
","
","
","""event"",""trial"",""time""
""fullscreenenter"",""5"",""18679""
","
",846,NA,49,NA,NA,3000,1,NA,NA,images/tutgreenplanet.jpg,images/tutalien2,images/tutalien1,images/tutrocket2,images/tutalien1,images/nothing.png,2,practice,true,1,common,0,2020-06-16T17:47:22Z,sub82
two-step-fixation,105,523685,0.0-61.0-2.14,FALSE,FALSE,FALSE,TRUE,"""event"",""trial"",""time""
""fullscreenenter"",""5"",""18679""
","
","
","""event"",""trial"",""time""
""fullscreenenter"",""5"",""18679""
","
",NA,images/earth.jpg,NA,NA,NA,NA,NA,NA,NA,NA,NA,NA,NA,NA,NA,fixation,NA,NA,NA,NA,NA,NA,sub82
d3-animate-choice,106,526642,0.0-61.0-0.15,FALSE,FALSE,FALSE,TRUE,"""event"",""trial"",""time""
""fullscreenenter"",""5"",""18679""
","
","
","""event"",""trial"",""time""
""fullscreenenter"",""5"",""18679""
","
",955,NA,49,NA,NA,3000,1,NA,NA,images/earth.jpg,images/tutrocket2,images/tutrocket1,null,images/tutrocket1,NA,1,practice,null,1,NA,NA,NA,sub82
d3-animate-choice,107,529626,0.0-61.0-1.15,FALSE,FALSE,FALSE,TRUE,"""event"",""trial"",""time""
""fullscreenenter"",""5"",""18679""
","
","
","""event"",""trial"",""time""
""fullscreenenter"",""5"",""18679""
","
",981,NA,48,NA,NA,3000,1,NA,NA,images/tutgreenplanet.jpg,images/tutalien2,images/tutalien1,images/tutrocket1,images/tutalien2,images/t.png,2,practice,false,2,rare,1,2020-06-16T17:47:29Z,sub82
two-step-fixation,108,530628,0.0-61.0-2.15,FALSE,FALSE,FALSE,TRUE,"""event"",""trial"",""time""
""fullscreenenter"",""5"",""18679""
","
","
","""event"",""trial"",""time""
""fullscreenenter"",""5"",""18679""
","
",NA,images/earth.jpg,NA,NA,NA,NA,NA,NA,NA,NA,NA,NA,NA,NA,NA,fixation,NA,NA,NA,NA,NA,NA,sub82
d3-animate-choice,109,533837,0.0-61.0-0.16,FALSE,FALSE,FALSE,TRUE,"""event"",""trial"",""time""
""fullscreenenter"",""5"",""18679""
","
","
","""event"",""trial"",""time""
""fullscreenenter"",""5"",""18679""
","
",1207,NA,48,NA,NA,3000,1,NA,NA,images/earth.jpg,images/tutrocket2,images/tutrocket1,null,images/tutrocket2,NA,1,practice,null,2,NA,NA,NA,sub82
d3-animate-choice,110,537146,0.0-61.0-1.16,FALSE,FALSE,FALSE,TRUE,"""event"",""trial"",""time""
""fullscreenenter"",""5"",""18679""
","
","
","""event"",""trial"",""time""
""fullscreenenter"",""5"",""18679""
","
",1306,NA,48,NA,NA,3000,1,NA,NA,images/tutgreenplanet.jpg,images/tutalien2,images/tutalien1,images/tutrocket2,images/tutalien2,images/nothing.png,2,practice,true,2,common,0,2020-06-16T17:47:37Z,sub82
two-step-fixation,111,538148,0.0-61.0-2.16,FALSE,FALSE,FALSE,TRUE,"""event"",""trial"",""time""
""fullscreenenter"",""5"",""18679""
","
","
","""event"",""trial"",""time""
""fullscreenenter"",""5"",""18679""
","
",NA,images/earth.jpg,NA,NA,NA,NA,NA,NA,NA,NA,NA,NA,NA,NA,NA,fixation,NA,NA,NA,NA,NA,NA,sub82
d3-animate-choice,112,540925,0.0-61.0-0.17,FALSE,FALSE,FALSE,TRUE,"""event"",""trial"",""time""
""fullscreenenter"",""5"",""18679""
","
","
","""event"",""trial"",""time""
""fullscreenenter"",""5"",""18679""
","
",774,NA,48,NA,NA,3000,1,NA,NA,images/earth.jpg,images/tutrocket2,images/tutrocket1,null,images/tutrocket2,NA,1,practice,null,2,NA,NA,NA,sub82
d3-animate-choice,113,543479,0.0-61.0-1.17,FALSE,FALSE,FALSE,TRUE,"""event"",""trial"",""time""
""fullscreenenter"",""5"",""18679""
","
","
","""event"",""trial"",""time""
""fullscreenenter"",""5"",""18679""
","
",553,NA,49,NA,NA,3000,1,NA,NA,images/tutgreenplanet.jpg,images/tutalien2,images/tutalien1,images/tutrocket2,images/tutalien1,images/nothing.png,2,practice,true,1,common,0,2020-06-16T17:47:43Z,sub82
two-step-fixation,114,544481,0.0-61.0-2.17,FALSE,FALSE,FALSE,TRUE,"""event"",""trial"",""time""
""fullscreenenter"",""5"",""18679""
","
","
","""event"",""trial"",""time""
""fullscreenenter"",""5"",""18679""
","
",NA,images/earth.jpg,NA,NA,NA,NA,NA,NA,NA,NA,NA,NA,NA,NA,NA,fixation,NA,NA,NA,NA,NA,NA,sub82
d3-animate-choice,115,547451,0.0-61.0-0.18,FALSE,FALSE,FALSE,TRUE,"""event"",""trial"",""time""
""fullscreenenter"",""5"",""18679""
","
","
","""event"",""trial"",""time""
""fullscreenenter"",""5"",""18679""
","
",967,NA,49,NA,NA,3000,1,NA,NA,images/earth.jpg,images/tutrocket2,images/tutrocket1,null,images/tutrocket1,NA,1,practice,null,1,NA,NA,NA,sub82
d3-animate-choice,116,550965,0.0-61.0-1.18,FALSE,FALSE,FALSE,TRUE,"""event"",""trial"",""time""
""fullscreenenter"",""5"",""18679""
","
","
","""event"",""trial"",""time""
""fullscreenenter"",""5"",""18679""
","
",1512,NA,49,NA,NA,3000,1,NA,NA,images/tutyellowplanet.jpg,images/tutalien4,images/tutalien3,images/tutrocket1,images/tutalien3,images/t.png,2,practice,true,1,common,1,2020-06-16T17:47:50Z,sub82
two-step-fixation,117,551967,0.0-61.0-2.18,FALSE,FALSE,FALSE,TRUE,"""event"",""trial"",""time""
""fullscreenenter"",""5"",""18679""
","
","
","""event"",""trial"",""time""
""fullscreenenter"",""5"",""18679""
","
",NA,images/earth.jpg,NA,NA,NA,NA,NA,NA,NA,NA,NA,NA,NA,NA,NA,fixation,NA,NA,NA,NA,NA,NA,sub82
d3-animate-choice,118,554811,0.0-61.0-0.19,FALSE,FALSE,FALSE,TRUE,"""event"",""trial"",""time""
""fullscreenenter"",""5"",""18679""
","
","
","""event"",""trial"",""time""
""fullscreenenter"",""5"",""18679""
","
",841,NA,49,NA,NA,3000,1,NA,NA,images/earth.jpg,images/tutrocket2,images/tutrocket1,null,images/tutrocket1,NA,1,practice,null,1,NA,NA,NA,sub82
d3-animate-choice,119,557397,0.0-61.0-1.19,FALSE,FALSE,FALSE,TRUE,"""event"",""trial"",""time""
""fullscreenenter"",""5"",""18679""
","
","
","""event"",""trial"",""time""
""fullscreenenter"",""5"",""18679""
","
",583,NA,49,NA,NA,3000,1,NA,NA,images/tutyellowplanet.jpg,images/tutalien4,images/tutalien3,images/tutrocket1,images/tutalien3,images/t.png,2,practice,true,1,common,1,2020-06-16T17:47:57Z,sub82
two-step-fixation,120,558399,0.0-61.0-2.19,FALSE,FALSE,FALSE,TRUE,"""event"",""trial"",""time""
""fullscreenenter"",""5"",""18679""
","
","
","""event"",""trial"",""time""
""fullscreenenter"",""5"",""18679""
","
",NA,images/earth.jpg,NA,NA,NA,NA,NA,NA,NA,NA,NA,NA,NA,NA,NA,fixation,NA,NA,NA,NA,NA,NA,sub82
d3-instructions,121,564973,0.0-62.0,FALSE,FALSE,FALSE,TRUE,"""event"",""trial"",""time""
""fullscreenenter"",""5"",""18679""
","
","
","""event"",""trial"",""time""
""fullscreenenter"",""5"",""18679""
","
",NA,NA,NA,NA,NA,NA,NA,NA,NA,NA,NA,NA,NA,NA,NA,NA,NA,NA,NA,NA,NA,NA,sub82
audio-keyboard-response,122,569898,0.0-63.0,FALSE,FALSE,FALSE,TRUE,"""event"",""trial"",""time""
""fullscreenenter"",""5"",""18679""
","
","
","""event"",""trial"",""time""
""fullscreenenter"",""5"",""18679""
","
",4923,audio/instructions/treasure_feedback.wav,32,NA,NA,NA,NA,NA,NA,NA,NA,NA,NA,NA,NA,NA,NA,NA,NA,NA,NA,NA,sub82
d3-instructions,123,591057,0.0-64.0,FALSE,FALSE,FALSE,TRUE,"""event"",""trial"",""time""
""fullscreenenter"",""5"",""18679""
","
","
","""event"",""trial"",""time""
""fullscreenenter"",""5"",""18679""
","
",NA,NA,NA,NA,NA,NA,NA,NA,NA,NA,NA,NA,NA,NA,NA,NA,NA,NA,NA,NA,NA,NA,sub82
d3-instructions,124,604767,0.0-65.0,FALSE,FALSE,FALSE,TRUE,"""event"",""trial"",""time""
""fullscreenenter"",""5"",""18679""
","
","
","""event"",""trial"",""time""
""fullscreenenter"",""5"",""18679""
","
",NA,NA,NA,NA,NA,NA,NA,NA,NA,NA,NA,NA,NA,NA,NA,NA,NA,NA,NA,NA,NA,NA,sub82
d3-instructions,125,630000,0.0-66.0,FALSE,FALSE,FALSE,TRUE,"""event"",""trial"",""time""
""fullscreenenter"",""5"",""18679""
","
","
","""event"",""trial"",""time""
""fullscreenenter"",""5"",""18679""
","
",NA,NA,NA,NA,NA,NA,NA,NA,NA,NA,NA,NA,NA,NA,NA,NA,NA,NA,NA,NA,NA,NA,sub82
d3-instructions,126,662944,0.0-67.0,FALSE,FALSE,FALSE,TRUE,"""event"",""trial"",""time""
""fullscreenenter"",""5"",""18679""
","
","
","""event"",""trial"",""time""
""fullscreenenter"",""5"",""18679""
","
",NA,NA,NA,NA,NA,NA,NA,NA,NA,NA,NA,NA,NA,NA,NA,NA,NA,NA,NA,NA,NA,NA,sub82
d3-instructions,127,671174,0.0-68.0,FALSE,FALSE,FALSE,TRUE,"""event"",""trial"",""time""
""fullscreenenter"",""5"",""18679""
","
","
","""event"",""trial"",""time""
""fullscreenenter"",""5"",""18679""
","
",NA,NA,NA,NA,NA,NA,NA,NA,NA,NA,NA,NA,NA,NA,NA,NA,NA,NA,NA,NA,NA,NA,sub82
instructions-quiz,128,676193,0.0-69.0,FALSE,FALSE,FALSE,TRUE,"""event"",""trial"",""time""
""fullscreenenter"",""5"",""18679""
","
","
","""event"",""trial"",""time""
""fullscreenenter"",""5"",""18679""
","
",5016.999999999884,audio/quiz/Q1_Prompt.wav,NA,1,NA,NA,NA,NA,NA,NA,NA,NA,NA,NA,NA,NA,NA,NA,NA,NA,NA,NA,sub82
audio-keyboard-response,129,685362,0.0-70.0,FALSE,FALSE,FALSE,TRUE,"""event"",""trial"",""time""
""fullscreenenter"",""5"",""18679""
","
","
","""event"",""trial"",""time""
""fullscreenenter"",""5"",""18679""
","
",null,audio/quiz/Q1_Correct.wav,null,NA,NA,NA,NA,NA,NA,NA,NA,NA,NA,NA,NA,NA,NA,NA,NA,NA,NA,NA,sub82
instructions-quiz,130,694906,0.0-71.0,FALSE,FALSE,FALSE,TRUE,"""event"",""trial"",""time""
""fullscreenenter"",""5"",""18679""
","
","
","""event"",""trial"",""time""
""fullscreenenter"",""5"",""18679""
","
",9543,audio/quiz/Q2_Prompt.wav,NA,0,NA,NA,NA,NA,NA,NA,NA,NA,NA,NA,NA,NA,NA,NA,NA,NA,NA,NA,sub82
audio-keyboard-response,131,707775,0.0-72.0,FALSE,FALSE,FALSE,TRUE,"""event"",""trial"",""time""
""fullscreenenter"",""5"",""18679""
","
","
","""event"",""trial"",""time""
""fullscreenenter"",""5"",""18679""
","
",null,audio/quiz/Q2_Correct.wav,null,NA,NA,NA,NA,NA,NA,NA,NA,NA,NA,NA,NA,NA,NA,NA,NA,NA,NA,NA,sub82
instructions-quiz,132,712850,0.0-73.0,FALSE,FALSE,FALSE,TRUE,"""event"",""trial"",""time""
""fullscreenenter"",""5"",""18679""
","
","
","""event"",""trial"",""time""
""fullscreenenter"",""5"",""18679""
","
",5075,audio/quiz/Q3_Prompt.wav,NA,1,NA,NA,NA,NA,NA,NA,NA,NA,NA,NA,NA,NA,NA,NA,NA,NA,NA,NA,sub82
audio-keyboard-response,133,718648,0.0-74.0,FALSE,FALSE,FALSE,TRUE,"""event"",""trial"",""time""
""fullscreenenter"",""5"",""18679""
","
","
","""event"",""trial"",""time""
""fullscreenenter"",""5"",""18679""
","
",null,audio/quiz/Q3_Correct.wav,null,NA,NA,NA,NA,NA,NA,NA,NA,NA,NA,NA,NA,NA,NA,NA,NA,NA,NA,NA,sub82
d3-instructions,134,732913,0.0-75.0,FALSE,FALSE,FALSE,TRUE,"""event"",""trial"",""time""
""fullscreenenter"",""5"",""18679""
","
","
","""event"",""trial"",""time""
""fullscreenenter"",""5"",""18679""
","
",NA,NA,NA,NA,NA,NA,NA,NA,NA,NA,NA,NA,NA,NA,NA,NA,NA,NA,NA,NA,NA,NA,sub82
d3-animate-choice,135,736632,0.0-76.0-0.0,FALSE,FALSE,FALSE,TRUE,"""event"",""trial"",""time""
""fullscreenenter"",""5"",""18679""
","
","
","""event"",""trial"",""time""
""fullscreenenter"",""5"",""18679""
","
",1717,NA,48,NA,NA,3000,1,NA,NA,images/earth.jpg,images/rocket1,images/rocket2,null,images/rocket1,NA,1,real,null,2,NA,NA,NA,sub82
d3-animate-choice,136,739760,0.0-76.0-1.0,FALSE,FALSE,FALSE,TRUE,"""event"",""trial"",""time""
""fullscreenenter"",""5"",""18679""
","
","
","""event"",""trial"",""time""
""fullscreenenter"",""5"",""18679""
","
",1125,NA,49,NA,NA,3000,1,NA,NA,images/redplanet1.jpg,images/alien2,images/alien1,images/rocket1,images/alien1,images/t.png,2,real,false,1,rare,1,2020-06-16T17:50:59Z,sub82
two-step-fixation,137,740763,0.0-76.0-2.0,FALSE,FALSE,FALSE,TRUE,"""event"",""trial"",""time""
""fullscreenenter"",""5"",""18679""
","
","
","""event"",""trial"",""time""
""fullscreenenter"",""5"",""18679""
","
",NA,images/earth.jpg,NA,NA,NA,NA,NA,NA,NA,NA,NA,NA,NA,NA,NA,fixation,NA,NA,NA,NA,NA,NA,sub82
d3-animate-choice,138,743570,0.0-76.0-0.1,FALSE,FALSE,FALSE,TRUE,"""event"",""trial"",""time""
""fullscreenenter"",""5"",""18679""
","
","
","""event"",""trial"",""time""
""fullscreenenter"",""5"",""18679""
","
",804,NA,48,NA,NA,3000,1,NA,NA,images/earth.jpg,images/rocket1,images/rocket2,null,images/rocket1,NA,1,real,null,2,NA,NA,NA,sub82
d3-animate-choice,139,746062,0.0-76.0-1.1,FALSE,FALSE,FALSE,TRUE,"""event"",""trial"",""time""
""fullscreenenter"",""5"",""18679""
","
","
","""event"",""trial"",""time""
""fullscreenenter"",""5"",""18679""
","
",489,NA,49,NA,NA,3000,1,NA,NA,images/purpleplanet.jpg,images/alien4,images/alien3,images/rocket1,images/alien3,images/t.png,2,real,true,1,common,1,2020-06-16T17:51:06Z,sub82
two-step-fixation,140,747064,0.0-76.0-2.1,FALSE,FALSE,FALSE,TRUE,"""event"",""trial"",""time""
""fullscreenenter"",""5"",""18679""
","
","
","""event"",""trial"",""time""
""fullscreenenter"",""5"",""18679""
","
",NA,images/earth.jpg,NA,NA,NA,NA,NA,NA,NA,NA,NA,NA,NA,NA,NA,fixation,NA,NA,NA,NA,NA,NA,sub82
d3-animate-choice,141,749493,0.0-76.0-0.2,FALSE,FALSE,FALSE,TRUE,"""event"",""trial"",""time""
""fullscreenenter"",""5"",""18679""
","
","
","""event"",""trial"",""time""
""fullscreenenter"",""5"",""18679""
","
",426,NA,48,NA,NA,3000,1,NA,NA,images/earth.jpg,images/rocket1,images/rocket2,null,images/rocket1,NA,1,real,null,2,NA,NA,NA,sub82
d3-animate-choice,142,752090,0.0-76.0-1.2,FALSE,FALSE,FALSE,TRUE,"""event"",""trial"",""time""
""fullscreenenter"",""5"",""18679""
","
","
","""event"",""trial"",""time""
""fullscreenenter"",""5"",""18679""
","
",595,NA,49,NA,NA,3000,1,NA,NA,images/purpleplanet.jpg,images/alien4,images/alien3,images/rocket1,images/alien3,images/nothing.png,2,real,true,1,common,0,2020-06-16T17:51:12Z,sub82
two-step-fixation,143,753092,0.0-76.0-2.2,FALSE,FALSE,FALSE,TRUE,"""event"",""trial"",""time""
""fullscreenenter"",""5"",""18679""
","
","
","""event"",""trial"",""time""
""fullscreenenter"",""5"",""18679""
","
",NA,images/earth.jpg,NA,NA,NA,NA,NA,NA,NA,NA,NA,NA,NA,NA,NA,fixation,NA,NA,NA,NA,NA,NA,sub82
d3-animate-choice,144,755486,0.0-76.0-0.3,FALSE,FALSE,FALSE,TRUE,"""event"",""trial"",""time""
""fullscreenenter"",""5"",""18679""
","
","
","""event"",""trial"",""time""
""fullscreenenter"",""5"",""18679""
","
",392.0000000001164,NA,48,NA,NA,3000,1,NA,NA,images/earth.jpg,images/rocket1,images/rocket2,null,images/rocket1,NA,1,real,null,2,NA,NA,NA,sub82
d3-animate-choice,145,758238,0.0-76.0-1.3,FALSE,FALSE,FALSE,TRUE,"""event"",""trial"",""time""
""fullscreenenter"",""5"",""18679""
","
","
","""event"",""trial"",""time""
""fullscreenenter"",""5"",""18679""
","
",749,NA,48,NA,NA,3000,1,NA,NA,images/purpleplanet.jpg,images/alien4,images/alien3,images/rocket1,images/alien4,images/t.png,2,real,true,2,common,1,2020-06-16T17:51:18Z,sub82
two-step-fixation,146,759240,0.0-76.0-2.3,FALSE,FALSE,FALSE,TRUE,"""event"",""trial"",""time""
""fullscreenenter"",""5"",""18679""
","
","
","""event"",""trial"",""time""
""fullscreenenter"",""5"",""18679""
","
",NA,images/earth.jpg,NA,NA,NA,NA,NA,NA,NA,NA,NA,NA,NA,NA,NA,fixation,NA,NA,NA,NA,NA,NA,sub82
d3-animate-choice,147,762930,0.0-76.0-0.4,FALSE,FALSE,FALSE,TRUE,"""event"",""trial"",""time""
""fullscreenenter"",""5"",""18679""
","
","
","""event"",""trial"",""time""
""fullscreenenter"",""5"",""18679""
","
",1687.0000000001164,NA,49,NA,NA,3000,1,NA,NA,images/earth.jpg,images/rocket1,images/rocket2,null,images/rocket2,NA,1,real,null,1,NA,NA,NA,sub82
d3-animate-choice,148,765702,0.0-76.0-1.4,FALSE,FALSE,FALSE,TRUE,"""event"",""trial"",""time""
""fullscreenenter"",""5"",""18679""
","
","
","""event"",""trial"",""time""
""fullscreenenter"",""5"",""18679""
","
",770,NA,48,NA,NA,3000,1,NA,NA,images/redplanet1.jpg,images/alien2,images/alien1,images/rocket2,images/alien2,images/t.png,2,real,true,2,common,1,2020-06-16T17:51:25Z,sub82
two-step-fixation,149,766703,0.0-76.0-2.4,FALSE,FALSE,FALSE,TRUE,"""event"",""trial"",""time""
""fullscreenenter"",""5"",""18679""
","
","
","""event"",""trial"",""time""
""fullscreenenter"",""5"",""18679""
","
",NA,images/earth.jpg,NA,NA,NA,NA,NA,NA,NA,NA,NA,NA,NA,NA,NA,fixation,NA,NA,NA,NA,NA,NA,sub82
d3-animate-choice,150,769237,0.0-76.0-0.5,FALSE,FALSE,FALSE,TRUE,"""event"",""trial"",""time""
""fullscreenenter"",""5"",""18679""
","
","
","""event"",""trial"",""time""
""fullscreenenter"",""5"",""18679""
","
",530,NA,49,NA,NA,3000,1,NA,NA,images/earth.jpg,images/rocket1,images/rocket2,null,images/rocket2,NA,1,real,null,1,NA,NA,NA,sub82
d3-animate-choice,151,772292,0.0-76.0-1.5,FALSE,FALSE,FALSE,TRUE,"""event"",""trial"",""time""
""fullscreenenter"",""5"",""18679""
","
","
","""event"",""trial"",""time""
""fullscreenenter"",""5"",""18679""
","
",1053,NA,48,NA,NA,3000,1,NA,NA,images/purpleplanet.jpg,images/alien4,images/alien3,images/rocket2,images/alien4,images/t.png,2,real,false,2,rare,1,2020-06-16T17:51:32Z,sub82
two-step-fixation,152,773294,0.0-76.0-2.5,FALSE,FALSE,FALSE,TRUE,"""event"",""trial"",""time""
""fullscreenenter"",""5"",""18679""
","
","
","""event"",""trial"",""time""
""fullscreenenter"",""5"",""18679""
","
",NA,images/earth.jpg,NA,NA,NA,NA,NA,NA,NA,NA,NA,NA,NA,NA,NA,fixation,NA,NA,NA,NA,NA,NA,sub82
d3-animate-choice,153,775887,0.0-76.0-0.6,FALSE,FALSE,FALSE,TRUE,"""event"",""trial"",""time""
""fullscreenenter"",""5"",""18679""
","
","
","""event"",""trial"",""time""
""fullscreenenter"",""5"",""18679""
","
",590,NA,49,NA,NA,3000,1,NA,NA,images/earth.jpg,images/rocket1,images/rocket2,null,images/rocket2,NA,1,real,null,1,NA,NA,NA,sub82
d3-animate-choice,154,778703,0.0-76.0-1.6,FALSE,FALSE,FALSE,TRUE,"""event"",""trial"",""time""
""fullscreenenter"",""5"",""18679""
","
","
","""event"",""trial"",""time""
""fullscreenenter"",""5"",""18679""
","
",813,NA,48,NA,NA,3000,1,NA,NA,images/redplanet1.jpg,images/alien2,images/alien1,images/rocket2,images/alien2,images/t.png,2,real,true,2,common,1,2020-06-16T17:51:38Z,sub82
two-step-fixation,155,779704,0.0-76.0-2.6,FALSE,FALSE,FALSE,TRUE,"""event"",""trial"",""time""
""fullscreenenter"",""5"",""18679""
","
","
","""event"",""trial"",""time""
""fullscreenenter"",""5"",""18679""
","
",NA,images/earth.jpg,NA,NA,NA,NA,NA,NA,NA,NA,NA,NA,NA,NA,NA,fixation,NA,NA,NA,NA,NA,NA,sub82
d3-animate-choice,156,782066,0.0-76.0-0.7,FALSE,FALSE,FALSE,TRUE,"""event"",""trial"",""time""
""fullscreenenter"",""5"",""18679""
","
","
","""event"",""trial"",""time""
""fullscreenenter"",""5"",""18679""
","
",359,NA,48,NA,NA,3000,1,NA,NA,images/earth.jpg,images/rocket1,images/rocket2,null,images/rocket1,NA,1,real,null,2,NA,NA,NA,sub82
d3-animate-choice,157,784580,0.0-76.0-1.7,FALSE,FALSE,FALSE,TRUE,"""event"",""trial"",""time""
""fullscreenenter"",""5"",""18679""
","
","
","""event"",""trial"",""time""
""fullscreenenter"",""5"",""18679""
","
",511,NA,48,NA,NA,3000,1,NA,NA,images/purpleplanet.jpg,images/alien4,images/alien3,images/rocket1,images/alien4,images/t.png,2,real,true,2,common,1,2020-06-16T17:51:44Z,sub82
two-step-fixation,158,785582,0.0-76.0-2.7,FALSE,FALSE,FALSE,TRUE,"""event"",""trial"",""time""
""fullscreenenter"",""5"",""18679""
","
","
","""event"",""trial"",""time""
""fullscreenenter"",""5"",""18679""
","
",NA,images/earth.jpg,NA,NA,NA,NA,NA,NA,NA,NA,NA,NA,NA,NA,NA,fixation,NA,NA,NA,NA,NA,NA,sub82
d3-animate-choice,159,788124,0.0-76.0-0.8,FALSE,FALSE,FALSE,TRUE,"""event"",""trial"",""time""
""fullscreenenter"",""5"",""18679""
","
","
","""event"",""trial"",""time""
""fullscreenenter"",""5"",""18679""
","
",538.9999999998836,NA,48,NA,NA,3000,1,NA,NA,images/earth.jpg,images/rocket1,images/rocket2,null,images/rocket1,NA,1,real,null,2,NA,NA,NA,sub82
d3-animate-choice,160,790818,0.0-76.0-1.8,FALSE,FALSE,FALSE,TRUE,"""event"",""trial"",""time""
""fullscreenenter"",""5"",""18679""
","
","
","""event"",""trial"",""time""
""fullscreenenter"",""5"",""18679""
","
",692,NA,48,NA,NA,3000,1,NA,NA,images/purpleplanet.jpg,images/alien4,images/alien3,images/rocket1,images/alien4,images/t.png,2,real,true,2,common,1,2020-06-16T17:51:50Z,sub82
two-step-fixation,161,791819,0.0-76.0-2.8,FALSE,FALSE,FALSE,TRUE,"""event"",""trial"",""time""
""fullscreenenter"",""5"",""18679""
","
","
","""event"",""trial"",""time""
""fullscreenenter"",""5"",""18679""
","
",NA,images/earth.jpg,NA,NA,NA,NA,NA,NA,NA,NA,NA,NA,NA,NA,NA,fixation,NA,NA,NA,NA,NA,NA,sub82
d3-animate-choice,162,794144,0.0-76.0-0.9,FALSE,FALSE,FALSE,TRUE,"""event"",""trial"",""time""
""fullscreenenter"",""5"",""18679""
","
","
","""event"",""trial"",""time""
""fullscreenenter"",""5"",""18679""
","
",322,NA,48,NA,NA,3000,1,NA,NA,images/earth.jpg,images/rocket1,images/rocket2,null,images/rocket1,NA,1,real,null,2,NA,NA,NA,sub82
d3-animate-choice,163,796841,0.0-76.0-1.9,FALSE,FALSE,FALSE,TRUE,"""event"",""trial"",""time""
""fullscreenenter"",""5"",""18679""
","
","
","""event"",""trial"",""time""
""fullscreenenter"",""5"",""18679""
","
",694,NA,48,NA,NA,3000,1,NA,NA,images/purpleplanet.jpg,images/alien4,images/alien3,images/rocket1,images/alien4,images/t.png,2,real,true,2,common,1,2020-06-16T17:51:56Z,sub82
two-step-fixation,164,797842,0.0-76.0-2.9,FALSE,FALSE,FALSE,TRUE,"""event"",""trial"",""time""
""fullscreenenter"",""5"",""18679""
","
","
","""event"",""trial"",""time""
""fullscreenenter"",""5"",""18679""
","
",NA,images/earth.jpg,NA,NA,NA,NA,NA,NA,NA,NA,NA,NA,NA,NA,NA,fixation,NA,NA,NA,NA,NA,NA,sub82
d3-animate-choice,165,800184,0.0-76.0-0.10,FALSE,FALSE,FALSE,TRUE,"""event"",""trial"",""time""
""fullscreenenter"",""5"",""18679""
","
","
","""event"",""trial"",""time""
""fullscreenenter"",""5"",""18679""
","
",339,NA,48,NA,NA,3000,1,NA,NA,images/earth.jpg,images/rocket1,images/rocket2,null,images/rocket1,NA,1,real,null,2,NA,NA,NA,sub82
d3-animate-choice,166,802761,0.0-76.0-1.10,FALSE,FALSE,FALSE,TRUE,"""event"",""trial"",""time""
""fullscreenenter"",""5"",""18679""
","
","
","""event"",""trial"",""time""
""fullscreenenter"",""5"",""18679""
","
",574,NA,48,NA,NA,3000,1,NA,NA,images/redplanet1.jpg,images/alien2,images/alien1,images/rocket1,images/alien2,images/nothing.png,2,real,false,2,rare,0,2020-06-16T17:52:02Z,sub82
two-step-fixation,167,803762,0.0-76.0-2.10,FALSE,FALSE,FALSE,TRUE,"""event"",""trial"",""time""
""fullscreenenter"",""5"",""18679""
","
","
","""event"",""trial"",""time""
""fullscreenenter"",""5"",""18679""
","
",NA,images/earth.jpg,NA,NA,NA,NA,NA,NA,NA,NA,NA,NA,NA,NA,NA,fixation,NA,NA,NA,NA,NA,NA,sub82
d3-animate-choice,168,805887,0.0-76.0-0.11,FALSE,FALSE,FALSE,TRUE,"""event"",""trial"",""time""
""fullscreenenter"",""5"",""18679""
","
","
","""event"",""trial"",""time""
""fullscreenenter"",""5"",""18679""
","
",122,NA,48,NA,NA,3000,1,NA,NA,images/earth.jpg,images/rocket1,images/rocket2,null,images/rocket1,NA,1,real,null,2,NA,NA,NA,sub82
d3-animate-choice,169,808484,0.0-76.0-1.11,FALSE,FALSE,FALSE,TRUE,"""event"",""trial"",""time""
""fullscreenenter"",""5"",""18679""
","
","
","""event"",""trial"",""time""
""fullscreenenter"",""5"",""18679""
","
",595,NA,49,NA,NA,3000,1,NA,NA,images/redplanet1.jpg,images/alien2,images/alien1,images/rocket1,images/alien1,images/nothing.png,2,real,false,1,rare,0,2020-06-16T17:52:08Z,sub82
two-step-fixation,170,809487,0.0-76.0-2.11,FALSE,FALSE,FALSE,TRUE,"""event"",""trial"",""time""
""fullscreenenter"",""5"",""18679""
","
","
","""event"",""trial"",""time""
""fullscreenenter"",""5"",""18679""
","
",NA,images/earth.jpg,NA,NA,NA,NA,NA,NA,NA,NA,NA,NA,NA,NA,NA,fixation,NA,NA,NA,NA,NA,NA,sub82
d3-animate-choice,171,812487,0.0-76.0-0.12,FALSE,FALSE,FALSE,TRUE,"""event"",""trial"",""time""
""fullscreenenter"",""5"",""18679""
","
","
","""event"",""trial"",""time""
""fullscreenenter"",""5"",""18679""
","
",997,NA,48,NA,NA,3000,1,NA,NA,images/earth.jpg,images/rocket1,images/rocket2,null,images/rocket1,NA,1,real,null,2,NA,NA,NA,sub82
d3-animate-choice,172,815074,0.0-76.0-1.12,FALSE,FALSE,FALSE,TRUE,"""event"",""trial"",""time""
""fullscreenenter"",""5"",""18679""
","
","
","""event"",""trial"",""time""
""fullscreenenter"",""5"",""18679""
","
",584,NA,48,NA,NA,3000,1,NA,NA,images/purpleplanet.jpg,images/alien4,images/alien3,images/rocket1,images/alien4,images/t.png,2,real,true,2,common,1,2020-06-16T17:52:15Z,sub82
two-step-fixation,173,816076,0.0-76.0-2.12,FALSE,FALSE,FALSE,TRUE,"""event"",""trial"",""time""
""fullscreenenter"",""5"",""18679""
","
","
","""event"",""trial"",""time""
""fullscreenenter"",""5"",""18679""
","
",NA,images/earth.jpg,NA,NA,NA,NA,NA,NA,NA,NA,NA,NA,NA,NA,NA,fixation,NA,NA,NA,NA,NA,NA,sub82
d3-animate-choice,174,818428,0.0-76.0-0.13,FALSE,FALSE,FALSE,TRUE,"""event"",""trial"",""time""
""fullscreenenter"",""5"",""18679""
","
","
","""event"",""trial"",""time""
""fullscreenenter"",""5"",""18679""
","
",349,NA,48,NA,NA,3000,1,NA,NA,images/earth.jpg,images/rocket1,images/rocket2,null,images/rocket1,NA,1,real,null,2,NA,NA,NA,sub82
d3-animate-choice,175,821362,0.0-76.0-1.13,FALSE,FALSE,FALSE,TRUE,"""event"",""trial"",""time""
""fullscreenenter"",""5"",""18679""
","
","
","""event"",""trial"",""time""
""fullscreenenter"",""5"",""18679""
","
",933,NA,49,NA,NA,3000,1,NA,NA,images/redplanet1.jpg,images/alien2,images/alien1,images/rocket1,images/alien1,images/nothing.png,2,real,false,1,rare,0,2020-06-16T17:52:21Z,sub82
two-step-fixation,176,822363,0.0-76.0-2.13,FALSE,FALSE,FALSE,TRUE,"""event"",""trial"",""time""
""fullscreenenter"",""5"",""18679""
","
","
","""event"",""trial"",""time""
""fullscreenenter"",""5"",""18679""
","
",NA,images/earth.jpg,NA,NA,NA,NA,NA,NA,NA,NA,NA,NA,NA,NA,NA,fixation,NA,NA,NA,NA,NA,NA,sub82
d3-animate-choice,177,824897,0.0-76.0-0.14,FALSE,FALSE,FALSE,TRUE,"""event"",""trial"",""time""
""fullscreenenter"",""5"",""18679""
","
","
","""event"",""trial"",""time""
""fullscreenenter"",""5"",""18679""
","
",532,NA,48,NA,NA,3000,1,NA,NA,images/earth.jpg,images/rocket1,images/rocket2,null,images/rocket1,NA,1,real,null,2,NA,NA,NA,sub82
d3-animate-choice,178,827557,0.0-76.0-1.14,FALSE,FALSE,FALSE,TRUE,"""event"",""trial"",""time""
""fullscreenenter"",""5"",""18679""
","
","
","""event"",""trial"",""time""
""fullscreenenter"",""5"",""18679""
","
",657,NA,48,NA,NA,3000,1,NA,NA,images/purpleplanet.jpg,images/alien4,images/alien3,images/rocket1,images/alien4,images/t.png,2,real,true,2,common,1,2020-06-16T17:52:27Z,sub82
two-step-fixation,179,828560,0.0-76.0-2.14,FALSE,FALSE,FALSE,TRUE,"""event"",""trial"",""time""
""fullscreenenter"",""5"",""18679""
","
","
","""event"",""trial"",""time""
""fullscreenenter"",""5"",""18679""
","
",NA,images/earth.jpg,NA,NA,NA,NA,NA,NA,NA,NA,NA,NA,NA,NA,NA,fixation,NA,NA,NA,NA,NA,NA,sub82
d3-animate-choice,180,831088,0.0-76.0-0.15,FALSE,FALSE,FALSE,TRUE,"""event"",""trial"",""time""
""fullscreenenter"",""5"",""18679""
","
","
","""event"",""trial"",""time""
""fullscreenenter"",""5"",""18679""
","
",525,NA,48,NA,NA,3000,1,NA,NA,images/earth.jpg,images/rocket1,images/rocket2,null,images/rocket1,NA,1,real,null,2,NA,NA,NA,sub82
d3-animate-choice,181,833801,0.0-76.0-1.15,FALSE,FALSE,FALSE,TRUE,"""event"",""trial"",""time""
""fullscreenenter"",""5"",""18679""
","
","
","""event"",""trial"",""time""
""fullscreenenter"",""5"",""18679""
","
",709.9999999998836,NA,48,NA,NA,3000,1,NA,NA,images/purpleplanet.jpg,images/alien4,images/alien3,images/rocket1,images/alien4,images/nothing.png,2,real,true,2,common,0,2020-06-16T17:52:33Z,sub82
two-step-fixation,182,834804,0.0-76.0-2.15,FALSE,FALSE,FALSE,TRUE,"""event"",""trial"",""time""
""fullscreenenter"",""5"",""18679""
","
","
","""event"",""trial"",""time""
""fullscreenenter"",""5"",""18679""
","
",NA,images/earth.jpg,NA,NA,NA,NA,NA,NA,NA,NA,NA,NA,NA,NA,NA,fixation,NA,NA,NA,NA,NA,NA,sub82
d3-animate-choice,183,837473,0.0-76.0-0.16,FALSE,FALSE,FALSE,TRUE,"""event"",""trial"",""time""
""fullscreenenter"",""5"",""18679""
","
","
","""event"",""trial"",""time""
""fullscreenenter"",""5"",""18679""
","
",666.9999999998836,NA,49,NA,NA,3000,1,953.9999999998836,49,images/earth.jpg,images/rocket1,images/rocket2,null,images/rocket2,NA,1,real,null,1,NA,NA,NA,sub82
d3-animate-choice,184,840831,0.0-76.0-1.16,FALSE,FALSE,FALSE,TRUE,"""event"",""trial"",""time""
""fullscreenenter"",""5"",""18679""
","
","
","""event"",""trial"",""time""
""fullscreenenter"",""5"",""18679""
","
",1355.0000000001164,NA,48,NA,NA,3000,1,NA,NA,images/redplanet1.jpg,images/alien2,images/alien1,images/rocket2,images/alien2,images/nothing.png,2,real,true,2,common,0,2020-06-16T17:52:40Z,sub82
two-step-fixation,185,841832,0.0-76.0-2.16,FALSE,FALSE,FALSE,TRUE,"""event"",""trial"",""time""
""fullscreenenter"",""5"",""18679""
","
","
","""event"",""trial"",""time""
""fullscreenenter"",""5"",""18679""
","
",NA,images/earth.jpg,NA,NA,NA,NA,NA,NA,NA,NA,NA,NA,NA,NA,NA,fixation,NA,NA,NA,NA,NA,NA,sub82
d3-animate-choice,186,844272,0.0-76.0-0.17,FALSE,FALSE,FALSE,TRUE,"""event"",""trial"",""time""
""fullscreenenter"",""5"",""18679""
","
","
","""event"",""trial"",""time""
""fullscreenenter"",""5"",""18679""
","
",438,NA,49,NA,NA,3000,1,NA,NA,images/earth.jpg,images/rocket1,images/rocket2,null,images/rocket2,NA,1,real,null,1,NA,NA,NA,sub82
d3-animate-choice,187,847264,0.0-76.0-1.17,FALSE,FALSE,FALSE,TRUE,"""event"",""trial"",""time""
""fullscreenenter"",""5"",""18679""
","
","
","""event"",""trial"",""time""
""fullscreenenter"",""5"",""18679""
","
",989.0000000001164,NA,49,NA,NA,3000,1,NA,NA,images/redplanet1.jpg,images/alien2,images/alien1,images/rocket2,images/alien1,images/t.png,2,real,true,1,common,1,2020-06-16T17:52:47Z,sub82
two-step-fixation,188,848266,0.0-76.0-2.17,FALSE,FALSE,FALSE,TRUE,"""event"",""trial"",""time""
""fullscreenenter"",""5"",""18679""
","
","
","""event"",""trial"",""time""
""fullscreenenter"",""5"",""18679""
","
",NA,images/earth.jpg,NA,NA,NA,NA,NA,NA,NA,NA,NA,NA,NA,NA,NA,fixation,NA,NA,NA,NA,NA,NA,sub82
d3-animate-choice,189,850775,0.0-76.0-0.18,FALSE,FALSE,FALSE,TRUE,"""event"",""trial"",""time""
""fullscreenenter"",""5"",""18679""
","
","
","""event"",""trial"",""time""
""fullscreenenter"",""5"",""18679""
","
",506,NA,49,NA,NA,3000,1,NA,NA,images/earth.jpg,images/rocket1,images/rocket2,null,images/rocket2,NA,1,real,null,1,NA,NA,NA,sub82
d3-animate-choice,190,854227,0.0-76.0-1.18,FALSE,FALSE,FALSE,TRUE,"""event"",""trial"",""time""
""fullscreenenter"",""5"",""18679""
","
","
","""event"",""trial"",""time""
""fullscreenenter"",""5"",""18679""
","
",1448.9999999998836,NA,49,NA,NA,3000,1,NA,NA,images/purpleplanet.jpg,images/alien4,images/alien3,images/rocket2,images/alien3,images/nothing.png,2,real,false,1,rare,0,2020-06-16T17:52:54Z,sub82
two-step-fixation,191,855229,0.0-76.0-2.18,FALSE,FALSE,FALSE,TRUE,"""event"",""trial"",""time""
""fullscreenenter"",""5"",""18679""
","
","
","""event"",""trial"",""time""
""fullscreenenter"",""5"",""18679""
","
",NA,images/earth.jpg,NA,NA,NA,NA,NA,NA,NA,NA,NA,NA,NA,NA,NA,fixation,NA,NA,NA,NA,NA,NA,sub82
d3-animate-choice,192,857580,0.0-76.0-0.19,FALSE,FALSE,FALSE,TRUE,"""event"",""trial"",""time""
""fullscreenenter"",""5"",""18679""
","
","
","""event"",""trial"",""time""
""fullscreenenter"",""5"",""18679""
","
",349.0000000001164,NA,49,NA,NA,3000,1,NA,NA,images/earth.jpg,images/rocket1,images/rocket2,null,images/rocket2,NA,1,real,null,1,NA,NA,NA,sub82
d3-animate-choice,193,860287,0.0-76.0-1.19,FALSE,FALSE,FALSE,TRUE,"""event"",""trial"",""time""
""fullscreenenter"",""5"",""18679""
","
","
","""event"",""trial"",""time""
""fullscreenenter"",""5"",""18679""
","
",704,NA,49,NA,NA,3000,1,NA,NA,images/purpleplanet.jpg,images/alien4,images/alien3,images/rocket2,images/alien3,images/nothing.png,2,real,false,1,rare,0,2020-06-16T17:53:00Z,sub82
two-step-fixation,194,861289,0.0-76.0-2.19,FALSE,FALSE,FALSE,TRUE,"""event"",""trial"",""time""
""fullscreenenter"",""5"",""18679""
","
","
","""event"",""trial"",""time""
""fullscreenenter"",""5"",""18679""
","
",NA,images/earth.jpg,NA,NA,NA,NA,NA,NA,NA,NA,NA,NA,NA,NA,NA,fixation,NA,NA,NA,NA,NA,NA,sub82
d3-animate-choice,195,863669,0.0-76.0-0.20,FALSE,FALSE,FALSE,TRUE,"""event"",""trial"",""time""
""fullscreenenter"",""5"",""18679""
","
","
","""event"",""trial"",""time""
""fullscreenenter"",""5"",""18679""
","
",376.0000000001164,NA,49,NA,NA,3000,1,NA,NA,images/earth.jpg,images/rocket1,images/rocket2,null,images/rocket2,NA,1,real,null,1,NA,NA,NA,sub82
d3-animate-choice,196,866707,0.0-76.0-1.20,FALSE,FALSE,FALSE,TRUE,"""event"",""trial"",""time""
""fullscreenenter"",""5"",""18679""
","
","
","""event"",""trial"",""time""
""fullscreenenter"",""5"",""18679""
","
",1036,NA,48,NA,NA,3000,1,NA,NA,images/purpleplanet.jpg,images/alien4,images/alien3,images/rocket2,images/alien4,images/nothing.png,2,real,false,2,rare,0,2020-06-16T17:53:06Z,sub82
two-step-fixation,197,867709,0.0-76.0-2.20,FALSE,FALSE,FALSE,TRUE,"""event"",""trial"",""time""
""fullscreenenter"",""5"",""18679""
","
","
","""event"",""trial"",""time""
""fullscreenenter"",""5"",""18679""
","
",NA,images/earth.jpg,NA,NA,NA,NA,NA,NA,NA,NA,NA,NA,NA,NA,NA,fixation,NA,NA,NA,NA,NA,NA,sub82
d3-animate-choice,198,870549,0.0-76.0-0.21,FALSE,FALSE,FALSE,TRUE,"""event"",""trial"",""time""
""fullscreenenter"",""5"",""18679""
","
","
","""event"",""trial"",""time""
""fullscreenenter"",""5"",""18679""
","
",836,NA,48,NA,NA,3000,1,NA,NA,images/earth.jpg,images/rocket1,images/rocket2,null,images/rocket1,NA,1,real,null,2,NA,NA,NA,sub82
d3-animate-choice,199,873508,0.0-76.0-1.21,FALSE,FALSE,FALSE,TRUE,"""event"",""trial"",""time""
""fullscreenenter"",""5"",""18679""
","
","
","""event"",""trial"",""time""
""fullscreenenter"",""5"",""18679""
","
",957,NA,48,NA,NA,3000,1,NA,NA,images/purpleplanet.jpg,images/alien4,images/alien3,images/rocket1,images/alien4,images/t.png,2,real,true,2,common,1,2020-06-16T17:53:13Z,sub82
two-step-fixation,200,874511,0.0-76.0-2.21,FALSE,FALSE,FALSE,TRUE,"""event"",""trial"",""time""
""fullscreenenter"",""5"",""18679""
","
","
","""event"",""trial"",""time""
""fullscreenenter"",""5"",""18679""
","
",NA,images/earth.jpg,NA,NA,NA,NA,NA,NA,NA,NA,NA,NA,NA,NA,NA,fixation,NA,NA,NA,NA,NA,NA,sub82
d3-animate-choice,201,877332,0.0-76.0-0.22,FALSE,FALSE,FALSE,TRUE,"""event"",""trial"",""time""
""fullscreenenter"",""5"",""18679""
","
","
","""event"",""trial"",""time""
""fullscreenenter"",""5"",""18679""
","
",818.0000000001164,NA,48,NA,NA,3000,1,NA,NA,images/earth.jpg,images/rocket1,images/rocket2,null,images/rocket1,NA,1,real,null,2,NA,NA,NA,sub82
d3-animate-choice,202,880820,0.0-76.0-1.22,FALSE,FALSE,FALSE,TRUE,"""event"",""trial"",""time""
""fullscreenenter"",""5"",""18679""
","
","
","""event"",""trial"",""time""
""fullscreenenter"",""5"",""18679""
","
",1485,NA,49,NA,NA,3000,1,NA,NA,images/redplanet1.jpg,images/alien2,images/alien1,images/rocket1,images/alien1,images/nothing.png,2,real,false,1,rare,0,2020-06-16T17:53:20Z,sub82
two-step-fixation,203,881822,0.0-76.0-2.22,FALSE,FALSE,FALSE,TRUE,"""event"",""trial"",""time""
""fullscreenenter"",""5"",""18679""
","
","
","""event"",""trial"",""time""
""fullscreenenter"",""5"",""18679""
","
",NA,images/earth.jpg,NA,NA,NA,NA,NA,NA,NA,NA,NA,NA,NA,NA,NA,fixation,NA,NA,NA,NA,NA,NA,sub82
d3-animate-choice,204,884182,0.0-76.0-0.23,FALSE,FALSE,FALSE,TRUE,"""event"",""trial"",""time""
""fullscreenenter"",""5"",""18679""
","
","
","""event"",""trial"",""time""
""fullscreenenter"",""5"",""18679""
","
",358.0000000001164,NA,48,NA,NA,3000,1,NA,NA,images/earth.jpg,images/rocket1,images/rocket2,null,images/rocket1,NA,1,real,null,2,NA,NA,NA,sub82
d3-animate-choice,205,887083,0.0-76.0-1.23,FALSE,FALSE,FALSE,TRUE,"""event"",""trial"",""time""
""fullscreenenter"",""5"",""18679""
","
","
","""event"",""trial"",""time""
""fullscreenenter"",""5"",""18679""
","
",898,NA,48,NA,NA,3000,1,NA,NA,images/purpleplanet.jpg,images/alien4,images/alien3,images/rocket1,images/alien4,images/nothing.png,2,real,true,2,common,0,2020-06-16T17:53:27Z,sub82
two-step-fixation,206,888086,0.0-76.0-2.23,FALSE,FALSE,FALSE,TRUE,"""event"",""trial"",""time""
""fullscreenenter"",""5"",""18679""
","
","
","""event"",""trial"",""time""
""fullscreenenter"",""5"",""18679""
","
",NA,images/earth.jpg,NA,NA,NA,NA,NA,NA,NA,NA,NA,NA,NA,NA,NA,fixation,NA,NA,NA,NA,NA,NA,sub82
d3-animate-choice,207,890689,0.0-76.0-0.24,FALSE,FALSE,FALSE,TRUE,"""event"",""trial"",""time""
""fullscreenenter"",""5"",""18679""
","
","
","""event"",""trial"",""time""
""fullscreenenter"",""5"",""18679""
","
",600,NA,49,NA,NA,3000,1,NA,NA,images/earth.jpg,images/rocket1,images/rocket2,null,images/rocket2,NA,1,real,null,1,NA,NA,NA,sub82
d3-animate-choice,208,894278,0.0-76.0-1.24,FALSE,FALSE,FALSE,TRUE,"""event"",""trial"",""time""
""fullscreenenter"",""5"",""18679""
","
","
","""event"",""trial"",""time""
""fullscreenenter"",""5"",""18679""
","
",1586,NA,49,NA,NA,3000,1,NA,NA,images/purpleplanet.jpg,images/alien4,images/alien3,images/rocket2,images/alien3,images/nothing.png,2,real,false,1,rare,0,2020-06-16T17:53:34Z,sub82
two-step-fixation,209,895279,0.0-76.0-2.24,FALSE,FALSE,FALSE,TRUE,"""event"",""trial"",""time""
""fullscreenenter"",""5"",""18679""
","
","
","""event"",""trial"",""time""
""fullscreenenter"",""5"",""18679""
","
",NA,images/earth.jpg,NA,NA,NA,NA,NA,NA,NA,NA,NA,NA,NA,NA,NA,fixation,NA,NA,NA,NA,NA,NA,sub82
d3-animate-choice,210,897738,0.0-76.0-0.25,FALSE,FALSE,FALSE,TRUE,"""event"",""trial"",""time""
""fullscreenenter"",""5"",""18679""
","
","
","""event"",""trial"",""time""
""fullscreenenter"",""5"",""18679""
","
",458,NA,48,NA,NA,3000,1,NA,NA,images/earth.jpg,images/rocket1,images/rocket2,null,images/rocket1,NA,1,real,null,2,NA,NA,NA,sub82
d3-animate-choice,211,900588,0.0-76.0-1.25,FALSE,FALSE,FALSE,TRUE,"""event"",""trial"",""time""
""fullscreenenter"",""5"",""18679""
","
","
","""event"",""trial"",""time""
""fullscreenenter"",""5"",""18679""
","
",847.0000000001164,NA,48,NA,NA,3000,1,NA,NA,images/purpleplanet.jpg,images/alien4,images/alien3,images/rocket1,images/alien4,images/t.png,2,real,true,2,common,1,2020-06-16T17:53:40Z,sub82
two-step-fixation,212,901589,0.0-76.0-2.25,FALSE,FALSE,FALSE,TRUE,"""event"",""trial"",""time""
""fullscreenenter"",""5"",""18679""
","
","
","""event"",""trial"",""time""
""fullscreenenter"",""5"",""18679""
","
",NA,images/earth.jpg,NA,NA,NA,NA,NA,NA,NA,NA,NA,NA,NA,NA,NA,fixation,NA,NA,NA,NA,NA,NA,sub82
d3-animate-choice,213,904421,0.0-76.0-0.26,FALSE,FALSE,FALSE,TRUE,"""event"",""trial"",""time""
""fullscreenenter"",""5"",""18679""
","
","
","""event"",""trial"",""time""
""fullscreenenter"",""5"",""18679""
","
",829,NA,49,NA,NA,3000,1,NA,NA,images/earth.jpg,images/rocket1,images/rocket2,null,images/rocket2,NA,1,real,null,1,NA,NA,NA,sub82
d3-animate-choice,214,907146,0.0-76.0-1.26,FALSE,FALSE,FALSE,TRUE,"""event"",""trial"",""time""
""fullscreenenter"",""5"",""18679""
","
","
","""event"",""trial"",""time""
""fullscreenenter"",""5"",""18679""
","
",723,NA,48,NA,NA,3000,1,NA,NA,images/purpleplanet.jpg,images/alien4,images/alien3,images/rocket2,images/alien4,images/t.png,2,real,false,2,rare,1,2020-06-16T17:53:47Z,sub82
two-step-fixation,215,908149,0.0-76.0-2.26,FALSE,FALSE,FALSE,TRUE,"""event"",""trial"",""time""
""fullscreenenter"",""5"",""18679""
","
","
","""event"",""trial"",""time""
""fullscreenenter"",""5"",""18679""
","
",NA,images/earth.jpg,NA,NA,NA,NA,NA,NA,NA,NA,NA,NA,NA,NA,NA,fixation,NA,NA,NA,NA,NA,NA,sub82
d3-animate-choice,216,910714,0.0-76.0-0.27,FALSE,FALSE,FALSE,TRUE,"""event"",""trial"",""time""
""fullscreenenter"",""5"",""18679""
","
","
","""event"",""trial"",""time""
""fullscreenenter"",""5"",""18679""
","
",563,NA,49,NA,NA,3000,1,NA,NA,images/earth.jpg,images/rocket1,images/rocket2,null,images/rocket2,NA,1,real,null,1,NA,NA,NA,sub82
d3-animate-choice,217,913998,0.0-76.0-1.27,FALSE,FALSE,FALSE,TRUE,"""event"",""trial"",""time""
""fullscreenenter"",""5"",""18679""
","
","
","""event"",""trial"",""time""
""fullscreenenter"",""5"",""18679""
","
",1281,NA,48,NA,NA,3000,1,NA,NA,images/redplanet1.jpg,images/alien2,images/alien1,images/rocket2,images/alien2,images/nothing.png,2,real,true,2,common,0,2020-06-16T17:53:54Z,sub82
two-step-fixation,218,914999,0.0-76.0-2.27,FALSE,FALSE,FALSE,TRUE,"""event"",""trial"",""time""
""fullscreenenter"",""5"",""18679""
","
","
","""event"",""trial"",""time""
""fullscreenenter"",""5"",""18679""
","
",NA,images/earth.jpg,NA,NA,NA,NA,NA,NA,NA,NA,NA,NA,NA,NA,NA,fixation,NA,NA,NA,NA,NA,NA,sub82
d3-animate-choice,219,917532,0.0-76.0-0.28,FALSE,FALSE,FALSE,TRUE,"""event"",""trial"",""time""
""fullscreenenter"",""5"",""18679""
","
","
","""event"",""trial"",""time""
""fullscreenenter"",""5"",""18679""
","
",530,NA,48,NA,NA,3000,1,NA,NA,images/earth.jpg,images/rocket1,images/rocket2,null,images/rocket1,NA,1,real,null,2,NA,NA,NA,sub82
d3-animate-choice,220,919916,0.0-76.0-1.28,FALSE,FALSE,FALSE,TRUE,"""event"",""trial"",""time""
""fullscreenenter"",""5"",""18679""
","
","
","""event"",""trial"",""time""
""fullscreenenter"",""5"",""18679""
","
",380.9999999998836,NA,48,NA,NA,3000,1,NA,NA,images/purpleplanet.jpg,images/alien4,images/alien3,images/rocket1,images/alien4,images/t.png,2,real,true,2,common,1,2020-06-16T17:53:59Z,sub82
two-step-fixation,221,920917,0.0-76.0-2.28,FALSE,FALSE,FALSE,TRUE,"""event"",""trial"",""time""
""fullscreenenter"",""5"",""18679""
","
","
","""event"",""trial"",""time""
""fullscreenenter"",""5"",""18679""
","
",NA,images/earth.jpg,NA,NA,NA,NA,NA,NA,NA,NA,NA,NA,NA,NA,NA,fixation,NA,NA,NA,NA,NA,NA,sub82
d3-animate-choice,222,923276,0.0-76.0-0.29,FALSE,FALSE,FALSE,TRUE,"""event"",""trial"",""time""
""fullscreenenter"",""5"",""18679""
","
","
","""event"",""trial"",""time""
""fullscreenenter"",""5"",""18679""
","
",355.9999999998836,NA,48,NA,NA,3000,1,NA,NA,images/earth.jpg,images/rocket1,images/rocket2,null,images/rocket1,NA,1,real,null,2,NA,NA,NA,sub82
d3-animate-choice,223,925875,0.0-76.0-1.29,FALSE,FALSE,FALSE,TRUE,"""event"",""trial"",""time""
""fullscreenenter"",""5"",""18679""
","
","
","""event"",""trial"",""time""
""fullscreenenter"",""5"",""18679""
","
",597,NA,48,NA,NA,3000,1,NA,NA,images/purpleplanet.jpg,images/alien4,images/alien3,images/rocket1,images/alien4,images/nothing.png,2,real,true,2,common,0,2020-06-16T17:54:05Z,sub82
two-step-fixation,224,926876,0.0-76.0-2.29,FALSE,FALSE,FALSE,TRUE,"""event"",""trial"",""time""
""fullscreenenter"",""5"",""18679""
","
","
","""event"",""trial"",""time""
""fullscreenenter"",""5"",""18679""
","
",NA,images/earth.jpg,NA,NA,NA,NA,NA,NA,NA,NA,NA,NA,NA,NA,NA,fixation,NA,NA,NA,NA,NA,NA,sub82
d3-animate-choice,225,929297,0.0-76.0-0.30,FALSE,FALSE,FALSE,TRUE,"""event"",""trial"",""time""
""fullscreenenter"",""5"",""18679""
","
","
","""event"",""trial"",""time""
""fullscreenenter"",""5"",""18679""
","
",419,NA,49,NA,NA,3000,1,NA,NA,images/earth.jpg,images/rocket1,images/rocket2,null,images/rocket2,NA,1,real,null,1,NA,NA,NA,sub82
d3-animate-choice,226,932681,0.0-76.0-1.30,FALSE,FALSE,FALSE,TRUE,"""event"",""trial"",""time""
""fullscreenenter"",""5"",""18679""
","
","
","""event"",""trial"",""time""
""fullscreenenter"",""5"",""18679""
","
",1381,NA,49,NA,NA,3000,1,NA,NA,images/redplanet1.jpg,images/alien2,images/alien1,images/rocket2,images/alien1,images/t.png,2,real,true,1,common,1,2020-06-16T17:54:12Z,sub82
two-step-fixation,227,933683,0.0-76.0-2.30,FALSE,FALSE,FALSE,TRUE,"""event"",""trial"",""time""
""fullscreenenter"",""5"",""18679""
","
","
","""event"",""trial"",""time""
""fullscreenenter"",""5"",""18679""
","
",NA,images/earth.jpg,NA,NA,NA,NA,NA,NA,NA,NA,NA,NA,NA,NA,NA,fixation,NA,NA,NA,NA,NA,NA,sub82
d3-animate-choice,228,936167,0.0-76.0-0.31,FALSE,FALSE,FALSE,TRUE,"""event"",""trial"",""time""
""fullscreenenter"",""5"",""18679""
","
","
","""event"",""trial"",""time""
""fullscreenenter"",""5"",""18679""
","
",481,NA,49,NA,NA,3000,1,NA,NA,images/earth.jpg,images/rocket1,images/rocket2,null,images/rocket2,NA,1,real,null,1,NA,NA,NA,sub82
d3-animate-choice,229,939126,0.0-76.0-1.31,FALSE,FALSE,FALSE,TRUE,"""event"",""trial"",""time""
""fullscreenenter"",""5"",""18679""
","
","
","""event"",""trial"",""time""
""fullscreenenter"",""5"",""18679""
","
",957.0000000001164,NA,48,NA,NA,3000,1,NA,NA,images/purpleplanet.jpg,images/alien4,images/alien3,images/rocket2,images/alien4,images/t.png,2,real,false,2,rare,1,2020-06-16T17:54:19Z,sub82
two-step-fixation,230,940128,0.0-76.0-2.31,FALSE,FALSE,FALSE,TRUE,"""event"",""trial"",""time""
""fullscreenenter"",""5"",""18679""
","
","
","""event"",""trial"",""time""
""fullscreenenter"",""5"",""18679""
","
",NA,images/earth.jpg,NA,NA,NA,NA,NA,NA,NA,NA,NA,NA,NA,NA,NA,fixation,NA,NA,NA,NA,NA,NA,sub82
d3-animate-choice,231,943139,0.0-76.0-0.32,FALSE,FALSE,FALSE,TRUE,"""event"",""trial"",""time""
""fullscreenenter"",""5"",""18679""
","
","
","""event"",""trial"",""time""
""fullscreenenter"",""5"",""18679""
","
",1008,NA,48,NA,NA,3000,1,NA,NA,images/earth.jpg,images/rocket1,images/rocket2,null,images/rocket1,NA,1,real,null,2,NA,NA,NA,sub82
d3-animate-choice,232,946166,0.0-76.0-1.32,FALSE,FALSE,FALSE,TRUE,"""event"",""trial"",""time""
""fullscreenenter"",""5"",""18679""
","
","
","""event"",""trial"",""time""
""fullscreenenter"",""5"",""18679""
","
",1024,NA,49,NA,NA,3000,1,NA,NA,images/redplanet1.jpg,images/alien2,images/alien1,images/rocket1,images/alien1,images/t.png,2,real,false,1,rare,1,2020-06-16T17:54:26Z,sub82
two-step-fixation,233,947168,0.0-76.0-2.32,FALSE,FALSE,FALSE,TRUE,"""event"",""trial"",""time""
""fullscreenenter"",""5"",""18679""
","
","
","""event"",""trial"",""time""
""fullscreenenter"",""5"",""18679""
","
",NA,images/earth.jpg,NA,NA,NA,NA,NA,NA,NA,NA,NA,NA,NA,NA,NA,fixation,NA,NA,NA,NA,NA,NA,sub82
d3-animate-choice,234,949876,0.0-76.0-0.33,FALSE,FALSE,FALSE,TRUE,"""event"",""trial"",""time""
""fullscreenenter"",""5"",""18679""
","
","
","""event"",""trial"",""time""
""fullscreenenter"",""5"",""18679""
","
",704.9999999998836,NA,49,NA,NA,3000,1,NA,NA,images/earth.jpg,images/rocket1,images/rocket2,null,images/rocket2,NA,1,real,null,1,NA,NA,NA,sub82
d3-animate-choice,235,952378,0.0-76.0-1.33,FALSE,FALSE,FALSE,TRUE,"""event"",""trial"",""time""
""fullscreenenter"",""5"",""18679""
","
","
","""event"",""trial"",""time""
""fullscreenenter"",""5"",""18679""
","
",500,NA,49,NA,NA,3000,1,NA,NA,images/redplanet1.jpg,images/alien2,images/alien1,images/rocket2,images/alien1,images/nothing.png,2,real,true,1,common,0,2020-06-16T17:54:32Z,sub82
two-step-fixation,236,953380,0.0-76.0-2.33,FALSE,FALSE,FALSE,TRUE,"""event"",""trial"",""time""
""fullscreenenter"",""5"",""18679""
","
","
","""event"",""trial"",""time""
""fullscreenenter"",""5"",""18679""
","
",NA,images/earth.jpg,NA,NA,NA,NA,NA,NA,NA,NA,NA,NA,NA,NA,NA,fixation,NA,NA,NA,NA,NA,NA,sub82
d3-animate-choice,237,956066,0.0-76.0-0.34,FALSE,FALSE,FALSE,TRUE,"""event"",""trial"",""time""
""fullscreenenter"",""5"",""18679""
","
","
","""event"",""trial"",""time""
""fullscreenenter"",""5"",""18679""
","
",683.9999999998836,NA,48,NA,NA,3000,1,NA,NA,images/earth.jpg,images/rocket1,images/rocket2,null,images/rocket1,NA,1,real,null,2,NA,NA,NA,sub82
d3-animate-choice,238,958985,0.0-76.0-1.34,FALSE,FALSE,FALSE,TRUE,"""event"",""trial"",""time""
""fullscreenenter"",""5"",""18679""
","
","
","""event"",""trial"",""time""
""fullscreenenter"",""5"",""18679""
","
",916,NA,48,NA,NA,3000,1,NA,NA,images/purpleplanet.jpg,images/alien4,images/alien3,images/rocket1,images/alien4,images/nothing.png,2,real,true,2,common,0,2020-06-16T17:54:38Z,sub82
two-step-fixation,239,959986,0.0-76.0-2.34,FALSE,FALSE,FALSE,TRUE,"""event"",""trial"",""time""
""fullscreenenter"",""5"",""18679""
","
","
","""event"",""trial"",""time""
""fullscreenenter"",""5"",""18679""
","
",NA,images/earth.jpg,NA,NA,NA,NA,NA,NA,NA,NA,NA,NA,NA,NA,NA,fixation,NA,NA,NA,NA,NA,NA,sub82
d3-animate-choice,240,962755,0.0-76.0-0.35,FALSE,FALSE,FALSE,TRUE,"""event"",""trial"",""time""
""fullscreenenter"",""5"",""18679""
","
","
","""event"",""trial"",""time""
""fullscreenenter"",""5"",""18679""
","
",765,NA,49,NA,NA,3000,1,NA,NA,images/earth.jpg,images/rocket1,images/rocket2,null,images/rocket2,NA,1,real,null,1,NA,NA,NA,sub82
d3-animate-choice,241,965589,0.0-76.0-1.35,FALSE,FALSE,FALSE,TRUE,"""event"",""trial"",""time""
""fullscreenenter"",""5"",""18679""
","
","
","""event"",""trial"",""time""
""fullscreenenter"",""5"",""18679""
","
",832.0000000001164,NA,49,NA,NA,3000,1,NA,NA,images/redplanet1.jpg,images/alien2,images/alien1,images/rocket2,images/alien1,images/t.png,2,real,true,1,common,1,2020-06-16T17:54:45Z,sub82
two-step-fixation,242,966590,0.0-76.0-2.35,FALSE,FALSE,FALSE,TRUE,"""event"",""trial"",""time""
""fullscreenenter"",""5"",""18679""
","
","
","""event"",""trial"",""time""
""fullscreenenter"",""5"",""18679""
","
",NA,images/earth.jpg,NA,NA,NA,NA,NA,NA,NA,NA,NA,NA,NA,NA,NA,fixation,NA,NA,NA,NA,NA,NA,sub82
d3-animate-choice,243,969160,0.0-76.0-0.36,FALSE,FALSE,FALSE,TRUE,"""event"",""trial"",""time""
""fullscreenenter"",""5"",""18679""
","
","
","""event"",""trial"",""time""
""fullscreenenter"",""5"",""18679""
","
",566,NA,49,NA,NA,3000,1,NA,NA,images/earth.jpg,images/rocket1,images/rocket2,null,images/rocket2,NA,1,real,null,1,NA,NA,NA,sub82
d3-animate-choice,244,971762,0.0-76.0-1.36,FALSE,FALSE,FALSE,TRUE,"""event"",""trial"",""time""
""fullscreenenter"",""5"",""18679""
","
","
","""event"",""trial"",""time""
""fullscreenenter"",""5"",""18679""
","
",599.0000000002328,NA,48,NA,NA,3000,1,NA,NA,images/redplanet1.jpg,images/alien2,images/alien1,images/rocket2,images/alien2,images/nothing.png,2,real,true,2,common,0,2020-06-16T17:54:51Z,sub82
two-step-fixation,245,972763,0.0-76.0-2.36,FALSE,FALSE,FALSE,TRUE,"""event"",""trial"",""time""
""fullscreenenter"",""5"",""18679""
","
","
","""event"",""trial"",""time""
""fullscreenenter"",""5"",""18679""
","
",NA,images/earth.jpg,NA,NA,NA,NA,NA,NA,NA,NA,NA,NA,NA,NA,NA,fixation,NA,NA,NA,NA,NA,NA,sub82
d3-animate-choice,246,975491,0.0-76.0-0.37,FALSE,FALSE,FALSE,TRUE,"""event"",""trial"",""time""
""fullscreenenter"",""5"",""18679""
","
","
","""event"",""trial"",""time""
""fullscreenenter"",""5"",""18679""
","
",725.0000000001164,NA,48,NA,NA,3000,1,NA,NA,images/earth.jpg,images/rocket1,images/rocket2,null,images/rocket1,NA,1,real,null,2,NA,NA,NA,sub82
d3-animate-choice,247,978330,0.0-76.0-1.37,FALSE,FALSE,FALSE,TRUE,"""event"",""trial"",""time""
""fullscreenenter"",""5"",""18679""
","
","
","""event"",""trial"",""time""
""fullscreenenter"",""5"",""18679""
","
",836.9999999998836,NA,49,NA,NA,3000,1,NA,NA,images/purpleplanet.jpg,images/alien4,images/alien3,images/rocket1,images/alien3,images/nothing.png,2,real,true,1,common,0,2020-06-16T17:54:58Z,sub82
two-step-fixation,248,979332,0.0-76.0-2.37,FALSE,FALSE,FALSE,TRUE,"""event"",""trial"",""time""
""fullscreenenter"",""5"",""18679""
","
","
","""event"",""trial"",""time""
""fullscreenenter"",""5"",""18679""
","
",NA,images/earth.jpg,NA,NA,NA,NA,NA,NA,NA,NA,NA,NA,NA,NA,NA,fixation,NA,NA,NA,NA,NA,NA,sub82
d3-animate-choice,249,982042,0.0-76.0-0.38,FALSE,FALSE,FALSE,TRUE,"""event"",""trial"",""time""
""fullscreenenter"",""5"",""18679""
","
","
","""event"",""trial"",""time""
""fullscreenenter"",""5"",""18679""
","
",707.0000000001164,NA,48,NA,NA,3000,1,NA,NA,images/earth.jpg,images/rocket1,images/rocket2,null,images/rocket1,NA,1,real,null,2,NA,NA,NA,sub82
d3-animate-choice,250,984934,0.0-76.0-1.38,FALSE,FALSE,FALSE,TRUE,"""event"",""trial"",""time""
""fullscreenenter"",""5"",""18679""
","
","
","""event"",""trial"",""time""
""fullscreenenter"",""5"",""18679""
","
",889.0000000001164,NA,48,NA,NA,3000,1,NA,NA,images/purpleplanet.jpg,images/alien4,images/alien3,images/rocket1,images/alien4,images/t.png,2,real,true,2,common,1,2020-06-16T17:55:04Z,sub82
two-step-fixation,251,985935,0.0-76.0-2.38,FALSE,FALSE,FALSE,TRUE,"""event"",""trial"",""time""
""fullscreenenter"",""5"",""18679""
","
","
","""event"",""trial"",""time""
""fullscreenenter"",""5"",""18679""
","
",NA,images/earth.jpg,NA,NA,NA,NA,NA,NA,NA,NA,NA,NA,NA,NA,NA,fixation,NA,NA,NA,NA,NA,NA,sub82
d3-animate-choice,252,988576,0.0-76.0-0.39,FALSE,FALSE,FALSE,TRUE,"""event"",""trial"",""time""
""fullscreenenter"",""5"",""18679""
","
","
","""event"",""trial"",""time""
""fullscreenenter"",""5"",""18679""
","
",638,NA,48,NA,NA,3000,1,NA,NA,images/earth.jpg,images/rocket1,images/rocket2,null,images/rocket1,NA,1,real,null,2,NA,NA,NA,sub82
d3-animate-choice,253,991106,0.0-76.0-1.39,FALSE,FALSE,FALSE,TRUE,"""event"",""trial"",""time""
""fullscreenenter"",""5"",""18679""
","
","
","""event"",""trial"",""time""
""fullscreenenter"",""5"",""18679""
","
",527,NA,48,NA,NA,3000,1,NA,NA,images/purpleplanet.jpg,images/alien4,images/alien3,images/rocket1,images/alien4,images/nothing.png,2,real,true,2,common,0,2020-06-16T17:55:11Z,sub82
two-step-fixation,254,992109,0.0-76.0-2.39,FALSE,FALSE,FALSE,TRUE,"""event"",""trial"",""time""
""fullscreenenter"",""5"",""18679""
","
","
","""event"",""trial"",""time""
""fullscreenenter"",""5"",""18679""
","
",NA,images/earth.jpg,NA,NA,NA,NA,NA,NA,NA,NA,NA,NA,NA,NA,NA,fixation,NA,NA,NA,NA,NA,NA,sub82
d3-animate-choice,255,994787,0.0-76.0-0.40,FALSE,FALSE,FALSE,TRUE,"""event"",""trial"",""time""
""fullscreenenter"",""5"",""18679""
","
","
","""event"",""trial"",""time""
""fullscreenenter"",""5"",""18679""
","
",675,NA,49,NA,NA,3000,1,NA,NA,images/earth.jpg,images/rocket1,images/rocket2,null,images/rocket2,NA,1,real,null,1,NA,NA,NA,sub82
d3-animate-choice,256,998029,0.0-76.0-1.40,FALSE,FALSE,FALSE,TRUE,"""event"",""trial"",""time""
""fullscreenenter"",""5"",""18679""
","
","
","""event"",""trial"",""time""
""fullscreenenter"",""5"",""18679""
","
",1239.9999999997672,NA,48,NA,NA,3000,1,NA,NA,images/purpleplanet.jpg,images/alien4,images/alien3,images/rocket2,images/alien4,images/t.png,2,real,false,2,rare,1,2020-06-16T17:55:18Z,sub82
two-step-fixation,257,999031,0.0-76.0-2.40,FALSE,FALSE,FALSE,TRUE,"""event"",""trial"",""time""
""fullscreenenter"",""5"",""18679""
","
","
","""event"",""trial"",""time""
""fullscreenenter"",""5"",""18679""
","
",NA,images/earth.jpg,NA,NA,NA,NA,NA,NA,NA,NA,NA,NA,NA,NA,NA,fixation,NA,NA,NA,NA,NA,NA,sub82
d3-animate-choice,258,1001664,0.0-76.0-0.41,FALSE,FALSE,FALSE,TRUE,"""event"",""trial"",""time""
""fullscreenenter"",""5"",""18679""
","
","
","""event"",""trial"",""time""
""fullscreenenter"",""5"",""18679""
","
",629,NA,49,NA,NA,3000,1,NA,NA,images/earth.jpg,images/rocket1,images/rocket2,null,images/rocket2,NA,1,real,null,1,NA,NA,NA,sub82
d3-animate-choice,259,1004224,0.0-76.0-1.41,FALSE,FALSE,FALSE,TRUE,"""event"",""trial"",""time""
""fullscreenenter"",""5"",""18679""
","
","
","""event"",""trial"",""time""
""fullscreenenter"",""5"",""18679""
","
",557,NA,48,NA,NA,3000,1,NA,NA,images/purpleplanet.jpg,images/alien4,images/alien3,images/rocket2,images/alien4,images/t.png,2,real,false,2,rare,1,2020-06-16T17:55:24Z,sub82
two-step-fixation,260,1005226,0.0-76.0-2.41,FALSE,FALSE,FALSE,TRUE,"""event"",""trial"",""time""
""fullscreenenter"",""5"",""18679""
","
","
","""event"",""trial"",""time""
""fullscreenenter"",""5"",""18679""
","
",NA,images/earth.jpg,NA,NA,NA,NA,NA,NA,NA,NA,NA,NA,NA,NA,NA,fixation,NA,NA,NA,NA,NA,NA,sub82
d3-animate-choice,261,1008002,0.0-76.0-0.42,FALSE,FALSE,FALSE,TRUE,"""event"",""trial"",""time""
""fullscreenenter"",""5"",""18679""
","
","
","""event"",""trial"",""time""
""fullscreenenter"",""5"",""18679""
","
",774,NA,49,NA,NA,3000,1,NA,NA,images/earth.jpg,images/rocket1,images/rocket2,null,images/rocket2,NA,1,real,null,1,NA,NA,NA,sub82
d3-animate-choice,262,1011524,0.0-76.0-1.42,FALSE,FALSE,FALSE,TRUE,"""event"",""trial"",""time""
""fullscreenenter"",""5"",""18679""
","
","
","""event"",""trial"",""time""
""fullscreenenter"",""5"",""18679""
","
",1520,NA,49,NA,NA,3000,1,NA,NA,images/redplanet1.jpg,images/alien2,images/alien1,images/rocket2,images/alien1,images/nothing.png,2,real,true,1,common,0,2020-06-16T17:55:31Z,sub82
two-step-fixation,263,1012526,0.0-76.0-2.42,FALSE,FALSE,FALSE,TRUE,"""event"",""trial"",""time""
""fullscreenenter"",""5"",""18679""
","
","
","""event"",""trial"",""time""
""fullscreenenter"",""5"",""18679""
","
",NA,images/earth.jpg,NA,NA,NA,NA,NA,NA,NA,NA,NA,NA,NA,NA,NA,fixation,NA,NA,NA,NA,NA,NA,sub82
d3-animate-choice,264,1015297,0.0-76.0-0.43,FALSE,FALSE,FALSE,TRUE,"""event"",""trial"",""time""
""fullscreenenter"",""5"",""18679""
","
","
","""event"",""trial"",""time""
""fullscreenenter"",""5"",""18679""
","
",768,NA,48,NA,NA,3000,1,NA,NA,images/earth.jpg,images/rocket1,images/rocket2,null,images/rocket1,NA,1,real,null,2,NA,NA,NA,sub82
d3-animate-choice,265,1017881,0.0-76.0-1.43,FALSE,FALSE,FALSE,TRUE,"""event"",""trial"",""time""
""fullscreenenter"",""5"",""18679""
","
","
","""event"",""trial"",""time""
""fullscreenenter"",""5"",""18679""
","
",581.9999999997672,NA,48,NA,NA,3000,1,NA,NA,images/purpleplanet.jpg,images/alien4,images/alien3,images/rocket1,images/alien4,images/t.png,2,real,true,2,common,1,2020-06-16T17:55:37Z,sub82
two-step-fixation,266,1018882,0.0-76.0-2.43,FALSE,FALSE,FALSE,TRUE,"""event"",""trial"",""time""
""fullscreenenter"",""5"",""18679""
","
","
","""event"",""trial"",""time""
""fullscreenenter"",""5"",""18679""
","
",NA,images/earth.jpg,NA,NA,NA,NA,NA,NA,NA,NA,NA,NA,NA,NA,NA,fixation,NA,NA,NA,NA,NA,NA,sub82
d3-animate-choice,267,1021292,0.0-76.0-0.44,FALSE,FALSE,FALSE,TRUE,"""event"",""trial"",""time""
""fullscreenenter"",""5"",""18679""
","
","
","""event"",""trial"",""time""
""fullscreenenter"",""5"",""18679""
","
",408,NA,48,NA,NA,3000,1,NA,NA,images/earth.jpg,images/rocket1,images/rocket2,null,images/rocket1,NA,1,real,null,2,NA,NA,NA,sub82
d3-animate-choice,268,1023942,0.0-76.0-1.44,FALSE,FALSE,FALSE,TRUE,"""event"",""trial"",""time""
""fullscreenenter"",""5"",""18679""
","
","
","""event"",""trial"",""time""
""fullscreenenter"",""5"",""18679""
","
",648,NA,48,NA,NA,3000,1,NA,NA,images/purpleplanet.jpg,images/alien4,images/alien3,images/rocket1,images/alien4,images/t.png,2,real,true,2,common,1,2020-06-16T17:55:43Z,sub82
two-step-fixation,269,1024943,0.0-76.0-2.44,FALSE,FALSE,FALSE,TRUE,"""event"",""trial"",""time""
""fullscreenenter"",""5"",""18679""
","
","
","""event"",""trial"",""time""
""fullscreenenter"",""5"",""18679""
","
",NA,images/earth.jpg,NA,NA,NA,NA,NA,NA,NA,NA,NA,NA,NA,NA,NA,fixation,NA,NA,NA,NA,NA,NA,sub82
d3-animate-choice,270,1027500,0.0-76.0-0.45,FALSE,FALSE,FALSE,TRUE,"""event"",""trial"",""time""
""fullscreenenter"",""5"",""18679""
","
","
","""event"",""trial"",""time""
""fullscreenenter"",""5"",""18679""
","
",555,NA,48,NA,NA,3000,1,NA,NA,images/earth.jpg,images/rocket1,images/rocket2,null,images/rocket1,NA,1,real,null,2,NA,NA,NA,sub82
d3-animate-choice,271,1030068,0.0-76.0-1.45,FALSE,FALSE,FALSE,TRUE,"""event"",""trial"",""time""
""fullscreenenter"",""5"",""18679""
","
","
","""event"",""trial"",""time""
""fullscreenenter"",""5"",""18679""
","
",565,NA,48,NA,NA,3000,1,NA,NA,images/redplanet1.jpg,images/alien2,images/alien1,images/rocket1,images/alien2,images/nothing.png,2,real,false,2,rare,0,2020-06-16T17:55:50Z,sub82
two-step-fixation,272,1031070,0.0-76.0-2.45,FALSE,FALSE,FALSE,TRUE,"""event"",""trial"",""time""
""fullscreenenter"",""5"",""18679""
","
","
","""event"",""trial"",""time""
""fullscreenenter"",""5"",""18679""
","
",NA,images/earth.jpg,NA,NA,NA,NA,NA,NA,NA,NA,NA,NA,NA,NA,NA,fixation,NA,NA,NA,NA,NA,NA,sub82
d3-animate-choice,273,1033464,0.0-76.0-0.46,FALSE,FALSE,FALSE,TRUE,"""event"",""trial"",""time""
""fullscreenenter"",""5"",""18679""
","
","
","""event"",""trial"",""time""
""fullscreenenter"",""5"",""18679""
","
",392,NA,48,NA,NA,3000,1,NA,NA,images/earth.jpg,images/rocket1,images/rocket2,null,images/rocket1,NA,1,real,null,2,NA,NA,NA,sub82
d3-animate-choice,274,1036027,0.0-76.0-1.46,FALSE,FALSE,FALSE,TRUE,"""event"",""trial"",""time""
""fullscreenenter"",""5"",""18679""
","
","
","""event"",""trial"",""time""
""fullscreenenter"",""5"",""18679""
","
",560,NA,48,NA,NA,3000,1,NA,NA,images/purpleplanet.jpg,images/alien4,images/alien3,images/rocket1,images/alien4,images/nothing.png,2,real,true,2,common,0,2020-06-16T17:55:56Z,sub82
two-step-fixation,275,1037029,0.0-76.0-2.46,FALSE,FALSE,FALSE,TRUE,"""event"",""trial"",""time""
""fullscreenenter"",""5"",""18679""
","
","
","""event"",""trial"",""time""
""fullscreenenter"",""5"",""18679""
","
",NA,images/earth.jpg,NA,NA,NA,NA,NA,NA,NA,NA,NA,NA,NA,NA,NA,fixation,NA,NA,NA,NA,NA,NA,sub82
d3-animate-choice,276,1039582,0.0-76.0-0.47,FALSE,FALSE,FALSE,TRUE,"""event"",""trial"",""time""
""fullscreenenter"",""5"",""18679""
","
","
","""event"",""trial"",""time""
""fullscreenenter"",""5"",""18679""
","
",550.9999999997672,NA,49,NA,NA,3000,1,NA,NA,images/earth.jpg,images/rocket1,images/rocket2,null,images/rocket2,NA,1,real,null,1,NA,NA,NA,sub82
d3-animate-choice,277,1042322,0.0-76.0-1.47,FALSE,FALSE,FALSE,TRUE,"""event"",""trial"",""time""
""fullscreenenter"",""5"",""18679""
","
","
","""event"",""trial"",""time""
""fullscreenenter"",""5"",""18679""
","
",738,NA,49,NA,NA,3000,1,NA,NA,images/purpleplanet.jpg,images/alien4,images/alien3,images/rocket2,images/alien3,images/t.png,2,real,false,1,rare,1,2020-06-16T17:56:02Z,sub82
two-step-fixation,278,1043325,0.0-76.0-2.47,FALSE,FALSE,FALSE,TRUE,"""event"",""trial"",""time""
""fullscreenenter"",""5"",""18679""
","
","
","""event"",""trial"",""time""
""fullscreenenter"",""5"",""18679""
","
",NA,images/earth.jpg,NA,NA,NA,NA,NA,NA,NA,NA,NA,NA,NA,NA,NA,fixation,NA,NA,NA,NA,NA,NA,sub82
d3-animate-choice,279,1046027,0.0-76.0-0.48,FALSE,FALSE,FALSE,TRUE,"""event"",""trial"",""time""
""fullscreenenter"",""5"",""18679""
","
","
","""event"",""trial"",""time""
""fullscreenenter"",""5"",""18679""
","
",700,NA,49,NA,NA,3000,1,NA,NA,images/earth.jpg,images/rocket1,images/rocket2,null,images/rocket2,NA,1,real,null,1,NA,NA,NA,sub82
d3-animate-choice,280,1049084,0.0-76.0-1.48,FALSE,FALSE,FALSE,TRUE,"""event"",""trial"",""time""
""fullscreenenter"",""5"",""18679""
","
","
","""event"",""trial"",""time""
""fullscreenenter"",""5"",""18679""
","
",1055,NA,49,NA,NA,3000,1,NA,NA,images/redplanet1.jpg,images/alien2,images/alien1,images/rocket2,images/alien1,images/nothing.png,2,real,true,1,common,0,2020-06-16T17:56:09Z,sub82
two-step-fixation,281,1050085,0.0-76.0-2.48,FALSE,FALSE,FALSE,TRUE,"""event"",""trial"",""time""
""fullscreenenter"",""5"",""18679""
","
","
","""event"",""trial"",""time""
""fullscreenenter"",""5"",""18679""
","
",NA,images/earth.jpg,NA,NA,NA,NA,NA,NA,NA,NA,NA,NA,NA,NA,NA,fixation,NA,NA,NA,NA,NA,NA,sub82
d3-animate-choice,282,1052509,0.0-76.0-0.49,FALSE,FALSE,FALSE,TRUE,"""event"",""trial"",""time""
""fullscreenenter"",""5"",""18679""
","
","
","""event"",""trial"",""time""
""fullscreenenter"",""5"",""18679""
","
",421,NA,48,NA,NA,3000,1,NA,NA,images/earth.jpg,images/rocket1,images/rocket2,null,images/rocket1,NA,1,real,null,2,NA,NA,NA,sub82
d3-animate-choice,283,1055530,0.0-76.0-1.49,FALSE,FALSE,FALSE,TRUE,"""event"",""trial"",""time""
""fullscreenenter"",""5"",""18679""
","
","
","""event"",""trial"",""time""
""fullscreenenter"",""5"",""18679""
","
",1019,NA,49,NA,NA,3000,1,NA,NA,images/purpleplanet.jpg,images/alien4,images/alien3,images/rocket1,images/alien3,images/nothing.png,2,real,true,1,common,0,2020-06-16T17:56:15Z,sub82
two-step-fixation,284,1056532,0.0-76.0-2.49,FALSE,FALSE,FALSE,TRUE,"""event"",""trial"",""time""
""fullscreenenter"",""5"",""18679""
","
","
","""event"",""trial"",""time""
""fullscreenenter"",""5"",""18679""
","
",NA,images/earth.jpg,NA,NA,NA,NA,NA,NA,NA,NA,NA,NA,NA,NA,NA,fixation,NA,NA,NA,NA,NA,NA,sub82
audio-button-response-2,285,1065629,0.0-77.0,FALSE,FALSE,FALSE,TRUE,"""event"",""trial"",""time""
""fullscreenenter"",""5"",""18679""
","
","
","""event"",""trial"",""time""
""fullscreenenter"",""5"",""18679""
","
",9094,audio/instructions/break_1.wav,NA,0,NA,NA,NA,NA,NA,NA,NA,NA,NA,NA,NA,NA,NA,NA,NA,NA,NA,NA,sub82
d3-animate-choice,286,1068885,0.0-78.0-0.0,FALSE,FALSE,FALSE,TRUE,"""event"",""trial"",""time""
""fullscreenenter"",""5"",""18679""
","
","
","""event"",""trial"",""time""
""fullscreenenter"",""5"",""18679""
","
",1254,NA,48,NA,NA,3000,1,NA,NA,images/earth.jpg,images/rocket1,images/rocket2,null,images/rocket1,NA,1,real,null,2,NA,NA,NA,sub82
d3-animate-choice,287,1071250,0.0-78.0-1.0,FALSE,FALSE,FALSE,TRUE,"""event"",""trial"",""time""
""fullscreenenter"",""5"",""18679""
","
","
","""event"",""trial"",""time""
""fullscreenenter"",""5"",""18679""
","
