trial_type,trial_index,time_elapsed,internal_node_id,rocket_sides,red_planet_first_rocket,red_display_order,purple_display_order,interactions,blur_events,focus_events,fullscreenenter_events,fullscreenexit_events,rt,stimulus,key_press,button_pressed,success,duration,valid_pressed,rts,keys,planet_text,right_text,left_text,center_text,chosen_text,reward_text,trial_stage,practice_trial,transition_type,choice,transition,reward,timestamp,subject_id
pavlovia,0,3,0.0-0.0,FALSE,FALSE,FALSE,FALSE,"
","
","
","
","
",NA,NA,NA,NA,NA,NA,NA,NA,NA,NA,NA,NA,NA,NA,NA,NA,NA,NA,NA,NA,NA,NA,sub12
html-keyboard-response,1,1013,0.0-1.0,FALSE,FALSE,FALSE,FALSE,"
","
","
","
","
",1008.6350000055972,Welcome! Press the space bar to begin.,32,NA,NA,NA,NA,NA,NA,NA,NA,NA,NA,NA,NA,NA,NA,NA,NA,NA,NA,NA,sub12
audio-keyboard-response,2,4987,0.0-2.0,FALSE,FALSE,FALSE,FALSE,"
","
","
","
","
",3949,audio/beep_loop.wav,32,NA,NA,NA,NA,NA,NA,NA,NA,NA,NA,NA,NA,NA,NA,NA,NA,NA,NA,NA,sub12
audio-button-response,3,8543,0.0-3.0,FALSE,FALSE,FALSE,FALSE,"
","
","
","
","
",NaN,audio/fish.mp3,NA,1,NA,NA,NA,NA,NA,NA,NA,NA,NA,NA,NA,NA,NA,NA,NA,NA,NA,NA,sub12
audio-button-response,4,10768,0.0-4.0,FALSE,FALSE,FALSE,FALSE,"""event"",""trial"",""time""
""fullscreenenter"",""5"",""14942""
","
","
","""event"",""trial"",""time""
""fullscreenenter"",""5"",""14942""
","
",NaN,audio/tiger.mp3,NA,4,NA,NA,NA,NA,NA,NA,NA,NA,NA,NA,NA,NA,NA,NA,NA,NA,NA,NA,sub12
fullscreen,5,15934,0.0-5.0,FALSE,FALSE,FALSE,FALSE,"""event"",""trial"",""time""
""fullscreenenter"",""5"",""14942""
","
","
","""event"",""trial"",""time""
""fullscreenenter"",""5"",""14942""
","
",NA,NA,NA,NA,TRUE,NA,NA,NA,NA,NA,NA,NA,NA,NA,NA,NA,NA,NA,NA,NA,NA,NA,sub12
d3-instructions,6,30724,0.0-6.0,FALSE,FALSE,FALSE,FALSE,"""event"",""trial"",""time""
""fullscreenenter"",""5"",""14942""
","
","
","""event"",""trial"",""time""
""fullscreenenter"",""5"",""14942""
","
",NA,NA,NA,NA,NA,NA,NA,NA,NA,NA,NA,NA,NA,NA,NA,NA,NA,NA,NA,NA,NA,NA,sub12
d3-instructions,7,39615,0.0-7.0,FALSE,FALSE,FALSE,FALSE,"""event"",""trial"",""time""
""fullscreenenter"",""5"",""14942""
","
","
","""event"",""trial"",""time""
""fullscreenenter"",""5"",""14942""
","
",NA,NA,NA,NA,NA,NA,NA,NA,NA,NA,NA,NA,NA,NA,NA,NA,NA,NA,NA,NA,NA,NA,sub12
d3-instructions,8,46495,0.0-8.0,FALSE,FALSE,FALSE,FALSE,"""event"",""trial"",""time""
""fullscreenenter"",""5"",""14942""
","
","
","""event"",""trial"",""time""
""fullscreenenter"",""5"",""14942""
","
",NA,NA,NA,NA,NA,NA,NA,NA,NA,NA,NA,NA,NA,NA,NA,NA,NA,NA,NA,NA,NA,NA,sub12
d3-instructions,9,57790,0.0-9.0,FALSE,FALSE,FALSE,FALSE,"""event"",""trial"",""time""
""fullscreenenter"",""5"",""14942""
","
","
","""event"",""trial"",""time""
""fullscreenenter"",""5"",""14942""
","
",NA,NA,NA,NA,NA,NA,NA,NA,NA,NA,NA,NA,NA,NA,NA,NA,NA,NA,NA,NA,NA,NA,sub12
d3-instructions,10,79219,0.0-10.0,FALSE,FALSE,FALSE,FALSE,"""event"",""trial"",""time""
""fullscreenenter"",""5"",""14942""
","
","
","""event"",""trial"",""time""
""fullscreenenter"",""5"",""14942""
","
",NA,NA,NA,NA,NA,NA,NA,NA,NA,NA,NA,NA,NA,NA,NA,NA,NA,NA,NA,NA,NA,NA,sub12
d3-animate-choice,11,82712,0.0-11.0,FALSE,FALSE,FALSE,FALSE,"""event"",""trial"",""time""
""fullscreenenter"",""5"",""14942""
","
","
","""event"",""trial"",""time""
""fullscreenenter"",""5"",""14942""
","
",1487.1249999996508,NA,49,NA,NA,3000,1,NA,NA,images/tutgreenplanet.jpg,images/tutalien1,images/tutalien2,null,images/tutalien2,NA,NA,practice,null,NA,NA,NA,NA,sub12
d3-animate-choice,12,85735,0.0-12.0,FALSE,FALSE,FALSE,FALSE,"""event"",""trial"",""time""
""fullscreenenter"",""5"",""14942""
","
","
","""event"",""trial"",""time""
""fullscreenenter"",""5"",""14942""
","
",1021.150000000489,NA,48,NA,NA,3000,1,NA,NA,images/tutgreenplanet.jpg,images/tutalien1,images/tutalien2,null,images/tutalien1,NA,NA,practice,null,NA,NA,NA,NA,sub12
d3-animate-choice,13,89850,0.0-13.0,FALSE,FALSE,FALSE,FALSE,"""event"",""trial"",""time""
""fullscreenenter"",""5"",""14942""
","
","
","""event"",""trial"",""time""
""fullscreenenter"",""5"",""14942""
","
",2112.0450000016717,NA,49,NA,NA,3000,1,NA,NA,images/tutgreenplanet.jpg,images/tutalien1,images/tutalien2,null,images/tutalien2,NA,NA,practice,null,NA,NA,NA,NA,sub12
d3-animate-choice,14,92302,0.0-14.0,FALSE,FALSE,FALSE,FALSE,"""event"",""trial"",""time""
""fullscreenenter"",""5"",""14942""
","
","
","""event"",""trial"",""time""
""fullscreenenter"",""5"",""14942""
","
",449.93499999691267,NA,49,NA,NA,3000,1,NA,NA,images/tutgreenplanet.jpg,images/tutalien1,images/tutalien2,null,images/tutalien2,NA,NA,practice,null,NA,NA,NA,NA,sub12
d3-instructions,15,99921,0.0-15.0,FALSE,FALSE,FALSE,FALSE,"""event"",""trial"",""time""
""fullscreenenter"",""5"",""14942""
","
","
","""event"",""trial"",""time""
""fullscreenenter"",""5"",""14942""
","
",NA,NA,NA,NA,NA,NA,NA,NA,NA,NA,NA,NA,NA,NA,NA,NA,NA,NA,NA,NA,NA,NA,sub12
d3-instructions,16,109599,0.0-16.0,FALSE,FALSE,FALSE,FALSE,"""event"",""trial"",""time""
""fullscreenenter"",""5"",""14942""
","
","
","""event"",""trial"",""time""
""fullscreenenter"",""5"",""14942""
","
",NA,NA,NA,NA,NA,NA,NA,NA,NA,NA,NA,NA,NA,NA,NA,NA,NA,NA,NA,NA,NA,NA,sub12
d3-instructions,17,118496,0.0-17.0,FALSE,FALSE,FALSE,FALSE,"""event"",""trial"",""time""
""fullscreenenter"",""5"",""14942""
","
","
","""event"",""trial"",""time""
""fullscreenenter"",""5"",""14942""
","
",NA,NA,NA,NA,NA,NA,NA,NA,NA,NA,NA,NA,NA,NA,NA,NA,NA,NA,NA,NA,NA,NA,sub12
d3-instructions,18,131554,0.0-18.0,FALSE,FALSE,FALSE,FALSE,"""event"",""trial"",""time""
""fullscreenenter"",""5"",""14942""
","
","
","""event"",""trial"",""time""
""fullscreenenter"",""5"",""14942""
","
",NA,NA,NA,NA,NA,NA,NA,NA,NA,NA,NA,NA,NA,NA,NA,NA,NA,NA,NA,NA,NA,NA,sub12
d3-instructions,19,145797,0.0-19.0,FALSE,FALSE,FALSE,FALSE,"""event"",""trial"",""time""
""fullscreenenter"",""5"",""14942""
","
","
","""event"",""trial"",""time""
""fullscreenenter"",""5"",""14942""
","
",NA,NA,NA,NA,NA,NA,NA,NA,NA,NA,NA,NA,NA,NA,NA,NA,NA,NA,NA,NA,NA,NA,sub12
d3-animate-choice,20,148331,0.0-20.0,FALSE,FALSE,FALSE,FALSE,"""event"",""trial"",""time""
""fullscreenenter"",""5"",""14942""
","
","
","""event"",""trial"",""time""
""fullscreenenter"",""5"",""14942""
","
",531.6599999932805,NA,49,NA,NA,3000,1,NA,NA,images/tutyellowplanet.jpg,null,images/tutalien3,null,images/tutalien3,images/t.png,NA,practice,null,NA,NA,NA,NA,sub12
d3-animate-choice,21,150626,0.0-21.0,FALSE,FALSE,FALSE,FALSE,"""event"",""trial"",""time""
""fullscreenenter"",""5"",""14942""
","
","
","""event"",""trial"",""time""
""fullscreenenter"",""5"",""14942""
","
",293.0249999917578,NA,49,NA,NA,3000,1,NA,NA,images/tutyellowplanet.jpg,null,images/tutalien3,null,images/tutalien3,images/nothing.png,NA,practice,null,NA,NA,NA,NA,sub12
d3-animate-choice,22,152806,0.0-22.0,FALSE,FALSE,FALSE,FALSE,"""event"",""trial"",""time""
""fullscreenenter"",""5"",""14942""
","
","
","""event"",""trial"",""time""
""fullscreenenter"",""5"",""14942""
","
",178.24999999720603,NA,49,NA,NA,3000,1,NA,NA,images/tutyellowplanet.jpg,null,images/tutalien3,null,images/tutalien3,images/nothing.png,NA,practice,null,NA,NA,NA,NA,sub12
d3-animate-choice,23,154996,0.0-23.0,FALSE,FALSE,FALSE,FALSE,"""event"",""trial"",""time""
""fullscreenenter"",""5"",""14942""
","
","
","""event"",""trial"",""time""
""fullscreenenter"",""5"",""14942""
","
",188.4449999924982,NA,49,NA,NA,3000,1,NA,NA,images/tutyellowplanet.jpg,null,images/tutalien3,null,images/tutalien3,images/t.png,NA,practice,null,NA,NA,NA,NA,sub12
d3-animate-choice,24,157184,0.0-24.0,FALSE,FALSE,FALSE,FALSE,"""event"",""trial"",""time""
""fullscreenenter"",""5"",""14942""
","
","
","""event"",""trial"",""time""
""fullscreenenter"",""5"",""14942""
","
",185.0350000022445,NA,49,NA,NA,3000,1,NA,NA,images/tutyellowplanet.jpg,null,images/tutalien3,null,images/tutalien3,images/t.png,NA,practice,null,NA,NA,NA,NA,sub12
d3-animate-choice,25,159260,0.0-25.0,FALSE,FALSE,FALSE,FALSE,"""event"",""trial"",""time""
""fullscreenenter"",""5"",""14942""
","
","
","""event"",""trial"",""time""
""fullscreenenter"",""5"",""14942""
","
",74.2000000027474,NA,49,NA,NA,3000,1,NA,NA,images/tutyellowplanet.jpg,null,images/tutalien3,null,images/tutalien3,images/t.png,NA,practice,null,NA,NA,NA,NA,sub12
d3-animate-choice,26,161450,0.0-26.0,FALSE,FALSE,FALSE,FALSE,"""event"",""trial"",""time""
""fullscreenenter"",""5"",""14942""
","
","
","""event"",""trial"",""time""
""fullscreenenter"",""5"",""14942""
","
",188.52000001061242,NA,49,NA,NA,3000,1,"676.3700000010431,858.395000002929,993.3850000088569,1563.4900000004563,1739.4250000070315,1898.4200000122655,2068.38000001153",49494949494949,images/tutyellowplanet.jpg,null,images/tutalien3,null,images/tutalien3,images/t.png,NA,practice,null,NA,NA,NA,NA,sub12
d3-animate-choice,27,163543,0.0-27.0,FALSE,FALSE,FALSE,FALSE,"""event"",""trial"",""time""
""fullscreenenter"",""5"",""14942""
","
","
","""event"",""trial"",""time""
""fullscreenenter"",""5"",""14942""
","
",91.1599999963073,NA,49,NA,NA,3000,1,2037.190000002738,49,images/tutyellowplanet.jpg,null,images/tutalien3,null,images/tutalien3,images/t.png,NA,practice,null,NA,NA,NA,NA,sub12
d3-animate-choice,28,165706,0.0-28.0,FALSE,FALSE,FALSE,FALSE,"""event"",""trial"",""time""
""fullscreenenter"",""5"",""14942""
","
","
","""event"",""trial"",""time""
""fullscreenenter"",""5"",""14942""
","
",159.93999999773223,NA,49,NA,NA,3000,1,1588.980000000447,49,images/tutyellowplanet.jpg,null,images/tutalien3,null,images/tutalien3,images/t.png,NA,practice,null,NA,NA,NA,NA,sub12
d3-animate-choice,29,167798,0.0-29.0,FALSE,FALSE,FALSE,FALSE,"""event"",""trial"",""time""
""fullscreenenter"",""5"",""14942""
","
","
","""event"",""trial"",""time""
""fullscreenenter"",""5"",""14942""
","
",89.85999999276828,NA,49,NA,NA,3000,1,NA,NA,images/tutyellowplanet.jpg,null,images/tutalien3,null,images/tutalien3,images/t.png,NA,practice,null,NA,NA,NA,NA,sub12
d3-instructions,30,174190,0.0-30.0,FALSE,FALSE,FALSE,FALSE,"""event"",""trial"",""time""
""fullscreenenter"",""5"",""14942""
","
","
","""event"",""trial"",""time""
""fullscreenenter"",""5"",""14942""
","
",NA,NA,NA,NA,NA,NA,NA,NA,NA,NA,NA,NA,NA,NA,NA,NA,NA,NA,NA,NA,NA,NA,sub12
d3-instructions,31,185611,0.0-31.0,FALSE,FALSE,FALSE,FALSE,"""event"",""trial"",""time""
""fullscreenenter"",""5"",""14942""
","
","
","""event"",""trial"",""time""
""fullscreenenter"",""5"",""14942""
","
",NA,NA,NA,NA,NA,NA,NA,NA,NA,NA,NA,NA,NA,NA,NA,NA,NA,NA,NA,NA,NA,NA,sub12
d3-instructions,32,192523,0.0-32.0,FALSE,FALSE,FALSE,FALSE,"""event"",""trial"",""time""
""fullscreenenter"",""5"",""14942""
","
","
","""event"",""trial"",""time""
""fullscreenenter"",""5"",""14942""
","
",NA,NA,NA,NA,NA,NA,NA,NA,NA,NA,NA,NA,NA,NA,NA,NA,NA,NA,NA,NA,NA,NA,sub12
d3-instructions,33,200180,0.0-33.0,FALSE,FALSE,FALSE,FALSE,"""event"",""trial"",""time""
""fullscreenenter"",""5"",""14942""
","
","
","""event"",""trial"",""time""
""fullscreenenter"",""5"",""14942""
","
",NA,NA,NA,NA,NA,NA,NA,NA,NA,NA,NA,NA,NA,NA,NA,NA,NA,NA,NA,NA,NA,NA,sub12
d3-animate-choice,34,203494,0.0-34.0,FALSE,FALSE,FALSE,FALSE,"""event"",""trial"",""time""
""fullscreenenter"",""5"",""14942""
","
","
","""event"",""trial"",""time""
""fullscreenenter"",""5"",""14942""
","
",1313.015000006999,NA,49,NA,NA,3000,1,NA,NA,images/tutgreenplanet.jpg,images/tutalien1,images/tutalien2,null,images/tutalien2,images/t.png,NA,practice,null,NA,NA,NA,NA,sub12
d3-animate-choice,35,206495,0.0-35.0,FALSE,FALSE,FALSE,FALSE,"""event"",""trial"",""time""
""fullscreenenter"",""5"",""14942""
","
","
","""event"",""trial"",""time""
""fullscreenenter"",""5"",""14942""
","
",998.3550000033574,NA,49,NA,NA,3000,1,NA,NA,images/tutgreenplanet.jpg,images/tutalien1,images/tutalien2,null,images/tutalien2,images/t.png,NA,practice,null,NA,NA,NA,NA,sub12
d3-animate-choice,36,209392,0.0-36.0,FALSE,FALSE,FALSE,FALSE,"""event"",""trial"",""time""
""fullscreenenter"",""5"",""14942""
","
","
","""event"",""trial"",""time""
""fullscreenenter"",""5"",""14942""
","
",894.9250000005122,NA,49,NA,NA,3000,1,NA,NA,images/tutgreenplanet.jpg,images/tutalien1,images/tutalien2,null,images/tutalien2,images/t.png,NA,practice,null,NA,NA,NA,NA,sub12
d3-animate-choice,37,211968,0.0-37.0,FALSE,FALSE,FALSE,FALSE,"""event"",""trial"",""time""
""fullscreenenter"",""5"",""14942""
","
","
","""event"",""trial"",""time""
""fullscreenenter"",""5"",""14942""
","
",574.0200000000186,NA,49,NA,NA,3000,1,NA,NA,images/tutgreenplanet.jpg,images/tutalien1,images/tutalien2,null,images/tutalien2,images/t.png,NA,practice,null,NA,NA,NA,NA,sub12
d3-animate-choice,38,214314,0.0-38.0,FALSE,FALSE,FALSE,FALSE,"""event"",""trial"",""time""
""fullscreenenter"",""5"",""14942""
","
","
","""event"",""trial"",""time""
""fullscreenenter"",""5"",""14942""
","
",344.1549999988638,NA,49,NA,NA,3000,1,NA,NA,images/tutgreenplanet.jpg,images/tutalien1,images/tutalien2,null,images/tutalien2,images/t.png,NA,practice,null,NA,NA,NA,NA,sub12
d3-animate-choice,39,216510,0.0-39.0,FALSE,FALSE,FALSE,FALSE,"""event"",""trial"",""time""
""fullscreenenter"",""5"",""14942""
","
","
","""event"",""trial"",""time""
""fullscreenenter"",""5"",""14942""
","
",194.0699999977369,NA,49,NA,NA,3000,1,NA,NA,images/tutgreenplanet.jpg,images/tutalien1,images/tutalien2,null,images/tutalien2,images/t.png,NA,practice,null,NA,NA,NA,NA,sub12
d3-animate-choice,40,218738,0.0-40.0,FALSE,FALSE,FALSE,FALSE,"""event"",""trial"",""time""
""fullscreenenter"",""5"",""14942""
","
","
","""event"",""trial"",""time""
""fullscreenenter"",""5"",""14942""
","
",225.75499999220483,NA,49,NA,NA,3000,1,NA,NA,images/tutgreenplanet.jpg,images/tutalien1,images/tutalien2,null,images/tutalien2,images/t.png,NA,practice,null,NA,NA,NA,NA,sub12
d3-animate-choice,41,220941,0.0-41.0,FALSE,FALSE,FALSE,FALSE,"""event"",""trial"",""time""
""fullscreenenter"",""5"",""14942""
","
","
","""event"",""trial"",""time""
""fullscreenenter"",""5"",""14942""
","
",200.87499999499414,NA,49,NA,NA,3000,1,NA,NA,images/tutgreenplanet.jpg,images/tutalien1,images/tutalien2,null,images/tutalien2,images/t.png,NA,practice,null,NA,NA,NA,NA,sub12
d3-animate-choice,42,223158,0.0-42.0,FALSE,FALSE,FALSE,FALSE,"""event"",""trial"",""time""
""fullscreenenter"",""5"",""14942""
","
","
","""event"",""trial"",""time""
""fullscreenenter"",""5"",""14942""
","
",215.1400000002468,NA,49,NA,NA,3000,1,NA,NA,images/tutgreenplanet.jpg,images/tutalien1,images/tutalien2,null,images/tutalien2,images/t.png,NA,practice,null,NA,NA,NA,NA,sub12
d3-animate-choice,43,225370,0.0-43.0,FALSE,FALSE,FALSE,FALSE,"""event"",""trial"",""time""
""fullscreenenter"",""5"",""14942""
","
","
","""event"",""trial"",""time""
""fullscreenenter"",""5"",""14942""
","
",210.20000000135042,NA,49,NA,NA,3000,1,NA,NA,images/tutgreenplanet.jpg,images/tutalien1,images/tutalien2,null,images/tutalien2,images/t.png,NA,practice,null,NA,NA,NA,NA,sub12
d3-instructions,44,239573,0.0-44.0,FALSE,FALSE,FALSE,FALSE,"""event"",""trial"",""time""
""fullscreenenter"",""5"",""14942""
","
","
","""event"",""trial"",""time""
""fullscreenenter"",""5"",""14942""
","
",NA,NA,NA,NA,NA,NA,NA,NA,NA,NA,NA,NA,NA,NA,NA,NA,NA,NA,NA,NA,NA,NA,sub12
d3-instructions,45,245491,0.0-45.0,FALSE,FALSE,FALSE,FALSE,"""event"",""trial"",""time""
""fullscreenenter"",""5"",""14942""
","
","
","""event"",""trial"",""time""
""fullscreenenter"",""5"",""14942""
","
",NA,NA,NA,NA,NA,NA,NA,NA,NA,NA,NA,NA,NA,NA,NA,NA,NA,NA,NA,NA,NA,NA,sub12
d3-instructions,46,249688,0.0-46.0,FALSE,FALSE,FALSE,FALSE,"""event"",""trial"",""time""
""fullscreenenter"",""5"",""14942""
","
","
","""event"",""trial"",""time""
""fullscreenenter"",""5"",""14942""
","
",NA,NA,NA,NA,NA,NA,NA,NA,NA,NA,NA,NA,NA,NA,NA,NA,NA,NA,NA,NA,NA,NA,sub12
d3-instructions,47,265684,0.0-47.0,FALSE,FALSE,FALSE,FALSE,"""event"",""trial"",""time""
""fullscreenenter"",""5"",""14942""
","
","
","""event"",""trial"",""time""
""fullscreenenter"",""5"",""14942""
","
",NA,NA,NA,NA,NA,NA,NA,NA,NA,NA,NA,NA,NA,NA,NA,NA,NA,NA,NA,NA,NA,NA,sub12
d3-instructions,48,271464,0.0-48.0,FALSE,FALSE,FALSE,FALSE,"""event"",""trial"",""time""
""fullscreenenter"",""5"",""14942""
","
","
","""event"",""trial"",""time""
""fullscreenenter"",""5"",""14942""
","
",NA,NA,NA,NA,NA,NA,NA,NA,NA,NA,NA,NA,NA,NA,NA,NA,NA,NA,NA,NA,NA,NA,sub12
d3-instructions,49,282012,0.0-49.0,FALSE,FALSE,FALSE,FALSE,"""event"",""trial"",""time""
""fullscreenenter"",""5"",""14942""
","
","
","""event"",""trial"",""time""
""fullscreenenter"",""5"",""14942""
","
",NA,NA,NA,NA,NA,NA,NA,NA,NA,NA,NA,NA,NA,NA,NA,NA,NA,NA,NA,NA,NA,NA,sub12
d3-instructions,50,290154,0.0-50.0,FALSE,FALSE,FALSE,FALSE,"""event"",""trial"",""time""
""fullscreenenter"",""5"",""14942""
","
","
","""event"",""trial"",""time""
""fullscreenenter"",""5"",""14942""
","
",NA,NA,NA,NA,NA,NA,NA,NA,NA,NA,NA,NA,NA,NA,NA,NA,NA,NA,NA,NA,NA,NA,sub12
d3-instructions,51,292084,0.0-51.0,FALSE,FALSE,FALSE,FALSE,"""event"",""trial"",""time""
""fullscreenenter"",""5"",""14942""
","
","
","""event"",""trial"",""time""
""fullscreenenter"",""5"",""14942""
","
",NA,NA,NA,NA,NA,NA,NA,NA,NA,NA,NA,NA,NA,NA,NA,NA,NA,NA,NA,NA,NA,NA,sub12
d3-instructions,52,293739,0.0-52.0,FALSE,FALSE,FALSE,FALSE,"""event"",""trial"",""time""
""fullscreenenter"",""5"",""14942""
","
","
","""event"",""trial"",""time""
""fullscreenenter"",""5"",""14942""
","
",NA,NA,NA,NA,NA,NA,NA,NA,NA,NA,NA,NA,NA,NA,NA,NA,NA,NA,NA,NA,NA,NA,sub12
d3-instructions,53,304677,0.0-53.0,FALSE,FALSE,FALSE,FALSE,"""event"",""trial"",""time""
""fullscreenenter"",""5"",""14942""
","
","
","""event"",""trial"",""time""
""fullscreenenter"",""5"",""14942""
","
",NA,NA,NA,NA,NA,NA,NA,NA,NA,NA,NA,NA,NA,NA,NA,NA,NA,NA,NA,NA,NA,NA,sub12
d3-instructions,54,316755,0.0-54.0,FALSE,FALSE,FALSE,FALSE,"""event"",""trial"",""time""
""fullscreenenter"",""5"",""14942""
","
","
","""event"",""trial"",""time""
""fullscreenenter"",""5"",""14942""
","
",NA,NA,NA,NA,NA,NA,NA,NA,NA,NA,NA,NA,NA,NA,NA,NA,NA,NA,NA,NA,NA,NA,sub12
d3-instructions,55,326339,0.0-55.0,FALSE,FALSE,FALSE,FALSE,"""event"",""trial"",""time""
""fullscreenenter"",""5"",""14942""
","
","
","""event"",""trial"",""time""
""fullscreenenter"",""5"",""14942""
","
",NA,NA,NA,NA,NA,NA,NA,NA,NA,NA,NA,NA,NA,NA,NA,NA,NA,NA,NA,NA,NA,NA,sub12
d3-instructions,56,334197,0.0-56.0,FALSE,FALSE,FALSE,FALSE,"""event"",""trial"",""time""
""fullscreenenter"",""5"",""14942""
","
","
","""event"",""trial"",""time""
""fullscreenenter"",""5"",""14942""
","
",NA,NA,NA,NA,NA,NA,NA,NA,NA,NA,NA,NA,NA,NA,NA,NA,NA,NA,NA,NA,NA,NA,sub12
d3-instructions,57,343349,0.0-57.0,FALSE,FALSE,FALSE,FALSE,"""event"",""trial"",""time""
""fullscreenenter"",""5"",""14942""
","
","
","""event"",""trial"",""time""
""fullscreenenter"",""5"",""14942""
","
",NA,NA,NA,NA,NA,NA,NA,NA,NA,NA,NA,NA,NA,NA,NA,NA,NA,NA,NA,NA,NA,NA,sub12
d3-instructions,58,353513,0.0-58.0,FALSE,FALSE,FALSE,FALSE,"""event"",""trial"",""time""
""fullscreenenter"",""5"",""14942""
","
","
","""event"",""trial"",""time""
""fullscreenenter"",""5"",""14942""
","
",NA,NA,NA,NA,NA,NA,NA,NA,NA,NA,NA,NA,NA,NA,NA,NA,NA,NA,NA,NA,NA,NA,sub12
d3-instructions,59,357653,0.0-59.0,FALSE,FALSE,FALSE,FALSE,"""event"",""trial"",""time""
""fullscreenenter"",""5"",""14942""
","
","
","""event"",""trial"",""time""
""fullscreenenter"",""5"",""14942""
","
",NA,NA,NA,NA,NA,NA,NA,NA,NA,NA,NA,NA,NA,NA,NA,NA,NA,NA,NA,NA,NA,NA,sub12
d3-instructions,60,363971,0.0-60.0,FALSE,FALSE,FALSE,FALSE,"""event"",""trial"",""time""
""fullscreenenter"",""5"",""14942""
","
","
","""event"",""trial"",""time""
""fullscreenenter"",""5"",""14942""
","
",NA,NA,NA,NA,NA,NA,NA,NA,NA,NA,NA,NA,NA,NA,NA,NA,NA,NA,NA,NA,NA,NA,sub12
d3-animate-choice,61,366745,0.0-61.0-0.0,FALSE,FALSE,FALSE,FALSE,"""event"",""trial"",""time""
""fullscreenenter"",""5"",""14942""
","
","
","""event"",""trial"",""time""
""fullscreenenter"",""5"",""14942""
","
",771.2499999906868,NA,49,NA,NA,3000,1,NA,NA,images/earth.jpg,images/tutrocket2,images/tutrocket1,null,images/tutrocket1,NA,1,practice,null,1,NA,NA,NA,sub12
d3-animate-choice,62,369613,0.0-61.0-1.0,FALSE,FALSE,FALSE,FALSE,"""event"",""trial"",""time""
""fullscreenenter"",""5"",""14942""
","
","
","""event"",""trial"",""time""
""fullscreenenter"",""5"",""14942""
","
",865.0000000052387,NA,48,NA,NA,3000,1,NA,NA,images/tutyellowplanet.jpg,images/tutalien4,images/tutalien3,images/tutrocket1,images/tutalien4,images/nothing.png,2,practice,true,2,common,0,2020-06-14T23:24:15Z,sub12
two-step-fixation,63,370616,0.0-61.0-2.0,FALSE,FALSE,FALSE,FALSE,"""event"",""trial"",""time""
""fullscreenenter"",""5"",""14942""
","
","
","""event"",""trial"",""time""
""fullscreenenter"",""5"",""14942""
","
",NA,images/earth.jpg,NA,NA,NA,NA,NA,NA,NA,NA,NA,NA,NA,NA,NA,fixation,NA,NA,NA,NA,NA,NA,sub12
d3-animate-choice,64,373655,0.0-61.0-0.1,FALSE,FALSE,FALSE,FALSE,"""event"",""trial"",""time""
""fullscreenenter"",""5"",""14942""
","
","
","""event"",""trial"",""time""
""fullscreenenter"",""5"",""14942""
","
",1036.4450000051875,NA,48,NA,NA,3000,1,NA,NA,images/earth.jpg,images/tutrocket2,images/tutrocket1,null,images/tutrocket2,NA,1,practice,null,2,NA,NA,NA,sub12
d3-animate-choice,65,376688,0.0-61.0-1.1,FALSE,FALSE,FALSE,FALSE,"""event"",""trial"",""time""
""fullscreenenter"",""5"",""14942""
","
","
","""event"",""trial"",""time""
""fullscreenenter"",""5"",""14942""
","
",1030.9549999947194,NA,48,NA,NA,3000,1,NA,NA,images/tutgreenplanet.jpg,images/tutalien2,images/tutalien1,images/tutrocket2,images/tutalien2,images/t.png,2,practice,true,2,common,1,2020-06-14T23:24:22Z,sub12
two-step-fixation,66,377690,0.0-61.0-2.1,FALSE,FALSE,FALSE,FALSE,"""event"",""trial"",""time""
""fullscreenenter"",""5"",""14942""
","
","
","""event"",""trial"",""time""
""fullscreenenter"",""5"",""14942""
","
",NA,images/earth.jpg,NA,NA,NA,NA,NA,NA,NA,NA,NA,NA,NA,NA,NA,fixation,NA,NA,NA,NA,NA,NA,sub12
d3-animate-choice,67,380204,0.0-61.0-0.2,FALSE,FALSE,FALSE,FALSE,"""event"",""trial"",""time""
""fullscreenenter"",""5"",""14942""
","
","
","""event"",""trial"",""time""
""fullscreenenter"",""5"",""14942""
","
",511.87499999650754,NA,48,NA,NA,3000,1,NA,NA,images/earth.jpg,images/tutrocket2,images/tutrocket1,null,images/tutrocket2,NA,1,practice,null,2,NA,NA,NA,sub12
d3-animate-choice,68,382582,0.0-61.0-1.2,FALSE,FALSE,FALSE,FALSE,"""event"",""trial"",""time""
""fullscreenenter"",""5"",""14942""
","
","
","""event"",""trial"",""time""
""fullscreenenter"",""5"",""14942""
","
",375.61999999161344,NA,48,NA,NA,3000,1,NA,NA,images/tutgreenplanet.jpg,images/tutalien2,images/tutalien1,images/tutrocket2,images/tutalien2,images/nothing.png,2,practice,true,2,common,0,2020-06-14T23:24:28Z,sub12
two-step-fixation,69,383584,0.0-61.0-2.2,FALSE,FALSE,FALSE,FALSE,"""event"",""trial"",""time""
""fullscreenenter"",""5"",""14942""
","
","
","""event"",""trial"",""time""
""fullscreenenter"",""5"",""14942""
","
",NA,images/earth.jpg,NA,NA,NA,NA,NA,NA,NA,NA,NA,NA,NA,NA,NA,fixation,NA,NA,NA,NA,NA,NA,sub12
d3-animate-choice,70,385855,0.0-61.0-0.3,FALSE,FALSE,FALSE,FALSE,"""event"",""trial"",""time""
""fullscreenenter"",""5"",""14942""
","
","
","""event"",""trial"",""time""
""fullscreenenter"",""5"",""14942""
","
",268.5500000079628,NA,48,NA,NA,3000,1,NA,NA,images/earth.jpg,images/tutrocket2,images/tutrocket1,null,images/tutrocket2,NA,1,practice,null,2,NA,NA,NA,sub12
d3-animate-choice,71,388647,0.0-61.0-1.3,FALSE,FALSE,FALSE,FALSE,"""event"",""trial"",""time""
""fullscreenenter"",""5"",""14942""
","
","
","""event"",""trial"",""time""
""fullscreenenter"",""5"",""14942""
","
",789.5450000069104,NA,49,NA,NA,3000,1,NA,NA,images/tutyellowplanet.jpg,images/tutalien4,images/tutalien3,images/tutrocket2,images/tutalien3,images/nothing.png,2,practice,false,1,rare,0,2020-06-14T23:24:34Z,sub12
two-step-fixation,72,389649,0.0-61.0-2.3,FALSE,FALSE,FALSE,FALSE,"""event"",""trial"",""time""
""fullscreenenter"",""5"",""14942""
","
","
","""event"",""trial"",""time""
""fullscreenenter"",""5"",""14942""
","
",NA,images/earth.jpg,NA,NA,NA,NA,NA,NA,NA,NA,NA,NA,NA,NA,NA,fixation,NA,NA,NA,NA,NA,NA,sub12
d3-animate-choice,73,392034,0.0-61.0-0.4,FALSE,FALSE,FALSE,FALSE,"""event"",""trial"",""time""
""fullscreenenter"",""5"",""14942""
","
","
","""event"",""trial"",""time""
""fullscreenenter"",""5"",""14942""
","
",382.58499999938067,NA,48,NA,NA,3000,1,NA,NA,images/earth.jpg,images/tutrocket2,images/tutrocket1,null,images/tutrocket2,NA,1,practice,null,2,NA,NA,NA,sub12
d3-animate-choice,74,395128,0.0-61.0-1.4,FALSE,FALSE,FALSE,FALSE,"""event"",""trial"",""time""
""fullscreenenter"",""5"",""14942""
","
","
","""event"",""trial"",""time""
""fullscreenenter"",""5"",""14942""
","
",1091.534999999567,NA,48,NA,NA,3000,1,NA,NA,images/tutyellowplanet.jpg,images/tutalien4,images/tutalien3,images/tutrocket2,images/tutalien4,images/t.png,2,practice,false,2,rare,1,2020-06-14T23:24:40Z,sub12
two-step-fixation,75,396130,0.0-61.0-2.4,FALSE,FALSE,FALSE,FALSE,"""event"",""trial"",""time""
""fullscreenenter"",""5"",""14942""
","
","
","""event"",""trial"",""time""
""fullscreenenter"",""5"",""14942""
","
",NA,images/earth.jpg,NA,NA,NA,NA,NA,NA,NA,NA,NA,NA,NA,NA,NA,fixation,NA,NA,NA,NA,NA,NA,sub12
d3-animate-choice,76,398613,0.0-61.0-0.5,FALSE,FALSE,FALSE,FALSE,"""event"",""trial"",""time""
""fullscreenenter"",""5"",""14942""
","
","
","""event"",""trial"",""time""
""fullscreenenter"",""5"",""14942""
","
",480.4299999959767,NA,48,NA,NA,3000,1,NA,NA,images/earth.jpg,images/tutrocket2,images/tutrocket1,null,images/tutrocket2,NA,1,practice,null,2,NA,NA,NA,sub12
d3-animate-choice,77,401373,0.0-61.0-1.5,FALSE,FALSE,FALSE,FALSE,"""event"",""trial"",""time""
""fullscreenenter"",""5"",""14942""
","
","
","""event"",""trial"",""time""
""fullscreenenter"",""5"",""14942""
","
",758.0199999938486,NA,49,NA,NA,3000,1,NA,NA,images/tutgreenplanet.jpg,images/tutalien2,images/tutalien1,images/tutrocket2,images/tutalien1,images/nothing.png,2,practice,true,1,common,0,2020-06-14T23:24:46Z,sub12
two-step-fixation,78,402374,0.0-61.0-2.5,FALSE,FALSE,FALSE,FALSE,"""event"",""trial"",""time""
""fullscreenenter"",""5"",""14942""
","
","
","""event"",""trial"",""time""
""fullscreenenter"",""5"",""14942""
","
",NA,images/earth.jpg,NA,NA,NA,NA,NA,NA,NA,NA,NA,NA,NA,NA,NA,fixation,NA,NA,NA,NA,NA,NA,sub12
d3-animate-choice,79,404636,0.0-61.0-0.6,FALSE,FALSE,FALSE,FALSE,"""event"",""trial"",""time""
""fullscreenenter"",""5"",""14942""
","
","
","""event"",""trial"",""time""
""fullscreenenter"",""5"",""14942""
","
",258.7599999969825,NA,48,NA,NA,3000,1,NA,NA,images/earth.jpg,images/tutrocket2,images/tutrocket1,null,images/tutrocket2,NA,1,practice,null,2,NA,NA,NA,sub12
d3-animate-choice,80,407240,0.0-61.0-1.6,FALSE,FALSE,FALSE,FALSE,"""event"",""trial"",""time""
""fullscreenenter"",""5"",""14942""
","
","
","""event"",""trial"",""time""
""fullscreenenter"",""5"",""14942""
","
",601.859999995213,NA,49,NA,NA,3000,1,NA,NA,images/tutgreenplanet.jpg,images/tutalien2,images/tutalien1,images/tutrocket2,images/tutalien1,images/t.png,2,practice,true,1,common,1,2020-06-14T23:24:52Z,sub12
two-step-fixation,81,408242,0.0-61.0-2.6,FALSE,FALSE,FALSE,FALSE,"""event"",""trial"",""time""
""fullscreenenter"",""5"",""14942""
","
","
","""event"",""trial"",""time""
""fullscreenenter"",""5"",""14942""
","
",NA,images/earth.jpg,NA,NA,NA,NA,NA,NA,NA,NA,NA,NA,NA,NA,NA,fixation,NA,NA,NA,NA,NA,NA,sub12
d3-animate-choice,82,410541,0.0-61.0-0.7,FALSE,FALSE,FALSE,FALSE,"""event"",""trial"",""time""
""fullscreenenter"",""5"",""14942""
","
","
","""event"",""trial"",""time""
""fullscreenenter"",""5"",""14942""
","
",297.69500000111293,NA,48,NA,NA,3000,1,NA,NA,images/earth.jpg,images/tutrocket2,images/tutrocket1,null,images/tutrocket2,NA,1,practice,null,2,NA,NA,NA,sub12
d3-animate-choice,83,412966,0.0-61.0-1.7,FALSE,FALSE,FALSE,FALSE,"""event"",""trial"",""time""
""fullscreenenter"",""5"",""14942""
","
","
","""event"",""trial"",""time""
""fullscreenenter"",""5"",""14942""
","
",421.8200000032084,NA,49,NA,NA,3000,1,NA,NA,images/tutyellowplanet.jpg,images/tutalien4,images/tutalien3,images/tutrocket2,images/tutalien3,images/nothing.png,2,practice,false,1,rare,0,2020-06-14T23:24:58Z,sub12
two-step-fixation,84,413967,0.0-61.0-2.7,FALSE,FALSE,FALSE,FALSE,"""event"",""trial"",""time""
""fullscreenenter"",""5"",""14942""
","
","
","""event"",""trial"",""time""
""fullscreenenter"",""5"",""14942""
","
",NA,images/earth.jpg,NA,NA,NA,NA,NA,NA,NA,NA,NA,NA,NA,NA,NA,fixation,NA,NA,NA,NA,NA,NA,sub12
d3-animate-choice,85,416310,0.0-61.0-0.8,FALSE,FALSE,FALSE,FALSE,"""event"",""trial"",""time""
""fullscreenenter"",""5"",""14942""
","
","
","""event"",""trial"",""time""
""fullscreenenter"",""5"",""14942""
","
",339.98000000428874,NA,48,NA,NA,3000,1,NA,NA,images/earth.jpg,images/tutrocket2,images/tutrocket1,null,images/tutrocket2,NA,1,practice,null,2,NA,NA,NA,sub12
d3-animate-choice,86,419145,0.0-61.0-1.8,FALSE,FALSE,FALSE,FALSE,"""event"",""trial"",""time""
""fullscreenenter"",""5"",""14942""
","
","
","""event"",""trial"",""time""
""fullscreenenter"",""5"",""14942""
","
",831.480000008014,NA,48,NA,NA,3000,1,NA,NA,images/tutyellowplanet.jpg,images/tutalien4,images/tutalien3,images/tutrocket2,images/tutalien4,images/t.png,2,practice,false,2,rare,1,2020-06-14T23:25:04Z,sub12
two-step-fixation,87,420146,0.0-61.0-2.8,FALSE,FALSE,FALSE,FALSE,"""event"",""trial"",""time""
""fullscreenenter"",""5"",""14942""
","
","
","""event"",""trial"",""time""
""fullscreenenter"",""5"",""14942""
","
",NA,images/earth.jpg,NA,NA,NA,NA,NA,NA,NA,NA,NA,NA,NA,NA,NA,fixation,NA,NA,NA,NA,NA,NA,sub12
d3-animate-choice,88,422417,0.0-61.0-0.9,FALSE,FALSE,FALSE,FALSE,"""event"",""trial"",""time""
""fullscreenenter"",""5"",""14942""
","
","
","""event"",""trial"",""time""
""fullscreenenter"",""5"",""14942""
","
",268.51500000339,NA,49,NA,NA,3000,1,NA,NA,images/earth.jpg,images/tutrocket2,images/tutrocket1,null,images/tutrocket1,NA,1,practice,null,1,NA,NA,NA,sub12
d3-animate-choice,89,425216,0.0-61.0-1.9,FALSE,FALSE,FALSE,FALSE,"""event"",""trial"",""time""
""fullscreenenter"",""5"",""14942""
","
","
","""event"",""trial"",""time""
""fullscreenenter"",""5"",""14942""
","
",797.3449999990407,NA,48,NA,NA,3000,1,NA,NA,images/tutyellowplanet.jpg,images/tutalien4,images/tutalien3,images/tutrocket1,images/tutalien4,images/nothing.png,2,practice,true,2,common,0,2020-06-14T23:25:10Z,sub12
two-step-fixation,90,426218,0.0-61.0-2.9,FALSE,FALSE,FALSE,FALSE,"""event"",""trial"",""time""
""fullscreenenter"",""5"",""14942""
","
","
","""event"",""trial"",""time""
""fullscreenenter"",""5"",""14942""
","
",NA,images/earth.jpg,NA,NA,NA,NA,NA,NA,NA,NA,NA,NA,NA,NA,NA,fixation,NA,NA,NA,NA,NA,NA,sub12
d3-animate-choice,91,428602,0.0-61.0-0.10,FALSE,FALSE,FALSE,FALSE,"""event"",""trial"",""time""
""fullscreenenter"",""5"",""14942""
","
","
","""event"",""trial"",""time""
""fullscreenenter"",""5"",""14942""
","
",380.6100000074366,NA,49,NA,NA,3000,1,NA,NA,images/earth.jpg,images/tutrocket2,images/tutrocket1,null,images/tutrocket1,NA,1,practice,null,1,NA,NA,NA,sub12
d3-animate-choice,92,431156,0.0-61.0-1.10,FALSE,FALSE,FALSE,FALSE,"""event"",""trial"",""time""
""fullscreenenter"",""5"",""14942""
","
","
","""event"",""trial"",""time""
""fullscreenenter"",""5"",""14942""
","
",552.5899999920512,NA,48,NA,NA,3000,1,NA,NA,images/tutyellowplanet.jpg,images/tutalien4,images/tutalien3,images/tutrocket1,images/tutalien4,images/nothing.png,2,practice,true,2,common,0,2020-06-14T23:25:16Z,sub12
two-step-fixation,93,432158,0.0-61.0-2.10,FALSE,FALSE,FALSE,FALSE,"""event"",""trial"",""time""
""fullscreenenter"",""5"",""14942""
","
","
","""event"",""trial"",""time""
""fullscreenenter"",""5"",""14942""
","
",NA,images/earth.jpg,NA,NA,NA,NA,NA,NA,NA,NA,NA,NA,NA,NA,NA,fixation,NA,NA,NA,NA,NA,NA,sub12
d3-animate-choice,94,434389,0.0-61.0-0.11,FALSE,FALSE,FALSE,FALSE,"""event"",""trial"",""time""
""fullscreenenter"",""5"",""14942""
","
","
","""event"",""trial"",""time""
""fullscreenenter"",""5"",""14942""
","
",228.64000000117812,NA,48,NA,NA,3000,1,NA,NA,images/earth.jpg,images/tutrocket2,images/tutrocket1,null,images/tutrocket2,NA,1,practice,null,2,NA,NA,NA,sub12
d3-animate-choice,95,437268,0.0-61.0-1.11,FALSE,FALSE,FALSE,FALSE,"""event"",""trial"",""time""
""fullscreenenter"",""5"",""14942""
","
","
","""event"",""trial"",""time""
""fullscreenenter"",""5"",""14942""
","
",875.850000011269,NA,48,NA,NA,3000,1,NA,NA,images/tutgreenplanet.jpg,images/tutalien2,images/tutalien1,images/tutrocket2,images/tutalien2,images/nothing.png,2,practice,true,2,common,0,2020-06-14T23:25:22Z,sub12
two-step-fixation,96,438270,0.0-61.0-2.11,FALSE,FALSE,FALSE,FALSE,"""event"",""trial"",""time""
""fullscreenenter"",""5"",""14942""
","
","
","""event"",""trial"",""time""
""fullscreenenter"",""5"",""14942""
","
",NA,images/earth.jpg,NA,NA,NA,NA,NA,NA,NA,NA,NA,NA,NA,NA,NA,fixation,NA,NA,NA,NA,NA,NA,sub12
d3-animate-choice,97,440551,0.0-61.0-0.12,FALSE,FALSE,FALSE,FALSE,"""event"",""trial"",""time""
""fullscreenenter"",""5"",""14942""
","
","
","""event"",""trial"",""time""
""fullscreenenter"",""5"",""14942""
","
",279.3649999948684,NA,48,NA,NA,3000,1,NA,NA,images/earth.jpg,images/tutrocket2,images/tutrocket1,null,images/tutrocket2,NA,1,practice,null,2,NA,NA,NA,sub12
d3-animate-choice,98,442974,0.0-61.0-1.12,FALSE,FALSE,FALSE,FALSE,"""event"",""trial"",""time""
""fullscreenenter"",""5"",""14942""
","
","
","""event"",""trial"",""time""
""fullscreenenter"",""5"",""14942""
","
",421.12499999348074,NA,49,NA,NA,3000,1,NA,NA,images/tutyellowplanet.jpg,images/tutalien4,images/tutalien3,images/tutrocket2,images/tutalien3,images/nothing.png,2,practice,false,1,rare,0,2020-06-14T23:25:28Z,sub12
two-step-fixation,99,443976,0.0-61.0-2.12,FALSE,FALSE,FALSE,FALSE,"""event"",""trial"",""time""
""fullscreenenter"",""5"",""14942""
","
","
","""event"",""trial"",""time""
""fullscreenenter"",""5"",""14942""
","
",NA,images/earth.jpg,NA,NA,NA,NA,NA,NA,NA,NA,NA,NA,NA,NA,NA,fixation,NA,NA,NA,NA,NA,NA,sub12
d3-animate-choice,100,446167,0.0-61.0-0.13,FALSE,FALSE,FALSE,FALSE,"""event"",""trial"",""time""
""fullscreenenter"",""5"",""14942""
","
","
","""event"",""trial"",""time""
""fullscreenenter"",""5"",""14942""
","
",187.29000000166707,NA,48,NA,NA,3000,1,NA,NA,images/earth.jpg,images/tutrocket2,images/tutrocket1,null,images/tutrocket2,NA,1,practice,null,2,NA,NA,NA,sub12
d3-animate-choice,101,448841,0.0-61.0-1.13,FALSE,FALSE,FALSE,FALSE,"""event"",""trial"",""time""
""fullscreenenter"",""5"",""14942""
","
","
","""event"",""trial"",""time""
""fullscreenenter"",""5"",""14942""
","
",672.420000002603,NA,49,NA,NA,3000,1,NA,NA,images/tutgreenplanet.jpg,images/tutalien2,images/tutalien1,images/tutrocket2,images/tutalien1,images/nothing.png,2,practice,true,1,common,0,2020-06-14T23:25:34Z,sub12
two-step-fixation,102,449843,0.0-61.0-2.13,FALSE,FALSE,FALSE,FALSE,"""event"",""trial"",""time""
""fullscreenenter"",""5"",""14942""
","
","
","""event"",""trial"",""time""
""fullscreenenter"",""5"",""14942""
","
",NA,images/earth.jpg,NA,NA,NA,NA,NA,NA,NA,NA,NA,NA,NA,NA,NA,fixation,NA,NA,NA,NA,NA,NA,sub12
d3-animate-choice,103,453183,0.0-61.0-0.14,FALSE,FALSE,FALSE,FALSE,"""event"",""trial"",""time""
""fullscreenenter"",""5"",""14942""
","
","
","""event"",""trial"",""time""
""fullscreenenter"",""5"",""14942""
","
",1338.0299999989802,NA,49,NA,NA,3000,1,NA,NA,images/earth.jpg,images/tutrocket2,images/tutrocket1,null,images/tutrocket1,NA,1,practice,null,1,NA,NA,NA,sub12
d3-animate-choice,104,455832,0.0-61.0-1.14,FALSE,FALSE,FALSE,FALSE,"""event"",""trial"",""time""
""fullscreenenter"",""5"",""14942""
","
","
","""event"",""trial"",""time""
""fullscreenenter"",""5"",""14942""
","
",646.4950000081444,NA,48,NA,NA,3000,1,NA,NA,images/tutyellowplanet.jpg,images/tutalien4,images/tutalien3,images/tutrocket1,images/tutalien4,images/t.png,2,practice,true,2,common,1,2020-06-14T23:25:41Z,sub12
two-step-fixation,105,456834,0.0-61.0-2.14,FALSE,FALSE,FALSE,FALSE,"""event"",""trial"",""time""
""fullscreenenter"",""5"",""14942""
","
","
","""event"",""trial"",""time""
""fullscreenenter"",""5"",""14942""
","
",NA,images/earth.jpg,NA,NA,NA,NA,NA,NA,NA,NA,NA,NA,NA,NA,NA,fixation,NA,NA,NA,NA,NA,NA,sub12
d3-animate-choice,106,459298,0.0-61.0-0.15,FALSE,FALSE,FALSE,FALSE,"""event"",""trial"",""time""
""fullscreenenter"",""5"",""14942""
","
","
","""event"",""trial"",""time""
""fullscreenenter"",""5"",""14942""
","
",461.85500000137836,NA,49,NA,NA,3000,1,NA,NA,images/earth.jpg,images/tutrocket2,images/tutrocket1,null,images/tutrocket1,NA,1,practice,null,1,NA,NA,NA,sub12
d3-animate-choice,107,462458,0.0-61.0-1.15,FALSE,FALSE,FALSE,FALSE,"""event"",""trial"",""time""
""fullscreenenter"",""5"",""14942""
","
","
","""event"",""trial"",""time""
""fullscreenenter"",""5"",""14942""
","
",1157.6550000027055,NA,48,NA,NA,3000,1,NA,NA,images/tutgreenplanet.jpg,images/tutalien2,images/tutalien1,images/tutrocket1,images/tutalien2,images/nothing.png,2,practice,false,2,rare,0,2020-06-14T23:25:48Z,sub12
two-step-fixation,108,463460,0.0-61.0-2.15,FALSE,FALSE,FALSE,FALSE,"""event"",""trial"",""time""
""fullscreenenter"",""5"",""14942""
","
","
","""event"",""trial"",""time""
""fullscreenenter"",""5"",""14942""
","
",NA,images/earth.jpg,NA,NA,NA,NA,NA,NA,NA,NA,NA,NA,NA,NA,NA,fixation,NA,NA,NA,NA,NA,NA,sub12
d3-animate-choice,109,465786,0.0-61.0-0.16,FALSE,FALSE,FALSE,FALSE,"""event"",""trial"",""time""
""fullscreenenter"",""5"",""14942""
","
","
","""event"",""trial"",""time""
""fullscreenenter"",""5"",""14942""
","
",324.30499998736195,NA,49,NA,NA,3000,1,NA,NA,images/earth.jpg,images/tutrocket2,images/tutrocket1,null,images/tutrocket1,NA,1,practice,null,1,NA,NA,NA,sub12
d3-animate-choice,110,468268,0.0-61.0-1.16,FALSE,FALSE,FALSE,FALSE,"""event"",""trial"",""time""
""fullscreenenter"",""5"",""14942""
","
","
","""event"",""trial"",""time""
""fullscreenenter"",""5"",""14942""
","
",479.2149999993853,NA,48,NA,NA,3000,1,NA,NA,images/tutyellowplanet.jpg,images/tutalien4,images/tutalien3,images/tutrocket1,images/tutalien4,images/nothing.png,2,practice,true,2,common,0,2020-06-14T23:25:53Z,sub12
two-step-fixation,111,469270,0.0-61.0-2.16,FALSE,FALSE,FALSE,FALSE,"""event"",""trial"",""time""
""fullscreenenter"",""5"",""14942""
","
","
","""event"",""trial"",""time""
""fullscreenenter"",""5"",""14942""
","
",NA,images/earth.jpg,NA,NA,NA,NA,NA,NA,NA,NA,NA,NA,NA,NA,NA,fixation,NA,NA,NA,NA,NA,NA,sub12
d3-animate-choice,112,471843,0.0-61.0-0.17,FALSE,FALSE,FALSE,FALSE,"""event"",""trial"",""time""
""fullscreenenter"",""5"",""14942""
","
","
","""event"",""trial"",""time""
""fullscreenenter"",""5"",""14942""
","
",571.59999999566935,NA,48,NA,NA,3000,1,NA,NA,images/earth.jpg,images/tutrocket2,images/tutrocket1,null,images/tutrocket2,NA,1,practice,null,2,NA,NA,NA,sub12
d3-animate-choice,113,474199,0.0-61.0-1.17,FALSE,FALSE,FALSE,FALSE,"""event"",""trial"",""time""
""fullscreenenter"",""5"",""14942""
","
","
","""event"",""trial"",""time""
""fullscreenenter"",""5"",""14942""
","
",353.6949999979697,NA,49,NA,NA,3000,1,NA,NA,images/tutgreenplanet.jpg,images/tutalien2,images/tutalien1,images/tutrocket2,images/tutalien1,images/nothing.png,2,practice,true,1,common,0,2020-06-14T23:25:59Z,sub12
two-step-fixation,114,475201,0.0-61.0-2.17,FALSE,FALSE,FALSE,FALSE,"""event"",""trial"",""time""
""fullscreenenter"",""5"",""14942""
","
","
","""event"",""trial"",""time""
""fullscreenenter"",""5"",""14942""
","
",NA,images/earth.jpg,NA,NA,NA,NA,NA,NA,NA,NA,NA,NA,NA,NA,NA,fixation,NA,NA,NA,NA,NA,NA,sub12
d3-animate-choice,115,477979,0.0-61.0-0.18,FALSE,FALSE,FALSE,FALSE,"""event"",""trial"",""time""
""fullscreenenter"",""5"",""14942""
","
","
","""event"",""trial"",""time""
""fullscreenenter"",""5"",""14942""
","
",775.6200000003446,NA,48,NA,NA,3000,1,NA,NA,images/earth.jpg,images/tutrocket2,images/tutrocket1,null,images/tutrocket2,NA,1,practice,null,2,NA,NA,NA,sub12
d3-animate-choice,116,480482,0.0-61.0-1.18,FALSE,FALSE,FALSE,FALSE,"""event"",""trial"",""time""
""fullscreenenter"",""5"",""14942""
","
","
","""event"",""trial"",""time""
""fullscreenenter"",""5"",""14942""
","
",500.7099999929778,NA,49,NA,NA,3000,1,NA,NA,images/tutgreenplanet.jpg,images/tutalien2,images/tutalien1,images/tutrocket2,images/tutalien1,images/t.png,2,practice,true,1,common,1,2020-06-14T23:26:06Z,sub12
two-step-fixation,117,481485,0.0-61.0-2.18,FALSE,FALSE,FALSE,FALSE,"""event"",""trial"",""time""
""fullscreenenter"",""5"",""14942""
","
","
","""event"",""trial"",""time""
""fullscreenenter"",""5"",""14942""
","
",NA,images/earth.jpg,NA,NA,NA,NA,NA,NA,NA,NA,NA,NA,NA,NA,NA,fixation,NA,NA,NA,NA,NA,NA,sub12
d3-animate-choice,118,483845,0.0-61.0-0.19,FALSE,FALSE,FALSE,FALSE,"""event"",""trial"",""time""
""fullscreenenter"",""5"",""14942""
","
","
","""event"",""trial"",""time""
""fullscreenenter"",""5"",""14942""
","
",357.6150000008056,NA,48,NA,NA,3000,1,NA,NA,images/earth.jpg,images/tutrocket2,images/tutrocket1,null,images/tutrocket2,NA,1,practice,null,2,NA,NA,NA,sub12
d3-animate-choice,119,486294,0.0-61.0-1.19,FALSE,FALSE,FALSE,FALSE,"""event"",""trial"",""time""
""fullscreenenter"",""5"",""14942""
","
","
","""event"",""trial"",""time""
""fullscreenenter"",""5"",""14942""
","
",447.2700000042096,NA,49,NA,NA,3000,1,NA,NA,images/tutgreenplanet.jpg,images/tutalien2,images/tutalien1,images/tutrocket2,images/tutalien1,images/nothing.png,2,practice,true,1,common,0,2020-06-14T23:26:11Z,sub12
two-step-fixation,120,487296,0.0-61.0-2.19,FALSE,FALSE,FALSE,FALSE,"""event"",""trial"",""time""
""fullscreenenter"",""5"",""14942""
","
","
","""event"",""trial"",""time""
""fullscreenenter"",""5"",""14942""
","
",NA,images/earth.jpg,NA,NA,NA,NA,NA,NA,NA,NA,NA,NA,NA,NA,NA,fixation,NA,NA,NA,NA,NA,NA,sub12
d3-instructions,121,493119,0.0-62.0,FALSE,FALSE,FALSE,FALSE,"""event"",""trial"",""time""
""fullscreenenter"",""5"",""14942""
","
","
","""event"",""trial"",""time""
""fullscreenenter"",""5"",""14942""
","
",NA,NA,NA,NA,NA,NA,NA,NA,NA,NA,NA,NA,NA,NA,NA,NA,NA,NA,NA,NA,NA,NA,sub12
audio-keyboard-response,122,496742,0.0-63.0,FALSE,FALSE,FALSE,FALSE,"""event"",""trial"",""time""
""fullscreenenter"",""5"",""14942""
","
","
","""event"",""trial"",""time""
""fullscreenenter"",""5"",""14942""
","
",3621,audio/instructions/treasure_feedback.wav,32,NA,NA,NA,NA,NA,NA,NA,NA,NA,NA,NA,NA,NA,NA,NA,NA,NA,NA,NA,sub12
d3-instructions,123,515263,0.0-64.0,FALSE,FALSE,FALSE,FALSE,"""event"",""trial"",""time""
""fullscreenenter"",""5"",""14942""
","
","
","""event"",""trial"",""time""
""fullscreenenter"",""5"",""14942""
","
",NA,NA,NA,NA,NA,NA,NA,NA,NA,NA,NA,NA,NA,NA,NA,NA,NA,NA,NA,NA,NA,NA,sub12
d3-instructions,124,529861,0.0-65.0,FALSE,FALSE,FALSE,FALSE,"""event"",""trial"",""time""
""fullscreenenter"",""5"",""14942""
","
","
","""event"",""trial"",""time""
""fullscreenenter"",""5"",""14942""
","
",NA,NA,NA,NA,NA,NA,NA,NA,NA,NA,NA,NA,NA,NA,NA,NA,NA,NA,NA,NA,NA,NA,sub12
d3-instructions,125,553945,0.0-66.0,FALSE,FALSE,FALSE,FALSE,"""event"",""trial"",""time""
""fullscreenenter"",""5"",""14942""
","
","
","""event"",""trial"",""time""
""fullscreenenter"",""5"",""14942""
","
",NA,NA,NA,NA,NA,NA,NA,NA,NA,NA,NA,NA,NA,NA,NA,NA,NA,NA,NA,NA,NA,NA,sub12
d3-instructions,126,570251,0.0-67.0,FALSE,FALSE,FALSE,FALSE,"""event"",""trial"",""time""
""fullscreenenter"",""5"",""14942""
","
","
","""event"",""trial"",""time""
""fullscreenenter"",""5"",""14942""
","
",NA,NA,NA,NA,NA,NA,NA,NA,NA,NA,NA,NA,NA,NA,NA,NA,NA,NA,NA,NA,NA,NA,sub12
d3-instructions,127,574938,0.0-68.0,FALSE,FALSE,FALSE,FALSE,"""event"",""trial"",""time""
""fullscreenenter"",""5"",""14942""
","
","
","""event"",""trial"",""time""
""fullscreenenter"",""5"",""14942""
","
",NA,NA,NA,NA,NA,NA,NA,NA,NA,NA,NA,NA,NA,NA,NA,NA,NA,NA,NA,NA,NA,NA,sub12
instructions-quiz,128,579006,0.0-69.0,FALSE,FALSE,FALSE,FALSE,"""event"",""trial"",""time""
""fullscreenenter"",""5"",""14942""
","
","
","""event"",""trial"",""time""
""fullscreenenter"",""5"",""14942""
","
",4066.2349999911385,audio/quiz/Q1_Prompt.wav,NA,1,NA,NA,NA,NA,NA,NA,NA,NA,NA,NA,NA,NA,NA,NA,NA,NA,NA,NA,sub12
audio-keyboard-response,129,580587,0.0-70.0,FALSE,FALSE,FALSE,FALSE,"""event"",""trial"",""time""
""fullscreenenter"",""5"",""14942""
","
","
","""event"",""trial"",""time""
""fullscreenenter"",""5"",""14942""
","
",1579,audio/quiz/Q1_Correct.wav,32,NA,NA,NA,NA,NA,NA,NA,NA,NA,NA,NA,NA,NA,NA,NA,NA,NA,NA,NA,sub12
instructions-quiz,130,586170,0.0-71.0,FALSE,FALSE,FALSE,FALSE,"""event"",""trial"",""time""
""fullscreenenter"",""5"",""14942""
","
","
","""event"",""trial"",""time""
""fullscreenenter"",""5"",""14942""
","
",5582.234999994398,audio/quiz/Q2_Prompt.wav,NA,0,NA,NA,NA,NA,NA,NA,NA,NA,NA,NA,NA,NA,NA,NA,NA,NA,NA,NA,sub12
audio-keyboard-response,131,587137,0.0-72.0,FALSE,FALSE,FALSE,FALSE,"""event"",""trial"",""time""
""fullscreenenter"",""5"",""14942""
","
","
","""event"",""trial"",""time""
""fullscreenenter"",""5"",""14942""
","
",971,audio/quiz/Q2_Correct.wav,32,NA,NA,NA,NA,NA,NA,NA,NA,NA,NA,NA,NA,NA,NA,NA,NA,NA,NA,NA,sub12
instructions-quiz,132,590692,0.0-73.0,FALSE,FALSE,FALSE,FALSE,"""event"",""trial"",""time""
""fullscreenenter"",""5"",""14942""
","
","
","""event"",""trial"",""time""
""fullscreenenter"",""5"",""14942""
","
",3554.340000002412,audio/quiz/Q3_Prompt.wav,NA,1,NA,NA,NA,NA,NA,NA,NA,NA,NA,NA,NA,NA,NA,NA,NA,NA,NA,NA,sub12
audio-keyboard-response,133,591306,0.0-74.0,FALSE,FALSE,FALSE,FALSE,"""event"",""trial"",""time""
""fullscreenenter"",""5"",""14942""
","
","
","""event"",""trial"",""time""
""fullscreenenter"",""5"",""14942""
","
",608,audio/quiz/Q3_Correct.wav,32,NA,NA,NA,NA,NA,NA,NA,NA,NA,NA,NA,NA,NA,NA,NA,NA,NA,NA,NA,sub12
d3-instructions,134,604562,0.0-75.0,FALSE,FALSE,FALSE,FALSE,"""event"",""trial"",""time""
""fullscreenenter"",""5"",""14942""
","
","
","""event"",""trial"",""time""
""fullscreenenter"",""5"",""14942""
","
",NA,NA,NA,NA,NA,NA,NA,NA,NA,NA,NA,NA,NA,NA,NA,NA,NA,NA,NA,NA,NA,NA,sub12
d3-animate-choice,135,607126,0.0-76.0-0.0,FALSE,FALSE,FALSE,FALSE,"""event"",""trial"",""time""
""fullscreenenter"",""5"",""14942""
","
","
","""event"",""trial"",""time""
""fullscreenenter"",""5"",""14942""
","
",561.3799999991897,NA,49,NA,NA,3000,1,NA,NA,images/earth.jpg,images/rocket1,images/rocket2,null,images/rocket2,NA,1,real,null,1,NA,NA,NA,sub12
d3-animate-choice,136,609847,0.0-76.0-1.0,FALSE,FALSE,FALSE,FALSE,"""event"",""trial"",""time""
""fullscreenenter"",""5"",""14942""
","
","
","""event"",""trial"",""time""
""fullscreenenter"",""5"",""14942""
","
",718.3850000001257,NA,49,NA,NA,3000,1,NA,NA,images/redplanet1.jpg,images/alien2,images/alien1,images/rocket2,images/alien1,images/t.png,2,real,true,1,common,1,2020-06-14T23:28:15Z,sub12
two-step-fixation,137,610849,0.0-76.0-2.0,FALSE,FALSE,FALSE,FALSE,"""event"",""trial"",""time""
""fullscreenenter"",""5"",""14942""
","
","
","""event"",""trial"",""time""
""fullscreenenter"",""5"",""14942""
","
",NA,images/earth.jpg,NA,NA,NA,NA,NA,NA,NA,NA,NA,NA,NA,NA,NA,fixation,NA,NA,NA,NA,NA,NA,sub12
d3-animate-choice,138,613164,0.0-76.0-0.1,FALSE,FALSE,FALSE,FALSE,"""event"",""trial"",""time""
""fullscreenenter"",""5"",""14942""
","
","
","""event"",""trial"",""time""
""fullscreenenter"",""5"",""14942""
","
",313.0400000081863,NA,49,NA,NA,3000,1,NA,NA,images/earth.jpg,images/rocket1,images/rocket2,null,images/rocket2,NA,1,real,null,1,NA,NA,NA,sub12
d3-animate-choice,139,615600,0.0-76.0-1.1,FALSE,FALSE,FALSE,FALSE,"""event"",""trial"",""time""
""fullscreenenter"",""5"",""14942""
","
","
","""event"",""trial"",""time""
""fullscreenenter"",""5"",""14942""
","
",433.629999999539,NA,49,NA,NA,3000,1,NA,NA,images/redplanet1.jpg,images/alien2,images/alien1,images/rocket2,images/alien1,images/nothing.png,2,real,true,1,common,0,2020-06-14T23:28:21Z,sub12
two-step-fixation,140,616602,0.0-76.0-2.1,FALSE,FALSE,FALSE,FALSE,"""event"",""trial"",""time""
""fullscreenenter"",""5"",""14942""
","
","
","""event"",""trial"",""time""
""fullscreenenter"",""5"",""14942""
","
",NA,images/earth.jpg,NA,NA,NA,NA,NA,NA,NA,NA,NA,NA,NA,NA,NA,fixation,NA,NA,NA,NA,NA,NA,sub12
d3-animate-choice,141,618841,0.0-76.0-0.2,FALSE,FALSE,FALSE,FALSE,"""event"",""trial"",""time""
""fullscreenenter"",""5"",""14942""
","
","
","""event"",""trial"",""time""
""fullscreenenter"",""5"",""14942""
","
",237.11000000184868,NA,49,NA,NA,3000,1,NA,NA,images/earth.jpg,images/rocket1,images/rocket2,null,images/rocket2,NA,1,real,null,1,NA,NA,NA,sub12
d3-animate-choice,142,621104,0.0-76.0-1.2,FALSE,FALSE,FALSE,FALSE,"""event"",""trial"",""time""
""fullscreenenter"",""5"",""14942""
","
","
","""event"",""trial"",""time""
""fullscreenenter"",""5"",""14942""
","
",260.9599999996135,NA,49,NA,NA,3000,1,NA,NA,images/redplanet1.jpg,images/alien2,images/alien1,images/rocket2,images/alien1,images/nothing.png,2,real,true,1,common,0,2020-06-14T23:28:26Z,sub12
two-step-fixation,143,622105,0.0-76.0-2.2,FALSE,FALSE,FALSE,FALSE,"""event"",""trial"",""time""
""fullscreenenter"",""5"",""14942""
","
","
","""event"",""trial"",""time""
""fullscreenenter"",""5"",""14942""
","
",NA,images/earth.jpg,NA,NA,NA,NA,NA,NA,NA,NA,NA,NA,NA,NA,NA,fixation,NA,NA,NA,NA,NA,NA,sub12
d3-animate-choice,144,624486,0.0-76.0-0.3,FALSE,FALSE,FALSE,FALSE,"""event"",""trial"",""time""
""fullscreenenter"",""5"",""14942""
","
","
","""event"",""trial"",""time""
""fullscreenenter"",""5"",""14942""
","
",378.30499999108724,NA,49,NA,NA,3000,1,NA,NA,images/earth.jpg,images/rocket1,images/rocket2,null,images/rocket2,NA,1,real,null,1,NA,NA,NA,sub12
d3-animate-choice,145,626969,0.0-76.0-1.3,FALSE,FALSE,FALSE,FALSE,"""event"",""trial"",""time""
""fullscreenenter"",""5"",""14942""
","
","
","""event"",""trial"",""time""
""fullscreenenter"",""5"",""14942""
","
",481.0750000033295,NA,48,NA,NA,3000,1,NA,NA,images/redplanet1.jpg,images/alien2,images/alien1,images/rocket2,images/alien2,images/t.png,2,real,true,2,common,1,2020-06-14T23:28:32Z,sub12
two-step-fixation,146,627971,0.0-76.0-2.3,FALSE,FALSE,FALSE,FALSE,"""event"",""trial"",""time""
""fullscreenenter"",""5"",""14942""
","
","
","""event"",""trial"",""time""
""fullscreenenter"",""5"",""14942""
","
",NA,images/earth.jpg,NA,NA,NA,NA,NA,NA,NA,NA,NA,NA,NA,NA,NA,fixation,NA,NA,NA,NA,NA,NA,sub12
d3-animate-choice,147,630255,0.0-76.0-0.4,FALSE,FALSE,FALSE,FALSE,"""event"",""trial"",""time""
""fullscreenenter"",""5"",""14942""
","
","
","""event"",""trial"",""time""
""fullscreenenter"",""5"",""14942""
","
",282.01999999873806,NA,49,NA,NA,3000,1,NA,NA,images/earth.jpg,images/rocket1,images/rocket2,null,images/rocket2,NA,1,real,null,1,NA,NA,NA,sub12
d3-animate-choice,148,633087,0.0-76.0-1.4,FALSE,FALSE,FALSE,FALSE,"""event"",""trial"",""time""
""fullscreenenter"",""5"",""14942""
","
","
","""event"",""trial"",""time""
""fullscreenenter"",""5"",""14942""
","
",829.7650000022259,NA,48,NA,NA,3000,1,NA,NA,images/purpleplanet.jpg,images/alien4,images/alien3,images/rocket2,images/alien4,images/t.png,2,real,false,2,rare,1,2020-06-14T23:28:38Z,sub12
two-step-fixation,149,634089,0.0-76.0-2.4,FALSE,FALSE,FALSE,FALSE,"""event"",""trial"",""time""
""fullscreenenter"",""5"",""14942""
","
","
","""event"",""trial"",""time""
""fullscreenenter"",""5"",""14942""
","
",NA,images/earth.jpg,NA,NA,NA,NA,NA,NA,NA,NA,NA,NA,NA,NA,NA,fixation,NA,NA,NA,NA,NA,NA,sub12
d3-animate-choice,150,636390,0.0-76.0-0.5,FALSE,FALSE,FALSE,FALSE,"""event"",""trial"",""time""
""fullscreenenter"",""5"",""14942""
","
","
","""event"",""trial"",""time""
""fullscreenenter"",""5"",""14942""
","
",298.6499999969965,NA,48,NA,NA,3000,1,NA,NA,images/earth.jpg,images/rocket1,images/rocket2,null,images/rocket1,NA,1,real,null,2,NA,NA,NA,sub12
d3-animate-choice,151,638743,0.0-76.0-1.5,FALSE,FALSE,FALSE,FALSE,"""event"",""trial"",""time""
""fullscreenenter"",""5"",""14942""
","
","
","""event"",""trial"",""time""
""fullscreenenter"",""5"",""14942""
","
",350.4899999970803,NA,48,NA,NA,3000,1,NA,NA,images/purpleplanet.jpg,images/alien4,images/alien3,images/rocket1,images/alien4,images/t.png,2,real,true,2,common,1,2020-06-14T23:28:44Z,sub12
two-step-fixation,152,639745,0.0-76.0-2.5,FALSE,FALSE,FALSE,FALSE,"""event"",""trial"",""time""
""fullscreenenter"",""5"",""14942""
","
","
","""event"",""trial"",""time""
""fullscreenenter"",""5"",""14942""
","
",NA,images/earth.jpg,NA,NA,NA,NA,NA,NA,NA,NA,NA,NA,NA,NA,NA,fixation,NA,NA,NA,NA,NA,NA,sub12
d3-animate-choice,153,641971,0.0-76.0-0.6,FALSE,FALSE,FALSE,FALSE,"""event"",""trial"",""time""
""fullscreenenter"",""5"",""14942""
","
","
","""event"",""trial"",""time""
""fullscreenenter"",""5"",""14942""
","
",223.7299999978859,NA,48,NA,NA,3000,1,NA,NA,images/earth.jpg,images/rocket1,images/rocket2,null,images/rocket1,NA,1,real,null,2,NA,NA,NA,sub12
d3-animate-choice,154,644238,0.0-76.0-1.6,FALSE,FALSE,FALSE,FALSE,"""event"",""trial"",""time""
""fullscreenenter"",""5"",""14942""
","
","
","""event"",""trial"",""time""
""fullscreenenter"",""5"",""14942""
","
",264.61500000732485,NA,48,NA,NA,3000,1,NA,NA,images/purpleplanet.jpg,images/alien4,images/alien3,images/rocket1,images/alien4,images/nothing.png,2,real,true,2,common,0,2020-06-14T23:28:49Z,sub12
two-step-fixation,155,645241,0.0-76.0-2.6,FALSE,FALSE,FALSE,FALSE,"""event"",""trial"",""time""
""fullscreenenter"",""5"",""14942""
","
","
","""event"",""trial"",""time""
""fullscreenenter"",""5"",""14942""
","
",NA,images/earth.jpg,NA,NA,NA,NA,NA,NA,NA,NA,NA,NA,NA,NA,NA,fixation,NA,NA,NA,NA,NA,NA,sub12
d3-animate-choice,156,647452,0.0-76.0-0.7,FALSE,FALSE,FALSE,FALSE,"""event"",""trial"",""time""
""fullscreenenter"",""5"",""14942""
","
","
","""event"",""trial"",""time""
""fullscreenenter"",""5"",""14942""
","
",208.70499999728054,NA,48,NA,NA,3000,1,NA,NA,images/earth.jpg,images/rocket1,images/rocket2,null,images/rocket1,NA,1,real,null,2,NA,NA,NA,sub12
d3-animate-choice,157,649773,0.0-76.0-1.7,FALSE,FALSE,FALSE,FALSE,"""event"",""trial"",""time""
""fullscreenenter"",""5"",""14942""
","
","
","""event"",""trial"",""time""
""fullscreenenter"",""5"",""14942""
","
",318.7750000070082,NA,48,NA,NA,3000,1,NA,NA,images/purpleplanet.jpg,images/alien4,images/alien3,images/rocket1,images/alien4,images/t.png,2,real,true,2,common,1,2020-06-14T23:28:55Z,sub12
two-step-fixation,158,650775,0.0-76.0-2.7,FALSE,FALSE,FALSE,FALSE,"""event"",""trial"",""time""
""fullscreenenter"",""5"",""14942""
","
","
","""event"",""trial"",""time""
""fullscreenenter"",""5"",""14942""
","
",NA,images/earth.jpg,NA,NA,NA,NA,NA,NA,NA,NA,NA,NA,NA,NA,NA,fixation,NA,NA,NA,NA,NA,NA,sub12
d3-animate-choice,159,653048,0.0-76.0-0.8,FALSE,FALSE,FALSE,FALSE,"""event"",""trial"",""time""
""fullscreenenter"",""5"",""14942""
","
","
","""event"",""trial"",""time""
""fullscreenenter"",""5"",""14942""
","
",271.02499999455176,NA,48,NA,NA,3000,1,NA,NA,images/earth.jpg,images/rocket1,images/rocket2,null,images/rocket1,NA,1,real,null,2,NA,NA,NA,sub12
d3-animate-choice,160,655565,0.0-76.0-1.8,FALSE,FALSE,FALSE,FALSE,"""event"",""trial"",""time""
""fullscreenenter"",""5"",""14942""
","
","
","""event"",""trial"",""time""
""fullscreenenter"",""5"",""14942""
","
",514.9200000014389,NA,48,NA,NA,3000,1,NA,NA,images/purpleplanet.jpg,images/alien4,images/alien3,images/rocket1,images/alien4,images/t.png,2,real,true,2,common,1,2020-06-14T23:29:01Z,sub12
two-step-fixation,161,656567,0.0-76.0-2.8,FALSE,FALSE,FALSE,FALSE,"""event"",""trial"",""time""
""fullscreenenter"",""5"",""14942""
","
","
","""event"",""trial"",""time""
""fullscreenenter"",""5"",""14942""
","
",NA,images/earth.jpg,NA,NA,NA,NA,NA,NA,NA,NA,NA,NA,NA,NA,NA,fixation,NA,NA,NA,NA,NA,NA,sub12
d3-animate-choice,162,658901,0.0-76.0-0.9,FALSE,FALSE,FALSE,FALSE,"""event"",""trial"",""time""
""fullscreenenter"",""5"",""14942""
","
","
","""event"",""trial"",""time""
""fullscreenenter"",""5"",""14942""
","
",331.65500000177417,NA,48,NA,NA,3000,1,NA,NA,images/earth.jpg,images/rocket1,images/rocket2,null,images/rocket1,NA,1,real,null,2,NA,NA,NA,sub12
d3-animate-choice,163,661270,0.0-76.0-1.9,FALSE,FALSE,FALSE,FALSE,"""event"",""trial"",""time""
""fullscreenenter"",""5"",""14942""
","
","
","""event"",""trial"",""time""
""fullscreenenter"",""5"",""14942""
","
",366.665000008652,NA,48,NA,NA,3000,1,NA,NA,images/purpleplanet.jpg,images/alien4,images/alien3,images/rocket1,images/alien4,images/t.png,2,real,true,2,common,1,2020-06-14T23:29:06Z,sub12
two-step-fixation,164,662272,0.0-76.0-2.9,FALSE,FALSE,FALSE,FALSE,"""event"",""trial"",""time""
""fullscreenenter"",""5"",""14942""
","
","
","""event"",""trial"",""time""
""fullscreenenter"",""5"",""14942""
","
",NA,images/earth.jpg,NA,NA,NA,NA,NA,NA,NA,NA,NA,NA,NA,NA,NA,fixation,NA,NA,NA,NA,NA,NA,sub12
d3-animate-choice,165,664533,0.0-76.0-0.10,FALSE,FALSE,FALSE,FALSE,"""event"",""trial"",""time""
""fullscreenenter"",""5"",""14942""
","
","
","""event"",""trial"",""time""
""fullscreenenter"",""5"",""14942""
","
",258.6699999956181,NA,48,NA,NA,3000,1,NA,NA,images/earth.jpg,images/rocket1,images/rocket2,null,images/rocket1,NA,1,real,null,2,NA,NA,NA,sub12
d3-animate-choice,166,666894,0.0-76.0-1.10,FALSE,FALSE,FALSE,FALSE,"""event"",""trial"",""time""
""fullscreenenter"",""5"",""14942""
","
","
","""event"",""trial"",""time""
""fullscreenenter"",""5"",""14942""
","
",359.9700000049779,NA,48,NA,NA,3000,1,NA,NA,images/purpleplanet.jpg,images/alien4,images/alien3,images/rocket1,images/alien4,images/t.png,2,real,true,2,common,1,2020-06-14T23:29:12Z,sub12
two-step-fixation,167,667896,0.0-76.0-2.10,FALSE,FALSE,FALSE,FALSE,"""event"",""trial"",""time""
""fullscreenenter"",""5"",""14942""
","
","
","""event"",""trial"",""time""
""fullscreenenter"",""5"",""14942""
","
",NA,images/earth.jpg,NA,NA,NA,NA,NA,NA,NA,NA,NA,NA,NA,NA,NA,fixation,NA,NA,NA,NA,NA,NA,sub12
d3-animate-choice,168,670185,0.0-76.0-0.11,FALSE,FALSE,FALSE,FALSE,"""event"",""trial"",""time""
""fullscreenenter"",""5"",""14942""
","
","
","""event"",""trial"",""time""
""fullscreenenter"",""5"",""14942""
","
",286.0499999951571,NA,48,NA,NA,3000,1,NA,NA,images/earth.jpg,images/rocket1,images/rocket2,null,images/rocket1,NA,1,real,null,2,NA,NA,NA,sub12
d3-animate-choice,169,672680,0.0-76.0-1.11,FALSE,FALSE,FALSE,FALSE,"""event"",""trial"",""time""
""fullscreenenter"",""5"",""14942""
","
","
","""event"",""trial"",""time""
""fullscreenenter"",""5"",""14942""
","
",493.15999999816995,NA,48,NA,NA,3000,1,NA,NA,images/redplanet1.jpg,images/alien2,images/alien1,images/rocket1,images/alien2,images/nothing.png,2,real,false,2,rare,0,2020-06-14T23:29:18Z,sub12
two-step-fixation,170,673682,0.0-76.0-2.11,FALSE,FALSE,FALSE,FALSE,"""event"",""trial"",""time""
""fullscreenenter"",""5"",""14942""
","
","
","""event"",""trial"",""time""
""fullscreenenter"",""5"",""14942""
","
",NA,images/earth.jpg,NA,NA,NA,NA,NA,NA,NA,NA,NA,NA,NA,NA,NA,fixation,NA,NA,NA,NA,NA,NA,sub12
d3-animate-choice,171,676137,0.0-76.0-0.12,FALSE,FALSE,FALSE,FALSE,"""event"",""trial"",""time""
""fullscreenenter"",""5"",""14942""
","
","
","""event"",""trial"",""time""
""fullscreenenter"",""5"",""14942""
","
",453.04500000202097,NA,48,NA,NA,3000,1,NA,NA,images/earth.jpg,images/rocket1,images/rocket2,null,images/rocket1,NA,1,real,null,2,NA,NA,NA,sub12
d3-animate-choice,172,678425,0.0-76.0-1.12,FALSE,FALSE,FALSE,FALSE,"""event"",""trial"",""time""
""fullscreenenter"",""5"",""14942""
","
","
","""event"",""trial"",""time""
""fullscreenenter"",""5"",""14942""
","
",285.5449999915436,NA,48,NA,NA,3000,1,NA,NA,images/purpleplanet.jpg,images/alien4,images/alien3,images/rocket1,images/alien4,images/nothing.png,2,real,true,2,common,0,2020-06-14T23:29:24Z,sub12
two-step-fixation,173,679428,0.0-76.0-2.12,FALSE,FALSE,FALSE,FALSE,"""event"",""trial"",""time""
""fullscreenenter"",""5"",""14942""
","
","
","""event"",""trial"",""time""
""fullscreenenter"",""5"",""14942""
","
",NA,images/earth.jpg,NA,NA,NA,NA,NA,NA,NA,NA,NA,NA,NA,NA,NA,fixation,NA,NA,NA,NA,NA,NA,sub12
d3-animate-choice,174,681798,0.0-76.0-0.13,FALSE,FALSE,FALSE,FALSE,"""event"",""trial"",""time""
""fullscreenenter"",""5"",""14942""
","
","
","""event"",""trial"",""time""
""fullscreenenter"",""5"",""14942""
","
",367.27499999688007,NA,48,NA,NA,3000,1,NA,NA,images/earth.jpg,images/rocket1,images/rocket2,null,images/rocket1,NA,1,real,null,2,NA,NA,NA,sub12
d3-animate-choice,175,684326,0.0-76.0-1.13,FALSE,FALSE,FALSE,FALSE,"""event"",""trial"",""time""
""fullscreenenter"",""5"",""14942""
","
","
","""event"",""trial"",""time""
""fullscreenenter"",""5"",""14942""
","
",525.5449999967823,NA,48,NA,NA,3000,1,NA,NA,images/purpleplanet.jpg,images/alien4,images/alien3,images/rocket1,images/alien4,images/t.png,2,real,true,2,common,1,2020-06-14T23:29:29Z,sub12
two-step-fixation,176,685328,0.0-76.0-2.13,FALSE,FALSE,FALSE,FALSE,"""event"",""trial"",""time""
""fullscreenenter"",""5"",""14942""
","
","
","""event"",""trial"",""time""
""fullscreenenter"",""5"",""14942""
","
",NA,images/earth.jpg,NA,NA,NA,NA,NA,NA,NA,NA,NA,NA,NA,NA,NA,fixation,NA,NA,NA,NA,NA,NA,sub12
d3-animate-choice,177,687892,0.0-76.0-0.14,FALSE,FALSE,FALSE,FALSE,"""event"",""trial"",""time""
""fullscreenenter"",""5"",""14942""
","
","
","""event"",""trial"",""time""
""fullscreenenter"",""5"",""14942""
","
",562.1350000001257,NA,48,NA,NA,3000,1,NA,NA,images/earth.jpg,images/rocket1,images/rocket2,null,images/rocket1,NA,1,real,null,2,NA,NA,NA,sub12
d3-animate-choice,178,690618,0.0-76.0-1.14,FALSE,FALSE,FALSE,FALSE,"""event"",""trial"",""time""
""fullscreenenter"",""5"",""14942""
","
","
","""event"",""trial"",""time""
""fullscreenenter"",""5"",""14942""
","
",724.5399999956135,NA,49,NA,NA,3000,1,NA,NA,images/redplanet1.jpg,images/alien2,images/alien1,images/rocket1,images/alien1,images/nothing.png,2,real,false,1,rare,0,2020-06-14T23:29:36Z,sub12
two-step-fixation,179,691620,0.0-76.0-2.14,FALSE,FALSE,FALSE,FALSE,"""event"",""trial"",""time""
""fullscreenenter"",""5"",""14942""
","
","
","""event"",""trial"",""time""
""fullscreenenter"",""5"",""14942""
","
",NA,images/earth.jpg,NA,NA,NA,NA,NA,NA,NA,NA,NA,NA,NA,NA,NA,fixation,NA,NA,NA,NA,NA,NA,sub12
d3-animate-choice,180,694085,0.0-76.0-0.15,FALSE,FALSE,FALSE,FALSE,"""event"",""trial"",""time""
""fullscreenenter"",""5"",""14942""
","
","
","""event"",""trial"",""time""
""fullscreenenter"",""5"",""14942""
","
",462.35499999602325,NA,48,NA,NA,3000,1,NA,NA,images/earth.jpg,images/rocket1,images/rocket2,null,images/rocket1,NA,1,real,null,2,NA,NA,NA,sub12
d3-animate-choice,181,696651,0.0-76.0-1.15,FALSE,FALSE,FALSE,FALSE,"""event"",""trial"",""time""
""fullscreenenter"",""5"",""14942""
","
","
","""event"",""trial"",""time""
""fullscreenenter"",""5"",""14942""
","
",563.8100000069244,NA,48,NA,NA,3000,1,NA,NA,images/purpleplanet.jpg,images/alien4,images/alien3,images/rocket1,images/alien4,images/t.png,2,real,true,2,common,1,2020-06-14T23:29:42Z,sub12
two-step-fixation,182,697653,0.0-76.0-2.15,FALSE,FALSE,FALSE,FALSE,"""event"",""trial"",""time""
""fullscreenenter"",""5"",""14942""
","
","
","""event"",""trial"",""time""
""fullscreenenter"",""5"",""14942""
","
",NA,images/earth.jpg,NA,NA,NA,NA,NA,NA,NA,NA,NA,NA,NA,NA,NA,fixation,NA,NA,NA,NA,NA,NA,sub12
d3-animate-choice,183,700139,0.0-76.0-0.16,FALSE,FALSE,FALSE,FALSE,"""event"",""trial"",""time""
""fullscreenenter"",""5"",""14942""
","
","
","""event"",""trial"",""time""
""fullscreenenter"",""5"",""14942""
","
",483.60999999567866,NA,48,NA,NA,3000,1,NA,NA,images/earth.jpg,images/rocket1,images/rocket2,null,images/rocket1,NA,1,real,null,2,NA,NA,NA,sub12
d3-animate-choice,184,703027,0.0-76.0-1.16,FALSE,FALSE,FALSE,FALSE,"""event"",""trial"",""time""
""fullscreenenter"",""5"",""14942""
","
","
","""event"",""trial"",""time""
""fullscreenenter"",""5"",""14942""
","
",886.450000005425,NA,48,NA,NA,3000,1,NA,NA,images/redplanet1.jpg,images/alien2,images/alien1,images/rocket1,images/alien2,images/t.png,2,real,false,2,rare,1,2020-06-14T23:29:48Z,sub12
two-step-fixation,185,704029,0.0-76.0-2.16,FALSE,FALSE,FALSE,FALSE,"""event"",""trial"",""time""
""fullscreenenter"",""5"",""14942""
","
","
","""event"",""trial"",""time""
""fullscreenenter"",""5"",""14942""
","
",NA,images/earth.jpg,NA,NA,NA,NA,NA,NA,NA,NA,NA,NA,NA,NA,NA,fixation,NA,NA,NA,NA,NA,NA,sub12
d3-animate-choice,186,706386,0.0-76.0-0.17,FALSE,FALSE,FALSE,FALSE,"""event"",""trial"",""time""
""fullscreenenter"",""5"",""14942""
","
","
","""event"",""trial"",""time""
""fullscreenenter"",""5"",""14942""
","
",354.670000000624,NA,48,NA,NA,3000,1,NA,NA,images/earth.jpg,images/rocket1,images/rocket2,null,images/rocket1,NA,1,real,null,2,NA,NA,NA,sub12
d3-animate-choice,187,708976,0.0-76.0-1.17,FALSE,FALSE,FALSE,FALSE,"""event"",""trial"",""time""
""fullscreenenter"",""5"",""14942""
","
","
","""event"",""trial"",""time""
""fullscreenenter"",""5"",""14942""
","
",587.9199999908451,NA,48,NA,NA,3000,1,NA,NA,images/purpleplanet.jpg,images/alien4,images/alien3,images/rocket1,images/alien4,images/t.png,2,real,true,2,common,1,2020-06-14T23:29:54Z,sub12
two-step-fixation,188,709978,0.0-76.0-2.17,FALSE,FALSE,FALSE,FALSE,"""event"",""trial"",""time""
""fullscreenenter"",""5"",""14942""
","
","
","""event"",""trial"",""time""
""fullscreenenter"",""5"",""14942""
","
",NA,images/earth.jpg,NA,NA,NA,NA,NA,NA,NA,NA,NA,NA,NA,NA,NA,fixation,NA,NA,NA,NA,NA,NA,sub12
d3-animate-choice,189,712267,0.0-76.0-0.18,FALSE,FALSE,FALSE,FALSE,"""event"",""trial"",""time""
""fullscreenenter"",""5"",""14942""
","
","
","""event"",""trial"",""time""
""fullscreenenter"",""5"",""14942""
","
",286.934999996447,NA,48,NA,NA,3000,1,NA,NA,images/earth.jpg,images/rocket1,images/rocket2,null,images/rocket1,NA,1,real,null,2,NA,NA,NA,sub12
d3-animate-choice,190,714775,0.0-76.0-1.18,FALSE,FALSE,FALSE,FALSE,"""event"",""trial"",""time""
""fullscreenenter"",""5"",""14942""
","
","
","""event"",""trial"",""time""
""fullscreenenter"",""5"",""14942""
","
",505.8649999991758,NA,48,NA,NA,3000,1,NA,NA,images/purpleplanet.jpg,images/alien4,images/alien3,images/rocket1,images/alien4,images/t.png,2,real,true,2,common,1,2020-06-14T23:30:00Z,sub12
two-step-fixation,191,715777,0.0-76.0-2.18,FALSE,FALSE,FALSE,FALSE,"""event"",""trial"",""time""
""fullscreenenter"",""5"",""14942""
","
","
","""event"",""trial"",""time""
""fullscreenenter"",""5"",""14942""
","
",NA,images/earth.jpg,NA,NA,NA,NA,NA,NA,NA,NA,NA,NA,NA,NA,NA,fixation,NA,NA,NA,NA,NA,NA,sub12
d3-animate-choice,192,718067,0.0-76.0-0.19,FALSE,FALSE,FALSE,FALSE,"""event"",""trial"",""time""
""fullscreenenter"",""5"",""14942""
","
","
","""event"",""trial"",""time""
""fullscreenenter"",""5"",""14942""
","
",287.88499999791384,NA,48,NA,NA,3000,1,NA,NA,images/earth.jpg,images/rocket1,images/rocket2,null,images/rocket1,NA,1,real,null,2,NA,NA,NA,sub12
d3-animate-choice,193,720814,0.0-76.0-1.19,FALSE,FALSE,FALSE,FALSE,"""event"",""trial"",""time""
""fullscreenenter"",""5"",""14942""
","
","
","""event"",""trial"",""time""
""fullscreenenter"",""5"",""14942""
","
",744.9150000029476,NA,49,NA,NA,3000,1,NA,NA,images/redplanet1.jpg,images/alien2,images/alien1,images/rocket1,images/alien1,images/nothing.png,2,real,false,1,rare,0,2020-06-14T23:30:06Z,sub12
two-step-fixation,194,721816,0.0-76.0-2.19,FALSE,FALSE,FALSE,FALSE,"""event"",""trial"",""time""
""fullscreenenter"",""5"",""14942""
","
","
","""event"",""trial"",""time""
""fullscreenenter"",""5"",""14942""
","
",NA,images/earth.jpg,NA,NA,NA,NA,NA,NA,NA,NA,NA,NA,NA,NA,NA,fixation,NA,NA,NA,NA,NA,NA,sub12
d3-animate-choice,195,724111,0.0-76.0-0.20,FALSE,FALSE,FALSE,FALSE,"""event"",""trial"",""time""
""fullscreenenter"",""5"",""14942""
","
","
","""event"",""trial"",""time""
""fullscreenenter"",""5"",""14942""
","
",292.6200000074459,NA,48,NA,NA,3000,1,NA,NA,images/earth.jpg,images/rocket1,images/rocket2,null,images/rocket1,NA,1,real,null,2,NA,NA,NA,sub12
d3-animate-choice,196,726752,0.0-76.0-1.20,FALSE,FALSE,FALSE,FALSE,"""event"",""trial"",""time""
""fullscreenenter"",""5"",""14942""
","
","
","""event"",""trial"",""time""
""fullscreenenter"",""5"",""14942""
","
",639.6699999895645,NA,48,NA,NA,3000,1,NA,NA,images/redplanet1.jpg,images/alien2,images/alien1,images/rocket1,images/alien2,images/nothing.png,2,real,false,2,rare,0,2020-06-14T23:30:12Z,sub12
two-step-fixation,197,727755,0.0-76.0-2.20,FALSE,FALSE,FALSE,FALSE,"""event"",""trial"",""time""
""fullscreenenter"",""5"",""14942""
","
","
","""event"",""trial"",""time""
""fullscreenenter"",""5"",""14942""
","
",NA,images/earth.jpg,NA,NA,NA,NA,NA,NA,NA,NA,NA,NA,NA,NA,NA,fixation,NA,NA,NA,NA,NA,NA,sub12
d3-animate-choice,198,730058,0.0-76.0-0.21,FALSE,FALSE,FALSE,FALSE,"""event"",""trial"",""time""
""fullscreenenter"",""5"",""14942""
","
","
","""event"",""trial"",""time""
""fullscreenenter"",""5"",""14942""
","
",299.8799999913899,NA,48,NA,NA,3000,1,NA,NA,images/earth.jpg,images/rocket1,images/rocket2,null,images/rocket1,NA,1,real,null,2,NA,NA,NA,sub12
d3-animate-choice,199,732495,0.0-76.0-1.21,FALSE,FALSE,FALSE,FALSE,"""event"",""trial"",""time""
""fullscreenenter"",""5"",""14942""
","
","
","""event"",""trial"",""time""
""fullscreenenter"",""5"",""14942""
","
",434.6700000023702,NA,48,NA,NA,3000,1,NA,NA,images/purpleplanet.jpg,images/alien4,images/alien3,images/rocket1,images/alien4,images/nothing.png,2,real,true,2,common,0,2020-06-14T23:30:18Z,sub12
two-step-fixation,200,733496,0.0-76.0-2.21,FALSE,FALSE,FALSE,FALSE,"""event"",""trial"",""time""
""fullscreenenter"",""5"",""14942""
","
","
","""event"",""trial"",""time""
""fullscreenenter"",""5"",""14942""
","
",NA,images/earth.jpg,NA,NA,NA,NA,NA,NA,NA,NA,NA,NA,NA,NA,NA,fixation,NA,NA,NA,NA,NA,NA,sub12
d3-animate-choice,201,736028,0.0-76.0-0.22,FALSE,FALSE,FALSE,FALSE,"""event"",""trial"",""time""
""fullscreenenter"",""5"",""14942""
","
","
","""event"",""trial"",""time""
""fullscreenenter"",""5"",""14942""
","
",529.2849999968894,NA,48,NA,NA,3000,1,NA,NA,images/earth.jpg,images/rocket1,images/rocket2,null,images/rocket1,NA,1,real,null,2,NA,NA,NA,sub12
d3-animate-choice,202,738846,0.0-76.0-1.22,FALSE,FALSE,FALSE,FALSE,"""event"",""trial"",""time""
""fullscreenenter"",""5"",""14942""
","
","
","""event"",""trial"",""time""
""fullscreenenter"",""5"",""14942""
","
",815.8600000024308,NA,48,NA,NA,3000,1,NA,NA,images/purpleplanet.jpg,images/alien4,images/alien3,images/rocket1,images/alien4,images/nothing.png,2,real,true,2,common,0,2020-06-14T23:30:24Z,sub12
two-step-fixation,203,739848,0.0-76.0-2.22,FALSE,FALSE,FALSE,FALSE,"""event"",""trial"",""time""
""fullscreenenter"",""5"",""14942""
","
","
","""event"",""trial"",""time""
""fullscreenenter"",""5"",""14942""
","
",NA,images/earth.jpg,NA,NA,NA,NA,NA,NA,NA,NA,NA,NA,NA,NA,NA,fixation,NA,NA,NA,NA,NA,NA,sub12
d3-animate-choice,204,742155,0.0-76.0-0.23,FALSE,FALSE,FALSE,FALSE,"""event"",""trial"",""time""
""fullscreenenter"",""5"",""14942""
","
","
","""event"",""trial"",""time""
""fullscreenenter"",""5"",""14942""
","
",306.060000002617,NA,48,NA,NA,3000,1,NA,NA,images/earth.jpg,images/rocket1,images/rocket2,null,images/rocket1,NA,1,real,null,2,NA,NA,NA,sub12
d3-animate-choice,205,744638,0.0-76.0-1.23,FALSE,FALSE,FALSE,FALSE,"""event"",""trial"",""time""
""fullscreenenter"",""5"",""14942""
","
","
","""event"",""trial"",""time""
""fullscreenenter"",""5"",""14942""
","
",481.1750000080792,NA,49,NA,NA,3000,1,NA,NA,images/purpleplanet.jpg,images/alien4,images/alien3,images/rocket1,images/alien3,images/t.png,2,real,true,1,common,1,2020-06-14T23:30:30Z,sub12
two-step-fixation,206,745640,0.0-76.0-2.23,FALSE,FALSE,FALSE,FALSE,"""event"",""trial"",""time""
""fullscreenenter"",""5"",""14942""
","
","
","""event"",""trial"",""time""
""fullscreenenter"",""5"",""14942""
","
",NA,images/earth.jpg,NA,NA,NA,NA,NA,NA,NA,NA,NA,NA,NA,NA,NA,fixation,NA,NA,NA,NA,NA,NA,sub12
d3-animate-choice,207,747912,0.0-76.0-0.24,FALSE,FALSE,FALSE,FALSE,"""event"",""trial"",""time""
""fullscreenenter"",""5"",""14942""
","
","
","""event"",""trial"",""time""
""fullscreenenter"",""5"",""14942""
","
",269.4200000114506,NA,48,NA,NA,3000,1,NA,NA,images/earth.jpg,images/rocket1,images/rocket2,null,images/rocket1,NA,1,real,null,2,NA,NA,NA,sub12
d3-animate-choice,208,750399,0.0-76.0-1.24,FALSE,FALSE,FALSE,FALSE,"""event"",""trial"",""time""
""fullscreenenter"",""5"",""14942""
","
","
","""event"",""trial"",""time""
""fullscreenenter"",""5"",""14942""
","
",485.1849999977276,NA,49,NA,NA,3000,1,NA,NA,images/purpleplanet.jpg,images/alien4,images/alien3,images/rocket1,images/alien3,images/t.png,2,real,true,1,common,1,2020-06-14T23:30:35Z,sub12
two-step-fixation,209,751402,0.0-76.0-2.24,FALSE,FALSE,FALSE,FALSE,"""event"",""trial"",""time""
""fullscreenenter"",""5"",""14942""
","
","
","""event"",""trial"",""time""
""fullscreenenter"",""5"",""14942""
","
",NA,images/earth.jpg,NA,NA,NA,NA,NA,NA,NA,NA,NA,NA,NA,NA,NA,fixation,NA,NA,NA,NA,NA,NA,sub12
d3-animate-choice,210,753717,0.0-76.0-0.25,FALSE,FALSE,FALSE,FALSE,"""event"",""trial"",""time""
""fullscreenenter"",""5"",""14942""
","
","
","""event"",""trial"",""time""
""fullscreenenter"",""5"",""14942""
","
",312.78999999631196,NA,48,NA,NA,3000,1,NA,NA,images/earth.jpg,images/rocket1,images/rocket2,null,images/rocket1,NA,1,real,null,2,NA,NA,NA,sub12
d3-animate-choice,211,756127,0.0-76.0-1.25,FALSE,FALSE,FALSE,FALSE,"""event"",""trial"",""time""
""fullscreenenter"",""5"",""14942""
","
","
","""event"",""trial"",""time""
""fullscreenenter"",""5"",""14942""
","
",408.0499999981839,NA,49,NA,NA,3000,1,NA,NA,images/purpleplanet.jpg,images/alien4,images/alien3,images/rocket1,images/alien3,images/t.png,2,real,true,1,common,1,2020-06-14T23:30:41Z,sub12
two-step-fixation,212,757129,0.0-76.0-2.25,FALSE,FALSE,FALSE,FALSE,"""event"",""trial"",""time""
""fullscreenenter"",""5"",""14942""
","
","
","""event"",""trial"",""time""
""fullscreenenter"",""5"",""14942""
","
",NA,images/earth.jpg,NA,NA,NA,NA,NA,NA,NA,NA,NA,NA,NA,NA,NA,fixation,NA,NA,NA,NA,NA,NA,sub12
d3-animate-choice,213,759354,0.0-76.0-0.26,FALSE,FALSE,FALSE,FALSE,"""event"",""trial"",""time""
""fullscreenenter"",""5"",""14942""
","
","
","""event"",""trial"",""time""
""fullscreenenter"",""5"",""14942""
","
",223.06000000389758,NA,48,NA,NA,3000,1,NA,NA,images/earth.jpg,images/rocket1,images/rocket2,null,images/rocket1,NA,1,real,null,2,NA,NA,NA,sub12
d3-animate-choice,214,762192,0.0-76.0-1.26,FALSE,FALSE,FALSE,FALSE,"""event"",""trial"",""time""
""fullscreenenter"",""5"",""14942""
","
","
","""event"",""trial"",""time""
""fullscreenenter"",""5"",""14942""
","
",836.0850000026403,NA,49,NA,NA,3000,1,NA,NA,images/redplanet1.jpg,images/alien2,images/alien1,images/rocket1,images/alien1,images/nothing.png,2,real,false,1,rare,0,2020-06-14T23:30:47Z,sub12
two-step-fixation,215,763194,0.0-76.0-2.26,FALSE,FALSE,FALSE,FALSE,"""event"",""trial"",""time""
""fullscreenenter"",""5"",""14942""
","
","
","""event"",""trial"",""time""
""fullscreenenter"",""5"",""14942""
","
",NA,images/earth.jpg,NA,NA,NA,NA,NA,NA,NA,NA,NA,NA,NA,NA,NA,fixation,NA,NA,NA,NA,NA,NA,sub12
d3-animate-choice,216,765844,0.0-76.0-0.27,FALSE,FALSE,FALSE,FALSE,"""event"",""trial"",""time""
""fullscreenenter"",""5"",""14942""
","
","
","""event"",""trial"",""time""
""fullscreenenter"",""5"",""14942""
","
",648.4400000044843,NA,48,NA,NA,3000,1,NA,NA,images/earth.jpg,images/rocket1,images/rocket2,null,images/rocket1,NA,1,real,null,2,NA,NA,NA,sub12
d3-animate-choice,217,768434,0.0-76.0-1.27,FALSE,FALSE,FALSE,FALSE,"""event"",""trial"",""time""
""fullscreenenter"",""5"",""14942""
","
","
","""event"",""trial"",""time""
""fullscreenenter"",""5"",""14942""
","
",587.1449999976903,NA,49,NA,NA,3000,1,NA,NA,images/purpleplanet.jpg,images/alien4,images/alien3,images/rocket1,images/alien3,images/nothing.png,2,real,true,1,common,0,2020-06-14T23:30:54Z,sub12
two-step-fixation,218,769436,0.0-76.0-2.27,FALSE,FALSE,FALSE,FALSE,"""event"",""trial"",""time""
""fullscreenenter"",""5"",""14942""
","
","
","""event"",""trial"",""time""
""fullscreenenter"",""5"",""14942""
","
",NA,images/earth.jpg,NA,NA,NA,NA,NA,NA,NA,NA,NA,NA,NA,NA,NA,fixation,NA,NA,NA,NA,NA,NA,sub12
d3-animate-choice,219,771888,0.0-76.0-0.28,FALSE,FALSE,FALSE,FALSE,"""event"",""trial"",""time""
""fullscreenenter"",""5"",""14942""
","
","
","""event"",""trial"",""time""
""fullscreenenter"",""5"",""14942""
","
",449.78499998978805,NA,48,NA,NA,3000,1,NA,NA,images/earth.jpg,images/rocket1,images/rocket2,null,images/rocket1,NA,1,real,null,2,NA,NA,NA,sub12
d3-animate-choice,220,774630,0.0-76.0-1.28,FALSE,FALSE,FALSE,FALSE,"""event"",""trial"",""time""
""fullscreenenter"",""5"",""14942""
","
","
","""event"",""trial"",""time""
""fullscreenenter"",""5"",""14942""
","
",739.9500000028638,NA,48,NA,NA,3000,1,NA,NA,images/redplanet1.jpg,images/alien2,images/alien1,images/rocket1,images/alien2,images/nothing.png,2,real,false,2,rare,0,2020-06-14T23:31:00Z,sub12
two-step-fixation,221,775632,0.0-76.0-2.28,FALSE,FALSE,FALSE,FALSE,"""event"",""trial"",""time""
""fullscreenenter"",""5"",""14942""
","
","
","""event"",""trial"",""time""
""fullscreenenter"",""5"",""14942""
","
",NA,images/earth.jpg,NA,NA,NA,NA,NA,NA,NA,NA,NA,NA,NA,NA,NA,fixation,NA,NA,NA,NA,NA,NA,sub12
d3-animate-choice,222,777961,0.0-76.0-0.29,FALSE,FALSE,FALSE,FALSE,"""event"",""trial"",""time""
""fullscreenenter"",""5"",""14942""
","
","
","""event"",""trial"",""time""
""fullscreenenter"",""5"",""14942""
","
",326.8849999876693,NA,48,NA,NA,3000,1,NA,NA,images/earth.jpg,images/rocket1,images/rocket2,null,images/rocket1,NA,1,real,null,2,NA,NA,NA,sub12
d3-animate-choice,223,780853,0.0-76.0-1.29,FALSE,FALSE,FALSE,FALSE,"""event"",""trial"",""time""
""fullscreenenter"",""5"",""14942""
","
","
","""event"",""trial"",""time""
""fullscreenenter"",""5"",""14942""
","
",889.7600000054808,NA,48,NA,NA,3000,1,NA,NA,images/purpleplanet.jpg,images/alien4,images/alien3,images/rocket1,images/alien4,images/nothing.png,2,real,true,2,common,0,2020-06-14T23:31:06Z,sub12
two-step-fixation,224,781854,0.0-76.0-2.29,FALSE,FALSE,FALSE,FALSE,"""event"",""trial"",""time""
""fullscreenenter"",""5"",""14942""
","
","
","""event"",""trial"",""time""
""fullscreenenter"",""5"",""14942""
","
",NA,images/earth.jpg,NA,NA,NA,NA,NA,NA,NA,NA,NA,NA,NA,NA,NA,fixation,NA,NA,NA,NA,NA,NA,sub12
d3-animate-choice,225,784197,0.0-76.0-0.30,FALSE,FALSE,FALSE,FALSE,"""event"",""trial"",""time""
""fullscreenenter"",""5"",""14942""
","
","
","""event"",""trial"",""time""
""fullscreenenter"",""5"",""14942""
","
",340.49500001128763,NA,48,NA,NA,3000,1,NA,NA,images/earth.jpg,images/rocket1,images/rocket2,null,images/rocket1,NA,1,real,null,2,NA,NA,NA,sub12
d3-animate-choice,226,787187,0.0-76.0-1.30,FALSE,FALSE,FALSE,FALSE,"""event"",""trial"",""time""
""fullscreenenter"",""5"",""14942""
","
","
","""event"",""trial"",""time""
""fullscreenenter"",""5"",""14942""
","
",987.8099999914411,NA,48,NA,NA,3000,1,NA,NA,images/redplanet1.jpg,images/alien2,images/alien1,images/rocket1,images/alien2,images/nothing.png,2,real,false,2,rare,0,2020-06-14T23:31:12Z,sub12
two-step-fixation,227,788189,0.0-76.0-2.30,FALSE,FALSE,FALSE,FALSE,"""event"",""trial"",""time""
""fullscreenenter"",""5"",""14942""
","
","
","""event"",""trial"",""time""
""fullscreenenter"",""5"",""14942""
","
",NA,images/earth.jpg,NA,NA,NA,NA,NA,NA,NA,NA,NA,NA,NA,NA,NA,fixation,NA,NA,NA,NA,NA,NA,sub12
d3-animate-choice,228,790679,0.0-76.0-0.31,FALSE,FALSE,FALSE,FALSE,"""event"",""trial"",""time""
""fullscreenenter"",""5"",""14942""
","
","
","""event"",""trial"",""time""
""fullscreenenter"",""5"",""14942""
","
",488.0600000033155,NA,48,NA,NA,3000,1,NA,NA,images/earth.jpg,images/rocket1,images/rocket2,null,images/rocket1,NA,1,real,null,2,NA,NA,NA,sub12
d3-animate-choice,229,793086,0.0-76.0-1.31,FALSE,FALSE,FALSE,FALSE,"""event"",""trial"",""time""
""fullscreenenter"",""5"",""14942""
","
","
","""event"",""trial"",""time""
""fullscreenenter"",""5"",""14942""
","
",405.12999999918975,NA,49,NA,NA,3000,1,NA,NA,images/purpleplanet.jpg,images/alien4,images/alien3,images/rocket1,images/alien3,images/t.png,2,real,true,1,common,1,2020-06-14T23:31:18Z,sub12
two-step-fixation,230,794088,0.0-76.0-2.31,FALSE,FALSE,FALSE,FALSE,"""event"",""trial"",""time""
""fullscreenenter"",""5"",""14942""
","
","
","""event"",""trial"",""time""
""fullscreenenter"",""5"",""14942""
","
",NA,images/earth.jpg,NA,NA,NA,NA,NA,NA,NA,NA,NA,NA,NA,NA,NA,fixation,NA,NA,NA,NA,NA,NA,sub12
d3-animate-choice,231,796612,0.0-76.0-0.32,FALSE,FALSE,FALSE,FALSE,"""event"",""trial"",""time""
""fullscreenenter"",""5"",""14942""
","
","
","""event"",""trial"",""time""
""fullscreenenter"",""5"",""14942""
","
",521.5549999993527,NA,48,NA,NA,3000,1,NA,NA,images/earth.jpg,images/rocket1,images/rocket2,null,images/rocket1,NA,1,real,null,2,NA,NA,NA,sub12
d3-animate-choice,232,799332,0.0-76.0-1.32,FALSE,FALSE,FALSE,FALSE,"""event"",""trial"",""time""
""fullscreenenter"",""5"",""14942""
","
","
","""event"",""trial"",""time""
""fullscreenenter"",""5"",""14942""
","
",717.2500000015134,NA,49,NA,NA,3000,1,NA,NA,images/purpleplanet.jpg,images/alien4,images/alien3,images/rocket1,images/alien3,images/nothing.png,2,real,true,1,common,0,2020-06-14T23:31:24Z,sub12
two-step-fixation,233,800334,0.0-76.0-2.32,FALSE,FALSE,FALSE,FALSE,"""event"",""trial"",""time""
""fullscreenenter"",""5"",""14942""
","
","
","""event"",""trial"",""time""
""fullscreenenter"",""5"",""14942""
","
",NA,images/earth.jpg,NA,NA,NA,NA,NA,NA,NA,NA,NA,NA,NA,NA,NA,fixation,NA,NA,NA,NA,NA,NA,sub12
d3-animate-choice,234,802658,0.0-76.0-0.33,FALSE,FALSE,FALSE,FALSE,"""event"",""trial"",""time""
""fullscreenenter"",""5"",""14942""
","
","
","""event"",""trial"",""time""
""fullscreenenter"",""5"",""14942""
","
",321.8099999940023,NA,48,NA,NA,3000,1,NA,NA,images/earth.jpg,images/rocket1,images/rocket2,null,images/rocket1,NA,1,real,null,2,NA,NA,NA,sub12
d3-animate-choice,235,805246,0.0-76.0-1.33,FALSE,FALSE,FALSE,FALSE,"""event"",""trial"",""time""
""fullscreenenter"",""5"",""14942""
","
","
","""event"",""trial"",""time""
""fullscreenenter"",""5"",""14942""
","
",585.9199999977136,NA,48,NA,NA,3000,1,NA,NA,images/purpleplanet.jpg,images/alien4,images/alien3,images/rocket1,images/alien4,images/t.png,2,real,true,2,common,1,2020-06-14T23:31:30Z,sub12
two-step-fixation,236,806248,0.0-76.0-2.33,FALSE,FALSE,FALSE,FALSE,"""event"",""trial"",""time""
""fullscreenenter"",""5"",""14942""
","
","
","""event"",""trial"",""time""
""fullscreenenter"",""5"",""14942""
","
",NA,images/earth.jpg,NA,NA,NA,NA,NA,NA,NA,NA,NA,NA,NA,NA,NA,fixation,NA,NA,NA,NA,NA,NA,sub12
d3-animate-choice,237,808496,0.0-76.0-0.34,FALSE,FALSE,FALSE,FALSE,"""event"",""trial"",""time""
""fullscreenenter"",""5"",""14942""
","
","
","""event"",""trial"",""time""
""fullscreenenter"",""5"",""14942""
","
",245.6850000016857,NA,48,NA,NA,3000,1,NA,NA,images/earth.jpg,images/rocket1,images/rocket2,null,images/rocket1,NA,1,real,null,2,NA,NA,NA,sub12
d3-animate-choice,238,810843,0.0-76.0-1.34,FALSE,FALSE,FALSE,FALSE,"""event"",""trial"",""time""
""fullscreenenter"",""5"",""14942""
","
","
","""event"",""trial"",""time""
""fullscreenenter"",""5"",""14942""
","
",345.13000000151806,NA,48,NA,NA,3000,1,NA,NA,images/purpleplanet.jpg,images/alien4,images/alien3,images/rocket1,images/alien4,images/nothing.png,2,real,true,2,common,0,2020-06-14T23:31:36Z,sub12
two-step-fixation,239,811845,0.0-76.0-2.34,FALSE,FALSE,FALSE,FALSE,"""event"",""trial"",""time""
""fullscreenenter"",""5"",""14942""
","
","
","""event"",""trial"",""time""
""fullscreenenter"",""5"",""14942""
","
",NA,images/earth.jpg,NA,NA,NA,NA,NA,NA,NA,NA,NA,NA,NA,NA,NA,fixation,NA,NA,NA,NA,NA,NA,sub12
d3-animate-choice,240,814318,0.0-76.0-0.35,FALSE,FALSE,FALSE,FALSE,"""event"",""trial"",""time""
""fullscreenenter"",""5"",""14942""
","
","
","""event"",""trial"",""time""
""fullscreenenter"",""5"",""14942""
","
",470.62999999616295,NA,48,NA,NA,3000,1,NA,NA,images/earth.jpg,images/rocket1,images/rocket2,null,images/rocket1,NA,1,real,null,2,NA,NA,NA,sub12
d3-animate-choice,241,817413,0.0-76.0-1.35,FALSE,FALSE,FALSE,FALSE,"""event"",""trial"",""time""
""fullscreenenter"",""5"",""14942""
","
","
","""event"",""trial"",""time""
""fullscreenenter"",""5"",""14942""
","
",1093.2750000065425,NA,49,NA,NA,3000,1,NA,NA,images/purpleplanet.jpg,images/alien4,images/alien3,images/rocket1,images/alien3,images/nothing.png,2,real,true,1,common,0,2020-06-14T23:31:42Z,sub12
two-step-fixation,242,818416,0.0-76.0-2.35,FALSE,FALSE,FALSE,FALSE,"""event"",""trial"",""time""
""fullscreenenter"",""5"",""14942""
","
","
","""event"",""trial"",""time""
""fullscreenenter"",""5"",""14942""
","
",NA,images/earth.jpg,NA,NA,NA,NA,NA,NA,NA,NA,NA,NA,NA,NA,NA,fixation,NA,NA,NA,NA,NA,NA,sub12
d3-animate-choice,243,820698,0.0-76.0-0.36,FALSE,FALSE,FALSE,FALSE,"""event"",""trial"",""time""
""fullscreenenter"",""5"",""14942""
","
","
","""event"",""trial"",""time""
""fullscreenenter"",""5"",""14942""
","
",280.11000000697095,NA,49,NA,NA,3000,1,NA,NA,images/earth.jpg,images/rocket1,images/rocket2,null,images/rocket2,NA,1,real,null,1,NA,NA,NA,sub12
d3-animate-choice,244,823058,0.0-76.0-1.36,FALSE,FALSE,FALSE,FALSE,"""event"",""trial"",""time""
""fullscreenenter"",""5"",""14942""
","
","
","""event"",""trial"",""time""
""fullscreenenter"",""5"",""14942""
","
",357.90000000270084,NA,49,NA,NA,3000,1,NA,NA,images/redplanet1.jpg,images/alien2,images/alien1,images/rocket2,images/alien1,images/t.png,2,real,true,1,common,1,2020-06-14T23:31:48Z,sub12
two-step-fixation,245,824060,0.0-76.0-2.36,FALSE,FALSE,FALSE,FALSE,"""event"",""trial"",""time""
""fullscreenenter"",""5"",""14942""
","
","
","""event"",""trial"",""time""
""fullscreenenter"",""5"",""14942""
","
",NA,images/earth.jpg,NA,NA,NA,NA,NA,NA,NA,NA,NA,NA,NA,NA,NA,fixation,NA,NA,NA,NA,NA,NA,sub12
d3-animate-choice,246,826361,0.0-76.0-0.37,FALSE,FALSE,FALSE,FALSE,"""event"",""trial"",""time""
""fullscreenenter"",""5"",""14942""
","
","
","""event"",""trial"",""time""
""fullscreenenter"",""5"",""14942""
","
",298.56500000460073,NA,49,NA,NA,3000,1,NA,NA,images/earth.jpg,images/rocket1,images/rocket2,null,images/rocket2,NA,1,real,null,1,NA,NA,NA,sub12
d3-animate-choice,247,829319,0.0-76.0-1.37,FALSE,FALSE,FALSE,FALSE,"""event"",""trial"",""time""
""fullscreenenter"",""5"",""14942""
","
","
","""event"",""trial"",""time""
""fullscreenenter"",""5"",""14942""
","
",955.5050000053598,NA,49,NA,NA,3000,1,NA,NA,images/purpleplanet.jpg,images/alien4,images/alien3,images/rocket2,images/alien3,images/t.png,2,real,false,1,rare,1,2020-06-14T23:31:54Z,sub12
two-step-fixation,248,830320,0.0-76.0-2.37,FALSE,FALSE,FALSE,FALSE,"""event"",""trial"",""time""
""fullscreenenter"",""5"",""14942""
","
","
","""event"",""trial"",""time""
""fullscreenenter"",""5"",""14942""
","
",NA,images/earth.jpg,NA,NA,NA,NA,NA,NA,NA,NA,NA,NA,NA,NA,NA,fixation,NA,NA,NA,NA,NA,NA,sub12
d3-animate-choice,249,832555,0.0-76.0-0.38,FALSE,FALSE,FALSE,FALSE,"""event"",""trial"",""time""
""fullscreenenter"",""5"",""14942""
","
","
","""event"",""trial"",""time""
""fullscreenenter"",""5"",""14942""
","
",232.43499999807682,NA,49,NA,NA,3000,1,NA,NA,images/earth.jpg,images/rocket1,images/rocket2,null,images/rocket2,NA,1,real,null,1,NA,NA,NA,sub12
d3-animate-choice,250,835073,0.0-76.0-1.38,FALSE,FALSE,FALSE,FALSE,"""event"",""trial"",""time""
""fullscreenenter"",""5"",""14942""
","
","
","""event"",""trial"",""time""
""fullscreenenter"",""5"",""14942""
","
",515.4900000052294,NA,49,NA,NA,3000,1,NA,NA,images/redplanet1.jpg,images/alien2,images/alien1,images/rocket2,images/alien1,images/nothing.png,2,real,true,1,common,0,2020-06-14T23:32:00Z,sub12
two-step-fixation,251,836073,0.0-76.0-2.38,FALSE,FALSE,FALSE,FALSE,"""event"",""trial"",""time""
""fullscreenenter"",""5"",""14942""
","
","
","""event"",""trial"",""time""
""fullscreenenter"",""5"",""14942""
","
",NA,images/earth.jpg,NA,NA,NA,NA,NA,NA,NA,NA,NA,NA,NA,NA,NA,fixation,NA,NA,NA,NA,NA,NA,sub12
d3-animate-choice,252,838332,0.0-76.0-0.39,FALSE,FALSE,FALSE,FALSE,"""event"",""trial"",""time""
""fullscreenenter"",""5"",""14942""
","
","
","""event"",""trial"",""time""
""fullscreenenter"",""5"",""14942""
","
",256.75000000046566,NA,49,NA,NA,3000,1,NA,NA,images/earth.jpg,images/rocket1,images/rocket2,null,images/rocket2,NA,1,real,null,1,NA,NA,NA,sub12
d3-animate-choice,253,841282,0.0-76.0-1.39,FALSE,FALSE,FALSE,FALSE,"""event"",""trial"",""time""
""fullscreenenter"",""5"",""14942""
","
","
","""event"",""trial"",""time""
""fullscreenenter"",""5"",""14942""
","
",947.5799999927403,NA,48,NA,NA,3000,1,NA,NA,images/purpleplanet.jpg,images/alien4,images/alien3,images/rocket2,images/alien4,images/t.png,2,real,false,2,rare,1,2020-06-14T23:32:06Z,sub12
two-step-fixation,254,842285,0.0-76.0-2.39,FALSE,FALSE,FALSE,FALSE,"""event"",""trial"",""time""
""fullscreenenter"",""5"",""14942""
","
","
","""event"",""trial"",""time""
""fullscreenenter"",""5"",""14942""
","
",NA,images/earth.jpg,NA,NA,NA,NA,NA,NA,NA,NA,NA,NA,NA,NA,NA,fixation,NA,NA,NA,NA,NA,NA,sub12
d3-animate-choice,255,845064,0.0-76.0-0.40,FALSE,FALSE,FALSE,FALSE,"""event"",""trial"",""time""
""fullscreenenter"",""5"",""14942""
","
","
","""event"",""trial"",""time""
""fullscreenenter"",""5"",""14942""
","
",776.8599999981234,NA,49,NA,NA,3000,1,NA,NA,images/earth.jpg,images/rocket1,images/rocket2,null,images/rocket2,NA,1,real,null,1,NA,NA,NA,sub12
d3-animate-choice,256,847611,0.0-76.0-1.40,FALSE,FALSE,FALSE,FALSE,"""event"",""trial"",""time""
""fullscreenenter"",""5"",""14942""
","
","
","""event"",""trial"",""time""
""fullscreenenter"",""5"",""14942""
","
",545.1650000031805,NA,49,NA,NA,3000,1,NA,NA,images/redplanet1.jpg,images/alien2,images/alien1,images/rocket2,images/alien1,images/t.png,2,real,true,1,common,1,2020-06-14T23:32:13Z,sub12
two-step-fixation,257,848613,0.0-76.0-2.40,FALSE,FALSE,FALSE,FALSE,"""event"",""trial"",""time""
""fullscreenenter"",""5"",""14942""
","
","
","""event"",""trial"",""time""
""fullscreenenter"",""5"",""14942""
","
",NA,images/earth.jpg,NA,NA,NA,NA,NA,NA,NA,NA,NA,NA,NA,NA,NA,fixation,NA,NA,NA,NA,NA,NA,sub12
d3-animate-choice,258,850891,0.0-76.0-0.41,FALSE,FALSE,FALSE,FALSE,"""event"",""trial"",""time""
""fullscreenenter"",""5"",""14942""
","
","
","""event"",""trial"",""time""
""fullscreenenter"",""5"",""14942""
","
",276.1250000039581,NA,49,NA,NA,3000,1,NA,NA,images/earth.jpg,images/rocket1,images/rocket2,null,images/rocket2,NA,1,real,null,1,NA,NA,NA,sub12
d3-animate-choice,259,853813,0.0-76.0-1.41,FALSE,FALSE,FALSE,FALSE,"""event"",""trial"",""time""
""fullscreenenter"",""5"",""14942""
","
","
","""event"",""trial"",""time""
""fullscreenenter"",""5"",""14942""
","
",918.6750000080792,NA,48,NA,NA,3000,1,NA,NA,images/purpleplanet.jpg,images/alien4,images/alien3,images/rocket2,images/alien4,images/nothing.png,2,real,false,2,rare,0,2020-06-14T23:32:19Z,sub12
two-step-fixation,260,854814,0.0-76.0-2.41,FALSE,FALSE,FALSE,FALSE,"""event"",""trial"",""time""
""fullscreenenter"",""5"",""14942""
","
","
","""event"",""trial"",""time""
""fullscreenenter"",""5"",""14942""
","
",NA,images/earth.jpg,NA,NA,NA,NA,NA,NA,NA,NA,NA,NA,NA,NA,NA,fixation,NA,NA,NA,NA,NA,NA,sub12
d3-animate-choice,261,857064,0.0-76.0-0.42,FALSE,FALSE,FALSE,FALSE,"""event"",""trial"",""time""
""fullscreenenter"",""5"",""14942""
","
","
","""event"",""trial"",""time""
""fullscreenenter"",""5"",""14942""
","
",247.8149999951711,NA,49,NA,NA,3000,1,NA,NA,images/earth.jpg,images/rocket1,images/rocket2,null,images/rocket2,NA,1,real,null,1,NA,NA,NA,sub12
d3-animate-choice,262,859883,0.0-76.0-1.42,FALSE,FALSE,FALSE,FALSE,"""event"",""trial"",""time""
""fullscreenenter"",""5"",""14942""
","
","
","""event"",""trial"",""time""
""fullscreenenter"",""5"",""14942""
","
",815.7900000078371,NA,49,NA,NA,3000,1,NA,NA,images/purpleplanet.jpg,images/alien4,images/alien3,images/rocket2,images/alien3,images/nothing.png,2,real,false,1,rare,0,2020-06-14T23:32:25Z,sub12
two-step-fixation,263,860884,0.0-76.0-2.42,FALSE,FALSE,FALSE,FALSE,"""event"",""trial"",""time""
""fullscreenenter"",""5"",""14942""
","
","
","""event"",""trial"",""time""
""fullscreenenter"",""5"",""14942""
","
",NA,images/earth.jpg,NA,NA,NA,NA,NA,NA,NA,NA,NA,NA,NA,NA,NA,fixation,NA,NA,NA,NA,NA,NA,sub12
d3-animate-choice,264,863201,0.0-76.0-0.43,FALSE,FALSE,FALSE,FALSE,"""event"",""trial"",""time""
""fullscreenenter"",""5"",""14942""
","
","
","""event"",""trial"",""time""
""fullscreenenter"",""5"",""14942""
","
",314.82499999401625,NA,49,NA,NA,3000,1,NA,NA,images/earth.jpg,images/rocket1,images/rocket2,null,images/rocket2,NA,1,real,null,1,NA,NA,NA,sub12
d3-animate-choice,265,866279,0.0-76.0-1.43,FALSE,FALSE,FALSE,FALSE,"""event"",""trial"",""time""
""fullscreenenter"",""5"",""14942""
","
","
","""event"",""trial"",""time""
""fullscreenenter"",""5"",""14942""
","
",1075.635000001057,NA,48,NA,NA,3000,1,NA,NA,images/redplanet1.jpg,images/alien2,images/alien1,images/rocket2,images/alien2,images/t.png,2,real,true,2,common,1,2020-06-14T23:32:31Z,sub12
two-step-fixation,266,867281,0.0-76.0-2.43,FALSE,FALSE,FALSE,FALSE,"""event"",""trial"",""time""
""fullscreenenter"",""5"",""14942""
","
","
","""event"",""trial"",""time""
""fullscreenenter"",""5"",""14942""
","
",NA,images/earth.jpg,NA,NA,NA,NA,NA,NA,NA,NA,NA,NA,NA,NA,NA,fixation,NA,NA,NA,NA,NA,NA,sub12
d3-animate-choice,267,869576,0.0-76.0-0.44,FALSE,FALSE,FALSE,FALSE,"""event"",""trial"",""time""
""fullscreenenter"",""5"",""14942""
","
","
","""event"",""trial"",""time""
""fullscreenenter"",""5"",""14942""
","
",292.96000000613276,NA,48,NA,NA,3000,1,NA,NA,images/earth.jpg,images/rocket1,images/rocket2,null,images/rocket1,NA,1,real,null,2,NA,NA,NA,sub12
d3-animate-choice,268,872362,0.0-76.0-1.44,FALSE,FALSE,FALSE,FALSE,"""event"",""trial"",""time""
""fullscreenenter"",""5"",""14942""
","
","
","""event"",""trial"",""time""
""fullscreenenter"",""5"",""14942""
","
",783.2049999997253,NA,48,NA,NA,3000,1,NA,NA,images/redplanet1.jpg,images/alien2,images/alien1,images/rocket1,images/alien2,images/nothing.png,2,real,false,2,rare,0,2020-06-14T23:32:37Z,sub12
two-step-fixation,269,873364,0.0-76.0-2.44,FALSE,FALSE,FALSE,FALSE,"""event"",""trial"",""time""
""fullscreenenter"",""5"",""14942""
","
","
","""event"",""trial"",""time""
""fullscreenenter"",""5"",""14942""
","
",NA,images/earth.jpg,NA,NA,NA,NA,NA,NA,NA,NA,NA,NA,NA,NA,NA,fixation,NA,NA,NA,NA,NA,NA,sub12
d3-animate-choice,270,875594,0.0-76.0-0.45,FALSE,FALSE,FALSE,FALSE,"""event"",""trial"",""time""
""fullscreenenter"",""5"",""14942""
","
","
","""event"",""trial"",""time""
""fullscreenenter"",""5"",""14942""
","
",227.5450000015553,NA,49,NA,NA,3000,1,NA,NA,images/earth.jpg,images/rocket1,images/rocket2,null,images/rocket2,NA,1,real,null,1,NA,NA,NA,sub12
d3-animate-choice,271,877854,0.0-76.0-1.45,FALSE,FALSE,FALSE,FALSE,"""event"",""trial"",""time""
""fullscreenenter"",""5"",""14942""
","
","
","""event"",""trial"",""time""
""fullscreenenter"",""5"",""14942""
","
",257.6300000073388,NA,49,NA,NA,3000,1,NA,NA,images/purpleplanet.jpg,images/alien4,images/alien3,images/rocket2,images/alien3,images/nothing.png,2,real,false,1,rare,0,2020-06-14T23:32:43Z,sub12
two-step-fixation,272,878856,0.0-76.0-2.45,FALSE,FALSE,FALSE,FALSE,"""event"",""trial"",""time""
""fullscreenenter"",""5"",""14942""
","
","
","""event"",""trial"",""time""
""fullscreenenter"",""5"",""14942""
","
",NA,images/earth.jpg,NA,NA,NA,NA,NA,NA,NA,NA,NA,NA,NA,NA,NA,fixation,NA,NA,NA,NA,NA,NA,sub12
d3-animate-choice,273,881078,0.0-76.0-0.46,FALSE,FALSE,FALSE,FALSE,"""event"",""trial"",""time""
""fullscreenenter"",""5"",""14942""
","
","
","""event"",""trial"",""time""
""fullscreenenter"",""5"",""14942""
","
",220.58999999717344,NA,49,NA,NA,3000,1,NA,NA,images/earth.jpg,images/rocket1,images/rocket2,null,images/rocket2,NA,1,real,null,1,NA,NA,NA,sub12
d3-animate-choice,274,883868,0.0-76.0-1.46,FALSE,FALSE,FALSE,FALSE,"""event"",""trial"",""time""
""fullscreenenter"",""5"",""14942""
","
","
","""event"",""trial"",""time""
""fullscreenenter"",""5"",""14942""
","
",787.9800000082469,NA,49,NA,NA,3000,1,NA,NA,images/redplanet1.jpg,images/alien2,images/alien1,images/rocket2,images/alien1,images/t.png,2,real,true,1,common,1,2020-06-14T23:32:49Z,sub12
two-step-fixation,275,884870,0.0-76.0-2.46,FALSE,FALSE,FALSE,FALSE,"""event"",""trial"",""time""
""fullscreenenter"",""5"",""14942""
","
","
","""event"",""trial"",""time""
""fullscreenenter"",""5"",""14942""
","
",NA,images/earth.jpg,NA,NA,NA,NA,NA,NA,NA,NA,NA,NA,NA,NA,NA,fixation,NA,NA,NA,NA,NA,NA,sub12
d3-animate-choice,276,887389,0.0-76.0-0.47,FALSE,FALSE,FALSE,FALSE,"""event"",""trial"",""time""
""fullscreenenter"",""5"",""14942""
","
","
","""event"",""trial"",""time""
""fullscreenenter"",""5"",""14942""
","
",516.4700000023004,NA,49,NA,NA,3000,1,NA,NA,images/earth.jpg,images/rocket1,images/rocket2,null,images/rocket2,NA,1,real,null,1,NA,NA,NA,sub12
d3-animate-choice,277,890581,0.0-76.0-1.47,FALSE,FALSE,FALSE,FALSE,"""event"",""trial"",""time""
""fullscreenenter"",""5"",""14942""
","
","
","""event"",""trial"",""time""
""fullscreenenter"",""5"",""14942""
","
",1189.5449999865377,NA,49,NA,NA,3000,1,NA,NA,images/purpleplanet.jpg,images/alien4,images/alien3,images/rocket2,images/alien3,images/nothing.png,2,real,false,1,rare,0,2020-06-14T23:32:56Z,sub12
two-step-fixation,278,891582,0.0-76.0-2.47,FALSE,FALSE,FALSE,FALSE,"""event"",""trial"",""time""
""fullscreenenter"",""5"",""14942""
","
","
","""event"",""trial"",""time""
""fullscreenenter"",""5"",""14942""
","
",NA,images/earth.jpg,NA,NA,NA,NA,NA,NA,NA,NA,NA,NA,NA,NA,NA,fixation,NA,NA,NA,NA,NA,NA,sub12
d3-animate-choice,279,894507,0.0-76.0-0.48,FALSE,FALSE,FALSE,FALSE,"""event"",""trial"",""time""
""fullscreenenter"",""5"",""14942""
","
","
","""event"",""trial"",""time""
""fullscreenenter"",""5"",""14942""
","
",922.8750000038417,NA,49,NA,NA,3000,1,NA,NA,images/earth.jpg,images/rocket1,images/rocket2,null,images/rocket2,NA,1,real,null,1,NA,NA,NA,sub12
d3-animate-choice,280,897220,0.0-76.0-1.48,FALSE,FALSE,FALSE,FALSE,"""event"",""trial"",""time""
""fullscreenenter"",""5"",""14942""
","
","
","""event"",""trial"",""time""
""fullscreenenter"",""5"",""14942""
","
",709.6099999907892,NA,49,NA,NA,3000,1,NA,NA,images/redplanet1.jpg,images/alien2,images/alien1,images/rocket2,images/alien1,images/t.png,2,real,true,1,common,1,2020-06-14T23:33:02Z,sub12
two-step-fixation,281,898222,0.0-76.0-2.48,FALSE,FALSE,FALSE,FALSE,"""event"",""trial"",""time""
""fullscreenenter"",""5"",""14942""
","
","
","""event"",""trial"",""time""
""fullscreenenter"",""5"",""14942""
","
",NA,images/earth.jpg,NA,NA,NA,NA,NA,NA,NA,NA,NA,NA,NA,NA,NA,fixation,NA,NA,NA,NA,NA,NA,sub12
