trial_type,trial_index,time_elapsed,internal_node_id,rocket_sides,red_planet_first_rocket,red_display_order,purple_display_order,interactions,blur_events,focus_events,fullscreenenter_events,fullscreenexit_events,rt,stimulus,key_press,button_pressed,success,duration,valid_pressed,rts,keys,planet_text,right_text,left_text,center_text,chosen_text,reward_text,trial_stage,practice_trial,transition_type,choice,transition,reward,timestamp,subject_id
pavlovia,0,8,0.0-0.0,TRUE,FALSE,TRUE,FALSE,"
","
","
","
","
",NA,NA,NA,NA,NA,NA,NA,NA,NA,NA,NA,NA,NA,NA,NA,NA,NA,NA,NA,NA,NA,NA,sub9
html-keyboard-response,1,2844,0.0-1.0,TRUE,FALSE,TRUE,FALSE,"
","
","
","
","
",2832,Welcome! Press the space bar to begin.,32,NA,NA,NA,NA,NA,NA,NA,NA,NA,NA,NA,NA,NA,NA,NA,NA,NA,NA,NA,sub9
audio-keyboard-response,2,10752,0.0-2.0,TRUE,FALSE,TRUE,FALSE,"
","
","
","
","
",7909,audio/beep_loop.wav,32,NA,NA,NA,NA,NA,NA,NA,NA,NA,NA,NA,NA,NA,NA,NA,NA,NA,NA,NA,sub9
audio-button-response,3,20124,0.0-3.0,TRUE,FALSE,TRUE,FALSE,"
","
","
","
","
",NaN,audio/fish.mp3,NA,1,NA,NA,NA,NA,NA,NA,NA,NA,NA,NA,NA,NA,NA,NA,NA,NA,NA,NA,sub9
audio-button-response,4,23977,0.0-4.0,TRUE,FALSE,TRUE,FALSE,"""event"",""trial"",""time""
""fullscreenenter"",""5"",""34231""
","
","
","""event"",""trial"",""time""
""fullscreenenter"",""5"",""34231""
","
",NaN,audio/tiger.mp3,NA,4,NA,NA,NA,NA,NA,NA,NA,NA,NA,NA,NA,NA,NA,NA,NA,NA,NA,NA,sub9
fullscreen,5,34990,0.0-5.0,TRUE,FALSE,TRUE,FALSE,"""event"",""trial"",""time""
""fullscreenenter"",""5"",""34231""
","
","
","""event"",""trial"",""time""
""fullscreenenter"",""5"",""34231""
","
",NA,NA,NA,NA,TRUE,NA,NA,NA,NA,NA,NA,NA,NA,NA,NA,NA,NA,NA,NA,NA,NA,NA,sub9
d3-instructions,6,50349,0.0-6.0,TRUE,FALSE,TRUE,FALSE,"""event"",""trial"",""time""
""fullscreenenter"",""5"",""34231""
","
","
","""event"",""trial"",""time""
""fullscreenenter"",""5"",""34231""
","
",NA,NA,NA,NA,NA,NA,NA,NA,NA,NA,NA,NA,NA,NA,NA,NA,NA,NA,NA,NA,NA,NA,sub9
d3-instructions,7,63215,0.0-7.0,TRUE,FALSE,TRUE,FALSE,"""event"",""trial"",""time""
""fullscreenenter"",""5"",""34231""
","
","
","""event"",""trial"",""time""
""fullscreenenter"",""5"",""34231""
","
",NA,NA,NA,NA,NA,NA,NA,NA,NA,NA,NA,NA,NA,NA,NA,NA,NA,NA,NA,NA,NA,NA,sub9
d3-instructions,8,70861,0.0-8.0,TRUE,FALSE,TRUE,FALSE,"""event"",""trial"",""time""
""fullscreenenter"",""5"",""34231""
","
","
","""event"",""trial"",""time""
""fullscreenenter"",""5"",""34231""
","
",NA,NA,NA,NA,NA,NA,NA,NA,NA,NA,NA,NA,NA,NA,NA,NA,NA,NA,NA,NA,NA,NA,sub9
d3-instructions,9,82478,0.0-9.0,TRUE,FALSE,TRUE,FALSE,"""event"",""trial"",""time""
""fullscreenenter"",""5"",""34231""
","
","
","""event"",""trial"",""time""
""fullscreenenter"",""5"",""34231""
","
",NA,NA,NA,NA,NA,NA,NA,NA,NA,NA,NA,NA,NA,NA,NA,NA,NA,NA,NA,NA,NA,NA,sub9
d3-instructions,10,107548,0.0-10.0,TRUE,FALSE,TRUE,FALSE,"""event"",""trial"",""time""
""fullscreenenter"",""5"",""34231""
","
","
","""event"",""trial"",""time""
""fullscreenenter"",""5"",""34231""
","
",NA,NA,NA,NA,NA,NA,NA,NA,NA,NA,NA,NA,NA,NA,NA,NA,NA,NA,NA,NA,NA,NA,sub9
d3-animate-choice,11,112137,0.0-11.0,TRUE,FALSE,TRUE,FALSE,"""event"",""trial"",""time""
""fullscreenenter"",""5"",""34231""
","
","
","""event"",""trial"",""time""
""fullscreenenter"",""5"",""34231""
","
",2559,NA,49,NA,NA,3000,1,35254343,4849,images/tutgreenplanet.jpg,images/tutalien1,images/tutalien2,null,images/tutalien2,NA,NA,practice,null,NA,NA,NA,NA,sub9
d3-animate-choice,12,114798,0.0-12.0,TRUE,FALSE,TRUE,FALSE,"""event"",""trial"",""time""
""fullscreenenter"",""5"",""34231""
","
","
","""event"",""trial"",""time""
""fullscreenenter"",""5"",""34231""
","
",640,NA,48,NA,NA,3000,1,14892618,4949,images/tutgreenplanet.jpg,images/tutalien1,images/tutalien2,null,images/tutalien1,NA,NA,practice,null,NA,NA,NA,NA,sub9
d3-animate-choice,13,117637,0.0-13.0,TRUE,FALSE,TRUE,FALSE,"""event"",""trial"",""time""
""fullscreenenter"",""5"",""34231""
","
","
","""event"",""trial"",""time""
""fullscreenenter"",""5"",""34231""
","
",810,NA,48,NA,NA,3000,1,2451,49,images/tutgreenplanet.jpg,images/tutalien1,images/tutalien2,null,images/tutalien1,NA,NA,practice,null,NA,NA,NA,NA,sub9
d3-animate-choice,14,120377,0.0-14.0,TRUE,FALSE,TRUE,FALSE,"""event"",""trial"",""time""
""fullscreenenter"",""5"",""34231""
","
","
","""event"",""trial"",""time""
""fullscreenenter"",""5"",""34231""
","
",718,NA,49,NA,NA,3000,1,15972518,4948,images/tutgreenplanet.jpg,images/tutalien1,images/tutalien2,null,images/tutalien2,NA,NA,practice,null,NA,NA,NA,NA,sub9
d3-instructions,15,136226,0.0-15.0,TRUE,FALSE,TRUE,FALSE,"""event"",""trial"",""time""
""fullscreenenter"",""5"",""34231""
","
","
","""event"",""trial"",""time""
""fullscreenenter"",""5"",""34231""
","
",NA,NA,NA,NA,NA,NA,NA,NA,NA,NA,NA,NA,NA,NA,NA,NA,NA,NA,NA,NA,NA,NA,sub9
d3-instructions,16,143648,0.0-16.0,TRUE,FALSE,TRUE,FALSE,"""event"",""trial"",""time""
""fullscreenenter"",""5"",""34231""
","
","
","""event"",""trial"",""time""
""fullscreenenter"",""5"",""34231""
","
",NA,NA,NA,NA,NA,NA,NA,NA,NA,NA,NA,NA,NA,NA,NA,NA,NA,NA,NA,NA,NA,NA,sub9
d3-instructions,17,152851,0.0-17.0,TRUE,FALSE,TRUE,FALSE,"""event"",""trial"",""time""
""fullscreenenter"",""5"",""34231""
","
","
","""event"",""trial"",""time""
""fullscreenenter"",""5"",""34231""
","
",NA,NA,NA,NA,NA,NA,NA,NA,NA,NA,NA,NA,NA,NA,NA,NA,NA,NA,NA,NA,NA,NA,sub9
d3-instructions,18,166324,0.0-18.0,TRUE,FALSE,TRUE,FALSE,"""event"",""trial"",""time""
""fullscreenenter"",""5"",""34231""
","
","
","""event"",""trial"",""time""
""fullscreenenter"",""5"",""34231""
","
",NA,NA,NA,NA,NA,NA,NA,NA,NA,NA,NA,NA,NA,NA,NA,NA,NA,NA,NA,NA,NA,NA,sub9
d3-instructions,19,181652,0.0-19.0,TRUE,FALSE,TRUE,FALSE,"""event"",""trial"",""time""
""fullscreenenter"",""5"",""34231""
","
","
","""event"",""trial"",""time""
""fullscreenenter"",""5"",""34231""
","
",NA,NA,NA,NA,NA,NA,NA,NA,NA,NA,NA,NA,NA,NA,NA,NA,NA,NA,NA,NA,NA,NA,sub9
d3-animate-choice,20,185002,0.0-20.0,TRUE,FALSE,TRUE,FALSE,"""event"",""trial"",""time""
""fullscreenenter"",""5"",""34231""
","
","
","""event"",""trial"",""time""
""fullscreenenter"",""5"",""34231""
","
",1325,NA,49,NA,NA,3000,1,21583062,4949,images/tutyellowplanet.jpg,null,images/tutalien3,null,images/tutalien3,images/t.png,NA,practice,null,NA,NA,NA,NA,sub9
d3-animate-choice,21,189102,0.0-21.0,TRUE,FALSE,TRUE,FALSE,"""event"",""trial"",""time""
""fullscreenenter"",""5"",""34231""
","
","
","""event"",""trial"",""time""
""fullscreenenter"",""5"",""34231""
","
",2079,NA,49,NA,NA,3000,1,2710,49,images/tutyellowplanet.jpg,null,images/tutalien3,null,images/tutalien3,images/t.png,NA,practice,null,NA,NA,NA,NA,sub9
d3-animate-choice,22,191332,0.0-22.0,TRUE,FALSE,TRUE,FALSE,"""event"",""trial"",""time""
""fullscreenenter"",""5"",""34231""
","
","
","""event"",""trial"",""time""
""fullscreenenter"",""5"",""34231""
","
",209,NA,49,NA,NA,3000,1,841,49,images/tutyellowplanet.jpg,null,images/tutalien3,null,images/tutalien3,images/nothing.png,NA,practice,null,NA,NA,NA,NA,sub9
d3-animate-choice,23,193853,0.0-23.0,TRUE,FALSE,TRUE,FALSE,"""event"",""trial"",""time""
""fullscreenenter"",""5"",""34231""
","
","
","""event"",""trial"",""time""
""fullscreenenter"",""5"",""34231""
","
",509,NA,49,NA,NA,3000,1,1110,49,images/tutyellowplanet.jpg,null,images/tutalien3,null,images/tutalien3,images/t.png,NA,practice,null,NA,NA,NA,NA,sub9
d3-animate-choice,24,196173,0.0-24.0,TRUE,FALSE,TRUE,FALSE,"""event"",""trial"",""time""
""fullscreenenter"",""5"",""34231""
","
","
","""event"",""trial"",""time""
""fullscreenenter"",""5"",""34231""
","
",300,NA,49,NA,NA,3000,1,797,49,images/tutyellowplanet.jpg,null,images/tutalien3,null,images/tutalien3,images/t.png,NA,practice,null,NA,NA,NA,NA,sub9
d3-animate-choice,25,198482,0.0-25.0,TRUE,FALSE,TRUE,FALSE,"""event"",""trial"",""time""
""fullscreenenter"",""5"",""34231""
","
","
","""event"",""trial"",""time""
""fullscreenenter"",""5"",""34231""
","
",285,NA,49,NA,NA,3000,1,781,49,images/tutyellowplanet.jpg,null,images/tutalien3,null,images/tutalien3,images/t.png,NA,practice,null,NA,NA,NA,NA,sub9
d3-animate-choice,26,200552,0.0-26.0,TRUE,FALSE,TRUE,FALSE,"""event"",""trial"",""time""
""fullscreenenter"",""5"",""34231""
","
","
","""event"",""trial"",""time""
""fullscreenenter"",""5"",""34231""
","
",63,NA,49,NA,NA,3000,1,609,49,images/tutyellowplanet.jpg,null,images/tutalien3,null,images/tutalien3,images/nothing.png,NA,practice,null,NA,NA,NA,NA,sub9
d3-animate-choice,27,202733,0.0-27.0,TRUE,FALSE,TRUE,FALSE,"""event"",""trial"",""time""
""fullscreenenter"",""5"",""34231""
","
","
","""event"",""trial"",""time""
""fullscreenenter"",""5"",""34231""
","
",171,NA,49,NA,NA,3000,1,701,49,images/tutyellowplanet.jpg,null,images/tutalien3,null,images/tutalien3,images/nothing.png,NA,practice,null,NA,NA,NA,NA,sub9
d3-animate-choice,28,204992,0.0-28.0,TRUE,FALSE,TRUE,FALSE,"""event"",""trial"",""time""
""fullscreenenter"",""5"",""34231""
","
","
","""event"",""trial"",""time""
""fullscreenenter"",""5"",""34231""
","
",245,NA,49,NA,NA,3000,1,815,49,images/tutyellowplanet.jpg,null,images/tutalien3,null,images/tutalien3,images/nothing.png,NA,practice,null,NA,NA,NA,NA,sub9
d3-animate-choice,29,207332,0.0-29.0,TRUE,FALSE,TRUE,FALSE,"""event"",""trial"",""time""
""fullscreenenter"",""5"",""34231""
","
","
","""event"",""trial"",""time""
""fullscreenenter"",""5"",""34231""
","
",322,NA,49,NA,NA,3000,1,838,49,images/tutyellowplanet.jpg,null,images/tutalien3,null,images/tutalien3,images/t.png,NA,practice,null,NA,NA,NA,NA,sub9
d3-instructions,30,213911,0.0-30.0,TRUE,FALSE,TRUE,FALSE,"""event"",""trial"",""time""
""fullscreenenter"",""5"",""34231""
","
","
","""event"",""trial"",""time""
""fullscreenenter"",""5"",""34231""
","
",NA,NA,NA,NA,NA,NA,NA,NA,NA,NA,NA,NA,NA,NA,NA,NA,NA,NA,NA,NA,NA,NA,sub9
d3-instructions,31,226575,0.0-31.0,TRUE,FALSE,TRUE,FALSE,"""event"",""trial"",""time""
""fullscreenenter"",""5"",""34231""
","
","
","""event"",""trial"",""time""
""fullscreenenter"",""5"",""34231""
","
",NA,NA,NA,NA,NA,NA,NA,NA,NA,NA,NA,NA,NA,NA,NA,NA,NA,NA,NA,NA,NA,NA,sub9
d3-instructions,32,239503,0.0-32.0,TRUE,FALSE,TRUE,FALSE,"""event"",""trial"",""time""
""fullscreenenter"",""5"",""34231""
","
","
","""event"",""trial"",""time""
""fullscreenenter"",""5"",""34231""
","
",NA,NA,NA,NA,NA,NA,NA,NA,NA,NA,NA,NA,NA,NA,NA,NA,NA,NA,NA,NA,NA,NA,sub9
d3-instructions,33,250576,0.0-33.0,TRUE,FALSE,TRUE,FALSE,"""event"",""trial"",""time""
""fullscreenenter"",""5"",""34231""
","
","
","""event"",""trial"",""time""
""fullscreenenter"",""5"",""34231""
","
",NA,NA,NA,NA,NA,NA,NA,NA,NA,NA,NA,NA,NA,NA,NA,NA,NA,NA,NA,NA,NA,NA,sub9
d3-animate-choice,34,255246,0.0-34.0,TRUE,FALSE,TRUE,FALSE,"""event"",""trial"",""time""
""fullscreenenter"",""5"",""34231""
","
","
","""event"",""trial"",""time""
""fullscreenenter"",""5"",""34231""
","
",2647,NA,49,NA,NA,3000,1,37674575,4949,images/tutgreenplanet.jpg,images/tutalien1,images/tutalien2,null,images/tutalien2,images/t.png,NA,practice,null,NA,NA,NA,NA,sub9
d3-animate-choice,35,257996,0.0-35.0,TRUE,FALSE,TRUE,FALSE,"""event"",""trial"",""time""
""fullscreenenter"",""5"",""34231""
","
","
","""event"",""trial"",""time""
""fullscreenenter"",""5"",""34231""
","
",736,NA,48,NA,NA,3000,1,13442408,4849,images/tutgreenplanet.jpg,images/tutalien1,images/tutalien2,null,images/tutalien1,images/nothing.png,NA,practice,null,NA,NA,NA,NA,sub9
d3-animate-choice,36,260536,0.0-36.0,TRUE,FALSE,TRUE,FALSE,"""event"",""trial"",""time""
""fullscreenenter"",""5"",""34231""
","
","
","""event"",""trial"",""time""
""fullscreenenter"",""5"",""34231""
","
",515,NA,49,NA,NA,3000,1,12272107,4949,images/tutgreenplanet.jpg,images/tutalien1,images/tutalien2,null,images/tutalien2,images/t.png,NA,practice,null,NA,NA,NA,NA,sub9
d3-animate-choice,37,262986,0.0-37.0,TRUE,FALSE,TRUE,FALSE,"""event"",""trial"",""time""
""fullscreenenter"",""5"",""34231""
","
","
","""event"",""trial"",""time""
""fullscreenenter"",""5"",""34231""
","
",446,NA,49,NA,NA,3000,1,12462222,4949,images/tutgreenplanet.jpg,images/tutalien1,images/tutalien2,null,images/tutalien2,images/t.png,NA,practice,null,NA,NA,NA,NA,sub9
d3-animate-choice,38,265496,0.0-38.0,TRUE,FALSE,TRUE,FALSE,"""event"",""trial"",""time""
""fullscreenenter"",""5"",""34231""
","
","
","""event"",""trial"",""time""
""fullscreenenter"",""5"",""34231""
","
",500,NA,49,NA,NA,3000,1,12842141,4949,images/tutgreenplanet.jpg,images/tutalien1,images/tutalien2,null,images/tutalien2,images/t.png,NA,practice,null,NA,NA,NA,NA,sub9
d3-animate-choice,39,267906,0.0-39.0,TRUE,FALSE,TRUE,FALSE,"""event"",""trial"",""time""
""fullscreenenter"",""5"",""34231""
","
","
","""event"",""trial"",""time""
""fullscreenenter"",""5"",""34231""
","
",399,NA,49,NA,NA,3000,1,11181942,4949,images/tutgreenplanet.jpg,images/tutalien1,images/tutalien2,null,images/tutalien2,images/t.png,NA,practice,null,NA,NA,NA,NA,sub9
d3-animate-choice,40,270306,0.0-40.0,TRUE,FALSE,TRUE,FALSE,"""event"",""trial"",""time""
""fullscreenenter"",""5"",""34231""
","
","
","""event"",""trial"",""time""
""fullscreenenter"",""5"",""34231""
","
",390,NA,49,NA,NA,3000,1,9501902,4949,images/tutgreenplanet.jpg,images/tutalien1,images/tutalien2,null,images/tutalien2,images/t.png,NA,practice,null,NA,NA,NA,NA,sub9
d3-animate-choice,41,272737,0.0-41.0,TRUE,FALSE,TRUE,FALSE,"""event"",""trial"",""time""
""fullscreenenter"",""5"",""34231""
","
","
","""event"",""trial"",""time""
""fullscreenenter"",""5"",""34231""
","
",420,NA,49,NA,NA,3000,1,12361973,4949,images/tutgreenplanet.jpg,images/tutalien1,images/tutalien2,null,images/tutalien2,images/t.png,NA,practice,null,NA,NA,NA,NA,sub9
d3-animate-choice,42,275168,0.0-42.0,TRUE,FALSE,TRUE,FALSE,"""event"",""trial"",""time""
""fullscreenenter"",""5"",""34231""
","
","
","""event"",""trial"",""time""
""fullscreenenter"",""5"",""34231""
","
",406,NA,49,NA,NA,3000,1,12932174,4949,images/tutgreenplanet.jpg,images/tutalien1,images/tutalien2,null,images/tutalien2,images/t.png,NA,practice,null,NA,NA,NA,NA,sub9
d3-animate-choice,43,277797,0.0-43.0,TRUE,FALSE,TRUE,FALSE,"""event"",""trial"",""time""
""fullscreenenter"",""5"",""34231""
","
","
","""event"",""trial"",""time""
""fullscreenenter"",""5"",""34231""
","
",624,NA,48,NA,NA,3000,1,11042546,4848,images/tutgreenplanet.jpg,images/tutalien1,images/tutalien2,null,images/tutalien1,images/nothing.png,NA,practice,null,NA,NA,NA,NA,sub9
d3-instructions,44,293714,0.0-44.0,TRUE,FALSE,TRUE,FALSE,"""event"",""trial"",""time""
""fullscreenenter"",""5"",""34231""
","
","
","""event"",""trial"",""time""
""fullscreenenter"",""5"",""34231""
","
",NA,NA,NA,NA,NA,NA,NA,NA,NA,NA,NA,NA,NA,NA,NA,NA,NA,NA,NA,NA,NA,NA,sub9
d3-instructions,45,303484,0.0-45.0,TRUE,FALSE,TRUE,FALSE,"""event"",""trial"",""time""
""fullscreenenter"",""5"",""34231""
","
","
","""event"",""trial"",""time""
""fullscreenenter"",""5"",""34231""
","
",NA,NA,NA,NA,NA,NA,NA,NA,NA,NA,NA,NA,NA,NA,NA,NA,NA,NA,NA,NA,NA,NA,sub9
d3-instructions,46,312956,0.0-46.0,TRUE,FALSE,TRUE,FALSE,"""event"",""trial"",""time""
""fullscreenenter"",""5"",""34231""
","
","
","""event"",""trial"",""time""
""fullscreenenter"",""5"",""34231""
","
",NA,NA,NA,NA,NA,NA,NA,NA,NA,NA,NA,NA,NA,NA,NA,NA,NA,NA,NA,NA,NA,NA,sub9
d3-instructions,47,329479,0.0-47.0,TRUE,FALSE,TRUE,FALSE,"""event"",""trial"",""time""
""fullscreenenter"",""5"",""34231""
","
","
","""event"",""trial"",""time""
""fullscreenenter"",""5"",""34231""
","
",NA,NA,NA,NA,NA,NA,NA,NA,NA,NA,NA,NA,NA,NA,NA,NA,NA,NA,NA,NA,NA,NA,sub9
d3-instructions,48,335231,0.0-48.0,TRUE,FALSE,TRUE,FALSE,"""event"",""trial"",""time""
""fullscreenenter"",""5"",""34231""
","
","
","""event"",""trial"",""time""
""fullscreenenter"",""5"",""34231""
","
",NA,NA,NA,NA,NA,NA,NA,NA,NA,NA,NA,NA,NA,NA,NA,NA,NA,NA,NA,NA,NA,NA,sub9
d3-instructions,49,345825,0.0-49.0,TRUE,FALSE,TRUE,FALSE,"""event"",""trial"",""time""
""fullscreenenter"",""5"",""34231""
","
","
","""event"",""trial"",""time""
""fullscreenenter"",""5"",""34231""
","
",NA,NA,NA,NA,NA,NA,NA,NA,NA,NA,NA,NA,NA,NA,NA,NA,NA,NA,NA,NA,NA,NA,sub9
d3-instructions,50,354153,0.0-50.0,TRUE,FALSE,TRUE,FALSE,"""event"",""trial"",""time""
""fullscreenenter"",""5"",""34231""
","
","
","""event"",""trial"",""time""
""fullscreenenter"",""5"",""34231""
","
",NA,NA,NA,NA,NA,NA,NA,NA,NA,NA,NA,NA,NA,NA,NA,NA,NA,NA,NA,NA,NA,NA,sub9
d3-instructions,51,357000,0.0-51.0,TRUE,FALSE,TRUE,FALSE,"""event"",""trial"",""time""
""fullscreenenter"",""5"",""34231""
","
","
","""event"",""trial"",""time""
""fullscreenenter"",""5"",""34231""
","
",NA,NA,NA,NA,NA,NA,NA,NA,NA,NA,NA,NA,NA,NA,NA,NA,NA,NA,NA,NA,NA,NA,sub9
d3-instructions,52,359479,0.0-52.0,TRUE,FALSE,TRUE,FALSE,"""event"",""trial"",""time""
""fullscreenenter"",""5"",""34231""
","
","
","""event"",""trial"",""time""
""fullscreenenter"",""5"",""34231""
","
",NA,NA,NA,NA,NA,NA,NA,NA,NA,NA,NA,NA,NA,NA,NA,NA,NA,NA,NA,NA,NA,NA,sub9
d3-instructions,53,380953,0.0-53.0,TRUE,FALSE,TRUE,FALSE,"""event"",""trial"",""time""
""fullscreenenter"",""5"",""34231""
","
","
","""event"",""trial"",""time""
""fullscreenenter"",""5"",""34231""
","
",NA,NA,NA,NA,NA,NA,NA,NA,NA,NA,NA,NA,NA,NA,NA,NA,NA,NA,NA,NA,NA,NA,sub9
d3-instructions,54,393492,0.0-54.0,TRUE,FALSE,TRUE,FALSE,"""event"",""trial"",""time""
""fullscreenenter"",""5"",""34231""
","
","
","""event"",""trial"",""time""
""fullscreenenter"",""5"",""34231""
","
",NA,NA,NA,NA,NA,NA,NA,NA,NA,NA,NA,NA,NA,NA,NA,NA,NA,NA,NA,NA,NA,NA,sub9
d3-instructions,55,397877,0.0-55.0,TRUE,FALSE,TRUE,FALSE,"""event"",""trial"",""time""
""fullscreenenter"",""5"",""34231""
","
","
","""event"",""trial"",""time""
""fullscreenenter"",""5"",""34231""
","
",NA,NA,NA,NA,NA,NA,NA,NA,NA,NA,NA,NA,NA,NA,NA,NA,NA,NA,NA,NA,NA,NA,sub9
d3-instructions,56,405963,0.0-56.0,TRUE,FALSE,TRUE,FALSE,"""event"",""trial"",""time""
""fullscreenenter"",""5"",""34231""
","
","
","""event"",""trial"",""time""
""fullscreenenter"",""5"",""34231""
","
",NA,NA,NA,NA,NA,NA,NA,NA,NA,NA,NA,NA,NA,NA,NA,NA,NA,NA,NA,NA,NA,NA,sub9
d3-instructions,57,415412,0.0-57.0,TRUE,FALSE,TRUE,FALSE,"""event"",""trial"",""time""
""fullscreenenter"",""5"",""34231""
","
","
","""event"",""trial"",""time""
""fullscreenenter"",""5"",""34231""
","
",NA,NA,NA,NA,NA,NA,NA,NA,NA,NA,NA,NA,NA,NA,NA,NA,NA,NA,NA,NA,NA,NA,sub9
d3-instructions,58,425781,0.0-58.0,TRUE,FALSE,TRUE,FALSE,"""event"",""trial"",""time""
""fullscreenenter"",""5"",""34231""
","
","
","""event"",""trial"",""time""
""fullscreenenter"",""5"",""34231""
","
",NA,NA,NA,NA,NA,NA,NA,NA,NA,NA,NA,NA,NA,NA,NA,NA,NA,NA,NA,NA,NA,NA,sub9
d3-instructions,59,430519,0.0-59.0,TRUE,FALSE,TRUE,FALSE,"""event"",""trial"",""time""
""fullscreenenter"",""5"",""34231""
","
","
","""event"",""trial"",""time""
""fullscreenenter"",""5"",""34231""
","
",NA,NA,NA,NA,NA,NA,NA,NA,NA,NA,NA,NA,NA,NA,NA,NA,NA,NA,NA,NA,NA,NA,sub9
d3-instructions,60,440614,0.0-60.0,TRUE,FALSE,TRUE,FALSE,"""event"",""trial"",""time""
""fullscreenenter"",""5"",""34231""
","
","
","""event"",""trial"",""time""
""fullscreenenter"",""5"",""34231""
","
",NA,NA,NA,NA,NA,NA,NA,NA,NA,NA,NA,NA,NA,NA,NA,NA,NA,NA,NA,NA,NA,NA,sub9
d3-animate-choice,61,444649,0.0-61.0-0.0,TRUE,FALSE,TRUE,FALSE,"""event"",""trial"",""time""
""fullscreenenter"",""5"",""34231""
","
","
","""event"",""trial"",""time""
""fullscreenenter"",""5"",""34231""
","
",2234,NA,48,NA,NA,3000,1,3315,48,images/earth.jpg,images/tutrocket1,images/tutrocket2,null,images/tutrocket1,NA,1,practice,null,2,NA,NA,NA,sub9
d3-animate-choice,62,448680,0.0-61.0-1.0,TRUE,FALSE,TRUE,FALSE,"""event"",""trial"",""time""
""fullscreenenter"",""5"",""34231""
","
","
","""event"",""trial"",""time""
""fullscreenenter"",""5"",""34231""
","
",null,NA,null,NA,NA,3000,0,NA,NA,images/tutyellowplanet.jpg,images/tutalien4,images/tutalien3,images/tutrocket1,NA,NA,2,practice,true,NA,common,0,2020-06-05T12:33:29Z,sub9
two-step-fixation,63,449700,0.0-61.0-2.0,TRUE,FALSE,TRUE,FALSE,"""event"",""trial"",""time""
""fullscreenenter"",""5"",""34231""
","
","
","""event"",""trial"",""time""
""fullscreenenter"",""5"",""34231""
","
",NA,images/earth.jpg,NA,NA,NA,NA,NA,NA,NA,NA,NA,NA,NA,NA,NA,fixation,NA,NA,NA,NA,NA,NA,sub9
d3-animate-choice,64,453712,0.0-61.0-0.1,TRUE,FALSE,TRUE,FALSE,"""event"",""trial"",""time""
""fullscreenenter"",""5"",""34231""
","
","
","""event"",""trial"",""time""
""fullscreenenter"",""5"",""34231""
","
",null,NA,null,NA,NA,3000,0,NA,NA,images/earth.jpg,images/tutrocket1,images/tutrocket2,null,NA,NA,1,practice,null,NA,NA,NA,NA,sub9
d3-animate-choice,65,454720,0.0-61.0-1.1,TRUE,FALSE,TRUE,FALSE,"""event"",""trial"",""time""
""fullscreenenter"",""5"",""34231""
","
","
","""event"",""trial"",""time""
""fullscreenenter"",""5"",""34231""
","
",null,NA,null,NA,NA,0,0,NA,NA,images/earth.jpg,images/tutrocket1,images/tutrocket2,null,NA,NA,2,practice,null,NA,NA,0,2020-06-05T12:33:35Z,sub9
two-step-fixation,66,455729,0.0-61.0-2.1,TRUE,FALSE,TRUE,FALSE,"""event"",""trial"",""time""
""fullscreenenter"",""5"",""34231""
","
","
","""event"",""trial"",""time""
""fullscreenenter"",""5"",""34231""
","
",NA,images/earth.jpg,NA,NA,NA,NA,NA,NA,NA,NA,NA,NA,NA,NA,NA,fixation,NA,NA,NA,NA,NA,NA,sub9
d3-animate-choice,67,459755,0.0-61.0-0.2,TRUE,FALSE,TRUE,FALSE,"""event"",""trial"",""time""
""fullscreenenter"",""5"",""34231""
","
","
","""event"",""trial"",""time""
""fullscreenenter"",""5"",""34231""
","
",3164,NA,49,NA,NA,3000,0,NA,NA,images/earth.jpg,images/tutrocket1,images/tutrocket2,null,NA,NA,1,practice,null,1,NA,NA,NA,sub9
d3-animate-choice,68,460799,0.0-61.0-1.2,TRUE,FALSE,TRUE,FALSE,"""event"",""trial"",""time""
""fullscreenenter"",""5"",""34231""
","
","
","""event"",""trial"",""time""
""fullscreenenter"",""5"",""34231""
","
",null,NA,null,NA,NA,0,0,NA,NA,images/earth.jpg,images/tutrocket1,images/tutrocket2,null,NA,NA,2,practice,null,NA,NA,0,2020-06-05T12:33:41Z,sub9
two-step-fixation,69,461820,0.0-61.0-2.2,TRUE,FALSE,TRUE,FALSE,"""event"",""trial"",""time""
""fullscreenenter"",""5"",""34231""
","
","
","""event"",""trial"",""time""
""fullscreenenter"",""5"",""34231""
","
",NA,images/earth.jpg,NA,NA,NA,NA,NA,NA,NA,NA,NA,NA,NA,NA,NA,fixation,NA,NA,NA,NA,NA,NA,sub9
d3-animate-choice,70,464261,0.0-61.0-0.3,TRUE,FALSE,TRUE,FALSE,"""event"",""trial"",""time""
""fullscreenenter"",""5"",""34231""
","
","
","""event"",""trial"",""time""
""fullscreenenter"",""5"",""34231""
","
",425,NA,48,NA,NA,3000,1,1208,48,images/earth.jpg,images/tutrocket1,images/tutrocket2,null,images/tutrocket1,NA,1,practice,null,2,NA,NA,NA,sub9
d3-animate-choice,71,467861,0.0-61.0-1.3,TRUE,FALSE,TRUE,FALSE,"""event"",""trial"",""time""
""fullscreenenter"",""5"",""34231""
","
","
","""event"",""trial"",""time""
""fullscreenenter"",""5"",""34231""
","
",1594,NA,49,NA,NA,3000,1,27063433,4949,images/tutyellowplanet.jpg,images/tutalien4,images/tutalien3,images/tutrocket1,images/tutalien3,images/t.png,2,practice,true,1,common,1,2020-06-05T12:33:48Z,sub9
two-step-fixation,72,468878,0.0-61.0-2.3,TRUE,FALSE,TRUE,FALSE,"""event"",""trial"",""time""
""fullscreenenter"",""5"",""34231""
","
","
","""event"",""trial"",""time""
""fullscreenenter"",""5"",""34231""
","
",NA,images/earth.jpg,NA,NA,NA,NA,NA,NA,NA,NA,NA,NA,NA,NA,NA,fixation,NA,NA,NA,NA,NA,NA,sub9
d3-animate-choice,73,472911,0.0-61.0-0.4,TRUE,FALSE,TRUE,FALSE,"""event"",""trial"",""time""
""fullscreenenter"",""5"",""34231""
","
","
","""event"",""trial"",""time""
""fullscreenenter"",""5"",""34231""
","
",2607,NA,48,NA,NA,3000,1,3151,48,images/earth.jpg,images/tutrocket1,images/tutrocket2,null,images/tutrocket1,NA,1,practice,null,2,NA,NA,NA,sub9
d3-animate-choice,74,476292,0.0-61.0-1.4,TRUE,FALSE,TRUE,FALSE,"""event"",""trial"",""time""
""fullscreenenter"",""5"",""34231""
","
","
","""event"",""trial"",""time""
""fullscreenenter"",""5"",""34231""
","
",1361,NA,49,NA,NA,3000,1,2112,49,images/tutgreenplanet.jpg,images/tutalien2,images/tutalien1,images/tutrocket1,images/tutalien1,images/nothing.png,2,practice,false,1,rare,0,2020-06-05T12:33:57Z,sub9
two-step-fixation,75,477311,0.0-61.0-2.4,TRUE,FALSE,TRUE,FALSE,"""event"",""trial"",""time""
""fullscreenenter"",""5"",""34231""
","
","
","""event"",""trial"",""time""
""fullscreenenter"",""5"",""34231""
","
",NA,images/earth.jpg,NA,NA,NA,NA,NA,NA,NA,NA,NA,NA,NA,NA,NA,fixation,NA,NA,NA,NA,NA,NA,sub9
d3-animate-choice,76,481013,0.0-61.0-0.5,TRUE,FALSE,TRUE,FALSE,"""event"",""trial"",""time""
""fullscreenenter"",""5"",""34231""
","
","
","""event"",""trial"",""time""
""fullscreenenter"",""5"",""34231""
","
",1687,NA,48,NA,NA,3000,1,2864,48,images/earth.jpg,images/tutrocket1,images/tutrocket2,null,images/tutrocket1,NA,1,practice,null,2,NA,NA,NA,sub9
d3-animate-choice,77,484902,0.0-61.0-1.5,TRUE,FALSE,TRUE,FALSE,"""event"",""trial"",""time""
""fullscreenenter"",""5"",""34231""
","
","
","""event"",""trial"",""time""
""fullscreenenter"",""5"",""34231""
","
",1881,NA,49,NA,NA,3000,1,2766,49,images/tutyellowplanet.jpg,images/tutalien4,images/tutalien3,images/tutrocket1,images/tutalien3,images/nothing.png,2,practice,true,1,common,0,2020-06-05T12:34:05Z,sub9
two-step-fixation,78,485922,0.0-61.0-2.5,TRUE,FALSE,TRUE,FALSE,"""event"",""trial"",""time""
""fullscreenenter"",""5"",""34231""
","
","
","""event"",""trial"",""time""
""fullscreenenter"",""5"",""34231""
","
",NA,images/earth.jpg,NA,NA,NA,NA,NA,NA,NA,NA,NA,NA,NA,NA,NA,fixation,NA,NA,NA,NA,NA,NA,sub9
d3-animate-choice,79,488812,0.0-61.0-0.6,TRUE,FALSE,TRUE,FALSE,"""event"",""trial"",""time""
""fullscreenenter"",""5"",""34231""
","
","
","""event"",""trial"",""time""
""fullscreenenter"",""5"",""34231""
","
",885,NA,48,NA,NA,3000,1,1364,48,images/earth.jpg,images/tutrocket1,images/tutrocket2,null,images/tutrocket1,NA,1,practice,null,2,NA,NA,NA,sub9
d3-animate-choice,80,492162,0.0-61.0-1.6,TRUE,FALSE,TRUE,FALSE,"""event"",""trial"",""time""
""fullscreenenter"",""5"",""34231""
","
","
","""event"",""trial"",""time""
""fullscreenenter"",""5"",""34231""
","
",1345,NA,48,NA,NA,3000,1,2226,48,images/tutgreenplanet.jpg,images/tutalien2,images/tutalien1,images/tutrocket1,images/tutalien2,images/nothing.png,2,practice,false,2,rare,0,2020-06-05T12:34:12Z,sub9
two-step-fixation,81,493183,0.0-61.0-2.6,TRUE,FALSE,TRUE,FALSE,"""event"",""trial"",""time""
""fullscreenenter"",""5"",""34231""
","
","
","""event"",""trial"",""time""
""fullscreenenter"",""5"",""34231""
","
",NA,images/earth.jpg,NA,NA,NA,NA,NA,NA,NA,NA,NA,NA,NA,NA,NA,fixation,NA,NA,NA,NA,NA,NA,sub9
d3-animate-choice,82,496213,0.0-61.0-0.7,TRUE,FALSE,TRUE,FALSE,"""event"",""trial"",""time""
""fullscreenenter"",""5"",""34231""
","
","
","""event"",""trial"",""time""
""fullscreenenter"",""5"",""34231""
","
",1024,NA,49,NA,NA,3000,1,1544,49,images/earth.jpg,images/tutrocket1,images/tutrocket2,null,images/tutrocket2,NA,1,practice,null,1,NA,NA,NA,sub9
d3-animate-choice,83,499024,0.0-61.0-1.7,TRUE,FALSE,TRUE,FALSE,"""event"",""trial"",""time""
""fullscreenenter"",""5"",""34231""
","
","
","""event"",""trial"",""time""
""fullscreenenter"",""5"",""34231""
","
",800,NA,49,NA,NA,3000,1,1297,49,images/tutgreenplanet.jpg,images/tutalien2,images/tutalien1,images/tutrocket2,images/tutalien1,images/nothing.png,2,practice,true,1,common,0,2020-06-05T12:34:19Z,sub9
two-step-fixation,84,500028,0.0-61.0-2.7,TRUE,FALSE,TRUE,FALSE,"""event"",""trial"",""time""
""fullscreenenter"",""5"",""34231""
","
","
","""event"",""trial"",""time""
""fullscreenenter"",""5"",""34231""
","
",NA,images/earth.jpg,NA,NA,NA,NA,NA,NA,NA,NA,NA,NA,NA,NA,NA,fixation,NA,NA,NA,NA,NA,NA,sub9
d3-animate-choice,85,502794,0.0-61.0-0.8,TRUE,FALSE,TRUE,FALSE,"""event"",""trial"",""time""
""fullscreenenter"",""5"",""34231""
","
","
","""event"",""trial"",""time""
""fullscreenenter"",""5"",""34231""
","
",749,NA,49,NA,NA,3000,1,1258,49,images/earth.jpg,images/tutrocket1,images/tutrocket2,null,images/tutrocket2,NA,1,practice,null,1,NA,NA,NA,sub9
d3-animate-choice,86,505524,0.0-61.0-1.8,TRUE,FALSE,TRUE,FALSE,"""event"",""trial"",""time""
""fullscreenenter"",""5"",""34231""
","
","
","""event"",""trial"",""time""
""fullscreenenter"",""5"",""34231""
","
",717,NA,48,NA,NA,3000,1,1252,48,images/tutgreenplanet.jpg,images/tutalien2,images/tutalien1,images/tutrocket2,images/tutalien2,images/nothing.png,2,practice,true,2,common,0,2020-06-05T12:34:26Z,sub9
two-step-fixation,87,506539,0.0-61.0-2.8,TRUE,FALSE,TRUE,FALSE,"""event"",""trial"",""time""
""fullscreenenter"",""5"",""34231""
","
","
","""event"",""trial"",""time""
""fullscreenenter"",""5"",""34231""
","
",NA,images/earth.jpg,NA,NA,NA,NA,NA,NA,NA,NA,NA,NA,NA,NA,NA,fixation,NA,NA,NA,NA,NA,NA,sub9
d3-animate-choice,88,509423,0.0-61.0-0.9,TRUE,FALSE,TRUE,FALSE,"""event"",""trial"",""time""
""fullscreenenter"",""5"",""34231""
","
","
","""event"",""trial"",""time""
""fullscreenenter"",""5"",""34231""
","
",860,NA,48,NA,NA,3000,1,1388,48,images/earth.jpg,images/tutrocket1,images/tutrocket2,null,images/tutrocket1,NA,1,practice,null,2,NA,NA,NA,sub9
d3-animate-choice,89,512505,0.0-61.0-1.9,TRUE,FALSE,TRUE,FALSE,"""event"",""trial"",""time""
""fullscreenenter"",""5"",""34231""
","
","
","""event"",""trial"",""time""
""fullscreenenter"",""5"",""34231""
","
",1063,NA,49,NA,NA,3000,1,12641871,1749,images/tutyellowplanet.jpg,images/tutalien4,images/tutalien3,images/tutrocket1,images/tutalien3,images/t.png,2,practice,true,1,common,1,2020-06-05T12:34:33Z,sub9
two-step-fixation,90,513524,0.0-61.0-2.9,TRUE,FALSE,TRUE,FALSE,"""event"",""trial"",""time""
""fullscreenenter"",""5"",""34231""
","
","
","""event"",""trial"",""time""
""fullscreenenter"",""5"",""34231""
","
",NA,images/earth.jpg,NA,NA,NA,NA,NA,NA,NA,NA,NA,NA,NA,NA,NA,fixation,NA,NA,NA,NA,NA,NA,sub9
d3-animate-choice,91,516424,0.0-61.0-0.10,TRUE,FALSE,TRUE,FALSE,"""event"",""trial"",""time""
""fullscreenenter"",""5"",""34231""
","
","
","""event"",""trial"",""time""
""fullscreenenter"",""5"",""34231""
","
",874,NA,48,NA,NA,3000,1,1169,48,images/earth.jpg,images/tutrocket1,images/tutrocket2,null,images/tutrocket1,NA,1,practice,null,2,NA,NA,NA,sub9
d3-animate-choice,92,518944,0.0-61.0-1.10,TRUE,FALSE,TRUE,FALSE,"""event"",""trial"",""time""
""fullscreenenter"",""5"",""34231""
","
","
","""event"",""trial"",""time""
""fullscreenenter"",""5"",""34231""
","
",505,NA,49,NA,NA,3000,1,7682088,4949,images/tutyellowplanet.jpg,images/tutalien4,images/tutalien3,images/tutrocket1,images/tutalien3,images/nothing.png,2,practice,true,1,common,0,2020-06-05T12:34:39Z,sub9
two-step-fixation,93,519964,0.0-61.0-2.10,TRUE,FALSE,TRUE,FALSE,"""event"",""trial"",""time""
""fullscreenenter"",""5"",""34231""
","
","
","""event"",""trial"",""time""
""fullscreenenter"",""5"",""34231""
","
",NA,images/earth.jpg,NA,NA,NA,NA,NA,NA,NA,NA,NA,NA,NA,NA,NA,fixation,NA,NA,NA,NA,NA,NA,sub9
d3-animate-choice,94,522024,0.0-61.0-0.11,TRUE,FALSE,TRUE,FALSE,"""event"",""trial"",""time""
""fullscreenenter"",""5"",""34231""
","
","
","""event"",""trial"",""time""
""fullscreenenter"",""5"",""34231""
","
",53,NA,48,NA,NA,3000,1,2524777021181,48484849,images/earth.jpg,images/tutrocket1,images/tutrocket2,null,images/tutrocket1,NA,1,practice,null,2,NA,NA,NA,sub9
d3-animate-choice,95,524765,0.0-61.0-1.11,TRUE,FALSE,TRUE,FALSE,"""event"",""trial"",""time""
""fullscreenenter"",""5"",""34231""
","
","
","""event"",""trial"",""time""
""fullscreenenter"",""5"",""34231""
","
",720,NA,49,NA,NA,3000,1,13292113,4848,images/tutyellowplanet.jpg,images/tutalien4,images/tutalien3,images/tutrocket1,images/tutalien3,images/t.png,2,practice,true,1,common,1,2020-06-05T12:34:45Z,sub9
two-step-fixation,96,525790,0.0-61.0-2.11,TRUE,FALSE,TRUE,FALSE,"""event"",""trial"",""time""
""fullscreenenter"",""5"",""34231""
","
","
","""event"",""trial"",""time""
""fullscreenenter"",""5"",""34231""
","
",NA,images/earth.jpg,NA,NA,NA,NA,NA,NA,NA,NA,NA,NA,NA,NA,NA,fixation,NA,NA,NA,NA,NA,NA,sub9
d3-animate-choice,97,528366,0.0-61.0-0.12,TRUE,FALSE,TRUE,FALSE,"""event"",""trial"",""time""
""fullscreenenter"",""5"",""34231""
","
","
","""event"",""trial"",""time""
""fullscreenenter"",""5"",""34231""
","
",562,NA,49,NA,NA,3000,1,1235,49,images/earth.jpg,images/tutrocket1,images/tutrocket2,null,images/tutrocket2,NA,1,practice,null,1,NA,NA,NA,sub9
d3-animate-choice,98,531065,0.0-61.0-1.12,TRUE,FALSE,TRUE,FALSE,"""event"",""trial"",""time""
""fullscreenenter"",""5"",""34231""
","
","
","""event"",""trial"",""time""
""fullscreenenter"",""5"",""34231""
","
",691,NA,48,NA,NA,3000,1,1314,48,images/tutgreenplanet.jpg,images/tutalien2,images/tutalien1,images/tutrocket2,images/tutalien2,images/t.png,2,practice,true,2,common,1,2020-06-05T12:34:51Z,sub9
two-step-fixation,99,532085,0.0-61.0-2.12,TRUE,FALSE,TRUE,FALSE,"""event"",""trial"",""time""
""fullscreenenter"",""5"",""34231""
","
","
","""event"",""trial"",""time""
""fullscreenenter"",""5"",""34231""
","
",NA,images/earth.jpg,NA,NA,NA,NA,NA,NA,NA,NA,NA,NA,NA,NA,NA,fixation,NA,NA,NA,NA,NA,NA,sub9
d3-animate-choice,100,534826,0.0-61.0-0.13,TRUE,FALSE,TRUE,FALSE,"""event"",""trial"",""time""
""fullscreenenter"",""5"",""34231""
","
","
","""event"",""trial"",""time""
""fullscreenenter"",""5"",""34231""
","
",733,NA,49,NA,NA,3000,1,1229,49,images/earth.jpg,images/tutrocket1,images/tutrocket2,null,images/tutrocket2,NA,1,practice,null,1,NA,NA,NA,sub9
d3-animate-choice,101,537507,0.0-61.0-1.13,TRUE,FALSE,TRUE,FALSE,"""event"",""trial"",""time""
""fullscreenenter"",""5"",""34231""
","
","
","""event"",""trial"",""time""
""fullscreenenter"",""5"",""34231""
","
",671,NA,48,NA,NA,3000,1,1879,48,images/tutgreenplanet.jpg,images/tutalien2,images/tutalien1,images/tutrocket2,images/tutalien2,images/t.png,2,practice,true,2,common,1,2020-06-05T12:34:58Z,sub9
two-step-fixation,102,538526,0.0-61.0-2.13,TRUE,FALSE,TRUE,FALSE,"""event"",""trial"",""time""
""fullscreenenter"",""5"",""34231""
","
","
","""event"",""trial"",""time""
""fullscreenenter"",""5"",""34231""
","
",NA,images/earth.jpg,NA,NA,NA,NA,NA,NA,NA,NA,NA,NA,NA,NA,NA,fixation,NA,NA,NA,NA,NA,NA,sub9
d3-animate-choice,103,540986,0.0-61.0-0.14,TRUE,FALSE,TRUE,FALSE,"""event"",""trial"",""time""
""fullscreenenter"",""5"",""34231""
","
","
","""event"",""trial"",""time""
""fullscreenenter"",""5"",""34231""
","
",441,NA,48,NA,NA,3000,1,970,48,images/earth.jpg,images/tutrocket1,images/tutrocket2,null,images/tutrocket1,NA,1,practice,null,2,NA,NA,NA,sub9
d3-animate-choice,104,543707,0.0-61.0-1.14,TRUE,FALSE,TRUE,FALSE,"""event"",""trial"",""time""
""fullscreenenter"",""5"",""34231""
","
","
","""event"",""trial"",""time""
""fullscreenenter"",""5"",""34231""
","
",711,NA,49,NA,NA,3000,1,1342,49,images/tutyellowplanet.jpg,images/tutalien4,images/tutalien3,images/tutrocket1,images/tutalien3,images/t.png,2,practice,true,1,common,1,2020-06-05T12:35:04Z,sub9
two-step-fixation,105,544727,0.0-61.0-2.14,TRUE,FALSE,TRUE,FALSE,"""event"",""trial"",""time""
""fullscreenenter"",""5"",""34231""
","
","
","""event"",""trial"",""time""
""fullscreenenter"",""5"",""34231""
","
",NA,images/earth.jpg,NA,NA,NA,NA,NA,NA,NA,NA,NA,NA,NA,NA,NA,fixation,NA,NA,NA,NA,NA,NA,sub9
d3-animate-choice,106,547656,0.0-61.0-0.15,TRUE,FALSE,TRUE,FALSE,"""event"",""trial"",""time""
""fullscreenenter"",""5"",""34231""
","
","
","""event"",""trial"",""time""
""fullscreenenter"",""5"",""34231""
","
",916,NA,49,NA,NA,3000,1,1333,49,images/earth.jpg,images/tutrocket1,images/tutrocket2,null,images/tutrocket2,NA,1,practice,null,1,NA,NA,NA,sub9
d3-animate-choice,107,550387,0.0-61.0-1.15,TRUE,FALSE,TRUE,FALSE,"""event"",""trial"",""time""
""fullscreenenter"",""5"",""34231""
","
","
","""event"",""trial"",""time""
""fullscreenenter"",""5"",""34231""
","
",721,NA,48,NA,NA,3000,1,1081,48,images/tutyellowplanet.jpg,images/tutalien4,images/tutalien3,images/tutrocket2,images/tutalien4,images/t.png,2,practice,false,2,rare,1,2020-06-05T12:35:11Z,sub9
two-step-fixation,108,551397,0.0-61.0-2.15,TRUE,FALSE,TRUE,FALSE,"""event"",""trial"",""time""
""fullscreenenter"",""5"",""34231""
","
","
","""event"",""trial"",""time""
""fullscreenenter"",""5"",""34231""
","
",NA,images/earth.jpg,NA,NA,NA,NA,NA,NA,NA,NA,NA,NA,NA,NA,NA,fixation,NA,NA,NA,NA,NA,NA,sub9
d3-animate-choice,109,554368,0.0-61.0-0.16,TRUE,FALSE,TRUE,FALSE,"""event"",""trial"",""time""
""fullscreenenter"",""5"",""34231""
","
","
","""event"",""trial"",""time""
""fullscreenenter"",""5"",""34231""
","
",958,NA,49,NA,NA,3000,1,1846,49,images/earth.jpg,images/tutrocket1,images/tutrocket2,null,images/tutrocket2,NA,1,practice,null,1,NA,NA,NA,sub9
d3-animate-choice,110,557338,0.0-61.0-1.16,TRUE,FALSE,TRUE,FALSE,"""event"",""trial"",""time""
""fullscreenenter"",""5"",""34231""
","
","
","""event"",""trial"",""time""
""fullscreenenter"",""5"",""34231""
","
",955,NA,48,NA,NA,3000,1,13212107,4848,images/tutgreenplanet.jpg,images/tutalien2,images/tutalien1,images/tutrocket2,images/tutalien2,images/t.png,2,practice,true,2,common,1,2020-06-05T12:35:18Z,sub9
two-step-fixation,111,558347,0.0-61.0-2.16,TRUE,FALSE,TRUE,FALSE,"""event"",""trial"",""time""
""fullscreenenter"",""5"",""34231""
","
","
","""event"",""trial"",""time""
""fullscreenenter"",""5"",""34231""
","
",NA,images/earth.jpg,NA,NA,NA,NA,NA,NA,NA,NA,NA,NA,NA,NA,NA,fixation,NA,NA,NA,NA,NA,NA,sub9
d3-animate-choice,112,561288,0.0-61.0-0.17,TRUE,FALSE,TRUE,FALSE,"""event"",""trial"",""time""
""fullscreenenter"",""5"",""34231""
","
","
","""event"",""trial"",""time""
""fullscreenenter"",""5"",""34231""
","
",921,NA,49,NA,NA,3000,1,1272,49,images/earth.jpg,images/tutrocket1,images/tutrocket2,null,images/tutrocket2,NA,1,practice,null,1,NA,NA,NA,sub9
d3-animate-choice,113,564217,0.0-61.0-1.17,TRUE,FALSE,TRUE,FALSE,"""event"",""trial"",""time""
""fullscreenenter"",""5"",""34231""
","
","
","""event"",""trial"",""time""
""fullscreenenter"",""5"",""34231""
","
",924,NA,49,NA,NA,3000,1,128217092067,494949,images/tutgreenplanet.jpg,images/tutalien2,images/tutalien1,images/tutrocket2,images/tutalien1,images/nothing.png,2,practice,true,1,common,0,2020-06-05T12:35:24Z,sub9
two-step-fixation,114,565227,0.0-61.0-2.17,TRUE,FALSE,TRUE,FALSE,"""event"",""trial"",""time""
""fullscreenenter"",""5"",""34231""
","
","
","""event"",""trial"",""time""
""fullscreenenter"",""5"",""34231""
","
",NA,images/earth.jpg,NA,NA,NA,NA,NA,NA,NA,NA,NA,NA,NA,NA,NA,fixation,NA,NA,NA,NA,NA,NA,sub9
d3-animate-choice,115,569199,0.0-61.0-0.18,TRUE,FALSE,TRUE,FALSE,"""event"",""trial"",""time""
""fullscreenenter"",""5"",""34231""
","
","
","""event"",""trial"",""time""
""fullscreenenter"",""5"",""34231""
","
",1960,NA,48,NA,NA,3000,1,22482944,5748,images/earth.jpg,images/tutrocket1,images/tutrocket2,null,images/tutrocket1,NA,1,practice,null,2,NA,NA,NA,sub9
d3-animate-choice,116,572218,0.0-61.0-1.18,TRUE,FALSE,TRUE,FALSE,"""event"",""trial"",""time""
""fullscreenenter"",""5"",""34231""
","
","
","""event"",""trial"",""time""
""fullscreenenter"",""5"",""34231""
","
",1006,NA,49,NA,NA,3000,1,12461525199922452e7,494949494949,images/tutyellowplanet.jpg,images/tutalien4,images/tutalien3,images/tutrocket1,images/tutalien3,images/nothing.png,2,practice,true,1,common,0,2020-06-05T12:35:32Z,sub9
two-step-fixation,117,573239,0.0-61.0-2.18,TRUE,FALSE,TRUE,FALSE,"""event"",""trial"",""time""
""fullscreenenter"",""5"",""34231""
","
","
","""event"",""trial"",""time""
""fullscreenenter"",""5"",""34231""
","
",NA,images/earth.jpg,NA,NA,NA,NA,NA,NA,NA,NA,NA,NA,NA,NA,NA,fixation,NA,NA,NA,NA,NA,NA,sub9
d3-animate-choice,118,577269,0.0-61.0-0.19,TRUE,FALSE,TRUE,FALSE,"""event"",""trial"",""time""
""fullscreenenter"",""5"",""34231""
","
","
","""event"",""trial"",""time""
""fullscreenenter"",""5"",""34231""
","
",2055,NA,48,NA,NA,3000,1,247937023902,484848,images/earth.jpg,images/tutrocket1,images/tutrocket2,null,images/tutrocket1,NA,1,practice,null,2,NA,NA,NA,sub9
d3-animate-choice,119,580040,0.0-61.0-1.19,TRUE,FALSE,TRUE,FALSE,"""event"",""trial"",""time""
""fullscreenenter"",""5"",""34231""
","
","
","""event"",""trial"",""time""
""fullscreenenter"",""5"",""34231""
","
",759,NA,48,NA,NA,3000,1,1288,48,images/tutyellowplanet.jpg,images/tutalien4,images/tutalien3,images/tutrocket1,images/tutalien4,images/t.png,2,practice,true,2,common,1,2020-06-05T12:35:40Z,sub9
two-step-fixation,120,581060,0.0-61.0-2.19,TRUE,FALSE,TRUE,FALSE,"""event"",""trial"",""time""
""fullscreenenter"",""5"",""34231""
","
","
","""event"",""trial"",""time""
""fullscreenenter"",""5"",""34231""
","
",NA,images/earth.jpg,NA,NA,NA,NA,NA,NA,NA,NA,NA,NA,NA,NA,NA,fixation,NA,NA,NA,NA,NA,NA,sub9
d3-instructions,121,588329,0.0-62.0,TRUE,FALSE,TRUE,FALSE,"""event"",""trial"",""time""
""fullscreenenter"",""5"",""34231""
","
","
","""event"",""trial"",""time""
""fullscreenenter"",""5"",""34231""
","
",NA,NA,NA,NA,NA,NA,NA,NA,NA,NA,NA,NA,NA,NA,NA,NA,NA,NA,NA,NA,NA,NA,sub9
audio-keyboard-response,122,592994,0.0-63.0,TRUE,FALSE,TRUE,FALSE,"""event"",""trial"",""time""
""fullscreenenter"",""5"",""34231""
","
","
","""event"",""trial"",""time""
""fullscreenenter"",""5"",""34231""
","
",4669,audio/instructions/treasure_feedback.wav,32,NA,NA,NA,NA,NA,NA,NA,NA,NA,NA,NA,NA,NA,NA,NA,NA,NA,NA,NA,sub9
d3-instructions,123,614747,0.0-64.0,TRUE,FALSE,TRUE,FALSE,"""event"",""trial"",""time""
""fullscreenenter"",""5"",""34231""
","
","
","""event"",""trial"",""time""
""fullscreenenter"",""5"",""34231""
","
",NA,NA,NA,NA,NA,NA,NA,NA,NA,NA,NA,NA,NA,NA,NA,NA,NA,NA,NA,NA,NA,NA,sub9
d3-instructions,124,628676,0.0-65.0,TRUE,FALSE,TRUE,FALSE,"""event"",""trial"",""time""
""fullscreenenter"",""5"",""34231""
","
","
","""event"",""trial"",""time""
""fullscreenenter"",""5"",""34231""
","
",NA,NA,NA,NA,NA,NA,NA,NA,NA,NA,NA,NA,NA,NA,NA,NA,NA,NA,NA,NA,NA,NA,sub9
d3-instructions,125,645726,0.0-66.0,TRUE,FALSE,TRUE,FALSE,"""event"",""trial"",""time""
""fullscreenenter"",""5"",""34231""
","
","
","""event"",""trial"",""time""
""fullscreenenter"",""5"",""34231""
","
",NA,NA,NA,NA,NA,NA,NA,NA,NA,NA,NA,NA,NA,NA,NA,NA,NA,NA,NA,NA,NA,NA,sub9
d3-instructions,126,655208,0.0-67.0,TRUE,FALSE,TRUE,FALSE,"""event"",""trial"",""time""
""fullscreenenter"",""5"",""34231""
","
","
","""event"",""trial"",""time""
""fullscreenenter"",""5"",""34231""
","
",NA,NA,NA,NA,NA,NA,NA,NA,NA,NA,NA,NA,NA,NA,NA,NA,NA,NA,NA,NA,NA,NA,sub9
d3-instructions,127,663902,0.0-68.0,TRUE,FALSE,TRUE,FALSE,"""event"",""trial"",""time""
""fullscreenenter"",""5"",""34231""
","
","
","""event"",""trial"",""time""
""fullscreenenter"",""5"",""34231""
","
",NA,NA,NA,NA,NA,NA,NA,NA,NA,NA,NA,NA,NA,NA,NA,NA,NA,NA,NA,NA,NA,NA,sub9
instructions-quiz,128,669053,0.0-69.0,TRUE,FALSE,TRUE,FALSE,"""event"",""trial"",""time""
""fullscreenenter"",""5"",""34231""
","
","
","""event"",""trial"",""time""
""fullscreenenter"",""5"",""34231""
","
",5148,audio/quiz/Q1_Prompt.wav,NA,1,NA,NA,NA,NA,NA,NA,NA,NA,NA,NA,NA,NA,NA,NA,NA,NA,NA,NA,sub9
audio-keyboard-response,129,678227,0.0-70.0,TRUE,FALSE,TRUE,FALSE,"""event"",""trial"",""time""
""fullscreenenter"",""5"",""34231""
","
","
","""event"",""trial"",""time""
""fullscreenenter"",""5"",""34231""
","
",null,audio/quiz/Q1_Correct.wav,null,NA,NA,NA,NA,NA,NA,NA,NA,NA,NA,NA,NA,NA,NA,NA,NA,NA,NA,NA,sub9
instructions-quiz,130,687273,0.0-71.0,TRUE,FALSE,TRUE,FALSE,"""event"",""trial"",""time""
""fullscreenenter"",""5"",""34231""
","
","
","""event"",""trial"",""time""
""fullscreenenter"",""5"",""34231""
","
",9046,audio/quiz/Q2_Prompt.wav,NA,0,NA,NA,NA,NA,NA,NA,NA,NA,NA,NA,NA,NA,NA,NA,NA,NA,NA,NA,sub9
audio-keyboard-response,131,700149,0.0-72.0,TRUE,FALSE,TRUE,FALSE,"""event"",""trial"",""time""
""fullscreenenter"",""5"",""34231""
","
","
","""event"",""trial"",""time""
""fullscreenenter"",""5"",""34231""
","
",null,audio/quiz/Q2_Correct.wav,null,NA,NA,NA,NA,NA,NA,NA,NA,NA,NA,NA,NA,NA,NA,NA,NA,NA,NA,NA,sub9
instructions-quiz,132,704945,0.0-73.0,TRUE,FALSE,TRUE,FALSE,"""event"",""trial"",""time""
""fullscreenenter"",""5"",""34231""
","
","
","""event"",""trial"",""time""
""fullscreenenter"",""5"",""34231""
","
",4795,audio/quiz/Q3_Prompt.wav,NA,1,NA,NA,NA,NA,NA,NA,NA,NA,NA,NA,NA,NA,NA,NA,NA,NA,NA,NA,sub9
audio-keyboard-response,133,710749,0.0-74.0,TRUE,FALSE,TRUE,FALSE,"""event"",""trial"",""time""
""fullscreenenter"",""5"",""34231""
","
","
","""event"",""trial"",""time""
""fullscreenenter"",""5"",""34231""
","
",null,audio/quiz/Q3_Correct.wav,null,NA,NA,NA,NA,NA,NA,NA,NA,NA,NA,NA,NA,NA,NA,NA,NA,NA,NA,NA,sub9
d3-instructions,134,723931,0.0-75.0,TRUE,FALSE,TRUE,FALSE,"""event"",""trial"",""time""
""fullscreenenter"",""5"",""34231""
","
","
","""event"",""trial"",""time""
""fullscreenenter"",""5"",""34231""
","
",NA,NA,NA,NA,NA,NA,NA,NA,NA,NA,NA,NA,NA,NA,NA,NA,NA,NA,NA,NA,NA,NA,sub9
d3-animate-choice,135,727949,0.0-76.0-0.0,TRUE,FALSE,TRUE,FALSE,"""event"",""trial"",""time""
""fullscreenenter"",""5"",""34231""
","
","
","""event"",""trial"",""time""
""fullscreenenter"",""5"",""34231""
","
",2245,NA,49,NA,NA,3000,1,2981,49,images/earth.jpg,images/rocket2,images/rocket1,null,images/rocket1,NA,1,real,null,1,NA,NA,NA,sub9
d3-animate-choice,136,730990,0.0-76.0-1.0,TRUE,FALSE,TRUE,FALSE,"""event"",""trial"",""time""
""fullscreenenter"",""5"",""34231""
","
","
","""event"",""trial"",""time""
""fullscreenenter"",""5"",""34231""
","
",1025,NA,49,NA,NA,3000,1,1561,49,images/redplanet1.jpg,images/alien2,images/alien1,images/rocket1,images/alien1,images/t.png,2,real,false,1,rare,1,2020-06-05T12:38:11Z,sub9
two-step-fixation,137,732010,0.0-76.0-2.0,TRUE,FALSE,TRUE,FALSE,"""event"",""trial"",""time""
""fullscreenenter"",""5"",""34231""
","
","
","""event"",""trial"",""time""
""fullscreenenter"",""5"",""34231""
","
",NA,images/earth.jpg,NA,NA,NA,NA,NA,NA,NA,NA,NA,NA,NA,NA,NA,fixation,NA,NA,NA,NA,NA,NA,sub9
d3-animate-choice,138,735021,0.0-76.0-0.1,TRUE,FALSE,TRUE,FALSE,"""event"",""trial"",""time""
""fullscreenenter"",""5"",""34231""
","
","
","""event"",""trial"",""time""
""fullscreenenter"",""5"",""34231""
","
",999,NA,49,NA,NA,3000,1,1462,49,images/earth.jpg,images/rocket2,images/rocket1,null,images/rocket1,NA,1,real,null,1,NA,NA,NA,sub9
d3-animate-choice,139,737762,0.0-76.0-1.1,TRUE,FALSE,TRUE,FALSE,"""event"",""trial"",""time""
""fullscreenenter"",""5"",""34231""
","
","
","""event"",""trial"",""time""
""fullscreenenter"",""5"",""34231""
","
",730,NA,48,NA,NA,3000,1,1241,48,images/redplanet1.jpg,images/alien2,images/alien1,images/rocket1,images/alien2,images/t.png,2,real,false,2,rare,1,2020-06-05T12:38:18Z,sub9
two-step-fixation,140,738770,0.0-76.0-2.1,TRUE,FALSE,TRUE,FALSE,"""event"",""trial"",""time""
""fullscreenenter"",""5"",""34231""
","
","
","""event"",""trial"",""time""
""fullscreenenter"",""5"",""34231""
","
",NA,images/earth.jpg,NA,NA,NA,NA,NA,NA,NA,NA,NA,NA,NA,NA,NA,fixation,NA,NA,NA,NA,NA,NA,sub9
d3-animate-choice,141,740940,0.0-76.0-0.2,TRUE,FALSE,TRUE,FALSE,"""event"",""trial"",""time""
""fullscreenenter"",""5"",""34231""
","
","
","""event"",""trial"",""time""
""fullscreenenter"",""5"",""34231""
","
",160,NA,49,NA,NA,3000,1,655,49,images/earth.jpg,images/rocket2,images/rocket1,null,images/rocket1,NA,1,real,null,1,NA,NA,NA,sub9
d3-animate-choice,142,743600,0.0-76.0-1.2,TRUE,FALSE,TRUE,FALSE,"""event"",""trial"",""time""
""fullscreenenter"",""5"",""34231""
","
","
","""event"",""trial"",""time""
""fullscreenenter"",""5"",""34231""
","
",651,NA,48,NA,NA,3000,1,1139,48,images/redplanet1.jpg,images/alien2,images/alien1,images/rocket1,images/alien2,images/t.png,2,real,false,2,rare,1,2020-06-05T12:38:24Z,sub9
two-step-fixation,143,744605,0.0-76.0-2.2,TRUE,FALSE,TRUE,FALSE,"""event"",""trial"",""time""
""fullscreenenter"",""5"",""34231""
","
","
","""event"",""trial"",""time""
""fullscreenenter"",""5"",""34231""
","
",NA,images/earth.jpg,NA,NA,NA,NA,NA,NA,NA,NA,NA,NA,NA,NA,NA,fixation,NA,NA,NA,NA,NA,NA,sub9
d3-animate-choice,144,747120,0.0-76.0-0.3,TRUE,FALSE,TRUE,FALSE,"""event"",""trial"",""time""
""fullscreenenter"",""5"",""34231""
","
","
","""event"",""trial"",""time""
""fullscreenenter"",""5"",""34231""
","
",502,NA,49,NA,NA,3000,1,1101,49,images/earth.jpg,images/rocket2,images/rocket1,null,images/rocket1,NA,1,real,null,1,NA,NA,NA,sub9
d3-animate-choice,145,749650,0.0-76.0-1.3,TRUE,FALSE,TRUE,FALSE,"""event"",""trial"",""time""
""fullscreenenter"",""5"",""34231""
","
","
","""event"",""trial"",""time""
""fullscreenenter"",""5"",""34231""
","
",511,NA,49,NA,NA,3000,1,1174,49,images/redplanet1.jpg,images/alien2,images/alien1,images/rocket1,images/alien1,images/nothing.png,2,real,false,1,rare,0,2020-06-05T12:38:30Z,sub9
two-step-fixation,146,750671,0.0-76.0-2.3,TRUE,FALSE,TRUE,FALSE,"""event"",""trial"",""time""
""fullscreenenter"",""5"",""34231""
","
","
","""event"",""trial"",""time""
""fullscreenenter"",""5"",""34231""
","
",NA,images/earth.jpg,NA,NA,NA,NA,NA,NA,NA,NA,NA,NA,NA,NA,NA,fixation,NA,NA,NA,NA,NA,NA,sub9
d3-animate-choice,147,753182,0.0-76.0-0.4,TRUE,FALSE,TRUE,FALSE,"""event"",""trial"",""time""
""fullscreenenter"",""5"",""34231""
","
","
","""event"",""trial"",""time""
""fullscreenenter"",""5"",""34231""
","
",500,NA,49,NA,NA,3000,1,899,49,images/earth.jpg,images/rocket2,images/rocket1,null,images/rocket1,NA,1,real,null,1,NA,NA,NA,sub9
d3-animate-choice,148,755802,0.0-76.0-1.4,TRUE,FALSE,TRUE,FALSE,"""event"",""trial"",""time""
""fullscreenenter"",""5"",""34231""
","
","
","""event"",""trial"",""time""
""fullscreenenter"",""5"",""34231""
","
",611,NA,48,NA,NA,3000,1,1050,48,images/purpleplanet.jpg,images/alien4,images/alien3,images/rocket1,images/alien4,images/t.png,2,real,true,2,common,1,2020-06-05T12:38:36Z,sub9
two-step-fixation,149,756812,0.0-76.0-2.4,TRUE,FALSE,TRUE,FALSE,"""event"",""trial"",""time""
""fullscreenenter"",""5"",""34231""
","
","
","""event"",""trial"",""time""
""fullscreenenter"",""5"",""34231""
","
",NA,images/earth.jpg,NA,NA,NA,NA,NA,NA,NA,NA,NA,NA,NA,NA,NA,fixation,NA,NA,NA,NA,NA,NA,sub9
d3-animate-choice,150,759271,0.0-76.0-0.5,TRUE,FALSE,TRUE,FALSE,"""event"",""trial"",""time""
""fullscreenenter"",""5"",""34231""
","
","
","""event"",""trial"",""time""
""fullscreenenter"",""5"",""34231""
","
",439,NA,48,NA,NA,3000,1,840,48,images/earth.jpg,images/rocket2,images/rocket1,null,images/rocket2,NA,1,real,null,2,NA,NA,NA,sub9
d3-animate-choice,151,761991,0.0-76.0-1.5,TRUE,FALSE,TRUE,FALSE,"""event"",""trial"",""time""
""fullscreenenter"",""5"",""34231""
","
","
","""event"",""trial"",""time""
""fullscreenenter"",""5"",""34231""
","
",705,NA,49,NA,NA,3000,1,1148,49,images/purpleplanet.jpg,images/alien4,images/alien3,images/rocket2,images/alien3,images/nothing.png,2,real,false,1,rare,0,2020-06-05T12:38:42Z,sub9
two-step-fixation,152,763003,0.0-76.0-2.5,TRUE,FALSE,TRUE,FALSE,"""event"",""trial"",""time""
""fullscreenenter"",""5"",""34231""
","
","
","""event"",""trial"",""time""
""fullscreenenter"",""5"",""34231""
","
",NA,images/earth.jpg,NA,NA,NA,NA,NA,NA,NA,NA,NA,NA,NA,NA,NA,fixation,NA,NA,NA,NA,NA,NA,sub9
d3-animate-choice,153,765712,0.0-76.0-0.6,TRUE,FALSE,TRUE,FALSE,"""event"",""trial"",""time""
""fullscreenenter"",""5"",""34231""
","
","
","""event"",""trial"",""time""
""fullscreenenter"",""5"",""34231""
","
",696,NA,48,NA,NA,3000,1,1112,48,images/earth.jpg,images/rocket2,images/rocket1,null,images/rocket2,NA,1,real,null,2,NA,NA,NA,sub9
d3-animate-choice,154,768312,0.0-76.0-1.6,TRUE,FALSE,TRUE,FALSE,"""event"",""trial"",""time""
""fullscreenenter"",""5"",""34231""
","
","
","""event"",""trial"",""time""
""fullscreenenter"",""5"",""34231""
","
",584,NA,48,NA,NA,3000,1,992,48,images/redplanet1.jpg,images/alien2,images/alien1,images/rocket2,images/alien2,images/nothing.png,2,real,true,2,common,0,2020-06-05T12:38:49Z,sub9
two-step-fixation,155,769322,0.0-76.0-2.6,TRUE,FALSE,TRUE,FALSE,"""event"",""trial"",""time""
""fullscreenenter"",""5"",""34231""
","
","
","""event"",""trial"",""time""
""fullscreenenter"",""5"",""34231""
","
",NA,images/earth.jpg,NA,NA,NA,NA,NA,NA,NA,NA,NA,NA,NA,NA,NA,fixation,NA,NA,NA,NA,NA,NA,sub9
d3-animate-choice,156,771582,0.0-76.0-0.7,TRUE,FALSE,TRUE,FALSE,"""event"",""trial"",""time""
""fullscreenenter"",""5"",""34231""
","
","
","""event"",""trial"",""time""
""fullscreenenter"",""5"",""34231""
","
",241,NA,49,NA,NA,3000,1,697,49,images/earth.jpg,images/rocket2,images/rocket1,null,images/rocket1,NA,1,real,null,1,NA,NA,NA,sub9
d3-animate-choice,157,774204,0.0-76.0-1.7,TRUE,FALSE,TRUE,FALSE,"""event"",""trial"",""time""
""fullscreenenter"",""5"",""34231""
","
","
","""event"",""trial"",""time""
""fullscreenenter"",""5"",""34231""
","
",614,NA,48,NA,NA,3000,1,961,48,images/redplanet1.jpg,images/alien2,images/alien1,images/rocket1,images/alien2,images/nothing.png,2,real,false,2,rare,0,2020-06-05T12:38:54Z,sub9
two-step-fixation,158,775222,0.0-76.0-2.7,TRUE,FALSE,TRUE,FALSE,"""event"",""trial"",""time""
""fullscreenenter"",""5"",""34231""
","
","
","""event"",""trial"",""time""
""fullscreenenter"",""5"",""34231""
","
",NA,images/earth.jpg,NA,NA,NA,NA,NA,NA,NA,NA,NA,NA,NA,NA,NA,fixation,NA,NA,NA,NA,NA,NA,sub9
d3-animate-choice,159,777993,0.0-76.0-0.8,TRUE,FALSE,TRUE,FALSE,"""event"",""trial"",""time""
""fullscreenenter"",""5"",""34231""
","
","
","""event"",""trial"",""time""
""fullscreenenter"",""5"",""34231""
","
",763,NA,49,NA,NA,3000,1,1171,49,images/earth.jpg,images/rocket2,images/rocket1,null,images/rocket1,NA,1,real,null,1,NA,NA,NA,sub9
d3-animate-choice,160,780293,0.0-76.0-1.8,TRUE,FALSE,TRUE,FALSE,"""event"",""trial"",""time""
""fullscreenenter"",""5"",""34231""
","
","
","""event"",""trial"",""time""
""fullscreenenter"",""5"",""34231""
","
",288,NA,49,NA,NA,3000,1,5041057,4949,images/purpleplanet.jpg,images/alien4,images/alien3,images/rocket1,images/alien3,images/t.png,2,real,true,1,common,1,2020-06-05T12:39:01Z,sub9
two-step-fixation,161,781313,0.0-76.0-2.8,TRUE,FALSE,TRUE,FALSE,"""event"",""trial"",""time""
""fullscreenenter"",""5"",""34231""
","
","
","""event"",""trial"",""time""
""fullscreenenter"",""5"",""34231""
","
",NA,images/earth.jpg,NA,NA,NA,NA,NA,NA,NA,NA,NA,NA,NA,NA,NA,fixation,NA,NA,NA,NA,NA,NA,sub9
d3-animate-choice,162,784084,0.0-76.0-0.9,TRUE,FALSE,TRUE,FALSE,"""event"",""trial"",""time""
""fullscreenenter"",""5"",""34231""
","
","
","""event"",""trial"",""time""
""fullscreenenter"",""5"",""34231""
","
",747,NA,49,NA,NA,3000,1,1251,49,images/earth.jpg,images/rocket2,images/rocket1,null,images/rocket1,NA,1,real,null,1,NA,NA,NA,sub9
d3-animate-choice,163,786855,0.0-76.0-1.9,TRUE,FALSE,TRUE,FALSE,"""event"",""trial"",""time""
""fullscreenenter"",""5"",""34231""
","
","
","""event"",""trial"",""time""
""fullscreenenter"",""5"",""34231""
","
",751,NA,48,NA,NA,3000,1,1166,48,images/purpleplanet.jpg,images/alien4,images/alien3,images/rocket1,images/alien4,images/nothing.png,2,real,true,2,common,0,2020-06-05T12:39:07Z,sub9
two-step-fixation,164,787863,0.0-76.0-2.9,TRUE,FALSE,TRUE,FALSE,"""event"",""trial"",""time""
""fullscreenenter"",""5"",""34231""
","
","
","""event"",""trial"",""time""
""fullscreenenter"",""5"",""34231""
","
",NA,images/earth.jpg,NA,NA,NA,NA,NA,NA,NA,NA,NA,NA,NA,NA,NA,fixation,NA,NA,NA,NA,NA,NA,sub9
d3-animate-choice,165,790274,0.0-76.0-0.10,TRUE,FALSE,TRUE,FALSE,"""event"",""trial"",""time""
""fullscreenenter"",""5"",""34231""
","
","
","""event"",""trial"",""time""
""fullscreenenter"",""5"",""34231""
","
",404,NA,49,NA,NA,3000,1,1005,49,images/earth.jpg,images/rocket2,images/rocket1,null,images/rocket1,NA,1,real,null,1,NA,NA,NA,sub9
d3-animate-choice,166,792914,0.0-76.0-1.10,TRUE,FALSE,TRUE,FALSE,"""event"",""trial"",""time""
""fullscreenenter"",""5"",""34231""
","
","
","""event"",""trial"",""time""
""fullscreenenter"",""5"",""34231""
","
",634,NA,48,NA,NA,3000,1,986,48,images/purpleplanet.jpg,images/alien4,images/alien3,images/rocket1,images/alien4,images/t.png,2,real,true,2,common,1,2020-06-05T12:39:13Z,sub9
two-step-fixation,167,793934,0.0-76.0-2.10,TRUE,FALSE,TRUE,FALSE,"""event"",""trial"",""time""
""fullscreenenter"",""5"",""34231""
","
","
","""event"",""trial"",""time""
""fullscreenenter"",""5"",""34231""
","
",NA,images/earth.jpg,NA,NA,NA,NA,NA,NA,NA,NA,NA,NA,NA,NA,NA,fixation,NA,NA,NA,NA,NA,NA,sub9
d3-animate-choice,168,796314,0.0-76.0-0.11,TRUE,FALSE,TRUE,FALSE,"""event"",""trial"",""time""
""fullscreenenter"",""5"",""34231""
","
","
","""event"",""trial"",""time""
""fullscreenenter"",""5"",""34231""
","
",367,NA,48,NA,NA,3000,1,750,48,images/earth.jpg,images/rocket2,images/rocket1,null,images/rocket2,NA,1,real,null,2,NA,NA,NA,sub9
d3-animate-choice,169,798954,0.0-76.0-1.11,TRUE,FALSE,TRUE,FALSE,"""event"",""trial"",""time""
""fullscreenenter"",""5"",""34231""
","
","
","""event"",""trial"",""time""
""fullscreenenter"",""5"",""34231""
","
",633,NA,49,NA,NA,3000,1,1056,49,images/redplanet1.jpg,images/alien2,images/alien1,images/rocket2,images/alien1,images/nothing.png,2,real,true,1,common,0,2020-06-05T12:39:19Z,sub9
two-step-fixation,170,799974,0.0-76.0-2.11,TRUE,FALSE,TRUE,FALSE,"""event"",""trial"",""time""
""fullscreenenter"",""5"",""34231""
","
","
","""event"",""trial"",""time""
""fullscreenenter"",""5"",""34231""
","
",NA,images/earth.jpg,NA,NA,NA,NA,NA,NA,NA,NA,NA,NA,NA,NA,NA,fixation,NA,NA,NA,NA,NA,NA,sub9
d3-animate-choice,171,802306,0.0-76.0-0.12,TRUE,FALSE,TRUE,FALSE,"""event"",""trial"",""time""
""fullscreenenter"",""5"",""34231""
","
","
","""event"",""trial"",""time""
""fullscreenenter"",""5"",""34231""
","
",319,NA,48,NA,NA,3000,1,8401823,4848,images/earth.jpg,images/rocket2,images/rocket1,null,images/rocket2,NA,1,real,null,2,NA,NA,NA,sub9
d3-animate-choice,172,804395,0.0-76.0-1.12,TRUE,FALSE,TRUE,FALSE,"""event"",""trial"",""time""
""fullscreenenter"",""5"",""34231""
","
","
","""event"",""trial"",""time""
""fullscreenenter"",""5"",""34231""
","
",80,NA,48,NA,NA,3000,1,28852177096911614e15,484848484848484800,images/purpleplanet.jpg,images/alien4,images/alien3,images/rocket2,images/alien4,images/nothing.png,2,real,false,2,rare,0,2020-06-05T12:39:25Z,sub9
two-step-fixation,173,805414,0.0-76.0-2.12,TRUE,FALSE,TRUE,FALSE,"""event"",""trial"",""time""
""fullscreenenter"",""5"",""34231""
","
","
","""event"",""trial"",""time""
""fullscreenenter"",""5"",""34231""
","
",NA,images/earth.jpg,NA,NA,NA,NA,NA,NA,NA,NA,NA,NA,NA,NA,NA,fixation,NA,NA,NA,NA,NA,NA,sub9
d3-animate-choice,174,808305,0.0-76.0-0.13,TRUE,FALSE,TRUE,FALSE,"""event"",""trial"",""time""
""fullscreenenter"",""5"",""34231""
","
","
","""event"",""trial"",""time""
""fullscreenenter"",""5"",""34231""
","
",871,NA,49,NA,NA,3000,1,1670,49,images/earth.jpg,images/rocket2,images/rocket1,null,images/rocket1,NA,1,real,null,1,NA,NA,NA,sub9
d3-animate-choice,175,811006,0.0-76.0-1.13,TRUE,FALSE,TRUE,FALSE,"""event"",""trial"",""time""
""fullscreenenter"",""5"",""34231""
","
","
","""event"",""trial"",""time""
""fullscreenenter"",""5"",""34231""
","
",675,NA,49,NA,NA,3000,1,1467,49,images/purpleplanet.jpg,images/alien4,images/alien3,images/rocket1,images/alien3,images/nothing.png,2,real,true,1,common,0,2020-06-05T12:39:31Z,sub9
two-step-fixation,176,812025,0.0-76.0-2.13,TRUE,FALSE,TRUE,FALSE,"""event"",""trial"",""time""
""fullscreenenter"",""5"",""34231""
","
","
","""event"",""trial"",""time""
""fullscreenenter"",""5"",""34231""
","
",NA,images/earth.jpg,NA,NA,NA,NA,NA,NA,NA,NA,NA,NA,NA,NA,NA,fixation,NA,NA,NA,NA,NA,NA,sub9
d3-animate-choice,177,814476,0.0-76.0-0.14,TRUE,FALSE,TRUE,FALSE,"""event"",""trial"",""time""
""fullscreenenter"",""5"",""34231""
","
","
","""event"",""trial"",""time""
""fullscreenenter"",""5"",""34231""
","
",436,NA,49,NA,NA,3000,1,939,49,images/earth.jpg,images/rocket2,images/rocket1,null,images/rocket1,NA,1,real,null,1,NA,NA,NA,sub9
d3-animate-choice,178,817055,0.0-76.0-1.14,TRUE,FALSE,TRUE,FALSE,"""event"",""trial"",""time""
""fullscreenenter"",""5"",""34231""
","
","
","""event"",""trial"",""time""
""fullscreenenter"",""5"",""34231""
","
",568,NA,48,NA,NA,3000,1,1048,48,images/purpleplanet.jpg,images/alien4,images/alien3,images/rocket1,images/alien4,images/t.png,2,real,true,2,common,1,2020-06-05T12:39:37Z,sub9
two-step-fixation,179,818066,0.0-76.0-2.14,TRUE,FALSE,TRUE,FALSE,"""event"",""trial"",""time""
""fullscreenenter"",""5"",""34231""
","
","
","""event"",""trial"",""time""
""fullscreenenter"",""5"",""34231""
","
",NA,images/earth.jpg,NA,NA,NA,NA,NA,NA,NA,NA,NA,NA,NA,NA,NA,fixation,NA,NA,NA,NA,NA,NA,sub9
d3-animate-choice,180,820796,0.0-76.0-0.15,TRUE,FALSE,TRUE,FALSE,"""event"",""trial"",""time""
""fullscreenenter"",""5"",""34231""
","
","
","""event"",""trial"",""time""
""fullscreenenter"",""5"",""34231""
","
",707,NA,48,NA,NA,3000,1,1172,48,images/earth.jpg,images/rocket2,images/rocket1,null,images/rocket2,NA,1,real,null,2,NA,NA,NA,sub9
d3-animate-choice,181,823697,0.0-76.0-1.15,TRUE,FALSE,TRUE,FALSE,"""event"",""trial"",""time""
""fullscreenenter"",""5"",""34231""
","
","
","""event"",""trial"",""time""
""fullscreenenter"",""5"",""34231""
","
",883,NA,49,NA,NA,3000,1,1291,49,images/purpleplanet.jpg,images/alien4,images/alien3,images/rocket2,images/alien3,images/t.png,2,real,false,1,rare,1,2020-06-05T12:39:44Z,sub9
two-step-fixation,182,824707,0.0-76.0-2.15,TRUE,FALSE,TRUE,FALSE,"""event"",""trial"",""time""
""fullscreenenter"",""5"",""34231""
","
","
","""event"",""trial"",""time""
""fullscreenenter"",""5"",""34231""
","
",NA,images/earth.jpg,NA,NA,NA,NA,NA,NA,NA,NA,NA,NA,NA,NA,NA,fixation,NA,NA,NA,NA,NA,NA,sub9
d3-animate-choice,183,827571,0.0-76.0-0.16,TRUE,FALSE,TRUE,FALSE,"""event"",""trial"",""time""
""fullscreenenter"",""5"",""34231""
","
","
","""event"",""trial"",""time""
""fullscreenenter"",""5"",""34231""
","
",844,NA,48,NA,NA,3000,1,1251,48,images/earth.jpg,images/rocket2,images/rocket1,null,images/rocket2,NA,1,real,null,2,NA,NA,NA,sub9
d3-animate-choice,184,830136,0.0-76.0-1.16,TRUE,FALSE,TRUE,FALSE,"""event"",""trial"",""time""
""fullscreenenter"",""5"",""34231""
","
","
","""event"",""trial"",""time""
""fullscreenenter"",""5"",""34231""
","
",555,NA,49,NA,NA,3000,1,963,49,images/redplanet1.jpg,images/alien2,images/alien1,images/rocket2,images/alien1,images/nothing.png,2,real,true,1,common,0,2020-06-05T12:39:50Z,sub9
two-step-fixation,185,831154,0.0-76.0-2.16,TRUE,FALSE,TRUE,FALSE,"""event"",""trial"",""time""
""fullscreenenter"",""5"",""34231""
","
","
","""event"",""trial"",""time""
""fullscreenenter"",""5"",""34231""
","
",NA,images/earth.jpg,NA,NA,NA,NA,NA,NA,NA,NA,NA,NA,NA,NA,NA,fixation,NA,NA,NA,NA,NA,NA,sub9
d3-animate-choice,186,833937,0.0-76.0-0.17,TRUE,FALSE,TRUE,FALSE,"""event"",""trial"",""time""
""fullscreenenter"",""5"",""34231""
","
","
","""event"",""trial"",""time""
""fullscreenenter"",""5"",""34231""
","
",773,NA,48,NA,NA,3000,1,1262,48,images/earth.jpg,images/rocket2,images/rocket1,null,images/rocket2,NA,1,real,null,2,NA,NA,NA,sub9
d3-animate-choice,187,836811,0.0-76.0-1.17,TRUE,FALSE,TRUE,FALSE,"""event"",""trial"",""time""
""fullscreenenter"",""5"",""34231""
","
","
","""event"",""trial"",""time""
""fullscreenenter"",""5"",""34231""
","
",860,NA,48,NA,NA,3000,1,1291,48,images/purpleplanet.jpg,images/alien4,images/alien3,images/rocket2,images/alien4,images/nothing.png,2,real,false,2,rare,0,2020-06-05T12:39:57Z,sub9
two-step-fixation,188,837817,0.0-76.0-2.17,TRUE,FALSE,TRUE,FALSE,"""event"",""trial"",""time""
""fullscreenenter"",""5"",""34231""
","
","
","""event"",""trial"",""time""
""fullscreenenter"",""5"",""34231""
","
",NA,images/earth.jpg,NA,NA,NA,NA,NA,NA,NA,NA,NA,NA,NA,NA,NA,fixation,NA,NA,NA,NA,NA,NA,sub9
d3-animate-choice,189,840498,0.0-76.0-0.18,TRUE,FALSE,TRUE,FALSE,"""event"",""trial"",""time""
""fullscreenenter"",""5"",""34231""
","
","
","""event"",""trial"",""time""
""fullscreenenter"",""5"",""34231""
","
",670,NA,48,NA,NA,3000,1,981,48,images/earth.jpg,images/rocket2,images/rocket1,null,images/rocket2,NA,1,real,null,2,NA,NA,NA,sub9
d3-animate-choice,190,843277,0.0-76.0-1.18,TRUE,FALSE,TRUE,FALSE,"""event"",""trial"",""time""
""fullscreenenter"",""5"",""34231""
","
","
","""event"",""trial"",""time""
""fullscreenenter"",""5"",""34231""
","
",772,NA,48,NA,NA,3000,1,1331,48,images/purpleplanet.jpg,images/alien4,images/alien3,images/rocket2,images/alien4,images/t.png,2,real,false,2,rare,1,2020-06-05T12:40:04Z,sub9
two-step-fixation,191,844297,0.0-76.0-2.18,TRUE,FALSE,TRUE,FALSE,"""event"",""trial"",""time""
""fullscreenenter"",""5"",""34231""
","
","
","""event"",""trial"",""time""
""fullscreenenter"",""5"",""34231""
","
",NA,images/earth.jpg,NA,NA,NA,NA,NA,NA,NA,NA,NA,NA,NA,NA,NA,fixation,NA,NA,NA,NA,NA,NA,sub9
d3-animate-choice,192,846418,0.0-76.0-0.19,TRUE,FALSE,TRUE,FALSE,"""event"",""trial"",""time""
""fullscreenenter"",""5"",""34231""
","
","
","""event"",""trial"",""time""
""fullscreenenter"",""5"",""34231""
","
",109,NA,48,NA,NA,3000,1,388,48,images/earth.jpg,images/rocket2,images/rocket1,null,images/rocket2,NA,1,real,null,2,NA,NA,NA,sub9
d3-animate-choice,193,849868,0.0-76.0-1.19,TRUE,FALSE,TRUE,FALSE,"""event"",""trial"",""time""
""fullscreenenter"",""5"",""34231""
","
","
","""event"",""trial"",""time""
""fullscreenenter"",""5"",""34231""
","
",1438,NA,48,NA,NA,3000,1,1820,48,images/redplanet1.jpg,images/alien2,images/alien1,images/rocket2,images/alien2,images/nothing.png,2,real,true,2,common,0,2020-06-05T12:40:10Z,sub9
two-step-fixation,194,850878,0.0-76.0-2.19,TRUE,FALSE,TRUE,FALSE,"""event"",""trial"",""time""
""fullscreenenter"",""5"",""34231""
","
","
","""event"",""trial"",""time""
""fullscreenenter"",""5"",""34231""
","
",NA,images/earth.jpg,NA,NA,NA,NA,NA,NA,NA,NA,NA,NA,NA,NA,NA,fixation,NA,NA,NA,NA,NA,NA,sub9
d3-animate-choice,195,853819,0.0-76.0-0.20,TRUE,FALSE,TRUE,FALSE,"""event"",""trial"",""time""
""fullscreenenter"",""5"",""34231""
","
","
","""event"",""trial"",""time""
""fullscreenenter"",""5"",""34231""
","
",928,NA,48,NA,NA,3000,1,1392,48,images/earth.jpg,images/rocket2,images/rocket1,null,images/rocket2,NA,1,real,null,2,NA,NA,NA,sub9
d3-animate-choice,196,856399,0.0-76.0-1.20,TRUE,FALSE,TRUE,FALSE,"""event"",""trial"",""time""
""fullscreenenter"",""5"",""34231""
","
","
","""event"",""trial"",""time""
""fullscreenenter"",""5"",""34231""
","
",563,NA,48,NA,NA,3000,1,1148,48,images/redplanet1.jpg,images/alien2,images/alien1,images/rocket2,images/alien2,images/t.png,2,real,true,2,common,1,2020-06-05T12:40:17Z,sub9
two-step-fixation,197,857418,0.0-76.0-2.20,TRUE,FALSE,TRUE,FALSE,"""event"",""trial"",""time""
""fullscreenenter"",""5"",""34231""
","
","
","""event"",""trial"",""time""
""fullscreenenter"",""5"",""34231""
","
",NA,images/earth.jpg,NA,NA,NA,NA,NA,NA,NA,NA,NA,NA,NA,NA,NA,fixation,NA,NA,NA,NA,NA,NA,sub9
d3-animate-choice,198,859948,0.0-76.0-0.21,TRUE,FALSE,TRUE,FALSE,"""event"",""trial"",""time""
""fullscreenenter"",""5"",""34231""
","
","
","""event"",""trial"",""time""
""fullscreenenter"",""5"",""34231""
","
",509,NA,48,NA,NA,3000,1,1166,48,images/earth.jpg,images/rocket2,images/rocket1,null,images/rocket2,NA,1,real,null,2,NA,NA,NA,sub9
d3-animate-choice,199,862779,0.0-76.0-1.21,TRUE,FALSE,TRUE,FALSE,"""event"",""trial"",""time""
""fullscreenenter"",""5"",""34231""
","
","
","""event"",""trial"",""time""
""fullscreenenter"",""5"",""34231""
","
",811,NA,48,NA,NA,3000,1,1484,48,images/purpleplanet.jpg,images/alien4,images/alien3,images/rocket2,images/alien4,images/t.png,2,real,false,2,rare,1,2020-06-05T12:40:23Z,sub9
two-step-fixation,200,863789,0.0-76.0-2.21,TRUE,FALSE,TRUE,FALSE,"""event"",""trial"",""time""
""fullscreenenter"",""5"",""34231""
","
","
","""event"",""trial"",""time""
""fullscreenenter"",""5"",""34231""
","
",NA,images/earth.jpg,NA,NA,NA,NA,NA,NA,NA,NA,NA,NA,NA,NA,NA,fixation,NA,NA,NA,NA,NA,NA,sub9
d3-animate-choice,201,866249,0.0-76.0-0.22,TRUE,FALSE,TRUE,FALSE,"""event"",""trial"",""time""
""fullscreenenter"",""5"",""34231""
","
","
","""event"",""trial"",""time""
""fullscreenenter"",""5"",""34231""
","
",445,NA,48,NA,NA,3000,1,980,48,images/earth.jpg,images/rocket2,images/rocket1,null,images/rocket2,NA,1,real,null,2,NA,NA,NA,sub9
d3-animate-choice,202,868839,0.0-76.0-1.22,TRUE,FALSE,TRUE,FALSE,"""event"",""trial"",""time""
""fullscreenenter"",""5"",""34231""
","
","
","""event"",""trial"",""time""
""fullscreenenter"",""5"",""34231""
","
",583,NA,48,NA,NA,3000,1,1183,48,images/purpleplanet.jpg,images/alien4,images/alien3,images/rocket2,images/alien4,images/t.png,2,real,false,2,rare,1,2020-06-05T12:40:29Z,sub9
two-step-fixation,203,869859,0.0-76.0-2.22,TRUE,FALSE,TRUE,FALSE,"""event"",""trial"",""time""
""fullscreenenter"",""5"",""34231""
","
","
","""event"",""trial"",""time""
""fullscreenenter"",""5"",""34231""
","
",NA,images/earth.jpg,NA,NA,NA,NA,NA,NA,NA,NA,NA,NA,NA,NA,NA,fixation,NA,NA,NA,NA,NA,NA,sub9
d3-animate-choice,204,872299,0.0-76.0-0.23,TRUE,FALSE,TRUE,FALSE,"""event"",""trial"",""time""
""fullscreenenter"",""5"",""34231""
","
","
","""event"",""trial"",""time""
""fullscreenenter"",""5"",""34231""
","
",424,NA,48,NA,NA,3000,1,1007,48,images/earth.jpg,images/rocket2,images/rocket1,null,images/rocket2,NA,1,real,null,2,NA,NA,NA,sub9
d3-animate-choice,205,875181,0.0-76.0-1.23,TRUE,FALSE,TRUE,FALSE,"""event"",""trial"",""time""
""fullscreenenter"",""5"",""34231""
","
","
","""event"",""trial"",""time""
""fullscreenenter"",""5"",""34231""
","
",870,NA,48,NA,NA,3000,1,1485,48,images/redplanet1.jpg,images/alien2,images/alien1,images/rocket2,images/alien2,images/t.png,2,real,true,2,common,1,2020-06-05T12:40:35Z,sub9
two-step-fixation,206,876199,0.0-76.0-2.23,TRUE,FALSE,TRUE,FALSE,"""event"",""trial"",""time""
""fullscreenenter"",""5"",""34231""
","
","
","""event"",""trial"",""time""
""fullscreenenter"",""5"",""34231""
","
",NA,images/earth.jpg,NA,NA,NA,NA,NA,NA,NA,NA,NA,NA,NA,NA,NA,fixation,NA,NA,NA,NA,NA,NA,sub9
d3-animate-choice,207,878610,0.0-76.0-0.24,TRUE,FALSE,TRUE,FALSE,"""event"",""trial"",""time""
""fullscreenenter"",""5"",""34231""
","
","
","""event"",""trial"",""time""
""fullscreenenter"",""5"",""34231""
","
",394,NA,48,NA,NA,3000,1,890,48,images/earth.jpg,images/rocket2,images/rocket1,null,images/rocket2,NA,1,real,null,2,NA,NA,NA,sub9
d3-animate-choice,208,881250,0.0-76.0-1.24,TRUE,FALSE,TRUE,FALSE,"""event"",""trial"",""time""
""fullscreenenter"",""5"",""34231""
","
","
","""event"",""trial"",""time""
""fullscreenenter"",""5"",""34231""
","
",625,NA,48,NA,NA,3000,1,1258,48,images/purpleplanet.jpg,images/alien4,images/alien3,images/rocket2,images/alien4,images/t.png,2,real,false,2,rare,1,2020-06-05T12:40:41Z,sub9
two-step-fixation,209,882272,0.0-76.0-2.24,TRUE,FALSE,TRUE,FALSE,"""event"",""trial"",""time""
""fullscreenenter"",""5"",""34231""
","
","
","""event"",""trial"",""time""
""fullscreenenter"",""5"",""34231""
","
",NA,images/earth.jpg,NA,NA,NA,NA,NA,NA,NA,NA,NA,NA,NA,NA,NA,fixation,NA,NA,NA,NA,NA,NA,sub9
d3-animate-choice,210,884721,0.0-76.0-0.25,TRUE,FALSE,TRUE,FALSE,"""event"",""trial"",""time""
""fullscreenenter"",""5"",""34231""
","
","
","""event"",""trial"",""time""
""fullscreenenter"",""5"",""34231""
","
",427,NA,48,NA,NA,3000,1,1019,48,images/earth.jpg,images/rocket2,images/rocket1,null,images/rocket2,NA,1,real,null,2,NA,NA,NA,sub9
d3-animate-choice,211,887240,0.0-76.0-1.25,TRUE,FALSE,TRUE,FALSE,"""event"",""trial"",""time""
""fullscreenenter"",""5"",""34231""
","
","
","""event"",""trial"",""time""
""fullscreenenter"",""5"",""34231""
","
",499,NA,48,NA,NA,3000,1,1112,48,images/purpleplanet.jpg,images/alien4,images/alien3,images/rocket2,images/alien4,images/t.png,2,real,false,2,rare,1,2020-06-05T12:40:47Z,sub9
two-step-fixation,212,888262,0.0-76.0-2.25,TRUE,FALSE,TRUE,FALSE,"""event"",""trial"",""time""
""fullscreenenter"",""5"",""34231""
","
","
","""event"",""trial"",""time""
""fullscreenenter"",""5"",""34231""
","
",NA,images/earth.jpg,NA,NA,NA,NA,NA,NA,NA,NA,NA,NA,NA,NA,NA,fixation,NA,NA,NA,NA,NA,NA,sub9
d3-animate-choice,213,890641,0.0-76.0-0.26,TRUE,FALSE,TRUE,FALSE,"""event"",""trial"",""time""
""fullscreenenter"",""5"",""34231""
","
","
","""event"",""trial"",""time""
""fullscreenenter"",""5"",""34231""
","
",359,NA,48,NA,NA,3000,1,878,48,images/earth.jpg,images/rocket2,images/rocket1,null,images/rocket2,NA,1,real,null,2,NA,NA,NA,sub9
d3-animate-choice,214,893881,0.0-76.0-1.26,TRUE,FALSE,TRUE,FALSE,"""event"",""trial"",""time""
""fullscreenenter"",""5"",""34231""
","
","
","""event"",""trial"",""time""
""fullscreenenter"",""5"",""34231""
","
",1219,NA,48,NA,NA,3000,1,1802,48,images/redplanet1.jpg,images/alien2,images/alien1,images/rocket2,images/alien2,images/t.png,2,real,true,2,common,1,2020-06-05T12:40:54Z,sub9
two-step-fixation,215,894901,0.0-76.0-2.26,TRUE,FALSE,TRUE,FALSE,"""event"",""trial"",""time""
""fullscreenenter"",""5"",""34231""
","
","
","""event"",""trial"",""time""
""fullscreenenter"",""5"",""34231""
","
",NA,images/earth.jpg,NA,NA,NA,NA,NA,NA,NA,NA,NA,NA,NA,NA,NA,fixation,NA,NA,NA,NA,NA,NA,sub9
d3-animate-choice,216,897362,0.0-76.0-0.27,TRUE,FALSE,TRUE,FALSE,"""event"",""trial"",""time""
""fullscreenenter"",""5"",""34231""
","
","
","""event"",""trial"",""time""
""fullscreenenter"",""5"",""34231""
","
",455,NA,48,NA,NA,3000,1,1039,48,images/earth.jpg,images/rocket2,images/rocket1,null,images/rocket2,NA,1,real,null,2,NA,NA,NA,sub9
d3-animate-choice,217,900483,0.0-76.0-1.27,TRUE,FALSE,TRUE,FALSE,"""event"",""trial"",""time""
""fullscreenenter"",""5"",""34231""
","
","
","""event"",""trial"",""time""
""fullscreenenter"",""5"",""34231""
","
",1105,NA,48,NA,NA,3000,1,1866,48,images/redplanet1.jpg,images/alien2,images/alien1,images/rocket2,images/alien2,images/nothing.png,2,real,true,2,common,0,2020-06-05T12:41:01Z,sub9
two-step-fixation,218,901502,0.0-76.0-2.27,TRUE,FALSE,TRUE,FALSE,"""event"",""trial"",""time""
""fullscreenenter"",""5"",""34231""
","
","
","""event"",""trial"",""time""
""fullscreenenter"",""5"",""34231""
","
",NA,images/earth.jpg,NA,NA,NA,NA,NA,NA,NA,NA,NA,NA,NA,NA,NA,fixation,NA,NA,NA,NA,NA,NA,sub9
d3-animate-choice,219,903961,0.0-76.0-0.28,TRUE,FALSE,TRUE,FALSE,"""event"",""trial"",""time""
""fullscreenenter"",""5"",""34231""
","
","
","""event"",""trial"",""time""
""fullscreenenter"",""5"",""34231""
","
",440,NA,48,NA,NA,3000,1,935,48,images/earth.jpg,images/rocket2,images/rocket1,null,images/rocket2,NA,1,real,null,2,NA,NA,NA,sub9
d3-animate-choice,220,906992,0.0-76.0-1.28,TRUE,FALSE,TRUE,FALSE,"""event"",""trial"",""time""
""fullscreenenter"",""5"",""34231""
","
","
","""event"",""trial"",""time""
""fullscreenenter"",""5"",""34231""
","
",1008,NA,48,NA,NA,3000,1,1537,48,images/purpleplanet.jpg,images/alien4,images/alien3,images/rocket2,images/alien4,images/t.png,2,real,false,2,rare,1,2020-06-05T12:41:07Z,sub9
two-step-fixation,221,908003,0.0-76.0-2.28,TRUE,FALSE,TRUE,FALSE,"""event"",""trial"",""time""
""fullscreenenter"",""5"",""34231""
","
","
","""event"",""trial"",""time""
""fullscreenenter"",""5"",""34231""
","
",NA,images/earth.jpg,NA,NA,NA,NA,NA,NA,NA,NA,NA,NA,NA,NA,NA,fixation,NA,NA,NA,NA,NA,NA,sub9
d3-animate-choice,222,911434,0.0-76.0-0.29,TRUE,FALSE,TRUE,FALSE,"""event"",""trial"",""time""
""fullscreenenter"",""5"",""34231""
","
","
","""event"",""trial"",""time""
""fullscreenenter"",""5"",""34231""
","
",1424,NA,48,NA,NA,3000,1,1872,48,images/earth.jpg,images/rocket2,images/rocket1,null,images/rocket2,NA,1,real,null,2,NA,NA,NA,sub9
d3-animate-choice,223,914372,0.0-76.0-1.29,TRUE,FALSE,TRUE,FALSE,"""event"",""trial"",""time""
""fullscreenenter"",""5"",""34231""
","
","
","""event"",""trial"",""time""
""fullscreenenter"",""5"",""34231""
","
",921,NA,48,NA,NA,3000,1,1481,48,images/purpleplanet.jpg,images/alien4,images/alien3,images/rocket2,images/alien4,images/t.png,2,real,false,2,rare,1,2020-06-05T12:41:15Z,sub9
two-step-fixation,224,915392,0.0-76.0-2.29,TRUE,FALSE,TRUE,FALSE,"""event"",""trial"",""time""
""fullscreenenter"",""5"",""34231""
","
","
","""event"",""trial"",""time""
""fullscreenenter"",""5"",""34231""
","
",NA,images/earth.jpg,NA,NA,NA,NA,NA,NA,NA,NA,NA,NA,NA,NA,NA,fixation,NA,NA,NA,NA,NA,NA,sub9
d3-animate-choice,225,918173,0.0-76.0-0.30,TRUE,FALSE,TRUE,FALSE,"""event"",""trial"",""time""
""fullscreenenter"",""5"",""34231""
","
","
","""event"",""trial"",""time""
""fullscreenenter"",""5"",""34231""
","
",757,NA,48,NA,NA,3000,1,14522765,4832,images/earth.jpg,images/rocket2,images/rocket1,null,images/rocket2,NA,1,real,null,2,NA,NA,NA,sub9
d3-animate-choice,226,921014,0.0-76.0-1.30,TRUE,FALSE,TRUE,FALSE,"""event"",""trial"",""time""
""fullscreenenter"",""5"",""34231""
","
","
","""event"",""trial"",""time""
""fullscreenenter"",""5"",""34231""
","
",814,NA,48,NA,NA,3000,1,1214,48,images/purpleplanet.jpg,images/alien4,images/alien3,images/rocket2,images/alien4,images/t.png,2,real,false,2,rare,1,2020-06-05T12:41:21Z,sub9
two-step-fixation,227,922024,0.0-76.0-2.30,TRUE,FALSE,TRUE,FALSE,"""event"",""trial"",""time""
""fullscreenenter"",""5"",""34231""
","
","
","""event"",""trial"",""time""
""fullscreenenter"",""5"",""34231""
","
",NA,images/earth.jpg,NA,NA,NA,NA,NA,NA,NA,NA,NA,NA,NA,NA,NA,fixation,NA,NA,NA,NA,NA,NA,sub9
d3-animate-choice,228,925363,0.0-76.0-0.31,TRUE,FALSE,TRUE,FALSE,"""event"",""trial"",""time""
""fullscreenenter"",""5"",""34231""
","
","
","""event"",""trial"",""time""
""fullscreenenter"",""5"",""34231""
","
",1334,NA,48,NA,NA,3000,1,1789,48,images/earth.jpg,images/rocket2,images/rocket1,null,images/rocket2,NA,1,real,null,2,NA,NA,NA,sub9
d3-animate-choice,229,928053,0.0-76.0-1.31,TRUE,FALSE,TRUE,FALSE,"""event"",""trial"",""time""
""fullscreenenter"",""5"",""34231""
","
","
","""event"",""trial"",""time""
""fullscreenenter"",""5"",""34231""
","
",666,NA,48,NA,NA,3000,1,1216,48,images/redplanet1.jpg,images/alien2,images/alien1,images/rocket2,images/alien2,images/nothing.png,2,real,true,2,common,0,2020-06-05T12:41:28Z,sub9
two-step-fixation,230,929073,0.0-76.0-2.31,TRUE,FALSE,TRUE,FALSE,"""event"",""trial"",""time""
""fullscreenenter"",""5"",""34231""
","
","
","""event"",""trial"",""time""
""fullscreenenter"",""5"",""34231""
","
",NA,images/earth.jpg,NA,NA,NA,NA,NA,NA,NA,NA,NA,NA,NA,NA,NA,fixation,NA,NA,NA,NA,NA,NA,sub9
d3-animate-choice,231,931574,0.0-76.0-0.32,TRUE,FALSE,TRUE,FALSE,"""event"",""trial"",""time""
""fullscreenenter"",""5"",""34231""
","
","
","""event"",""trial"",""time""
""fullscreenenter"",""5"",""34231""
","
",494,NA,48,NA,NA,3000,1,964,48,images/earth.jpg,images/rocket2,images/rocket1,null,images/rocket2,NA,1,real,null,2,NA,NA,NA,sub9
d3-animate-choice,232,934444,0.0-76.0-1.32,TRUE,FALSE,TRUE,FALSE,"""event"",""trial"",""time""
""fullscreenenter"",""5"",""34231""
","
","
","""event"",""trial"",""time""
""fullscreenenter"",""5"",""34231""
","
",861,NA,48,NA,NA,3000,1,1405,48,images/redplanet1.jpg,images/alien2,images/alien1,images/rocket2,images/alien2,images/t.png,2,real,true,2,common,1,2020-06-05T12:41:35Z,sub9
two-step-fixation,233,935464,0.0-76.0-2.32,TRUE,FALSE,TRUE,FALSE,"""event"",""trial"",""time""
""fullscreenenter"",""5"",""34231""
","
","
","""event"",""trial"",""time""
""fullscreenenter"",""5"",""34231""
","
",NA,images/earth.jpg,NA,NA,NA,NA,NA,NA,NA,NA,NA,NA,NA,NA,NA,fixation,NA,NA,NA,NA,NA,NA,sub9
d3-animate-choice,234,938104,0.0-76.0-0.33,TRUE,FALSE,TRUE,FALSE,"""event"",""trial"",""time""
""fullscreenenter"",""5"",""34231""
","
","
","""event"",""trial"",""time""
""fullscreenenter"",""5"",""34231""
","
",622,NA,48,NA,NA,3000,1,NA,NA,images/earth.jpg,images/rocket2,images/rocket1,null,images/rocket2,NA,1,real,null,2,NA,NA,NA,sub9
d3-animate-choice,235,940135,0.0-76.0-1.33,TRUE,FALSE,TRUE,FALSE,"""event"",""trial"",""time""
""fullscreenenter"",""5"",""34231""
","
","
","""event"",""trial"",""time""
""fullscreenenter"",""5"",""34231""
","
",16,NA,48,NA,NA,3000,1,477,48,images/purpleplanet.jpg,images/alien4,images/alien3,images/rocket2,images/alien4,images/t.png,2,real,false,2,rare,1,2020-06-05T12:41:40Z,sub9
two-step-fixation,236,941155,0.0-76.0-2.33,TRUE,FALSE,TRUE,FALSE,"""event"",""trial"",""time""
""fullscreenenter"",""5"",""34231""
","
","
","""event"",""trial"",""time""
""fullscreenenter"",""5"",""34231""
","
",NA,images/earth.jpg,NA,NA,NA,NA,NA,NA,NA,NA,NA,NA,NA,NA,NA,fixation,NA,NA,NA,NA,NA,NA,sub9
d3-animate-choice,237,943824,0.0-76.0-0.34,TRUE,FALSE,TRUE,FALSE,"""event"",""trial"",""time""
""fullscreenenter"",""5"",""34231""
","
","
","""event"",""trial"",""time""
""fullscreenenter"",""5"",""34231""
","
",653,NA,48,NA,NA,3000,1,1132,48,images/earth.jpg,images/rocket2,images/rocket1,null,images/rocket2,NA,1,real,null,2,NA,NA,NA,sub9
d3-animate-choice,238,947215,0.0-76.0-1.34,TRUE,FALSE,TRUE,FALSE,"""event"",""trial"",""time""
""fullscreenenter"",""5"",""34231""
","
","
","""event"",""trial"",""time""
""fullscreenenter"",""5"",""34231""
","
",1367,NA,48,NA,NA,3000,1,2159,48,images/redplanet1.jpg,images/alien2,images/alien1,images/rocket2,images/alien2,images/nothing.png,2,real,true,2,common,0,2020-06-05T12:41:47Z,sub9
two-step-fixation,239,948235,0.0-76.0-2.34,TRUE,FALSE,TRUE,FALSE,"""event"",""trial"",""time""
""fullscreenenter"",""5"",""34231""
","
","
","""event"",""trial"",""time""
""fullscreenenter"",""5"",""34231""
","
",NA,images/earth.jpg,NA,NA,NA,NA,NA,NA,NA,NA,NA,NA,NA,NA,NA,fixation,NA,NA,NA,NA,NA,NA,sub9
d3-animate-choice,240,950895,0.0-76.0-0.35,TRUE,FALSE,TRUE,FALSE,"""event"",""trial"",""time""
""fullscreenenter"",""5"",""34231""
","
","
","""event"",""trial"",""time""
""fullscreenenter"",""5"",""34231""
","
",653,NA,48,NA,NA,3000,1,1237,48,images/earth.jpg,images/rocket2,images/rocket1,null,images/rocket2,NA,1,real,null,2,NA,NA,NA,sub9
d3-animate-choice,241,953786,0.0-76.0-1.35,TRUE,FALSE,TRUE,FALSE,"""event"",""trial"",""time""
""fullscreenenter"",""5"",""34231""
","
","
","""event"",""trial"",""time""
""fullscreenenter"",""5"",""34231""
","
",874,NA,48,NA,NA,3000,1,1530,48,images/redplanet1.jpg,images/alien2,images/alien1,images/rocket2,images/alien2,images/nothing.png,2,real,true,2,common,0,2020-06-05T12:41:54Z,sub9
two-step-fixation,242,954802,0.0-76.0-2.35,TRUE,FALSE,TRUE,FALSE,"""event"",""trial"",""time""
""fullscreenenter"",""5"",""34231""
","
","
","""event"",""trial"",""time""
""fullscreenenter"",""5"",""34231""
","
",NA,images/earth.jpg,NA,NA,NA,NA,NA,NA,NA,NA,NA,NA,NA,NA,NA,fixation,NA,NA,NA,NA,NA,NA,sub9
d3-animate-choice,243,957125,0.0-76.0-0.36,TRUE,FALSE,TRUE,FALSE,"""event"",""trial"",""time""
""fullscreenenter"",""5"",""34231""
","
","
","""event"",""trial"",""time""
""fullscreenenter"",""5"",""34231""
","
",310,NA,48,NA,NA,3000,1,841,48,images/earth.jpg,images/rocket2,images/rocket1,null,images/rocket2,NA,1,real,null,2,NA,NA,NA,sub9
d3-animate-choice,244,959603,0.0-76.0-1.36,TRUE,FALSE,TRUE,FALSE,"""event"",""trial"",""time""
""fullscreenenter"",""5"",""34231""
","
","
","""event"",""trial"",""time""
""fullscreenenter"",""5"",""34231""
","
",464,NA,48,NA,NA,3000,1,1001,48,images/purpleplanet.jpg,images/alien4,images/alien3,images/rocket2,images/alien4,images/nothing.png,2,real,false,2,rare,0,2020-06-05T12:42:00Z,sub9
two-step-fixation,245,960625,0.0-76.0-2.36,TRUE,FALSE,TRUE,FALSE,"""event"",""trial"",""time""
""fullscreenenter"",""5"",""34231""
","
","
","""event"",""trial"",""time""
""fullscreenenter"",""5"",""34231""
","
",NA,images/earth.jpg,NA,NA,NA,NA,NA,NA,NA,NA,NA,NA,NA,NA,NA,fixation,NA,NA,NA,NA,NA,NA,sub9
d3-animate-choice,246,962866,0.0-76.0-0.37,TRUE,FALSE,TRUE,FALSE,"""event"",""trial"",""time""
""fullscreenenter"",""5"",""34231""
","
","
","""event"",""trial"",""time""
""fullscreenenter"",""5"",""34231""
","
",230,NA,48,NA,NA,3000,1,702,48,images/earth.jpg,images/rocket2,images/rocket1,null,images/rocket2,NA,1,real,null,2,NA,NA,NA,sub9
d3-animate-choice,247,966176,0.0-76.0-1.37,TRUE,FALSE,TRUE,FALSE,"""event"",""trial"",""time""
""fullscreenenter"",""5"",""34231""
","
","
","""event"",""trial"",""time""
""fullscreenenter"",""5"",""34231""
","
",1286,NA,48,NA,NA,3000,1,1886,48,images/purpleplanet.jpg,images/alien4,images/alien3,images/rocket2,images/alien4,images/t.png,2,real,false,2,rare,1,2020-06-05T12:42:06Z,sub9
two-step-fixation,248,967196,0.0-76.0-2.37,TRUE,FALSE,TRUE,FALSE,"""event"",""trial"",""time""
""fullscreenenter"",""5"",""34231""
","
","
","""event"",""trial"",""time""
""fullscreenenter"",""5"",""34231""
","
",NA,images/earth.jpg,NA,NA,NA,NA,NA,NA,NA,NA,NA,NA,NA,NA,NA,fixation,NA,NA,NA,NA,NA,NA,sub9
d3-animate-choice,249,969736,0.0-76.0-0.38,TRUE,FALSE,TRUE,FALSE,"""event"",""trial"",""time""
""fullscreenenter"",""5"",""34231""
","
","
","""event"",""trial"",""time""
""fullscreenenter"",""5"",""34231""
","
",516,NA,48,NA,NA,3000,1,1204,48,images/earth.jpg,images/rocket2,images/rocket1,null,images/rocket2,NA,1,real,null,2,NA,NA,NA,sub9
d3-animate-choice,250,972767,0.0-76.0-1.38,TRUE,FALSE,TRUE,FALSE,"""event"",""trial"",""time""
""fullscreenenter"",""5"",""34231""
","
","
","""event"",""trial"",""time""
""fullscreenenter"",""5"",""34231""
","
",1016,NA,48,NA,NA,3000,1,1792,48,images/redplanet1.jpg,images/alien2,images/alien1,images/rocket2,images/alien2,images/t.png,2,real,true,2,common,1,2020-06-05T12:42:13Z,sub9
two-step-fixation,251,973777,0.0-76.0-2.38,TRUE,FALSE,TRUE,FALSE,"""event"",""trial"",""time""
""fullscreenenter"",""5"",""34231""
","
","
","""event"",""trial"",""time""
""fullscreenenter"",""5"",""34231""
","
",NA,images/earth.jpg,NA,NA,NA,NA,NA,NA,NA,NA,NA,NA,NA,NA,NA,fixation,NA,NA,NA,NA,NA,NA,sub9
d3-animate-choice,252,976007,0.0-76.0-0.39,TRUE,FALSE,TRUE,FALSE,"""event"",""trial"",""time""
""fullscreenenter"",""5"",""34231""
","
","
","""event"",""trial"",""time""
""fullscreenenter"",""5"",""34231""
","
",211,NA,48,NA,NA,3000,1,722,48,images/earth.jpg,images/rocket2,images/rocket1,null,images/rocket2,NA,1,real,null,2,NA,NA,NA,sub9
d3-animate-choice,253,978737,0.0-76.0-1.39,TRUE,FALSE,TRUE,FALSE,"""event"",""trial"",""time""
""fullscreenenter"",""5"",""34231""
","
","
","""event"",""trial"",""time""
""fullscreenenter"",""5"",""34231""
","
",706,NA,48,NA,NA,3000,1,1362,48,images/purpleplanet.jpg,images/alien4,images/alien3,images/rocket2,images/alien4,images/t.png,2,real,false,2,rare,1,2020-06-05T12:42:19Z,sub9
two-step-fixation,254,979748,0.0-76.0-2.39,TRUE,FALSE,TRUE,FALSE,"""event"",""trial"",""time""
""fullscreenenter"",""5"",""34231""
","
","
","""event"",""trial"",""time""
""fullscreenenter"",""5"",""34231""
","
",NA,images/earth.jpg,NA,NA,NA,NA,NA,NA,NA,NA,NA,NA,NA,NA,NA,fixation,NA,NA,NA,NA,NA,NA,sub9
d3-animate-choice,255,982458,0.0-76.0-0.40,TRUE,FALSE,TRUE,FALSE,"""event"",""trial"",""time""
""fullscreenenter"",""5"",""34231""
","
","
","""event"",""trial"",""time""
""fullscreenenter"",""5"",""34231""
","
",695,NA,48,NA,NA,3000,1,1192,48,images/earth.jpg,images/rocket2,images/rocket1,null,images/rocket2,NA,1,real,null,2,NA,NA,NA,sub9
d3-animate-choice,256,985167,0.0-76.0-1.40,TRUE,FALSE,TRUE,FALSE,"""event"",""trial"",""time""
""fullscreenenter"",""5"",""34231""
","
","
","""event"",""trial"",""time""
""fullscreenenter"",""5"",""34231""
","
",688,NA,48,NA,NA,3000,1,1224,48,images/purpleplanet.jpg,images/alien4,images/alien3,images/rocket2,images/alien4,images/nothing.png,2,real,false,2,rare,0,2020-06-05T12:42:25Z,sub9
two-step-fixation,257,986188,0.0-76.0-2.40,TRUE,FALSE,TRUE,FALSE,"""event"",""trial"",""time""
""fullscreenenter"",""5"",""34231""
","
","
","""event"",""trial"",""time""
""fullscreenenter"",""5"",""34231""
","
",NA,images/earth.jpg,NA,NA,NA,NA,NA,NA,NA,NA,NA,NA,NA,NA,NA,fixation,NA,NA,NA,NA,NA,NA,sub9
d3-animate-choice,258,988267,0.0-76.0-0.41,TRUE,FALSE,TRUE,FALSE,"""event"",""trial"",""time""
""fullscreenenter"",""5"",""34231""
","
","
","""event"",""trial"",""time""
""fullscreenenter"",""5"",""34231""
","
",69,NA,48,NA,NA,3000,1,646,48,images/earth.jpg,images/rocket2,images/rocket1,null,images/rocket2,NA,1,real,null,2,NA,NA,NA,sub9
d3-animate-choice,259,990778,0.0-76.0-1.41,TRUE,FALSE,TRUE,FALSE,"""event"",""trial"",""time""
""fullscreenenter"",""5"",""34231""
","
","
","""event"",""trial"",""time""
""fullscreenenter"",""5"",""34231""
","
",501,NA,48,NA,NA,3000,1,981,48,images/redplanet1.jpg,images/alien2,images/alien1,images/rocket2,images/alien2,images/nothing.png,2,real,true,2,common,0,2020-06-05T12:42:31Z,sub9
two-step-fixation,260,991798,0.0-76.0-2.41,TRUE,FALSE,TRUE,FALSE,"""event"",""trial"",""time""
""fullscreenenter"",""5"",""34231""
","
","
","""event"",""trial"",""time""
""fullscreenenter"",""5"",""34231""
","
",NA,images/earth.jpg,NA,NA,NA,NA,NA,NA,NA,NA,NA,NA,NA,NA,NA,fixation,NA,NA,NA,NA,NA,NA,sub9
d3-animate-choice,261,993999,0.0-76.0-0.42,TRUE,FALSE,TRUE,FALSE,"""event"",""trial"",""time""
""fullscreenenter"",""5"",""34231""
","
","
","""event"",""trial"",""time""
""fullscreenenter"",""5"",""34231""
","
",189,NA,49,NA,NA,3000,1,732,49,images/earth.jpg,images/rocket2,images/rocket1,null,images/rocket1,NA,1,real,null,1,NA,NA,NA,sub9
d3-animate-choice,262,996500,0.0-76.0-1.42,TRUE,FALSE,TRUE,FALSE,"""event"",""trial"",""time""
""fullscreenenter"",""5"",""34231""
","
","
","""event"",""trial"",""time""
""fullscreenenter"",""5"",""34231""
","
",482,NA,49,NA,NA,3000,1,1009,49,images/redplanet1.jpg,images/alien2,images/alien1,images/rocket1,images/alien1,images/t.png,2,real,false,1,rare,1,2020-06-05T12:42:37Z,sub9
two-step-fixation,263,997510,0.0-76.0-2.42,TRUE,FALSE,TRUE,FALSE,"""event"",""trial"",""time""
""fullscreenenter"",""5"",""34231""
","
","
","""event"",""trial"",""time""
""fullscreenenter"",""5"",""34231""
","
",NA,images/earth.jpg,NA,NA,NA,NA,NA,NA,NA,NA,NA,NA,NA,NA,NA,fixation,NA,NA,NA,NA,NA,NA,sub9
d3-animate-choice,264,999948,0.0-76.0-0.43,TRUE,FALSE,TRUE,FALSE,"""event"",""trial"",""time""
""fullscreenenter"",""5"",""34231""
","
","
","""event"",""trial"",""time""
""fullscreenenter"",""5"",""34231""
","
",422,NA,49,NA,NA,3000,1,966,49,images/earth.jpg,images/rocket2,images/rocket1,null,images/rocket1,NA,1,real,null,1,NA,NA,NA,sub9
d3-animate-choice,265,1002500,0.0-76.0-1.43,TRUE,FALSE,TRUE,FALSE,"""event"",""trial"",""time""
""fullscreenenter"",""5"",""34231""
","
","
","""event"",""trial"",""time""
""fullscreenenter"",""5"",""34231""
","
",534,NA,49,NA,NA,3000,1,1077,49,images/redplanet1.jpg,images/alien2,images/alien1,images/rocket1,images/alien1,images/t.png,2,real,false,1,rare,1,2020-06-05T12:42:43Z,sub9
two-step-fixation,266,1003519,0.0-76.0-2.43,TRUE,FALSE,TRUE,FALSE,"""event"",""trial"",""time""
""fullscreenenter"",""5"",""34231""
","
","
","""event"",""trial"",""time""
""fullscreenenter"",""5"",""34231""
","
",NA,images/earth.jpg,NA,NA,NA,NA,NA,NA,NA,NA,NA,NA,NA,NA,NA,fixation,NA,NA,NA,NA,NA,NA,sub9
d3-animate-choice,267,1005969,0.0-76.0-0.44,TRUE,FALSE,TRUE,FALSE,"""event"",""trial"",""time""
""fullscreenenter"",""5"",""34231""
","
","
","""event"",""trial"",""time""
""fullscreenenter"",""5"",""34231""
","
",445,NA,49,NA,NA,3000,1,980,49,images/earth.jpg,images/rocket2,images/rocket1,null,images/rocket1,NA,1,real,null,1,NA,NA,NA,sub9
d3-animate-choice,268,1008490,0.0-76.0-1.44,TRUE,FALSE,TRUE,FALSE,"""event"",""trial"",""time""
""fullscreenenter"",""5"",""34231""
","
","
","""event"",""trial"",""time""
""fullscreenenter"",""5"",""34231""
","
",513,NA,49,NA,NA,3000,1,1098,49,images/purpleplanet.jpg,images/alien4,images/alien3,images/rocket1,images/alien3,images/nothing.png,2,real,true,1,common,0,2020-06-05T12:42:49Z,sub9
two-step-fixation,269,1009499,0.0-76.0-2.44,TRUE,FALSE,TRUE,FALSE,"""event"",""trial"",""time""
""fullscreenenter"",""5"",""34231""
","
","
","""event"",""trial"",""time""
""fullscreenenter"",""5"",""34231""
","
",NA,images/earth.jpg,NA,NA,NA,NA,NA,NA,NA,NA,NA,NA,NA,NA,NA,fixation,NA,NA,NA,NA,NA,NA,sub9
d3-animate-choice,270,1013510,0.0-76.0-0.45,TRUE,FALSE,TRUE,FALSE,"""event"",""trial"",""time""
""fullscreenenter"",""5"",""34231""
","
","
","""event"",""trial"",""time""
""fullscreenenter"",""5"",""34231""
","
",2151,NA,48,NA,NA,3000,1,2615,48,images/earth.jpg,images/rocket2,images/rocket1,null,images/rocket2,NA,1,real,null,2,NA,NA,NA,sub9
d3-animate-choice,271,1016710,0.0-76.0-1.45,TRUE,FALSE,TRUE,FALSE,"""event"",""trial"",""time""
""fullscreenenter"",""5"",""34231""
","
","
","""event"",""trial"",""time""
""fullscreenenter"",""5"",""34231""
","
",1182,NA,48,NA,NA,3000,1,2092,48,images/redplanet1.jpg,images/alien2,images/alien1,images/rocket2,images/alien2,images/t.png,2,real,true,2,common,1,2020-06-05T12:42:57Z,sub9
two-step-fixation,272,1017730,0.0-76.0-2.45,TRUE,FALSE,TRUE,FALSE,"""event"",""trial"",""time""
""fullscreenenter"",""5"",""34231""
","
","
","""event"",""trial"",""time""
""fullscreenenter"",""5"",""34231""
","
",NA,images/earth.jpg,NA,NA,NA,NA,NA,NA,NA,NA,NA,NA,NA,NA,NA,fixation,NA,NA,NA,NA,NA,NA,sub9
d3-animate-choice,273,1020259,0.0-76.0-0.46,TRUE,FALSE,TRUE,FALSE,"""event"",""trial"",""time""
""fullscreenenter"",""5"",""34231""
","
","
","""event"",""trial"",""time""
""fullscreenenter"",""5"",""34231""
","
",507,NA,48,NA,NA,3000,1,1010,48,images/earth.jpg,images/rocket2,images/rocket1,null,images/rocket2,NA,1,real,null,2,NA,NA,NA,sub9
d3-animate-choice,274,1022840,0.0-76.0-1.46,TRUE,FALSE,TRUE,FALSE,"""event"",""trial"",""time""
""fullscreenenter"",""5"",""34231""
","
","
","""event"",""trial"",""time""
""fullscreenenter"",""5"",""34231""
","
",567,NA,48,NA,NA,3000,1,1207,48,images/redplanet1.jpg,images/alien2,images/alien1,images/rocket2,images/alien2,images/t.png,2,real,true,2,common,1,2020-06-05T12:43:03Z,sub9
two-step-fixation,275,1023860,0.0-76.0-2.46,TRUE,FALSE,TRUE,FALSE,"""event"",""trial"",""time""
""fullscreenenter"",""5"",""34231""
","
","
","""event"",""trial"",""time""
""fullscreenenter"",""5"",""34231""
","
",NA,images/earth.jpg,NA,NA,NA,NA,NA,NA,NA,NA,NA,NA,NA,NA,NA,fixation,NA,NA,NA,NA,NA,NA,sub9
d3-animate-choice,276,1026100,0.0-76.0-0.47,TRUE,FALSE,TRUE,FALSE,"""event"",""trial"",""time""
""fullscreenenter"",""5"",""34231""
","
","
","""event"",""trial"",""time""
""fullscreenenter"",""5"",""34231""
","
",233,NA,48,NA,NA,3000,1,776,48,images/earth.jpg,images/rocket2,images/rocket1,null,images/rocket2,NA,1,real,null,2,NA,NA,NA,sub9
d3-animate-choice,277,1028860,0.0-76.0-1.47,TRUE,FALSE,TRUE,FALSE,"""event"",""trial"",""time""
""fullscreenenter"",""5"",""34231""
","
","
","""event"",""trial"",""time""
""fullscreenenter"",""5"",""34231""
","
",751,NA,48,NA,NA,3000,1,1399,48,images/redplanet1.jpg,images/alien2,images/alien1,images/rocket2,images/alien2,images/nothing.png,2,real,true,2,common,0,2020-06-05T12:43:09Z,sub9
two-step-fixation,278,1029878,0.0-76.0-2.47,TRUE,FALSE,TRUE,FALSE,"""event"",""trial"",""time""
""fullscreenenter"",""5"",""34231""
","
","
","""event"",""trial"",""time""
""fullscreenenter"",""5"",""34231""
","
",NA,images/earth.jpg,NA,NA,NA,NA,NA,NA,NA,NA,NA,NA,NA,NA,NA,fixation,NA,NA,NA,NA,NA,NA,sub9
d3-animate-choice,279,1032131,0.0-76.0-0.48,TRUE,FALSE,TRUE,FALSE,"""event"",""trial"",""time""
""fullscreenenter"",""5"",""34231""
","
","
","""event"",""trial"",""time""
""fullscreenenter"",""5"",""34231""
","
",231,NA,48,NA,NA,3000,1,NA,NA,images/earth.jpg,images/rocket2,images/rocket1,null,images/rocket2,NA,1,real,null,2,NA,NA,NA,sub9
d3-animate-choice,280,1036151,0.0-76.0-1.48,TRUE,FALSE,TRUE,FALSE,"""event"",""trial"",""time""
""fullscreenenter"",""5"",""34231""
","
","
","""event"",""trial"",""time""
""fullscreenenter"",""5"",""34231""
","
",2010,NA,48,NA,NA,3000,1,2409,48,images/redplanet1.jpg,images/alien2,images/alien1,images/rocket2,images/alien2,images/t.png,2,real,true,2,common,1,2020-06-05T12:43:16Z,sub9
two-step-fixation,281,1037161,0.0-76.0-2.48,TRUE,FALSE,TRUE,FALSE,"""event"",""trial"",""time""
""fullscreenenter"",""5"",""34231""
","
","
","""event"",""trial"",""time""
""fullscreenenter"",""5"",""34231""
","
",NA,images/earth.jpg,NA,NA,NA,NA,NA,NA,NA,NA,NA,NA,NA,NA,NA,fixation,NA,NA,NA,NA,NA,NA,sub9
d3-animate-choice,282,1040941,0.0-76.0-0.49,TRUE,FALSE,TRUE,FALSE,"""event"",""trial"",""time""
""fullscreenenter"",""5"",""34231""
","
","
","""event"",""trial"",""time""
""fullscreenenter"",""5"",""34231""
","
",1764,NA,48,NA,NA,3000,1,2180,48,images/earth.jpg,images/rocket2,images/rocket1,null,images/rocket2,NA,1,real,null,2,NA,NA,NA,sub9
d3-animate-choice,283,1043621,0.0-76.0-1.49,TRUE,FALSE,TRUE,FALSE,"""event"",""trial"",""time""
""fullscreenenter"",""5"",""34231""
","
","
","""event"",""trial"",""time""
""fullscreenenter"",""5"",""34231""
","
",663,NA,48,NA,NA,3000,1,1038,48,images/purpleplanet.jpg,images/alien4,images/alien3,images/rocket2,images/alien4,images/nothing.png,2,real,false,2,rare,0,2020-06-05T12:43:24Z,sub9
two-step-fixation,284,1044642,0.0-76.0-2.49,TRUE,FALSE,TRUE,FALSE,"""event"",""trial"",""time""
""fullscreenenter"",""5"",""34231""
","
","
","""event"",""trial"",""time""
""fullscreenenter"",""5"",""34231""
","
",NA,images/earth.jpg,NA,NA,NA,NA,NA,NA,NA,NA,NA,NA,NA,NA,NA,fixation,NA,NA,NA,NA,NA,NA,sub9
audio-button-response-2,285,1112022,0.0-77.0,TRUE,FALSE,TRUE,FALSE,"""event"",""trial"",""time""
""fullscreenenter"",""5"",""34231""
","
","
","""event"",""trial"",""time""
""fullscreenenter"",""5"",""34231""
","
",67376,audio/instructions/break_1.wav,NA,0,NA,NA,NA,NA,NA,NA,NA,NA,NA,NA,NA,NA,NA,NA,NA,NA,NA,NA,sub9
d3-animate-choice,286,1115938,0.0-78.0-0.0,TRUE,FALSE,TRUE,FALSE,"""event"",""trial"",""time""
""fullscreenenter"",""5"",""34231""
","
","
","""event"",""trial"",""time""
""fullscreenenter"",""5"",""34231""
","
",1902,NA,48,NA,NA,3000,1,2198,48,images/earth.jpg,images/rocket2,images/rocket1,null,images/rocket2,NA,1,real,null,2,NA,NA,NA,sub9
d3-animate-choice,287,1118637,0.0-78.0-1.0,TRUE,FALSE,TRUE,FALSE,"""event"",""trial"",""time""
""fullscreenenter"",""5"",""34231""
","
","
","""event"",""trial"",""time""
""fullscreenenter"",""5"",""34231""
","
",680,NA,48,NA,NA,3000,1,1232,48,images/redplanet1.jpg,images/alien2,images/alien1,images/rocket2,images/alien2,images/nothing.png,2,real,true,2,common,0,2020-06-05T12:44:39Z,sub9
two-step-fixation,288,1119646,0.0-78.0-2.0,TRUE,FALSE,TRUE,FALSE,"""event"",""trial"",""time""
""fullscreenenter"",""5"",""34231""
","
","
","""event"",""trial"",""time""
""fullscreenenter"",""5"",""34231""
","
",NA,images/earth.jpg,NA,NA,NA,NA,NA,NA,NA,NA,NA,NA,NA,NA,NA,fixation,NA,NA,NA,NA,NA,NA,sub9
d3-animate-choice,289,1121727,0.0-78.0-0.1,TRUE,FALSE,TRUE,FALSE,"""event"",""trial"",""time""
""fullscreenenter"",""5"",""34231""
","
","
","""event"",""trial"",""time""
""fullscreenenter"",""5"",""34231""
","
",60,NA,49,NA,NA,3000,1,2365577649481122e20,4949494949494949e4,images/earth.jpg,images/rocket2,images/rocket1,null,images/rocket1,NA,1,real,null,1,NA,NA,NA,sub9
d3-animate-choice,290,1123817,0.0-78.0-1.1,TRUE,FALSE,TRUE,FALSE,"""event"",""trial"",""time""
""fullscreenenter"",""5"",""34231""
","
","
","""event"",""trial"",""time""
""fullscreenenter"",""5"",""34231""
