trial_type,trial_index,time_elapsed,internal_node_id,rocket_sides,red_planet_first_rocket,red_display_order,purple_display_order,interactions,blur_events,focus_events,fullscreenenter_events,fullscreenexit_events,rt,stimulus,key_press,button_pressed,success,duration,valid_pressed,rts,keys,planet_text,right_text,left_text,center_text,chosen_text,reward_text,trial_stage,practice_trial,transition_type,choice,transition,reward,timestamp,subject_id
pavlovia,0,8,0.0-0.0,TRUE,FALSE,FALSE,FALSE,"
","
","
","
","
",NA,NA,NA,NA,NA,NA,NA,NA,NA,NA,NA,NA,NA,NA,NA,NA,NA,NA,NA,NA,NA,NA,sub106
html-keyboard-response,1,1858,0.0-1.0,TRUE,FALSE,FALSE,FALSE,"
","
","
","
","
",1847.609999938868,Welcome! Press the space bar to begin.,32,NA,NA,NA,NA,NA,NA,NA,NA,NA,NA,NA,NA,NA,NA,NA,NA,NA,NA,NA,sub106
audio-keyboard-response,2,5641,0.0-2.0,TRUE,FALSE,FALSE,FALSE,"
","
","
","
","
",3651,audio/beep_loop.wav,32,NA,NA,NA,NA,NA,NA,NA,NA,NA,NA,NA,NA,NA,NA,NA,NA,NA,NA,NA,sub106
audio-button-response,3,8226,0.0-3.0,TRUE,FALSE,FALSE,FALSE,"
","
","
","
","
",NaN,audio/fish.mp3,NA,1,NA,NA,NA,NA,NA,NA,NA,NA,NA,NA,NA,NA,NA,NA,NA,NA,NA,NA,sub106
audio-button-response,4,11003,0.0-4.0,TRUE,FALSE,FALSE,FALSE,"""event"",""trial"",""time""
""fullscreenenter"",""5"",""13897""
","
","
","""event"",""trial"",""time""
""fullscreenenter"",""5"",""13897""
","
",NaN,audio/tiger.mp3,NA,4,NA,NA,NA,NA,NA,NA,NA,NA,NA,NA,NA,NA,NA,NA,NA,NA,NA,NA,sub106
fullscreen,5,14874,0.0-5.0,TRUE,FALSE,FALSE,FALSE,"""event"",""trial"",""time""
""fullscreenenter"",""5"",""13897""
","
","
","""event"",""trial"",""time""
""fullscreenenter"",""5"",""13897""
","
",NA,NA,NA,NA,TRUE,NA,NA,NA,NA,NA,NA,NA,NA,NA,NA,NA,NA,NA,NA,NA,NA,NA,sub106
d3-instructions,6,27318,0.0-6.0,TRUE,FALSE,FALSE,FALSE,"""event"",""trial"",""time""
""fullscreenenter"",""5"",""13897""
","
","
","""event"",""trial"",""time""
""fullscreenenter"",""5"",""13897""
","
",NA,NA,NA,NA,NA,NA,NA,NA,NA,NA,NA,NA,NA,NA,NA,NA,NA,NA,NA,NA,NA,NA,sub106
d3-instructions,7,38592,0.0-7.0,TRUE,FALSE,FALSE,FALSE,"""event"",""trial"",""time""
""fullscreenenter"",""5"",""13897""
","
","
","""event"",""trial"",""time""
""fullscreenenter"",""5"",""13897""
","
",NA,NA,NA,NA,NA,NA,NA,NA,NA,NA,NA,NA,NA,NA,NA,NA,NA,NA,NA,NA,NA,NA,sub106
d3-instructions,8,45500,0.0-8.0,TRUE,FALSE,FALSE,FALSE,"""event"",""trial"",""time""
""fullscreenenter"",""5"",""13897""
","
","
","""event"",""trial"",""time""
""fullscreenenter"",""5"",""13897""
","
",NA,NA,NA,NA,NA,NA,NA,NA,NA,NA,NA,NA,NA,NA,NA,NA,NA,NA,NA,NA,NA,NA,sub106
d3-instructions,9,57897,0.0-9.0,TRUE,FALSE,FALSE,FALSE,"""event"",""trial"",""time""
""fullscreenenter"",""5"",""13897""
","
","
","""event"",""trial"",""time""
""fullscreenenter"",""5"",""13897""
","
",NA,NA,NA,NA,NA,NA,NA,NA,NA,NA,NA,NA,NA,NA,NA,NA,NA,NA,NA,NA,NA,NA,sub106
d3-instructions,10,76674,0.0-10.0,TRUE,FALSE,FALSE,FALSE,"""event"",""trial"",""time""
""fullscreenenter"",""5"",""13897""
","
","
","""event"",""trial"",""time""
""fullscreenenter"",""5"",""13897""
","
",NA,NA,NA,NA,NA,NA,NA,NA,NA,NA,NA,NA,NA,NA,NA,NA,NA,NA,NA,NA,NA,NA,sub106
d3-animate-choice,11,79148,0.0-11.0,TRUE,FALSE,FALSE,FALSE,"""event"",""trial"",""time""
""fullscreenenter"",""5"",""13897""
","
","
","""event"",""trial"",""time""
""fullscreenenter"",""5"",""13897""
","
",466.3999999174848,NA,48,NA,NA,3000,1,1232.4849999276921,49,images/tutgreenplanet.jpg,images/tutalien1,images/tutalien2,null,images/tutalien1,NA,NA,practice,null,NA,NA,NA,NA,sub106
d3-animate-choice,12,81169,0.0-12.0,TRUE,FALSE,FALSE,FALSE,"""event"",""trial"",""time""
""fullscreenenter"",""5"",""13897""
","
","
","""event"",""trial"",""time""
""fullscreenenter"",""5"",""13897""
","
",17.29500002693385,NA,49,NA,NA,3000,1,1276.895000017248,48,images/tutgreenplanet.jpg,images/tutalien1,images/tutalien2,null,images/tutalien2,NA,NA,practice,null,NA,NA,NA,NA,sub106
d3-animate-choice,13,83574,0.0-13.0,TRUE,FALSE,FALSE,FALSE,"""event"",""trial"",""time""
""fullscreenenter"",""5"",""13897""
","
","
","""event"",""trial"",""time""
""fullscreenenter"",""5"",""13897""
","
",401.30499994847924,NA,48,NA,NA,3000,1,NA,NA,images/tutgreenplanet.jpg,images/tutalien1,images/tutalien2,null,images/tutalien1,NA,NA,practice,null,NA,NA,NA,NA,sub106
d3-animate-choice,14,86155,0.0-14.0,TRUE,FALSE,FALSE,FALSE,"""event"",""trial"",""time""
""fullscreenenter"",""5"",""13897""
","
","
","""event"",""trial"",""time""
""fullscreenenter"",""5"",""13897""
","
",577.129999990575,NA,49,NA,NA,3000,1,NA,NA,images/tutgreenplanet.jpg,images/tutalien1,images/tutalien2,null,images/tutalien2,NA,NA,practice,null,NA,NA,NA,NA,sub106
d3-instructions,15,93269,0.0-15.0,TRUE,FALSE,FALSE,FALSE,"""event"",""trial"",""time""
""fullscreenenter"",""5"",""13897""
","
","
","""event"",""trial"",""time""
""fullscreenenter"",""5"",""13897""
","
",NA,NA,NA,NA,NA,NA,NA,NA,NA,NA,NA,NA,NA,NA,NA,NA,NA,NA,NA,NA,NA,NA,sub106
d3-instructions,16,100412,0.0-16.0,TRUE,FALSE,FALSE,FALSE,"""event"",""trial"",""time""
""fullscreenenter"",""5"",""13897""
","
","
","""event"",""trial"",""time""
""fullscreenenter"",""5"",""13897""
","
",NA,NA,NA,NA,NA,NA,NA,NA,NA,NA,NA,NA,NA,NA,NA,NA,NA,NA,NA,NA,NA,NA,sub106
d3-instructions,17,109347,0.0-17.0,TRUE,FALSE,FALSE,FALSE,"""event"",""trial"",""time""
""fullscreenenter"",""5"",""13897""
","
","
","""event"",""trial"",""time""
""fullscreenenter"",""5"",""13897""
","
",NA,NA,NA,NA,NA,NA,NA,NA,NA,NA,NA,NA,NA,NA,NA,NA,NA,NA,NA,NA,NA,NA,sub106
d3-instructions,18,123877,0.0-18.0,TRUE,FALSE,FALSE,FALSE,"""event"",""trial"",""time""
""fullscreenenter"",""5"",""13897""
","
","
","""event"",""trial"",""time""
""fullscreenenter"",""5"",""13897""
","
",NA,NA,NA,NA,NA,NA,NA,NA,NA,NA,NA,NA,NA,NA,NA,NA,NA,NA,NA,NA,NA,NA,sub106
d3-instructions,19,137190,0.0-19.0,TRUE,FALSE,FALSE,FALSE,"""event"",""trial"",""time""
""fullscreenenter"",""5"",""13897""
","
","
","""event"",""trial"",""time""
""fullscreenenter"",""5"",""13897""
","
",NA,NA,NA,NA,NA,NA,NA,NA,NA,NA,NA,NA,NA,NA,NA,NA,NA,NA,NA,NA,NA,NA,sub106
d3-animate-choice,20,141254,0.0-20.0,TRUE,FALSE,FALSE,FALSE,"""event"",""trial"",""time""
""fullscreenenter"",""5"",""13897""
","
","
","""event"",""trial"",""time""
""fullscreenenter"",""5"",""13897""
","
",2045.644999947399,NA,49,NA,NA,3000,1,2770.934999920428,49,images/tutyellowplanet.jpg,null,images/tutalien3,null,images/tutalien3,images/t.png,NA,practice,null,NA,NA,NA,NA,sub106
d3-animate-choice,21,143424,0.0-21.0,TRUE,FALSE,FALSE,FALSE,"""event"",""trial"",""time""
""fullscreenenter"",""5"",""13897""
","
","
","""event"",""trial"",""time""
""fullscreenenter"",""5"",""13897""
","
",143.7399999704212,NA,49,NA,NA,3000,1,"674.7749999631196,1683.7850000010803",4949,images/tutyellowplanet.jpg,null,images/tutalien3,null,images/tutalien3,images/t.png,NA,practice,null,NA,NA,NA,NA,sub106
d3-animate-choice,22,145770,0.0-22.0,TRUE,FALSE,FALSE,FALSE,"""event"",""trial"",""time""
""fullscreenenter"",""5"",""13897""
","
","
","""event"",""trial"",""time""
""fullscreenenter"",""5"",""13897""
","
",342.0000000623986,NA,49,NA,NA,3000,1,"776.3999999733642,1787.4200000660494",4949,images/tutyellowplanet.jpg,null,images/tutalien3,null,images/tutalien3,images/t.png,NA,practice,null,NA,NA,NA,NA,sub106
d3-animate-choice,23,148134,0.0-23.0,TRUE,FALSE,FALSE,FALSE,"""event"",""trial"",""time""
""fullscreenenter"",""5"",""13897""
","
","
","""event"",""trial"",""time""
""fullscreenenter"",""5"",""13897""
","
",355.72999995201826,NA,49,NA,NA,3000,1,1794.6849999716505,49,images/tutyellowplanet.jpg,null,images/tutalien3,null,images/tutalien3,images/t.png,NA,practice,null,NA,NA,NA,NA,sub106
d3-animate-choice,24,150512,0.0-24.0,TRUE,FALSE,FALSE,FALSE,"""event"",""trial"",""time""
""fullscreenenter"",""5"",""13897""
","
","
","""event"",""trial"",""time""
""fullscreenenter"",""5"",""13897""
","
",365.40999996941537,NA,49,NA,NA,3000,1,"934.209999977611,1555.5399999720976,2365.8549999818206",494949,images/tutyellowplanet.jpg,null,images/tutalien3,null,images/tutalien3,images/t.png,NA,practice,null,NA,NA,NA,NA,sub106
d3-animate-choice,25,152964,0.0-25.0,TRUE,FALSE,FALSE,FALSE,"""event"",""trial"",""time""
""fullscreenenter"",""5"",""13897""
","
","
","""event"",""trial"",""time""
""fullscreenenter"",""5"",""13897""
","
",442.24499992560595,NA,49,NA,NA,3000,1,"866.4250000147149,1451.314999954775,1946.449999930337",494949,images/tutyellowplanet.jpg,null,images/tutalien3,null,images/tutalien3,images/t.png,NA,practice,null,NA,NA,NA,NA,sub106
d3-animate-choice,26,155034,0.0-26.0,TRUE,FALSE,FALSE,FALSE,"""event"",""trial"",""time""
""fullscreenenter"",""5"",""13897""
","
","
","""event"",""trial"",""time""
""fullscreenenter"",""5"",""13897""
","
",65.83500001579523,NA,49,NA,NA,3000,1,"521.5900000184774,1276.670000050217",4949,images/tutyellowplanet.jpg,null,images/tutalien3,null,images/tutalien3,images/t.png,NA,practice,null,NA,NA,NA,NA,sub106
d3-animate-choice,27,157355,0.0-27.0,TRUE,FALSE,FALSE,FALSE,"""event"",""trial"",""time""
""fullscreenenter"",""5"",""13897""
","
","
","""event"",""trial"",""time""
""fullscreenenter"",""5"",""13897""
","
",315.2400000253692,NA,49,NA,NA,3000,1,"811.3050000974908,1604.7300000209361",4949,images/tutyellowplanet.jpg,null,images/tutalien3,null,images/tutalien3,images/t.png,NA,practice,null,NA,NA,NA,NA,sub106
d3-animate-choice,28,159690,0.0-28.0,TRUE,FALSE,FALSE,FALSE,"""event"",""trial"",""time""
""fullscreenenter"",""5"",""13897""
","
","
","""event"",""trial"",""time""
""fullscreenenter"",""5"",""13897""
","
",332.2100000223145,NA,49,NA,NA,3000,1,"937.4900000402704,2271.085000014864",4949,images/tutyellowplanet.jpg,null,images/tutalien3,null,images/tutalien3,images/t.png,NA,practice,null,NA,NA,NA,NA,sub106
d3-animate-choice,29,162224,0.0-29.0,TRUE,FALSE,FALSE,FALSE,"""event"",""trial"",""time""
""fullscreenenter"",""5"",""13897""
","
","
","""event"",""trial"",""time""
""fullscreenenter"",""5"",""13897""
","
",522.9449999751523,NA,49,NA,NA,3000,1,"995.6900000106543,1626.909999991767,2175.7650000508875",494949,images/tutyellowplanet.jpg,null,images/tutalien3,null,images/tutalien3,images/t.png,NA,practice,null,NA,NA,NA,NA,sub106
d3-instructions,30,169413,0.0-30.0,TRUE,FALSE,FALSE,FALSE,"""event"",""trial"",""time""
""fullscreenenter"",""5"",""13897""
","
","
","""event"",""trial"",""time""
""fullscreenenter"",""5"",""13897""
","
",NA,NA,NA,NA,NA,NA,NA,NA,NA,NA,NA,NA,NA,NA,NA,NA,NA,NA,NA,NA,NA,NA,sub106
d3-instructions,31,179952,0.0-31.0,TRUE,FALSE,FALSE,FALSE,"""event"",""trial"",""time""
""fullscreenenter"",""5"",""13897""
","
","
","""event"",""trial"",""time""
""fullscreenenter"",""5"",""13897""
","
",NA,NA,NA,NA,NA,NA,NA,NA,NA,NA,NA,NA,NA,NA,NA,NA,NA,NA,NA,NA,NA,NA,sub106
d3-instructions,32,187672,0.0-32.0,TRUE,FALSE,FALSE,FALSE,"""event"",""trial"",""time""
""fullscreenenter"",""5"",""13897""
","
","
","""event"",""trial"",""time""
""fullscreenenter"",""5"",""13897""
","
",NA,NA,NA,NA,NA,NA,NA,NA,NA,NA,NA,NA,NA,NA,NA,NA,NA,NA,NA,NA,NA,NA,sub106
d3-instructions,33,193491,0.0-33.0,TRUE,FALSE,FALSE,FALSE,"""event"",""trial"",""time""
""fullscreenenter"",""5"",""13897""
","
","
","""event"",""trial"",""time""
""fullscreenenter"",""5"",""13897""
","
",NA,NA,NA,NA,NA,NA,NA,NA,NA,NA,NA,NA,NA,NA,NA,NA,NA,NA,NA,NA,NA,NA,sub106
d3-animate-choice,34,197684,0.0-34.0,TRUE,FALSE,FALSE,FALSE,"""event"",""trial"",""time""
""fullscreenenter"",""5"",""13897""
","
","
","""event"",""trial"",""time""
""fullscreenenter"",""5"",""13897""
","
",2189.119999995455,NA,49,NA,NA,3000,1,NA,NA,images/tutgreenplanet.jpg,images/tutalien1,images/tutalien2,null,images/tutalien2,images/t.png,NA,practice,null,NA,NA,NA,NA,sub106
d3-animate-choice,35,200704,0.0-35.0,TRUE,FALSE,FALSE,FALSE,"""event"",""trial"",""time""
""fullscreenenter"",""5"",""13897""
","
","
","""event"",""trial"",""time""
""fullscreenenter"",""5"",""13897""
","
",1005.2150000119582,NA,49,NA,NA,3000,1,NA,NA,images/tutgreenplanet.jpg,images/tutalien1,images/tutalien2,null,images/tutalien2,images/nothing.png,NA,practice,null,NA,NA,NA,NA,sub106
d3-animate-choice,36,203730,0.0-36.0,TRUE,FALSE,FALSE,FALSE,"""event"",""trial"",""time""
""fullscreenenter"",""5"",""13897""
","
","
","""event"",""trial"",""time""
""fullscreenenter"",""5"",""13897""
","
",1023.3250000746921,NA,48,NA,NA,3000,1,NA,NA,images/tutgreenplanet.jpg,images/tutalien1,images/tutalien2,null,images/tutalien1,images/nothing.png,NA,practice,null,NA,NA,NA,NA,sub106
d3-animate-choice,37,206167,0.0-37.0,TRUE,FALSE,FALSE,FALSE,"""event"",""trial"",""time""
""fullscreenenter"",""5"",""13897""
","
","
","""event"",""trial"",""time""
""fullscreenenter"",""5"",""13897""
","
",433.91000002156943,NA,48,NA,NA,3000,1,NA,NA,images/tutgreenplanet.jpg,images/tutalien1,images/tutalien2,null,images/tutalien1,images/nothing.png,NA,practice,null,NA,NA,NA,NA,sub106
d3-animate-choice,38,208654,0.0-38.0,TRUE,FALSE,FALSE,FALSE,"""event"",""trial"",""time""
""fullscreenenter"",""5"",""13897""
","
","
","""event"",""trial"",""time""
""fullscreenenter"",""5"",""13897""
","
",468.66500005126,NA,48,NA,NA,3000,1,NA,NA,images/tutgreenplanet.jpg,images/tutalien1,images/tutalien2,null,images/tutalien1,images/nothing.png,NA,practice,null,NA,NA,NA,NA,sub106
d3-animate-choice,39,211049,0.0-39.0,TRUE,FALSE,FALSE,FALSE,"""event"",""trial"",""time""
""fullscreenenter"",""5"",""13897""
","
","
","""event"",""trial"",""time""
""fullscreenenter"",""5"",""13897""
","
",391.26499998383224,NA,49,NA,NA,3000,1,NA,NA,images/tutgreenplanet.jpg,images/tutalien1,images/tutalien2,null,images/tutalien2,images/t.png,NA,practice,null,NA,NA,NA,NA,sub106
d3-animate-choice,40,213349,0.0-40.0,TRUE,FALSE,FALSE,FALSE,"""event"",""trial"",""time""
""fullscreenenter"",""5"",""13897""
","
","
","""event"",""trial"",""time""
""fullscreenenter"",""5"",""13897""
","
",297.5100000621751,NA,49,NA,NA,3000,1,NA,NA,images/tutgreenplanet.jpg,images/tutalien1,images/tutalien2,null,images/tutalien2,images/t.png,NA,practice,null,NA,NA,NA,NA,sub106
d3-animate-choice,41,215687,0.0-41.0,TRUE,FALSE,FALSE,FALSE,"""event"",""trial"",""time""
""fullscreenenter"",""5"",""13897""
","
","
","""event"",""trial"",""time""
""fullscreenenter"",""5"",""13897""
","
",335.44500009156764,NA,49,NA,NA,3000,1,NA,NA,images/tutgreenplanet.jpg,images/tutalien1,images/tutalien2,null,images/tutalien2,images/t.png,NA,practice,null,NA,NA,NA,NA,sub106
d3-animate-choice,42,218119,0.0-42.0,TRUE,FALSE,FALSE,FALSE,"""event"",""trial"",""time""
""fullscreenenter"",""5"",""13897""
","
","
","""event"",""trial"",""time""
""fullscreenenter"",""5"",""13897""
","
",429.06499991659075,NA,48,NA,NA,3000,1,NA,NA,images/tutgreenplanet.jpg,images/tutalien1,images/tutalien2,null,images/tutalien1,images/nothing.png,NA,practice,null,NA,NA,NA,NA,sub106
d3-animate-choice,43,220469,0.0-43.0,TRUE,FALSE,FALSE,FALSE,"""event"",""trial"",""time""
""fullscreenenter"",""5"",""13897""
","
","
","""event"",""trial"",""time""
""fullscreenenter"",""5"",""13897""
","
",338.73000007588416,NA,49,NA,NA,3000,1,NA,NA,images/tutgreenplanet.jpg,images/tutalien1,images/tutalien2,null,images/tutalien2,images/t.png,NA,practice,null,NA,NA,NA,NA,sub106
d3-instructions,44,234992,0.0-44.0,TRUE,FALSE,FALSE,FALSE,"""event"",""trial"",""time""
""fullscreenenter"",""5"",""13897""
","
","
","""event"",""trial"",""time""
""fullscreenenter"",""5"",""13897""
","
",NA,NA,NA,NA,NA,NA,NA,NA,NA,NA,NA,NA,NA,NA,NA,NA,NA,NA,NA,NA,NA,NA,sub106
d3-instructions,45,241370,0.0-45.0,TRUE,FALSE,FALSE,FALSE,"""event"",""trial"",""time""
""fullscreenenter"",""5"",""13897""
","
","
","""event"",""trial"",""time""
""fullscreenenter"",""5"",""13897""
","
",NA,NA,NA,NA,NA,NA,NA,NA,NA,NA,NA,NA,NA,NA,NA,NA,NA,NA,NA,NA,NA,NA,sub106
d3-instructions,46,245267,0.0-46.0,TRUE,FALSE,FALSE,FALSE,"""event"",""trial"",""time""
""fullscreenenter"",""5"",""13897""
","
","
","""event"",""trial"",""time""
""fullscreenenter"",""5"",""13897""
","
",NA,NA,NA,NA,NA,NA,NA,NA,NA,NA,NA,NA,NA,NA,NA,NA,NA,NA,NA,NA,NA,NA,sub106
d3-instructions,47,256501,0.0-47.0,TRUE,FALSE,FALSE,FALSE,"""event"",""trial"",""time""
""fullscreenenter"",""5"",""13897""
","
","
","""event"",""trial"",""time""
""fullscreenenter"",""5"",""13897""
","
",NA,NA,NA,NA,NA,NA,NA,NA,NA,NA,NA,NA,NA,NA,NA,NA,NA,NA,NA,NA,NA,NA,sub106
d3-instructions,48,259984,0.0-48.0,TRUE,FALSE,FALSE,FALSE,"""event"",""trial"",""time""
""fullscreenenter"",""5"",""13897""
","
","
","""event"",""trial"",""time""
""fullscreenenter"",""5"",""13897""
","
",NA,NA,NA,NA,NA,NA,NA,NA,NA,NA,NA,NA,NA,NA,NA,NA,NA,NA,NA,NA,NA,NA,sub106
d3-instructions,49,263221,0.0-49.0,TRUE,FALSE,FALSE,FALSE,"""event"",""trial"",""time""
""fullscreenenter"",""5"",""13897""
","
","
","""event"",""trial"",""time""
""fullscreenenter"",""5"",""13897""
","
",NA,NA,NA,NA,NA,NA,NA,NA,NA,NA,NA,NA,NA,NA,NA,NA,NA,NA,NA,NA,NA,NA,sub106
d3-instructions,50,272361,0.0-50.0,TRUE,FALSE,FALSE,FALSE,"""event"",""trial"",""time""
""fullscreenenter"",""5"",""13897""
","
","
","""event"",""trial"",""time""
""fullscreenenter"",""5"",""13897""
","
",NA,NA,NA,NA,NA,NA,NA,NA,NA,NA,NA,NA,NA,NA,NA,NA,NA,NA,NA,NA,NA,NA,sub106
d3-instructions,51,275654,0.0-51.0,TRUE,FALSE,FALSE,FALSE,"""event"",""trial"",""time""
""fullscreenenter"",""5"",""13897""
","
","
","""event"",""trial"",""time""
""fullscreenenter"",""5"",""13897""
","
",NA,NA,NA,NA,NA,NA,NA,NA,NA,NA,NA,NA,NA,NA,NA,NA,NA,NA,NA,NA,NA,NA,sub106
d3-instructions,52,277465,0.0-52.0,TRUE,FALSE,FALSE,FALSE,"""event"",""trial"",""time""
""fullscreenenter"",""5"",""13897""
","
","
","""event"",""trial"",""time""
""fullscreenenter"",""5"",""13897""
","
",NA,NA,NA,NA,NA,NA,NA,NA,NA,NA,NA,NA,NA,NA,NA,NA,NA,NA,NA,NA,NA,NA,sub106
d3-instructions,53,288823,0.0-53.0,TRUE,FALSE,FALSE,FALSE,"""event"",""trial"",""time""
""fullscreenenter"",""5"",""13897""
","
","
","""event"",""trial"",""time""
""fullscreenenter"",""5"",""13897""
","
",NA,NA,NA,NA,NA,NA,NA,NA,NA,NA,NA,NA,NA,NA,NA,NA,NA,NA,NA,NA,NA,NA,sub106
d3-instructions,54,297281,0.0-54.0,TRUE,FALSE,FALSE,FALSE,"""event"",""trial"",""time""
""fullscreenenter"",""5"",""13897""
","
","
","""event"",""trial"",""time""
""fullscreenenter"",""5"",""13897""
","
",NA,NA,NA,NA,NA,NA,NA,NA,NA,NA,NA,NA,NA,NA,NA,NA,NA,NA,NA,NA,NA,NA,sub106
d3-instructions,55,307848,0.0-55.0,TRUE,FALSE,FALSE,FALSE,"""event"",""trial"",""time""
""fullscreenenter"",""5"",""13897""
","
","
","""event"",""trial"",""time""
""fullscreenenter"",""5"",""13897""
","
",NA,NA,NA,NA,NA,NA,NA,NA,NA,NA,NA,NA,NA,NA,NA,NA,NA,NA,NA,NA,NA,NA,sub106
d3-instructions,56,312406,0.0-56.0,TRUE,FALSE,FALSE,FALSE,"""event"",""trial"",""time""
""fullscreenenter"",""5"",""13897""
","
","
","""event"",""trial"",""time""
""fullscreenenter"",""5"",""13897""
","
",NA,NA,NA,NA,NA,NA,NA,NA,NA,NA,NA,NA,NA,NA,NA,NA,NA,NA,NA,NA,NA,NA,sub106
d3-instructions,57,321698,0.0-57.0,TRUE,FALSE,FALSE,FALSE,"""event"",""trial"",""time""
""fullscreenenter"",""5"",""13897""
","
","
","""event"",""trial"",""time""
""fullscreenenter"",""5"",""13897""
","
",NA,NA,NA,NA,NA,NA,NA,NA,NA,NA,NA,NA,NA,NA,NA,NA,NA,NA,NA,NA,NA,NA,sub106
d3-instructions,58,329598,0.0-58.0,TRUE,FALSE,FALSE,FALSE,"""event"",""trial"",""time""
""fullscreenenter"",""5"",""13897""
","
","
","""event"",""trial"",""time""
""fullscreenenter"",""5"",""13897""
","
",NA,NA,NA,NA,NA,NA,NA,NA,NA,NA,NA,NA,NA,NA,NA,NA,NA,NA,NA,NA,NA,NA,sub106
d3-instructions,59,334225,0.0-59.0,TRUE,FALSE,FALSE,FALSE,"""event"",""trial"",""time""
""fullscreenenter"",""5"",""13897""
","
","
","""event"",""trial"",""time""
""fullscreenenter"",""5"",""13897""
","
",NA,NA,NA,NA,NA,NA,NA,NA,NA,NA,NA,NA,NA,NA,NA,NA,NA,NA,NA,NA,NA,NA,sub106
d3-instructions,60,337220,0.0-60.0,TRUE,FALSE,FALSE,FALSE,"""event"",""trial"",""time""
""fullscreenenter"",""5"",""13897""
","
","
","""event"",""trial"",""time""
""fullscreenenter"",""5"",""13897""
","
",NA,NA,NA,NA,NA,NA,NA,NA,NA,NA,NA,NA,NA,NA,NA,NA,NA,NA,NA,NA,NA,NA,sub106
d3-animate-choice,61,340473,0.0-61.0-0.0,TRUE,FALSE,FALSE,FALSE,"""event"",""trial"",""time""
""fullscreenenter"",""5"",""13897""
","
","
","""event"",""trial"",""time""
""fullscreenenter"",""5"",""13897""
","
",1227.8650000225753,NA,49,NA,NA,3000,1,NA,NA,images/earth.jpg,images/tutrocket1,images/tutrocket2,null,images/tutrocket2,NA,1,practice,null,1,NA,NA,NA,sub106
d3-animate-choice,62,344484,0.0-61.0-1.0,TRUE,FALSE,FALSE,FALSE,"""event"",""trial"",""time""
""fullscreenenter"",""5"",""13897""
","
","
","""event"",""trial"",""time""
""fullscreenenter"",""5"",""13897""
","
",2128.5299999872223,NA,49,NA,NA,3000,1,NA,NA,images/tutgreenplanet.jpg,images/tutalien2,images/tutalien1,images/tutrocket2,images/tutalien1,images/nothing.png,2,practice,true,1,common,0,2020-06-20T18:06:04Z,sub106
two-step-fixation,63,345493,0.0-61.0-2.0,TRUE,FALSE,FALSE,FALSE,"""event"",""trial"",""time""
""fullscreenenter"",""5"",""13897""
","
","
","""event"",""trial"",""time""
""fullscreenenter"",""5"",""13897""
","
",NA,images/earth.jpg,NA,NA,NA,NA,NA,NA,NA,NA,NA,NA,NA,NA,NA,fixation,NA,NA,NA,NA,NA,NA,sub106
d3-animate-choice,64,348636,0.0-61.0-0.1,TRUE,FALSE,FALSE,FALSE,"""event"",""trial"",""time""
""fullscreenenter"",""5"",""13897""
","
","
","""event"",""trial"",""time""
""fullscreenenter"",""5"",""13897""
","
",1138.150000013411,NA,48,NA,NA,3000,1,NA,NA,images/earth.jpg,images/tutrocket1,images/tutrocket2,null,images/tutrocket1,NA,1,practice,null,2,NA,NA,NA,sub106
d3-animate-choice,65,351634,0.0-61.0-1.1,TRUE,FALSE,FALSE,FALSE,"""event"",""trial"",""time""
""fullscreenenter"",""5"",""13897""
","
","
","""event"",""trial"",""time""
""fullscreenenter"",""5"",""13897""
","
",986.2049999646842,NA,49,NA,NA,3000,1,NA,NA,images/tutyellowplanet.jpg,images/tutalien4,images/tutalien3,images/tutrocket1,images/tutalien3,images/t.png,2,practice,true,1,common,1,2020-06-20T18:06:11Z,sub106
two-step-fixation,66,352654,0.0-61.0-2.1,TRUE,FALSE,FALSE,FALSE,"""event"",""trial"",""time""
""fullscreenenter"",""5"",""13897""
","
","
","""event"",""trial"",""time""
""fullscreenenter"",""5"",""13897""
","
",NA,images/earth.jpg,NA,NA,NA,NA,NA,NA,NA,NA,NA,NA,NA,NA,NA,fixation,NA,NA,NA,NA,NA,NA,sub106
d3-animate-choice,67,355244,0.0-61.0-0.2,TRUE,FALSE,FALSE,FALSE,"""event"",""trial"",""time""
""fullscreenenter"",""5"",""13897""
","
","
","""event"",""trial"",""time""
""fullscreenenter"",""5"",""13897""
","
",585.5150000425056,NA,48,NA,NA,3000,1,NA,NA,images/earth.jpg,images/tutrocket1,images/tutrocket2,null,images/tutrocket1,NA,1,practice,null,2,NA,NA,NA,sub106
d3-animate-choice,68,358173,0.0-61.0-1.2,TRUE,FALSE,FALSE,FALSE,"""event"",""trial"",""time""
""fullscreenenter"",""5"",""13897""
","
","
","""event"",""trial"",""time""
""fullscreenenter"",""5"",""13897""
","
",919.7350000031292,NA,49,NA,NA,3000,1,NA,NA,images/tutyellowplanet.jpg,images/tutalien4,images/tutalien3,images/tutrocket1,images/tutalien3,images/nothing.png,2,practice,true,1,common,0,2020-06-20T18:06:17Z,sub106
two-step-fixation,69,359178,0.0-61.0-2.2,TRUE,FALSE,FALSE,FALSE,"""event"",""trial"",""time""
""fullscreenenter"",""5"",""13897""
","
","
","""event"",""trial"",""time""
""fullscreenenter"",""5"",""13897""
","
",NA,images/earth.jpg,NA,NA,NA,NA,NA,NA,NA,NA,NA,NA,NA,NA,NA,fixation,NA,NA,NA,NA,NA,NA,sub106
d3-animate-choice,70,361640,0.0-61.0-0.3,TRUE,FALSE,FALSE,FALSE,"""event"",""trial"",""time""
""fullscreenenter"",""5"",""13897""
","
","
","""event"",""trial"",""time""
""fullscreenenter"",""5"",""13897""
","
",459.40000005066395,NA,48,NA,NA,3000,1,NA,NA,images/earth.jpg,images/tutrocket1,images/tutrocket2,null,images/tutrocket1,NA,1,practice,null,2,NA,NA,NA,sub106
d3-animate-choice,71,364245,0.0-61.0-1.3,TRUE,FALSE,FALSE,FALSE,"""event"",""trial"",""time""
""fullscreenenter"",""5"",""13897""
","
","
","""event"",""trial"",""time""
""fullscreenenter"",""5"",""13897""
","
",588.4450000012293,NA,49,NA,NA,3000,1,NA,NA,images/tutyellowplanet.jpg,images/tutalien4,images/tutalien3,images/tutrocket1,images/tutalien3,images/nothing.png,2,practice,true,1,common,0,2020-06-20T18:06:23Z,sub106
two-step-fixation,72,365264,0.0-61.0-2.3,TRUE,FALSE,FALSE,FALSE,"""event"",""trial"",""time""
""fullscreenenter"",""5"",""13897""
","
","
","""event"",""trial"",""time""
""fullscreenenter"",""5"",""13897""
","
",NA,images/earth.jpg,NA,NA,NA,NA,NA,NA,NA,NA,NA,NA,NA,NA,NA,fixation,NA,NA,NA,NA,NA,NA,sub106
d3-animate-choice,73,367758,0.0-61.0-0.4,TRUE,FALSE,FALSE,FALSE,"""event"",""trial"",""time""
""fullscreenenter"",""5"",""13897""
","
","
","""event"",""trial"",""time""
""fullscreenenter"",""5"",""13897""
","
",489.2499999841675,NA,48,NA,NA,3000,1,NA,NA,images/earth.jpg,images/tutrocket1,images/tutrocket2,null,images/tutrocket1,NA,1,practice,null,2,NA,NA,NA,sub106
d3-animate-choice,74,370579,0.0-61.0-1.4,TRUE,FALSE,FALSE,FALSE,"""event"",""trial"",""time""
""fullscreenenter"",""5"",""13897""
","
","
","""event"",""trial"",""time""
""fullscreenenter"",""5"",""13897""
","
",817.9000000236556,NA,48,NA,NA,3000,1,NA,NA,images/tutyellowplanet.jpg,images/tutalien4,images/tutalien3,images/tutrocket1,images/tutalien4,images/nothing.png,2,practice,true,2,common,0,2020-06-20T18:06:30Z,sub106
two-step-fixation,75,371582,0.0-61.0-2.4,TRUE,FALSE,FALSE,FALSE,"""event"",""trial"",""time""
""fullscreenenter"",""5"",""13897""
","
","
","""event"",""trial"",""time""
""fullscreenenter"",""5"",""13897""
","
",NA,images/earth.jpg,NA,NA,NA,NA,NA,NA,NA,NA,NA,NA,NA,NA,NA,fixation,NA,NA,NA,NA,NA,NA,sub106
d3-animate-choice,76,375585,0.0-61.0-0.5,TRUE,FALSE,FALSE,FALSE,"""event"",""trial"",""time""
""fullscreenenter"",""5"",""13897""
","
","
","""event"",""trial"",""time""
""fullscreenenter"",""5"",""13897""
","
",2538.0000000586733,NA,49,NA,NA,3000,1,NA,NA,images/earth.jpg,images/tutrocket1,images/tutrocket2,null,images/tutrocket2,NA,1,practice,null,1,NA,NA,NA,sub106
d3-animate-choice,77,378383,0.0-61.0-1.5,TRUE,FALSE,FALSE,FALSE,"""event"",""trial"",""time""
""fullscreenenter"",""5"",""13897""
","
","
","""event"",""trial"",""time""
""fullscreenenter"",""5"",""13897""
","
",792.7749999798834,NA,49,NA,NA,3000,1,2080.8549999492243,49,images/tutgreenplanet.jpg,images/tutalien2,images/tutalien1,images/tutrocket2,images/tutalien1,images/nothing.png,2,practice,true,1,common,0,2020-06-20T18:06:38Z,sub106
two-step-fixation,78,379386,0.0-61.0-2.5,TRUE,FALSE,FALSE,FALSE,"""event"",""trial"",""time""
""fullscreenenter"",""5"",""13897""
","
","
","""event"",""trial"",""time""
""fullscreenenter"",""5"",""13897""
","
",NA,images/earth.jpg,NA,NA,NA,NA,NA,NA,NA,NA,NA,NA,NA,NA,NA,fixation,NA,NA,NA,NA,NA,NA,sub106
d3-animate-choice,79,382241,0.0-61.0-0.6,TRUE,FALSE,FALSE,FALSE,"""event"",""trial"",""time""
""fullscreenenter"",""5"",""13897""
","
","
","""event"",""trial"",""time""
""fullscreenenter"",""5"",""13897""
","
",850.6749999942258,NA,48,NA,NA,3000,1,NA,NA,images/earth.jpg,images/tutrocket1,images/tutrocket2,null,images/tutrocket1,NA,1,practice,null,2,NA,NA,NA,sub106
d3-animate-choice,80,384832,0.0-61.0-1.6,TRUE,FALSE,FALSE,FALSE,"""event"",""trial"",""time""
""fullscreenenter"",""5"",""13897""
","
","
","""event"",""trial"",""time""
""fullscreenenter"",""5"",""13897""
","
",587.6800001133233,NA,49,NA,NA,3000,1,NA,NA,images/tutyellowplanet.jpg,images/tutalien4,images/tutalien3,images/tutrocket1,images/tutalien3,images/nothing.png,2,practice,true,1,common,0,2020-06-20T18:06:44Z,sub106
two-step-fixation,81,385834,0.0-61.0-2.6,TRUE,FALSE,FALSE,FALSE,"""event"",""trial"",""time""
""fullscreenenter"",""5"",""13897""
","
","
","""event"",""trial"",""time""
""fullscreenenter"",""5"",""13897""
","
",NA,images/earth.jpg,NA,NA,NA,NA,NA,NA,NA,NA,NA,NA,NA,NA,NA,fixation,NA,NA,NA,NA,NA,NA,sub106
d3-animate-choice,82,388362,0.0-61.0-0.7,TRUE,FALSE,FALSE,FALSE,"""event"",""trial"",""time""
""fullscreenenter"",""5"",""13897""
","
","
","""event"",""trial"",""time""
""fullscreenenter"",""5"",""13897""
","
",524.8150000115857,NA,49,NA,NA,3000,1,NA,NA,images/earth.jpg,images/tutrocket1,images/tutrocket2,null,images/tutrocket2,NA,1,practice,null,1,NA,NA,NA,sub106
d3-animate-choice,83,390839,0.0-61.0-1.7,TRUE,FALSE,FALSE,FALSE,"""event"",""trial"",""time""
""fullscreenenter"",""5"",""13897""
","
","
","""event"",""trial"",""time""
""fullscreenenter"",""5"",""13897""
","
",473.5799999907613,NA,49,NA,NA,3000,1,NA,NA,images/tutgreenplanet.jpg,images/tutalien2,images/tutalien1,images/tutrocket2,images/tutalien1,images/nothing.png,2,practice,true,1,common,0,2020-06-20T18:06:50Z,sub106
two-step-fixation,84,391842,0.0-61.0-2.7,TRUE,FALSE,FALSE,FALSE,"""event"",""trial"",""time""
""fullscreenenter"",""5"",""13897""
","
","
","""event"",""trial"",""time""
""fullscreenenter"",""5"",""13897""
","
",NA,images/earth.jpg,NA,NA,NA,NA,NA,NA,NA,NA,NA,NA,NA,NA,NA,fixation,NA,NA,NA,NA,NA,NA,sub106
d3-animate-choice,85,394243,0.0-61.0-0.8,TRUE,FALSE,FALSE,FALSE,"""event"",""trial"",""time""
""fullscreenenter"",""5"",""13897""
","
","
","""event"",""trial"",""time""
""fullscreenenter"",""5"",""13897""
","
",398.33499991800636,NA,49,NA,NA,3000,1,NA,NA,images/earth.jpg,images/tutrocket1,images/tutrocket2,null,images/tutrocket2,NA,1,practice,null,1,NA,NA,NA,sub106
d3-animate-choice,86,397464,0.0-61.0-1.8,TRUE,FALSE,FALSE,FALSE,"""event"",""trial"",""time""
""fullscreenenter"",""5"",""13897""
","
","
","""event"",""trial"",""time""
""fullscreenenter"",""5"",""13897""
","
",1217.4300000770018,NA,49,NA,NA,3000,1,NA,NA,images/tutyellowplanet.jpg,images/tutalien4,images/tutalien3,images/tutrocket2,images/tutalien3,images/nothing.png,2,practice,false,1,rare,0,2020-06-20T18:06:57Z,sub106
two-step-fixation,87,398466,0.0-61.0-2.8,TRUE,FALSE,FALSE,FALSE,"""event"",""trial"",""time""
""fullscreenenter"",""5"",""13897""
","
","
","""event"",""trial"",""time""
""fullscreenenter"",""5"",""13897""
","
",NA,images/earth.jpg,NA,NA,NA,NA,NA,NA,NA,NA,NA,NA,NA,NA,NA,fixation,NA,NA,NA,NA,NA,NA,sub106
d3-animate-choice,88,401356,0.0-61.0-0.9,TRUE,FALSE,FALSE,FALSE,"""event"",""trial"",""time""
""fullscreenenter"",""5"",""13897""
","
","
","""event"",""trial"",""time""
""fullscreenenter"",""5"",""13897""
","
",886.6200000047684,NA,49,NA,NA,3000,1,NA,NA,images/earth.jpg,images/tutrocket1,images/tutrocket2,null,images/tutrocket2,NA,1,practice,null,1,NA,NA,NA,sub106
d3-animate-choice,89,403783,0.0-61.0-1.9,TRUE,FALSE,FALSE,FALSE,"""event"",""trial"",""time""
""fullscreenenter"",""5"",""13897""
","
","
","""event"",""trial"",""time""
""fullscreenenter"",""5"",""13897""
","
",423.72000007890165,NA,49,NA,NA,3000,1,NA,NA,images/tutyellowplanet.jpg,images/tutalien4,images/tutalien3,images/tutrocket2,images/tutalien3,images/nothing.png,2,practice,false,1,rare,0,2020-06-20T18:07:03Z,sub106
two-step-fixation,90,404787,0.0-61.0-2.9,TRUE,FALSE,FALSE,FALSE,"""event"",""trial"",""time""
""fullscreenenter"",""5"",""13897""
","
","
","""event"",""trial"",""time""
""fullscreenenter"",""5"",""13897""
","
",NA,images/earth.jpg,NA,NA,NA,NA,NA,NA,NA,NA,NA,NA,NA,NA,NA,fixation,NA,NA,NA,NA,NA,NA,sub106
d3-animate-choice,91,407137,0.0-61.0-0.10,TRUE,FALSE,FALSE,FALSE,"""event"",""trial"",""time""
""fullscreenenter"",""5"",""13897""
","
","
","""event"",""trial"",""time""
""fullscreenenter"",""5"",""13897""
","
",348.0050000362098,NA,49,NA,NA,3000,1,NA,NA,images/earth.jpg,images/tutrocket1,images/tutrocket2,null,images/tutrocket2,NA,1,practice,null,1,NA,NA,NA,sub106
d3-animate-choice,92,409857,0.0-61.0-1.10,TRUE,FALSE,FALSE,FALSE,"""event"",""trial"",""time""
""fullscreenenter"",""5"",""13897""
","
","
","""event"",""trial"",""time""
""fullscreenenter"",""5"",""13897""
","
",716.8049999745563,NA,48,NA,NA,3000,1,NA,NA,images/tutyellowplanet.jpg,images/tutalien4,images/tutalien3,images/tutrocket2,images/tutalien4,images/nothing.png,2,practice,false,2,rare,0,2020-06-20T18:07:09Z,sub106
two-step-fixation,93,410860,0.0-61.0-2.10,TRUE,FALSE,FALSE,FALSE,"""event"",""trial"",""time""
""fullscreenenter"",""5"",""13897""
","
","
","""event"",""trial"",""time""
""fullscreenenter"",""5"",""13897""
","
",NA,images/earth.jpg,NA,NA,NA,NA,NA,NA,NA,NA,NA,NA,NA,NA,NA,fixation,NA,NA,NA,NA,NA,NA,sub106
d3-animate-choice,94,412999,0.0-61.0-0.11,TRUE,FALSE,FALSE,FALSE,"""event"",""trial"",""time""
""fullscreenenter"",""5"",""13897""
","
","
","""event"",""trial"",""time""
""fullscreenenter"",""5"",""13897""
","
",135.75000001583248,NA,49,NA,NA,3000,1,NA,NA,images/earth.jpg,images/tutrocket1,images/tutrocket2,null,images/tutrocket2,NA,1,practice,null,1,NA,NA,NA,sub106
d3-animate-choice,95,415067,0.0-61.0-1.11,TRUE,FALSE,FALSE,FALSE,"""event"",""trial"",""time""
""fullscreenenter"",""5"",""13897""
","
","
","""event"",""trial"",""time""
""fullscreenenter"",""5"",""13897""
","
",64.84000000637025,NA,49,NA,NA,3000,1,1833.0599999753758,49,images/tutgreenplanet.jpg,images/tutalien2,images/tutalien1,images/tutrocket2,images/tutalien1,images/nothing.png,2,practice,true,1,common,0,2020-06-20T18:07:14Z,sub106
two-step-fixation,96,416070,0.0-61.0-2.11,TRUE,FALSE,FALSE,FALSE,"""event"",""trial"",""time""
""fullscreenenter"",""5"",""13897""
","
","
","""event"",""trial"",""time""
""fullscreenenter"",""5"",""13897""
","
",NA,images/earth.jpg,NA,NA,NA,NA,NA,NA,NA,NA,NA,NA,NA,NA,NA,fixation,NA,NA,NA,NA,NA,NA,sub106
d3-animate-choice,97,419140,0.0-61.0-0.12,TRUE,FALSE,FALSE,FALSE,"""event"",""trial"",""time""
""fullscreenenter"",""5"",""13897""
","
","
","""event"",""trial"",""time""
""fullscreenenter"",""5"",""13897""
","
",1066.0500000230968,NA,49,NA,NA,3000,1,2816.285000066273,49,images/earth.jpg,images/tutrocket1,images/tutrocket2,null,images/tutrocket2,NA,1,practice,null,1,NA,NA,NA,sub106
d3-animate-choice,98,421681,0.0-61.0-1.12,TRUE,FALSE,FALSE,FALSE,"""event"",""trial"",""time""
""fullscreenenter"",""5"",""13897""
","
","
","""event"",""trial"",""time""
""fullscreenenter"",""5"",""13897""
","
",537.9700000630692,NA,49,NA,NA,3000,1,NA,NA,images/tutgreenplanet.jpg,images/tutalien2,images/tutalien1,images/tutrocket2,images/tutalien1,images/nothing.png,2,practice,true,1,common,0,2020-06-20T18:07:21Z,sub106
two-step-fixation,99,422684,0.0-61.0-2.12,TRUE,FALSE,FALSE,FALSE,"""event"",""trial"",""time""
""fullscreenenter"",""5"",""13897""
","
","
","""event"",""trial"",""time""
""fullscreenenter"",""5"",""13897""
","
",NA,images/earth.jpg,NA,NA,NA,NA,NA,NA,NA,NA,NA,NA,NA,NA,NA,fixation,NA,NA,NA,NA,NA,NA,sub106
d3-animate-choice,100,424789,0.0-61.0-0.13,TRUE,FALSE,FALSE,FALSE,"""event"",""trial"",""time""
""fullscreenenter"",""5"",""13897""
","
","
","""event"",""trial"",""time""
""fullscreenenter"",""5"",""13897""
","
",101.11499996855855,NA,49,NA,NA,3000,1,NA,NA,images/earth.jpg,images/tutrocket1,images/tutrocket2,null,images/tutrocket2,NA,1,practice,null,1,NA,NA,NA,sub106
d3-animate-choice,101,426922,0.0-61.0-1.13,TRUE,FALSE,FALSE,FALSE,"""event"",""trial"",""time""
""fullscreenenter"",""5"",""13897""
","
","
","""event"",""trial"",""time""
""fullscreenenter"",""5"",""13897""
","
",129.7550000017509,NA,49,NA,NA,3000,1,NA,NA,images/tutgreenplanet.jpg,images/tutalien2,images/tutalien1,images/tutrocket2,images/tutalien1,images/t.png,2,practice,true,1,common,1,2020-06-20T18:07:26Z,sub106
two-step-fixation,102,427925,0.0-61.0-2.13,TRUE,FALSE,FALSE,FALSE,"""event"",""trial"",""time""
""fullscreenenter"",""5"",""13897""
","
","
","""event"",""trial"",""time""
""fullscreenenter"",""5"",""13897""
","
",NA,images/earth.jpg,NA,NA,NA,NA,NA,NA,NA,NA,NA,NA,NA,NA,NA,fixation,NA,NA,NA,NA,NA,NA,sub106
d3-animate-choice,103,430274,0.0-61.0-0.14,TRUE,FALSE,FALSE,FALSE,"""event"",""trial"",""time""
""fullscreenenter"",""5"",""13897""
","
","
","""event"",""trial"",""time""
""fullscreenenter"",""5"",""13897""
","
",344.5449999999255,NA,48,NA,NA,3000,1,NA,NA,images/earth.jpg,images/tutrocket1,images/tutrocket2,null,images/tutrocket1,NA,1,practice,null,2,NA,NA,NA,sub106
d3-animate-choice,104,432864,0.0-61.0-1.14,TRUE,FALSE,FALSE,FALSE,"""event"",""trial"",""time""
""fullscreenenter"",""5"",""13897""
","
","
","""event"",""trial"",""time""
""fullscreenenter"",""5"",""13897""
","
",587.3600000049919,NA,49,NA,NA,3000,1,2491.1599999759346,49,images/tutgreenplanet.jpg,images/tutalien2,images/tutalien1,images/tutrocket1,images/tutalien1,images/t.png,2,practice,false,1,rare,1,2020-06-20T18:07:32Z,sub106
two-step-fixation,105,433867,0.0-61.0-2.14,TRUE,FALSE,FALSE,FALSE,"""event"",""trial"",""time""
""fullscreenenter"",""5"",""13897""
","
","
","""event"",""trial"",""time""
""fullscreenenter"",""5"",""13897""
","
",NA,images/earth.jpg,NA,NA,NA,NA,NA,NA,NA,NA,NA,NA,NA,NA,NA,fixation,NA,NA,NA,NA,NA,NA,sub106
d3-animate-choice,106,436962,0.0-61.0-0.15,TRUE,FALSE,FALSE,FALSE,"""event"",""trial"",""time""
""fullscreenenter"",""5"",""13897""
","
","
","""event"",""trial"",""time""
""fullscreenenter"",""5"",""13897""
","
",1092.1000000089407,NA,49,NA,NA,3000,1,2361.1350000137463,49,images/earth.jpg,images/tutrocket1,images/tutrocket2,null,images/tutrocket2,NA,1,practice,null,1,NA,NA,NA,sub106
d3-animate-choice,107,439852,0.0-61.0-1.15,TRUE,FALSE,FALSE,FALSE,"""event"",""trial"",""time""
""fullscreenenter"",""5"",""13897""
","
","
","""event"",""trial"",""time""
""fullscreenenter"",""5"",""13897""
","
",886.0949999652803,NA,49,NA,NA,3000,1,2791.5999999968335,49,images/tutgreenplanet.jpg,images/tutalien2,images/tutalien1,images/tutrocket2,images/tutalien1,images/nothing.png,2,practice,true,1,common,0,2020-06-20T18:07:39Z,sub106
two-step-fixation,108,440855,0.0-61.0-2.15,TRUE,FALSE,FALSE,FALSE,"""event"",""trial"",""time""
""fullscreenenter"",""5"",""13897""
","
","
","""event"",""trial"",""time""
""fullscreenenter"",""5"",""13897""
","
",NA,images/earth.jpg,NA,NA,NA,NA,NA,NA,NA,NA,NA,NA,NA,NA,NA,fixation,NA,NA,NA,NA,NA,NA,sub106
d3-animate-choice,109,443574,0.0-61.0-0.16,TRUE,FALSE,FALSE,FALSE,"""event"",""trial"",""time""
""fullscreenenter"",""5"",""13897""
","
","
","""event"",""trial"",""time""
""fullscreenenter"",""5"",""13897""
","
",716.6150000412017,NA,49,NA,NA,3000,1,2550.595000036992,49,images/earth.jpg,images/tutrocket1,images/tutrocket2,null,images/tutrocket2,NA,1,practice,null,1,NA,NA,NA,sub106
d3-animate-choice,110,447152,0.0-61.0-1.16,TRUE,FALSE,FALSE,FALSE,"""event"",""trial"",""time""
""fullscreenenter"",""5"",""13897""
","
","
","""event"",""trial"",""time""
""fullscreenenter"",""5"",""13897""
","
",1574.3599999696016,NA,49,NA,NA,3000,1,NA,NA,images/tutyellowplanet.jpg,images/tutalien4,images/tutalien3,images/tutrocket2,images/tutalien3,images/t.png,2,practice,false,1,rare,1,2020-06-20T18:07:46Z,sub106
two-step-fixation,111,448156,0.0-61.0-2.16,TRUE,FALSE,FALSE,FALSE,"""event"",""trial"",""time""
""fullscreenenter"",""5"",""13897""
","
","
","""event"",""trial"",""time""
""fullscreenenter"",""5"",""13897""
","
",NA,images/earth.jpg,NA,NA,NA,NA,NA,NA,NA,NA,NA,NA,NA,NA,NA,fixation,NA,NA,NA,NA,NA,NA,sub106
d3-animate-choice,112,452160,0.0-61.0-0.17,TRUE,FALSE,FALSE,FALSE,"""event"",""trial"",""time""
""fullscreenenter"",""5"",""13897""
","
","
","""event"",""trial"",""time""
""fullscreenenter"",""5"",""13897""
","
",2033.7499999441206,NA,50,NA,NA,3000,1,"2805.5949999252334,3407.884999993257",5049,images/earth.jpg,images/tutrocket1,images/tutrocket2,null,images/tutrocket2,NA,1,practice,null,NA,NA,NA,NA,sub106
d3-animate-choice,113,455872,0.0-61.0-1.17,TRUE,FALSE,FALSE,FALSE,"""event"",""trial"",""time""
""fullscreenenter"",""5"",""13897""
","
","
","""event"",""trial"",""time""
""fullscreenenter"",""5"",""13897""
","
",1708.574999938719,NA,49,NA,NA,3000,1,NA,NA,images/tutgreenplanet.jpg,images/tutalien2,images/tutalien1,images/tutrocket2,images/tutalien1,images/t.png,2,practice,true,1,common,1,2020-06-20T18:07:55Z,sub106
two-step-fixation,114,456875,0.0-61.0-2.17,TRUE,FALSE,FALSE,FALSE,"""event"",""trial"",""time""
""fullscreenenter"",""5"",""13897""
","
","
","""event"",""trial"",""time""
""fullscreenenter"",""5"",""13897""
","
",NA,images/earth.jpg,NA,NA,NA,NA,NA,NA,NA,NA,NA,NA,NA,NA,NA,fixation,NA,NA,NA,NA,NA,NA,sub106
d3-animate-choice,115,459317,0.0-61.0-0.18,TRUE,FALSE,FALSE,FALSE,"""event"",""trial"",""time""
""fullscreenenter"",""5"",""13897""
","
","
","""event"",""trial"",""time""
""fullscreenenter"",""5"",""13897""
","
",439.58000000566244,NA,49,NA,NA,3000,1,NA,NA,images/earth.jpg,images/tutrocket1,images/tutrocket2,null,images/tutrocket2,NA,1,practice,null,1,NA,NA,NA,sub106
d3-animate-choice,116,461961,0.0-61.0-1.18,TRUE,FALSE,FALSE,FALSE,"""event"",""trial"",""time""
""fullscreenenter"",""5"",""13897""
","
","
","""event"",""trial"",""time""
""fullscreenenter"",""5"",""13897""
","
",640.4350000666454,NA,49,NA,NA,3000,1,2641.3050000555813,49,images/tutyellowplanet.jpg,images/tutalien4,images/tutalien3,images/tutrocket2,images/tutalien3,images/nothing.png,2,practice,false,1,rare,0,2020-06-20T18:08:01Z,sub106
two-step-fixation,117,462964,0.0-61.0-2.18,TRUE,FALSE,FALSE,FALSE,"""event"",""trial"",""time""
""fullscreenenter"",""5"",""13897""
","
","
","""event"",""trial"",""time""
""fullscreenenter"",""5"",""13897""
","
",NA,images/earth.jpg,NA,NA,NA,NA,NA,NA,NA,NA,NA,NA,NA,NA,NA,fixation,NA,NA,NA,NA,NA,NA,sub106
d3-animate-choice,118,466967,0.0-61.0-0.19,TRUE,FALSE,FALSE,FALSE,"""event"",""trial"",""time""
""fullscreenenter"",""5"",""13897""
","
","
","""event"",""trial"",""time""
""fullscreenenter"",""5"",""13897""
","
",2966.4600000251085,NA,49,NA,NA,3000,1,NA,NA,images/earth.jpg,images/tutrocket1,images/tutrocket2,null,images/tutrocket2,NA,1,practice,null,1,NA,NA,NA,sub106
d3-animate-choice,119,469073,0.0-61.0-1.19,TRUE,FALSE,FALSE,FALSE,"""event"",""trial"",""time""
""fullscreenenter"",""5"",""13897""
","
","
","""event"",""trial"",""time""
""fullscreenenter"",""5"",""13897""
","
",102.58000006433576,NA,49,NA,NA,3000,1,1588.2550000678748,49,images/tutgreenplanet.jpg,images/tutalien2,images/tutalien1,images/tutrocket2,images/tutalien1,images/nothing.png,2,practice,true,1,common,0,2020-06-20T18:08:08Z,sub106
two-step-fixation,120,470076,0.0-61.0-2.19,TRUE,FALSE,FALSE,FALSE,"""event"",""trial"",""time""
""fullscreenenter"",""5"",""13897""
","
","
","""event"",""trial"",""time""
""fullscreenenter"",""5"",""13897""
","
",NA,images/earth.jpg,NA,NA,NA,NA,NA,NA,NA,NA,NA,NA,NA,NA,NA,fixation,NA,NA,NA,NA,NA,NA,sub106
d3-instructions,121,476023,0.0-62.0,TRUE,FALSE,FALSE,FALSE,"""event"",""trial"",""time""
""fullscreenenter"",""5"",""13897""
","
","
","""event"",""trial"",""time""
""fullscreenenter"",""5"",""13897""
","
",NA,NA,NA,NA,NA,NA,NA,NA,NA,NA,NA,NA,NA,NA,NA,NA,NA,NA,NA,NA,NA,NA,sub106
audio-keyboard-response,122,478530,0.0-63.0,TRUE,FALSE,FALSE,FALSE,"""event"",""trial"",""time""
""fullscreenenter"",""5"",""13897""
","
","
","""event"",""trial"",""time""
""fullscreenenter"",""5"",""13897""
","
",2509,audio/instructions/treasure_feedback.wav,32,NA,NA,NA,NA,NA,NA,NA,NA,NA,NA,NA,NA,NA,NA,NA,NA,NA,NA,NA,sub106
d3-instructions,123,482274,0.0-64.0,TRUE,FALSE,FALSE,FALSE,"""event"",""trial"",""time""
""fullscreenenter"",""5"",""13897""
","
","
","""event"",""trial"",""time""
""fullscreenenter"",""5"",""13897""
","
",NA,NA,NA,NA,NA,NA,NA,NA,NA,NA,NA,NA,NA,NA,NA,NA,NA,NA,NA,NA,NA,NA,sub106
d3-instructions,124,486770,0.0-65.0,TRUE,FALSE,FALSE,FALSE,"""event"",""trial"",""time""
""fullscreenenter"",""5"",""13897""
","
","
","""event"",""trial"",""time""
""fullscreenenter"",""5"",""13897""
","
",NA,NA,NA,NA,NA,NA,NA,NA,NA,NA,NA,NA,NA,NA,NA,NA,NA,NA,NA,NA,NA,NA,sub106
d3-instructions,125,488495,0.0-66.0,TRUE,FALSE,FALSE,FALSE,"""event"",""trial"",""time""
""fullscreenenter"",""5"",""13897""
","
","
","""event"",""trial"",""time""
""fullscreenenter"",""5"",""13897""
","
",NA,NA,NA,NA,NA,NA,NA,NA,NA,NA,NA,NA,NA,NA,NA,NA,NA,NA,NA,NA,NA,NA,sub106
d3-instructions,126,489770,0.0-67.0,TRUE,FALSE,FALSE,FALSE,"""event"",""trial"",""time""
""fullscreenenter"",""5"",""13897""
","
","
","""event"",""trial"",""time""
""fullscreenenter"",""5"",""13897""
","
",NA,NA,NA,NA,NA,NA,NA,NA,NA,NA,NA,NA,NA,NA,NA,NA,NA,NA,NA,NA,NA,NA,sub106
d3-instructions,127,493316,0.0-68.0,TRUE,FALSE,FALSE,FALSE,"""event"",""trial"",""time""
""fullscreenenter"",""5"",""13897""
","
","
","""event"",""trial"",""time""
""fullscreenenter"",""5"",""13897""
","
",NA,NA,NA,NA,NA,NA,NA,NA,NA,NA,NA,NA,NA,NA,NA,NA,NA,NA,NA,NA,NA,NA,sub106
instructions-quiz,128,498067,0.0-69.0,TRUE,FALSE,FALSE,FALSE,"""event"",""trial"",""time""
""fullscreenenter"",""5"",""13897""
","
","
","""event"",""trial"",""time""
""fullscreenenter"",""5"",""13897""
","
",4749.029999948107,audio/quiz/Q1_Prompt.wav,NA,0,NA,NA,NA,NA,NA,NA,NA,NA,NA,NA,NA,NA,NA,NA,NA,NA,NA,NA,sub106
audio-keyboard-response,129,506649,0.0-70.0,TRUE,FALSE,FALSE,FALSE,"""event"",""trial"",""time""
""fullscreenenter"",""5"",""13897""
","
","
","""event"",""trial"",""time""
""fullscreenenter"",""5"",""13897""
","
",8579,audio/quiz/Q1_Incorrect.wav,32,NA,NA,NA,NA,NA,NA,NA,NA,NA,NA,NA,NA,NA,NA,NA,NA,NA,NA,NA,sub106
instructions-quiz,130,511909,0.0-71.0,TRUE,FALSE,FALSE,FALSE,"""event"",""trial"",""time""
""fullscreenenter"",""5"",""13897""
","
","
","""event"",""trial"",""time""
""fullscreenenter"",""5"",""13897""
","
",5258.645000052638,audio/quiz/Q2_Prompt.wav,NA,1,NA,NA,NA,NA,NA,NA,NA,NA,NA,NA,NA,NA,NA,NA,NA,NA,NA,NA,sub106
audio-keyboard-response,131,517429,0.0-72.0,TRUE,FALSE,FALSE,FALSE,"""event"",""trial"",""time""
""fullscreenenter"",""5"",""13897""
","
","
","""event"",""trial"",""time""
""fullscreenenter"",""5"",""13897""
","
",5520,audio/quiz/Q2_Incorrect.wav,32,NA,NA,NA,NA,NA,NA,NA,NA,NA,NA,NA,NA,NA,NA,NA,NA,NA,NA,NA,sub106
instructions-quiz,132,519695,0.0-73.0,TRUE,FALSE,FALSE,FALSE,"""event"",""trial"",""time""
""fullscreenenter"",""5"",""13897""
","
","
","""event"",""trial"",""time""
""fullscreenenter"",""5"",""13897""
","
",2264.8300000000745,audio/quiz/Q3_Prompt.wav,NA,1,NA,NA,NA,NA,NA,NA,NA,NA,NA,NA,NA,NA,NA,NA,NA,NA,NA,NA,sub106
audio-keyboard-response,133,521303,0.0-74.0,TRUE,FALSE,FALSE,FALSE,"""event"",""trial"",""time""
""fullscreenenter"",""5"",""13897""
","
","
","""event"",""trial"",""time""
""fullscreenenter"",""5"",""13897""
","
",1600,audio/quiz/Q3_Correct.wav,32,NA,NA,NA,NA,NA,NA,NA,NA,NA,NA,NA,NA,NA,NA,NA,NA,NA,NA,NA,sub106
d3-instructions,134,524987,0.0-75.0,TRUE,FALSE,FALSE,FALSE,"""event"",""trial"",""time""
""fullscreenenter"",""5"",""13897""
","
","
","""event"",""trial"",""time""
""fullscreenenter"",""5"",""13897""
","
",NA,NA,NA,NA,NA,NA,NA,NA,NA,NA,NA,NA,NA,NA,NA,NA,NA,NA,NA,NA,NA,NA,sub106
d3-animate-choice,135,528333,0.0-76.0-0.0,TRUE,FALSE,FALSE,FALSE,"""event"",""trial"",""time""
""fullscreenenter"",""5"",""13897""
","
","
","""event"",""trial"",""time""
""fullscreenenter"",""5"",""13897""
","
",1342.270000022836,NA,49,NA,NA,3000,1,NA,NA,images/earth.jpg,images/rocket2,images/rocket1,null,images/rocket1,NA,1,real,null,1,NA,NA,NA,sub106
d3-animate-choice,136,531208,0.0-76.0-1.0,TRUE,FALSE,FALSE,FALSE,"""event"",""trial"",""time""
""fullscreenenter"",""5"",""13897""
","
","
","""event"",""trial"",""time""
""fullscreenenter"",""5"",""13897""
","
",871.0299999220297,NA,49,NA,NA,3000,1,NA,NA,images/redplanet1.jpg,images/alien2,images/alien1,images/rocket1,images/alien1,images/t.png,2,real,false,1,rare,1,2020-06-20T18:09:10Z,sub106
two-step-fixation,137,532211,0.0-76.0-2.0,TRUE,FALSE,FALSE,FALSE,"""event"",""trial"",""time""
""fullscreenenter"",""5"",""13897""
","
","
","""event"",""trial"",""time""
""fullscreenenter"",""5"",""13897""
","
",NA,images/earth.jpg,NA,NA,NA,NA,NA,NA,NA,NA,NA,NA,NA,NA,NA,fixation,NA,NA,NA,NA,NA,NA,sub106
d3-animate-choice,138,535053,0.0-76.0-0.1,TRUE,FALSE,FALSE,FALSE,"""event"",""trial"",""time""
""fullscreenenter"",""5"",""13897""
","
","
","""event"",""trial"",""time""
""fullscreenenter"",""5"",""13897""
","
",838.539999909699,NA,48,NA,NA,3000,1,2783.729999908246,49,images/earth.jpg,images/rocket2,images/rocket1,null,images/rocket2,NA,1,real,null,2,NA,NA,NA,sub106
d3-animate-choice,139,537756,0.0-76.0-1.1,TRUE,FALSE,FALSE,FALSE,"""event"",""trial"",""time""
""fullscreenenter"",""5"",""13897""
","
","
","""event"",""trial"",""time""
""fullscreenenter"",""5"",""13897""
","
",698.1300000334159,NA,49,NA,NA,3000,1,2442.2900000354275,49,images/redplanet1.jpg,images/alien2,images/alien1,images/rocket2,images/alien1,images/t.png,2,real,true,1,common,1,2020-06-20T18:09:17Z,sub106
two-step-fixation,140,538759,0.0-76.0-2.1,TRUE,FALSE,FALSE,FALSE,"""event"",""trial"",""time""
""fullscreenenter"",""5"",""13897""
","
","
","""event"",""trial"",""time""
""fullscreenenter"",""5"",""13897""
","
",NA,images/earth.jpg,NA,NA,NA,NA,NA,NA,NA,NA,NA,NA,NA,NA,NA,fixation,NA,NA,NA,NA,NA,NA,sub106
d3-animate-choice,141,540994,0.0-76.0-0.2,TRUE,FALSE,FALSE,FALSE,"""event"",""trial"",""time""
""fullscreenenter"",""5"",""13897""
","
","
","""event"",""trial"",""time""
""fullscreenenter"",""5"",""13897""
","
",231.82500002440065,NA,49,NA,NA,3000,1,NA,NA,images/earth.jpg,images/rocket2,images/rocket1,null,images/rocket1,NA,1,real,null,1,NA,NA,NA,sub106
d3-animate-choice,142,543534,0.0-76.0-1.2,TRUE,FALSE,FALSE,FALSE,"""event"",""trial"",""time""
""fullscreenenter"",""5"",""13897""
","
","
","""event"",""trial"",""time""
""fullscreenenter"",""5"",""13897""
","
",536.5649999585003,NA,48,NA,NA,3000,1,NA,NA,images/purpleplanet.jpg,images/alien4,images/alien3,images/rocket1,images/alien4,images/nothing.png,2,real,true,2,common,0,2020-06-20T18:09:23Z,sub106
two-step-fixation,143,544545,0.0-76.0-2.2,TRUE,FALSE,FALSE,FALSE,"""event"",""trial"",""time""
""fullscreenenter"",""5"",""13897""
","
","
","""event"",""trial"",""time""
""fullscreenenter"",""5"",""13897""
","
",NA,images/earth.jpg,NA,NA,NA,NA,NA,NA,NA,NA,NA,NA,NA,NA,NA,fixation,NA,NA,NA,NA,NA,NA,sub106
d3-animate-choice,144,547537,0.0-76.0-0.3,TRUE,FALSE,FALSE,FALSE,"""event"",""trial"",""time""
""fullscreenenter"",""5"",""13897""
","
","
","""event"",""trial"",""time""
""fullscreenenter"",""5"",""13897""
","
",988.6549999937415,NA,49,NA,NA,3000,1,1938.3449999149889,49,images/earth.jpg,images/rocket2,images/rocket1,null,images/rocket1,NA,1,real,null,1,NA,NA,NA,sub106
d3-animate-choice,145,550553,0.0-76.0-1.3,TRUE,FALSE,FALSE,FALSE,"""event"",""trial"",""time""
""fullscreenenter"",""5"",""13897""
","
","
","""event"",""trial"",""time""
""fullscreenenter"",""5"",""13897""
","
",1012.0749999769032,NA,49,NA,NA,3000,1,NA,NA,images/redplanet1.jpg,images/alien2,images/alien1,images/rocket1,images/alien1,images/nothing.png,2,real,false,1,rare,0,2020-06-20T18:09:30Z,sub106
two-step-fixation,146,551556,0.0-76.0-2.3,TRUE,FALSE,FALSE,FALSE,"""event"",""trial"",""time""
""fullscreenenter"",""5"",""13897""
","
","
","""event"",""trial"",""time""
""fullscreenenter"",""5"",""13897""
","
",NA,images/earth.jpg,NA,NA,NA,NA,NA,NA,NA,NA,NA,NA,NA,NA,NA,fixation,NA,NA,NA,NA,NA,NA,sub106
d3-animate-choice,147,554515,0.0-76.0-0.4,TRUE,FALSE,FALSE,FALSE,"""event"",""trial"",""time""
""fullscreenenter"",""5"",""13897""
","
","
","""event"",""trial"",""time""
""fullscreenenter"",""5"",""13897""
","
",952.3749999934807,NA,49,NA,NA,3000,1,NA,NA,images/earth.jpg,images/rocket2,images/rocket1,null,images/rocket1,NA,1,real,null,1,NA,NA,NA,sub106
d3-animate-choice,148,557051,0.0-76.0-1.4,TRUE,FALSE,FALSE,FALSE,"""event"",""trial"",""time""
""fullscreenenter"",""5"",""13897""
","
","
","""event"",""trial"",""time""
""fullscreenenter"",""5"",""13897""
","
",532.3750000679865,NA,49,NA,NA,3000,1,NA,NA,images/redplanet1.jpg,images/alien2,images/alien1,images/rocket1,images/alien1,images/nothing.png,2,real,false,1,rare,0,2020-06-20T18:09:36Z,sub106
two-step-fixation,149,558054,0.0-76.0-2.4,TRUE,FALSE,FALSE,FALSE,"""event"",""trial"",""time""
""fullscreenenter"",""5"",""13897""
","
","
","""event"",""trial"",""time""
""fullscreenenter"",""5"",""13897""
","
",NA,images/earth.jpg,NA,NA,NA,NA,NA,NA,NA,NA,NA,NA,NA,NA,NA,fixation,NA,NA,NA,NA,NA,NA,sub106
d3-animate-choice,150,561206,0.0-76.0-0.5,TRUE,FALSE,FALSE,FALSE,"""event"",""trial"",""time""
""fullscreenenter"",""5"",""13897""
","
","
","""event"",""trial"",""time""
""fullscreenenter"",""5"",""13897""
","
",1148.5850000753999,NA,49,NA,NA,3000,1,NA,NA,images/earth.jpg,images/rocket2,images/rocket1,null,images/rocket1,NA,1,real,null,1,NA,NA,NA,sub106
d3-animate-choice,151,564283,0.0-76.0-1.5,TRUE,FALSE,FALSE,FALSE,"""event"",""trial"",""time""
""fullscreenenter"",""5"",""13897""
","
","
","""event"",""trial"",""time""
""fullscreenenter"",""5"",""13897""
","
",1073.534999974072,NA,48,NA,NA,3000,1,NA,NA,images/redplanet1.jpg,images/alien2,images/alien1,images/rocket1,images/alien2,images/t.png,2,real,false,2,rare,1,2020-06-20T18:09:43Z,sub106
two-step-fixation,152,565287,0.0-76.0-2.5,TRUE,FALSE,FALSE,FALSE,"""event"",""trial"",""time""
""fullscreenenter"",""5"",""13897""
","
","
","""event"",""trial"",""time""
""fullscreenenter"",""5"",""13897""
","
",NA,images/earth.jpg,NA,NA,NA,NA,NA,NA,NA,NA,NA,NA,NA,NA,NA,fixation,NA,NA,NA,NA,NA,NA,sub106
d3-animate-choice,153,568234,0.0-76.0-0.6,TRUE,FALSE,FALSE,FALSE,"""event"",""trial"",""time""
""fullscreenenter"",""5"",""13897""
","
","
","""event"",""trial"",""time""
""fullscreenenter"",""5"",""13897""
","
",944.1250000381842,NA,48,NA,NA,3000,1,NA,NA,images/earth.jpg,images/rocket2,images/rocket1,null,images/rocket2,NA,1,real,null,2,NA,NA,NA,sub106
d3-animate-choice,154,571221,0.0-76.0-1.6,TRUE,FALSE,FALSE,FALSE,"""event"",""trial"",""time""
""fullscreenenter"",""5"",""13897""
","
","
","""event"",""trial"",""time""
""fullscreenenter"",""5"",""13897""
","
",984.1749999905005,NA,49,NA,NA,3000,1,NA,NA,images/redplanet1.jpg,images/alien2,images/alien1,images/rocket2,images/alien1,images/nothing.png,2,real,true,1,common,0,2020-06-20T18:09:50Z,sub106
two-step-fixation,155,572224,0.0-76.0-2.6,TRUE,FALSE,FALSE,FALSE,"""event"",""trial"",""time""
""fullscreenenter"",""5"",""13897""
","
","
","""event"",""trial"",""time""
""fullscreenenter"",""5"",""13897""
","
",NA,images/earth.jpg,NA,NA,NA,NA,NA,NA,NA,NA,NA,NA,NA,NA,NA,fixation,NA,NA,NA,NA,NA,NA,sub106
d3-animate-choice,156,574285,0.0-76.0-0.7,TRUE,FALSE,FALSE,FALSE,"""event"",""trial"",""time""
""fullscreenenter"",""5"",""13897""
","
","
","""event"",""trial"",""time""
""fullscreenenter"",""5"",""13897""
","
",57.874999940395355,NA,49,NA,NA,3000,1,NA,NA,images/earth.jpg,images/rocket2,images/rocket1,null,images/rocket1,NA,1,real,null,1,NA,NA,NA,sub106
d3-animate-choice,157,577517,0.0-76.0-1.7,TRUE,FALSE,FALSE,FALSE,"""event"",""trial"",""time""
""fullscreenenter"",""5"",""13897""
","
","
","""event"",""trial"",""time""
""fullscreenenter"",""5"",""13897""
","
",1229.0050000883639,NA,49,NA,NA,3000,1,NA,NA,images/redplanet1.jpg,images/alien2,images/alien1,images/rocket1,images/alien1,images/nothing.png,2,real,false,1,rare,0,2020-06-20T18:09:57Z,sub106
two-step-fixation,158,578519,0.0-76.0-2.7,TRUE,FALSE,FALSE,FALSE,"""event"",""trial"",""time""
""fullscreenenter"",""5"",""13897""
","
","
","""event"",""trial"",""time""
""fullscreenenter"",""5"",""13897""
","
",NA,images/earth.jpg,NA,NA,NA,NA,NA,NA,NA,NA,NA,NA,NA,NA,NA,fixation,NA,NA,NA,NA,NA,NA,sub106
d3-animate-choice,159,581271,0.0-76.0-0.8,TRUE,FALSE,FALSE,FALSE,"""event"",""trial"",""time""
""fullscreenenter"",""5"",""13897""
","
","
","""event"",""trial"",""time""
""fullscreenenter"",""5"",""13897""
","
",746.9599999021739,NA,48,NA,NA,3000,1,NA,NA,images/earth.jpg,images/rocket2,images/rocket1,null,images/rocket2,NA,1,real,null,2,NA,NA,NA,sub106
d3-animate-choice,160,584188,0.0-76.0-1.8,TRUE,FALSE,FALSE,FALSE,"""event"",""trial"",""time""
""fullscreenenter"",""5"",""13897""
","
","
","""event"",""trial"",""time""
""fullscreenenter"",""5"",""13897""
","
",913.9499999582767,NA,49,NA,NA,3000,1,NA,NA,images/purpleplanet.jpg,images/alien4,images/alien3,images/rocket2,images/alien3,images/t.png,2,real,false,1,rare,1,2020-06-20T18:10:03Z,sub106
two-step-fixation,161,585192,0.0-76.0-2.8,TRUE,FALSE,FALSE,FALSE,"""event"",""trial"",""time""
""fullscreenenter"",""5"",""13897""
","
","
","""event"",""trial"",""time""
""fullscreenenter"",""5"",""13897""
","
",NA,images/earth.jpg,NA,NA,NA,NA,NA,NA,NA,NA,NA,NA,NA,NA,NA,fixation,NA,NA,NA,NA,NA,NA,sub106
d3-animate-choice,162,588168,0.0-76.0-0.9,TRUE,FALSE,FALSE,FALSE,"""event"",""trial"",""time""
""fullscreenenter"",""5"",""13897""
","
","
","""event"",""trial"",""time""
""fullscreenenter"",""5"",""13897""
","
",973.3799999812618,NA,48,NA,NA,3000,1,NA,NA,images/earth.jpg,images/rocket2,images/rocket1,null,images/rocket2,NA,1,real,null,2,NA,NA,NA,sub106
d3-animate-choice,163,591458,0.0-76.0-1.9,TRUE,FALSE,FALSE,FALSE,"""event"",""trial"",""time""
""fullscreenenter"",""5"",""13897""
","
","
","""event"",""trial"",""time""
""fullscreenenter"",""5"",""13897""
","
",1286.4599999738857,NA,49,NA,NA,3000,1,NA,NA,images/redplanet1.jpg,images/alien2,images/alien1,images/rocket2,images/alien1,images/nothing.png,2,real,true,1,common,0,2020-06-20T18:10:11Z,sub106
two-step-fixation,164,592461,0.0-76.0-2.9,TRUE,FALSE,FALSE,FALSE,"""event"",""trial"",""time""
""fullscreenenter"",""5"",""13897""
","
","
","""event"",""trial"",""time""
""fullscreenenter"",""5"",""13897""
","
",NA,images/earth.jpg,NA,NA,NA,NA,NA,NA,NA,NA,NA,NA,NA,NA,NA,fixation,NA,NA,NA,NA,NA,NA,sub106
d3-animate-choice,165,595151,0.0-76.0-0.10,TRUE,FALSE,FALSE,FALSE,"""event"",""trial"",""time""
""fullscreenenter"",""5"",""13897""
","
","
","""event"",""trial"",""time""
""fullscreenenter"",""5"",""13897""
","
",686.2749999854714,NA,49,NA,NA,3000,1,NA,NA,images/earth.jpg,images/rocket2,images/rocket1,null,images/rocket1,NA,1,real,null,1,NA,NA,NA,sub106
d3-animate-choice,166,597994,0.0-76.0-1.10,TRUE,FALSE,FALSE,FALSE,"""event"",""trial"",""time""
""fullscreenenter"",""5"",""13897""
","
","
","""event"",""trial"",""time""
""fullscreenenter"",""5"",""13897""
","
",837.1150000020862,NA,49,NA,NA,3000,1,NA,NA,images/purpleplanet.jpg,images/alien4,images/alien3,images/rocket1,images/alien3,images/nothing.png,2,real,true,1,common,0,2020-06-20T18:10:17Z,sub106
two-step-fixation,167,598996,0.0-76.0-2.10,TRUE,FALSE,FALSE,FALSE,"""event"",""trial"",""time""
""fullscreenenter"",""5"",""13897""
","
","
","""event"",""trial"",""time""
""fullscreenenter"",""5"",""13897""
","
",NA,images/earth.jpg,NA,NA,NA,NA,NA,NA,NA,NA,NA,NA,NA,NA,NA,fixation,NA,NA,NA,NA,NA,NA,sub106
d3-animate-choice,168,601805,0.0-76.0-0.11,TRUE,FALSE,FALSE,FALSE,"""event"",""trial"",""time""
""fullscreenenter"",""5"",""13897""
","
","
","""event"",""trial"",""time""
""fullscreenenter"",""5"",""13897""
","
",804.9450000980869,NA,48,NA,NA,3000,1,NA,NA,images/earth.jpg,images/rocket2,images/rocket1,null,images/rocket2,NA,1,real,null,2,NA,NA,NA,sub106
d3-animate-choice,169,603835,0.0-76.0-1.11,TRUE,FALSE,FALSE,FALSE,"""event"",""trial"",""time""
""fullscreenenter"",""5"",""13897""
","
","
","""event"",""trial"",""time""
""fullscreenenter"",""5"",""13897""
","
",27.080000028945506,NA,49,NA,NA,3000,1,NA,NA,images/redplanet1.jpg,images/alien2,images/alien1,images/rocket2,images/alien1,images/t.png,2,real,true,1,common,1,2020-06-20T18:10:23Z,sub106
two-step-fixation,170,604839,0.0-76.0-2.11,TRUE,FALSE,FALSE,FALSE,"""event"",""trial"",""time""
""fullscreenenter"",""5"",""13897""
","
","
","""event"",""trial"",""time""
""fullscreenenter"",""5"",""13897""
","
",NA,images/earth.jpg,NA,NA,NA,NA,NA,NA,NA,NA,NA,NA,NA,NA,NA,fixation,NA,NA,NA,NA,NA,NA,sub106
d3-animate-choice,171,608579,0.0-76.0-0.12,TRUE,FALSE,FALSE,FALSE,"""event"",""trial"",""time""
""fullscreenenter"",""5"",""13897""
","
","
","""event"",""trial"",""time""
""fullscreenenter"",""5"",""13897""
","
",1736.9249999755993,NA,49,NA,NA,3000,1,NA,NA,images/earth.jpg,images/rocket2,images/rocket1,null,images/rocket1,NA,1,real,null,1,NA,NA,NA,sub106
d3-animate-choice,172,611504,0.0-76.0-1.12,TRUE,FALSE,FALSE,FALSE,"""event"",""trial"",""time""
""fullscreenenter"",""5"",""13897""
","
","
","""event"",""trial"",""time""
""fullscreenenter"",""5"",""13897""
","
",920.4100000206381,NA,49,NA,NA,3000,1,NA,NA,images/redplanet1.jpg,images/alien2,images/alien1,images/rocket1,images/alien1,images/t.png,2,real,false,1,rare,1,2020-06-20T18:10:31Z,sub106
two-step-fixation,173,612506,0.0-76.0-2.12,TRUE,FALSE,FALSE,FALSE,"""event"",""trial"",""time""
""fullscreenenter"",""5"",""13897""
","
","
","""event"",""trial"",""time""
""fullscreenenter"",""5"",""13897""
","
",NA,images/earth.jpg,NA,NA,NA,NA,NA,NA,NA,NA,NA,NA,NA,NA,NA,fixation,NA,NA,NA,NA,NA,NA,sub106
d3-animate-choice,174,614739,0.0-76.0-0.13,TRUE,FALSE,FALSE,FALSE,"""event"",""trial"",""time""
""fullscreenenter"",""5"",""13897""
","
","
","""event"",""trial"",""time""
""fullscreenenter"",""5"",""13897""
","
",229.810000048019,NA,49,NA,NA,3000,1,NA,NA,images/earth.jpg,images/rocket2,images/rocket1,null,images/rocket1,NA,1,real,null,1,NA,NA,NA,sub106
d3-animate-choice,175,617019,0.0-76.0-1.13,TRUE,FALSE,FALSE,FALSE,"""event"",""trial"",""time""
""fullscreenenter"",""5"",""13897""
","
","
","""event"",""trial"",""time""
""fullscreenenter"",""5"",""13897""
","
",278.0100000090897,NA,49,NA,NA,3000,1,NA,NA,images/purpleplanet.jpg,images/alien4,images/alien3,images/rocket1,images/alien3,images/t.png,2,real,true,1,common,1,2020-06-20T18:10:36Z,sub106
two-step-fixation,176,618023,0.0-76.0-2.13,TRUE,FALSE,FALSE,FALSE,"""event"",""trial"",""time""
""fullscreenenter"",""5"",""13897""
","
","
","""event"",""trial"",""time""
""fullscreenenter"",""5"",""13897""
","
",NA,images/earth.jpg,NA,NA,NA,NA,NA,NA,NA,NA,NA,NA,NA,NA,NA,fixation,NA,NA,NA,NA,NA,NA,sub106
d3-animate-choice,177,620793,0.0-76.0-0.14,TRUE,FALSE,FALSE,FALSE,"""event"",""trial"",""time""
""fullscreenenter"",""5"",""13897""
","
","
","""event"",""trial"",""time""
""fullscreenenter"",""5"",""13897""
","
",766.7649999493733,NA,48,NA,NA,3000,1,NA,NA,images/earth.jpg,images/rocket2,images/rocket1,null,images/rocket2,NA,1,real,null,2,NA,NA,NA,sub106
d3-animate-choice,178,623545,0.0-76.0-1.14,TRUE,FALSE,FALSE,FALSE,"""event"",""trial"",""time""
""fullscreenenter"",""5"",""13897""
","
","
","""event"",""trial"",""time""
""fullscreenenter"",""5"",""13897""
","
",748.9050000440329,NA,48,NA,NA,3000,1,NA,NA,images/redplanet1.jpg,images/alien2,images/alien1,images/rocket2,images/alien2,images/t.png,2,real,true,2,common,1,2020-06-20T18:10:43Z,sub106
two-step-fixation,179,624547,0.0-76.0-2.14,TRUE,FALSE,FALSE,FALSE,"""event"",""trial"",""time""
""fullscreenenter"",""5"",""13897""
","
","
","""event"",""trial"",""time""
""fullscreenenter"",""5"",""13897""
","
",NA,images/earth.jpg,NA,NA,NA,NA,NA,NA,NA,NA,NA,NA,NA,NA,NA,fixation,NA,NA,NA,NA,NA,NA,sub106
d3-animate-choice,180,626718,0.0-76.0-0.15,TRUE,FALSE,FALSE,FALSE,"""event"",""trial"",""time""
""fullscreenenter"",""5"",""13897""
","
","
","""event"",""trial"",""time""
""fullscreenenter"",""5"",""13897""
","
",166.30000004079193,NA,49,NA,NA,3000,1,NA,NA,images/earth.jpg,images/rocket2,images/rocket1,null,images/rocket1,NA,1,real,null,1,NA,NA,NA,sub106
d3-animate-choice,181,630281,0.0-76.0-1.15,TRUE,FALSE,FALSE,FALSE,"""event"",""trial"",""time""
""fullscreenenter"",""5"",""13897""
","
","
","""event"",""trial"",""time""
""fullscreenenter"",""5"",""13897""
","
",1559.5000000903383,NA,48,NA,NA,3000,1,NA,NA,images/purpleplanet.jpg,images/alien4,images/alien3,images/rocket1,images/alien4,images/nothing.png,2,real,true,2,common,0,2020-06-20T18:10:49Z,sub106
two-step-fixation,182,631284,0.0-76.0-2.15,TRUE,FALSE,FALSE,FALSE,"""event"",""trial"",""time""
""fullscreenenter"",""5"",""13897""
","
","
","""event"",""trial"",""time""
""fullscreenenter"",""5"",""13897""
","
",NA,images/earth.jpg,NA,NA,NA,NA,NA,NA,NA,NA,NA,NA,NA,NA,NA,fixation,NA,NA,NA,NA,NA,NA,sub106
d3-animate-choice,183,634905,0.0-76.0-0.16,TRUE,FALSE,FALSE,FALSE,"""event"",""trial"",""time""
""fullscreenenter"",""5"",""13897""
","
","
","""event"",""trial"",""time""
""fullscreenenter"",""5"",""13897""
","
",1617.3649999545887,NA,49,NA,NA,3000,1,NA,NA,images/earth.jpg,images/rocket2,images/rocket1,null,images/rocket1,NA,1,real,null,1,NA,NA,NA,sub106
d3-animate-choice,184,637704,0.0-76.0-1.16,TRUE,FALSE,FALSE,FALSE,"""event"",""trial"",""time""
""fullscreenenter"",""5"",""13897""
","
","
","""event"",""trial"",""time""
""fullscreenenter"",""5"",""13897""
","
",795.3749999869615,NA,48,NA,NA,3000,1,NA,NA,images/redplanet1.jpg,images/alien2,images/alien1,images/rocket1,images/alien2,images/t.png,2,real,false,2,rare,1,2020-06-20T18:10:57Z,sub106
two-step-fixation,185,638707,0.0-76.0-2.16,TRUE,FALSE,FALSE,FALSE,"""event"",""trial"",""time""
""fullscreenenter"",""5"",""13897""
","
","
","""event"",""trial"",""time""
""fullscreenenter"",""5"",""13897""
","
",NA,images/earth.jpg,NA,NA,NA,NA,NA,NA,NA,NA,NA,NA,NA,NA,NA,fixation,NA,NA,NA,NA,NA,NA,sub106
d3-animate-choice,186,641469,0.0-76.0-0.17,TRUE,FALSE,FALSE,FALSE,"""event"",""trial"",""time""
""fullscreenenter"",""5"",""13897""
","
","
","""event"",""trial"",""time""
""fullscreenenter"",""5"",""13897""
","
",758.9750000042841,NA,49,NA,NA,3000,1,2086.860000039451,49,images/earth.jpg,images/rocket2,images/rocket1,null,images/rocket1,NA,1,real,null,1,NA,NA,NA,sub106
d3-animate-choice,187,644492,0.0-76.0-1.17,TRUE,FALSE,FALSE,FALSE,"""event"",""trial"",""time""
""fullscreenenter"",""5"",""13897""
","
","
","""event"",""trial"",""time""
""fullscreenenter"",""5"",""13897""
","
",1018.709999974817,NA,49,NA,NA,3000,1,2941.679999930784,49,images/redplanet1.jpg,images/alien2,images/alien1,images/rocket1,images/alien1,images/nothing.png,2,real,false,1,rare,0,2020-06-20T18:11:04Z,sub106
two-step-fixation,188,645496,0.0-76.0-2.17,TRUE,FALSE,FALSE,FALSE,"""event"",""trial"",""time""
""fullscreenenter"",""5"",""13897""
","
","
","""event"",""trial"",""time""
""fullscreenenter"",""5"",""13897""
","
",NA,images/earth.jpg,NA,NA,NA,NA,NA,NA,NA,NA,NA,NA,NA,NA,NA,fixation,NA,NA,NA,NA,NA,NA,sub106
d3-animate-choice,189,648064,0.0-76.0-0.18,TRUE,FALSE,FALSE,FALSE,"""event"",""trial"",""time""
""fullscreenenter"",""5"",""13897""
","
","
","""event"",""trial"",""time""
""fullscreenenter"",""5"",""13897""
","
",563.8399999588728,NA,49,NA,NA,3000,1,NA,NA,images/earth.jpg,images/rocket2,images/rocket1,null,images/rocket1,NA,1,real,null,1,NA,NA,NA,sub106
d3-animate-choice,190,651019,0.0-76.0-1.18,TRUE,FALSE,FALSE,FALSE,"""event"",""trial"",""time""
""fullscreenenter"",""5"",""13897""
","
","
","""event"",""trial"",""time""
""fullscreenenter"",""5"",""13897""
","
",952.5050000520423,NA,48,NA,NA,3000,1,NA,NA,images/redplanet1.jpg,images/alien2,images/alien1,images/rocket1,images/alien2,images/t.png,2,real,false,2,rare,1,2020-06-20T18:11:10Z,sub106
two-step-fixation,191,652023,0.0-76.0-2.18,TRUE,FALSE,FALSE,FALSE,"""event"",""trial"",""time""
""fullscreenenter"",""5"",""13897""
","
","
","""event"",""trial"",""time""
""fullscreenenter"",""5"",""13897""
","
",NA,images/earth.jpg,NA,NA,NA,NA,NA,NA,NA,NA,NA,NA,NA,NA,NA,fixation,NA,NA,NA,NA,NA,NA,sub106
d3-animate-choice,192,654030,0.0-76.0-0.19,TRUE,FALSE,FALSE,FALSE,"""event"",""trial"",""time""
""fullscreenenter"",""5"",""13897""
","
","
","""event"",""trial"",""time""
""fullscreenenter"",""5"",""13897""
","
",4.760000039823353,NA,49,NA,NA,3000,1,NA,NA,images/earth.jpg,images/rocket2,images/rocket1,null,images/rocket1,NA,1,real,null,1,NA,NA,NA,sub106
d3-animate-choice,193,656720,0.0-76.0-1.19,TRUE,FALSE,FALSE,FALSE,"""event"",""trial"",""time""
""fullscreenenter"",""5"",""13897""
","
","
","""event"",""trial"",""time""
""fullscreenenter"",""5"",""13897""
","
",684.7599999746308,NA,48,NA,NA,3000,1,NA,NA,images/purpleplanet.jpg,images/alien4,images/alien3,images/rocket1,images/alien4,images/nothing.png,2,real,true,2,common,0,2020-06-20T18:11:16Z,sub106
two-step-fixation,194,657724,0.0-76.0-2.19,TRUE,FALSE,FALSE,FALSE,"""event"",""trial"",""time""
""fullscreenenter"",""5"",""13897""
","
","
","""event"",""trial"",""time""
""fullscreenenter"",""5"",""13897""
","
",NA,images/earth.jpg,NA,NA,NA,NA,NA,NA,NA,NA,NA,NA,NA,NA,NA,fixation,NA,NA,NA,NA,NA,NA,sub106
d3-animate-choice,195,660089,0.0-76.0-0.20,TRUE,FALSE,FALSE,FALSE,"""event"",""trial"",""time""
""fullscreenenter"",""5"",""13897""
","
","
","""event"",""trial"",""time""
""fullscreenenter"",""5"",""13897""
","
",363.20499994326383,NA,49,NA,NA,3000,1,NA,NA,images/earth.jpg,images/rocket2,images/rocket1,null,images/rocket1,NA,1,real,null,1,NA,NA,NA,sub106
d3-animate-choice,196,662922,0.0-76.0-1.20,TRUE,FALSE,FALSE,FALSE,"""event"",""trial"",""time""
""fullscreenenter"",""5"",""13897""
","
","
","""event"",""trial"",""time""
""fullscreenenter"",""5"",""13897""
","
",828.5299999406561,NA,48,NA,NA,3000,1,NA,NA,images/purpleplanet.jpg,images/alien4,images/alien3,images/rocket1,images/alien4,images/t.png,2,real,true,2,common,1,2020-06-20T18:11:22Z,sub106
two-step-fixation,197,663927,0.0-76.0-2.20,TRUE,FALSE,FALSE,FALSE,"""event"",""trial"",""time""
""fullscreenenter"",""5"",""13897""
","
","
","""event"",""trial"",""time""
""fullscreenenter"",""5"",""13897""
","
",NA,images/earth.jpg,NA,NA,NA,NA,NA,NA,NA,NA,NA,NA,NA,NA,NA,fixation,NA,NA,NA,NA,NA,NA,sub106
d3-animate-choice,198,667933,0.0-76.0-0.21,TRUE,FALSE,FALSE,FALSE,"""event"",""trial"",""time""
""fullscreenenter"",""5"",""13897""
","
","
","""event"",""trial"",""time""
""fullscreenenter"",""5"",""13897""
","
",3615.364999976009,NA,49,NA,NA,3000,0,NA,NA,images/earth.jpg,images/rocket2,images/rocket1,null,NA,NA,1,real,null,1,NA,NA,NA,sub106
d3-animate-choice,199,668943,0.0-76.0-1.21,TRUE,FALSE,FALSE,FALSE,"""event"",""trial"",""time""
""fullscreenenter"",""5"",""13897""
","
","
","""event"",""trial"",""time""
""fullscreenenter"",""5"",""13897""
","
",417.905000038445,NA,49,NA,NA,0,0,NA,NA,images/earth.jpg,images/rocket2,images/rocket1,null,NA,NA,2,real,null,1,NA,0,2020-06-20T18:11:28Z,sub106
two-step-fixation,200,669945,0.0-76.0-2.21,TRUE,FALSE,FALSE,FALSE,"""event"",""trial"",""time""
""fullscreenenter"",""5"",""13897""
","
","
","""event"",""trial"",""time""
""fullscreenenter"",""5"",""13897""
","
",NA,images/earth.jpg,NA,NA,NA,NA,NA,NA,NA,NA,NA,NA,NA,NA,NA,fixation,NA,NA,NA,NA,NA,NA,sub106
d3-animate-choice,201,672359,0.0-76.0-0.22,TRUE,FALSE,FALSE,FALSE,"""event"",""trial"",""time""
""fullscreenenter"",""5"",""13897""
","
","
","""event"",""trial"",""time""
""fullscreenenter"",""5"",""13897""
","
",411.63999994751066,NA,49,NA,NA,3000,1,NA,NA,images/earth.jpg,images/rocket2,images/rocket1,null,images/rocket1,NA,1,real,null,1,NA,NA,NA,sub106
d3-animate-choice,202,675631,0.0-76.0-1.22,TRUE,FALSE,FALSE,FALSE,"""event"",""trial"",""time""
""fullscreenenter"",""5"",""13897""
","
","
","""event"",""trial"",""time""
""fullscreenenter"",""5"",""13897""
","
",1269.2700000479817,NA,49,NA,NA,3000,1,NA,NA,images/purpleplanet.jpg,images/alien4,images/alien3,images/rocket1,images/alien3,images/nothing.png,2,real,true,1,common,0,2020-06-20T18:11:35Z,sub106
two-step-fixation,203,676634,0.0-76.0-2.22,TRUE,FALSE,FALSE,FALSE,"""event"",""trial"",""time""
""fullscreenenter"",""5"",""13897""
","
","
","""event"",""trial"",""time""
""fullscreenenter"",""5"",""13897""
","
",NA,images/earth.jpg,NA,NA,NA,NA,NA,NA,NA,NA,NA,NA,NA,NA,NA,fixation,NA,NA,NA,NA,NA,NA,sub106
d3-animate-choice,204,679041,0.0-76.0-0.23,TRUE,FALSE,FALSE,FALSE,"""event"",""trial"",""time""
""fullscreenenter"",""5"",""13897""
","
","
","""event"",""trial"",""time""
""fullscreenenter"",""5"",""13897""
","
",403.9749999064952,NA,48,NA,NA,3000,1,NA,NA,images/earth.jpg,images/rocket2,images/rocket1,null,images/rocket2,NA,1,real,null,2,NA,NA,NA,sub106
d3-animate-choice,205,681525,0.0-76.0-1.23,TRUE,FALSE,FALSE,FALSE,"""event"",""trial"",""time""
""fullscreenenter"",""5"",""13897""
","
","
","""event"",""trial"",""time""
""fullscreenenter"",""5"",""13897""
","
",481.58999998122454,NA,49,NA,NA,3000,1,NA,NA,images/redplanet1.jpg,images/alien2,images/alien1,images/rocket2,images/alien1,images/t.png,2,real,true,1,common,1,2020-06-20T18:11:41Z,sub106
two-step-fixation,206,682528,0.0-76.0-2.23,TRUE,FALSE,FALSE,FALSE,"""event"",""trial"",""time""
""fullscreenenter"",""5"",""13897""
","
","
","""event"",""trial"",""time""
""fullscreenenter"",""5"",""13897""
","
",NA,images/earth.jpg,NA,NA,NA,NA,NA,NA,NA,NA,NA,NA,NA,NA,NA,fixation,NA,NA,NA,NA,NA,NA,sub106
d3-animate-choice,207,684962,0.0-76.0-0.24,TRUE,FALSE,FALSE,FALSE,"""event"",""trial"",""time""
""fullscreenenter"",""5"",""13897""
","
","
","""event"",""trial"",""time""
""fullscreenenter"",""5"",""13897""
","
",430.21999998018146,NA,49,NA,NA,3000,1,NA,NA,images/earth.jpg,images/rocket2,images/rocket1,null,images/rocket1,NA,1,real,null,1,NA,NA,NA,sub106
d3-animate-choice,208,687377,0.0-76.0-1.24,TRUE,FALSE,FALSE,FALSE,"""event"",""trial"",""time""
""fullscreenenter"",""5"",""13897""
","
","
","""event"",""trial"",""time""
""fullscreenenter"",""5"",""13897""
","
",411.3050000742078,NA,49,NA,NA,3000,1,NA,NA,images/purpleplanet.jpg,images/alien4,images/alien3,images/rocket1,images/alien3,images/t.png,2,real,true,1,common,1,2020-06-20T18:11:47Z,sub106
two-step-fixation,209,688380,0.0-76.0-2.24,TRUE,FALSE,FALSE,FALSE,"""event"",""trial"",""time""
""fullscreenenter"",""5"",""13897""
","
","
","""event"",""trial"",""time""
""fullscreenenter"",""5"",""13897""
","
",NA,images/earth.jpg,NA,NA,NA,NA,NA,NA,NA,NA,NA,NA,NA,NA,NA,fixation,NA,NA,NA,NA,NA,NA,sub106
d3-animate-choice,210,690770,0.0-76.0-0.25,TRUE,FALSE,FALSE,FALSE,"""event"",""trial"",""time""
""fullscreenenter"",""5"",""13897""
","
","
","""event"",""trial"",""time""
""fullscreenenter"",""5"",""13897""
","
",386.34999992791563,NA,48,NA,NA,3000,1,NA,NA,images/earth.jpg,images/rocket2,images/rocket1,null,images/rocket2,NA,1,real,null,2,NA,NA,NA,sub106
d3-animate-choice,211,693087,0.0-76.0-1.25,TRUE,FALSE,FALSE,FALSE,"""event"",""trial"",""time""
""fullscreenenter"",""5"",""13897""
","
","
","""event"",""trial"",""time""
""fullscreenenter"",""5"",""13897""
","
",314.1699999105185,NA,48,NA,NA,3000,1,NA,NA,images/purpleplanet.jpg,images/alien4,images/alien3,images/rocket2,images/alien4,images/t.png,2,real,false,2,rare,1,2020-06-20T18:11:52Z,sub106
two-step-fixation,212,694090,0.0-76.0-2.25,TRUE,FALSE,FALSE,FALSE,"""event"",""trial"",""time""
""fullscreenenter"",""5"",""13897""
","
","
","""event"",""trial"",""time""
""fullscreenenter"",""5"",""13897""
","
",NA,images/earth.jpg,NA,NA,NA,NA,NA,NA,NA,NA,NA,NA,NA,NA,NA,fixation,NA,NA,NA,NA,NA,NA,sub106
d3-animate-choice,213,696987,0.0-76.0-0.26,TRUE,FALSE,FALSE,FALSE,"""event"",""trial"",""time""
""fullscreenenter"",""5"",""13897""
","
","
","""event"",""trial"",""time""
""fullscreenenter"",""5"",""13897""
","
",893.6449999455363,NA,48,NA,NA,3000,1,NA,NA,images/earth.jpg,images/rocket2,images/rocket1,null,images/rocket2,NA,1,real,null,2,NA,NA,NA,sub106
d3-animate-choice,214,699432,0.0-76.0-1.26,TRUE,FALSE,FALSE,FALSE,"""event"",""trial"",""time""
""fullscreenenter"",""5"",""13897""
","
","
","""event"",""trial"",""time""
""fullscreenenter"",""5"",""13897""
","
",442.1800000127405,NA,48,NA,NA,3000,1,NA,NA,images/redplanet1.jpg,images/alien2,images/alien1,images/rocket2,images/alien2,images/nothing.png,2,real,true,2,common,0,2020-06-20T18:11:59Z,sub106
two-step-fixation,215,700436,0.0-76.0-2.26,TRUE,FALSE,FALSE,FALSE,"""event"",""trial"",""time""
""fullscreenenter"",""5"",""13897""
","
","
","""event"",""trial"",""time""
""fullscreenenter"",""5"",""13897""
","
",NA,images/earth.jpg,NA,NA,NA,NA,NA,NA,NA,NA,NA,NA,NA,NA,NA,fixation,NA,NA,NA,NA,NA,NA,sub106
d3-animate-choice,216,704315,0.0-76.0-0.27,TRUE,FALSE,FALSE,FALSE,"""event"",""trial"",""time""
""fullscreenenter"",""5"",""13897""
","
","
","""event"",""trial"",""time""
""fullscreenenter"",""5"",""13897""
","
",1875.8600000292063,NA,49,NA,NA,3000,1,NA,NA,images/earth.jpg,images/rocket2,images/rocket1,null,images/rocket1,NA,1,real,null,1,NA,NA,NA,sub106
d3-animate-choice,217,707084,0.0-76.0-1.27,TRUE,FALSE,FALSE,FALSE,"""event"",""trial"",""time""
""fullscreenenter"",""5"",""13897""
","
","
","""event"",""trial"",""time""
""fullscreenenter"",""5"",""13897""
","
",766.0349999787286,NA,48,NA,NA,3000,1,NA,NA,images/redplanet1.jpg,images/alien2,images/alien1,images/rocket1,images/alien2,images/nothing.png,2,real,false,2,rare,0,2020-06-20T18:12:06Z,sub106
two-step-fixation,218,708087,0.0-76.0-2.27,TRUE,FALSE,FALSE,FALSE,"""event"",""trial"",""time""
""fullscreenenter"",""5"",""13897""
","
","
","""event"",""trial"",""time""
""fullscreenenter"",""5"",""13897""
","
",NA,images/earth.jpg,NA,NA,NA,NA,NA,NA,NA,NA,NA,NA,NA,NA,NA,fixation,NA,NA,NA,NA,NA,NA,sub106
d3-animate-choice,219,711094,0.0-76.0-0.28,TRUE,FALSE,FALSE,FALSE,"""event"",""trial"",""time""
""fullscreenenter"",""5"",""13897""
","
","
","""event"",""trial"",""time""
""fullscreenenter"",""5"",""13897""
","
",1004.5999999856576,NA,48,NA,NA,3000,1,1848.1999998912215,48,images/earth.jpg,images/rocket2,images/rocket1,null,images/rocket2,NA,1,real,null,2,NA,NA,NA,sub106
d3-animate-choice,220,714187,0.0-76.0-1.28,TRUE,FALSE,FALSE,FALSE,"""event"",""trial"",""time""
""fullscreenenter"",""5"",""13897""
","
","
","""event"",""trial"",""time""
""fullscreenenter"",""5"",""13897""
","
",1089.7099999710917,NA,48,NA,NA,3000,1,NA,NA,images/purpleplanet.jpg,images/alien4,images/alien3,images/rocket2,images/alien4,images/t.png,2,real,false,2,rare,1,2020-06-20T18:12:13Z,sub106
two-step-fixation,221,715190,0.0-76.0-2.28,TRUE,FALSE,FALSE,FALSE,"""event"",""trial"",""time""
""fullscreenenter"",""5"",""13897""
","
","
","""event"",""trial"",""time""
""fullscreenenter"",""5"",""13897""
","
",NA,images/earth.jpg,NA,NA,NA,NA,NA,NA,NA,NA,NA,NA,NA,NA,NA,fixation,NA,NA,NA,NA,NA,NA,sub106
d3-animate-choice,222,718111,0.0-76.0-0.29,TRUE,FALSE,FALSE,FALSE,"""event"",""trial"",""time""
""fullscreenenter"",""5"",""13897""
","
","
","""event"",""trial"",""time""
""fullscreenenter"",""5"",""13897""
","
",917.6649999571964,NA,48,NA,NA,3000,1,NA,NA,images/earth.jpg,images/rocket2,images/rocket1,null,images/rocket2,NA,1,real,null,2,NA,NA,NA,sub106
d3-animate-choice,223,720839,0.0-76.0-1.29,TRUE,FALSE,FALSE,FALSE,"""event"",""trial"",""time""
""fullscreenenter"",""5"",""13897""
","
","
","""event"",""trial"",""time""
""fullscreenenter"",""5"",""13897""
","
",725.245000096038,NA,48,NA,NA,3000,1,NA,NA,images/purpleplanet.jpg,images/alien4,images/alien3,images/rocket2,images/alien4,images/t.png,2,real,false,2,rare,1,2020-06-20T18:12:20Z,sub106
two-step-fixation,224,721843,0.0-76.0-2.29,TRUE,FALSE,FALSE,FALSE,"""event"",""trial"",""time""
""fullscreenenter"",""5"",""13897""
","
","
","""event"",""trial"",""time""
""fullscreenenter"",""5"",""13897""
","
",NA,images/earth.jpg,NA,NA,NA,NA,NA,NA,NA,NA,NA,NA,NA,NA,NA,fixation,NA,NA,NA,NA,NA,NA,sub106
d3-animate-choice,225,724286,0.0-76.0-0.30,TRUE,FALSE,FALSE,FALSE,"""event"",""trial"",""time""
""fullscreenenter"",""5"",""13897""
","
","
","""event"",""trial"",""time""
""fullscreenenter"",""5"",""13897""
","
",439.905000035651,NA,48,NA,NA,3000,1,NA,NA,images/earth.jpg,images/rocket2,images/rocket1,null,images/rocket2,NA,1,real,null,2,NA,NA,NA,sub106
d3-animate-choice,226,727060,0.0-76.0-1.30,TRUE,FALSE,FALSE,FALSE,"""event"",""trial"",""time""
""fullscreenenter"",""5"",""13897""
","
","
","""event"",""trial"",""time""
""fullscreenenter"",""5"",""13897""
","
",770.7399999490008,NA,49,NA,NA,3000,1,NA,NA,images/purpleplanet.jpg,images/alien4,images/alien3,images/rocket2,images/alien3,images/nothing.png,2,real,false,1,rare,0,2020-06-20T18:12:26Z,sub106
two-step-fixation,227,728063,0.0-76.0-2.30,TRUE,FALSE,FALSE,FALSE,"""event"",""trial"",""time""
""fullscreenenter"",""5"",""13897""
","
","
","""event"",""trial"",""time""
""fullscreenenter"",""5"",""13897""
","
",NA,images/earth.jpg,NA,NA,NA,NA,NA,NA,NA,NA,NA,NA,NA,NA,NA,fixation,NA,NA,NA,NA,NA,NA,sub106
d3-animate-choice,228,731542,0.0-76.0-0.31,TRUE,FALSE,FALSE,FALSE,"""event"",""trial"",""time""
""fullscreenenter"",""5"",""13897""
","
","
","""event"",""trial"",""time""
""fullscreenenter"",""5"",""13897""
","
",1476.1650000000373,NA,49,NA,NA,3000,1,NA,NA,images/earth.jpg,images/rocket2,images/rocket1,null,images/rocket1,NA,1,real,null,1,NA,NA,NA,sub106
d3-animate-choice,229,734270,0.0-76.0-1.31,TRUE,FALSE,FALSE,FALSE,"""event"",""trial"",""time""
""fullscreenenter"",""5"",""13897""
","
","
","""event"",""trial"",""time""
""fullscreenenter"",""5"",""13897""
","
",724.4649999774992,NA,49,NA,NA,3000,1,NA,NA,images/redplanet1.jpg,images/alien2,images/alien1,images/rocket1,images/alien1,images/nothing.png,2,real,false,1,rare,0,2020-06-20T18:12:33Z,sub106
two-step-fixation,230,735273,0.0-76.0-2.31,TRUE,FALSE,FALSE,FALSE,"""event"",""trial"",""time""
""fullscreenenter"",""5"",""13897""
","
","
","""event"",""trial"",""time""
""fullscreenenter"",""5"",""13897""
","
",NA,images/earth.jpg,NA,NA,NA,NA,NA,NA,NA,NA,NA,NA,NA,NA,NA,fixation,NA,NA,NA,NA,NA,NA,sub106
d3-animate-choice,231,738298,0.0-76.0-0.32,TRUE,FALSE,FALSE,FALSE,"""event"",""trial"",""time""
""fullscreenenter"",""5"",""13897""
","
","
","""event"",""trial"",""time""
""fullscreenenter"",""5"",""13897""
","
",1021.7650000704452,NA,49,NA,NA,3000,1,NA,NA,images/earth.jpg,images/rocket2,images/rocket1,null,images/rocket1,NA,1,real,null,1,NA,NA,NA,sub106
d3-animate-choice,232,741340,0.0-76.0-1.32,TRUE,FALSE,FALSE,FALSE,"""event"",""trial"",""time""
""fullscreenenter"",""5"",""13897""
","
","
","""event"",""trial"",""time""
""fullscreenenter"",""5"",""13897""
","
",1038.0649999715388,NA,48,NA,NA,3000,1,NA,NA,images/purpleplanet.jpg,images/alien4,images/alien3,images/rocket1,images/alien4,images/t.png,2,real,true,2,common,1,2020-06-20T18:12:40Z,sub106
two-step-fixation,233,742345,0.0-76.0-2.32,TRUE,FALSE,FALSE,FALSE,"""event"",""trial"",""time""
""fullscreenenter"",""5"",""13897""
","
","
","""event"",""trial"",""time""
""fullscreenenter"",""5"",""13897""
","
",NA,images/earth.jpg,NA,NA,NA,NA,NA,NA,NA,NA,NA,NA,NA,NA,NA,fixation,NA,NA,NA,NA,NA,NA,sub106
d3-animate-choice,234,744568,0.0-76.0-0.33,TRUE,FALSE,FALSE,FALSE,"""event"",""trial"",""time""
""fullscreenenter"",""5"",""13897""
","
","
","""event"",""trial"",""time""
""fullscreenenter"",""5"",""13897""
","
",219.70999997574836,NA,49,NA,NA,3000,1,2121.1749999783933,49,images/earth.jpg,images/rocket2,images/rocket1,null,images/rocket1,NA,1,real,null,1,NA,NA,NA,sub106
d3-animate-choice,235,748573,0.0-76.0-1.33,TRUE,FALSE,FALSE,FALSE,"""event"",""trial"",""time""
""fullscreenenter"",""5"",""13897""
","
","
","""event"",""trial"",""time""
""fullscreenenter"",""5"",""13897""
","
",2687.084999983199,NA,49,NA,NA,3000,1,NA,NA,images/redplanet1.jpg,images/alien2,images/alien1,images/rocket1,images/alien1,NA,2,real,false,1,rare,0,2020-06-20T18:12:48Z,sub106
two-step-fixation,236,749578,0.0-76.0-2.33,TRUE,FALSE,FALSE,FALSE,"""event"",""trial"",""time""
""fullscreenenter"",""5"",""13897""
","
","
","""event"",""trial"",""time""
""fullscreenenter"",""5"",""13897""
","
",NA,images/earth.jpg,NA,NA,NA,NA,NA,NA,NA,NA,NA,NA,NA,NA,NA,fixation,NA,NA,NA,NA,NA,NA,sub106
d3-animate-choice,237,752115,0.0-76.0-0.34,TRUE,FALSE,FALSE,FALSE,"""event"",""trial"",""time""
""fullscreenenter"",""5"",""13897""
","
","
","""event"",""trial"",""time""
""fullscreenenter"",""5"",""13897""
","
",533.1350000342354,NA,49,NA,NA,3000,1,NA,NA,images/earth.jpg,images/rocket2,images/rocket1,null,images/rocket1,NA,1,real,null,1,NA,NA,NA,sub106
d3-animate-choice,238,754829,0.0-76.0-1.34,TRUE,FALSE,FALSE,FALSE,"""event"",""trial"",""time""
""fullscreenenter"",""5"",""13897""
","
","
","""event"",""trial"",""time""
""fullscreenenter"",""5"",""13897""
","
",709.9800000432879,NA,49,NA,NA,3000,1,NA,NA,images/redplanet1.jpg,images/alien2,images/alien1,images/rocket1,images/alien1,images/t.png,2,real,false,1,rare,1,2020-06-20T18:12:54Z,sub106
two-step-fixation,239,755832,0.0-76.0-2.34,TRUE,FALSE,FALSE,FALSE,"""event"",""trial"",""time""
""fullscreenenter"",""5"",""13897""
","
","
","""event"",""trial"",""time""
""fullscreenenter"",""5"",""13897""
","
",NA,images/earth.jpg,NA,NA,NA,NA,NA,NA,NA,NA,NA,NA,NA,NA,NA,fixation,NA,NA,NA,NA,NA,NA,sub106
d3-animate-choice,240,758411,0.0-76.0-0.35,TRUE,FALSE,FALSE,FALSE,"""event"",""trial"",""time""
""fullscreenenter"",""5"",""13897""
","
","
","""event"",""trial"",""time""
""fullscreenenter"",""5"",""13897""
","
",574.9950000317767,NA,49,NA,NA,3000,1,NA,NA,images/earth.jpg,images/rocket2,images/rocket1,null,images/rocket1,NA,1,real,null,1,NA,NA,NA,sub106
d3-animate-choice,241,760457,0.0-76.0-1.35,TRUE,FALSE,FALSE,FALSE,"""event"",""trial"",""time""
""fullscreenenter"",""5"",""13897""
","
","
","""event"",""trial"",""time""
""fullscreenenter"",""5"",""13897""
","
",42.664999957196414,NA,49,NA,NA,3000,1,1967.3199999378994,49,images/purpleplanet.jpg,images/alien4,images/alien3,images/rocket1,images/alien3,images/t.png,2,real,true,1,common,1,2020-06-20T18:13:00Z,sub106
two-step-fixation,242,761461,0.0-76.0-2.35,TRUE,FALSE,FALSE,FALSE,"""event"",""trial"",""time""
""fullscreenenter"",""5"",""13897""
","
","
","""event"",""trial"",""time""
""fullscreenenter"",""5"",""13897""
","
",NA,images/earth.jpg,NA,NA,NA,NA,NA,NA,NA,NA,NA,NA,NA,NA,NA,fixation,NA,NA,NA,NA,NA,NA,sub106
d3-animate-choice,243,764346,0.0-76.0-0.36,TRUE,FALSE,FALSE,FALSE,"""event"",""trial"",""time""
""fullscreenenter"",""5"",""13897""
","
","
","""event"",""trial"",""time""
""fullscreenenter"",""5"",""13897""
","
",881.2499999767169,NA,49,NA,NA,3000,1,NA,NA,images/earth.jpg,images/rocket2,images/rocket1,null,images/rocket1,NA,1,real,null,1,NA,NA,NA,sub106
d3-animate-choice,244,767286,0.0-76.0-1.36,TRUE,FALSE,FALSE,FALSE,"""event"",""trial"",""time""
""fullscreenenter"",""5"",""13897""
","
","
","""event"",""trial"",""time""
""fullscreenenter"",""5"",""13897""
","
",937.779999920167,NA,49,NA,NA,3000,1,NA,NA,images/purpleplanet.jpg,images/alien4,images/alien3,images/rocket1,images/alien3,images/t.png,2,real,true,1,common,1,2020-06-20T18:13:06Z,sub106
two-step-fixation,245,768289,0.0-76.0-2.36,TRUE,FALSE,FALSE,FALSE,"""event"",""trial"",""time""
""fullscreenenter"",""5"",""13897""
","
","
","""event"",""trial"",""time""
""fullscreenenter"",""5"",""13897""
","
",NA,images/earth.jpg,NA,NA,NA,NA,NA,NA,NA,NA,NA,NA,NA,NA,NA,fixation,NA,NA,NA,NA,NA,NA,sub106
d3-animate-choice,246,770751,0.0-76.0-0.37,TRUE,FALSE,FALSE,FALSE,"""event"",""trial"",""time""
""fullscreenenter"",""5"",""13897""
","
","
","""event"",""trial"",""time""
""fullscreenenter"",""5"",""13897""
","
",458.37000000756234,NA,49,NA,NA,3000,1,NA,NA,images/earth.jpg,images/rocket2,images/rocket1,null,images/rocket1,NA,1,real,null,1,NA,NA,NA,sub106
d3-animate-choice,247,773580,0.0-76.0-1.37,TRUE,FALSE,FALSE,FALSE,"""event"",""trial"",""time""
""fullscreenenter"",""5"",""13897""
","
","
","""event"",""trial"",""time""
""fullscreenenter"",""5"",""13897""
","
",826.9899999722838,NA,48,NA,NA,3000,1,NA,NA,images/purpleplanet.jpg,images/alien4,images/alien3,images/rocket1,images/alien4,images/t.png,2,real,true,2,common,1,2020-06-20T18:13:13Z,sub106
two-step-fixation,248,774585,0.0-76.0-2.37,TRUE,FALSE,FALSE,FALSE,"""event"",""trial"",""time""
""fullscreenenter"",""5"",""13897""
","
","
","""event"",""trial"",""time""
""fullscreenenter"",""5"",""13897""
","
",NA,images/earth.jpg,NA,NA,NA,NA,NA,NA,NA,NA,NA,NA,NA,NA,NA,fixation,NA,NA,NA,NA,NA,NA,sub106
d3-animate-choice,249,777637,0.0-76.0-0.38,TRUE,FALSE,FALSE,FALSE,"""event"",""trial"",""time""
""fullscreenenter"",""5"",""13897""
","
","
","""event"",""trial"",""time""
""fullscreenenter"",""5"",""13897""
","
",1049.03499991633,NA,48,NA,NA,3000,1,NA,NA,images/earth.jpg,images/rocket2,images/rocket1,null,images/rocket2,NA,1,real,null,2,NA,NA,NA,sub106
d3-animate-choice,250,781154,0.0-76.0-1.38,TRUE,FALSE,FALSE,FALSE,"""event"",""trial"",""time""
""fullscreenenter"",""5"",""13897""
","
","
","""event"",""trial"",""time""
""fullscreenenter"",""5"",""13897""
","
",1514.160000020638,NA,49,NA,NA,3000,1,NA,NA,images/purpleplanet.jpg,images/alien4,images/alien3,images/rocket2,images/alien3,images/nothing.png,2,real,false,1,rare,0,2020-06-20T18:13:20Z,sub106
two-step-fixation,251,782158,0.0-76.0-2.38,TRUE,FALSE,FALSE,FALSE,"""event"",""trial"",""time""
""fullscreenenter"",""5"",""13897""
","
","
","""event"",""trial"",""time""
""fullscreenenter"",""5"",""13897""
","
",NA,images/earth.jpg,NA,NA,NA,NA,NA,NA,NA,NA,NA,NA,NA,NA,NA,fixation,NA,NA,NA,NA,NA,NA,sub106
d3-animate-choice,252,785090,0.0-76.0-0.39,TRUE,FALSE,FALSE,FALSE,"""event"",""trial"",""time""
""fullscreenenter"",""5"",""13897""
","
","
","""event"",""trial"",""time""
""fullscreenenter"",""5"",""13897""
","
",928.6749999737367,NA,49,NA,NA,3000,1,NA,NA,images/earth.jpg,images/rocket2,images/rocket1,null,images/rocket1,NA,1,real,null,1,NA,NA,NA,sub106
d3-animate-choice,253,788022,0.0-76.0-1.39,TRUE,FALSE,FALSE,FALSE,"""event"",""trial"",""time""
""fullscreenenter"",""5"",""13897""
","
","
","""event"",""trial"",""time""
""fullscreenenter"",""5"",""13897""
","
",929.3100000359118,NA,49,NA,NA,3000,1,NA,NA,images/purpleplanet.jpg,images/alien4,images/alien3,images/rocket1,images/alien3,images/nothing.png,2,real,true,1,common,0,2020-06-20T18:13:27Z,sub106
two-step-fixation,254,789024,0.0-76.0-2.39,TRUE,FALSE,FALSE,FALSE,"""event"",""trial"",""time""
""fullscreenenter"",""5"",""13897""
","
","
","""event"",""trial"",""time""
""fullscreenenter"",""5"",""13897""
","
",NA,images/earth.jpg,NA,NA,NA,NA,NA,NA,NA,NA,NA,NA,NA,NA,NA,fixation,NA,NA,NA,NA,NA,NA,sub106
d3-animate-choice,255,792160,0.0-76.0-0.40,TRUE,FALSE,FALSE,FALSE,"""event"",""trial"",""time""
""fullscreenenter"",""5"",""13897""
","
","
","""event"",""trial"",""time""
""fullscreenenter"",""5"",""13897""
","
",1130.6300000287592,NA,49,NA,NA,3000,1,1139.5950000733137,49,images/earth.jpg,images/rocket2,images/rocket1,null,images/rocket1,NA,1,real,null,1,NA,NA,NA,sub106
d3-animate-choice,256,794839,0.0-76.0-1.40,TRUE,FALSE,FALSE,FALSE,"""event"",""trial"",""time""
""fullscreenenter"",""5"",""13897""
","
","
","""event"",""trial"",""time""
""fullscreenenter"",""5"",""13897""
","
",675.3550000721589,NA,49,NA,NA,3000,1,NA,NA,images/purpleplanet.jpg,images/alien4,images/alien3,images/rocket1,images/alien3,images/nothing.png,2,real,true,1,common,0,2020-06-20T18:13:34Z,sub106
two-step-fixation,257,795842,0.0-76.0-2.40,TRUE,FALSE,FALSE,FALSE,"""event"",""trial"",""time""
""fullscreenenter"",""5"",""13897""
","
","
","""event"",""trial"",""time""
""fullscreenenter"",""5"",""13897""
","
",NA,images/earth.jpg,NA,NA,NA,NA,NA,NA,NA,NA,NA,NA,NA,NA,NA,fixation,NA,NA,NA,NA,NA,NA,sub106
d3-animate-choice,258,798592,0.0-76.0-0.41,TRUE,FALSE,FALSE,FALSE,"""event"",""trial"",""time""
""fullscreenenter"",""5"",""13897""
","
","
","""event"",""trial"",""time""
""fullscreenenter"",""5"",""13897""
","
",747.014999971725,NA,49,NA,NA,3000,1,NA,NA,images/earth.jpg,images/rocket2,images/rocket1,null,images/rocket1,NA,1,real,null,1,NA,NA,NA,sub106
d3-animate-choice,259,801507,0.0-76.0-1.41,TRUE,FALSE,FALSE,FALSE,"""event"",""trial"",""time""
""fullscreenenter"",""5"",""13897""
","
","
","""event"",""trial"",""time""
""fullscreenenter"",""5"",""13897""
","
",910.5049999197945,NA,48,NA,NA,3000,1,NA,NA,images/redplanet1.jpg,images/alien2,images/alien1,images/rocket1,images/alien2,images/nothing.png,2,real,false,2,rare,0,2020-06-20T18:13:41Z,sub106
two-step-fixation,260,802510,0.0-76.0-2.41,TRUE,FALSE,FALSE,FALSE,"""event"",""trial"",""time""
""fullscreenenter"",""5"",""13897""
","
","
","""event"",""trial"",""time""
""fullscreenenter"",""5"",""13897""
","
",NA,images/earth.jpg,NA,NA,NA,NA,NA,NA,NA,NA,NA,NA,NA,NA,NA,fixation,NA,NA,NA,NA,NA,NA,sub106
d3-animate-choice,261,805434,0.0-76.0-0.42,TRUE,FALSE,FALSE,FALSE,"""event"",""trial"",""time""
""fullscreenenter"",""5"",""13897""
","
","
","""event"",""trial"",""time""
""fullscreenenter"",""5"",""13897""
","
",920.090000028722,NA,48,NA,NA,3000,1,NA,NA,images/earth.jpg,images/rocket2,images/rocket1,null,images/rocket2,NA,1,real,null,2,NA,NA,NA,sub106
d3-animate-choice,262,808034,0.0-76.0-1.42,TRUE,FALSE,FALSE,FALSE,"""event"",""trial"",""time""
""fullscreenenter"",""5"",""13897""
","
","
","""event"",""trial"",""time""
""fullscreenenter"",""5"",""13897""
","
",597.635000012815,NA,49,NA,NA,3000,1,NA,NA,images/redplanet1.jpg,images/alien2,images/alien1,images/rocket2,images/alien1,images/nothing.png,2,real,true,1,common,0,2020-06-20T18:13:47Z,sub106
two-step-fixation,263,809038,0.0-76.0-2.42,TRUE,FALSE,FALSE,FALSE,"""event"",""trial"",""time""
""fullscreenenter"",""5"",""13897""
","
","
","""event"",""trial"",""time""
""fullscreenenter"",""5"",""13897""
","
",NA,images/earth.jpg,NA,NA,NA,NA,NA,NA,NA,NA,NA,NA,NA,NA,NA,fixation,NA,NA,NA,NA,NA,NA,sub106
d3-animate-choice,264,812120,0.0-76.0-0.43,TRUE,FALSE,FALSE,FALSE,"""event"",""trial"",""time""
""fullscreenenter"",""5"",""13897""
","
","
","""event"",""trial"",""time""
""fullscreenenter"",""5"",""13897""
","
",1076.535000000149,NA,49,NA,NA,3000,1,NA,NA,images/earth.jpg,images/rocket2,images/rocket1,null,images/rocket1,NA,1,real,null,1,NA,NA,NA,sub106
d3-animate-choice,265,815469,0.0-76.0-1.43,TRUE,FALSE,FALSE,FALSE,"""event"",""trial"",""time""
""fullscreenenter"",""5"",""13897""
","
","
","""event"",""trial"",""time""
""fullscreenenter"",""5"",""13897""
","
",1346.4750000275671,NA,48,NA,NA,3000,1,NA,NA,images/redplanet1.jpg,images/alien2,images/alien1,images/rocket1,images/alien2,images/nothing.png,2,real,false,2,rare,0,2020-06-20T18:13:55Z,sub106
two-step-fixation,266,816472,0.0-76.0-2.43,TRUE,FALSE,FALSE,FALSE,"""event"",""trial"",""time""
""fullscreenenter"",""5"",""13897""
","
","
","""event"",""trial"",""time""
""fullscreenenter"",""5"",""13897""
","
",NA,images/earth.jpg,NA,NA,NA,NA,NA,NA,NA,NA,NA,NA,NA,NA,NA,fixation,NA,NA,NA,NA,NA,NA,sub106
d3-animate-choice,267,819531,0.0-76.0-0.44,TRUE,FALSE,FALSE,FALSE,"""event"",""trial"",""time""
""fullscreenenter"",""5"",""13897""
","
","
","""event"",""trial"",""time""
""fullscreenenter"",""5"",""13897""
","
",1055.5149998981506,NA,49,NA,NA,3000,1,NA,NA,images/earth.jpg,images/rocket2,images/rocket1,null,images/rocket1,NA,1,real,null,1,NA,NA,NA,sub106
d3-animate-choice,268,822562,0.0-76.0-1.44,TRUE,FALSE,FALSE,FALSE,"""event"",""trial"",""time""
""fullscreenenter"",""5"",""13897""
","
","
","""event"",""trial"",""time""
""fullscreenenter"",""5"",""13897""
","
",1028.3999999519438,NA,49,NA,NA,3000,1,NA,NA,images/purpleplanet.jpg,images/alien4,images/alien3,images/rocket1,images/alien3,images/t.png,2,real,true,1,common,1,2020-06-20T18:14:02Z,sub106
two-step-fixation,269,823566,0.0-76.0-2.44,TRUE,FALSE,FALSE,FALSE,"""event"",""trial"",""time""
""fullscreenenter"",""5"",""13897""
","
","
","""event"",""trial"",""time""
""fullscreenenter"",""5"",""13897""
","
",NA,images/earth.jpg,NA,NA,NA,NA,NA,NA,NA,NA,NA,NA,NA,NA,NA,fixation,NA,NA,NA,NA,NA,NA,sub106
d3-animate-choice,270,826333,0.0-76.0-0.45,TRUE,FALSE,FALSE,FALSE,"""event"",""trial"",""time""
""fullscreenenter"",""5"",""13897""
","
","
","""event"",""trial"",""time""
""fullscreenenter"",""5"",""13897""
","
",763.4550000075251,NA,49,NA,NA,3000,1,NA,NA,images/earth.jpg,images/rocket2,images/rocket1,null,images/rocket1,NA,1,real,null,1,NA,NA,NA,sub106
d3-animate-choice,271,829082,0.0-76.0-1.45,TRUE,FALSE,FALSE,FALSE,"""event"",""trial"",""time""
""fullscreenenter"",""5"",""13897""
","
","
","""event"",""trial"",""time""
""fullscreenenter"",""5"",""13897""
","
",745.9250000538304,NA,49,NA,NA,3000,1,NA,NA,images/purpleplanet.jpg,images/alien4,images/alien3,images/rocket1,images/alien3,images/nothing.png,2,real,true,1,common,0,2020-06-20T18:14:08Z,sub106
two-step-fixation,272,830086,0.0-76.0-2.45,TRUE,FALSE,FALSE,FALSE,"""event"",""trial"",""time""
""fullscreenenter"",""5"",""13897""
","
","
","""event"",""trial"",""time""
""fullscreenenter"",""5"",""13897""
","
",NA,images/earth.jpg,NA,NA,NA,NA,NA,NA,NA,NA,NA,NA,NA,NA,NA,fixation,NA,NA,NA,NA,NA,NA,sub106
d3-animate-choice,273,832600,0.0-76.0-0.46,TRUE,FALSE,FALSE,FALSE,"""event"",""trial"",""time""
""fullscreenenter"",""5"",""13897""
","
","
","""event"",""trial"",""time""
""fullscreenenter"",""5"",""13897""
","
",510.89000003412366,NA,49,NA,NA,3000,1,NA,NA,images/earth.jpg,images/rocket2,images/rocket1,null,images/rocket1,NA,1,real,null,1,NA,NA,NA,sub106
d3-animate-choice,274,835340,0.0-76.0-1.46,TRUE,FALSE,FALSE,FALSE,"""event"",""trial"",""time""
""fullscreenenter"",""5"",""13897""
","
","
","""event"",""trial"",""time""
""fullscreenenter"",""5"",""13897""
","
",736.3050000276417,NA,49,NA,NA,3000,1,NA,NA,images/redplanet1.jpg,images/alien2,images/alien1,images/rocket1,images/alien1,images/t.png,2,real,false,1,rare,1,2020-06-20T18:14:14Z,sub106
two-step-fixation,275,836343,0.0-76.0-2.46,TRUE,FALSE,FALSE,FALSE,"""event"",""trial"",""time""
""fullscreenenter"",""5"",""13897""
","
","
","""event"",""trial"",""time""
""fullscreenenter"",""5"",""13897""
","
",NA,images/earth.jpg,NA,NA,NA,NA,NA,NA,NA,NA,NA,NA,NA,NA,NA,fixation,NA,NA,NA,NA,NA,NA,sub106
d3-animate-choice,276,838728,0.0-76.0-0.47,TRUE,FALSE,FALSE,FALSE,"""event"",""trial"",""time""
""fullscreenenter"",""5"",""13897""
","
","
","""event"",""trial"",""time""
""fullscreenenter"",""5"",""13897""
","
",382.4599999934435,NA,49,NA,NA,3000,1,NA,NA,images/earth.jpg,images/rocket2,images/rocket1,null,images/rocket1,NA,1,real,null,1,NA,NA,NA,sub106
d3-animate-choice,277,841748,0.0-76.0-1.47,TRUE,FALSE,FALSE,FALSE,"""event"",""trial"",""time""
""fullscreenenter"",""5"",""13897""
","
","
","""event"",""trial"",""time""
""fullscreenenter"",""5"",""13897""
","
",1017.189999925904,NA,48,NA,NA,3000,1,NA,NA,images/purpleplanet.jpg,images/alien4,images/alien3,images/rocket1,images/alien4,images/nothing.png,2,real,true,2,common,0,2020-06-20T18:14:21Z,sub106
two-step-fixation,278,842752,0.0-76.0-2.47,TRUE,FALSE,FALSE,FALSE,"""event"",""trial"",""time""
""fullscreenenter"",""5"",""13897""
","
","
","""event"",""trial"",""time""
""fullscreenenter"",""5"",""13897""
","
",NA,images/earth.jpg,NA,NA,NA,NA,NA,NA,NA,NA,NA,NA,NA,NA,NA,fixation,NA,NA,NA,NA,NA,NA,sub106
d3-animate-choice,279,846286,0.0-76.0-0.48,TRUE,FALSE,FALSE,FALSE,"""event"",""trial"",""time""
""fullscreenenter"",""5"",""13897""
","
","
","""event"",""trial"",""time""
""fullscreenenter"",""5"",""13897""
","
",1531.7150000482798,NA,48,NA,NA,3000,1,NA,NA,images/earth.jpg,images/rocket2,images/rocket1,null,images/rocket2,NA,1,real,null,2,NA,NA,NA,sub106
d3-animate-choice,280,848705,0.0-76.0-1.48,TRUE,FALSE,FALSE,FALSE,"""event"",""trial"",""time""
""fullscreenenter"",""5"",""13897""
","
","
","""event"",""trial"",""time""
""fullscreenenter"",""5"",""13897""
","
