trial_type,trial_index,time_elapsed,internal_node_id,rocket_sides,red_planet_first_rocket,red_display_order,purple_display_order,interactions,blur_events,focus_events,fullscreenenter_events,fullscreenexit_events,rt,stimulus,key_press,button_pressed,success,duration,valid_pressed,rts,keys,planet_text,right_text,left_text,center_text,chosen_text,reward_text,trial_stage,practice_trial,transition_type,choice,transition,reward,timestamp,subject_id
pavlovia,0,5,0.0-0.0,FALSE,FALSE,TRUE,FALSE,"
","
","
","
","
",NA,NA,NA,NA,NA,NA,NA,NA,NA,NA,NA,NA,NA,NA,NA,NA,NA,NA,NA,NA,NA,NA,sub85
html-keyboard-response,1,2141,0.0-1.0,FALSE,FALSE,TRUE,FALSE,"
","
","
","
","
",2134.6400000038557,Welcome! Press the space bar to begin.,32,NA,NA,NA,NA,NA,NA,NA,NA,NA,NA,NA,NA,NA,NA,NA,NA,NA,NA,NA,sub85
audio-keyboard-response,2,5346,0.0-2.0,FALSE,FALSE,TRUE,FALSE,"
","
","
","
","
",2879,audio/beep_loop.wav,32,NA,NA,NA,NA,NA,NA,NA,NA,NA,NA,NA,NA,NA,NA,NA,NA,NA,NA,NA,sub85
audio-button-response,3,8267,0.0-3.0,FALSE,FALSE,TRUE,FALSE,"
","
","
","
","
",NaN,audio/fish.mp3,NA,1,NA,NA,NA,NA,NA,NA,NA,NA,NA,NA,NA,NA,NA,NA,NA,NA,NA,NA,sub85
audio-button-response,4,11923,0.0-4.0,FALSE,FALSE,TRUE,FALSE,"""event"",""trial"",""time""
""fullscreenenter"",""5"",""20972""
","
","
","""event"",""trial"",""time""
""fullscreenenter"",""5"",""20972""
","
",NaN,audio/tiger.mp3,NA,4,NA,NA,NA,NA,NA,NA,NA,NA,NA,NA,NA,NA,NA,NA,NA,NA,NA,NA,sub85
fullscreen,5,21959,0.0-5.0,FALSE,FALSE,TRUE,FALSE,"""event"",""trial"",""time""
""fullscreenenter"",""5"",""20972""
","
","
","""event"",""trial"",""time""
""fullscreenenter"",""5"",""20972""
","
",NA,NA,NA,NA,TRUE,NA,NA,NA,NA,NA,NA,NA,NA,NA,NA,NA,NA,NA,NA,NA,NA,NA,sub85
d3-instructions,6,32099,0.0-6.0,FALSE,FALSE,TRUE,FALSE,"""event"",""trial"",""time""
""fullscreenenter"",""5"",""20972""
","
","
","""event"",""trial"",""time""
""fullscreenenter"",""5"",""20972""
","
",NA,NA,NA,NA,NA,NA,NA,NA,NA,NA,NA,NA,NA,NA,NA,NA,NA,NA,NA,NA,NA,NA,sub85
d3-instructions,7,40278,0.0-7.0,FALSE,FALSE,TRUE,FALSE,"""event"",""trial"",""time""
""fullscreenenter"",""5"",""20972""
","
","
","""event"",""trial"",""time""
""fullscreenenter"",""5"",""20972""
","
",NA,NA,NA,NA,NA,NA,NA,NA,NA,NA,NA,NA,NA,NA,NA,NA,NA,NA,NA,NA,NA,NA,sub85
d3-instructions,8,46105,0.0-8.0,FALSE,FALSE,TRUE,FALSE,"""event"",""trial"",""time""
""fullscreenenter"",""5"",""20972""
","
","
","""event"",""trial"",""time""
""fullscreenenter"",""5"",""20972""
","
",NA,NA,NA,NA,NA,NA,NA,NA,NA,NA,NA,NA,NA,NA,NA,NA,NA,NA,NA,NA,NA,NA,sub85
d3-instructions,9,54205,0.0-9.0,FALSE,FALSE,TRUE,FALSE,"""event"",""trial"",""time""
""fullscreenenter"",""5"",""20972""
","
","
","""event"",""trial"",""time""
""fullscreenenter"",""5"",""20972""
","
",NA,NA,NA,NA,NA,NA,NA,NA,NA,NA,NA,NA,NA,NA,NA,NA,NA,NA,NA,NA,NA,NA,sub85
d3-instructions,10,66805,0.0-10.0,FALSE,FALSE,TRUE,FALSE,"""event"",""trial"",""time""
""fullscreenenter"",""5"",""20972""
","
","
","""event"",""trial"",""time""
""fullscreenenter"",""5"",""20972""
","
",NA,NA,NA,NA,NA,NA,NA,NA,NA,NA,NA,NA,NA,NA,NA,NA,NA,NA,NA,NA,NA,NA,sub85
d3-animate-choice,11,70350,0.0-11.0,FALSE,FALSE,TRUE,FALSE,"""event"",""trial"",""time""
""fullscreenenter"",""5"",""20972""
","
","
","""event"",""trial"",""time""
""fullscreenenter"",""5"",""20972""
","
",1539.1099999833386,NA,49,NA,NA,3000,1,2900.199999974575,49,images/tutgreenplanet.jpg,images/tutalien1,images/tutalien2,null,images/tutalien2,NA,NA,practice,null,NA,NA,NA,NA,sub85
d3-animate-choice,12,76560,0.0-12.0,FALSE,FALSE,TRUE,FALSE,"""event"",""trial"",""time""
""fullscreenenter"",""5"",""20972""
","
","
","""event"",""trial"",""time""
""fullscreenenter"",""5"",""20972""
","
",1369.860000006156,NA,50,NA,NA,3000,1,"3293.8800000119954,4205.050000018673",5049,images/tutgreenplanet.jpg,images/tutalien1,images/tutalien2,null,images/tutalien2,NA,NA,practice,null,NA,NA,NA,NA,sub85
d3-animate-choice,13,79148,0.0-13.0,FALSE,FALSE,TRUE,FALSE,"""event"",""trial"",""time""
""fullscreenenter"",""5"",""20972""
","
","
","""event"",""trial"",""time""
""fullscreenenter"",""5"",""20972""
","
",582.2449999977835,NA,48,NA,NA,3000,1,NA,NA,images/tutgreenplanet.jpg,images/tutalien1,images/tutalien2,null,images/tutalien1,NA,NA,practice,null,NA,NA,NA,NA,sub85
d3-animate-choice,14,82633,0.0-14.0,FALSE,FALSE,TRUE,FALSE,"""event"",""trial"",""time""
""fullscreenenter"",""5"",""20972""
","
","
","""event"",""trial"",""time""
""fullscreenenter"",""5"",""20972""
","
",1482.1550000051502,NA,48,NA,NA,3000,1,NA,NA,images/tutgreenplanet.jpg,images/tutalien1,images/tutalien2,null,images/tutalien1,NA,NA,practice,null,NA,NA,NA,NA,sub85
d3-instructions,15,90138,0.0-15.0,FALSE,FALSE,TRUE,FALSE,"""event"",""trial"",""time""
""fullscreenenter"",""5"",""20972""
","
","
","""event"",""trial"",""time""
""fullscreenenter"",""5"",""20972""
","
",NA,NA,NA,NA,NA,NA,NA,NA,NA,NA,NA,NA,NA,NA,NA,NA,NA,NA,NA,NA,NA,NA,sub85
d3-instructions,16,94053,0.0-16.0,FALSE,FALSE,TRUE,FALSE,"""event"",""trial"",""time""
""fullscreenenter"",""5"",""20972""
","
","
","""event"",""trial"",""time""
""fullscreenenter"",""5"",""20972""
","
",NA,NA,NA,NA,NA,NA,NA,NA,NA,NA,NA,NA,NA,NA,NA,NA,NA,NA,NA,NA,NA,NA,sub85
d3-instructions,17,99914,0.0-17.0,FALSE,FALSE,TRUE,FALSE,"""event"",""trial"",""time""
""fullscreenenter"",""5"",""20972""
","
","
","""event"",""trial"",""time""
""fullscreenenter"",""5"",""20972""
","
",NA,NA,NA,NA,NA,NA,NA,NA,NA,NA,NA,NA,NA,NA,NA,NA,NA,NA,NA,NA,NA,NA,sub85
d3-instructions,18,107553,0.0-18.0,FALSE,FALSE,TRUE,FALSE,"""event"",""trial"",""time""
""fullscreenenter"",""5"",""20972""
","
","
","""event"",""trial"",""time""
""fullscreenenter"",""5"",""20972""
","
",NA,NA,NA,NA,NA,NA,NA,NA,NA,NA,NA,NA,NA,NA,NA,NA,NA,NA,NA,NA,NA,NA,sub85
d3-instructions,19,116576,0.0-19.0,FALSE,FALSE,TRUE,FALSE,"""event"",""trial"",""time""
""fullscreenenter"",""5"",""20972""
","
","
","""event"",""trial"",""time""
""fullscreenenter"",""5"",""20972""
","
",NA,NA,NA,NA,NA,NA,NA,NA,NA,NA,NA,NA,NA,NA,NA,NA,NA,NA,NA,NA,NA,NA,sub85
d3-animate-choice,20,119818,0.0-20.0,FALSE,FALSE,TRUE,FALSE,"""event"",""trial"",""time""
""fullscreenenter"",""5"",""20972""
","
","
","""event"",""trial"",""time""
""fullscreenenter"",""5"",""20972""
","
",1235.7999999949243,NA,49,NA,NA,3000,1,NA,NA,images/tutyellowplanet.jpg,null,images/tutalien3,null,images/tutalien3,images/nothing.png,NA,practice,null,NA,NA,NA,NA,sub85
d3-animate-choice,21,122166,0.0-21.0,FALSE,FALSE,TRUE,FALSE,"""event"",""trial"",""time""
""fullscreenenter"",""5"",""20972""
","
","
","""event"",""trial"",""time""
""fullscreenenter"",""5"",""20972""
","
",345.2300000062678,NA,49,NA,NA,3000,1,1841.58499998739,49,images/tutyellowplanet.jpg,null,images/tutalien3,null,images/tutalien3,images/t.png,NA,practice,null,NA,NA,NA,NA,sub85
d3-animate-choice,22,124508,0.0-22.0,FALSE,FALSE,TRUE,FALSE,"""event"",""trial"",""time""
""fullscreenenter"",""5"",""20972""
","
","
","""event"",""trial"",""time""
""fullscreenenter"",""5"",""20972""
","
",337.80000000842847,NA,49,NA,NA,3000,1,1777.8749999997672,49,images/tutyellowplanet.jpg,null,images/tutalien3,null,images/tutalien3,images/nothing.png,NA,practice,null,NA,NA,NA,NA,sub85
d3-animate-choice,23,126749,0.0-23.0,FALSE,FALSE,TRUE,FALSE,"""event"",""trial"",""time""
""fullscreenenter"",""5"",""20972""
","
","
","""event"",""trial"",""time""
""fullscreenenter"",""5"",""20972""
","
",233.8199999940116,NA,49,NA,NA,3000,1,1685.6400000106078,49,images/tutyellowplanet.jpg,null,images/tutalien3,null,images/tutalien3,images/t.png,NA,practice,null,NA,NA,NA,NA,sub85
d3-animate-choice,24,129007,0.0-24.0,FALSE,FALSE,TRUE,FALSE,"""event"",""trial"",""time""
""fullscreenenter"",""5"",""20972""
","
","
","""event"",""trial"",""time""
""fullscreenenter"",""5"",""20972""
","
",254.5749999990221,NA,49,NA,NA,3000,1,1762.1199999994133,49,images/tutyellowplanet.jpg,null,images/tutalien3,null,images/tutalien3,images/nothing.png,NA,practice,null,NA,NA,NA,NA,sub85
d3-animate-choice,25,131155,0.0-25.0,FALSE,FALSE,TRUE,FALSE,"""event"",""trial"",""time""
""fullscreenenter"",""5"",""20972""
","
","
","""event"",""trial"",""time""
""fullscreenenter"",""5"",""20972""
","
",145.15500000561588,NA,49,NA,NA,3000,1,1596.5050000231713,49,images/tutyellowplanet.jpg,null,images/tutalien3,null,images/tutalien3,images/nothing.png,NA,practice,null,NA,NA,NA,NA,sub85
d3-animate-choice,26,133517,0.0-26.0,FALSE,FALSE,TRUE,FALSE,"""event"",""trial"",""time""
""fullscreenenter"",""5"",""20972""
","
","
","""event"",""trial"",""time""
""fullscreenenter"",""5"",""20972""
","
",360.14500001329,NA,49,NA,NA,3000,1,1867.5550000043586,49,images/tutyellowplanet.jpg,null,images/tutalien3,null,images/tutalien3,images/t.png,NA,practice,null,NA,NA,NA,NA,sub85
d3-animate-choice,27,135622,0.0-27.0,FALSE,FALSE,TRUE,FALSE,"""event"",""trial"",""time""
""fullscreenenter"",""5"",""20972""
","
","
","""event"",""trial"",""time""
""fullscreenenter"",""5"",""20972""
","
",101.05500000645407,NA,49,NA,NA,3000,1,"1619.9499999929685,2081.1150000081398",4949,images/tutyellowplanet.jpg,null,images/tutalien3,null,images/tutalien3,images/t.png,NA,practice,null,NA,NA,NA,NA,sub85
d3-animate-choice,28,138131,0.0-28.0,FALSE,FALSE,TRUE,FALSE,"""event"",""trial"",""time""
""fullscreenenter"",""5"",""20972""
","
","
","""event"",""trial"",""time""
""fullscreenenter"",""5"",""20972""
","
",504.99000001582317,NA,49,NA,NA,3000,1,"1979.36500000651,2507.720000023255",4949,images/tutyellowplanet.jpg,null,images/tutalien3,null,images/tutalien3,images/nothing.png,NA,practice,null,NA,NA,NA,NA,sub85
d3-animate-choice,29,140605,0.0-29.0,FALSE,FALSE,TRUE,FALSE,"""event"",""trial"",""time""
""fullscreenenter"",""5"",""20972""
","
","
","""event"",""trial"",""time""
""fullscreenenter"",""5"",""20972""
","
",471.2149999977555,NA,49,NA,NA,3000,1,2170.255000004545,49,images/tutyellowplanet.jpg,null,images/tutalien3,null,images/tutalien3,images/t.png,NA,practice,null,NA,NA,NA,NA,sub85
d3-instructions,30,144532,0.0-30.0,FALSE,FALSE,TRUE,FALSE,"""event"",""trial"",""time""
""fullscreenenter"",""5"",""20972""
","
","
","""event"",""trial"",""time""
""fullscreenenter"",""5"",""20972""
","
",NA,NA,NA,NA,NA,NA,NA,NA,NA,NA,NA,NA,NA,NA,NA,NA,NA,NA,NA,NA,NA,NA,sub85
d3-instructions,31,150473,0.0-31.0,FALSE,FALSE,TRUE,FALSE,"""event"",""trial"",""time""
""fullscreenenter"",""5"",""20972""
","
","
","""event"",""trial"",""time""
""fullscreenenter"",""5"",""20972""
","
",NA,NA,NA,NA,NA,NA,NA,NA,NA,NA,NA,NA,NA,NA,NA,NA,NA,NA,NA,NA,NA,NA,sub85
d3-instructions,32,154061,0.0-32.0,FALSE,FALSE,TRUE,FALSE,"""event"",""trial"",""time""
""fullscreenenter"",""5"",""20972""
","
","
","""event"",""trial"",""time""
""fullscreenenter"",""5"",""20972""
","
",NA,NA,NA,NA,NA,NA,NA,NA,NA,NA,NA,NA,NA,NA,NA,NA,NA,NA,NA,NA,NA,NA,sub85
d3-instructions,33,157706,0.0-33.0,FALSE,FALSE,TRUE,FALSE,"""event"",""trial"",""time""
""fullscreenenter"",""5"",""20972""
","
","
","""event"",""trial"",""time""
""fullscreenenter"",""5"",""20972""
","
",NA,NA,NA,NA,NA,NA,NA,NA,NA,NA,NA,NA,NA,NA,NA,NA,NA,NA,NA,NA,NA,NA,sub85
d3-animate-choice,34,162407,0.0-34.0,FALSE,FALSE,TRUE,FALSE,"""event"",""trial"",""time""
""fullscreenenter"",""5"",""20972""
","
","
","""event"",""trial"",""time""
""fullscreenenter"",""5"",""20972""
","
",2698.675000021467,NA,49,NA,NA,3000,1,NA,NA,images/tutgreenplanet.jpg,images/tutalien1,images/tutalien2,null,images/tutalien2,images/nothing.png,NA,practice,null,NA,NA,NA,NA,sub85
d3-animate-choice,35,164850,0.0-35.0,FALSE,FALSE,TRUE,FALSE,"""event"",""trial"",""time""
""fullscreenenter"",""5"",""20972""
","
","
","""event"",""trial"",""time""
""fullscreenenter"",""5"",""20972""
","
",439.089999999851,NA,49,NA,NA,3000,1,1991.5700000128709,49,images/tutgreenplanet.jpg,images/tutalien1,images/tutalien2,null,images/tutalien2,images/t.png,NA,practice,null,NA,NA,NA,NA,sub85
d3-animate-choice,36,167182,0.0-36.0,FALSE,FALSE,TRUE,FALSE,"""event"",""trial"",""time""
""fullscreenenter"",""5"",""20972""
","
","
","""event"",""trial"",""time""
""fullscreenenter"",""5"",""20972""
","
",325.37999999476597,NA,49,NA,NA,3000,1,NA,NA,images/tutgreenplanet.jpg,images/tutalien1,images/tutalien2,null,images/tutalien2,images/t.png,NA,practice,null,NA,NA,NA,NA,sub85
d3-animate-choice,37,170069,0.0-37.0,FALSE,FALSE,TRUE,FALSE,"""event"",""trial"",""time""
""fullscreenenter"",""5"",""20972""
","
","
","""event"",""trial"",""time""
""fullscreenenter"",""5"",""20972""
","
",884.5900000014808,NA,49,NA,NA,3000,1,NA,NA,images/tutgreenplanet.jpg,images/tutalien1,images/tutalien2,null,images/tutalien2,images/t.png,NA,practice,null,NA,NA,NA,NA,sub85
d3-animate-choice,38,172490,0.0-38.0,FALSE,FALSE,TRUE,FALSE,"""event"",""trial"",""time""
""fullscreenenter"",""5"",""20972""
","
","
","""event"",""trial"",""time""
""fullscreenenter"",""5"",""20972""
","
",415.8250000036787,NA,49,NA,NA,3000,1,2013.1600000022445,49,images/tutgreenplanet.jpg,images/tutalien1,images/tutalien2,null,images/tutalien2,images/t.png,NA,practice,null,NA,NA,NA,NA,sub85
d3-animate-choice,39,174817,0.0-39.0,FALSE,FALSE,TRUE,FALSE,"""event"",""trial"",""time""
""fullscreenenter"",""5"",""20972""
","
","
","""event"",""trial"",""time""
""fullscreenenter"",""5"",""20972""
","
",323.6650000035297,NA,49,NA,NA,3000,1,NA,NA,images/tutgreenplanet.jpg,images/tutalien1,images/tutalien2,null,images/tutalien2,images/nothing.png,NA,practice,null,NA,NA,NA,NA,sub85
d3-animate-choice,40,183942,0.0-40.0,FALSE,FALSE,TRUE,FALSE,"""event"",""trial"",""time""
""fullscreenenter"",""5"",""20972""
","
","
","""event"",""trial"",""time""
""fullscreenenter"",""5"",""20972""
","
",7121.050000016112,NA,48,NA,NA,3000,1,NA,NA,images/tutgreenplanet.jpg,images/tutalien1,images/tutalien2,null,images/tutalien1,images/nothing.png,NA,practice,null,NA,NA,NA,NA,sub85
d3-animate-choice,41,186236,0.0-41.0,FALSE,FALSE,TRUE,FALSE,"""event"",""trial"",""time""
""fullscreenenter"",""5"",""20972""
","
","
","""event"",""trial"",""time""
""fullscreenenter"",""5"",""20972""
","
",291.0200000042096,NA,48,NA,NA,3000,1,NA,NA,images/tutgreenplanet.jpg,images/tutalien1,images/tutalien2,null,images/tutalien1,images/nothing.png,NA,practice,null,NA,NA,NA,NA,sub85
d3-animate-choice,42,188632,0.0-42.0,FALSE,FALSE,TRUE,FALSE,"""event"",""trial"",""time""
""fullscreenenter"",""5"",""20972""
","
","
","""event"",""trial"",""time""
""fullscreenenter"",""5"",""20972""
","
",393.33500000066124,NA,48,NA,NA,3000,1,NA,NA,images/tutgreenplanet.jpg,images/tutalien1,images/tutalien2,null,images/tutalien1,images/nothing.png,NA,practice,null,NA,NA,NA,NA,sub85
d3-animate-choice,43,190974,0.0-43.0,FALSE,FALSE,TRUE,FALSE,"""event"",""trial"",""time""
""fullscreenenter"",""5"",""20972""
","
","
","""event"",""trial"",""time""
""fullscreenenter"",""5"",""20972""
","
",336.86999999918044,NA,48,NA,NA,3000,1,NA,NA,images/tutgreenplanet.jpg,images/tutalien1,images/tutalien2,null,images/tutalien1,images/nothing.png,NA,practice,null,NA,NA,NA,NA,sub85
d3-instructions,44,199512,0.0-44.0,FALSE,FALSE,TRUE,FALSE,"""event"",""trial"",""time""
""fullscreenenter"",""5"",""20972""
","
","
","""event"",""trial"",""time""
""fullscreenenter"",""5"",""20972""
","
",NA,NA,NA,NA,NA,NA,NA,NA,NA,NA,NA,NA,NA,NA,NA,NA,NA,NA,NA,NA,NA,NA,sub85
d3-instructions,45,203078,0.0-45.0,FALSE,FALSE,TRUE,FALSE,"""event"",""trial"",""time""
""fullscreenenter"",""5"",""20972""
","
","
","""event"",""trial"",""time""
""fullscreenenter"",""5"",""20972""
","
",NA,NA,NA,NA,NA,NA,NA,NA,NA,NA,NA,NA,NA,NA,NA,NA,NA,NA,NA,NA,NA,NA,sub85
d3-instructions,46,207600,0.0-46.0,FALSE,FALSE,TRUE,FALSE,"""event"",""trial"",""time""
""fullscreenenter"",""5"",""20972""
","
","
","""event"",""trial"",""time""
""fullscreenenter"",""5"",""20972""
","
",NA,NA,NA,NA,NA,NA,NA,NA,NA,NA,NA,NA,NA,NA,NA,NA,NA,NA,NA,NA,NA,NA,sub85
d3-instructions,47,215386,0.0-47.0,FALSE,FALSE,TRUE,FALSE,"""event"",""trial"",""time""
""fullscreenenter"",""5"",""20972""
","
","
","""event"",""trial"",""time""
""fullscreenenter"",""5"",""20972""
","
",NA,NA,NA,NA,NA,NA,NA,NA,NA,NA,NA,NA,NA,NA,NA,NA,NA,NA,NA,NA,NA,NA,sub85
d3-instructions,48,219019,0.0-48.0,FALSE,FALSE,TRUE,FALSE,"""event"",""trial"",""time""
""fullscreenenter"",""5"",""20972""
","
","
","""event"",""trial"",""time""
""fullscreenenter"",""5"",""20972""
","
",NA,NA,NA,NA,NA,NA,NA,NA,NA,NA,NA,NA,NA,NA,NA,NA,NA,NA,NA,NA,NA,NA,sub85
d3-instructions,49,225736,0.0-49.0,FALSE,FALSE,TRUE,FALSE,"""event"",""trial"",""time""
""fullscreenenter"",""5"",""20972""
","
","
","""event"",""trial"",""time""
""fullscreenenter"",""5"",""20972""
","
",NA,NA,NA,NA,NA,NA,NA,NA,NA,NA,NA,NA,NA,NA,NA,NA,NA,NA,NA,NA,NA,NA,sub85
d3-instructions,50,230427,0.0-50.0,FALSE,FALSE,TRUE,FALSE,"""event"",""trial"",""time""
""fullscreenenter"",""5"",""20972""
","
","
","""event"",""trial"",""time""
""fullscreenenter"",""5"",""20972""
","
",NA,NA,NA,NA,NA,NA,NA,NA,NA,NA,NA,NA,NA,NA,NA,NA,NA,NA,NA,NA,NA,NA,sub85
d3-instructions,51,232452,0.0-51.0,FALSE,FALSE,TRUE,FALSE,"""event"",""trial"",""time""
""fullscreenenter"",""5"",""20972""
","
","
","""event"",""trial"",""time""
""fullscreenenter"",""5"",""20972""
","
",NA,NA,NA,NA,NA,NA,NA,NA,NA,NA,NA,NA,NA,NA,NA,NA,NA,NA,NA,NA,NA,NA,sub85
d3-instructions,52,235310,0.0-52.0,FALSE,FALSE,TRUE,FALSE,"""event"",""trial"",""time""
""fullscreenenter"",""5"",""20972""
","
","
","""event"",""trial"",""time""
""fullscreenenter"",""5"",""20972""
","
",NA,NA,NA,NA,NA,NA,NA,NA,NA,NA,NA,NA,NA,NA,NA,NA,NA,NA,NA,NA,NA,NA,sub85
d3-instructions,53,241925,0.0-53.0,FALSE,FALSE,TRUE,FALSE,"""event"",""trial"",""time""
""fullscreenenter"",""5"",""20972""
","
","
","""event"",""trial"",""time""
""fullscreenenter"",""5"",""20972""
","
",NA,NA,NA,NA,NA,NA,NA,NA,NA,NA,NA,NA,NA,NA,NA,NA,NA,NA,NA,NA,NA,NA,sub85
d3-instructions,54,252849,0.0-54.0,FALSE,FALSE,TRUE,FALSE,"""event"",""trial"",""time""
""fullscreenenter"",""5"",""20972""
","
","
","""event"",""trial"",""time""
""fullscreenenter"",""5"",""20972""
","
",NA,NA,NA,NA,NA,NA,NA,NA,NA,NA,NA,NA,NA,NA,NA,NA,NA,NA,NA,NA,NA,NA,sub85
d3-instructions,55,259047,0.0-55.0,FALSE,FALSE,TRUE,FALSE,"""event"",""trial"",""time""
""fullscreenenter"",""5"",""20972""
","
","
","""event"",""trial"",""time""
""fullscreenenter"",""5"",""20972""
","
",NA,NA,NA,NA,NA,NA,NA,NA,NA,NA,NA,NA,NA,NA,NA,NA,NA,NA,NA,NA,NA,NA,sub85
d3-instructions,56,264796,0.0-56.0,FALSE,FALSE,TRUE,FALSE,"""event"",""trial"",""time""
""fullscreenenter"",""5"",""20972""
","
","
","""event"",""trial"",""time""
""fullscreenenter"",""5"",""20972""
","
",NA,NA,NA,NA,NA,NA,NA,NA,NA,NA,NA,NA,NA,NA,NA,NA,NA,NA,NA,NA,NA,NA,sub85
d3-instructions,57,270837,0.0-57.0,FALSE,FALSE,TRUE,FALSE,"""event"",""trial"",""time""
""fullscreenenter"",""5"",""20972""
","
","
","""event"",""trial"",""time""
""fullscreenenter"",""5"",""20972""
","
",NA,NA,NA,NA,NA,NA,NA,NA,NA,NA,NA,NA,NA,NA,NA,NA,NA,NA,NA,NA,NA,NA,sub85
d3-instructions,58,347249,0.0-58.0,FALSE,FALSE,TRUE,FALSE,"""event"",""trial"",""time""
""fullscreenenter"",""5"",""20972""
","
","
","""event"",""trial"",""time""
""fullscreenenter"",""5"",""20972""
","
",NA,NA,NA,NA,NA,NA,NA,NA,NA,NA,NA,NA,NA,NA,NA,NA,NA,NA,NA,NA,NA,NA,sub85
d3-instructions,59,352682,0.0-59.0,FALSE,FALSE,TRUE,FALSE,"""event"",""trial"",""time""
""fullscreenenter"",""5"",""20972""
","
","
","""event"",""trial"",""time""
""fullscreenenter"",""5"",""20972""
","
",NA,NA,NA,NA,NA,NA,NA,NA,NA,NA,NA,NA,NA,NA,NA,NA,NA,NA,NA,NA,NA,NA,sub85
d3-instructions,60,355258,0.0-60.0,FALSE,FALSE,TRUE,FALSE,"""event"",""trial"",""time""
""fullscreenenter"",""5"",""20972""
","
","
","""event"",""trial"",""time""
""fullscreenenter"",""5"",""20972""
","
",NA,NA,NA,NA,NA,NA,NA,NA,NA,NA,NA,NA,NA,NA,NA,NA,NA,NA,NA,NA,NA,NA,sub85
d3-animate-choice,61,359262,0.0-61.0-0.0,FALSE,FALSE,TRUE,FALSE,"""event"",""trial"",""time""
""fullscreenenter"",""5"",""20972""
","
","
","""event"",""trial"",""time""
""fullscreenenter"",""5"",""20972""
","
",2619.299999991199,NA,49,NA,NA,3000,1,NA,NA,images/earth.jpg,images/tutrocket2,images/tutrocket1,null,images/tutrocket1,NA,1,practice,null,1,NA,NA,NA,sub85
d3-animate-choice,62,363267,0.0-61.0-1.0,FALSE,FALSE,TRUE,FALSE,"""event"",""trial"",""time""
""fullscreenenter"",""5"",""20972""
","
","
","""event"",""trial"",""time""
""fullscreenenter"",""5"",""20972""
","
",2136.594999989029,NA,49,NA,NA,3000,1,NA,NA,images/tutyellowplanet.jpg,images/tutalien4,images/tutalien3,images/tutrocket1,images/tutalien3,images/nothing.png,2,practice,true,1,common,0,2020-06-17T00:41:49Z,sub85
two-step-fixation,63,364274,0.0-61.0-2.0,FALSE,FALSE,TRUE,FALSE,"""event"",""trial"",""time""
""fullscreenenter"",""5"",""20972""
","
","
","""event"",""trial"",""time""
""fullscreenenter"",""5"",""20972""
","
",NA,images/earth.jpg,NA,NA,NA,NA,NA,NA,NA,NA,NA,NA,NA,NA,NA,fixation,NA,NA,NA,NA,NA,NA,sub85
d3-animate-choice,64,367781,0.0-61.0-0.1,FALSE,FALSE,TRUE,FALSE,"""event"",""trial"",""time""
""fullscreenenter"",""5"",""20972""
","
","
","""event"",""trial"",""time""
""fullscreenenter"",""5"",""20972""
","
",1501.9899999897461,NA,49,NA,NA,3000,1,NA,NA,images/earth.jpg,images/tutrocket2,images/tutrocket1,null,images/tutrocket1,NA,1,practice,null,1,NA,NA,NA,sub85
d3-animate-choice,65,371786,0.0-61.0-1.1,FALSE,FALSE,TRUE,FALSE,"""event"",""trial"",""time""
""fullscreenenter"",""5"",""20972""
","
","
","""event"",""trial"",""time""
""fullscreenenter"",""5"",""20972""
","
",2877.299999992829,NA,48,NA,NA,3000,1,NA,NA,images/tutyellowplanet.jpg,images/tutalien4,images/tutalien3,images/tutrocket1,images/tutalien4,NA,2,practice,true,2,common,0,2020-06-17T00:41:58Z,sub85
two-step-fixation,66,372791,0.0-61.0-2.1,FALSE,FALSE,TRUE,FALSE,"""event"",""trial"",""time""
""fullscreenenter"",""5"",""20972""
","
","
","""event"",""trial"",""time""
""fullscreenenter"",""5"",""20972""
","
",NA,images/earth.jpg,NA,NA,NA,NA,NA,NA,NA,NA,NA,NA,NA,NA,NA,fixation,NA,NA,NA,NA,NA,NA,sub85
d3-animate-choice,67,376796,0.0-61.0-0.2,FALSE,FALSE,TRUE,FALSE,"""event"",""trial"",""time""
""fullscreenenter"",""5"",""20972""
","
","
","""event"",""trial"",""time""
""fullscreenenter"",""5"",""20972""
","
",null,NA,null,NA,NA,3000,0,NA,NA,images/earth.jpg,images/tutrocket2,images/tutrocket1,null,NA,NA,1,practice,null,NA,NA,NA,NA,sub85
d3-animate-choice,68,377803,0.0-61.0-1.2,FALSE,FALSE,TRUE,FALSE,"""event"",""trial"",""time""
""fullscreenenter"",""5"",""20972""
","
","
","""event"",""trial"",""time""
""fullscreenenter"",""5"",""20972""
","
",null,NA,null,NA,NA,0,0,NA,NA,images/earth.jpg,images/tutrocket2,images/tutrocket1,null,NA,NA,2,practice,null,NA,NA,0,2020-06-17T00:42:04Z,sub85
two-step-fixation,69,378804,0.0-61.0-2.2,FALSE,FALSE,TRUE,FALSE,"""event"",""trial"",""time""
""fullscreenenter"",""5"",""20972""
","
","
","""event"",""trial"",""time""
""fullscreenenter"",""5"",""20972""
","
",NA,images/earth.jpg,NA,NA,NA,NA,NA,NA,NA,NA,NA,NA,NA,NA,NA,fixation,NA,NA,NA,NA,NA,NA,sub85
d3-animate-choice,70,382809,0.0-61.0-0.3,FALSE,FALSE,TRUE,FALSE,"""event"",""trial"",""time""
""fullscreenenter"",""5"",""20972""
","
","
","""event"",""trial"",""time""
""fullscreenenter"",""5"",""20972""
","
",3183.1250000104774,NA,48,NA,NA,3000,0,NA,NA,images/earth.jpg,images/tutrocket2,images/tutrocket1,null,NA,NA,1,practice,null,2,NA,NA,NA,sub85
d3-animate-choice,71,383817,0.0-61.0-1.3,FALSE,FALSE,TRUE,FALSE,"""event"",""trial"",""time""
""fullscreenenter"",""5"",""20972""
","
","
","""event"",""trial"",""time""
""fullscreenenter"",""5"",""20972""
","
",null,NA,null,NA,NA,0,0,NA,NA,images/earth.jpg,images/tutrocket2,images/tutrocket1,null,NA,NA,2,practice,null,NA,NA,0,2020-06-17T00:42:10Z,sub85
two-step-fixation,72,384821,0.0-61.0-2.3,FALSE,FALSE,TRUE,FALSE,"""event"",""trial"",""time""
""fullscreenenter"",""5"",""20972""
","
","
","""event"",""trial"",""time""
""fullscreenenter"",""5"",""20972""
","
",NA,images/earth.jpg,NA,NA,NA,NA,NA,NA,NA,NA,NA,NA,NA,NA,NA,fixation,NA,NA,NA,NA,NA,NA,sub85
d3-animate-choice,73,387634,0.0-61.0-0.4,FALSE,FALSE,TRUE,FALSE,"""event"",""trial"",""time""
""fullscreenenter"",""5"",""20972""
","
","
","""event"",""trial"",""time""
""fullscreenenter"",""5"",""20972""
","
",811.569999990752,NA,48,NA,NA,3000,1,NA,NA,images/earth.jpg,images/tutrocket2,images/tutrocket1,null,images/tutrocket2,NA,1,practice,null,2,NA,NA,NA,sub85
d3-animate-choice,74,390574,0.0-61.0-1.4,FALSE,FALSE,TRUE,FALSE,"""event"",""trial"",""time""
""fullscreenenter"",""5"",""20972""
","
","
","""event"",""trial"",""time""
""fullscreenenter"",""5"",""20972""
","
",933.9150000014342,NA,48,NA,NA,3000,1,NA,NA,images/tutyellowplanet.jpg,images/tutalien4,images/tutalien3,images/tutrocket2,images/tutalien4,images/nothing.png,2,practice,false,2,rare,0,2020-06-17T00:42:16Z,sub85
two-step-fixation,75,391580,0.0-61.0-2.4,FALSE,FALSE,TRUE,FALSE,"""event"",""trial"",""time""
""fullscreenenter"",""5"",""20972""
","
","
","""event"",""trial"",""time""
""fullscreenenter"",""5"",""20972""
","
",NA,images/earth.jpg,NA,NA,NA,NA,NA,NA,NA,NA,NA,NA,NA,NA,NA,fixation,NA,NA,NA,NA,NA,NA,sub85
d3-animate-choice,76,395512,0.0-61.0-0.5,FALSE,FALSE,TRUE,FALSE,"""event"",""trial"",""time""
""fullscreenenter"",""5"",""20972""
","
","
","""event"",""trial"",""time""
""fullscreenenter"",""5"",""20972""
","
",1927.9750000278,NA,49,NA,NA,3000,1,NA,NA,images/earth.jpg,images/tutrocket2,images/tutrocket1,null,images/tutrocket1,NA,1,practice,null,1,NA,NA,NA,sub85
d3-animate-choice,77,398166,0.0-61.0-1.5,FALSE,FALSE,TRUE,FALSE,"""event"",""trial"",""time""
""fullscreenenter"",""5"",""20972""
","
","
","""event"",""trial"",""time""
""fullscreenenter"",""5"",""20972""
","
",650.5400000023656,NA,49,NA,NA,3000,1,NA,NA,images/tutyellowplanet.jpg,images/tutalien4,images/tutalien3,images/tutrocket1,images/tutalien3,images/t.png,2,practice,true,1,common,1,2020-06-17T00:42:24Z,sub85
two-step-fixation,78,399169,0.0-61.0-2.5,FALSE,FALSE,TRUE,FALSE,"""event"",""trial"",""time""
""fullscreenenter"",""5"",""20972""
","
","
","""event"",""trial"",""time""
""fullscreenenter"",""5"",""20972""
","
",NA,images/earth.jpg,NA,NA,NA,NA,NA,NA,NA,NA,NA,NA,NA,NA,NA,fixation,NA,NA,NA,NA,NA,NA,sub85
d3-animate-choice,79,402296,0.0-61.0-0.6,FALSE,FALSE,TRUE,FALSE,"""event"",""trial"",""time""
""fullscreenenter"",""5"",""20972""
","
","
","""event"",""trial"",""time""
""fullscreenenter"",""5"",""20972""
","
",1121.694999979809,NA,48,NA,NA,3000,1,NA,NA,images/earth.jpg,images/tutrocket2,images/tutrocket1,null,images/tutrocket2,NA,1,practice,null,2,NA,NA,NA,sub85
d3-animate-choice,80,404701,0.0-61.0-1.6,FALSE,FALSE,TRUE,FALSE,"""event"",""trial"",""time""
""fullscreenenter"",""5"",""20972""
","
","
","""event"",""trial"",""time""
""fullscreenenter"",""5"",""20972""
","
",403.0999999959022,NA,48,NA,NA,3000,1,NA,NA,images/tutyellowplanet.jpg,images/tutalien4,images/tutalien3,images/tutrocket2,images/tutalien4,images/t.png,2,practice,false,2,rare,1,2020-06-17T00:42:31Z,sub85
two-step-fixation,81,405707,0.0-61.0-2.6,FALSE,FALSE,TRUE,FALSE,"""event"",""trial"",""time""
""fullscreenenter"",""5"",""20972""
","
","
","""event"",""trial"",""time""
""fullscreenenter"",""5"",""20972""
","
",NA,images/earth.jpg,NA,NA,NA,NA,NA,NA,NA,NA,NA,NA,NA,NA,NA,fixation,NA,NA,NA,NA,NA,NA,sub85
d3-animate-choice,82,408077,0.0-61.0-0.7,FALSE,FALSE,TRUE,FALSE,"""event"",""trial"",""time""
""fullscreenenter"",""5"",""20972""
","
","
","""event"",""trial"",""time""
""fullscreenenter"",""5"",""20972""
","
",367.0799999963492,NA,48,NA,NA,3000,1,2076.8849999876693,48,images/earth.jpg,images/tutrocket2,images/tutrocket1,null,images/tutrocket2,NA,1,practice,null,2,NA,NA,NA,sub85
d3-animate-choice,83,410517,0.0-61.0-1.7,FALSE,FALSE,TRUE,FALSE,"""event"",""trial"",""time""
""fullscreenenter"",""5"",""20972""
","
","
","""event"",""trial"",""time""
""fullscreenenter"",""5"",""20972""
","
",438.1449999928009,NA,48,NA,NA,3000,1,NA,NA,images/tutgreenplanet.jpg,images/tutalien2,images/tutalien1,images/tutrocket2,images/tutalien2,images/t.png,2,practice,true,2,common,1,2020-06-17T00:42:36Z,sub85
two-step-fixation,84,411522,0.0-61.0-2.7,FALSE,FALSE,TRUE,FALSE,"""event"",""trial"",""time""
""fullscreenenter"",""5"",""20972""
","
","
","""event"",""trial"",""time""
""fullscreenenter"",""5"",""20972""
","
",NA,images/earth.jpg,NA,NA,NA,NA,NA,NA,NA,NA,NA,NA,NA,NA,NA,fixation,NA,NA,NA,NA,NA,NA,sub85
d3-animate-choice,85,415531,0.0-61.0-0.8,FALSE,FALSE,TRUE,FALSE,"""event"",""trial"",""time""
""fullscreenenter"",""5"",""20972""
","
","
","""event"",""trial"",""time""
""fullscreenenter"",""5"",""20972""
","
",null,NA,null,NA,NA,3000,0,NA,NA,images/earth.jpg,images/tutrocket2,images/tutrocket1,null,NA,NA,1,practice,null,NA,NA,NA,NA,sub85
d3-animate-choice,86,416539,0.0-61.0-1.8,FALSE,FALSE,TRUE,FALSE,"""event"",""trial"",""time""
""fullscreenenter"",""5"",""20972""
","
","
","""event"",""trial"",""time""
""fullscreenenter"",""5"",""20972""
","
",509.79500001994893,NA,49,NA,NA,0,0,NA,NA,images/earth.jpg,images/tutrocket2,images/tutrocket1,null,NA,NA,2,practice,null,1,NA,0,2020-06-17T00:42:42Z,sub85
two-step-fixation,87,417543,0.0-61.0-2.8,FALSE,FALSE,TRUE,FALSE,"""event"",""trial"",""time""
""fullscreenenter"",""5"",""20972""
","
","
","""event"",""trial"",""time""
""fullscreenenter"",""5"",""20972""
","
",NA,images/earth.jpg,NA,NA,NA,NA,NA,NA,NA,NA,NA,NA,NA,NA,NA,fixation,NA,NA,NA,NA,NA,NA,sub85
d3-animate-choice,88,420048,0.0-61.0-0.9,FALSE,FALSE,TRUE,FALSE,"""event"",""trial"",""time""
""fullscreenenter"",""5"",""20972""
","
","
","""event"",""trial"",""time""
""fullscreenenter"",""5"",""20972""
","
",501.17999999201857,NA,49,NA,NA,3000,1,860.964999999851,49,images/earth.jpg,images/tutrocket2,images/tutrocket1,null,images/tutrocket1,NA,1,practice,null,1,NA,NA,NA,sub85
d3-animate-choice,89,424054,0.0-61.0-1.9,FALSE,FALSE,TRUE,FALSE,"""event"",""trial"",""time""
""fullscreenenter"",""5"",""20972""
","
","
","""event"",""trial"",""time""
""fullscreenenter"",""5"",""20972""
","
",2528.9099999936298,NA,49,NA,NA,3000,1,NA,NA,images/tutyellowplanet.jpg,images/tutalien4,images/tutalien3,images/tutrocket1,images/tutalien3,images/nothing.png,2,practice,true,1,common,0,2020-06-17T00:42:50Z,sub85
two-step-fixation,90,425057,0.0-61.0-2.9,FALSE,FALSE,TRUE,FALSE,"""event"",""trial"",""time""
""fullscreenenter"",""5"",""20972""
","
","
","""event"",""trial"",""time""
""fullscreenenter"",""5"",""20972""
","
",NA,images/earth.jpg,NA,NA,NA,NA,NA,NA,NA,NA,NA,NA,NA,NA,NA,fixation,NA,NA,NA,NA,NA,NA,sub85
d3-animate-choice,91,429063,0.0-61.0-0.10,FALSE,FALSE,TRUE,FALSE,"""event"",""trial"",""time""
""fullscreenenter"",""5"",""20972""
","
","
","""event"",""trial"",""time""
""fullscreenenter"",""5"",""20972""
","
",3247.2499999857973,NA,49,NA,NA,3000,0,NA,NA,images/earth.jpg,images/tutrocket2,images/tutrocket1,null,NA,NA,1,practice,null,1,NA,NA,NA,sub85
d3-animate-choice,92,430071,0.0-61.0-1.10,FALSE,FALSE,TRUE,FALSE,"""event"",""trial"",""time""
""fullscreenenter"",""5"",""20972""
","
","
","""event"",""trial"",""time""
""fullscreenenter"",""5"",""20972""
","
",null,NA,null,NA,NA,0,0,NA,NA,images/earth.jpg,images/tutrocket2,images/tutrocket1,null,NA,NA,2,practice,null,NA,NA,0,2020-06-17T00:42:56Z,sub85
two-step-fixation,93,431074,0.0-61.0-2.10,FALSE,FALSE,TRUE,FALSE,"""event"",""trial"",""time""
""fullscreenenter"",""5"",""20972""
","
","
","""event"",""trial"",""time""
""fullscreenenter"",""5"",""20972""
","
",NA,images/earth.jpg,NA,NA,NA,NA,NA,NA,NA,NA,NA,NA,NA,NA,NA,fixation,NA,NA,NA,NA,NA,NA,sub85
d3-animate-choice,94,434631,0.0-61.0-0.11,FALSE,FALSE,TRUE,FALSE,"""event"",""trial"",""time""
""fullscreenenter"",""5"",""20972""
","
","
","""event"",""trial"",""time""
""fullscreenenter"",""5"",""20972""
","
",1549.6600000187755,NA,48,NA,NA,3000,1,NA,NA,images/earth.jpg,images/tutrocket2,images/tutrocket1,null,images/tutrocket2,NA,1,practice,null,2,NA,NA,NA,sub85
d3-animate-choice,95,438641,0.0-61.0-1.11,FALSE,FALSE,TRUE,FALSE,"""event"",""trial"",""time""
""fullscreenenter"",""5"",""20972""
","
","
","""event"",""trial"",""time""
""fullscreenenter"",""5"",""20972""
","
",2346.6800000169314,NA,48,NA,NA,3000,1,NA,NA,images/tutgreenplanet.jpg,images/tutalien2,images/tutalien1,images/tutrocket2,images/tutalien2,images/t.png,2,practice,true,2,common,1,2020-06-17T00:43:04Z,sub85
two-step-fixation,96,439645,0.0-61.0-2.11,FALSE,FALSE,TRUE,FALSE,"""event"",""trial"",""time""
""fullscreenenter"",""5"",""20972""
","
","
","""event"",""trial"",""time""
""fullscreenenter"",""5"",""20972""
","
",NA,images/earth.jpg,NA,NA,NA,NA,NA,NA,NA,NA,NA,NA,NA,NA,NA,fixation,NA,NA,NA,NA,NA,NA,sub85
d3-animate-choice,97,443656,0.0-61.0-0.12,FALSE,FALSE,TRUE,FALSE,"""event"",""trial"",""time""
""fullscreenenter"",""5"",""20972""
","
","
","""event"",""trial"",""time""
""fullscreenenter"",""5"",""20972""
","
",2631.8650000030175,NA,48,NA,NA,3000,1,NA,NA,images/earth.jpg,images/tutrocket2,images/tutrocket1,null,images/tutrocket2,NA,1,practice,null,2,NA,NA,NA,sub85
d3-animate-choice,98,446173,0.0-61.0-1.12,FALSE,FALSE,TRUE,FALSE,"""event"",""trial"",""time""
""fullscreenenter"",""5"",""20972""
","
","
","""event"",""trial"",""time""
""fullscreenenter"",""5"",""20972""
","
",510.1149999827612,NA,48,NA,NA,3000,1,NA,NA,images/tutyellowplanet.jpg,images/tutalien4,images/tutalien3,images/tutrocket2,images/tutalien4,images/nothing.png,2,practice,false,2,rare,0,2020-06-17T00:43:12Z,sub85
two-step-fixation,99,447179,0.0-61.0-2.12,FALSE,FALSE,TRUE,FALSE,"""event"",""trial"",""time""
""fullscreenenter"",""5"",""20972""
","
","
","""event"",""trial"",""time""
""fullscreenenter"",""5"",""20972""
","
",NA,images/earth.jpg,NA,NA,NA,NA,NA,NA,NA,NA,NA,NA,NA,NA,NA,fixation,NA,NA,NA,NA,NA,NA,sub85
d3-animate-choice,100,451185,0.0-61.0-0.13,FALSE,FALSE,TRUE,FALSE,"""event"",""trial"",""time""
""fullscreenenter"",""5"",""20972""
","
","
","""event"",""trial"",""time""
""fullscreenenter"",""5"",""20972""
","
",3377.44000001112,NA,48,NA,NA,3000,0,NA,NA,images/earth.jpg,images/tutrocket2,images/tutrocket1,null,NA,NA,1,practice,null,2,NA,NA,NA,sub85
d3-animate-choice,101,452191,0.0-61.0-1.13,FALSE,FALSE,TRUE,FALSE,"""event"",""trial"",""time""
""fullscreenenter"",""5"",""20972""
","
","
","""event"",""trial"",""time""
""fullscreenenter"",""5"",""20972""
","
",null,NA,null,NA,NA,0,0,NA,NA,images/earth.jpg,images/tutrocket2,images/tutrocket1,null,NA,NA,2,practice,null,NA,NA,0,2020-06-17T00:43:18Z,sub85
two-step-fixation,102,453194,0.0-61.0-2.13,FALSE,FALSE,TRUE,FALSE,"""event"",""trial"",""time""
""fullscreenenter"",""5"",""20972""
","
","
","""event"",""trial"",""time""
""fullscreenenter"",""5"",""20972""
","
",NA,images/earth.jpg,NA,NA,NA,NA,NA,NA,NA,NA,NA,NA,NA,NA,NA,fixation,NA,NA,NA,NA,NA,NA,sub85
d3-animate-choice,103,455567,0.0-61.0-0.14,FALSE,FALSE,TRUE,FALSE,"""event"",""trial"",""time""
""fullscreenenter"",""5"",""20972""
","
","
","""event"",""trial"",""time""
""fullscreenenter"",""5"",""20972""
","
",366.49499999475665,NA,48,NA,NA,3000,1,"591.4699999848381,827.644999983022,1007.7449999807868,1232.8299999935552,1424.139999988256,1626.414999976987,1817.719999991823,2031.4499999803957,2245.2249999914784",484848484848484800,images/earth.jpg,images/tutrocket2,images/tutrocket1,null,images/tutrocket2,NA,1,practice,null,2,NA,NA,NA,sub85
d3-animate-choice,104,457660,0.0-61.0-1.14,FALSE,FALSE,TRUE,FALSE,"""event"",""trial"",""time""
""fullscreenenter"",""5"",""20972""
","
","
","""event"",""trial"",""time""
""fullscreenenter"",""5"",""20972""
","
",85.40499999071471,NA,48,NA,NA,3000,1,"299.0399999835063,513.1399999954738,726.6499999968801,951.7749999940861,1165.6499999808148,1401.86499999254,1615.5949999811128,1840.5299999867566,2054.229999979725",484848484848484800,images/tutgreenplanet.jpg,images/tutalien2,images/tutalien1,images/tutrocket2,images/tutalien2,images/nothing.png,2,practice,true,2,common,0,2020-06-17T00:43:23Z,sub85
two-step-fixation,105,458664,0.0-61.0-2.14,FALSE,FALSE,TRUE,FALSE,"""event"",""trial"",""time""
""fullscreenenter"",""5"",""20972""
","
","
","""event"",""trial"",""time""
""fullscreenenter"",""5"",""20972""
","
",NA,images/earth.jpg,NA,NA,NA,NA,NA,NA,NA,NA,NA,NA,NA,NA,NA,fixation,NA,NA,NA,NA,NA,NA,sub85
d3-animate-choice,106,460675,0.0-61.0-0.15,FALSE,FALSE,TRUE,FALSE,"""event"",""trial"",""time""
""fullscreenenter"",""5"",""20972""
","
","
","""event"",""trial"",""time""
""fullscreenenter"",""5"",""20972""
","
",3.2099999953061342,NA,48,NA,NA,3000,1,"250.9250000002794,487.0649999938905,734.6949999919161,959.7450000001118,1196.1650000012014,1443.3649999846239,1679.6449999965262,1927.189999987604",4848484848484848,images/earth.jpg,images/tutrocket2,images/tutrocket1,null,images/tutrocket2,NA,1,practice,null,2,NA,NA,NA,sub85
d3-animate-choice,107,462853,0.0-61.0-1.15,FALSE,FALSE,TRUE,FALSE,"""event"",""trial"",""time""
""fullscreenenter"",""5"",""20972""
","
","
","""event"",""trial"",""time""
""fullscreenenter"",""5"",""20972""
","
",175.32000000937842,NA,48,NA,NA,3000,1,"388.83999999961816,625.4100000078324,1109.1699999815319,1626.5499999863096,1851.5750000078697,2099.2799999949057",484848484848,images/tutgreenplanet.jpg,images/tutalien2,images/tutalien1,images/tutrocket2,images/tutalien2,images/t.png,2,practice,true,2,common,1,2020-06-17T00:43:29Z,sub85
two-step-fixation,108,463859,0.0-61.0-2.15,FALSE,FALSE,TRUE,FALSE,"""event"",""trial"",""time""
""fullscreenenter"",""5"",""20972""
","
","
","""event"",""trial"",""time""
""fullscreenenter"",""5"",""20972""
","
",NA,images/earth.jpg,NA,NA,NA,NA,NA,NA,NA,NA,NA,NA,NA,NA,NA,fixation,NA,NA,NA,NA,NA,NA,sub85
d3-animate-choice,109,466005,0.0-61.0-0.16,FALSE,FALSE,TRUE,FALSE,"""event"",""trial"",""time""
""fullscreenenter"",""5"",""20972""
","
","
","""event"",""trial"",""time""
""fullscreenenter"",""5"",""20972""
","
",141.26499998383224,NA,48,NA,NA,3000,1,"388.7899999972433,647.4649999872781,894.8699999891687,1108.6899999936577,1356.1899999913294,1581.0449999989942,1817.33499999973,2064.8999999975786",4848484848484848,images/earth.jpg,images/tutrocket2,images/tutrocket1,null,images/tutrocket2,NA,1,practice,null,2,NA,NA,NA,sub85
d3-animate-choice,110,468175,0.0-61.0-1.16,FALSE,FALSE,TRUE,FALSE,"""event"",""trial"",""time""
""fullscreenenter"",""5"",""20972""
","
","
","""event"",""trial"",""time""
""fullscreenenter"",""5"",""20972""
","
",166.97500000009313,NA,48,NA,NA,3000,1,"414.2549999814946,650.7249999849591,898.0949999822769,1134.3849999830127,1618.1349999969825,1876.9000000029337,2147.0599999884143",48484848484848,images/tutyellowplanet.jpg,images/tutalien4,images/tutalien3,images/tutrocket2,images/tutalien4,images/t.png,2,practice,false,2,rare,1,2020-06-17T00:43:34Z,sub85
two-step-fixation,111,469179,0.0-61.0-2.16,FALSE,FALSE,TRUE,FALSE,"""event"",""trial"",""time""
""fullscreenenter"",""5"",""20972""
","
","
","""event"",""trial"",""time""
""fullscreenenter"",""5"",""20972""
","
",NA,images/earth.jpg,NA,NA,NA,NA,NA,NA,NA,NA,NA,NA,NA,NA,NA,fixation,NA,NA,NA,NA,NA,NA,sub85
d3-animate-choice,112,471392,0.0-61.0-0.17,FALSE,FALSE,TRUE,FALSE,"""event"",""trial"",""time""
""fullscreenenter"",""5"",""20972""
","
","
","""event"",""trial"",""time""
""fullscreenenter"",""5"",""20972""
","
",209.99999999185093,NA,48,NA,NA,3000,1,"446.3099999993574,693.939999997383,930.0599999842234,1447.714999987511,1661.3199999846984,1942.5249999912921,2167.524999997113",48484848484848,images/earth.jpg,images/tutrocket2,images/tutrocket1,null,images/tutrocket2,NA,1,practice,null,2,NA,NA,NA,sub85
d3-animate-choice,113,473609,0.0-61.0-1.17,FALSE,FALSE,TRUE,FALSE,"""event"",""trial"",""time""
""fullscreenenter"",""5"",""20972""
","
","
","""event"",""trial"",""time""
""fullscreenenter"",""5"",""20972""
","
",213.6350000218954,NA,48,NA,NA,3000,1,"472.18000001157634,731.2700000184122,1002.0950000034645,1271.2100000062492,1530.2400000218768,1777.5100000144448,2047.435000014957",48484848484848,images/tutgreenplanet.jpg,images/tutalien2,images/tutalien1,images/tutrocket2,images/tutalien2,images/t.png,2,practice,true,2,common,1,2020-06-17T00:43:39Z,sub85
two-step-fixation,114,474613,0.0-61.0-2.17,FALSE,FALSE,TRUE,FALSE,"""event"",""trial"",""time""
""fullscreenenter"",""5"",""20972""
","
","
","""event"",""trial"",""time""
""fullscreenenter"",""5"",""20972""
","
",NA,images/earth.jpg,NA,NA,NA,NA,NA,NA,NA,NA,NA,NA,NA,NA,NA,fixation,NA,NA,NA,NA,NA,NA,sub85
d3-animate-choice,115,476725,0.0-61.0-0.18,FALSE,FALSE,TRUE,FALSE,"""event"",""trial"",""time""
""fullscreenenter"",""5"",""20972""
","
","
","""event"",""trial"",""time""
""fullscreenenter"",""5"",""20972""
","
",108.46999997738749,NA,48,NA,NA,3000,1,"367.5049999728799,614.9699999950826,851.1299999954645,1098.679999995511,1357.3599999945145,1627.39499998861,1886.0449999920093",48484848484848,images/earth.jpg,images/tutrocket2,images/tutrocket1,null,images/tutrocket2,NA,1,practice,null,2,NA,NA,NA,sub85
d3-animate-choice,116,478763,0.0-61.0-1.18,FALSE,FALSE,TRUE,FALSE,"""event"",""trial"",""time""
""fullscreenenter"",""5"",""20972""
","
","
","""event"",""trial"",""time""
""fullscreenenter"",""5"",""20972""
","
",33.14500002306886,NA,48,NA,NA,3000,1,"292.0800000138115,573.3300000138115,865.8550000109244,1135.8800000161864,1407.0950000023004,1664.535000018077,1900.710000016261",48484848484848,images/tutgreenplanet.jpg,images/tutalien2,images/tutalien1,images/tutrocket2,images/tutalien2,images/nothing.png,2,practice,true,2,common,0,2020-06-17T00:43:45Z,sub85
two-step-fixation,117,479767,0.0-61.0-2.18,FALSE,FALSE,TRUE,FALSE,"""event"",""trial"",""time""
""fullscreenenter"",""5"",""20972""
","
","
","""event"",""trial"",""time""
""fullscreenenter"",""5"",""20972""
","
",NA,images/earth.jpg,NA,NA,NA,NA,NA,NA,NA,NA,NA,NA,NA,NA,NA,fixation,NA,NA,NA,NA,NA,NA,sub85
d3-animate-choice,118,481869,0.0-61.0-0.19,FALSE,FALSE,TRUE,FALSE,"""event"",""trial"",""time""
""fullscreenenter"",""5"",""20972""
","
","
","""event"",""trial"",""time""
""fullscreenenter"",""5"",""20972""
","
",95.81500000786036,NA,48,NA,NA,3000,1,"388.360000011744,680.8650000020862,905.9100000013132,1164.6250000048894,1423.3949999907054,1704.5999999972992,1985.59500000556",48484848484848,images/earth.jpg,images/tutrocket2,images/tutrocket1,null,images/tutrocket2,NA,1,practice,null,2,NA,NA,NA,sub85
d3-animate-choice,119,484014,0.0-61.0-1.19,FALSE,FALSE,TRUE,FALSE,"""event"",""trial"",""time""
""fullscreenenter"",""5"",""20972""
","
","
","""event"",""trial"",""time""
""fullscreenenter"",""5"",""20972""
","
",142.93499998166226,NA,48,NA,NA,3000,1,"446.6299999912735,739.1699999861885,1042.9299999959767,1313.3649999799673,1571.6499999980442,1864.3299999821465",484848484848,images/tutyellowplanet.jpg,images/tutalien4,images/tutalien3,images/tutrocket2,images/tutalien4,images/nothing.png,2,practice,false,2,rare,0,2020-06-17T00:43:50Z,sub85
two-step-fixation,120,485017,0.0-61.0-2.19,FALSE,FALSE,TRUE,FALSE,"""event"",""trial"",""time""
""fullscreenenter"",""5"",""20972""
","
","
","""event"",""trial"",""time""
""fullscreenenter"",""5"",""20972""
","
",NA,images/earth.jpg,NA,NA,NA,NA,NA,NA,NA,NA,NA,NA,NA,NA,NA,fixation,NA,NA,NA,NA,NA,NA,sub85
d3-instructions,121,489619,0.0-62.0,FALSE,FALSE,TRUE,FALSE,"""event"",""trial"",""time""
""fullscreenenter"",""5"",""20972""
","
","
","""event"",""trial"",""time""
""fullscreenenter"",""5"",""20972""
","
",NA,NA,NA,NA,NA,NA,NA,NA,NA,NA,NA,NA,NA,NA,NA,NA,NA,NA,NA,NA,NA,NA,sub85
audio-keyboard-response,122,491846,0.0-63.0,FALSE,FALSE,TRUE,FALSE,"""event"",""trial"",""time""
""fullscreenenter"",""5"",""20972""
","
","
","""event"",""trial"",""time""
""fullscreenenter"",""5"",""20972""
","
",2229,audio/instructions/treasure_feedback.wav,32,NA,NA,NA,NA,NA,NA,NA,NA,NA,NA,NA,NA,NA,NA,NA,NA,NA,NA,NA,sub85
d3-instructions,123,502894,0.0-64.0,FALSE,FALSE,TRUE,FALSE,"""event"",""trial"",""time""
""fullscreenenter"",""5"",""20972""
","
","
","""event"",""trial"",""time""
""fullscreenenter"",""5"",""20972""
","
",NA,NA,NA,NA,NA,NA,NA,NA,NA,NA,NA,NA,NA,NA,NA,NA,NA,NA,NA,NA,NA,NA,sub85
d3-instructions,124,516799,0.0-65.0,FALSE,FALSE,TRUE,FALSE,"""event"",""trial"",""time""
""fullscreenenter"",""5"",""20972""
","
","
","""event"",""trial"",""time""
""fullscreenenter"",""5"",""20972""
","
",NA,NA,NA,NA,NA,NA,NA,NA,NA,NA,NA,NA,NA,NA,NA,NA,NA,NA,NA,NA,NA,NA,sub85
d3-instructions,125,534372,0.0-66.0,FALSE,FALSE,TRUE,FALSE,"""event"",""trial"",""time""
""fullscreenenter"",""5"",""20972""
","
","
","""event"",""trial"",""time""
""fullscreenenter"",""5"",""20972""
","
",NA,NA,NA,NA,NA,NA,NA,NA,NA,NA,NA,NA,NA,NA,NA,NA,NA,NA,NA,NA,NA,NA,sub85
d3-instructions,126,549773,0.0-67.0,FALSE,FALSE,TRUE,FALSE,"""event"",""trial"",""time""
""fullscreenenter"",""5"",""20972""
","
","
","""event"",""trial"",""time""
""fullscreenenter"",""5"",""20972""
","
",NA,NA,NA,NA,NA,NA,NA,NA,NA,NA,NA,NA,NA,NA,NA,NA,NA,NA,NA,NA,NA,NA,sub85
d3-instructions,127,554127,0.0-68.0,FALSE,FALSE,TRUE,FALSE,"""event"",""trial"",""time""
""fullscreenenter"",""5"",""20972""
","
","
","""event"",""trial"",""time""
""fullscreenenter"",""5"",""20972""
","
",NA,NA,NA,NA,NA,NA,NA,NA,NA,NA,NA,NA,NA,NA,NA,NA,NA,NA,NA,NA,NA,NA,sub85
instructions-quiz,128,557375,0.0-69.0,FALSE,FALSE,TRUE,FALSE,"""event"",""trial"",""time""
""fullscreenenter"",""5"",""20972""
","
","
","""event"",""trial"",""time""
""fullscreenenter"",""5"",""20972""
","
",3246.5049999882467,audio/quiz/Q1_Prompt.wav,NA,1,NA,NA,NA,NA,NA,NA,NA,NA,NA,NA,NA,NA,NA,NA,NA,NA,NA,NA,sub85
audio-keyboard-response,129,559786,0.0-70.0,FALSE,FALSE,TRUE,FALSE,"""event"",""trial"",""time""
""fullscreenenter"",""5"",""20972""
","
","
","""event"",""trial"",""time""
""fullscreenenter"",""5"",""20972""
","
",2409,audio/quiz/Q1_Correct.wav,32,NA,NA,NA,NA,NA,NA,NA,NA,NA,NA,NA,NA,NA,NA,NA,NA,NA,NA,NA,sub85
instructions-quiz,130,565429,0.0-71.0,FALSE,FALSE,TRUE,FALSE,"""event"",""trial"",""time""
""fullscreenenter"",""5"",""20972""
","
","
","""event"",""trial"",""time""
""fullscreenenter"",""5"",""20972""
","
",5641.915000014706,audio/quiz/Q2_Prompt.wav,NA,0,NA,NA,NA,NA,NA,NA,NA,NA,NA,NA,NA,NA,NA,NA,NA,NA,NA,NA,sub85
audio-keyboard-response,131,567267,0.0-72.0,FALSE,FALSE,TRUE,FALSE,"""event"",""trial"",""time""
""fullscreenenter"",""5"",""20972""
","
","
","""event"",""trial"",""time""
""fullscreenenter"",""5"",""20972""
","
",1840,audio/quiz/Q2_Correct.wav,32,NA,NA,NA,NA,NA,NA,NA,NA,NA,NA,NA,NA,NA,NA,NA,NA,NA,NA,NA,sub85
instructions-quiz,132,571538,0.0-73.0,FALSE,FALSE,TRUE,FALSE,"""event"",""trial"",""time""
""fullscreenenter"",""5"",""20972""
","
","
","""event"",""trial"",""time""
""fullscreenenter"",""5"",""20972""
","
",4270.440000022063,audio/quiz/Q3_Prompt.wav,NA,0,NA,NA,NA,NA,NA,NA,NA,NA,NA,NA,NA,NA,NA,NA,NA,NA,NA,NA,sub85
audio-keyboard-response,133,575086,0.0-74.0,FALSE,FALSE,TRUE,FALSE,"""event"",""trial"",""time""
""fullscreenenter"",""5"",""20972""
","
","
","""event"",""trial"",""time""
""fullscreenenter"",""5"",""20972""
","
",3547,audio/quiz/Q3_Incorrect.wav,32,NA,NA,NA,NA,NA,NA,NA,NA,NA,NA,NA,NA,NA,NA,NA,NA,NA,NA,NA,sub85
d3-instructions,134,617488,0.0-75.0,FALSE,FALSE,TRUE,FALSE,"""event"",""trial"",""time""
""fullscreenenter"",""5"",""20972""
","
","
","""event"",""trial"",""time""
""fullscreenenter"",""5"",""20972""
","
",NA,NA,NA,NA,NA,NA,NA,NA,NA,NA,NA,NA,NA,NA,NA,NA,NA,NA,NA,NA,NA,NA,sub85
d3-animate-choice,135,620771,0.0-76.0-0.0,FALSE,FALSE,TRUE,FALSE,"""event"",""trial"",""time""
""fullscreenenter"",""5"",""20972""
","
","
","""event"",""trial"",""time""
""fullscreenenter"",""5"",""20972""
","
",1280.4750000068452,NA,49,NA,NA,3000,1,NA,NA,images/earth.jpg,images/rocket1,images/rocket2,null,images/rocket2,NA,1,real,null,1,NA,NA,NA,sub85
d3-animate-choice,136,624780,0.0-76.0-1.0,FALSE,FALSE,TRUE,FALSE,"""event"",""trial"",""time""
""fullscreenenter"",""5"",""20972""
","
","
","""event"",""trial"",""time""
""fullscreenenter"",""5"",""20972""
","
",2329.039999982342,NA,49,NA,NA,3000,1,NA,NA,images/redplanet1.jpg,images/alien2,images/alien1,images/rocket2,images/alien1,images/nothing.png,2,real,true,1,common,0,2020-06-17T00:46:11Z,sub85
two-step-fixation,137,625785,0.0-76.0-2.0,FALSE,FALSE,TRUE,FALSE,"""event"",""trial"",""time""
""fullscreenenter"",""5"",""20972""
","
","
","""event"",""trial"",""time""
""fullscreenenter"",""5"",""20972""
","
",NA,images/earth.jpg,NA,NA,NA,NA,NA,NA,NA,NA,NA,NA,NA,NA,NA,fixation,NA,NA,NA,NA,NA,NA,sub85
d3-animate-choice,138,629796,0.0-76.0-0.1,FALSE,FALSE,TRUE,FALSE,"""event"",""trial"",""time""
""fullscreenenter"",""5"",""20972""
","
","
","""event"",""trial"",""time""
""fullscreenenter"",""5"",""20972""
","
",2388.5100000188686,NA,48,NA,NA,3000,1,NA,NA,images/earth.jpg,images/rocket1,images/rocket2,null,images/rocket1,NA,1,real,null,2,NA,NA,NA,sub85
d3-animate-choice,139,633609,0.0-76.0-1.1,FALSE,FALSE,TRUE,FALSE,"""event"",""trial"",""time""
""fullscreenenter"",""5"",""20972""
","
","
","""event"",""trial"",""time""
""fullscreenenter"",""5"",""20972""
","
",1809.370000002673,NA,48,NA,NA,3000,1,NA,NA,images/purpleplanet.jpg,images/alien4,images/alien3,images/rocket1,images/alien4,images/t.png,2,real,true,2,common,1,2020-06-17T00:46:19Z,sub85
two-step-fixation,140,634613,0.0-76.0-2.1,FALSE,FALSE,TRUE,FALSE,"""event"",""trial"",""time""
""fullscreenenter"",""5"",""20972""
","
","
","""event"",""trial"",""time""
""fullscreenenter"",""5"",""20972""
","
",NA,images/earth.jpg,NA,NA,NA,NA,NA,NA,NA,NA,NA,NA,NA,NA,NA,fixation,NA,NA,NA,NA,NA,NA,sub85
d3-animate-choice,141,638154,0.0-76.0-0.2,FALSE,FALSE,TRUE,FALSE,"""event"",""trial"",""time""
""fullscreenenter"",""5"",""20972""
","
","
","""event"",""trial"",""time""
""fullscreenenter"",""5"",""20972""
","
",1537.0199999888428,NA,49,NA,NA,3000,1,NA,NA,images/earth.jpg,images/rocket1,images/rocket2,null,images/rocket2,NA,1,real,null,1,NA,NA,NA,sub85
d3-animate-choice,142,642159,0.0-76.0-1.2,FALSE,FALSE,TRUE,FALSE,"""event"",""trial"",""time""
""fullscreenenter"",""5"",""20972""
","
","
","""event"",""trial"",""time""
""fullscreenenter"",""5"",""20972""
","
",2450.9349999716505,NA,50,NA,NA,3000,1,3766.9399999722373,48,images/redplanet1.jpg,images/alien2,images/alien1,images/rocket2,images/alien2,NA,2,real,true,NA,common,0,2020-06-17T00:46:28Z,sub85
two-step-fixation,143,643162,0.0-76.0-2.2,FALSE,FALSE,TRUE,FALSE,"""event"",""trial"",""time""
""fullscreenenter"",""5"",""20972""
","
","
","""event"",""trial"",""time""
""fullscreenenter"",""5"",""20972""
","
",NA,images/earth.jpg,NA,NA,NA,NA,NA,NA,NA,NA,NA,NA,NA,NA,NA,fixation,NA,NA,NA,NA,NA,NA,sub85
d3-animate-choice,144,646863,0.0-76.0-0.3,FALSE,FALSE,TRUE,FALSE,"""event"",""trial"",""time""
""fullscreenenter"",""5"",""20972""
","
","
","""event"",""trial"",""time""
""fullscreenenter"",""5"",""20972""
","
",1695.1850000186823,NA,48,NA,NA,3000,1,NA,NA,images/earth.jpg,images/rocket1,images/rocket2,null,images/rocket1,NA,1,real,null,2,NA,NA,NA,sub85
d3-animate-choice,145,649695,0.0-76.0-1.3,FALSE,FALSE,TRUE,FALSE,"""event"",""trial"",""time""
""fullscreenenter"",""5"",""20972""
","
","
","""event"",""trial"",""time""
""fullscreenenter"",""5"",""20972""
","
",829.4799999857787,NA,48,NA,NA,3000,1,NA,NA,images/redplanet1.jpg,images/alien2,images/alien1,images/rocket1,images/alien2,images/t.png,2,real,false,2,rare,1,2020-06-17T00:46:36Z,sub85
two-step-fixation,146,650699,0.0-76.0-2.3,FALSE,FALSE,TRUE,FALSE,"""event"",""trial"",""time""
""fullscreenenter"",""5"",""20972""
","
","
","""event"",""trial"",""time""
""fullscreenenter"",""5"",""20972""
","
",NA,images/earth.jpg,NA,NA,NA,NA,NA,NA,NA,NA,NA,NA,NA,NA,NA,fixation,NA,NA,NA,NA,NA,NA,sub85
d3-animate-choice,147,654501,0.0-76.0-0.4,FALSE,FALSE,TRUE,FALSE,"""event"",""trial"",""time""
""fullscreenenter"",""5"",""20972""
","
","
","""event"",""trial"",""time""
""fullscreenenter"",""5"",""20972""
","
",1797.259999992093,NA,49,NA,NA,3000,1,NA,NA,images/earth.jpg,images/rocket1,images/rocket2,null,images/rocket2,NA,1,real,null,1,NA,NA,NA,sub85
d3-animate-choice,148,657136,0.0-76.0-1.4,FALSE,FALSE,TRUE,FALSE,"""event"",""trial"",""time""
""fullscreenenter"",""5"",""20972""
","
","
","""event"",""trial"",""time""
""fullscreenenter"",""5"",""20972""
","
",627.4249999842141,NA,48,NA,NA,3000,1,NA,NA,images/redplanet1.jpg,images/alien2,images/alien1,images/rocket2,images/alien2,images/t.png,2,real,true,2,common,1,2020-06-17T00:46:43Z,sub85
two-step-fixation,149,658143,0.0-76.0-2.4,FALSE,FALSE,TRUE,FALSE,"""event"",""trial"",""time""
""fullscreenenter"",""5"",""20972""
","
","
","""event"",""trial"",""time""
""fullscreenenter"",""5"",""20972""
","
",NA,images/earth.jpg,NA,NA,NA,NA,NA,NA,NA,NA,NA,NA,NA,NA,NA,fixation,NA,NA,NA,NA,NA,NA,sub85
d3-animate-choice,150,660542,0.0-76.0-0.5,FALSE,FALSE,TRUE,FALSE,"""event"",""trial"",""time""
""fullscreenenter"",""5"",""20972""
","
","
","""event"",""trial"",""time""
""fullscreenenter"",""5"",""20972""
","
",394.960000005085,NA,48,NA,NA,3000,1,NA,NA,images/earth.jpg,images/rocket1,images/rocket2,null,images/rocket1,NA,1,real,null,2,NA,NA,NA,sub85
d3-animate-choice,151,663400,0.0-76.0-1.5,FALSE,FALSE,TRUE,FALSE,"""event"",""trial"",""time""
""fullscreenenter"",""5"",""20972""
","
","
","""event"",""trial"",""time""
""fullscreenenter"",""5"",""20972""
","
",852.8000000223983,NA,48,NA,NA,3000,1,NA,NA,images/purpleplanet.jpg,images/alien4,images/alien3,images/rocket1,images/alien4,images/t.png,2,real,true,2,common,1,2020-06-17T00:46:49Z,sub85
two-step-fixation,152,664407,0.0-76.0-2.5,FALSE,FALSE,TRUE,FALSE,"""event"",""trial"",""time""
""fullscreenenter"",""5"",""20972""
","
","
","""event"",""trial"",""time""
""fullscreenenter"",""5"",""20972""
","
",NA,images/earth.jpg,NA,NA,NA,NA,NA,NA,NA,NA,NA,NA,NA,NA,NA,fixation,NA,NA,NA,NA,NA,NA,sub85
d3-animate-choice,153,666808,0.0-76.0-0.6,FALSE,FALSE,TRUE,FALSE,"""event"",""trial"",""time""
""fullscreenenter"",""5"",""20972""
","
","
","""event"",""trial"",""time""
""fullscreenenter"",""5"",""20972""
","
",397.1799999999348,NA,48,NA,NA,3000,1,NA,NA,images/earth.jpg,images/rocket1,images/rocket2,null,images/rocket1,NA,1,real,null,2,NA,NA,NA,sub85
d3-animate-choice,154,669338,0.0-76.0-1.6,FALSE,FALSE,TRUE,FALSE,"""event"",""trial"",""time""
""fullscreenenter"",""5"",""20972""
","
","
","""event"",""trial"",""time""
""fullscreenenter"",""5"",""20972""
","
",527.3349999915808,NA,49,NA,NA,3000,1,NA,NA,images/purpleplanet.jpg,images/alien4,images/alien3,images/rocket1,images/alien3,images/nothing.png,2,real,true,1,common,0,2020-06-17T00:46:55Z,sub85
two-step-fixation,155,670340,0.0-76.0-2.6,FALSE,FALSE,TRUE,FALSE,"""event"",""trial"",""time""
""fullscreenenter"",""5"",""20972""
","
","
","""event"",""trial"",""time""
""fullscreenenter"",""5"",""20972""
","
",NA,images/earth.jpg,NA,NA,NA,NA,NA,NA,NA,NA,NA,NA,NA,NA,NA,fixation,NA,NA,NA,NA,NA,NA,sub85
d3-animate-choice,156,672737,0.0-76.0-0.7,FALSE,FALSE,TRUE,FALSE,"""event"",""trial"",""time""
""fullscreenenter"",""5"",""20972""
","
","
","""event"",""trial"",""time""
""fullscreenenter"",""5"",""20972""
","
",392.81499999924563,NA,48,NA,NA,3000,1,NA,NA,images/earth.jpg,images/rocket1,images/rocket2,null,images/rocket1,NA,1,real,null,2,NA,NA,NA,sub85
d3-animate-choice,157,675155,0.0-76.0-1.7,FALSE,FALSE,TRUE,FALSE,"""event"",""trial"",""time""
""fullscreenenter"",""5"",""20972""
","
","
","""event"",""trial"",""time""
""fullscreenenter"",""5"",""20972""
","
",414.27499998826534,NA,48,NA,NA,3000,1,NA,NA,images/purpleplanet.jpg,images/alien4,images/alien3,images/rocket1,images/alien4,images/t.png,2,real,true,2,common,1,2020-06-17T00:47:01Z,sub85
two-step-fixation,158,676159,0.0-76.0-2.7,FALSE,FALSE,TRUE,FALSE,"""event"",""trial"",""time""
""fullscreenenter"",""5"",""20972""
","
","
","""event"",""trial"",""time""
""fullscreenenter"",""5"",""20972""
","
",NA,images/earth.jpg,NA,NA,NA,NA,NA,NA,NA,NA,NA,NA,NA,NA,NA,fixation,NA,NA,NA,NA,NA,NA,sub85
d3-animate-choice,159,678497,0.0-76.0-0.8,FALSE,FALSE,TRUE,FALSE,"""event"",""trial"",""time""
""fullscreenenter"",""5"",""20972""
","
","
","""event"",""trial"",""time""
""fullscreenenter"",""5"",""20972""
","
",334.33499999227934,NA,48,NA,NA,3000,1,NA,NA,images/earth.jpg,images/rocket1,images/rocket2,null,images/rocket1,NA,1,real,null,2,NA,NA,NA,sub85
d3-animate-choice,160,680893,0.0-76.0-1.8,FALSE,FALSE,TRUE,FALSE,"""event"",""trial"",""time""
""fullscreenenter"",""5"",""20972""
","
","
","""event"",""trial"",""time""
""fullscreenenter"",""5"",""20972""
","
",391.91000000573695,NA,48,NA,NA,3000,1,NA,NA,images/purpleplanet.jpg,images/alien4,images/alien3,images/rocket1,images/alien4,images/t.png,2,real,true,2,common,1,2020-06-17T00:47:07Z,sub85
two-step-fixation,161,681897,0.0-76.0-2.8,FALSE,FALSE,TRUE,FALSE,"""event"",""trial"",""time""
""fullscreenenter"",""5"",""20972""
","
","
","""event"",""trial"",""time""
""fullscreenenter"",""5"",""20972""
","
",NA,images/earth.jpg,NA,NA,NA,NA,NA,NA,NA,NA,NA,NA,NA,NA,NA,fixation,NA,NA,NA,NA,NA,NA,sub85
d3-animate-choice,162,684288,0.0-76.0-0.9,FALSE,FALSE,TRUE,FALSE,"""event"",""trial"",""time""
""fullscreenenter"",""5"",""20972""
","
","
","""event"",""trial"",""time""
""fullscreenenter"",""5"",""20972""
","
",389.4399999990128,NA,48,NA,NA,3000,1,NA,NA,images/earth.jpg,images/rocket1,images/rocket2,null,images/rocket1,NA,1,real,null,2,NA,NA,NA,sub85
d3-animate-choice,163,686654,0.0-76.0-1.9,FALSE,FALSE,TRUE,FALSE,"""event"",""trial"",""time""
""fullscreenenter"",""5"",""20972""
","
","
","""event"",""trial"",""time""
""fullscreenenter"",""5"",""20972""
","
",360.5999999854248,NA,48,NA,NA,3000,1,NA,NA,images/redplanet1.jpg,images/alien2,images/alien1,images/rocket1,images/alien2,images/nothing.png,2,real,false,2,rare,0,2020-06-17T00:47:12Z,sub85
two-step-fixation,164,687659,0.0-76.0-2.9,FALSE,FALSE,TRUE,FALSE,"""event"",""trial"",""time""
""fullscreenenter"",""5"",""20972""
","
","
","""event"",""trial"",""time""
""fullscreenenter"",""5"",""20972""
","
",NA,images/earth.jpg,NA,NA,NA,NA,NA,NA,NA,NA,NA,NA,NA,NA,NA,fixation,NA,NA,NA,NA,NA,NA,sub85
d3-animate-choice,165,690027,0.0-76.0-0.10,FALSE,FALSE,TRUE,FALSE,"""event"",""trial"",""time""
""fullscreenenter"",""5"",""20972""
","
","
","""event"",""trial"",""time""
""fullscreenenter"",""5"",""20972""
","
",365.6149999878835,NA,48,NA,NA,3000,1,NA,NA,images/earth.jpg,images/rocket1,images/rocket2,null,images/rocket1,NA,1,real,null,2,NA,NA,NA,sub85
d3-animate-choice,166,692424,0.0-76.0-1.10,FALSE,FALSE,TRUE,FALSE,"""event"",""trial"",""time""
""fullscreenenter"",""5"",""20972""
","
","
","""event"",""trial"",""time""
""fullscreenenter"",""5"",""20972""
","
",393.15000001806766,NA,48,NA,NA,3000,1,NA,NA,images/purpleplanet.jpg,images/alien4,images/alien3,images/rocket1,images/alien4,images/nothing.png,2,real,true,2,common,0,2020-06-17T00:47:18Z,sub85
two-step-fixation,167,693428,0.0-76.0-2.10,FALSE,FALSE,TRUE,FALSE,"""event"",""trial"",""time""
""fullscreenenter"",""5"",""20972""
","
","
","""event"",""trial"",""time""
""fullscreenenter"",""5"",""20972""
","
",NA,images/earth.jpg,NA,NA,NA,NA,NA,NA,NA,NA,NA,NA,NA,NA,NA,fixation,NA,NA,NA,NA,NA,NA,sub85
d3-animate-choice,168,695800,0.0-76.0-0.11,FALSE,FALSE,TRUE,FALSE,"""event"",""trial"",""time""
""fullscreenenter"",""5"",""20972""
","
","
","""event"",""trial"",""time""
""fullscreenenter"",""5"",""20972""
","
",366.8949999846518,NA,48,NA,NA,3000,1,NA,NA,images/earth.jpg,images/rocket1,images/rocket2,null,images/rocket1,NA,1,real,null,2,NA,NA,NA,sub85
d3-animate-choice,169,698534,0.0-76.0-1.11,FALSE,FALSE,TRUE,FALSE,"""event"",""trial"",""time""
""fullscreenenter"",""5"",""20972""
","
","
","""event"",""trial"",""time""
""fullscreenenter"",""5"",""20972""
","
",729.3949999730103,NA,48,NA,NA,3000,1,NA,NA,images/purpleplanet.jpg,images/alien4,images/alien3,images/rocket1,images/alien4,images/nothing.png,2,real,true,2,common,0,2020-06-17T00:47:24Z,sub85
two-step-fixation,170,699537,0.0-76.0-2.11,FALSE,FALSE,TRUE,FALSE,"""event"",""trial"",""time""
""fullscreenenter"",""5"",""20972""
","
","
","""event"",""trial"",""time""
""fullscreenenter"",""5"",""20972""
","
",NA,images/earth.jpg,NA,NA,NA,NA,NA,NA,NA,NA,NA,NA,NA,NA,NA,fixation,NA,NA,NA,NA,NA,NA,sub85
d3-animate-choice,171,702856,0.0-76.0-0.12,FALSE,FALSE,TRUE,FALSE,"""event"",""trial"",""time""
""fullscreenenter"",""5"",""20972""
","
","
","""event"",""trial"",""time""
""fullscreenenter"",""5"",""20972""
","
",1312.3800000175834,NA,49,NA,NA,3000,1,NA,NA,images/earth.jpg,images/rocket1,images/rocket2,null,images/rocket2,NA,1,real,null,1,NA,NA,NA,sub85
d3-animate-choice,172,705328,0.0-76.0-1.12,FALSE,FALSE,TRUE,FALSE,"""event"",""trial"",""time""
""fullscreenenter"",""5"",""20972""
","
","
","""event"",""trial"",""time""
""fullscreenenter"",""5"",""20972""
","
",467.86500001326203,NA,49,NA,NA,3000,1,NA,NA,images/redplanet1.jpg,images/alien2,images/alien1,images/rocket2,images/alien1,images/t.png,2,real,true,1,common,1,2020-06-17T00:47:31Z,sub85
two-step-fixation,173,706330,0.0-76.0-2.12,FALSE,FALSE,TRUE,FALSE,"""event"",""trial"",""time""
""fullscreenenter"",""5"",""20972""
","
","
","""event"",""trial"",""time""
""fullscreenenter"",""5"",""20972""
","
",NA,images/earth.jpg,NA,NA,NA,NA,NA,NA,NA,NA,NA,NA,NA,NA,NA,fixation,NA,NA,NA,NA,NA,NA,sub85
d3-animate-choice,174,708702,0.0-76.0-0.13,FALSE,FALSE,TRUE,FALSE,"""event"",""trial"",""time""
""fullscreenenter"",""5"",""20972""
","
","
","""event"",""trial"",""time""
""fullscreenenter"",""5"",""20972""
","
",369.4950000208337,NA,49,NA,NA,3000,1,NA,NA,images/earth.jpg,images/rocket1,images/rocket2,null,images/rocket2,NA,1,real,null,1,NA,NA,NA,sub85
d3-animate-choice,175,711167,0.0-76.0-1.13,FALSE,FALSE,TRUE,FALSE,"""event"",""trial"",""time""
""fullscreenenter"",""5"",""20972""
","
","
","""event"",""trial"",""time""
""fullscreenenter"",""5"",""20972""
","
",461.1949999816716,NA,49,NA,NA,3000,1,NA,NA,images/redplanet1.jpg,images/alien2,images/alien1,images/rocket2,images/alien1,images/nothing.png,2,real,true,1,common,0,2020-06-17T00:47:37Z,sub85
two-step-fixation,176,712171,0.0-76.0-2.13,FALSE,FALSE,TRUE,FALSE,"""event"",""trial"",""time""
""fullscreenenter"",""5"",""20972""
","
","
","""event"",""trial"",""time""
""fullscreenenter"",""5"",""20972""
","
",NA,images/earth.jpg,NA,NA,NA,NA,NA,NA,NA,NA,NA,NA,NA,NA,NA,fixation,NA,NA,NA,NA,NA,NA,sub85
d3-animate-choice,177,714497,0.0-76.0-0.14,FALSE,FALSE,TRUE,FALSE,"""event"",""trial"",""time""
""fullscreenenter"",""5"",""20972""
","
","
","""event"",""trial"",""time""
""fullscreenenter"",""5"",""20972""
","
",321.9399999943562,NA,48,NA,NA,3000,1,NA,NA,images/earth.jpg,images/rocket1,images/rocket2,null,images/rocket1,NA,1,real,null,2,NA,NA,NA,sub85
d3-animate-choice,178,717061,0.0-76.0-1.14,FALSE,FALSE,TRUE,FALSE,"""event"",""trial"",""time""
""fullscreenenter"",""5"",""20972""
","
","
","""event"",""trial"",""time""
""fullscreenenter"",""5"",""20972""
","
",561.1249999783468,NA,49,NA,NA,3000,1,NA,NA,images/purpleplanet.jpg,images/alien4,images/alien3,images/rocket1,images/alien3,images/nothing.png,2,real,true,1,common,0,2020-06-17T00:47:43Z,sub85
two-step-fixation,179,718064,0.0-76.0-2.14,FALSE,FALSE,TRUE,FALSE,"""event"",""trial"",""time""
""fullscreenenter"",""5"",""20972""
","
","
","""event"",""trial"",""time""
""fullscreenenter"",""5"",""20972""
","
",NA,images/earth.jpg,NA,NA,NA,NA,NA,NA,NA,NA,NA,NA,NA,NA,NA,fixation,NA,NA,NA,NA,NA,NA,sub85
d3-animate-choice,180,720485,0.0-76.0-0.15,FALSE,FALSE,TRUE,FALSE,"""event"",""trial"",""time""
""fullscreenenter"",""5"",""20972""
","
","
","""event"",""trial"",""time""
""fullscreenenter"",""5"",""20972""
","
",413.9749999740161,NA,49,NA,NA,3000,1,NA,NA,images/earth.jpg,images/rocket1,images/rocket2,null,images/rocket2,NA,1,real,null,1,NA,NA,NA,sub85
d3-animate-choice,181,722994,0.0-76.0-1.15,FALSE,FALSE,TRUE,FALSE,"""event"",""trial"",""time""
""fullscreenenter"",""5"",""20972""
","
","
","""event"",""trial"",""time""
""fullscreenenter"",""5"",""20972""
","
",502.71000000066124,NA,49,NA,NA,3000,1,NA,NA,images/redplanet1.jpg,images/alien2,images/alien1,images/rocket2,images/alien1,images/nothing.png,2,real,true,1,common,0,2020-06-17T00:47:49Z,sub85
two-step-fixation,182,724001,0.0-76.0-2.15,FALSE,FALSE,TRUE,FALSE,"""event"",""trial"",""time""
""fullscreenenter"",""5"",""20972""
","
","
","""event"",""trial"",""time""
""fullscreenenter"",""5"",""20972""
","
",NA,images/earth.jpg,NA,NA,NA,NA,NA,NA,NA,NA,NA,NA,NA,NA,NA,fixation,NA,NA,NA,NA,NA,NA,sub85
d3-animate-choice,183,726513,0.0-76.0-0.16,FALSE,FALSE,TRUE,FALSE,"""event"",""trial"",""time""
""fullscreenenter"",""5"",""20972""
","
","
","""event"",""trial"",""time""
""fullscreenenter"",""5"",""20972""
","
",507.35999998869374,NA,48,NA,NA,3000,1,NA,NA,images/earth.jpg,images/rocket1,images/rocket2,null,images/rocket1,NA,1,real,null,2,NA,NA,NA,sub85
d3-animate-choice,184,728953,0.0-76.0-1.16,FALSE,FALSE,TRUE,FALSE,"""event"",""trial"",""time""
""fullscreenenter"",""5"",""20972""
","
","
","""event"",""trial"",""time""
""fullscreenenter"",""5"",""20972""
","
",436.41000002389774,NA,48,NA,NA,3000,1,NA,NA,images/redplanet1.jpg,images/alien2,images/alien1,images/rocket1,images/alien2,images/t.png,2,real,false,2,rare,1,2020-06-17T00:47:55Z,sub85
two-step-fixation,185,729955,0.0-76.0-2.16,FALSE,FALSE,TRUE,FALSE,"""event"",""trial"",""time""
""fullscreenenter"",""5"",""20972""
","
","
","""event"",""trial"",""time""
""fullscreenenter"",""5"",""20972""
","
",NA,images/earth.jpg,NA,NA,NA,NA,NA,NA,NA,NA,NA,NA,NA,NA,NA,fixation,NA,NA,NA,NA,NA,NA,sub85
d3-animate-choice,186,732139,0.0-76.0-0.17,FALSE,FALSE,TRUE,FALSE,"""event"",""trial"",""time""
""fullscreenenter"",""5"",""20972""
","
","
","""event"",""trial"",""time""
""fullscreenenter"",""5"",""20972""
","
",178.34499999298714,NA,48,NA,NA,3000,1,NA,NA,images/earth.jpg,images/rocket1,images/rocket2,null,images/rocket1,NA,1,real,null,2,NA,NA,NA,sub85
d3-animate-choice,187,734577,0.0-76.0-1.17,FALSE,FALSE,TRUE,FALSE,"""event"",""trial"",""time""
""fullscreenenter"",""5"",""20972""
","
","
","""event"",""trial"",""time""
""fullscreenenter"",""5"",""20972""
","
",435.685000004014,NA,48,NA,NA,3000,1,NA,NA,images/redplanet1.jpg,images/alien2,images/alien1,images/rocket1,images/alien2,images/t.png,2,real,false,2,rare,1,2020-06-17T00:48:00Z,sub85
two-step-fixation,188,735580,0.0-76.0-2.17,FALSE,FALSE,TRUE,FALSE,"""event"",""trial"",""time""
""fullscreenenter"",""5"",""20972""
","
","
","""event"",""trial"",""time""
""fullscreenenter"",""5"",""20972""
","
",NA,images/earth.jpg,NA,NA,NA,NA,NA,NA,NA,NA,NA,NA,NA,NA,NA,fixation,NA,NA,NA,NA,NA,NA,sub85
d3-animate-choice,189,738099,0.0-76.0-0.18,FALSE,FALSE,TRUE,FALSE,"""event"",""trial"",""time""
""fullscreenenter"",""5"",""20972""
","
","
","""event"",""trial"",""time""
""fullscreenenter"",""5"",""20972""
","
",516.3299999840092,NA,49,NA,NA,3000,1,NA,NA,images/earth.jpg,images/rocket1,images/rocket2,null,images/rocket2,NA,1,real,null,1,NA,NA,NA,sub85
d3-animate-choice,190,740666,0.0-76.0-1.18,FALSE,FALSE,TRUE,FALSE,"""event"",""trial"",""time""
""fullscreenenter"",""5"",""20972""
","
","
","""event"",""trial"",""time""
""fullscreenenter"",""5"",""20972""
","
",562.1350000146776,NA,48,NA,NA,3000,1,NA,NA,images/redplanet1.jpg,images/alien2,images/alien1,images/rocket2,images/alien2,images/t.png,2,real,true,2,common,1,2020-06-17T00:48:07Z,sub85
two-step-fixation,191,741671,0.0-76.0-2.18,FALSE,FALSE,TRUE,FALSE,"""event"",""trial"",""time""
""fullscreenenter"",""5"",""20972""
","
","
","""event"",""trial"",""time""
""fullscreenenter"",""5"",""20972""
","
",NA,images/earth.jpg,NA,NA,NA,NA,NA,NA,NA,NA,NA,NA,NA,NA,NA,fixation,NA,NA,NA,NA,NA,NA,sub85
d3-animate-choice,192,744027,0.0-76.0-0.19,FALSE,FALSE,TRUE,FALSE,"""event"",""trial"",""time""
""fullscreenenter"",""5"",""20972""
","
","
","""event"",""trial"",""time""
""fullscreenenter"",""5"",""20972""
","
",353.51499999524094,NA,49,NA,NA,3000,1,NA,NA,images/earth.jpg,images/rocket1,images/rocket2,null,images/rocket2,NA,1,real,null,1,NA,NA,NA,sub85
d3-animate-choice,193,746426,0.0-76.0-1.19,FALSE,FALSE,TRUE,FALSE,"""event"",""trial"",""time""
""fullscreenenter"",""5"",""20972""
","
","
","""event"",""trial"",""time""
""fullscreenenter"",""5"",""20972""
","
",394.4199999968987,NA,48,NA,NA,3000,1,NA,NA,images/redplanet1.jpg,images/alien2,images/alien1,images/rocket2,images/alien2,images/t.png,2,real,true,2,common,1,2020-06-17T00:48:12Z,sub85
two-step-fixation,194,747429,0.0-76.0-2.19,FALSE,FALSE,TRUE,FALSE,"""event"",""trial"",""time""
""fullscreenenter"",""5"",""20972""
","
","
","""event"",""trial"",""time""
""fullscreenenter"",""5"",""20972""
","
",NA,images/earth.jpg,NA,NA,NA,NA,NA,NA,NA,NA,NA,NA,NA,NA,NA,fixation,NA,NA,NA,NA,NA,NA,sub85
d3-animate-choice,195,750093,0.0-76.0-0.20,FALSE,FALSE,TRUE,FALSE,"""event"",""trial"",""time""
""fullscreenenter"",""5"",""20972""
","
","
","""event"",""trial"",""time""
""fullscreenenter"",""5"",""20972""
","
",659.6250000002328,NA,49,NA,NA,3000,1,NA,NA,images/earth.jpg,images/rocket1,images/rocket2,null,images/rocket2,NA,1,real,null,1,NA,NA,NA,sub85
d3-animate-choice,196,752499,0.0-76.0-1.20,FALSE,FALSE,TRUE,FALSE,"""event"",""trial"",""time""
""fullscreenenter"",""5"",""20972""
","
","
","""event"",""trial"",""time""
""fullscreenenter"",""5"",""20972""
","
",403.070000000298,NA,48,NA,NA,3000,1,NA,NA,images/redplanet1.jpg,images/alien2,images/alien1,images/rocket2,images/alien2,images/nothing.png,2,real,true,2,common,0,2020-06-17T00:48:18Z,sub85
two-step-fixation,197,753501,0.0-76.0-2.20,FALSE,FALSE,TRUE,FALSE,"""event"",""trial"",""time""
""fullscreenenter"",""5"",""20972""
","
","
","""event"",""trial"",""time""
""fullscreenenter"",""5"",""20972""
","
",NA,images/earth.jpg,NA,NA,NA,NA,NA,NA,NA,NA,NA,NA,NA,NA,NA,fixation,NA,NA,NA,NA,NA,NA,sub85
d3-animate-choice,198,755991,0.0-76.0-0.21,FALSE,FALSE,TRUE,FALSE,"""event"",""trial"",""time""
""fullscreenenter"",""5"",""20972""
","
","
","""event"",""trial"",""time""
""fullscreenenter"",""5"",""20972""
","
",482.94000001624227,NA,48,NA,NA,3000,1,NA,NA,images/earth.jpg,images/rocket1,images/rocket2,null,images/rocket1,NA,1,real,null,2,NA,NA,NA,sub85
d3-animate-choice,199,758428,0.0-76.0-1.21,FALSE,FALSE,TRUE,FALSE,"""event"",""trial"",""time""
""fullscreenenter"",""5"",""20972""
","
","
","""event"",""trial"",""time""
""fullscreenenter"",""5"",""20972""
","
",434.29000000469387,NA,48,NA,NA,3000,1,NA,NA,images/purpleplanet.jpg,images/alien4,images/alien3,images/rocket1,images/alien4,images/t.png,2,real,true,2,common,1,2020-06-17T00:48:24Z,sub85
two-step-fixation,200,759432,0.0-76.0-2.21,FALSE,FALSE,TRUE,FALSE,"""event"",""trial"",""time""
""fullscreenenter"",""5"",""20972""
","
","
","""event"",""trial"",""time""
""fullscreenenter"",""5"",""20972""
","
",NA,images/earth.jpg,NA,NA,NA,NA,NA,NA,NA,NA,NA,NA,NA,NA,NA,fixation,NA,NA,NA,NA,NA,NA,sub85
d3-animate-choice,201,761893,0.0-76.0-0.22,FALSE,FALSE,TRUE,FALSE,"""event"",""trial"",""time""
""fullscreenenter"",""5"",""20972""
","
","
","""event"",""trial"",""time""
""fullscreenenter"",""5"",""20972""
","
",457.6449999876786,NA,48,NA,NA,3000,1,NA,NA,images/earth.jpg,images/rocket1,images/rocket2,null,images/rocket1,NA,1,real,null,2,NA,NA,NA,sub85
d3-animate-choice,202,764345,0.0-76.0-1.22,FALSE,FALSE,TRUE,FALSE,"""event"",""trial"",""time""
""fullscreenenter"",""5"",""20972""
","
","
","""event"",""trial"",""time""
""fullscreenenter"",""5"",""20972""
","
",449.2749999917578,NA,48,NA,NA,3000,1,NA,NA,images/redplanet1.jpg,images/alien2,images/alien1,images/rocket1,images/alien2,images/t.png,2,real,false,2,rare,1,2020-06-17T00:48:30Z,sub85
two-step-fixation,203,765348,0.0-76.0-2.22,FALSE,FALSE,TRUE,FALSE,"""event"",""trial"",""time""
""fullscreenenter"",""5"",""20972""
","
","
","""event"",""trial"",""time""
""fullscreenenter"",""5"",""20972""
","
",NA,images/earth.jpg,NA,NA,NA,NA,NA,NA,NA,NA,NA,NA,NA,NA,NA,fixation,NA,NA,NA,NA,NA,NA,sub85
d3-animate-choice,204,767711,0.0-76.0-0.23,FALSE,FALSE,TRUE,FALSE,"""event"",""trial"",""time""
""fullscreenenter"",""5"",""20972""
","
","
","""event"",""trial"",""time""
""fullscreenenter"",""5"",""20972""
","
",357.56500001298264,NA,48,NA,NA,3000,1,NA,NA,images/earth.jpg,images/rocket1,images/rocket2,null,images/rocket1,NA,1,real,null,2,NA,NA,NA,sub85
d3-animate-choice,205,770049,0.0-76.0-1.23,FALSE,FALSE,TRUE,FALSE,"""event"",""trial"",""time""
""fullscreenenter"",""5"",""20972""
","
","
","""event"",""trial"",""time""
""fullscreenenter"",""5"",""20972""
","
",335.1050000055693,NA,48,NA,NA,3000,1,NA,NA,images/purpleplanet.jpg,images/alien4,images/alien3,images/rocket1,images/alien4,images/nothing.png,2,real,true,2,common,0,2020-06-17T00:48:36Z,sub85
two-step-fixation,206,771051,0.0-76.0-2.23,FALSE,FALSE,TRUE,FALSE,"""event"",""trial"",""time""
""fullscreenenter"",""5"",""20972""
","
","
","""event"",""trial"",""time""
""fullscreenenter"",""5"",""20972""
","
",NA,images/earth.jpg,NA,NA,NA,NA,NA,NA,NA,NA,NA,NA,NA,NA,NA,fixation,NA,NA,NA,NA,NA,NA,sub85
d3-animate-choice,207,773537,0.0-76.0-0.24,FALSE,FALSE,TRUE,FALSE,"""event"",""trial"",""time""
""fullscreenenter"",""5"",""20972""
","
","
","""event"",""trial"",""time""
""fullscreenenter"",""5"",""20972""
","
",482.5649999838788,NA,49,NA,NA,3000,1,NA,NA,images/earth.jpg,images/rocket1,images/rocket2,null,images/rocket2,NA,1,real,null,1,NA,NA,NA,sub85
d3-animate-choice,208,775921,0.0-76.0-1.24,FALSE,FALSE,TRUE,FALSE,"""event"",""trial"",""time""
""fullscreenenter"",""5"",""20972""
","
","
","""event"",""trial"",""time""
""fullscreenenter"",""5"",""20972""
","
",382.3850000044331,NA,48,NA,NA,3000,1,NA,NA,images/redplanet1.jpg,images/alien2,images/alien1,images/rocket2,images/alien2,images/nothing.png,2,real,true,2,common,0,2020-06-17T00:48:42Z,sub85
two-step-fixation,209,776923,0.0-76.0-2.24,FALSE,FALSE,TRUE,FALSE,"""event"",""trial"",""time""
""fullscreenenter"",""5"",""20972""
","
","
","""event"",""trial"",""time""
""fullscreenenter"",""5"",""20972""
","
",NA,images/earth.jpg,NA,NA,NA,NA,NA,NA,NA,NA,NA,NA,NA,NA,NA,fixation,NA,NA,NA,NA,NA,NA,sub85
d3-animate-choice,210,779366,0.0-76.0-0.25,FALSE,FALSE,TRUE,FALSE,"""event"",""trial"",""time""
""fullscreenenter"",""5"",""20972""
","
","
","""event"",""trial"",""time""
""fullscreenenter"",""5"",""20972""
","
",438.2999999797903,NA,49,NA,NA,3000,1,NA,NA,images/earth.jpg,images/rocket1,images/rocket2,null,images/rocket2,NA,1,real,null,1,NA,NA,NA,sub85
d3-animate-choice,211,781853,0.0-76.0-1.25,FALSE,FALSE,TRUE,FALSE,"""event"",""trial"",""time""
""fullscreenenter"",""5"",""20972""
","
","
","""event"",""trial"",""time""
""fullscreenenter"",""5"",""20972""
","
",482.45500001939945,NA,49,NA,NA,3000,1,NA,NA,images/purpleplanet.jpg,images/alien4,images/alien3,images/rocket2,images/alien3,images/nothing.png,2,real,false,1,rare,0,2020-06-17T00:48:48Z,sub85
two-step-fixation,212,782855,0.0-76.0-2.25,FALSE,FALSE,TRUE,FALSE,"""event"",""trial"",""time""
""fullscreenenter"",""5"",""20972""
","
","
","""event"",""trial"",""time""
""fullscreenenter"",""5"",""20972""
","
",NA,images/earth.jpg,NA,NA,NA,NA,NA,NA,NA,NA,NA,NA,NA,NA,NA,fixation,NA,NA,NA,NA,NA,NA,sub85
d3-animate-choice,213,785247,0.0-76.0-0.26,FALSE,FALSE,TRUE,FALSE,"""event"",""trial"",""time""
""fullscreenenter"",""5"",""20972""
","
","
","""event"",""trial"",""time""
""fullscreenenter"",""5"",""20972""
","
",389.74500002223067,NA,49,NA,NA,3000,1,NA,NA,images/earth.jpg,images/rocket1,images/rocket2,null,images/rocket2,NA,1,real,null,1,NA,NA,NA,sub85
d3-animate-choice,214,787714,0.0-76.0-1.26,FALSE,FALSE,TRUE,FALSE,"""event"",""trial"",""time""
""fullscreenenter"",""5"",""20972""
","
","
","""event"",""trial"",""time""
""fullscreenenter"",""5"",""20972""
","
",461.76499998546205,NA,49,NA,NA,3000,1,NA,NA,images/redplanet1.jpg,images/alien2,images/alien1,images/rocket2,images/alien1,images/nothing.png,2,real,true,1,common,0,2020-06-17T00:48:54Z,sub85
two-step-fixation,215,788718,0.0-76.0-2.26,FALSE,FALSE,TRUE,FALSE,"""event"",""trial"",""time""
""fullscreenenter"",""5"",""20972""
","
","
","""event"",""trial"",""time""
""fullscreenenter"",""5"",""20972""
","
",NA,images/earth.jpg,NA,NA,NA,NA,NA,NA,NA,NA,NA,NA,NA,NA,NA,fixation,NA,NA,NA,NA,NA,NA,sub85
d3-animate-choice,216,791086,0.0-76.0-0.27,FALSE,FALSE,TRUE,FALSE,"""event"",""trial"",""time""
""fullscreenenter"",""5"",""20972""
","
","
","""event"",""trial"",""time""
""fullscreenenter"",""5"",""20972""
","
",365.84499999298714,NA,49,NA,NA,3000,1,NA,NA,images/earth.jpg,images/rocket1,images/rocket2,null,images/rocket2,NA,1,real,null,1,NA,NA,NA,sub85
d3-animate-choice,217,793923,0.0-76.0-1.27,FALSE,FALSE,TRUE,FALSE,"""event"",""trial"",""time""
""fullscreenenter"",""5"",""20972""
","
","
","""event"",""trial"",""time""
""fullscreenenter"",""5"",""20972""
","
",833.119999995688,NA,49,NA,NA,3000,1,NA,NA,images/purpleplanet.jpg,images/alien4,images/alien3,images/rocket2,images/alien3,images/t.png,2,real,false,1,rare,1,2020-06-17T00:49:00Z,sub85
two-step-fixation,218,794925,0.0-76.0-2.27,FALSE,FALSE,TRUE,FALSE,"""event"",""trial"",""time""
""fullscreenenter"",""5"",""20972""
","
","
","""event"",""trial"",""time""
""fullscreenenter"",""5"",""20972""
","
",NA,images/earth.jpg,NA,NA,NA,NA,NA,NA,NA,NA,NA,NA,NA,NA,NA,fixation,NA,NA,NA,NA,NA,NA,sub85
d3-animate-choice,219,797343,0.0-76.0-0.28,FALSE,FALSE,TRUE,FALSE,"""event"",""trial"",""time""
""fullscreenenter"",""5"",""20972""
","
","
","""event"",""trial"",""time""
""fullscreenenter"",""5"",""20972""
","
",413.72000001138076,NA,49,NA,NA,3000,1,NA,NA,images/earth.jpg,images/rocket1,images/rocket2,null,images/rocket2,NA,1,real,null,1,NA,NA,NA,sub85
d3-animate-choice,220,799852,0.0-76.0-1.28,FALSE,FALSE,TRUE,FALSE,"""event"",""trial"",""time""
""fullscreenenter"",""5"",""20972""
","
","
","""event"",""trial"",""time""
""fullscreenenter"",""5"",""20972""
","
",504.67500000377186,NA,49,NA,NA,3000,1,NA,NA,images/redplanet1.jpg,images/alien2,images/alien1,images/rocket2,images/alien1,images/t.png,2,real,true,1,common,1,2020-06-17T00:49:06Z,sub85
two-step-fixation,221,800856,0.0-76.0-2.28,FALSE,FALSE,TRUE,FALSE,"""event"",""trial"",""time""
""fullscreenenter"",""5"",""20972""
","
","
","""event"",""trial"",""time""
""fullscreenenter"",""5"",""20972""
","
",NA,images/earth.jpg,NA,NA,NA,NA,NA,NA,NA,NA,NA,NA,NA,NA,NA,fixation,NA,NA,NA,NA,NA,NA,sub85
d3-animate-choice,222,802899,0.0-76.0-0.29,FALSE,FALSE,TRUE,FALSE,"""event"",""trial"",""time""
""fullscreenenter"",""5"",""20972""
","
","
","""event"",""trial"",""time""
""fullscreenenter"",""5"",""20972""
","
",41.05999998864718,NA,49,NA,NA,3000,1,NA,NA,images/earth.jpg,images/rocket1,images/rocket2,null,images/rocket2,NA,1,real,null,1,NA,NA,NA,sub85
d3-animate-choice,223,805342,0.0-76.0-1.29,FALSE,FALSE,TRUE,FALSE,"""event"",""trial"",""time""
""fullscreenenter"",""5"",""20972""
","
","
","""event"",""trial"",""time""
""fullscreenenter"",""5"",""20972""
","
",439.2449999868404,NA,49,NA,NA,3000,1,NA,NA,images/redplanet1.jpg,images/alien2,images/alien1,images/rocket2,images/alien1,images/nothing.png,2,real,true,1,common,0,2020-06-17T00:49:11Z,sub85
two-step-fixation,224,806345,0.0-76.0-2.29,FALSE,FALSE,TRUE,FALSE,"""event"",""trial"",""time""
""fullscreenenter"",""5"",""20972""
","
","
","""event"",""trial"",""time""
""fullscreenenter"",""5"",""20972""
","
",NA,images/earth.jpg,NA,NA,NA,NA,NA,NA,NA,NA,NA,NA,NA,NA,NA,fixation,NA,NA,NA,NA,NA,NA,sub85
d3-animate-choice,225,808378,0.0-76.0-0.30,FALSE,FALSE,TRUE,FALSE,"""event"",""trial"",""time""
""fullscreenenter"",""5"",""20972""
","
","
","""event"",""trial"",""time""
""fullscreenenter"",""5"",""20972""
","
",30.060000019147992,NA,49,NA,NA,3000,1,NA,NA,images/earth.jpg,images/rocket1,images/rocket2,null,images/rocket2,NA,1,real,null,1,NA,NA,NA,sub85
d3-animate-choice,226,810856,0.0-76.0-1.30,FALSE,FALSE,TRUE,FALSE,"""event"",""trial"",""time""
""fullscreenenter"",""5"",""20972""
","
","
","""event"",""trial"",""time""
""fullscreenenter"",""5"",""20972""
","
",472.05000001122244,NA,48,NA,NA,3000,1,NA,NA,images/redplanet1.jpg,images/alien2,images/alien1,images/rocket2,images/alien2,images/t.png,2,real,true,2,common,1,2020-06-17T00:49:17Z,sub85
two-step-fixation,227,811862,0.0-76.0-2.30,FALSE,FALSE,TRUE,FALSE,"""event"",""trial"",""time""
""fullscreenenter"",""5"",""20972""
","
","
","""event"",""trial"",""time""
""fullscreenenter"",""5"",""20972""
","
",NA,images/earth.jpg,NA,NA,NA,NA,NA,NA,NA,NA,NA,NA,NA,NA,NA,fixation,NA,NA,NA,NA,NA,NA,sub85
d3-animate-choice,228,814150,0.0-76.0-0.31,FALSE,FALSE,TRUE,FALSE,"""event"",""trial"",""time""
""fullscreenenter"",""5"",""20972""
","
","
","""event"",""trial"",""time""
""fullscreenenter"",""5"",""20972""
","
",284.8500000254717,NA,49,NA,NA,3000,1,NA,NA,images/earth.jpg,images/rocket1,images/rocket2,null,images/rocket2,NA,1,real,null,1,NA,NA,NA,sub85
d3-animate-choice,229,816640,0.0-76.0-1.31,FALSE,FALSE,TRUE,FALSE,"""event"",""trial"",""time""
""fullscreenenter"",""5"",""20972""
","
","
","""event"",""trial"",""time""
""fullscreenenter"",""5"",""20972""
","
",483.7100000004284,NA,48,NA,NA,3000,1,NA,NA,images/purpleplanet.jpg,images/alien4,images/alien3,images/rocket2,images/alien4,images/t.png,2,real,false,2,rare,1,2020-06-17T00:49:22Z,sub85
two-step-fixation,230,817644,0.0-76.0-2.31,FALSE,FALSE,TRUE,FALSE,"""event"",""trial"",""time""
""fullscreenenter"",""5"",""20972""
","
","
","""event"",""trial"",""time""
""fullscreenenter"",""5"",""20972""
","
",NA,images/earth.jpg,NA,NA,NA,NA,NA,NA,NA,NA,NA,NA,NA,NA,NA,fixation,NA,NA,NA,NA,NA,NA,sub85
d3-animate-choice,231,820080,0.0-76.0-0.32,FALSE,FALSE,TRUE,FALSE,"""event"",""trial"",""time""
""fullscreenenter"",""5"",""20972""
","
","
","""event"",""trial"",""time""
""fullscreenenter"",""5"",""20972""
","
",431.9600000162609,NA,49,NA,NA,3000,1,NA,NA,images/earth.jpg,images/rocket1,images/rocket2,null,images/rocket2,NA,1,real,null,1,NA,NA,NA,sub85
d3-animate-choice,232,822554,0.0-76.0-1.32,FALSE,FALSE,TRUE,FALSE,"""event"",""trial"",""time""
""fullscreenenter"",""5"",""20972""
","
","
","""event"",""trial"",""time""
""fullscreenenter"",""5"",""20972""
","
",470.6799999985378,NA,48,NA,NA,3000,1,NA,NA,images/redplanet1.jpg,images/alien2,images/alien1,images/rocket2,images/alien2,images/t.png,2,real,true,2,common,1,2020-06-17T00:49:28Z,sub85
two-step-fixation,233,823556,0.0-76.0-2.32,FALSE,FALSE,TRUE,FALSE,"""event"",""trial"",""time""
""fullscreenenter"",""5"",""20972""
","
","
","""event"",""trial"",""time""
""fullscreenenter"",""5"",""20972""
","
",NA,images/earth.jpg,NA,NA,NA,NA,NA,NA,NA,NA,NA,NA,NA,NA,NA,fixation,NA,NA,NA,NA,NA,NA,sub85
d3-animate-choice,234,825974,0.0-76.0-0.33,FALSE,FALSE,TRUE,FALSE,"""event"",""trial"",""time""
""fullscreenenter"",""5"",""20972""
","
","
","""event"",""trial"",""time""
""fullscreenenter"",""5"",""20972""
","
",414.64500001166016,NA,49,NA,NA,3000,1,NA,NA,images/earth.jpg,images/rocket1,images/rocket2,null,images/rocket2,NA,1,real,null,1,NA,NA,NA,sub85
d3-animate-choice,235,828427,0.0-76.0-1.33,FALSE,FALSE,TRUE,FALSE,"""event"",""trial"",""time""
""fullscreenenter"",""5"",""20972""
","
","
","""event"",""trial"",""time""
""fullscreenenter"",""5"",""20972""
","
",449.1400000115391,NA,48,NA,NA,3000,1,NA,NA,images/redplanet1.jpg,images/alien2,images/alien1,images/rocket2,images/alien2,images/t.png,2,real,true,2,common,1,2020-06-17T00:49:34Z,sub85
two-step-fixation,236,829429,0.0-76.0-2.33,FALSE,FALSE,TRUE,FALSE,"""event"",""trial"",""time""
""fullscreenenter"",""5"",""20972""
","
","
","""event"",""trial"",""time""
""fullscreenenter"",""5"",""20972""
","
",NA,images/earth.jpg,NA,NA,NA,NA,NA,NA,NA,NA,NA,NA,NA,NA,NA,fixation,NA,NA,NA,NA,NA,NA,sub85
d3-animate-choice,237,831780,0.0-76.0-0.34,FALSE,FALSE,TRUE,FALSE,"""event"",""trial"",""time""
""fullscreenenter"",""5"",""20972""
","
","
","""event"",""trial"",""time""
""fullscreenenter"",""5"",""20972""
","
",345.90500002377667,NA,49,NA,NA,3000,1,NA,NA,images/earth.jpg,images/rocket1,images/rocket2,null,images/rocket2,NA,1,real,null,1,NA,NA,NA,sub85
d3-animate-choice,238,834152,0.0-76.0-1.34,FALSE,FALSE,TRUE,FALSE,"""event"",""trial"",""time""
""fullscreenenter"",""5"",""20972""
","
","
","""event"",""trial"",""time""
""fullscreenenter"",""5"",""20972""
","
",369.5599999919068,NA,48,NA,NA,3000,1,NA,NA,images/purpleplanet.jpg,images/alien4,images/alien3,images/rocket2,images/alien4,images/t.png,2,real,false,2,rare,1,2020-06-17T00:49:40Z,sub85
two-step-fixation,239,835156,0.0-76.0-2.34,FALSE,FALSE,TRUE,FALSE,"""event"",""trial"",""time""
""fullscreenenter"",""5"",""20972""
","
","
","""event"",""trial"",""time""
""fullscreenenter"",""5"",""20972""
","
",NA,images/earth.jpg,NA,NA,NA,NA,NA,NA,NA,NA,NA,NA,NA,NA,NA,fixation,NA,NA,NA,NA,NA,NA,sub85
d3-animate-choice,240,837664,0.0-76.0-0.35,FALSE,FALSE,TRUE,FALSE,"""event"",""trial"",""time""
""fullscreenenter"",""5"",""20972""
","
","
","""event"",""trial"",""time""
""fullscreenenter"",""5"",""20972""
","
",503.54500001412816,NA,49,NA,NA,3000,1,NA,NA,images/earth.jpg,images/rocket1,images/rocket2,null,images/rocket2,NA,1,real,null,1,NA,NA,NA,sub85
d3-animate-choice,241,840160,0.0-76.0-1.35,FALSE,FALSE,TRUE,FALSE,"""event"",""trial"",""time""
""fullscreenenter"",""5"",""20972""
","
","
","""event"",""trial"",""time""
""fullscreenenter"",""5"",""20972""
","
",493.2949999929406,NA,48,NA,NA,3000,1,NA,NA,images/redplanet1.jpg,images/alien2,images/alien1,images/rocket2,images/alien2,images/t.png,2,real,true,2,common,1,2020-06-17T00:49:46Z,sub85
two-step-fixation,242,841165,0.0-76.0-2.35,FALSE,FALSE,TRUE,FALSE,"""event"",""trial"",""time""
""fullscreenenter"",""5"",""20972""
","
","
","""event"",""trial"",""time""
""fullscreenenter"",""5"",""20972""
","
",NA,images/earth.jpg,NA,NA,NA,NA,NA,NA,NA,NA,NA,NA,NA,NA,NA,fixation,NA,NA,NA,NA,NA,NA,sub85
d3-animate-choice,243,843546,0.0-76.0-0.36,FALSE,FALSE,TRUE,FALSE,"""event"",""trial"",""time""
""fullscreenenter"",""5"",""20972""
","
","
","""event"",""trial"",""time""
""fullscreenenter"",""5"",""20972""
","
",378.6250000121072,NA,49,NA,NA,3000,1,NA,NA,images/earth.jpg,images/rocket1,images/rocket2,null,images/rocket2,NA,1,real,null,1,NA,NA,NA,sub85
d3-animate-choice,244,845921,0.0-76.0-1.36,FALSE,FALSE,TRUE,FALSE,"""event"",""trial"",""time""
""fullscreenenter"",""5"",""20972""
","
","
","""event"",""trial"",""time""
""fullscreenenter"",""5"",""20972""
","
",371.2799999921117,NA,48,NA,NA,3000,1,NA,NA,images/redplanet1.jpg,images/alien2,images/alien1,images/rocket2,images/alien2,images/t.png,2,real,true,2,common,1,2020-06-17T00:49:52Z,sub85
two-step-fixation,245,846923,0.0-76.0-2.36,FALSE,FALSE,TRUE,FALSE,"""event"",""trial"",""time""
""fullscreenenter"",""5"",""20972""
","
","
","""event"",""trial"",""time""
""fullscreenenter"",""5"",""20972""
","
",NA,images/earth.jpg,NA,NA,NA,NA,NA,NA,NA,NA,NA,NA,NA,NA,NA,fixation,NA,NA,NA,NA,NA,NA,sub85
d3-animate-choice,246,849307,0.0-76.0-0.37,FALSE,FALSE,TRUE,FALSE,"""event"",""trial"",""time""
""fullscreenenter"",""5"",""20972""
","
","
","""event"",""trial"",""time""
""fullscreenenter"",""5"",""20972""
","
",380.18999999621883,NA,49,NA,NA,3000,1,NA,NA,images/earth.jpg,images/rocket1,images/rocket2,null,images/rocket2,NA,1,real,null,1,NA,NA,NA,sub85
d3-animate-choice,247,851692,0.0-76.0-1.37,FALSE,FALSE,TRUE,FALSE,"""event"",""trial"",""time""
""fullscreenenter"",""5"",""20972""
","
","
","""event"",""trial"",""time""
""fullscreenenter"",""5"",""20972""
","
",382.1950000128709,NA,48,NA,NA,3000,1,NA,NA,images/redplanet1.jpg,images/alien2,images/alien1,images/rocket2,images/alien2,images/nothing.png,2,real,true,2,common,0,2020-06-17T00:49:58Z,sub85
two-step-fixation,248,852696,0.0-76.0-2.37,FALSE,FALSE,TRUE,FALSE,"""event"",""trial"",""time""
""fullscreenenter"",""5"",""20972""
","
","
","""event"",""trial"",""time""
""fullscreenenter"",""5"",""20972""
","
",NA,images/earth.jpg,NA,NA,NA,NA,NA,NA,NA,NA,NA,NA,NA,NA,NA,fixation,NA,NA,NA,NA,NA,NA,sub85
d3-animate-choice,249,855775,0.0-76.0-0.38,FALSE,FALSE,TRUE,FALSE,"""event"",""trial"",""time""
""fullscreenenter"",""5"",""20972""
","
","
","""event"",""trial"",""time""
""fullscreenenter"",""5"",""20972""
","
",1076.3199999928474,NA,48,NA,NA,3000,1,NA,NA,images/earth.jpg,images/rocket1,images/rocket2,null,images/rocket1,NA,1,real,null,2,NA,NA,NA,sub85
d3-animate-choice,250,858295,0.0-76.0-1.38,FALSE,FALSE,TRUE,FALSE,"""event"",""trial"",""time""
""fullscreenenter"",""5"",""20972""
","
","
","""event"",""trial"",""time""
""fullscreenenter"",""5"",""20972""
","
",517.7200000034645,NA,48,NA,NA,3000,1,NA,NA,images/purpleplanet.jpg,images/alien4,images/alien3,images/rocket1,images/alien4,images/nothing.png,2,real,true,2,common,0,2020-06-17T00:50:04Z,sub85
two-step-fixation,251,859297,0.0-76.0-2.38,FALSE,FALSE,TRUE,FALSE,"""event"",""trial"",""time""
""fullscreenenter"",""5"",""20972""
","
","
","""event"",""trial"",""time""
""fullscreenenter"",""5"",""20972""
","
",NA,images/earth.jpg,NA,NA,NA,NA,NA,NA,NA,NA,NA,NA,NA,NA,NA,fixation,NA,NA,NA,NA,NA,NA,sub85
d3-animate-choice,252,861862,0.0-76.0-0.39,FALSE,FALSE,TRUE,FALSE,"""event"",""trial"",""time""
""fullscreenenter"",""5"",""20972""
","
","
","""event"",""trial"",""time""
""fullscreenenter"",""5"",""20972""
","
",562.1849999879487,NA,49,NA,NA,3000,1,NA,NA,images/earth.jpg,images/rocket1,images/rocket2,null,images/rocket2,NA,1,real,null,1,NA,NA,NA,sub85
d3-animate-choice,253,864314,0.0-76.0-1.39,FALSE,FALSE,TRUE,FALSE,"""event"",""trial"",""time""
""fullscreenenter"",""5"",""20972""
","
","
","""event"",""trial"",""time""
""fullscreenenter"",""5"",""20972""
","
",449.32000001426786,NA,49,NA,NA,3000,1,NA,NA,images/redplanet1.jpg,images/alien2,images/alien1,images/rocket2,images/alien1,images/t.png,2,real,true,1,common,1,2020-06-17T00:50:10Z,sub85
two-step-fixation,254,865316,0.0-76.0-2.39,FALSE,FALSE,TRUE,FALSE,"""event"",""trial"",""time""
""fullscreenenter"",""5"",""20972""
","
","
","""event"",""trial"",""time""
""fullscreenenter"",""5"",""20972""
","
",NA,images/earth.jpg,NA,NA,NA,NA,NA,NA,NA,NA,NA,NA,NA,NA,NA,fixation,NA,NA,NA,NA,NA,NA,sub85
d3-animate-choice,255,867736,0.0-76.0-0.40,FALSE,FALSE,TRUE,FALSE,"""event"",""trial"",""time""
""fullscreenenter"",""5"",""20972""
","
","
","""event"",""trial"",""time""
""fullscreenenter"",""5"",""20972""
","
",414.8949999944307,NA,49,NA,NA,3000,1,NA,NA,images/earth.jpg,images/rocket1,images/rocket2,null,images/rocket2,NA,1,real,null,1,NA,NA,NA,sub85
d3-animate-choice,256,870641,0.0-76.0-1.40,FALSE,FALSE,TRUE,FALSE,"""event"",""trial"",""time""
""fullscreenenter"",""5"",""20972""
","
","
","""event"",""trial"",""time""
""fullscreenenter"",""5"",""20972""
","
",897.5900000077672,NA,49,NA,NA,3000,1,NA,NA,images/purpleplanet.jpg,images/alien4,images/alien3,images/rocket2,images/alien3,images/nothing.png,2,real,false,1,rare,0,2020-06-17T00:50:16Z,sub85
two-step-fixation,257,871645,0.0-76.0-2.40,FALSE,FALSE,TRUE,FALSE,"""event"",""trial"",""time""
""fullscreenenter"",""5"",""20972""
","
","
","""event"",""trial"",""time""
""fullscreenenter"",""5"",""20972""
","
",NA,images/earth.jpg,NA,NA,NA,NA,NA,NA,NA,NA,NA,NA,NA,NA,NA,fixation,NA,NA,NA,NA,NA,NA,sub85
d3-animate-choice,258,874214,0.0-76.0-0.41,FALSE,FALSE,TRUE,FALSE,"""event"",""trial"",""time""
""fullscreenenter"",""5"",""20972""
","
","
","""event"",""trial"",""time""
""fullscreenenter"",""5"",""20972""
","
",566.5699999954086,NA,49,NA,NA,3000,1,NA,NA,images/earth.jpg,images/rocket1,images/rocket2,null,images/rocket2,NA,1,real,null,1,NA,NA,NA,sub85
d3-animate-choice,259,876648,0.0-76.0-1.41,FALSE,FALSE,TRUE,FALSE,"""event"",""trial"",""time""
""fullscreenenter"",""5"",""20972""
","
","
","""event"",""trial"",""time""
""fullscreenenter"",""5"",""20972""
","
",427.08999998285435,NA,49,NA,NA,3000,1,NA,NA,images/purpleplanet.jpg,images/alien4,images/alien3,images/rocket2,images/alien3,images/nothing.png,2,real,false,1,rare,0,2020-06-17T00:50:22Z,sub85
two-step-fixation,260,877653,0.0-76.0-2.41,FALSE,FALSE,TRUE,FALSE,"""event"",""trial"",""time""
""fullscreenenter"",""5"",""20972""
","
","
","""event"",""trial"",""time""
""fullscreenenter"",""5"",""20972""
","
",NA,images/earth.jpg,NA,NA,NA,NA,NA,NA,NA,NA,NA,NA,NA,NA,NA,fixation,NA,NA,NA,NA,NA,NA,sub85
d3-animate-choice,261,879999,0.0-76.0-0.42,FALSE,FALSE,TRUE,FALSE,"""event"",""trial"",""time""
""fullscreenenter"",""5"",""20972""
","
","
","""event"",""trial"",""time""
""fullscreenenter"",""5"",""20972""
","
",340.80000000540167,NA,49,NA,NA,3000,1,NA,NA,images/earth.jpg,images/rocket1,images/rocket2,null,images/rocket2,NA,1,real,null,1,NA,NA,NA,sub85
d3-animate-choice,262,882449,0.0-76.0-1.42,FALSE,FALSE,TRUE,FALSE,"""event"",""trial"",""time""
""fullscreenenter"",""5"",""20972""
","
","
","""event"",""trial"",""time""
""fullscreenenter"",""5"",""20972""
","
",447.74500001221895,NA,48,NA,NA,3000,1,NA,NA,images/purpleplanet.jpg,images/alien4,images/alien3,images/rocket2,images/alien4,images/nothing.png,2,real,false,2,rare,0,2020-06-17T00:50:28Z,sub85
two-step-fixation,263,883452,0.0-76.0-2.42,FALSE,FALSE,TRUE,FALSE,"""event"",""trial"",""time""
""fullscreenenter"",""5"",""20972""
","
","
","""event"",""trial"",""time""
""fullscreenenter"",""5"",""20972""
","
",NA,images/earth.jpg,NA,NA,NA,NA,NA,NA,NA,NA,NA,NA,NA,NA,NA,fixation,NA,NA,NA,NA,NA,NA,sub85
d3-animate-choice,264,886308,0.0-76.0-0.43,FALSE,FALSE,TRUE,FALSE,"""event"",""trial"",""time""
""fullscreenenter"",""5"",""20972""
","
","
","""event"",""trial"",""time""
""fullscreenenter"",""5"",""20972""
","
",853.5199999751057,NA,48,NA,NA,3000,1,NA,NA,images/earth.jpg,images/rocket1,images/rocket2,null,images/rocket1,NA,1,real,null,2,NA,NA,NA,sub85
d3-animate-choice,265,889547,0.0-76.0-1.43,FALSE,FALSE,TRUE,FALSE,"""event"",""trial"",""time""
""fullscreenenter"",""5"",""20972""
","
","
","""event"",""trial"",""time""
""fullscreenenter"",""5"",""20972""
","
",1237.4800000106916,NA,49,NA,NA,3000,1,NA,NA,images/purpleplanet.jpg,images/alien4,images/alien3,images/rocket1,images/alien3,images/nothing.png,2,real,true,1,common,0,2020-06-17T00:50:35Z,sub85
two-step-fixation,266,890554,0.0-76.0-2.43,FALSE,FALSE,TRUE,FALSE,"""event"",""trial"",""time""
""fullscreenenter"",""5"",""20972""
","
","
","""event"",""trial"",""time""
""fullscreenenter"",""5"",""20972""
","
",NA,images/earth.jpg,NA,NA,NA,NA,NA,NA,NA,NA,NA,NA,NA,NA,NA,fixation,NA,NA,NA,NA,NA,NA,sub85
d3-animate-choice,267,892946,0.0-76.0-0.44,FALSE,FALSE,TRUE,FALSE,"""event"",""trial"",""time""
""fullscreenenter"",""5"",""20972""
","
","
","""event"",""trial"",""time""
""fullscreenenter"",""5"",""20972""
","
",388.7749999994412,NA,49,NA,NA,3000,1,NA,NA,images/earth.jpg,images/rocket1,images/rocket2,null,images/rocket2,NA,1,real,null,1,NA,NA,NA,sub85
d3-animate-choice,268,895793,0.0-76.0-1.44,FALSE,FALSE,TRUE,FALSE,"""event"",""trial"",""time""
""fullscreenenter"",""5"",""20972""
","
","
","""event"",""trial"",""time""
""fullscreenenter"",""5"",""20972""
","
",843.1600000185426,NA,49,NA,NA,3000,1,NA,NA,images/purpleplanet.jpg,images/alien4,images/alien3,images/rocket2,images/alien3,images/nothing.png,2,real,false,1,rare,0,2020-06-17T00:50:42Z,sub85
two-step-fixation,269,896797,0.0-76.0-2.44,FALSE,FALSE,TRUE,FALSE,"""event"",""trial"",""time""
""fullscreenenter"",""5"",""20972""
","
","
","""event"",""trial"",""time""
""fullscreenenter"",""5"",""20972""
","
",NA,images/earth.jpg,NA,NA,NA,NA,NA,NA,NA,NA,NA,NA,NA,NA,NA,fixation,NA,NA,NA,NA,NA,NA,sub85
d3-animate-choice,270,899200,0.0-76.0-0.45,FALSE,FALSE,TRUE,FALSE,"""event"",""trial"",""time""
""fullscreenenter"",""5"",""20972""
","
","
","""event"",""trial"",""time""
""fullscreenenter"",""5"",""20972""
","
",400.4899999999907,NA,49,NA,NA,3000,1,NA,NA,images/earth.jpg,images/rocket1,images/rocket2,null,images/rocket2,NA,1,real,null,1,NA,NA,NA,sub85
d3-animate-choice,271,901664,0.0-76.0-1.45,FALSE,FALSE,TRUE,FALSE,"""event"",""trial"",""time""
""fullscreenenter"",""5"",""20972""
","
","
","""event"",""trial"",""time""
""fullscreenenter"",""5"",""20972""
","
",461.76499998546205,NA,48,NA,NA,3000,1,NA,NA,images/purpleplanet.jpg,images/alien4,images/alien3,images/rocket2,images/alien4,images/nothing.png,2,real,false,2,rare,0,2020-06-17T00:50:48Z,sub85
two-step-fixation,272,902667,0.0-76.0-2.45,FALSE,FALSE,TRUE,FALSE,"""event"",""trial"",""time""
""fullscreenenter"",""5"",""20972""
","
","
","""event"",""trial"",""time""
""fullscreenenter"",""5"",""20972""
","
",NA,images/earth.jpg,NA,NA,NA,NA,NA,NA,NA,NA,NA,NA,NA,NA,NA,fixation,NA,NA,NA,NA,NA,NA,sub85
d3-animate-choice,273,905458,0.0-76.0-0.46,FALSE,FALSE,TRUE,FALSE,"""event"",""trial"",""time""
""fullscreenenter"",""5"",""20972""
","
","
","""event"",""trial"",""time""
""fullscreenenter"",""5"",""20972""
","
",785.6050000118557,NA,48,NA,NA,3000,1,NA,NA,images/earth.jpg,images/rocket1,images/rocket2,null,images/rocket1,NA,1,real,null,2,NA,NA,NA,sub85
d3-animate-choice,274,907954,0.0-76.0-1.46,FALSE,FALSE,TRUE,FALSE,"""event"",""trial"",""time""
""fullscreenenter"",""5"",""20972""
","
","
","""event"",""trial"",""time""
""fullscreenenter"",""5"",""20972""
","
",492.9699999920558,NA,49,NA,NA,3000,1,NA,NA,images/purpleplanet.jpg,images/alien4,images/alien3,images/rocket1,images/alien3,images/nothing.png,2,real,true,1,common,0,2020-06-17T00:50:54Z,sub85
two-step-fixation,275,908958,0.0-76.0-2.46,FALSE,FALSE,TRUE,FALSE,"""event"",""trial"",""time""
""fullscreenenter"",""5"",""20972""
","
","
","""event"",""trial"",""time""
""fullscreenenter"",""5"",""20972""
","
",NA,images/earth.jpg,NA,NA,NA,NA,NA,NA,NA,NA,NA,NA,NA,NA,NA,fixation,NA,NA,NA,NA,NA,NA,sub85
d3-animate-choice,276,911350,0.0-76.0-0.47,FALSE,FALSE,TRUE,FALSE,"""event"",""trial"",""time""
""fullscreenenter"",""5"",""20972""
","
","
","""event"",""trial"",""time""
""fullscreenenter"",""5"",""20972""
","
",390.06000000517815,NA,48,NA,NA,3000,1,NA,NA,images/earth.jpg,images/rocket1,images/rocket2,null,images/rocket1,NA,1,real,null,2,NA,NA,NA,sub85
d3-animate-choice,277,913782,0.0-76.0-1.47,FALSE,FALSE,TRUE,FALSE,"""event"",""trial"",""time""
""fullscreenenter"",""5"",""20972""
","
","
","""event"",""trial"",""time""
""fullscreenenter"",""5"",""20972""
","
",428.0150000122376,NA,48,NA,NA,3000,1,NA,NA,images/purpleplanet.jpg,images/alien4,images/alien3,images/rocket1,images/alien4,images/nothing.png,2,real,true,2,common,0,2020-06-17T00:51:00Z,sub85
two-step-fixation,278,914786,0.0-76.0-2.47,FALSE,FALSE,TRUE,FALSE,"""event"",""trial"",""time""
""fullscreenenter"",""5"",""20972""
","
","
","""event"",""trial"",""time""
