trial_type,trial_index,time_elapsed,internal_node_id,rocket_sides,red_planet_first_rocket,red_display_order,purple_display_order,interactions,blur_events,focus_events,fullscreenenter_events,fullscreenexit_events,rt,stimulus,key_press,button_pressed,success,duration,valid_pressed,rts,keys,planet_text,right_text,left_text,center_text,chosen_text,reward_text,trial_stage,practice_trial,transition_type,choice,transition,reward,timestamp,subject_id
pavlovia,0,12,0.0-0.0,FALSE,FALSE,TRUE,FALSE,"
","
","
","
","
",NA,NA,NA,NA,NA,NA,NA,NA,NA,NA,NA,NA,NA,NA,NA,NA,NA,NA,NA,NA,NA,NA,sub59
html-keyboard-response,1,1715,0.0-1.0,FALSE,FALSE,TRUE,FALSE,"
","
","
","
","
",1695.6499999996595,Welcome! Press the space bar to begin.,32,NA,NA,NA,NA,NA,NA,NA,NA,NA,NA,NA,NA,NA,NA,NA,NA,NA,NA,NA,sub59
audio-keyboard-response,2,4756,0.0-2.0,FALSE,FALSE,TRUE,FALSE,"
","
","
","
","
",2709,audio/beep_loop.wav,32,NA,NA,NA,NA,NA,NA,NA,NA,NA,NA,NA,NA,NA,NA,NA,NA,NA,NA,NA,sub59
audio-button-response,3,6623,0.0-3.0,FALSE,FALSE,TRUE,FALSE,"
","
","
","
","
",NaN,audio/fish.mp3,NA,1,NA,NA,NA,NA,NA,NA,NA,NA,NA,NA,NA,NA,NA,NA,NA,NA,NA,NA,sub59
audio-button-response,4,9369,0.0-4.0,FALSE,FALSE,TRUE,FALSE,"""event"",""trial"",""time""
""fullscreenenter"",""5"",""12410""
","
","
","""event"",""trial"",""time""
""fullscreenenter"",""5"",""12410""
","
",NaN,audio/tiger.mp3,NA,4,NA,NA,NA,NA,NA,NA,NA,NA,NA,NA,NA,NA,NA,NA,NA,NA,NA,NA,sub59
fullscreen,5,13398,0.0-5.0,FALSE,FALSE,TRUE,FALSE,"""event"",""trial"",""time""
""fullscreenenter"",""5"",""12410""
","
","
","""event"",""trial"",""time""
""fullscreenenter"",""5"",""12410""
","
",NA,NA,NA,NA,TRUE,NA,NA,NA,NA,NA,NA,NA,NA,NA,NA,NA,NA,NA,NA,NA,NA,NA,sub59
d3-instructions,6,26187,0.0-6.0,FALSE,FALSE,TRUE,FALSE,"""event"",""trial"",""time""
""fullscreenenter"",""5"",""12410""
","
","
","""event"",""trial"",""time""
""fullscreenenter"",""5"",""12410""
","
",NA,NA,NA,NA,NA,NA,NA,NA,NA,NA,NA,NA,NA,NA,NA,NA,NA,NA,NA,NA,NA,NA,sub59
d3-instructions,7,34123,0.0-7.0,FALSE,FALSE,TRUE,FALSE,"""event"",""trial"",""time""
""fullscreenenter"",""5"",""12410""
","
","
","""event"",""trial"",""time""
""fullscreenenter"",""5"",""12410""
","
",NA,NA,NA,NA,NA,NA,NA,NA,NA,NA,NA,NA,NA,NA,NA,NA,NA,NA,NA,NA,NA,NA,sub59
d3-instructions,8,40663,0.0-8.0,FALSE,FALSE,TRUE,FALSE,"""event"",""trial"",""time""
""fullscreenenter"",""5"",""12410""
","
","
","""event"",""trial"",""time""
""fullscreenenter"",""5"",""12410""
","
",NA,NA,NA,NA,NA,NA,NA,NA,NA,NA,NA,NA,NA,NA,NA,NA,NA,NA,NA,NA,NA,NA,sub59
d3-instructions,9,50971,0.0-9.0,FALSE,FALSE,TRUE,FALSE,"""event"",""trial"",""time""
""fullscreenenter"",""5"",""12410""
","
","
","""event"",""trial"",""time""
""fullscreenenter"",""5"",""12410""
","
",NA,NA,NA,NA,NA,NA,NA,NA,NA,NA,NA,NA,NA,NA,NA,NA,NA,NA,NA,NA,NA,NA,sub59
d3-instructions,10,73402,0.0-10.0,FALSE,FALSE,TRUE,FALSE,"""event"",""trial"",""time""
""fullscreenenter"",""5"",""12410""
","
","
","""event"",""trial"",""time""
""fullscreenenter"",""5"",""12410""
","
",NA,NA,NA,NA,NA,NA,NA,NA,NA,NA,NA,NA,NA,NA,NA,NA,NA,NA,NA,NA,NA,NA,sub59
d3-animate-choice,11,82918,0.0-11.0,FALSE,FALSE,TRUE,FALSE,"""event"",""trial"",""time""
""fullscreenenter"",""5"",""12410""
","
","
","""event"",""trial"",""time""
""fullscreenenter"",""5"",""12410""
","
",7495.37499999952,NA,49,NA,NA,3000,1,NA,NA,images/tutgreenplanet.jpg,images/tutalien1,images/tutalien2,null,images/tutalien2,NA,NA,practice,null,NA,NA,NA,NA,sub59
d3-animate-choice,12,86165,0.0-12.0,FALSE,FALSE,TRUE,FALSE,"""event"",""trial"",""time""
""fullscreenenter"",""5"",""12410""
","
","
","""event"",""trial"",""time""
""fullscreenenter"",""5"",""12410""
","
",1236.3949999999022,NA,48,NA,NA,3000,1,NA,NA,images/tutgreenplanet.jpg,images/tutalien1,images/tutalien2,null,images/tutalien1,NA,NA,practice,null,NA,NA,NA,NA,sub59
d3-animate-choice,13,89363,0.0-13.0,FALSE,FALSE,TRUE,FALSE,"""event"",""trial"",""time""
""fullscreenenter"",""5"",""12410""
","
","
","""event"",""trial"",""time""
""fullscreenenter"",""5"",""12410""
","
",1186.3800000001065,NA,49,NA,NA,3000,1,2687.364999999787,48,images/tutgreenplanet.jpg,images/tutalien1,images/tutalien2,null,images/tutalien2,NA,NA,practice,null,NA,NA,NA,NA,sub59
d3-animate-choice,14,91663,0.0-14.0,FALSE,FALSE,TRUE,FALSE,"""event"",""trial"",""time""
""fullscreenenter"",""5"",""12410""
","
","
","""event"",""trial"",""time""
""fullscreenenter"",""5"",""12410""
","
",282.5300000004063,NA,48,NA,NA,3000,1,NA,NA,images/tutgreenplanet.jpg,images/tutalien1,images/tutalien2,null,images/tutalien1,NA,NA,practice,null,NA,NA,NA,NA,sub59
d3-instructions,15,99511,0.0-15.0,FALSE,FALSE,TRUE,FALSE,"""event"",""trial"",""time""
""fullscreenenter"",""5"",""12410""
","
","
","""event"",""trial"",""time""
""fullscreenenter"",""5"",""12410""
","
",NA,NA,NA,NA,NA,NA,NA,NA,NA,NA,NA,NA,NA,NA,NA,NA,NA,NA,NA,NA,NA,NA,sub59
d3-instructions,16,106522,0.0-16.0,FALSE,FALSE,TRUE,FALSE,"""event"",""trial"",""time""
""fullscreenenter"",""5"",""12410""
","
","
","""event"",""trial"",""time""
""fullscreenenter"",""5"",""12410""
","
",NA,NA,NA,NA,NA,NA,NA,NA,NA,NA,NA,NA,NA,NA,NA,NA,NA,NA,NA,NA,NA,NA,sub59
d3-instructions,17,115200,0.0-17.0,FALSE,FALSE,TRUE,FALSE,"""event"",""trial"",""time""
""fullscreenenter"",""5"",""12410""
","
","
","""event"",""trial"",""time""
""fullscreenenter"",""5"",""12410""
","
",NA,NA,NA,NA,NA,NA,NA,NA,NA,NA,NA,NA,NA,NA,NA,NA,NA,NA,NA,NA,NA,NA,sub59
d3-instructions,18,128345,0.0-18.0,FALSE,FALSE,TRUE,FALSE,"""event"",""trial"",""time""
""fullscreenenter"",""5"",""12410""
","
","
","""event"",""trial"",""time""
""fullscreenenter"",""5"",""12410""
","
",NA,NA,NA,NA,NA,NA,NA,NA,NA,NA,NA,NA,NA,NA,NA,NA,NA,NA,NA,NA,NA,NA,sub59
d3-instructions,19,141535,0.0-19.0,FALSE,FALSE,TRUE,FALSE,"""event"",""trial"",""time""
""fullscreenenter"",""5"",""12410""
","
","
","""event"",""trial"",""time""
""fullscreenenter"",""5"",""12410""
","
",NA,NA,NA,NA,NA,NA,NA,NA,NA,NA,NA,NA,NA,NA,NA,NA,NA,NA,NA,NA,NA,NA,sub59
d3-animate-choice,20,144367,0.0-20.0,FALSE,FALSE,TRUE,FALSE,"""event"",""trial"",""time""
""fullscreenenter"",""5"",""12410""
","
","
","""event"",""trial"",""time""
""fullscreenenter"",""5"",""12410""
","
",822.1849999999977,NA,49,NA,NA,3000,1,2097.3850000000384,49,images/tutyellowplanet.jpg,null,images/tutalien3,null,images/tutalien3,images/nothing.png,NA,practice,null,NA,NA,NA,NA,sub59
d3-animate-choice,21,146710,0.0-21.0,FALSE,FALSE,TRUE,FALSE,"""event"",""trial"",""time""
""fullscreenenter"",""5"",""12410""
","
","
","""event"",""trial"",""time""
""fullscreenenter"",""5"",""12410""
","
",330.5700000000943,NA,49,NA,NA,3000,1,NA,NA,images/tutyellowplanet.jpg,null,images/tutalien3,null,images/tutalien3,images/nothing.png,NA,practice,null,NA,NA,NA,NA,sub59
d3-animate-choice,22,148965,0.0-22.0,FALSE,FALSE,TRUE,FALSE,"""event"",""trial"",""time""
""fullscreenenter"",""5"",""12410""
","
","
","""event"",""trial"",""time""
""fullscreenenter"",""5"",""12410""
","
",245.16499999936786,NA,49,NA,NA,3000,1,1703.4649999996182,49,images/tutyellowplanet.jpg,null,images/tutalien3,null,images/tutalien3,images/t.png,NA,practice,null,NA,NA,NA,NA,sub59
d3-animate-choice,23,151218,0.0-23.0,FALSE,FALSE,TRUE,FALSE,"""event"",""trial"",""time""
""fullscreenenter"",""5"",""12410""
","
","
","""event"",""trial"",""time""
""fullscreenenter"",""5"",""12410""
","
",238.68000000040047,NA,49,NA,NA,3000,1,1641.6900000003807,49,images/tutyellowplanet.jpg,null,images/tutalien3,null,images/tutalien3,images/t.png,NA,practice,null,NA,NA,NA,NA,sub59
d3-animate-choice,24,153476,0.0-24.0,FALSE,FALSE,TRUE,FALSE,"""event"",""trial"",""time""
""fullscreenenter"",""5"",""12410""
","
","
","""event"",""trial"",""time""
""fullscreenenter"",""5"",""12410""
","
",246.9249999994645,NA,49,NA,NA,3000,1,NA,NA,images/tutyellowplanet.jpg,null,images/tutalien3,null,images/tutalien3,images/t.png,NA,practice,null,NA,NA,NA,NA,sub59
d3-animate-choice,25,155735,0.0-25.0,FALSE,FALSE,TRUE,FALSE,"""event"",""trial"",""time""
""fullscreenenter"",""5"",""12410""
","
","
","""event"",""trial"",""time""
""fullscreenenter"",""5"",""12410""
","
",243.6350000007369,NA,49,NA,NA,3000,1,NA,NA,images/tutyellowplanet.jpg,null,images/tutalien3,null,images/tutalien3,images/t.png,NA,practice,null,NA,NA,NA,NA,sub59
d3-animate-choice,26,158063,0.0-26.0,FALSE,FALSE,TRUE,FALSE,"""event"",""trial"",""time""
""fullscreenenter"",""5"",""12410""
","
","
","""event"",""trial"",""time""
""fullscreenenter"",""5"",""12410""
","
",316.6099999998405,NA,49,NA,NA,3000,1,NA,NA,images/tutyellowplanet.jpg,null,images/tutalien3,null,images/tutalien3,images/t.png,NA,practice,null,NA,NA,NA,NA,sub59
d3-animate-choice,27,160357,0.0-27.0,FALSE,FALSE,TRUE,FALSE,"""event"",""trial"",""time""
""fullscreenenter"",""5"",""12410""
","
","
","""event"",""trial"",""time""
""fullscreenenter"",""5"",""12410""
","
",281.0949999993609,NA,49,NA,NA,3000,1,1679.3449999995646,49,images/tutyellowplanet.jpg,null,images/tutalien3,null,images/tutalien3,images/t.png,NA,practice,null,NA,NA,NA,NA,sub59
d3-animate-choice,28,162579,0.0-28.0,FALSE,FALSE,TRUE,FALSE,"""event"",""trial"",""time""
""fullscreenenter"",""5"",""12410""
","
","
","""event"",""trial"",""time""
""fullscreenenter"",""5"",""12410""
","
",212.92499999981374,NA,49,NA,NA,3000,1,NA,NA,images/tutyellowplanet.jpg,null,images/tutalien3,null,images/tutalien3,images/nothing.png,NA,practice,null,NA,NA,NA,NA,sub59
d3-animate-choice,29,164921,0.0-29.0,FALSE,FALSE,TRUE,FALSE,"""event"",""trial"",""time""
""fullscreenenter"",""5"",""12410""
","
","
","""event"",""trial"",""time""
""fullscreenenter"",""5"",""12410""
","
",333.4450000002107,NA,49,NA,NA,3000,1,NA,NA,images/tutyellowplanet.jpg,null,images/tutalien3,null,images/tutalien3,images/nothing.png,NA,practice,null,NA,NA,NA,NA,sub59
d3-instructions,30,171191,0.0-30.0,FALSE,FALSE,TRUE,FALSE,"""event"",""trial"",""time""
""fullscreenenter"",""5"",""12410""
","
","
","""event"",""trial"",""time""
""fullscreenenter"",""5"",""12410""
","
",NA,NA,NA,NA,NA,NA,NA,NA,NA,NA,NA,NA,NA,NA,NA,NA,NA,NA,NA,NA,NA,NA,sub59
d3-instructions,31,181457,0.0-31.0,FALSE,FALSE,TRUE,FALSE,"""event"",""trial"",""time""
""fullscreenenter"",""5"",""12410""
","
","
","""event"",""trial"",""time""
""fullscreenenter"",""5"",""12410""
","
",NA,NA,NA,NA,NA,NA,NA,NA,NA,NA,NA,NA,NA,NA,NA,NA,NA,NA,NA,NA,NA,NA,sub59
d3-instructions,32,190721,0.0-32.0,FALSE,FALSE,TRUE,FALSE,"""event"",""trial"",""time""
""fullscreenenter"",""5"",""12410""
","
","
","""event"",""trial"",""time""
""fullscreenenter"",""5"",""12410""
","
",NA,NA,NA,NA,NA,NA,NA,NA,NA,NA,NA,NA,NA,NA,NA,NA,NA,NA,NA,NA,NA,NA,sub59
d3-instructions,33,201023,0.0-33.0,FALSE,FALSE,TRUE,FALSE,"""event"",""trial"",""time""
""fullscreenenter"",""5"",""12410""
","
","
","""event"",""trial"",""time""
""fullscreenenter"",""5"",""12410""
","
",NA,NA,NA,NA,NA,NA,NA,NA,NA,NA,NA,NA,NA,NA,NA,NA,NA,NA,NA,NA,NA,NA,sub59
d3-animate-choice,34,203967,0.0-34.0,FALSE,FALSE,TRUE,FALSE,"""event"",""trial"",""time""
""fullscreenenter"",""5"",""12410""
","
","
","""event"",""trial"",""time""
""fullscreenenter"",""5"",""12410""
","
",933.2349999995204,NA,49,NA,NA,3000,1,NA,NA,images/tutgreenplanet.jpg,images/tutalien1,images/tutalien2,null,images/tutalien2,images/t.png,NA,practice,null,NA,NA,NA,NA,sub59
d3-animate-choice,35,206289,0.0-35.0,FALSE,FALSE,TRUE,FALSE,"""event"",""trial"",""time""
""fullscreenenter"",""5"",""12410""
","
","
","""event"",""trial"",""time""
""fullscreenenter"",""5"",""12410""
","
",311.01000000035856,NA,49,NA,NA,3000,1,NA,NA,images/tutgreenplanet.jpg,images/tutalien1,images/tutalien2,null,images/tutalien2,images/t.png,NA,practice,null,NA,NA,NA,NA,sub59
d3-animate-choice,36,208528,0.0-36.0,FALSE,FALSE,TRUE,FALSE,"""event"",""trial"",""time""
""fullscreenenter"",""5"",""12410""
","
","
","""event"",""trial"",""time""
""fullscreenenter"",""5"",""12410""
","
",227.11000000071363,NA,49,NA,NA,3000,1,NA,NA,images/tutgreenplanet.jpg,images/tutalien1,images/tutalien2,null,images/tutalien2,images/t.png,NA,practice,null,NA,NA,NA,NA,sub59
d3-animate-choice,37,210804,0.0-37.0,FALSE,FALSE,TRUE,FALSE,"""event"",""trial"",""time""
""fullscreenenter"",""5"",""12410""
","
","
","""event"",""trial"",""time""
""fullscreenenter"",""5"",""12410""
","
",257.9200000000128,NA,49,NA,NA,3000,1,NA,NA,images/tutgreenplanet.jpg,images/tutalien1,images/tutalien2,null,images/tutalien2,images/t.png,NA,practice,null,NA,NA,NA,NA,sub59
d3-animate-choice,38,213014,0.0-38.0,FALSE,FALSE,TRUE,FALSE,"""event"",""trial"",""time""
""fullscreenenter"",""5"",""12410""
","
","
","""event"",""trial"",""time""
""fullscreenenter"",""5"",""12410""
","
",200.81500000014785,NA,49,NA,NA,3000,1,1649.3549999995448,49,images/tutgreenplanet.jpg,images/tutalien1,images/tutalien2,null,images/tutalien2,images/t.png,NA,practice,null,NA,NA,NA,NA,sub59
d3-animate-choice,39,215191,0.0-39.0,FALSE,FALSE,TRUE,FALSE,"""event"",""trial"",""time""
""fullscreenenter"",""5"",""12410""
","
","
","""event"",""trial"",""time""
""fullscreenenter"",""5"",""12410""
","
",164.96999999979744,NA,49,NA,NA,3000,1,NA,NA,images/tutgreenplanet.jpg,images/tutalien1,images/tutalien2,null,images/tutalien2,images/t.png,NA,practice,null,NA,NA,NA,NA,sub59
d3-animate-choice,40,217447,0.0-40.0,FALSE,FALSE,TRUE,FALSE,"""event"",""trial"",""time""
""fullscreenenter"",""5"",""12410""
","
","
","""event"",""trial"",""time""
""fullscreenenter"",""5"",""12410""
","
",242.73999999967054,NA,49,NA,NA,3000,1,NA,NA,images/tutgreenplanet.jpg,images/tutalien1,images/tutalien2,null,images/tutalien2,images/t.png,NA,practice,null,NA,NA,NA,NA,sub59
d3-animate-choice,41,219816,0.0-41.0,FALSE,FALSE,TRUE,FALSE,"""event"",""trial"",""time""
""fullscreenenter"",""5"",""12410""
","
","
","""event"",""trial"",""time""
""fullscreenenter"",""5"",""12410""
","
",353.0099999998056,NA,48,NA,NA,3000,1,NA,NA,images/tutgreenplanet.jpg,images/tutalien1,images/tutalien2,null,images/tutalien1,images/nothing.png,NA,practice,null,NA,NA,NA,NA,sub59
d3-animate-choice,42,221961,0.0-42.0,FALSE,FALSE,TRUE,FALSE,"""event"",""trial"",""time""
""fullscreenenter"",""5"",""12410""
","
","
","""event"",""trial"",""time""
""fullscreenenter"",""5"",""12410""
","
",134.66999999945983,NA,49,NA,NA,3000,1,1467.0899999991816,49,images/tutgreenplanet.jpg,images/tutalien1,images/tutalien2,null,images/tutalien2,images/t.png,NA,practice,null,NA,NA,NA,NA,sub59
d3-animate-choice,43,224011,0.0-43.0,FALSE,FALSE,TRUE,FALSE,"""event"",""trial"",""time""
""fullscreenenter"",""5"",""12410""
","
","
","""event"",""trial"",""time""
""fullscreenenter"",""5"",""12410""
","
",39.259999999572756,NA,49,NA,NA,3000,1,"1457.0049999993062,2020.9449999993085",4949,images/tutgreenplanet.jpg,images/tutalien1,images/tutalien2,null,images/tutalien2,images/t.png,NA,practice,null,NA,NA,NA,NA,sub59
d3-instructions,44,237604,0.0-44.0,FALSE,FALSE,TRUE,FALSE,"""event"",""trial"",""time""
""fullscreenenter"",""5"",""12410""
","
","
","""event"",""trial"",""time""
""fullscreenenter"",""5"",""12410""
","
",NA,NA,NA,NA,NA,NA,NA,NA,NA,NA,NA,NA,NA,NA,NA,NA,NA,NA,NA,NA,NA,NA,sub59
d3-instructions,45,243913,0.0-45.0,FALSE,FALSE,TRUE,FALSE,"""event"",""trial"",""time""
""fullscreenenter"",""5"",""12410""
","
","
","""event"",""trial"",""time""
""fullscreenenter"",""5"",""12410""
","
",NA,NA,NA,NA,NA,NA,NA,NA,NA,NA,NA,NA,NA,NA,NA,NA,NA,NA,NA,NA,NA,NA,sub59
d3-instructions,46,249621,0.0-46.0,FALSE,FALSE,TRUE,FALSE,"""event"",""trial"",""time""
""fullscreenenter"",""5"",""12410""
","
","
","""event"",""trial"",""time""
""fullscreenenter"",""5"",""12410""
","
",NA,NA,NA,NA,NA,NA,NA,NA,NA,NA,NA,NA,NA,NA,NA,NA,NA,NA,NA,NA,NA,NA,sub59
d3-instructions,47,266629,0.0-47.0,FALSE,FALSE,TRUE,FALSE,"""event"",""trial"",""time""
""fullscreenenter"",""5"",""12410""
","
","
","""event"",""trial"",""time""
""fullscreenenter"",""5"",""12410""
","
",NA,NA,NA,NA,NA,NA,NA,NA,NA,NA,NA,NA,NA,NA,NA,NA,NA,NA,NA,NA,NA,NA,sub59
d3-instructions,48,272878,0.0-48.0,FALSE,FALSE,TRUE,FALSE,"""event"",""trial"",""time""
""fullscreenenter"",""5"",""12410""
","
","
","""event"",""trial"",""time""
""fullscreenenter"",""5"",""12410""
","
",NA,NA,NA,NA,NA,NA,NA,NA,NA,NA,NA,NA,NA,NA,NA,NA,NA,NA,NA,NA,NA,NA,sub59
d3-instructions,49,283033,0.0-49.0,FALSE,FALSE,TRUE,FALSE,"""event"",""trial"",""time""
""fullscreenenter"",""5"",""12410""
","
","
","""event"",""trial"",""time""
""fullscreenenter"",""5"",""12410""
","
",NA,NA,NA,NA,NA,NA,NA,NA,NA,NA,NA,NA,NA,NA,NA,NA,NA,NA,NA,NA,NA,NA,sub59
d3-instructions,50,291717,0.0-50.0,FALSE,FALSE,TRUE,FALSE,"""event"",""trial"",""time""
""fullscreenenter"",""5"",""12410""
","
","
","""event"",""trial"",""time""
""fullscreenenter"",""5"",""12410""
","
",NA,NA,NA,NA,NA,NA,NA,NA,NA,NA,NA,NA,NA,NA,NA,NA,NA,NA,NA,NA,NA,NA,sub59
d3-instructions,51,294668,0.0-51.0,FALSE,FALSE,TRUE,FALSE,"""event"",""trial"",""time""
""fullscreenenter"",""5"",""12410""
","
","
","""event"",""trial"",""time""
""fullscreenenter"",""5"",""12410""
","
",NA,NA,NA,NA,NA,NA,NA,NA,NA,NA,NA,NA,NA,NA,NA,NA,NA,NA,NA,NA,NA,NA,sub59
d3-instructions,52,296740,0.0-52.0,FALSE,FALSE,TRUE,FALSE,"""event"",""trial"",""time""
""fullscreenenter"",""5"",""12410""
","
","
","""event"",""trial"",""time""
""fullscreenenter"",""5"",""12410""
","
",NA,NA,NA,NA,NA,NA,NA,NA,NA,NA,NA,NA,NA,NA,NA,NA,NA,NA,NA,NA,NA,NA,sub59
d3-instructions,53,308515,0.0-53.0,FALSE,FALSE,TRUE,FALSE,"""event"",""trial"",""time""
""fullscreenenter"",""5"",""12410""
","
","
","""event"",""trial"",""time""
""fullscreenenter"",""5"",""12410""
","
",NA,NA,NA,NA,NA,NA,NA,NA,NA,NA,NA,NA,NA,NA,NA,NA,NA,NA,NA,NA,NA,NA,sub59
d3-instructions,54,322177,0.0-54.0,FALSE,FALSE,TRUE,FALSE,"""event"",""trial"",""time""
""fullscreenenter"",""5"",""12410""
","
","
","""event"",""trial"",""time""
""fullscreenenter"",""5"",""12410""
","
",NA,NA,NA,NA,NA,NA,NA,NA,NA,NA,NA,NA,NA,NA,NA,NA,NA,NA,NA,NA,NA,NA,sub59
d3-instructions,55,331576,0.0-55.0,FALSE,FALSE,TRUE,FALSE,"""event"",""trial"",""time""
""fullscreenenter"",""5"",""12410""
","
","
","""event"",""trial"",""time""
""fullscreenenter"",""5"",""12410""
","
",NA,NA,NA,NA,NA,NA,NA,NA,NA,NA,NA,NA,NA,NA,NA,NA,NA,NA,NA,NA,NA,NA,sub59
d3-instructions,56,340356,0.0-56.0,FALSE,FALSE,TRUE,FALSE,"""event"",""trial"",""time""
""fullscreenenter"",""5"",""12410""
","
","
","""event"",""trial"",""time""
""fullscreenenter"",""5"",""12410""
","
",NA,NA,NA,NA,NA,NA,NA,NA,NA,NA,NA,NA,NA,NA,NA,NA,NA,NA,NA,NA,NA,NA,sub59
d3-instructions,57,349849,0.0-57.0,FALSE,FALSE,TRUE,FALSE,"""event"",""trial"",""time""
""fullscreenenter"",""5"",""12410""
","
","
","""event"",""trial"",""time""
""fullscreenenter"",""5"",""12410""
","
",NA,NA,NA,NA,NA,NA,NA,NA,NA,NA,NA,NA,NA,NA,NA,NA,NA,NA,NA,NA,NA,NA,sub59
d3-instructions,58,359517,0.0-58.0,FALSE,FALSE,TRUE,FALSE,"""event"",""trial"",""time""
""fullscreenenter"",""5"",""12410""
","
","
","""event"",""trial"",""time""
""fullscreenenter"",""5"",""12410""
","
",NA,NA,NA,NA,NA,NA,NA,NA,NA,NA,NA,NA,NA,NA,NA,NA,NA,NA,NA,NA,NA,NA,sub59
d3-instructions,59,364462,0.0-59.0,FALSE,FALSE,TRUE,FALSE,"""event"",""trial"",""time""
""fullscreenenter"",""5"",""12410""
","
","
","""event"",""trial"",""time""
""fullscreenenter"",""5"",""12410""
","
",NA,NA,NA,NA,NA,NA,NA,NA,NA,NA,NA,NA,NA,NA,NA,NA,NA,NA,NA,NA,NA,NA,sub59
d3-instructions,60,370955,0.0-60.0,FALSE,FALSE,TRUE,FALSE,"""event"",""trial"",""time""
""fullscreenenter"",""5"",""12410""
","
","
","""event"",""trial"",""time""
""fullscreenenter"",""5"",""12410""
","
",NA,NA,NA,NA,NA,NA,NA,NA,NA,NA,NA,NA,NA,NA,NA,NA,NA,NA,NA,NA,NA,NA,sub59
d3-animate-choice,61,373446,0.0-61.0-0.0,FALSE,FALSE,TRUE,FALSE,"""event"",""trial"",""time""
""fullscreenenter"",""5"",""12410""
","
","
","""event"",""trial"",""time""
""fullscreenenter"",""5"",""12410""
","
",480.0750000004191,NA,49,NA,NA,3000,1,NA,NA,images/earth.jpg,images/tutrocket2,images/tutrocket1,null,images/tutrocket1,NA,1,practice,null,1,NA,NA,NA,sub59
d3-animate-choice,62,377465,0.0-61.0-1.0,FALSE,FALSE,TRUE,FALSE,"""event"",""trial"",""time""
""fullscreenenter"",""5"",""12410""
","
","
","""event"",""trial"",""time""
""fullscreenenter"",""5"",""12410""
","
",null,NA,null,NA,NA,3000,0,NA,NA,images/tutyellowplanet.jpg,images/tutalien4,images/tutalien3,images/tutrocket1,NA,NA,2,practice,true,NA,common,0,2020-06-29T15:37:33Z,sub59
two-step-fixation,63,378480,0.0-61.0-2.0,FALSE,FALSE,TRUE,FALSE,"""event"",""trial"",""time""
""fullscreenenter"",""5"",""12410""
","
","
","""event"",""trial"",""time""
""fullscreenenter"",""5"",""12410""
","
",NA,images/earth.jpg,NA,NA,NA,NA,NA,NA,NA,NA,NA,NA,NA,NA,NA,fixation,NA,NA,NA,NA,NA,NA,sub59
d3-animate-choice,64,381999,0.0-61.0-0.1,FALSE,FALSE,TRUE,FALSE,"""event"",""trial"",""time""
""fullscreenenter"",""5"",""12410""
","
","
","""event"",""trial"",""time""
""fullscreenenter"",""5"",""12410""
","
",1506.4899999997579,NA,49,NA,NA,3000,1,NA,NA,images/earth.jpg,images/tutrocket2,images/tutrocket1,null,images/tutrocket1,NA,1,practice,null,1,NA,NA,NA,sub59
d3-animate-choice,65,384768,0.0-61.0-1.1,FALSE,FALSE,TRUE,FALSE,"""event"",""trial"",""time""
""fullscreenenter"",""5"",""12410""
","
","
","""event"",""trial"",""time""
""fullscreenenter"",""5"",""12410""
","
",747.180000000284,NA,49,NA,NA,3000,1,NA,NA,images/tutgreenplanet.jpg,images/tutalien2,images/tutalien1,images/tutrocket1,images/tutalien1,images/nothing.png,2,practice,false,1,rare,0,2020-06-29T15:37:40Z,sub59
two-step-fixation,66,385775,0.0-61.0-2.1,FALSE,FALSE,TRUE,FALSE,"""event"",""trial"",""time""
""fullscreenenter"",""5"",""12410""
","
","
","""event"",""trial"",""time""
""fullscreenenter"",""5"",""12410""
","
",NA,images/earth.jpg,NA,NA,NA,NA,NA,NA,NA,NA,NA,NA,NA,NA,NA,fixation,NA,NA,NA,NA,NA,NA,sub59
d3-animate-choice,67,389160,0.0-61.0-0.2,FALSE,FALSE,TRUE,FALSE,"""event"",""trial"",""time""
""fullscreenenter"",""5"",""12410""
","
","
","""event"",""trial"",""time""
""fullscreenenter"",""5"",""12410""
","
",1372.7349999999278,NA,48,NA,NA,3000,1,NA,NA,images/earth.jpg,images/tutrocket2,images/tutrocket1,null,images/tutrocket2,NA,1,practice,null,2,NA,NA,NA,sub59
d3-animate-choice,68,391825,0.0-61.0-1.2,FALSE,FALSE,TRUE,FALSE,"""event"",""trial"",""time""
""fullscreenenter"",""5"",""12410""
","
","
","""event"",""trial"",""time""
""fullscreenenter"",""5"",""12410""
","
",651.9899999994086,NA,48,NA,NA,3000,1,NA,NA,images/tutgreenplanet.jpg,images/tutalien2,images/tutalien1,images/tutrocket2,images/tutalien2,images/t.png,2,practice,true,2,common,1,2020-06-29T15:37:48Z,sub59
two-step-fixation,69,392835,0.0-61.0-2.2,FALSE,FALSE,TRUE,FALSE,"""event"",""trial"",""time""
""fullscreenenter"",""5"",""12410""
","
","
","""event"",""trial"",""time""
""fullscreenenter"",""5"",""12410""
","
",NA,images/earth.jpg,NA,NA,NA,NA,NA,NA,NA,NA,NA,NA,NA,NA,NA,fixation,NA,NA,NA,NA,NA,NA,sub59
d3-animate-choice,70,395928,0.0-61.0-0.3,FALSE,FALSE,TRUE,FALSE,"""event"",""trial"",""time""
""fullscreenenter"",""5"",""12410""
","
","
","""event"",""trial"",""time""
""fullscreenenter"",""5"",""12410""
","
",1081.9650000003166,NA,49,NA,NA,3000,1,NA,NA,images/earth.jpg,images/tutrocket2,images/tutrocket1,null,images/tutrocket1,NA,1,practice,null,1,NA,NA,NA,sub59
d3-animate-choice,71,398837,0.0-61.0-1.3,FALSE,FALSE,TRUE,FALSE,"""event"",""trial"",""time""
""fullscreenenter"",""5"",""12410""
","
","
","""event"",""trial"",""time""
""fullscreenenter"",""5"",""12410""
","
",892.8599999999278,NA,48,NA,NA,3000,1,NA,NA,images/tutyellowplanet.jpg,images/tutalien4,images/tutalien3,images/tutrocket1,images/tutalien4,images/nothing.png,2,practice,true,2,common,0,2020-06-29T15:37:55Z,sub59
two-step-fixation,72,399847,0.0-61.0-2.3,FALSE,FALSE,TRUE,FALSE,"""event"",""trial"",""time""
""fullscreenenter"",""5"",""12410""
","
","
","""event"",""trial"",""time""
""fullscreenenter"",""5"",""12410""
","
",NA,images/earth.jpg,NA,NA,NA,NA,NA,NA,NA,NA,NA,NA,NA,NA,NA,fixation,NA,NA,NA,NA,NA,NA,sub59
d3-animate-choice,73,402367,0.0-61.0-0.4,FALSE,FALSE,TRUE,FALSE,"""event"",""trial"",""time""
""fullscreenenter"",""5"",""12410""
","
","
","""event"",""trial"",""time""
""fullscreenenter"",""5"",""12410""
","
",509.03000000020256,NA,49,NA,NA,3000,1,NA,NA,images/earth.jpg,images/tutrocket2,images/tutrocket1,null,images/tutrocket1,NA,1,practice,null,1,NA,NA,NA,sub59
d3-animate-choice,74,404705,0.0-61.0-1.4,FALSE,FALSE,TRUE,FALSE,"""event"",""trial"",""time""
""fullscreenenter"",""5"",""12410""
","
","
","""event"",""trial"",""time""
""fullscreenenter"",""5"",""12410""
","
",324.85499999980675,NA,49,NA,NA,3000,1,NA,NA,images/tutgreenplanet.jpg,images/tutalien2,images/tutalien1,images/tutrocket1,images/tutalien1,images/nothing.png,2,practice,false,1,rare,0,2020-06-29T15:38:00Z,sub59
two-step-fixation,75,405719,0.0-61.0-2.4,FALSE,FALSE,TRUE,FALSE,"""event"",""trial"",""time""
""fullscreenenter"",""5"",""12410""
","
","
","""event"",""trial"",""time""
""fullscreenenter"",""5"",""12410""
","
",NA,images/earth.jpg,NA,NA,NA,NA,NA,NA,NA,NA,NA,NA,NA,NA,NA,fixation,NA,NA,NA,NA,NA,NA,sub59
d3-animate-choice,76,408185,0.0-61.0-0.5,FALSE,FALSE,TRUE,FALSE,"""event"",""trial"",""time""
""fullscreenenter"",""5"",""12410""
","
","
","""event"",""trial"",""time""
""fullscreenenter"",""5"",""12410""
","
",455.9549999994342,NA,48,NA,NA,3000,1,NA,NA,images/earth.jpg,images/tutrocket2,images/tutrocket1,null,images/tutrocket2,NA,1,practice,null,2,NA,NA,NA,sub59
d3-animate-choice,77,410586,0.0-61.0-1.5,FALSE,FALSE,TRUE,FALSE,"""event"",""trial"",""time""
""fullscreenenter"",""5"",""12410""
","
","
","""event"",""trial"",""time""
""fullscreenenter"",""5"",""12410""
","
",387.4650000007241,NA,48,NA,NA,3000,1,NA,NA,images/tutyellowplanet.jpg,images/tutalien4,images/tutalien3,images/tutrocket2,images/tutalien4,images/nothing.png,2,practice,false,2,rare,0,2020-06-29T15:38:06Z,sub59
two-step-fixation,78,411596,0.0-61.0-2.5,FALSE,FALSE,TRUE,FALSE,"""event"",""trial"",""time""
""fullscreenenter"",""5"",""12410""
","
","
","""event"",""trial"",""time""
""fullscreenenter"",""5"",""12410""
","
",NA,images/earth.jpg,NA,NA,NA,NA,NA,NA,NA,NA,NA,NA,NA,NA,NA,fixation,NA,NA,NA,NA,NA,NA,sub59
d3-animate-choice,79,414485,0.0-61.0-0.6,FALSE,FALSE,TRUE,FALSE,"""event"",""trial"",""time""
""fullscreenenter"",""5"",""12410""
","
","
","""event"",""trial"",""time""
""fullscreenenter"",""5"",""12410""
","
",874.2550000005867,NA,48,NA,NA,3000,1,NA,NA,images/earth.jpg,images/tutrocket2,images/tutrocket1,null,images/tutrocket2,NA,1,practice,null,2,NA,NA,NA,sub59
d3-animate-choice,80,416798,0.0-61.0-1.6,FALSE,FALSE,TRUE,FALSE,"""event"",""trial"",""time""
""fullscreenenter"",""5"",""12410""
","
","
","""event"",""trial"",""time""
""fullscreenenter"",""5"",""12410""
","
",295.5700000002398,NA,49,NA,NA,3000,1,NA,NA,images/tutgreenplanet.jpg,images/tutalien2,images/tutalien1,images/tutrocket2,images/tutalien1,images/nothing.png,2,practice,true,1,common,0,2020-06-29T15:38:13Z,sub59
two-step-fixation,81,417808,0.0-61.0-2.6,FALSE,FALSE,TRUE,FALSE,"""event"",""trial"",""time""
""fullscreenenter"",""5"",""12410""
","
","
","""event"",""trial"",""time""
""fullscreenenter"",""5"",""12410""
","
",NA,images/earth.jpg,NA,NA,NA,NA,NA,NA,NA,NA,NA,NA,NA,NA,NA,fixation,NA,NA,NA,NA,NA,NA,sub59
d3-animate-choice,82,420331,0.0-61.0-0.7,FALSE,FALSE,TRUE,FALSE,"""event"",""trial"",""time""
""fullscreenenter"",""5"",""12410""
","
","
","""event"",""trial"",""time""
""fullscreenenter"",""5"",""12410""
","
",509.99000000051456,NA,49,NA,NA,3000,1,NA,NA,images/earth.jpg,images/tutrocket2,images/tutrocket1,null,images/tutrocket1,NA,1,practice,null,1,NA,NA,NA,sub59
d3-animate-choice,83,422678,0.0-61.0-1.7,FALSE,FALSE,TRUE,FALSE,"""event"",""trial"",""time""
""fullscreenenter"",""5"",""12410""
","
","
","""event"",""trial"",""time""
""fullscreenenter"",""5"",""12410""
","
",335.1899999997695,NA,48,NA,NA,3000,1,NA,NA,images/tutgreenplanet.jpg,images/tutalien2,images/tutalien1,images/tutrocket1,images/tutalien2,images/nothing.png,2,practice,false,2,rare,0,2020-06-29T15:38:18Z,sub59
two-step-fixation,84,423689,0.0-61.0-2.7,FALSE,FALSE,TRUE,FALSE,"""event"",""trial"",""time""
""fullscreenenter"",""5"",""12410""
","
","
","""event"",""trial"",""time""
""fullscreenenter"",""5"",""12410""
","
",NA,images/earth.jpg,NA,NA,NA,NA,NA,NA,NA,NA,NA,NA,NA,NA,NA,fixation,NA,NA,NA,NA,NA,NA,sub59
d3-animate-choice,85,426750,0.0-61.0-0.8,FALSE,FALSE,TRUE,FALSE,"""event"",""trial"",""time""
""fullscreenenter"",""5"",""12410""
","
","
","""event"",""trial"",""time""
""fullscreenenter"",""5"",""12410""
","
",1048.6600000003818,NA,49,NA,NA,3000,1,NA,NA,images/earth.jpg,images/tutrocket2,images/tutrocket1,null,images/tutrocket1,NA,1,practice,null,1,NA,NA,NA,sub59
d3-animate-choice,86,429869,0.0-61.0-1.8,FALSE,FALSE,TRUE,FALSE,"""event"",""trial"",""time""
""fullscreenenter"",""5"",""12410""
","
","
","""event"",""trial"",""time""
""fullscreenenter"",""5"",""12410""
","
",1107.8900000001886,NA,49,NA,NA,3000,1,NA,NA,images/tutyellowplanet.jpg,images/tutalien4,images/tutalien3,images/tutrocket1,images/tutalien3,images/t.png,2,practice,true,1,common,1,2020-06-29T15:38:26Z,sub59
two-step-fixation,87,430883,0.0-61.0-2.8,FALSE,FALSE,TRUE,FALSE,"""event"",""trial"",""time""
""fullscreenenter"",""5"",""12410""
","
","
","""event"",""trial"",""time""
""fullscreenenter"",""5"",""12410""
","
",NA,images/earth.jpg,NA,NA,NA,NA,NA,NA,NA,NA,NA,NA,NA,NA,NA,fixation,NA,NA,NA,NA,NA,NA,sub59
d3-animate-choice,88,433507,0.0-61.0-0.9,FALSE,FALSE,TRUE,FALSE,"""event"",""trial"",""time""
""fullscreenenter"",""5"",""12410""
","
","
","""event"",""trial"",""time""
""fullscreenenter"",""5"",""12410""
","
",610.5299999999115,NA,49,NA,NA,3000,1,NA,NA,images/earth.jpg,images/tutrocket2,images/tutrocket1,null,images/tutrocket1,NA,1,practice,null,1,NA,NA,NA,sub59
d3-animate-choice,89,436008,0.0-61.0-1.9,FALSE,FALSE,TRUE,FALSE,"""event"",""trial"",""time""
""fullscreenenter"",""5"",""12410""
","
","
","""event"",""trial"",""time""
""fullscreenenter"",""5"",""12410""
","
",487.05000000062864,NA,49,NA,NA,3000,1,NA,NA,images/tutyellowplanet.jpg,images/tutalien4,images/tutalien3,images/tutrocket1,images/tutalien3,images/t.png,2,practice,true,1,common,1,2020-06-29T15:38:32Z,sub59
two-step-fixation,90,437020,0.0-61.0-2.9,FALSE,FALSE,TRUE,FALSE,"""event"",""trial"",""time""
""fullscreenenter"",""5"",""12410""
","
","
","""event"",""trial"",""time""
""fullscreenenter"",""5"",""12410""
","
",NA,images/earth.jpg,NA,NA,NA,NA,NA,NA,NA,NA,NA,NA,NA,NA,NA,fixation,NA,NA,NA,NA,NA,NA,sub59
d3-animate-choice,91,439296,0.0-61.0-0.10,FALSE,FALSE,TRUE,FALSE,"""event"",""trial"",""time""
""fullscreenenter"",""5"",""12410""
","
","
","""event"",""trial"",""time""
""fullscreenenter"",""5"",""12410""
","
",263.20500000024913,NA,49,NA,NA,3000,1,NA,NA,images/earth.jpg,images/tutrocket2,images/tutrocket1,null,images/tutrocket1,NA,1,practice,null,1,NA,NA,NA,sub59
d3-animate-choice,92,441595,0.0-61.0-1.10,FALSE,FALSE,TRUE,FALSE,"""event"",""trial"",""time""
""fullscreenenter"",""5"",""12410""
","
","
","""event"",""trial"",""time""
""fullscreenenter"",""5"",""12410""
","
",281.32499999995343,NA,49,NA,NA,3000,1,NA,NA,images/tutgreenplanet.jpg,images/tutalien2,images/tutalien1,images/tutrocket1,images/tutalien1,images/nothing.png,2,practice,false,1,rare,0,2020-06-29T15:38:37Z,sub59
two-step-fixation,93,442608,0.0-61.0-2.10,FALSE,FALSE,TRUE,FALSE,"""event"",""trial"",""time""
""fullscreenenter"",""5"",""12410""
","
","
","""event"",""trial"",""time""
""fullscreenenter"",""5"",""12410""
","
",NA,images/earth.jpg,NA,NA,NA,NA,NA,NA,NA,NA,NA,NA,NA,NA,NA,fixation,NA,NA,NA,NA,NA,NA,sub59
d3-animate-choice,94,445217,0.0-61.0-0.11,FALSE,FALSE,TRUE,FALSE,"""event"",""trial"",""time""
""fullscreenenter"",""5"",""12410""
","
","
","""event"",""trial"",""time""
""fullscreenenter"",""5"",""12410""
","
",595.9150000007357,NA,48,NA,NA,3000,1,NA,NA,images/earth.jpg,images/tutrocket2,images/tutrocket1,null,images/tutrocket2,NA,1,practice,null,2,NA,NA,NA,sub59
d3-animate-choice,95,447785,0.0-61.0-1.11,FALSE,FALSE,TRUE,FALSE,"""event"",""trial"",""time""
""fullscreenenter"",""5"",""12410""
","
","
","""event"",""trial"",""time""
""fullscreenenter"",""5"",""12410""
","
",551.939999999362,NA,49,NA,NA,3000,1,1823.220000000205,49,images/tutyellowplanet.jpg,images/tutalien4,images/tutalien3,images/tutrocket2,images/tutalien3,images/nothing.png,2,practice,false,1,rare,0,2020-06-29T15:38:44Z,sub59
two-step-fixation,96,448794,0.0-61.0-2.11,FALSE,FALSE,TRUE,FALSE,"""event"",""trial"",""time""
""fullscreenenter"",""5"",""12410""
","
","
","""event"",""trial"",""time""
""fullscreenenter"",""5"",""12410""
","
",NA,images/earth.jpg,NA,NA,NA,NA,NA,NA,NA,NA,NA,NA,NA,NA,NA,fixation,NA,NA,NA,NA,NA,NA,sub59
d3-animate-choice,97,451415,0.0-61.0-0.12,FALSE,FALSE,TRUE,FALSE,"""event"",""trial"",""time""
""fullscreenenter"",""5"",""12410""
","
","
","""event"",""trial"",""time""
""fullscreenenter"",""5"",""12410""
","
",608.1000000003842,NA,48,NA,NA,3000,1,NA,NA,images/earth.jpg,images/tutrocket2,images/tutrocket1,null,images/tutrocket2,NA,1,practice,null,2,NA,NA,NA,sub59
d3-animate-choice,98,454642,0.0-61.0-1.12,FALSE,FALSE,TRUE,FALSE,"""event"",""trial"",""time""
""fullscreenenter"",""5"",""12410""
","
","
","""event"",""trial"",""time""
""fullscreenenter"",""5"",""12410""
","
",339.785000000149,NA,192,NA,NA,3000,1,"1012.685000000638,1208.0900000000838",19249,images/tutyellowplanet.jpg,images/tutalien4,images/tutalien3,images/tutrocket2,images/tutalien3,images/nothing.png,2,practice,false,NA,rare,0,2020-06-29T15:38:50Z,sub59
two-step-fixation,99,455651,0.0-61.0-2.12,FALSE,FALSE,TRUE,FALSE,"""event"",""trial"",""time""
""fullscreenenter"",""5"",""12410""
","
","
","""event"",""trial"",""time""
""fullscreenenter"",""5"",""12410""
","
",NA,images/earth.jpg,NA,NA,NA,NA,NA,NA,NA,NA,NA,NA,NA,NA,NA,fixation,NA,NA,NA,NA,NA,NA,sub59
d3-animate-choice,100,458365,0.0-61.0-0.13,FALSE,FALSE,TRUE,FALSE,"""event"",""trial"",""time""
""fullscreenenter"",""5"",""12410""
","
","
","""event"",""trial"",""time""
""fullscreenenter"",""5"",""12410""
","
",696.7399999994086,NA,48,NA,NA,3000,1,NA,NA,images/earth.jpg,images/tutrocket2,images/tutrocket1,null,images/tutrocket2,NA,1,practice,null,2,NA,NA,NA,sub59
d3-animate-choice,101,461000,0.0-61.0-1.13,FALSE,FALSE,TRUE,FALSE,"""event"",""trial"",""time""
""fullscreenenter"",""5"",""12410""
","
","
","""event"",""trial"",""time""
""fullscreenenter"",""5"",""12410""
","
",620.3799999994226,NA,48,NA,NA,3000,1,NA,NA,images/tutgreenplanet.jpg,images/tutalien2,images/tutalien1,images/tutrocket2,images/tutalien2,images/t.png,2,practice,true,2,common,1,2020-06-29T15:38:57Z,sub59
two-step-fixation,102,462011,0.0-61.0-2.13,FALSE,FALSE,TRUE,FALSE,"""event"",""trial"",""time""
""fullscreenenter"",""5"",""12410""
","
","
","""event"",""trial"",""time""
""fullscreenenter"",""5"",""12410""
","
",NA,images/earth.jpg,NA,NA,NA,NA,NA,NA,NA,NA,NA,NA,NA,NA,NA,fixation,NA,NA,NA,NA,NA,NA,sub59
d3-animate-choice,103,464648,0.0-61.0-0.14,FALSE,FALSE,TRUE,FALSE,"""event"",""trial"",""time""
""fullscreenenter"",""5"",""12410""
","
","
","""event"",""trial"",""time""
""fullscreenenter"",""5"",""12410""
","
",625.1300000003539,NA,48,NA,NA,3000,1,NA,NA,images/earth.jpg,images/tutrocket2,images/tutrocket1,null,images/tutrocket2,NA,1,practice,null,2,NA,NA,NA,sub59
d3-animate-choice,104,467186,0.0-61.0-1.14,FALSE,FALSE,TRUE,FALSE,"""event"",""trial"",""time""
""fullscreenenter"",""5"",""12410""
","
","
","""event"",""trial"",""time""
""fullscreenenter"",""5"",""12410""
","
",522.5949999994482,NA,48,NA,NA,3000,1,NA,NA,images/tutgreenplanet.jpg,images/tutalien2,images/tutalien1,images/tutrocket2,images/tutalien2,images/t.png,2,practice,true,2,common,1,2020-06-29T15:39:03Z,sub59
two-step-fixation,105,468193,0.0-61.0-2.14,FALSE,FALSE,TRUE,FALSE,"""event"",""trial"",""time""
""fullscreenenter"",""5"",""12410""
","
","
","""event"",""trial"",""time""
""fullscreenenter"",""5"",""12410""
","
",NA,images/earth.jpg,NA,NA,NA,NA,NA,NA,NA,NA,NA,NA,NA,NA,NA,fixation,NA,NA,NA,NA,NA,NA,sub59
d3-animate-choice,106,470450,0.0-61.0-0.15,FALSE,FALSE,TRUE,FALSE,"""event"",""trial"",""time""
""fullscreenenter"",""5"",""12410""
","
","
","""event"",""trial"",""time""
""fullscreenenter"",""5"",""12410""
","
",244.16500000003725,NA,48,NA,NA,3000,1,NA,NA,images/earth.jpg,images/tutrocket2,images/tutrocket1,null,images/tutrocket2,NA,1,practice,null,2,NA,NA,NA,sub59
d3-animate-choice,107,472898,0.0-61.0-1.15,FALSE,FALSE,TRUE,FALSE,"""event"",""trial"",""time""
""fullscreenenter"",""5"",""12410""
","
","
","""event"",""trial"",""time""
""fullscreenenter"",""5"",""12410""
","
",429.5650000004098,NA,48,NA,NA,3000,1,NA,NA,images/tutyellowplanet.jpg,images/tutalien4,images/tutalien3,images/tutrocket2,images/tutalien4,images/t.png,2,practice,false,2,rare,1,2020-06-29T15:39:09Z,sub59
two-step-fixation,108,473910,0.0-61.0-2.15,FALSE,FALSE,TRUE,FALSE,"""event"",""trial"",""time""
""fullscreenenter"",""5"",""12410""
","
","
","""event"",""trial"",""time""
""fullscreenenter"",""5"",""12410""
","
",NA,images/earth.jpg,NA,NA,NA,NA,NA,NA,NA,NA,NA,NA,NA,NA,NA,fixation,NA,NA,NA,NA,NA,NA,sub59
d3-animate-choice,109,476255,0.0-61.0-0.16,FALSE,FALSE,TRUE,FALSE,"""event"",""trial"",""time""
""fullscreenenter"",""5"",""12410""
","
","
","""event"",""trial"",""time""
""fullscreenenter"",""5"",""12410""
","
",331.11000000010245,NA,48,NA,NA,3000,1,NA,NA,images/earth.jpg,images/tutrocket2,images/tutrocket1,null,images/tutrocket2,NA,1,practice,null,2,NA,NA,NA,sub59
d3-animate-choice,110,478734,0.0-61.0-1.16,FALSE,FALSE,TRUE,FALSE,"""event"",""trial"",""time""
""fullscreenenter"",""5"",""12410""
","
","
","""event"",""trial"",""time""
""fullscreenenter"",""5"",""12410""
","
",457.2449999995879,NA,48,NA,NA,3000,1,NA,NA,images/tutgreenplanet.jpg,images/tutalien2,images/tutalien1,images/tutrocket2,images/tutalien2,images/nothing.png,2,practice,true,2,common,0,2020-06-29T15:39:14Z,sub59
two-step-fixation,111,479746,0.0-61.0-2.16,FALSE,FALSE,TRUE,FALSE,"""event"",""trial"",""time""
""fullscreenenter"",""5"",""12410""
","
","
","""event"",""trial"",""time""
""fullscreenenter"",""5"",""12410""
","
",NA,images/earth.jpg,NA,NA,NA,NA,NA,NA,NA,NA,NA,NA,NA,NA,NA,fixation,NA,NA,NA,NA,NA,NA,sub59
d3-animate-choice,112,482100,0.0-61.0-0.17,FALSE,FALSE,TRUE,FALSE,"""event"",""trial"",""time""
""fullscreenenter"",""5"",""12410""
","
","
","""event"",""trial"",""time""
""fullscreenenter"",""5"",""12410""
","
",340.27500000043074,NA,48,NA,NA,3000,1,NA,NA,images/earth.jpg,images/tutrocket2,images/tutrocket1,null,images/tutrocket2,NA,1,practice,null,2,NA,NA,NA,sub59
d3-animate-choice,113,484701,0.0-61.0-1.17,FALSE,FALSE,TRUE,FALSE,"""event"",""trial"",""time""
""fullscreenenter"",""5"",""12410""
","
","
","""event"",""trial"",""time""
""fullscreenenter"",""5"",""12410""
","
",587.3499999998021,NA,48,NA,NA,3000,1,NA,NA,images/tutgreenplanet.jpg,images/tutalien2,images/tutalien1,images/tutrocket2,images/tutalien2,images/t.png,2,practice,true,2,common,1,2020-06-29T15:39:20Z,sub59
two-step-fixation,114,485711,0.0-61.0-2.17,FALSE,FALSE,TRUE,FALSE,"""event"",""trial"",""time""
""fullscreenenter"",""5"",""12410""
","
","
","""event"",""trial"",""time""
""fullscreenenter"",""5"",""12410""
","
",NA,images/earth.jpg,NA,NA,NA,NA,NA,NA,NA,NA,NA,NA,NA,NA,NA,fixation,NA,NA,NA,NA,NA,NA,sub59
d3-animate-choice,115,488040,0.0-61.0-0.18,FALSE,FALSE,TRUE,FALSE,"""event"",""trial"",""time""
""fullscreenenter"",""5"",""12410""
","
","
","""event"",""trial"",""time""
""fullscreenenter"",""5"",""12410""
","
",317.2000000004191,NA,49,NA,NA,3000,1,NA,NA,images/earth.jpg,images/tutrocket2,images/tutrocket1,null,images/tutrocket1,NA,1,practice,null,1,NA,NA,NA,sub59
d3-animate-choice,116,490523,0.0-61.0-1.18,FALSE,FALSE,TRUE,FALSE,"""event"",""trial"",""time""
""fullscreenenter"",""5"",""12410""
","
","
","""event"",""trial"",""time""
""fullscreenenter"",""5"",""12410""
","
",467.3750000001746,NA,49,NA,NA,3000,1,NA,NA,images/tutyellowplanet.jpg,images/tutalien4,images/tutalien3,images/tutrocket1,images/tutalien3,images/t.png,2,practice,true,1,common,1,2020-06-29T15:39:26Z,sub59
two-step-fixation,117,491536,0.0-61.0-2.18,FALSE,FALSE,TRUE,FALSE,"""event"",""trial"",""time""
""fullscreenenter"",""5"",""12410""
","
","
","""event"",""trial"",""time""
""fullscreenenter"",""5"",""12410""
","
",NA,images/earth.jpg,NA,NA,NA,NA,NA,NA,NA,NA,NA,NA,NA,NA,NA,fixation,NA,NA,NA,NA,NA,NA,sub59
d3-animate-choice,118,493828,0.0-61.0-0.19,FALSE,FALSE,TRUE,FALSE,"""event"",""trial"",""time""
""fullscreenenter"",""5"",""12410""
","
","
","""event"",""trial"",""time""
""fullscreenenter"",""5"",""12410""
","
",276.0399999997462,NA,48,NA,NA,3000,1,NA,NA,images/earth.jpg,images/tutrocket2,images/tutrocket1,null,images/tutrocket2,NA,1,practice,null,2,NA,NA,NA,sub59
d3-animate-choice,119,496229,0.0-61.0-1.19,FALSE,FALSE,TRUE,FALSE,"""event"",""trial"",""time""
""fullscreenenter"",""5"",""12410""
","
","
","""event"",""trial"",""time""
""fullscreenenter"",""5"",""12410""
","
",387.2699999992619,NA,49,NA,NA,3000,1,NA,NA,images/tutgreenplanet.jpg,images/tutalien2,images/tutalien1,images/tutrocket2,images/tutalien1,images/t.png,2,practice,true,1,common,1,2020-06-29T15:39:32Z,sub59
two-step-fixation,120,497241,0.0-61.0-2.19,FALSE,FALSE,TRUE,FALSE,"""event"",""trial"",""time""
""fullscreenenter"",""5"",""12410""
","
","
","""event"",""trial"",""time""
""fullscreenenter"",""5"",""12410""
","
",NA,images/earth.jpg,NA,NA,NA,NA,NA,NA,NA,NA,NA,NA,NA,NA,NA,fixation,NA,NA,NA,NA,NA,NA,sub59
d3-instructions,121,502859,0.0-62.0,FALSE,FALSE,TRUE,FALSE,"""event"",""trial"",""time""
""fullscreenenter"",""5"",""12410""
","
","
","""event"",""trial"",""time""
""fullscreenenter"",""5"",""12410""
","
",NA,NA,NA,NA,NA,NA,NA,NA,NA,NA,NA,NA,NA,NA,NA,NA,NA,NA,NA,NA,NA,NA,sub59
audio-keyboard-response,122,506921,0.0-63.0,FALSE,FALSE,TRUE,FALSE,"""event"",""trial"",""time""
""fullscreenenter"",""5"",""12410""
","
","
","""event"",""trial"",""time""
""fullscreenenter"",""5"",""12410""
","
",4053,audio/instructions/treasure_feedback.wav,32,NA,NA,NA,NA,NA,NA,NA,NA,NA,NA,NA,NA,NA,NA,NA,NA,NA,NA,NA,sub59
d3-instructions,123,525018,0.0-64.0,FALSE,FALSE,TRUE,FALSE,"""event"",""trial"",""time""
""fullscreenenter"",""5"",""12410""
","
","
","""event"",""trial"",""time""
""fullscreenenter"",""5"",""12410""
","
",NA,NA,NA,NA,NA,NA,NA,NA,NA,NA,NA,NA,NA,NA,NA,NA,NA,NA,NA,NA,NA,NA,sub59
d3-instructions,124,539246,0.0-65.0,FALSE,FALSE,TRUE,FALSE,"""event"",""trial"",""time""
""fullscreenenter"",""5"",""12410""
","
","
","""event"",""trial"",""time""
""fullscreenenter"",""5"",""12410""
","
",NA,NA,NA,NA,NA,NA,NA,NA,NA,NA,NA,NA,NA,NA,NA,NA,NA,NA,NA,NA,NA,NA,sub59
d3-instructions,125,552416,0.0-66.0,FALSE,FALSE,TRUE,FALSE,"""event"",""trial"",""time""
""fullscreenenter"",""5"",""12410""
","
","
","""event"",""trial"",""time""
""fullscreenenter"",""5"",""12410""
","
",NA,NA,NA,NA,NA,NA,NA,NA,NA,NA,NA,NA,NA,NA,NA,NA,NA,NA,NA,NA,NA,NA,sub59
d3-instructions,126,559364,0.0-67.0,FALSE,FALSE,TRUE,FALSE,"""event"",""trial"",""time""
""fullscreenenter"",""5"",""12410""
","
","
","""event"",""trial"",""time""
""fullscreenenter"",""5"",""12410""
","
",NA,NA,NA,NA,NA,NA,NA,NA,NA,NA,NA,NA,NA,NA,NA,NA,NA,NA,NA,NA,NA,NA,sub59
d3-instructions,127,564879,0.0-68.0,FALSE,FALSE,TRUE,FALSE,"""event"",""trial"",""time""
""fullscreenenter"",""5"",""12410""
","
","
","""event"",""trial"",""time""
""fullscreenenter"",""5"",""12410""
","
",NA,NA,NA,NA,NA,NA,NA,NA,NA,NA,NA,NA,NA,NA,NA,NA,NA,NA,NA,NA,NA,NA,sub59
instructions-quiz,128,569895,0.0-69.0,FALSE,FALSE,TRUE,FALSE,"""event"",""trial"",""time""
""fullscreenenter"",""5"",""12410""
","
","
","""event"",""trial"",""time""
""fullscreenenter"",""5"",""12410""
","
",5008.810000000289,audio/quiz/Q1_Prompt.wav,NA,1,NA,NA,NA,NA,NA,NA,NA,NA,NA,NA,NA,NA,NA,NA,NA,NA,NA,NA,sub59
audio-keyboard-response,129,579073,0.0-70.0,FALSE,FALSE,TRUE,FALSE,"""event"",""trial"",""time""
""fullscreenenter"",""5"",""12410""
","
","
","""event"",""trial"",""time""
""fullscreenenter"",""5"",""12410""
","
",null,audio/quiz/Q1_Correct.wav,null,NA,NA,NA,NA,NA,NA,NA,NA,NA,NA,NA,NA,NA,NA,NA,NA,NA,NA,NA,sub59
instructions-quiz,130,584188,0.0-71.0,FALSE,FALSE,TRUE,FALSE,"""event"",""trial"",""time""
""fullscreenenter"",""5"",""12410""
","
","
","""event"",""trial"",""time""
""fullscreenenter"",""5"",""12410""
","
",5110.464999999735,audio/quiz/Q2_Prompt.wav,NA,0,NA,NA,NA,NA,NA,NA,NA,NA,NA,NA,NA,NA,NA,NA,NA,NA,NA,NA,sub59
audio-keyboard-response,131,585170,0.0-72.0,FALSE,FALSE,TRUE,FALSE,"""event"",""trial"",""time""
""fullscreenenter"",""5"",""12410""
","
","
","""event"",""trial"",""time""
""fullscreenenter"",""5"",""12410""
","
",981,audio/quiz/Q2_Correct.wav,32,NA,NA,NA,NA,NA,NA,NA,NA,NA,NA,NA,NA,NA,NA,NA,NA,NA,NA,NA,sub59
instructions-quiz,132,589351,0.0-73.0,FALSE,FALSE,TRUE,FALSE,"""event"",""trial"",""time""
""fullscreenenter"",""5"",""12410""
","
","
","""event"",""trial"",""time""
""fullscreenenter"",""5"",""12410""
","
",4176.989999999874,audio/quiz/Q3_Prompt.wav,NA,1,NA,NA,NA,NA,NA,NA,NA,NA,NA,NA,NA,NA,NA,NA,NA,NA,NA,NA,sub59
audio-keyboard-response,133,590053,0.0-74.0,FALSE,FALSE,TRUE,FALSE,"""event"",""trial"",""time""
""fullscreenenter"",""5"",""12410""
","
","
","""event"",""trial"",""time""
""fullscreenenter"",""5"",""12410""
","
",693,audio/quiz/Q3_Correct.wav,32,NA,NA,NA,NA,NA,NA,NA,NA,NA,NA,NA,NA,NA,NA,NA,NA,NA,NA,NA,sub59
d3-instructions,134,598400,0.0-75.0,FALSE,FALSE,TRUE,FALSE,"""event"",""trial"",""time""
""fullscreenenter"",""5"",""12410""
","
","
","""event"",""trial"",""time""
""fullscreenenter"",""5"",""12410""
","
",NA,NA,NA,NA,NA,NA,NA,NA,NA,NA,NA,NA,NA,NA,NA,NA,NA,NA,NA,NA,NA,NA,sub59
d3-animate-choice,135,601933,0.0-76.0-0.0,FALSE,FALSE,TRUE,FALSE,"""event"",""trial"",""time""
""fullscreenenter"",""5"",""12410""
","
","
","""event"",""trial"",""time""
""fullscreenenter"",""5"",""12410""
","
",1521.5299999999115,NA,49,NA,NA,3000,1,NA,NA,images/earth.jpg,images/rocket1,images/rocket2,null,images/rocket2,NA,1,real,null,1,NA,NA,NA,sub59
d3-animate-choice,136,604457,0.0-76.0-1.0,FALSE,FALSE,TRUE,FALSE,"""event"",""trial"",""time""
""fullscreenenter"",""5"",""12410""
","
","
","""event"",""trial"",""time""
""fullscreenenter"",""5"",""12410""
","
",507.3750000001164,NA,48,NA,NA,3000,1,NA,NA,images/purpleplanet.jpg,images/alien4,images/alien3,images/rocket2,images/alien4,images/t.png,2,real,false,2,rare,1,2020-06-29T15:41:20Z,sub59
two-step-fixation,137,605464,0.0-76.0-2.0,FALSE,FALSE,TRUE,FALSE,"""event"",""trial"",""time""
""fullscreenenter"",""5"",""12410""
","
","
","""event"",""trial"",""time""
""fullscreenenter"",""5"",""12410""
","
",NA,images/earth.jpg,NA,NA,NA,NA,NA,NA,NA,NA,NA,NA,NA,NA,NA,fixation,NA,NA,NA,NA,NA,NA,sub59
d3-animate-choice,138,607765,0.0-76.0-0.1,FALSE,FALSE,TRUE,FALSE,"""event"",""trial"",""time""
""fullscreenenter"",""5"",""12410""
","
","
","""event"",""trial"",""time""
""fullscreenenter"",""5"",""12410""
","
",288.504999999539,NA,49,NA,NA,3000,1,NA,NA,images/earth.jpg,images/rocket1,images/rocket2,null,images/rocket2,NA,1,real,null,1,NA,NA,NA,sub59
d3-animate-choice,139,610331,0.0-76.0-1.1,FALSE,FALSE,TRUE,FALSE,"""event"",""trial"",""time""
""fullscreenenter"",""5"",""12410""
","
","
","""event"",""trial"",""time""
""fullscreenenter"",""5"",""12410""
","
",556.6749999998137,NA,48,NA,NA,3000,1,NA,NA,images/redplanet1.jpg,images/alien2,images/alien1,images/rocket2,images/alien2,images/t.png,2,real,true,2,common,1,2020-06-29T15:41:26Z,sub59
two-step-fixation,140,611342,0.0-76.0-2.1,FALSE,FALSE,TRUE,FALSE,"""event"",""trial"",""time""
""fullscreenenter"",""5"",""12410""
","
","
","""event"",""trial"",""time""
""fullscreenenter"",""5"",""12410""
","
",NA,images/earth.jpg,NA,NA,NA,NA,NA,NA,NA,NA,NA,NA,NA,NA,NA,fixation,NA,NA,NA,NA,NA,NA,sub59
d3-animate-choice,141,613719,0.0-76.0-0.2,FALSE,FALSE,TRUE,FALSE,"""event"",""trial"",""time""
""fullscreenenter"",""5"",""12410""
","
","
","""event"",""trial"",""time""
""fullscreenenter"",""5"",""12410""
","
",366.8550000002142,NA,49,NA,NA,3000,1,NA,NA,images/earth.jpg,images/rocket1,images/rocket2,null,images/rocket2,NA,1,real,null,1,NA,NA,NA,sub59
d3-animate-choice,142,616142,0.0-76.0-1.2,FALSE,FALSE,TRUE,FALSE,"""event"",""trial"",""time""
""fullscreenenter"",""5"",""12410""
","
","
","""event"",""trial"",""time""
""fullscreenenter"",""5"",""12410""
","
",413.5250000000233,NA,48,NA,NA,3000,1,NA,NA,images/redplanet1.jpg,images/alien2,images/alien1,images/rocket2,images/alien2,images/t.png,2,real,true,2,common,1,2020-06-29T15:41:32Z,sub59
two-step-fixation,143,617157,0.0-76.0-2.2,FALSE,FALSE,TRUE,FALSE,"""event"",""trial"",""time""
""fullscreenenter"",""5"",""12410""
","
","
","""event"",""trial"",""time""
""fullscreenenter"",""5"",""12410""
","
",NA,images/earth.jpg,NA,NA,NA,NA,NA,NA,NA,NA,NA,NA,NA,NA,NA,fixation,NA,NA,NA,NA,NA,NA,sub59
d3-animate-choice,144,619415,0.0-76.0-0.3,FALSE,FALSE,TRUE,FALSE,"""event"",""trial"",""time""
""fullscreenenter"",""5"",""12410""
","
","
","""event"",""trial"",""time""
""fullscreenenter"",""5"",""12410""
","
",244.789999999688,NA,49,NA,NA,3000,1,NA,NA,images/earth.jpg,images/rocket1,images/rocket2,null,images/rocket2,NA,1,real,null,1,NA,NA,NA,sub59
d3-animate-choice,145,621737,0.0-76.0-1.3,FALSE,FALSE,TRUE,FALSE,"""event"",""trial"",""time""
""fullscreenenter"",""5"",""12410""
","
","
","""event"",""trial"",""time""
""fullscreenenter"",""5"",""12410""
","
",308.5599999994738,NA,48,NA,NA,3000,1,NA,NA,images/purpleplanet.jpg,images/alien4,images/alien3,images/rocket2,images/alien4,images/nothing.png,2,real,false,2,rare,0,2020-06-29T15:41:37Z,sub59
two-step-fixation,146,622749,0.0-76.0-2.3,FALSE,FALSE,TRUE,FALSE,"""event"",""trial"",""time""
""fullscreenenter"",""5"",""12410""
","
","
","""event"",""trial"",""time""
""fullscreenenter"",""5"",""12410""
","
",NA,images/earth.jpg,NA,NA,NA,NA,NA,NA,NA,NA,NA,NA,NA,NA,NA,fixation,NA,NA,NA,NA,NA,NA,sub59
d3-animate-choice,147,625002,0.0-76.0-0.4,FALSE,FALSE,TRUE,FALSE,"""event"",""trial"",""time""
""fullscreenenter"",""5"",""12410""
","
","
","""event"",""trial"",""time""
""fullscreenenter"",""5"",""12410""
","
",241.64000000013039,NA,49,NA,NA,3000,1,NA,NA,images/earth.jpg,images/rocket1,images/rocket2,null,images/rocket2,NA,1,real,null,1,NA,NA,NA,sub59
d3-animate-choice,148,627463,0.0-76.0-1.4,FALSE,FALSE,TRUE,FALSE,"""event"",""trial"",""time""
""fullscreenenter"",""5"",""12410""
","
","
","""event"",""trial"",""time""
""fullscreenenter"",""5"",""12410""
","
",449.40000000037253,NA,48,NA,NA,3000,1,NA,NA,images/redplanet1.jpg,images/alien2,images/alien1,images/rocket2,images/alien2,images/nothing.png,2,real,true,2,common,0,2020-06-29T15:41:43Z,sub59
two-step-fixation,149,628471,0.0-76.0-2.4,FALSE,FALSE,TRUE,FALSE,"""event"",""trial"",""time""
""fullscreenenter"",""5"",""12410""
","
","
","""event"",""trial"",""time""
""fullscreenenter"",""5"",""12410""
","
",NA,images/earth.jpg,NA,NA,NA,NA,NA,NA,NA,NA,NA,NA,NA,NA,NA,fixation,NA,NA,NA,NA,NA,NA,sub59
d3-animate-choice,150,630781,0.0-76.0-0.5,FALSE,FALSE,TRUE,FALSE,"""event"",""trial"",""time""
""fullscreenenter"",""5"",""12410""
","
","
","""event"",""trial"",""time""
""fullscreenenter"",""5"",""12410""
","
",292.73499999998603,NA,49,NA,NA,3000,1,NA,NA,images/earth.jpg,images/rocket1,images/rocket2,null,images/rocket2,NA,1,real,null,1,NA,NA,NA,sub59
d3-animate-choice,151,633109,0.0-76.0-1.5,FALSE,FALSE,TRUE,FALSE,"""event"",""trial"",""time""
""fullscreenenter"",""5"",""12410""
","
","
","""event"",""trial"",""time""
""fullscreenenter"",""5"",""12410""
","
",311.5749999997206,NA,49,NA,NA,3000,1,NA,NA,images/redplanet1.jpg,images/alien2,images/alien1,images/rocket2,images/alien1,images/t.png,2,real,true,1,common,1,2020-06-29T15:41:49Z,sub59
two-step-fixation,152,634120,0.0-76.0-2.5,FALSE,FALSE,TRUE,FALSE,"""event"",""trial"",""time""
""fullscreenenter"",""5"",""12410""
","
","
","""event"",""trial"",""time""
""fullscreenenter"",""5"",""12410""
","
",NA,images/earth.jpg,NA,NA,NA,NA,NA,NA,NA,NA,NA,NA,NA,NA,NA,fixation,NA,NA,NA,NA,NA,NA,sub59
d3-animate-choice,153,636417,0.0-76.0-0.6,FALSE,FALSE,TRUE,FALSE,"""event"",""trial"",""time""
""fullscreenenter"",""5"",""12410""
","
","
","""event"",""trial"",""time""
""fullscreenenter"",""5"",""12410""
","
",284.3399999992689,NA,49,NA,NA,3000,1,NA,NA,images/earth.jpg,images/rocket1,images/rocket2,null,images/rocket2,NA,1,real,null,1,NA,NA,NA,sub59
d3-animate-choice,154,638695,0.0-76.0-1.6,FALSE,FALSE,TRUE,FALSE,"""event"",""trial"",""time""
""fullscreenenter"",""5"",""12410""
","
","
","""event"",""trial"",""time""
""fullscreenenter"",""5"",""12410""
","
",258.94499999959953,NA,49,NA,NA,3000,1,NA,NA,images/redplanet1.jpg,images/alien2,images/alien1,images/rocket2,images/alien1,images/nothing.png,2,real,true,1,common,0,2020-06-29T15:41:54Z,sub59
two-step-fixation,155,639701,0.0-76.0-2.6,FALSE,FALSE,TRUE,FALSE,"""event"",""trial"",""time""
""fullscreenenter"",""5"",""12410""
","
","
","""event"",""trial"",""time""
""fullscreenenter"",""5"",""12410""
","
",NA,images/earth.jpg,NA,NA,NA,NA,NA,NA,NA,NA,NA,NA,NA,NA,NA,fixation,NA,NA,NA,NA,NA,NA,sub59
d3-animate-choice,156,641836,0.0-76.0-0.7,FALSE,FALSE,TRUE,FALSE,"""event"",""trial"",""time""
""fullscreenenter"",""5"",""12410""
","
","
","""event"",""trial"",""time""
""fullscreenenter"",""5"",""12410""
","
",118.77499999990687,NA,48,NA,NA,3000,1,NA,NA,images/earth.jpg,images/rocket1,images/rocket2,null,images/rocket1,NA,1,real,null,2,NA,NA,NA,sub59
d3-animate-choice,157,644221,0.0-76.0-1.7,FALSE,FALSE,TRUE,FALSE,"""event"",""trial"",""time""
""fullscreenenter"",""5"",""12410""
","
","
","""event"",""trial"",""time""
""fullscreenenter"",""5"",""12410""
","
",370.95499999949243,NA,48,NA,NA,3000,1,NA,NA,images/redplanet1.jpg,images/alien2,images/alien1,images/rocket1,images/alien2,images/t.png,2,real,false,2,rare,1,2020-06-29T15:42:00Z,sub59
two-step-fixation,158,645230,0.0-76.0-2.7,FALSE,FALSE,TRUE,FALSE,"""event"",""trial"",""time""
""fullscreenenter"",""5"",""12410""
","
","
","""event"",""trial"",""time""
""fullscreenenter"",""5"",""12410""
","
",NA,images/earth.jpg,NA,NA,NA,NA,NA,NA,NA,NA,NA,NA,NA,NA,NA,fixation,NA,NA,NA,NA,NA,NA,sub59
d3-animate-choice,159,647529,0.0-76.0-0.8,FALSE,FALSE,TRUE,FALSE,"""event"",""trial"",""time""
""fullscreenenter"",""5"",""12410""
","
","
","""event"",""trial"",""time""
""fullscreenenter"",""5"",""12410""
","
",286.4500000005355,NA,48,NA,NA,3000,1,NA,NA,images/earth.jpg,images/rocket1,images/rocket2,null,images/rocket1,NA,1,real,null,2,NA,NA,NA,sub59
d3-animate-choice,160,650337,0.0-76.0-1.8,FALSE,FALSE,TRUE,FALSE,"""event"",""trial"",""time""
""fullscreenenter"",""5"",""12410""
","
","
","""event"",""trial"",""time""
""fullscreenenter"",""5"",""12410""
","
",790.9649999991525,NA,48,NA,NA,3000,1,NA,NA,images/purpleplanet.jpg,images/alien4,images/alien3,images/rocket1,images/alien4,images/t.png,2,real,true,2,common,1,2020-06-29T15:42:06Z,sub59
two-step-fixation,161,651345,0.0-76.0-2.8,FALSE,FALSE,TRUE,FALSE,"""event"",""trial"",""time""
""fullscreenenter"",""5"",""12410""
","
","
","""event"",""trial"",""time""
""fullscreenenter"",""5"",""12410""
","
",NA,images/earth.jpg,NA,NA,NA,NA,NA,NA,NA,NA,NA,NA,NA,NA,NA,fixation,NA,NA,NA,NA,NA,NA,sub59
d3-animate-choice,162,653637,0.0-76.0-0.9,FALSE,FALSE,TRUE,FALSE,"""event"",""trial"",""time""
""fullscreenenter"",""5"",""12410""
","
","
","""event"",""trial"",""time""
""fullscreenenter"",""5"",""12410""
","
",278.0100000000093,NA,48,NA,NA,3000,1,NA,NA,images/earth.jpg,images/rocket1,images/rocket2,null,images/rocket1,NA,1,real,null,2,NA,NA,NA,sub59
d3-animate-choice,163,655931,0.0-76.0-1.9,FALSE,FALSE,TRUE,FALSE,"""event"",""trial"",""time""
""fullscreenenter"",""5"",""12410""
","
","
","""event"",""trial"",""time""
""fullscreenenter"",""5"",""12410""
","
",280.464999999851,NA,48,NA,NA,3000,1,NA,NA,images/purpleplanet.jpg,images/alien4,images/alien3,images/rocket1,images/alien4,images/nothing.png,2,real,true,2,common,0,2020-06-29T15:42:12Z,sub59
two-step-fixation,164,656937,0.0-76.0-2.9,FALSE,FALSE,TRUE,FALSE,"""event"",""trial"",""time""
""fullscreenenter"",""5"",""12410""
","
","
","""event"",""trial"",""time""
""fullscreenenter"",""5"",""12410""
","
",NA,images/earth.jpg,NA,NA,NA,NA,NA,NA,NA,NA,NA,NA,NA,NA,NA,fixation,NA,NA,NA,NA,NA,NA,sub59
d3-animate-choice,165,659178,0.0-76.0-0.10,FALSE,FALSE,TRUE,FALSE,"""event"",""trial"",""time""
""fullscreenenter"",""5"",""12410""
","
","
","""event"",""trial"",""time""
""fullscreenenter"",""5"",""12410""
","
",230.09499999997206,NA,49,NA,NA,3000,1,NA,NA,images/earth.jpg,images/rocket1,images/rocket2,null,images/rocket2,NA,1,real,null,1,NA,NA,NA,sub59
d3-animate-choice,166,661691,0.0-76.0-1.10,FALSE,FALSE,TRUE,FALSE,"""event"",""trial"",""time""
""fullscreenenter"",""5"",""12410""
","
","
","""event"",""trial"",""time""
""fullscreenenter"",""5"",""12410""
","
",499.33000000054017,NA,48,NA,NA,3000,1,NA,NA,images/redplanet1.jpg,images/alien2,images/alien1,images/rocket2,images/alien2,images/nothing.png,2,real,true,2,common,0,2020-06-29T15:42:17Z,sub59
two-step-fixation,167,662702,0.0-76.0-2.10,FALSE,FALSE,TRUE,FALSE,"""event"",""trial"",""time""
""fullscreenenter"",""5"",""12410""
","
","
","""event"",""trial"",""time""
""fullscreenenter"",""5"",""12410""
","
",NA,images/earth.jpg,NA,NA,NA,NA,NA,NA,NA,NA,NA,NA,NA,NA,NA,fixation,NA,NA,NA,NA,NA,NA,sub59
d3-animate-choice,168,665282,0.0-76.0-0.11,FALSE,FALSE,TRUE,FALSE,"""event"",""trial"",""time""
""fullscreenenter"",""5"",""12410""
","
","
","""event"",""trial"",""time""
""fullscreenenter"",""5"",""12410""
","
",571.1350000001257,NA,49,NA,NA,3000,1,NA,NA,images/earth.jpg,images/rocket1,images/rocket2,null,images/rocket2,NA,1,real,null,1,NA,NA,NA,sub59
d3-animate-choice,169,667581,0.0-76.0-1.11,FALSE,FALSE,TRUE,FALSE,"""event"",""trial"",""time""
""fullscreenenter"",""5"",""12410""
","
","
","""event"",""trial"",""time""
""fullscreenenter"",""5"",""12410""
","
",289.0999999999767,NA,49,NA,NA,3000,1,NA,NA,images/redplanet1.jpg,images/alien2,images/alien1,images/rocket2,images/alien1,images/nothing.png,2,real,true,1,common,0,2020-06-29T15:42:23Z,sub59
two-step-fixation,170,668587,0.0-76.0-2.11,FALSE,FALSE,TRUE,FALSE,"""event"",""trial"",""time""
""fullscreenenter"",""5"",""12410""
","
","
","""event"",""trial"",""time""
""fullscreenenter"",""5"",""12410""
","
",NA,images/earth.jpg,NA,NA,NA,NA,NA,NA,NA,NA,NA,NA,NA,NA,NA,fixation,NA,NA,NA,NA,NA,NA,sub59
d3-animate-choice,171,671104,0.0-76.0-0.12,FALSE,FALSE,TRUE,FALSE,"""event"",""trial"",""time""
""fullscreenenter"",""5"",""12410""
","
","
","""event"",""trial"",""time""
""fullscreenenter"",""5"",""12410""
","
",505.5199999996694,NA,49,NA,NA,3000,1,NA,NA,images/earth.jpg,images/rocket1,images/rocket2,null,images/rocket2,NA,1,real,null,1,NA,NA,NA,sub59
d3-animate-choice,172,673493,0.0-76.0-1.12,FALSE,FALSE,TRUE,FALSE,"""event"",""trial"",""time""
""fullscreenenter"",""5"",""12410""
","
","
","""event"",""trial"",""time""
""fullscreenenter"",""5"",""12410""
","
",382.1250000001164,NA,48,NA,NA,3000,1,NA,NA,images/redplanet1.jpg,images/alien2,images/alien1,images/rocket2,images/alien2,images/nothing.png,2,real,true,2,common,0,2020-06-29T15:42:29Z,sub59
two-step-fixation,173,674501,0.0-76.0-2.12,FALSE,FALSE,TRUE,FALSE,"""event"",""trial"",""time""
""fullscreenenter"",""5"",""12410""
","
","
","""event"",""trial"",""time""
""fullscreenenter"",""5"",""12410""
","
",NA,images/earth.jpg,NA,NA,NA,NA,NA,NA,NA,NA,NA,NA,NA,NA,NA,fixation,NA,NA,NA,NA,NA,NA,sub59
d3-animate-choice,174,676733,0.0-76.0-0.13,FALSE,FALSE,TRUE,FALSE,"""event"",""trial"",""time""
""fullscreenenter"",""5"",""12410""
","
","
","""event"",""trial"",""time""
""fullscreenenter"",""5"",""12410""
","
",215.6299999996554,NA,48,NA,NA,3000,1,NA,NA,images/earth.jpg,images/rocket1,images/rocket2,null,images/rocket1,NA,1,real,null,2,NA,NA,NA,sub59
d3-animate-choice,175,679215,0.0-76.0-1.13,FALSE,FALSE,TRUE,FALSE,"""event"",""trial"",""time""
""fullscreenenter"",""5"",""12410""
","
","
","""event"",""trial"",""time""
""fullscreenenter"",""5"",""12410""
","
",470.08499999996275,NA,49,NA,NA,3000,1,NA,NA,images/purpleplanet.jpg,images/alien4,images/alien3,images/rocket1,images/alien3,images/nothing.png,2,real,true,1,common,0,2020-06-29T15:42:35Z,sub59
two-step-fixation,176,680227,0.0-76.0-2.13,FALSE,FALSE,TRUE,FALSE,"""event"",""trial"",""time""
""fullscreenenter"",""5"",""12410""
","
","
","""event"",""trial"",""time""
""fullscreenenter"",""5"",""12410""
","
",NA,images/earth.jpg,NA,NA,NA,NA,NA,NA,NA,NA,NA,NA,NA,NA,NA,fixation,NA,NA,NA,NA,NA,NA,sub59
d3-animate-choice,177,682488,0.0-76.0-0.14,FALSE,FALSE,TRUE,FALSE,"""event"",""trial"",""time""
""fullscreenenter"",""5"",""12410""
","
","
","""event"",""trial"",""time""
""fullscreenenter"",""5"",""12410""
","
",247.06000000063796,NA,48,NA,NA,3000,1,NA,NA,images/earth.jpg,images/rocket1,images/rocket2,null,images/rocket1,NA,1,real,null,2,NA,NA,NA,sub59
d3-animate-choice,178,684834,0.0-76.0-1.14,FALSE,FALSE,TRUE,FALSE,"""event"",""trial"",""time""
""fullscreenenter"",""5"",""12410""
","
","
","""event"",""trial"",""time""
""fullscreenenter"",""5"",""12410""
","
",332.3899999995483,NA,48,NA,NA,3000,1,NA,NA,images/purpleplanet.jpg,images/alien4,images/alien3,images/rocket1,images/alien4,images/t.png,2,real,true,2,common,1,2020-06-29T15:42:41Z,sub59
two-step-fixation,179,685846,0.0-76.0-2.14,FALSE,FALSE,TRUE,FALSE,"""event"",""trial"",""time""
""fullscreenenter"",""5"",""12410""
","
","
","""event"",""trial"",""time""
""fullscreenenter"",""5"",""12410""
","
",NA,images/earth.jpg,NA,NA,NA,NA,NA,NA,NA,NA,NA,NA,NA,NA,NA,fixation,NA,NA,NA,NA,NA,NA,sub59
d3-animate-choice,180,688175,0.0-76.0-0.15,FALSE,FALSE,TRUE,FALSE,"""event"",""trial"",""time""
""fullscreenenter"",""5"",""12410""
","
","
","""event"",""trial"",""time""
""fullscreenenter"",""5"",""12410""
","
",318.589999999851,NA,48,NA,NA,3000,1,NA,NA,images/earth.jpg,images/rocket1,images/rocket2,null,images/rocket1,NA,1,real,null,2,NA,NA,NA,sub59
d3-animate-choice,181,690477,0.0-76.0-1.15,FALSE,FALSE,TRUE,FALSE,"""event"",""trial"",""time""
""fullscreenenter"",""5"",""12410""
","
","
","""event"",""trial"",""time""
""fullscreenenter"",""5"",""12410""
","
",288.5299999997951,NA,48,NA,NA,3000,1,NA,NA,images/redplanet1.jpg,images/alien2,images/alien1,images/rocket1,images/alien2,images/t.png,2,real,false,2,rare,1,2020-06-29T15:42:46Z,sub59
two-step-fixation,182,691490,0.0-76.0-2.15,FALSE,FALSE,TRUE,FALSE,"""event"",""trial"",""time""
""fullscreenenter"",""5"",""12410""
","
","
","""event"",""trial"",""time""
""fullscreenenter"",""5"",""12410""
","
",NA,images/earth.jpg,NA,NA,NA,NA,NA,NA,NA,NA,NA,NA,NA,NA,NA,fixation,NA,NA,NA,NA,NA,NA,sub59
d3-animate-choice,183,693720,0.0-76.0-0.16,FALSE,FALSE,TRUE,FALSE,"""event"",""trial"",""time""
""fullscreenenter"",""5"",""12410""
","
","
","""event"",""trial"",""time""
""fullscreenenter"",""5"",""12410""
","
",216.1049999995157,NA,48,NA,NA,3000,1,NA,NA,images/earth.jpg,images/rocket1,images/rocket2,null,images/rocket1,NA,1,real,null,2,NA,NA,NA,sub59
d3-animate-choice,184,696120,0.0-76.0-1.16,FALSE,FALSE,TRUE,FALSE,"""event"",""trial"",""time""
""fullscreenenter"",""5"",""12410""
","
","
","""event"",""trial"",""time""
""fullscreenenter"",""5"",""12410""
","
",387.8599999997532,NA,48,NA,NA,3000,1,NA,NA,images/redplanet1.jpg,images/alien2,images/alien1,images/rocket1,images/alien2,images/t.png,2,real,false,2,rare,1,2020-06-29T15:42:52Z,sub59
two-step-fixation,185,697133,0.0-76.0-2.16,FALSE,FALSE,TRUE,FALSE,"""event"",""trial"",""time""
""fullscreenenter"",""5"",""12410""
","
","
","""event"",""trial"",""time""
""fullscreenenter"",""5"",""12410""
","
",NA,images/earth.jpg,NA,NA,NA,NA,NA,NA,NA,NA,NA,NA,NA,NA,NA,fixation,NA,NA,NA,NA,NA,NA,sub59
d3-animate-choice,186,699426,0.0-76.0-0.17,FALSE,FALSE,TRUE,FALSE,"""event"",""trial"",""time""
""fullscreenenter"",""5"",""12410""
","
","
","""event"",""trial"",""time""
""fullscreenenter"",""5"",""12410""
","
",274.30000000004657,NA,48,NA,NA,3000,1,NA,NA,images/earth.jpg,images/rocket1,images/rocket2,null,images/rocket1,NA,1,real,null,2,NA,NA,NA,sub59
d3-animate-choice,187,701785,0.0-76.0-1.17,FALSE,FALSE,TRUE,FALSE,"""event"",""trial"",""time""
""fullscreenenter"",""5"",""12410""
","
","
","""event"",""trial"",""time""
""fullscreenenter"",""5"",""12410""
","
",341.6150000002235,NA,48,NA,NA,3000,1,NA,NA,images/redplanet1.jpg,images/alien2,images/alien1,images/rocket1,images/alien2,images/t.png,2,real,false,2,rare,1,2020-06-29T15:42:58Z,sub59
two-step-fixation,188,702799,0.0-76.0-2.17,FALSE,FALSE,TRUE,FALSE,"""event"",""trial"",""time""
""fullscreenenter"",""5"",""12410""
","
","
","""event"",""trial"",""time""
""fullscreenenter"",""5"",""12410""
","
",NA,images/earth.jpg,NA,NA,NA,NA,NA,NA,NA,NA,NA,NA,NA,NA,NA,fixation,NA,NA,NA,NA,NA,NA,sub59
d3-animate-choice,189,705102,0.0-76.0-0.18,FALSE,FALSE,TRUE,FALSE,"""event"",""trial"",""time""
""fullscreenenter"",""5"",""12410""
","
","
","""event"",""trial"",""time""
""fullscreenenter"",""5"",""12410""
","
",290.3800000004703,NA,48,NA,NA,3000,1,NA,NA,images/earth.jpg,images/rocket1,images/rocket2,null,images/rocket1,NA,1,real,null,2,NA,NA,NA,sub59
d3-animate-choice,190,707695,0.0-76.0-1.18,FALSE,FALSE,TRUE,FALSE,"""event"",""trial"",""time""
""fullscreenenter"",""5"",""12410""
","
","
","""event"",""trial"",""time""
""fullscreenenter"",""5"",""12410""
","
",577.7149999993853,NA,48,NA,NA,3000,1,NA,NA,images/purpleplanet.jpg,images/alien4,images/alien3,images/rocket1,images/alien4,images/nothing.png,2,real,true,2,common,0,2020-06-29T15:43:03Z,sub59
two-step-fixation,191,708703,0.0-76.0-2.18,FALSE,FALSE,TRUE,FALSE,"""event"",""trial"",""time""
""fullscreenenter"",""5"",""12410""
","
","
","""event"",""trial"",""time""
""fullscreenenter"",""5"",""12410""
","
",NA,images/earth.jpg,NA,NA,NA,NA,NA,NA,NA,NA,NA,NA,NA,NA,NA,fixation,NA,NA,NA,NA,NA,NA,sub59
d3-animate-choice,192,710732,0.0-76.0-0.19,FALSE,FALSE,TRUE,FALSE,"""event"",""trial"",""time""
""fullscreenenter"",""5"",""12410""
","
","
","""event"",""trial"",""time""
""fullscreenenter"",""5"",""12410""
","
",16.874999999301508,NA,49,NA,NA,3000,1,NA,NA,images/earth.jpg,images/rocket1,images/rocket2,null,images/rocket2,NA,1,real,null,1,NA,NA,NA,sub59
d3-animate-choice,193,713039,0.0-76.0-1.19,FALSE,FALSE,TRUE,FALSE,"""event"",""trial"",""time""
""fullscreenenter"",""5"",""12410""
","
","
","""event"",""trial"",""time""
""fullscreenenter"",""5"",""12410""
","
",291.1899999999441,NA,48,NA,NA,3000,1,NA,NA,images/redplanet1.jpg,images/alien2,images/alien1,images/rocket2,images/alien2,images/nothing.png,2,real,true,2,common,0,2020-06-29T15:43:09Z,sub59
two-step-fixation,194,714050,0.0-76.0-2.19,FALSE,FALSE,TRUE,FALSE,"""event"",""trial"",""time""
""fullscreenenter"",""5"",""12410""
","
","
","""event"",""trial"",""time""
""fullscreenenter"",""5"",""12410""
","
",NA,images/earth.jpg,NA,NA,NA,NA,NA,NA,NA,NA,NA,NA,NA,NA,NA,fixation,NA,NA,NA,NA,NA,NA,sub59
d3-animate-choice,195,716430,0.0-76.0-0.20,FALSE,FALSE,TRUE,FALSE,"""event"",""trial"",""time""
""fullscreenenter"",""5"",""12410""
","
","
","""event"",""trial"",""time""
""fullscreenenter"",""5"",""12410""
","
",369.0299999999115,NA,49,NA,NA,3000,1,NA,NA,images/earth.jpg,images/rocket1,images/rocket2,null,images/rocket2,NA,1,real,null,1,NA,NA,NA,sub59
d3-animate-choice,196,718856,0.0-76.0-1.20,FALSE,FALSE,TRUE,FALSE,"""event"",""trial"",""time""
""fullscreenenter"",""5"",""12410""
","
","
","""event"",""trial"",""time""
""fullscreenenter"",""5"",""12410""
","
",411.2249999998603,NA,48,NA,NA,3000,1,NA,NA,images/redplanet1.jpg,images/alien2,images/alien1,images/rocket2,images/alien2,images/t.png,2,real,true,2,common,1,2020-06-29T15:43:15Z,sub59
two-step-fixation,197,719866,0.0-76.0-2.20,FALSE,FALSE,TRUE,FALSE,"""event"",""trial"",""time""
""fullscreenenter"",""5"",""12410""
","
","
","""event"",""trial"",""time""
""fullscreenenter"",""5"",""12410""
","
",NA,images/earth.jpg,NA,NA,NA,NA,NA,NA,NA,NA,NA,NA,NA,NA,NA,fixation,NA,NA,NA,NA,NA,NA,sub59
d3-animate-choice,198,722143,0.0-76.0-0.21,FALSE,FALSE,TRUE,FALSE,"""event"",""trial"",""time""
""fullscreenenter"",""5"",""12410""
","
","
","""event"",""trial"",""time""
""fullscreenenter"",""5"",""12410""
","
",262.9050000004936,NA,49,NA,NA,3000,1,NA,NA,images/earth.jpg,images/rocket1,images/rocket2,null,images/rocket2,NA,1,real,null,1,NA,NA,NA,sub59
d3-animate-choice,199,724472,0.0-76.0-1.21,FALSE,FALSE,TRUE,FALSE,"""event"",""trial"",""time""
""fullscreenenter"",""5"",""12410""
","
","
","""event"",""trial"",""time""
""fullscreenenter"",""5"",""12410""
","
",314.68999999924563,NA,48,NA,NA,3000,1,NA,NA,images/purpleplanet.jpg,images/alien4,images/alien3,images/rocket2,images/alien4,images/t.png,2,real,false,2,rare,1,2020-06-29T15:43:20Z,sub59
two-step-fixation,200,725481,0.0-76.0-2.21,FALSE,FALSE,TRUE,FALSE,"""event"",""trial"",""time""
""fullscreenenter"",""5"",""12410""
","
","
","""event"",""trial"",""time""
""fullscreenenter"",""5"",""12410""
","
",NA,images/earth.jpg,NA,NA,NA,NA,NA,NA,NA,NA,NA,NA,NA,NA,NA,fixation,NA,NA,NA,NA,NA,NA,sub59
d3-animate-choice,201,727777,0.0-76.0-0.22,FALSE,FALSE,TRUE,FALSE,"""event"",""trial"",""time""
""fullscreenenter"",""5"",""12410""
","
","
","""event"",""trial"",""time""
""fullscreenenter"",""5"",""12410""
","
",280.6049999999814,NA,49,NA,NA,3000,1,NA,NA,images/earth.jpg,images/rocket1,images/rocket2,null,images/rocket2,NA,1,real,null,1,NA,NA,NA,sub59
d3-animate-choice,202,730253,0.0-76.0-1.22,FALSE,FALSE,TRUE,FALSE,"""event"",""trial"",""time""
""fullscreenenter"",""5"",""12410""
","
","
","""event"",""trial"",""time""
""fullscreenenter"",""5"",""12410""
","
",461.6399999995483,NA,48,NA,NA,3000,1,NA,NA,images/redplanet1.jpg,images/alien2,images/alien1,images/rocket2,images/alien2,images/nothing.png,2,real,true,2,common,0,2020-06-29T15:43:26Z,sub59
two-step-fixation,203,731266,0.0-76.0-2.22,FALSE,FALSE,TRUE,FALSE,"""event"",""trial"",""time""
""fullscreenenter"",""5"",""12410""
","
","
","""event"",""trial"",""time""
""fullscreenenter"",""5"",""12410""
","
",NA,images/earth.jpg,NA,NA,NA,NA,NA,NA,NA,NA,NA,NA,NA,NA,NA,fixation,NA,NA,NA,NA,NA,NA,sub59
d3-animate-choice,204,733464,0.0-76.0-0.23,FALSE,FALSE,TRUE,FALSE,"""event"",""trial"",""time""
""fullscreenenter"",""5"",""12410""
","
","
","""event"",""trial"",""time""
""fullscreenenter"",""5"",""12410""
","
",188.94499999994878,NA,48,NA,NA,3000,1,NA,NA,images/earth.jpg,images/rocket1,images/rocket2,null,images/rocket1,NA,1,real,null,2,NA,NA,NA,sub59
d3-animate-choice,205,735872,0.0-76.0-1.23,FALSE,FALSE,TRUE,FALSE,"""event"",""trial"",""time""
""fullscreenenter"",""5"",""12410""
","
","
","""event"",""trial"",""time""
""fullscreenenter"",""5"",""12410""
","
",397.6850000008708,NA,48,NA,NA,3000,1,NA,NA,images/purpleplanet.jpg,images/alien4,images/alien3,images/rocket1,images/alien4,images/t.png,2,real,true,2,common,1,2020-06-29T15:43:32Z,sub59
two-step-fixation,206,736881,0.0-76.0-2.23,FALSE,FALSE,TRUE,FALSE,"""event"",""trial"",""time""
""fullscreenenter"",""5"",""12410""
","
","
","""event"",""trial"",""time""
""fullscreenenter"",""5"",""12410""
","
",NA,images/earth.jpg,NA,NA,NA,NA,NA,NA,NA,NA,NA,NA,NA,NA,NA,fixation,NA,NA,NA,NA,NA,NA,sub59
d3-animate-choice,207,739042,0.0-76.0-0.24,FALSE,FALSE,TRUE,FALSE,"""event"",""trial"",""time""
""fullscreenenter"",""5"",""12410""
","
","
","""event"",""trial"",""time""
""fullscreenenter"",""5"",""12410""
","
",146.55500000028405,NA,49,NA,NA,3000,1,NA,NA,images/earth.jpg,images/rocket1,images/rocket2,null,images/rocket2,NA,1,real,null,1,NA,NA,NA,sub59
d3-animate-choice,208,741334,0.0-76.0-1.24,FALSE,FALSE,TRUE,FALSE,"""event"",""trial"",""time""
""fullscreenenter"",""5"",""12410""
","
","
","""event"",""trial"",""time""
""fullscreenenter"",""5"",""12410""
","
",279.98500000010245,NA,48,NA,NA,3000,1,NA,NA,images/purpleplanet.jpg,images/alien4,images/alien3,images/rocket2,images/alien4,images/t.png,2,real,false,2,rare,1,2020-06-29T15:43:37Z,sub59
two-step-fixation,209,742346,0.0-76.0-2.24,FALSE,FALSE,TRUE,FALSE,"""event"",""trial"",""time""
""fullscreenenter"",""5"",""12410""
","
","
","""event"",""trial"",""time""
""fullscreenenter"",""5"",""12410""
","
",NA,images/earth.jpg,NA,NA,NA,NA,NA,NA,NA,NA,NA,NA,NA,NA,NA,fixation,NA,NA,NA,NA,NA,NA,sub59
d3-animate-choice,210,744599,0.0-76.0-0.25,FALSE,FALSE,TRUE,FALSE,"""event"",""trial"",""time""
""fullscreenenter"",""5"",""12410""
","
","
","""event"",""trial"",""time""
""fullscreenenter"",""5"",""12410""
","
",240.39500000071712,NA,48,NA,NA,3000,1,NA,NA,images/earth.jpg,images/rocket1,images/rocket2,null,images/rocket1,NA,1,real,null,2,NA,NA,NA,sub59
d3-animate-choice,211,746870,0.0-76.0-1.25,FALSE,FALSE,TRUE,FALSE,"""event"",""trial"",""time""
""fullscreenenter"",""5"",""12410""
","
","
","""event"",""trial"",""time""
""fullscreenenter"",""5"",""12410""
","
",253.67000000015832,NA,48,NA,NA,3000,1,NA,NA,images/purpleplanet.jpg,images/alien4,images/alien3,images/rocket1,images/alien4,images/t.png,2,real,true,2,common,1,2020-06-29T15:43:43Z,sub59
two-step-fixation,212,747882,0.0-76.0-2.25,FALSE,FALSE,TRUE,FALSE,"""event"",""trial"",""time""
""fullscreenenter"",""5"",""12410""
","
","
","""event"",""trial"",""time""
""fullscreenenter"",""5"",""12410""
","
",NA,images/earth.jpg,NA,NA,NA,NA,NA,NA,NA,NA,NA,NA,NA,NA,NA,fixation,NA,NA,NA,NA,NA,NA,sub59
d3-animate-choice,213,750345,0.0-76.0-0.26,FALSE,FALSE,TRUE,FALSE,"""event"",""trial"",""time""
""fullscreenenter"",""5"",""12410""
","
","
","""event"",""trial"",""time""
""fullscreenenter"",""5"",""12410""
","
",450.5350000000326,NA,48,NA,NA,3000,1,NA,NA,images/earth.jpg,images/rocket1,images/rocket2,null,images/rocket1,NA,1,real,null,2,NA,NA,NA,sub59
d3-animate-choice,214,752628,0.0-76.0-1.26,FALSE,FALSE,TRUE,FALSE,"""event"",""trial"",""time""
""fullscreenenter"",""5"",""12410""
","
","
","""event"",""trial"",""time""
""fullscreenenter"",""5"",""12410""
","
",265.4599999996135,NA,48,NA,NA,3000,1,NA,NA,images/purpleplanet.jpg,images/alien4,images/alien3,images/rocket1,images/alien4,images/nothing.png,2,real,true,2,common,0,2020-06-29T15:43:48Z,sub59
two-step-fixation,215,753637,0.0-76.0-2.26,FALSE,FALSE,TRUE,FALSE,"""event"",""trial"",""time""
""fullscreenenter"",""5"",""12410""
","
","
","""event"",""trial"",""time""
""fullscreenenter"",""5"",""12410""
","
",NA,images/earth.jpg,NA,NA,NA,NA,NA,NA,NA,NA,NA,NA,NA,NA,NA,fixation,NA,NA,NA,NA,NA,NA,sub59
d3-animate-choice,216,756011,0.0-76.0-0.27,FALSE,FALSE,TRUE,FALSE,"""event"",""trial"",""time""
""fullscreenenter"",""5"",""12410""
","
","
","""event"",""trial"",""time""
""fullscreenenter"",""5"",""12410""
","
",360.2899999995716,NA,48,NA,NA,3000,1,NA,NA,images/earth.jpg,images/rocket1,images/rocket2,null,images/rocket1,NA,1,real,null,2,NA,NA,NA,sub59
d3-animate-choice,217,758466,0.0-76.0-1.27,FALSE,FALSE,TRUE,FALSE,"""event"",""trial"",""time""
""fullscreenenter"",""5"",""12410""
","
","
","""event"",""trial"",""time""
""fullscreenenter"",""5"",""12410""
","
",437.6050000000978,NA,48,NA,NA,3000,1,NA,NA,images/purpleplanet.jpg,images/alien4,images/alien3,images/rocket1,images/alien4,images/t.png,2,real,true,2,common,1,2020-06-29T15:43:54Z,sub59
two-step-fixation,218,759474,0.0-76.0-2.27,FALSE,FALSE,TRUE,FALSE,"""event"",""trial"",""time""
""fullscreenenter"",""5"",""12410""
","
","
","""event"",""trial"",""time""
""fullscreenenter"",""5"",""12410""
","
",NA,images/earth.jpg,NA,NA,NA,NA,NA,NA,NA,NA,NA,NA,NA,NA,NA,fixation,NA,NA,NA,NA,NA,NA,sub59
d3-animate-choice,219,761899,0.0-76.0-0.28,FALSE,FALSE,TRUE,FALSE,"""event"",""trial"",""time""
""fullscreenenter"",""5"",""12410""
","
","
","""event"",""trial"",""time""
""fullscreenenter"",""5"",""12410""
","
",411.08999999961816,NA,49,NA,NA,3000,1,NA,NA,images/earth.jpg,images/rocket1,images/rocket2,null,images/rocket2,NA,1,real,null,1,NA,NA,NA,sub59
d3-animate-choice,220,764156,0.0-76.0-1.28,FALSE,FALSE,TRUE,FALSE,"""event"",""trial"",""time""
""fullscreenenter"",""5"",""12410""
","
","
","""event"",""trial"",""time""
""fullscreenenter"",""5"",""12410""
","
",245.0950000003213,NA,49,NA,NA,3000,1,NA,NA,images/purpleplanet.jpg,images/alien4,images/alien3,images/rocket2,images/alien3,images/t.png,2,real,false,1,rare,1,2020-06-29T15:44:00Z,sub59
two-step-fixation,221,765167,0.0-76.0-2.28,FALSE,FALSE,TRUE,FALSE,"""event"",""trial"",""time""
""fullscreenenter"",""5"",""12410""
","
","
","""event"",""trial"",""time""
""fullscreenenter"",""5"",""12410""
","
",NA,images/earth.jpg,NA,NA,NA,NA,NA,NA,NA,NA,NA,NA,NA,NA,NA,fixation,NA,NA,NA,NA,NA,NA,sub59
d3-animate-choice,222,767722,0.0-76.0-0.29,FALSE,FALSE,TRUE,FALSE,"""event"",""trial"",""time""
""fullscreenenter"",""5"",""12410""
","
","
","""event"",""trial"",""time""
""fullscreenenter"",""5"",""12410""
","
",544.9999999991851,NA,48,NA,NA,3000,1,NA,NA,images/earth.jpg,images/rocket1,images/rocket2,null,images/rocket1,NA,1,real,null,2,NA,NA,NA,sub59
d3-animate-choice,223,770154,0.0-76.0-1.29,FALSE,FALSE,TRUE,FALSE,"""event"",""trial"",""time""
""fullscreenenter"",""5"",""12410""
","
","
","""event"",""trial"",""time""
""fullscreenenter"",""5"",""12410""
","
",420.6799999992363,NA,49,NA,NA,3000,1,NA,NA,images/purpleplanet.jpg,images/alien4,images/alien3,images/rocket1,images/alien3,images/t.png,2,real,true,1,common,1,2020-06-29T15:44:06Z,sub59
two-step-fixation,224,771163,0.0-76.0-2.29,FALSE,FALSE,TRUE,FALSE,"""event"",""trial"",""time""
""fullscreenenter"",""5"",""12410""
","
","
","""event"",""trial"",""time""
""fullscreenenter"",""5"",""12410""
","
",NA,images/earth.jpg,NA,NA,NA,NA,NA,NA,NA,NA,NA,NA,NA,NA,NA,fixation,NA,NA,NA,NA,NA,NA,sub59
d3-animate-choice,225,773478,0.0-76.0-0.30,FALSE,FALSE,TRUE,FALSE,"""event"",""trial"",""time""
""fullscreenenter"",""5"",""12410""
","
","
","""event"",""trial"",""time""
""fullscreenenter"",""5"",""12410""
","
",302.19000000029337,NA,48,NA,NA,3000,1,NA,NA,images/earth.jpg,images/rocket1,images/rocket2,null,images/rocket1,NA,1,real,null,2,NA,NA,NA,sub59
d3-animate-choice,226,775785,0.0-76.0-1.30,FALSE,FALSE,TRUE,FALSE,"""event"",""trial"",""time""
""fullscreenenter"",""5"",""12410""
","
","
","""event"",""trial"",""time""
""fullscreenenter"",""5"",""12410""
","
",288.87500000023283,NA,49,NA,NA,3000,1,NA,NA,images/purpleplanet.jpg,images/alien4,images/alien3,images/rocket1,images/alien3,images/t.png,2,real,true,1,common,1,2020-06-29T15:44:12Z,sub59
two-step-fixation,227,776797,0.0-76.0-2.30,FALSE,FALSE,TRUE,FALSE,"""event"",""trial"",""time""
""fullscreenenter"",""5"",""12410""
","
","
","""event"",""trial"",""time""
""fullscreenenter"",""5"",""12410""
","
",NA,images/earth.jpg,NA,NA,NA,NA,NA,NA,NA,NA,NA,NA,NA,NA,NA,fixation,NA,NA,NA,NA,NA,NA,sub59
d3-animate-choice,228,779005,0.0-76.0-0.31,FALSE,FALSE,TRUE,FALSE,"""event"",""trial"",""time""
""fullscreenenter"",""5"",""12410""
","
","
","""event"",""trial"",""time""
""fullscreenenter"",""5"",""12410""
","
",191.96999999985565,NA,48,NA,NA,3000,1,NA,NA,images/earth.jpg,images/rocket1,images/rocket2,null,images/rocket1,NA,1,real,null,2,NA,NA,NA,sub59
d3-animate-choice,229,781259,0.0-76.0-1.31,FALSE,FALSE,TRUE,FALSE,"""event"",""trial"",""time""
""fullscreenenter"",""5"",""12410""
","
","
","""event"",""trial"",""time""
""fullscreenenter"",""5"",""12410""
","
",242.75500000012107,NA,49,NA,NA,3000,1,NA,NA,images/purpleplanet.jpg,images/alien4,images/alien3,images/rocket1,images/alien3,images/t.png,2,real,true,1,common,1,2020-06-29T15:44:17Z,sub59
two-step-fixation,230,782269,0.0-76.0-2.31,FALSE,FALSE,TRUE,FALSE,"""event"",""trial"",""time""
""fullscreenenter"",""5"",""12410""
","
","
","""event"",""trial"",""time""
""fullscreenenter"",""5"",""12410""
","
",NA,images/earth.jpg,NA,NA,NA,NA,NA,NA,NA,NA,NA,NA,NA,NA,NA,fixation,NA,NA,NA,NA,NA,NA,sub59
d3-animate-choice,231,784367,0.0-76.0-0.32,FALSE,FALSE,TRUE,FALSE,"""event"",""trial"",""time""
""fullscreenenter"",""5"",""12410""
","
","
","""event"",""trial"",""time""
""fullscreenenter"",""5"",""12410""
","
",84.60499999998137,NA,48,NA,NA,3000,1,NA,NA,images/earth.jpg,images/rocket1,images/rocket2,null,images/rocket1,NA,1,real,null,2,NA,NA,NA,sub59
d3-animate-choice,232,786691,0.0-76.0-1.32,FALSE,FALSE,TRUE,FALSE,"""event"",""trial"",""time""
""fullscreenenter"",""5"",""12410""
","
","
","""event"",""trial"",""time""
""fullscreenenter"",""5"",""12410""
","
",314.7300000000978,NA,49,NA,NA,3000,1,NA,NA,images/purpleplanet.jpg,images/alien4,images/alien3,images/rocket1,images/alien3,images/nothing.png,2,real,true,1,common,0,2020-06-29T15:44:22Z,sub59
two-step-fixation,233,787699,0.0-76.0-2.32,FALSE,FALSE,TRUE,FALSE,"""event"",""trial"",""time""
""fullscreenenter"",""5"",""12410""
","
","
","""event"",""trial"",""time""
""fullscreenenter"",""5"",""12410""
","
",NA,images/earth.jpg,NA,NA,NA,NA,NA,NA,NA,NA,NA,NA,NA,NA,NA,fixation,NA,NA,NA,NA,NA,NA,sub59
d3-animate-choice,234,790033,0.0-76.0-0.33,FALSE,FALSE,TRUE,FALSE,"""event"",""trial"",""time""
""fullscreenenter"",""5"",""12410""
","
","
","""event"",""trial"",""time""
""fullscreenenter"",""5"",""12410""
","
",321.0699999999488,NA,48,NA,NA,3000,1,NA,NA,images/earth.jpg,images/rocket1,images/rocket2,null,images/rocket1,NA,1,real,null,2,NA,NA,NA,sub59
d3-animate-choice,235,792317,0.0-76.0-1.33,FALSE,FALSE,TRUE,FALSE,"""event"",""trial"",""time""
""fullscreenenter"",""5"",""12410""
","
","
","""event"",""trial"",""time""
""fullscreenenter"",""5"",""12410""
","
",264.82499999937136,NA,49,NA,NA,3000,1,NA,NA,images/redplanet1.jpg,images/alien2,images/alien1,images/rocket1,images/alien1,images/t.png,2,real,false,1,rare,1,2020-06-29T15:44:28Z,sub59
two-step-fixation,236,793336,0.0-76.0-2.33,FALSE,FALSE,TRUE,FALSE,"""event"",""trial"",""time""
""fullscreenenter"",""5"",""12410""
","
","
","""event"",""trial"",""time""
""fullscreenenter"",""5"",""12410""
","
",NA,images/earth.jpg,NA,NA,NA,NA,NA,NA,NA,NA,NA,NA,NA,NA,NA,fixation,NA,NA,NA,NA,NA,NA,sub59
d3-animate-choice,237,795655,0.0-76.0-0.34,FALSE,FALSE,TRUE,FALSE,"""event"",""trial"",""time""
""fullscreenenter"",""5"",""12410""
","
","
","""event"",""trial"",""time""
""fullscreenenter"",""5"",""12410""
","
",304.6750000002794,NA,48,NA,NA,3000,1,NA,NA,images/earth.jpg,images/rocket1,images/rocket2,null,images/rocket1,NA,1,real,null,2,NA,NA,NA,sub59
d3-animate-choice,238,797996,0.0-76.0-1.34,FALSE,FALSE,TRUE,FALSE,"""event"",""trial"",""time""
""fullscreenenter"",""5"",""12410""
","
","
","""event"",""trial"",""time""
""fullscreenenter"",""5"",""12410""
","
",322.6899999999441,NA,49,NA,NA,3000,1,NA,NA,images/purpleplanet.jpg,images/alien4,images/alien3,images/rocket1,images/alien3,images/t.png,2,real,true,1,common,1,2020-06-29T15:44:34Z,sub59
two-step-fixation,239,799004,0.0-76.0-2.34,FALSE,FALSE,TRUE,FALSE,"""event"",""trial"",""time""
""fullscreenenter"",""5"",""12410""
","
","
","""event"",""trial"",""time""
""fullscreenenter"",""5"",""12410""
","
",NA,images/earth.jpg,NA,NA,NA,NA,NA,NA,NA,NA,NA,NA,NA,NA,NA,fixation,NA,NA,NA,NA,NA,NA,sub59
d3-animate-choice,240,801312,0.0-76.0-0.35,FALSE,FALSE,TRUE,FALSE,"""event"",""trial"",""time""
""fullscreenenter"",""5"",""12410""
","
","
","""event"",""trial"",""time""
""fullscreenenter"",""5"",""12410""
","
",295.22999999974854,NA,48,NA,NA,3000,1,NA,NA,images/earth.jpg,images/rocket1,images/rocket2,null,images/rocket1,NA,1,real,null,2,NA,NA,NA,sub59
d3-animate-choice,241,803630,0.0-76.0-1.35,FALSE,FALSE,TRUE,FALSE,"""event"",""trial"",""time""
""fullscreenenter"",""5"",""12410""
","
","
","""event"",""trial"",""time""
""fullscreenenter"",""5"",""12410""
","
",307.75,NA,49,NA,NA,3000,1,NA,NA,images/purpleplanet.jpg,images/alien4,images/alien3,images/rocket1,images/alien3,images/t.png,2,real,true,1,common,1,2020-06-29T15:44:39Z,sub59
two-step-fixation,242,804636,0.0-76.0-2.35,FALSE,FALSE,TRUE,FALSE,"""event"",""trial"",""time""
""fullscreenenter"",""5"",""12410""
","
","
","""event"",""trial"",""time""
""fullscreenenter"",""5"",""12410""
","
",NA,images/earth.jpg,NA,NA,NA,NA,NA,NA,NA,NA,NA,NA,NA,NA,NA,fixation,NA,NA,NA,NA,NA,NA,sub59
d3-animate-choice,243,807049,0.0-76.0-0.36,FALSE,FALSE,TRUE,FALSE,"""event"",""trial"",""time""
""fullscreenenter"",""5"",""12410""
","
","
","""event"",""trial"",""time""
""fullscreenenter"",""5"",""12410""
","
",403.7450000005774,NA,48,NA,NA,3000,1,NA,NA,images/earth.jpg,images/rocket1,images/rocket2,null,images/rocket1,NA,1,real,null,2,NA,NA,NA,sub59
d3-animate-choice,244,809395,0.0-76.0-1.36,FALSE,FALSE,TRUE,FALSE,"""event"",""trial"",""time""
""fullscreenenter"",""5"",""12410""
","
","
","""event"",""trial"",""time""
""fullscreenenter"",""5"",""12410""
","
",335.1800000000512,NA,49,NA,NA,3000,1,NA,NA,images/purpleplanet.jpg,images/alien4,images/alien3,images/rocket1,images/alien3,images/t.png,2,real,true,1,common,1,2020-06-29T15:44:45Z,sub59
two-step-fixation,245,810405,0.0-76.0-2.36,FALSE,FALSE,TRUE,FALSE,"""event"",""trial"",""time""
""fullscreenenter"",""5"",""12410""
","
","
","""event"",""trial"",""time""
""fullscreenenter"",""5"",""12410""
","
",NA,images/earth.jpg,NA,NA,NA,NA,NA,NA,NA,NA,NA,NA,NA,NA,NA,fixation,NA,NA,NA,NA,NA,NA,sub59
d3-animate-choice,246,812875,0.0-76.0-0.37,FALSE,FALSE,TRUE,FALSE,"""event"",""trial"",""time""
""fullscreenenter"",""5"",""12410""
","
","
","""event"",""trial"",""time""
""fullscreenenter"",""5"",""12410""
","
",457.1549999990966,NA,48,NA,NA,3000,1,NA,NA,images/earth.jpg,images/rocket1,images/rocket2,null,images/rocket1,NA,1,real,null,2,NA,NA,NA,sub59
d3-animate-choice,247,815324,0.0-76.0-1.37,FALSE,FALSE,TRUE,FALSE,"""event"",""trial"",""time""
""fullscreenenter"",""5"",""12410""
","
","
","""event"",""trial"",""time""
""fullscreenenter"",""5"",""12410""
","
",438.1049999992829,NA,49,NA,NA,3000,1,NA,NA,images/purpleplanet.jpg,images/alien4,images/alien3,images/rocket1,images/alien3,images/t.png,2,real,true,1,common,1,2020-06-29T15:44:51Z,sub59
two-step-fixation,248,816333,0.0-76.0-2.37,FALSE,FALSE,TRUE,FALSE,"""event"",""trial"",""time""
""fullscreenenter"",""5"",""12410""
","
","
","""event"",""trial"",""time""
""fullscreenenter"",""5"",""12410""
","
",NA,images/earth.jpg,NA,NA,NA,NA,NA,NA,NA,NA,NA,NA,NA,NA,NA,fixation,NA,NA,NA,NA,NA,NA,sub59
d3-animate-choice,249,818646,0.0-76.0-0.38,FALSE,FALSE,TRUE,FALSE,"""event"",""trial"",""time""
""fullscreenenter"",""5"",""12410""
","
","
","""event"",""trial"",""time""
""fullscreenenter"",""5"",""12410""
","
",306.14000000059605,NA,48,NA,NA,3000,1,NA,NA,images/earth.jpg,images/rocket1,images/rocket2,null,images/rocket1,NA,1,real,null,2,NA,NA,NA,sub59
d3-animate-choice,250,821005,0.0-76.0-1.38,FALSE,FALSE,TRUE,FALSE,"""event"",""trial"",""time""
""fullscreenenter"",""5"",""12410""
","
","
","""event"",""trial"",""time""
""fullscreenenter"",""5"",""12410""
","
",350.52499999979045,NA,49,NA,NA,3000,1,NA,NA,images/purpleplanet.jpg,images/alien4,images/alien3,images/rocket1,images/alien3,images/nothing.png,2,real,true,1,common,0,2020-06-29T15:44:57Z,sub59
two-step-fixation,251,822012,0.0-76.0-2.38,FALSE,FALSE,TRUE,FALSE,"""event"",""trial"",""time""
""fullscreenenter"",""5"",""12410""
","
","
","""event"",""trial"",""time""
""fullscreenenter"",""5"",""12410""
","
",NA,images/earth.jpg,NA,NA,NA,NA,NA,NA,NA,NA,NA,NA,NA,NA,NA,fixation,NA,NA,NA,NA,NA,NA,sub59
d3-animate-choice,252,824361,0.0-76.0-0.39,FALSE,FALSE,TRUE,FALSE,"""event"",""trial"",""time""
""fullscreenenter"",""5"",""12410""
","
","
","""event"",""trial"",""time""
""fullscreenenter"",""5"",""12410""
","
",339.91000000049826,NA,48,NA,NA,3000,1,NA,NA,images/earth.jpg,images/rocket1,images/rocket2,null,images/rocket1,NA,1,real,null,2,NA,NA,NA,sub59
d3-animate-choice,253,826600,0.0-76.0-1.39,FALSE,FALSE,TRUE,FALSE,"""event"",""trial"",""time""
""fullscreenenter"",""5"",""12410""
","
","
","""event"",""trial"",""time""
""fullscreenenter"",""5"",""12410""
","
",225.90500000026077,NA,49,NA,NA,3000,1,NA,NA,images/purpleplanet.jpg,images/alien4,images/alien3,images/rocket1,images/alien3,images/t.png,2,real,true,1,common,1,2020-06-29T15:45:02Z,sub59
two-step-fixation,254,827611,0.0-76.0-2.39,FALSE,FALSE,TRUE,FALSE,"""event"",""trial"",""time""
""fullscreenenter"",""5"",""12410""
","
","
","""event"",""trial"",""time""
""fullscreenenter"",""5"",""12410""
","
",NA,images/earth.jpg,NA,NA,NA,NA,NA,NA,NA,NA,NA,NA,NA,NA,NA,fixation,NA,NA,NA,NA,NA,NA,sub59
d3-animate-choice,255,829961,0.0-76.0-0.40,FALSE,FALSE,TRUE,FALSE,"""event"",""trial"",""time""
""fullscreenenter"",""5"",""12410""
","
","
","""event"",""trial"",""time""
""fullscreenenter"",""5"",""12410""
","
",333.38999999978114,NA,48,NA,NA,3000,1,NA,NA,images/earth.jpg,images/rocket1,images/rocket2,null,images/rocket1,NA,1,real,null,2,NA,NA,NA,sub59
d3-animate-choice,256,833193,0.0-76.0-1.40,FALSE,FALSE,TRUE,FALSE,"""event"",""trial"",""time""
""fullscreenenter"",""5"",""12410""
","
","
","""event"",""trial"",""time""
""fullscreenenter"",""5"",""12410""
","
",1219.2900000000373,NA,49,NA,NA,3000,1,NA,NA,images/redplanet1.jpg,images/alien2,images/alien1,images/rocket1,images/alien1,images/nothing.png,2,real,false,1,rare,0,2020-06-29T15:45:09Z,sub59
two-step-fixation,257,834203,0.0-76.0-2.40,FALSE,FALSE,TRUE,FALSE,"""event"",""trial"",""time""
""fullscreenenter"",""5"",""12410""
","
","
","""event"",""trial"",""time""
""fullscreenenter"",""5"",""12410""
","
",NA,images/earth.jpg,NA,NA,NA,NA,NA,NA,NA,NA,NA,NA,NA,NA,NA,fixation,NA,NA,NA,NA,NA,NA,sub59
d3-animate-choice,258,836672,0.0-76.0-0.41,FALSE,FALSE,TRUE,FALSE,"""event"",""trial"",""time""
""fullscreenenter"",""5"",""12410""
","
","
","""event"",""trial"",""time""
""fullscreenenter"",""5"",""12410""
","
",459.3599999997532,NA,48,NA,NA,3000,1,NA,NA,images/earth.jpg,images/rocket1,images/rocket2,null,images/rocket1,NA,1,real,null,2,NA,NA,NA,sub59
d3-animate-choice,259,839102,0.0-76.0-1.41,FALSE,FALSE,TRUE,FALSE,"""event"",""trial"",""time""
""fullscreenenter"",""5"",""12410""
","
","
","""event"",""trial"",""time""
""fullscreenenter"",""5"",""12410""
","
",411.804999999702,NA,49,NA,NA,3000,1,NA,NA,images/purpleplanet.jpg,images/alien4,images/alien3,images/rocket1,images/alien3,images/t.png,2,real,true,1,common,1,2020-06-29T15:45:15Z,sub59
two-step-fixation,260,840110,0.0-76.0-2.41,FALSE,FALSE,TRUE,FALSE,"""event"",""trial"",""time""
""fullscreenenter"",""5"",""12410""
","
","
","""event"",""trial"",""time""
""fullscreenenter"",""5"",""12410""
","
",NA,images/earth.jpg,NA,NA,NA,NA,NA,NA,NA,NA,NA,NA,NA,NA,NA,fixation,NA,NA,NA,NA,NA,NA,sub59
d3-animate-choice,261,842516,0.0-76.0-0.42,FALSE,FALSE,TRUE,FALSE,"""event"",""trial"",""time""
""fullscreenenter"",""5"",""12410""
","
","
","""event"",""trial"",""time""
""fullscreenenter"",""5"",""12410""
","
",392.3199999999488,NA,48,NA,NA,3000,1,NA,NA,images/earth.jpg,images/rocket1,images/rocket2,null,images/rocket1,NA,1,real,null,2,NA,NA,NA,sub59
d3-animate-choice,262,844918,0.0-76.0-1.42,FALSE,FALSE,TRUE,FALSE,"""event"",""trial"",""time""
""fullscreenenter"",""5"",""12410""
","
","
","""event"",""trial"",""time""
""fullscreenenter"",""5"",""12410""
","
",389.6199999998789,NA,49,NA,NA,3000,1,NA,NA,images/purpleplanet.jpg,images/alien4,images/alien3,images/rocket1,images/alien3,images/t.png,2,real,true,1,common,1,2020-06-29T15:45:21Z,sub59
two-step-fixation,263,845929,0.0-76.0-2.42,FALSE,FALSE,TRUE,FALSE,"""event"",""trial"",""time""
""fullscreenenter"",""5"",""12410""
","
","
","""event"",""trial"",""time""
""fullscreenenter"",""5"",""12410""
","
",NA,images/earth.jpg,NA,NA,NA,NA,NA,NA,NA,NA,NA,NA,NA,NA,NA,fixation,NA,NA,NA,NA,NA,NA,sub59
d3-animate-choice,264,848261,0.0-76.0-0.43,FALSE,FALSE,TRUE,FALSE,"""event"",""trial"",""time""
""fullscreenenter"",""5"",""12410""
","
","
","""event"",""trial"",""time""
""fullscreenenter"",""5"",""12410""
","
",321.6299999994226,NA,48,NA,NA,3000,1,NA,NA,images/earth.jpg,images/rocket1,images/rocket2,null,images/rocket1,NA,1,real,null,2,NA,NA,NA,sub59
d3-animate-choice,265,850514,0.0-76.0-1.43,FALSE,FALSE,TRUE,FALSE,"""event"",""trial"",""time""
""fullscreenenter"",""5"",""12410""
","
","
","""event"",""trial"",""time""
""fullscreenenter"",""5"",""12410""
","
",238.21500000031665,NA,49,NA,NA,3000,1,NA,NA,images/purpleplanet.jpg,images/alien4,images/alien3,images/rocket1,images/alien3,images/t.png,2,real,true,1,common,1,2020-06-29T15:45:26Z,sub59
two-step-fixation,266,851523,0.0-76.0-2.43,FALSE,FALSE,TRUE,FALSE,"""event"",""trial"",""time""
""fullscreenenter"",""5"",""12410""
","
","
","""event"",""trial"",""time""
""fullscreenenter"",""5"",""12410""
","
",NA,images/earth.jpg,NA,NA,NA,NA,NA,NA,NA,NA,NA,NA,NA,NA,NA,fixation,NA,NA,NA,NA,NA,NA,sub59
d3-animate-choice,267,853799,0.0-76.0-0.44,FALSE,FALSE,TRUE,FALSE,"""event"",""trial"",""time""
""fullscreenenter"",""5"",""12410""
","
","
","""event"",""trial"",""time""
""fullscreenenter"",""5"",""12410""
","
",262.11500000045635,NA,48,NA,NA,3000,1,NA,NA,images/earth.jpg,images/rocket1,images/rocket2,null,images/rocket1,NA,1,real,null,2,NA,NA,NA,sub59
d3-animate-choice,268,856147,0.0-76.0-1.44,FALSE,FALSE,TRUE,FALSE,"""event"",""trial"",""time""
""fullscreenenter"",""5"",""12410""
","
","
","""event"",""trial"",""time""
""fullscreenenter"",""5"",""12410""
","
",335.6500000000233,NA,48,NA,NA,3000,1,NA,NA,images/purpleplanet.jpg,images/alien4,images/alien3,images/rocket1,images/alien4,images/t.png,2,real,true,2,common,1,2020-06-29T15:45:32Z,sub59
two-step-fixation,269,857157,0.0-76.0-2.44,FALSE,FALSE,TRUE,FALSE,"""event"",""trial"",""time""
""fullscreenenter"",""5"",""12410""
","
","
","""event"",""trial"",""time""
""fullscreenenter"",""5"",""12410""
","
",NA,images/earth.jpg,NA,NA,NA,NA,NA,NA,NA,NA,NA,NA,NA,NA,NA,fixation,NA,NA,NA,NA,NA,NA,sub59
d3-animate-choice,270,859495,0.0-76.0-0.45,FALSE,FALSE,TRUE,FALSE,"""event"",""trial"",""time""
""fullscreenenter"",""5"",""12410""
","
","
","""event"",""trial"",""time""
""fullscreenenter"",""5"",""12410""
","
",323.62999999988824,NA,49,NA,NA,3000,1,NA,NA,images/earth.jpg,images/rocket1,images/rocket2,null,images/rocket2,NA,1,real,null,1,NA,NA,NA,sub59
d3-animate-choice,271,861994,0.0-76.0-1.45,FALSE,FALSE,TRUE,FALSE,"""event"",""trial"",""time""
""fullscreenenter"",""5"",""12410""
","
","
","""event"",""trial"",""time""
""fullscreenenter"",""5"",""12410""
","
",482.6850000000559,NA,49,NA,NA,3000,1,NA,NA,images/redplanet1.jpg,images/alien2,images/alien1,images/rocket2,images/alien1,images/t.png,2,real,true,1,common,1,2020-06-29T15:45:38Z,sub59
two-step-fixation,272,863007,0.0-76.0-2.45,FALSE,FALSE,TRUE,FALSE,"""event"",""trial"",""time""
""fullscreenenter"",""5"",""12410""
","
","
","""event"",""trial"",""time""
""fullscreenenter"",""5"",""12410""
","
",NA,images/earth.jpg,NA,NA,NA,NA,NA,NA,NA,NA,NA,NA,NA,NA,NA,fixation,NA,NA,NA,NA,NA,NA,sub59
d3-animate-choice,273,865542,0.0-76.0-0.46,FALSE,FALSE,TRUE,FALSE,"""event"",""trial"",""time""
""fullscreenenter"",""5"",""12410""
","
","
","""event"",""trial"",""time""
""fullscreenenter"",""5"",""12410""
","
",525.2499999996508,NA,48,NA,NA,3000,1,NA,NA,images/earth.jpg,images/rocket1,images/rocket2,null,images/rocket1,NA,1,real,null,2,NA,NA,NA,sub59
d3-animate-choice,274,867850,0.0-76.0-1.46,FALSE,FALSE,TRUE,FALSE,"""event"",""trial"",""time""
""fullscreenenter"",""5"",""12410""
","
","
","""event"",""trial"",""time""
""fullscreenenter"",""5"",""12410""
","
",292.8150000006426,NA,49,NA,NA,3000,1,NA,NA,images/purpleplanet.jpg,images/alien4,images/alien3,images/rocket1,images/alien3,images/nothing.png,2,real,true,1,common,0,2020-06-29T15:45:44Z,sub59
two-step-fixation,275,868858,0.0-76.0-2.46,FALSE,FALSE,TRUE,FALSE,"""event"",""trial"",""time""
""fullscreenenter"",""5"",""12410""
","
","
","""event"",""trial"",""time""
""fullscreenenter"",""5"",""12410""
","
",NA,images/earth.jpg,NA,NA,NA,NA,NA,NA,NA,NA,NA,NA,NA,NA,NA,fixation,NA,NA,NA,NA,NA,NA,sub59
d3-animate-choice,276,871124,0.0-76.0-0.47,FALSE,FALSE,TRUE,FALSE,"""event"",""trial"",""time""
""fullscreenenter"",""5"",""12410""
","
","
","""event"",""trial"",""time""
""fullscreenenter"",""5"",""12410""
","
",249.26500000036322,NA,48,NA,NA,3000,1,NA,NA,images/earth.jpg,images/rocket1,images/rocket2,null,images/rocket1,NA,1,real,null,2,NA,NA,NA,sub59
d3-animate-choice,277,873503,0.0-76.0-1.47,FALSE,FALSE,TRUE,FALSE,"""event"",""trial"",""time""
""fullscreenenter"",""5"",""12410""
","
","
","""event"",""trial"",""time""
""fullscreenenter"",""5"",""12410""
","
",366.9950000003446,NA,48,NA,NA,3000,1,NA,NA,images/purpleplanet.jpg,images/alien4,images/alien3,images/rocket1,images/alien4,images/t.png,2,real,true,2,common,1,2020-06-29T15:45:49Z,sub59
two-step-fixation,278,874512,0.0-76.0-2.47,FALSE,FALSE,TRUE,FALSE,"""event"",""trial"",""time""
""fullscreenenter"",""5"",""12410""
","
","
","""event"",""trial"",""time""
""fullscreenenter"",""5"",""12410""
","
",NA,images/earth.jpg,NA,NA,NA,NA,NA,NA,NA,NA,NA,NA,NA,NA,NA,fixation,NA,NA,NA,NA,NA,NA,sub59
d3-animate-choice,279,876783,0.0-76.0-0.48,FALSE,FALSE,TRUE,FALSE,"""event"",""trial"",""time""
""fullscreenenter"",""5"",""12410""
","
","
","""event"",""trial"",""time""
""fullscreenenter"",""5"",""12410""
","
",256.20499999960884,NA,48,NA,NA,3000,1,NA,NA,images/earth.jpg,images/rocket1,images/rocket2,null,images/rocket1,NA,1,real,null,2,NA,NA,NA,sub59
d3-animate-choice,280,879092,0.0-76.0-1.48,FALSE,FALSE,TRUE,FALSE,"""event"",""trial"",""time""
""fullscreenenter"",""5"",""12410""
","
","
","""event"",""trial"",""time""
""fullscreenenter"",""5"",""12410""
","
",291.6400000003632,NA,48,NA,NA,3000,1,NA,NA,images/purpleplanet.jpg,images/alien4,images/alien3,images/rocket1,images/alien4,images/nothing.png,2,real,true,2,common,0,2020-06-29T15:45:55Z,sub59
two-step-fixation,281,880101,0.0-76.0-2.48,FALSE,FALSE,TRUE,FALSE,"""event"",""trial"",""time""
""fullscreenenter"",""5"",""12410""
","
","
","""event"",""trial"",""time""
""fullscreenenter"",""5"",""12410""
","
",NA,images/earth.jpg,NA,NA,NA,NA,NA,NA,NA,NA,NA,NA,NA,NA,NA,fixation,NA,NA,NA,NA,NA,NA,sub59
d3-animate-choice,282,882464,0.0-76.0-0.49,FALSE,FALSE,TRUE,FALSE,"""event"",""trial"",""time""
""fullscreenenter"",""5"",""12410""
","
","
","""event"",""trial"",""time""
""fullscreenenter"",""5"",""12410""
","
