trial_type,trial_index,time_elapsed,internal_node_id,rocket_sides,red_planet_first_rocket,red_display_order,purple_display_order,interactions,blur_events,focus_events,fullscreenenter_events,fullscreenexit_events,rt,stimulus,key_press,button_pressed,success,duration,valid_pressed,rts,keys,planet_text,right_text,left_text,center_text,chosen_text,reward_text,trial_stage,practice_trial,transition_type,choice,transition,reward,timestamp,subject_id
pavlovia,0,8,0.0-0.0,TRUE,TRUE,TRUE,TRUE,"
","
","
","
","
",NA,NA,NA,NA,NA,NA,NA,NA,NA,NA,NA,NA,NA,NA,NA,NA,NA,NA,NA,NA,NA,NA,sub13
html-keyboard-response,1,4057,0.0-1.0,TRUE,TRUE,TRUE,TRUE,"
","
","
","
","
",4046.7700000008335,Welcome! Press the space bar to begin.,32,NA,NA,NA,NA,NA,NA,NA,NA,NA,NA,NA,NA,NA,NA,NA,NA,NA,NA,NA,sub13
audio-keyboard-response,2,11959,0.0-2.0,TRUE,TRUE,TRUE,TRUE,"
","
","
","
","
",7851,audio/beep_loop.wav,32,NA,NA,NA,NA,NA,NA,NA,NA,NA,NA,NA,NA,NA,NA,NA,NA,NA,NA,NA,sub13
audio-button-response,3,51937,0.0-3.0,TRUE,TRUE,TRUE,TRUE,"
","
","
","
","
",NaN,audio/fish.mp3,NA,1,NA,NA,NA,NA,NA,NA,NA,NA,NA,NA,NA,NA,NA,NA,NA,NA,NA,NA,sub13
audio-button-response,4,55193,0.0-4.0,TRUE,TRUE,TRUE,TRUE,"""event"",""trial"",""time""
""fullscreenenter"",""5"",""64258""
","
","
","""event"",""trial"",""time""
""fullscreenenter"",""5"",""64258""
","
",NaN,audio/tiger.mp3,NA,4,NA,NA,NA,NA,NA,NA,NA,NA,NA,NA,NA,NA,NA,NA,NA,NA,NA,NA,sub13
fullscreen,5,65227,0.0-5.0,TRUE,TRUE,TRUE,TRUE,"""event"",""trial"",""time""
""fullscreenenter"",""5"",""64258""
","
","
","""event"",""trial"",""time""
""fullscreenenter"",""5"",""64258""
","
",NA,NA,NA,NA,TRUE,NA,NA,NA,NA,NA,NA,NA,NA,NA,NA,NA,NA,NA,NA,NA,NA,NA,sub13
d3-instructions,6,85366,0.0-6.0,TRUE,TRUE,TRUE,TRUE,"""event"",""trial"",""time""
""fullscreenenter"",""5"",""64258""
","
","
","""event"",""trial"",""time""
""fullscreenenter"",""5"",""64258""
","
",NA,NA,NA,NA,NA,NA,NA,NA,NA,NA,NA,NA,NA,NA,NA,NA,NA,NA,NA,NA,NA,NA,sub13
d3-instructions,7,96373,0.0-7.0,TRUE,TRUE,TRUE,TRUE,"""event"",""trial"",""time""
""fullscreenenter"",""5"",""64258""
","
","
","""event"",""trial"",""time""
""fullscreenenter"",""5"",""64258""
","
",NA,NA,NA,NA,NA,NA,NA,NA,NA,NA,NA,NA,NA,NA,NA,NA,NA,NA,NA,NA,NA,NA,sub13
d3-instructions,8,105126,0.0-8.0,TRUE,TRUE,TRUE,TRUE,"""event"",""trial"",""time""
""fullscreenenter"",""5"",""64258""
","
","
","""event"",""trial"",""time""
""fullscreenenter"",""5"",""64258""
","
",NA,NA,NA,NA,NA,NA,NA,NA,NA,NA,NA,NA,NA,NA,NA,NA,NA,NA,NA,NA,NA,NA,sub13
d3-instructions,9,117629,0.0-9.0,TRUE,TRUE,TRUE,TRUE,"""event"",""trial"",""time""
""fullscreenenter"",""5"",""64258""
","
","
","""event"",""trial"",""time""
""fullscreenenter"",""5"",""64258""
","
",NA,NA,NA,NA,NA,NA,NA,NA,NA,NA,NA,NA,NA,NA,NA,NA,NA,NA,NA,NA,NA,NA,sub13
d3-instructions,10,132549,0.0-10.0,TRUE,TRUE,TRUE,TRUE,"""event"",""trial"",""time""
""fullscreenenter"",""5"",""64258""
","
","
","""event"",""trial"",""time""
""fullscreenenter"",""5"",""64258""
","
",NA,NA,NA,NA,NA,NA,NA,NA,NA,NA,NA,NA,NA,NA,NA,NA,NA,NA,NA,NA,NA,NA,sub13
d3-animate-choice,11,139645,0.0-11.0,TRUE,TRUE,TRUE,TRUE,"""event"",""trial"",""time""
""fullscreenenter"",""5"",""64258""
","
","
","""event"",""trial"",""time""
""fullscreenenter"",""5"",""64258""
","
",5082.764999999199,NA,49,NA,NA,3000,1,NA,NA,images/tutgreenplanet.jpg,images/tutalien1,images/tutalien2,null,images/tutalien2,NA,NA,practice,null,NA,NA,NA,NA,sub13
d3-animate-choice,12,145287,0.0-12.0,TRUE,TRUE,TRUE,TRUE,"""event"",""trial"",""time""
""fullscreenenter"",""5"",""64258""
","
","
","""event"",""trial"",""time""
""fullscreenenter"",""5"",""64258""
","
",3637.5050000060583,NA,48,NA,NA,3000,1,NA,NA,images/tutgreenplanet.jpg,images/tutalien1,images/tutalien2,null,images/tutalien1,NA,NA,practice,null,NA,NA,NA,NA,sub13
d3-animate-choice,13,150615,0.0-13.0,TRUE,TRUE,TRUE,TRUE,"""event"",""trial"",""time""
""fullscreenenter"",""5"",""64258""
","
","
","""event"",""trial"",""time""
""fullscreenenter"",""5"",""64258""
","
",3322.119999997085,NA,49,NA,NA,3000,1,NA,NA,images/tutgreenplanet.jpg,images/tutalien1,images/tutalien2,null,images/tutalien2,NA,NA,practice,null,NA,NA,NA,NA,sub13
d3-animate-choice,14,152782,0.0-14.0,TRUE,TRUE,TRUE,TRUE,"""event"",""trial"",""time""
""fullscreenenter"",""5"",""64258""
","
","
","""event"",""trial"",""time""
""fullscreenenter"",""5"",""64258""
","
",163.10499999963213,NA,49,NA,NA,3000,1,NA,NA,images/tutgreenplanet.jpg,images/tutalien1,images/tutalien2,null,images/tutalien2,NA,NA,practice,null,NA,NA,NA,NA,sub13
d3-instructions,15,161269,0.0-15.0,TRUE,TRUE,TRUE,TRUE,"""event"",""trial"",""time""
""fullscreenenter"",""5"",""64258""
","
","
","""event"",""trial"",""time""
""fullscreenenter"",""5"",""64258""
","
",NA,NA,NA,NA,NA,NA,NA,NA,NA,NA,NA,NA,NA,NA,NA,NA,NA,NA,NA,NA,NA,NA,sub13
d3-instructions,16,168781,0.0-16.0,TRUE,TRUE,TRUE,TRUE,"""event"",""trial"",""time""
""fullscreenenter"",""5"",""64258""
","
","
","""event"",""trial"",""time""
""fullscreenenter"",""5"",""64258""
","
",NA,NA,NA,NA,NA,NA,NA,NA,NA,NA,NA,NA,NA,NA,NA,NA,NA,NA,NA,NA,NA,NA,sub13
d3-instructions,17,177812,0.0-17.0,TRUE,TRUE,TRUE,TRUE,"""event"",""trial"",""time""
""fullscreenenter"",""5"",""64258""
","
","
","""event"",""trial"",""time""
""fullscreenenter"",""5"",""64258""
","
",NA,NA,NA,NA,NA,NA,NA,NA,NA,NA,NA,NA,NA,NA,NA,NA,NA,NA,NA,NA,NA,NA,sub13
d3-instructions,18,191323,0.0-18.0,TRUE,TRUE,TRUE,TRUE,"""event"",""trial"",""time""
""fullscreenenter"",""5"",""64258""
","
","
","""event"",""trial"",""time""
""fullscreenenter"",""5"",""64258""
","
",NA,NA,NA,NA,NA,NA,NA,NA,NA,NA,NA,NA,NA,NA,NA,NA,NA,NA,NA,NA,NA,NA,sub13
d3-instructions,19,200652,0.0-19.0,TRUE,TRUE,TRUE,TRUE,"""event"",""trial"",""time""
""fullscreenenter"",""5"",""64258""
","
","
","""event"",""trial"",""time""
""fullscreenenter"",""5"",""64258""
","
",NA,NA,NA,NA,NA,NA,NA,NA,NA,NA,NA,NA,NA,NA,NA,NA,NA,NA,NA,NA,NA,NA,sub13
d3-animate-choice,20,208655,0.0-20.0,TRUE,TRUE,TRUE,TRUE,"""event"",""trial"",""time""
""fullscreenenter"",""5"",""64258""
","
","
","""event"",""trial"",""time""
""fullscreenenter"",""5"",""64258""
","
",5997.134999997797,NA,49,NA,NA,3000,1,NA,NA,images/tutyellowplanet.jpg,null,images/tutalien3,null,images/tutalien3,images/t.png,NA,practice,null,NA,NA,NA,NA,sub13
d3-animate-choice,21,212142,0.0-21.0,TRUE,TRUE,TRUE,TRUE,"""event"",""trial"",""time""
""fullscreenenter"",""5"",""64258""
","
","
","""event"",""trial"",""time""
""fullscreenenter"",""5"",""64258""
","
",1481.4799999876413,NA,49,NA,NA,3000,1,NA,NA,images/tutyellowplanet.jpg,null,images/tutalien3,null,images/tutalien3,images/nothing.png,NA,practice,null,NA,NA,NA,NA,sub13
d3-animate-choice,22,214589,0.0-22.0,TRUE,TRUE,TRUE,TRUE,"""event"",""trial"",""time""
""fullscreenenter"",""5"",""64258""
","
","
","""event"",""trial"",""time""
""fullscreenenter"",""5"",""64258""
","
",443.15999999525957,NA,49,NA,NA,3000,1,NA,NA,images/tutyellowplanet.jpg,null,images/tutalien3,null,images/tutalien3,images/t.png,NA,practice,null,NA,NA,NA,NA,sub13
d3-animate-choice,23,217093,0.0-23.0,TRUE,TRUE,TRUE,TRUE,"""event"",""trial"",""time""
""fullscreenenter"",""5"",""64258""
","
","
","""event"",""trial"",""time""
""fullscreenenter"",""5"",""64258""
","
",499.1149999987101,NA,49,NA,NA,3000,1,2483.9050000009593,49,images/tutyellowplanet.jpg,null,images/tutalien3,null,images/tutalien3,images/nothing.png,NA,practice,null,NA,NA,NA,NA,sub13
d3-animate-choice,24,219757,0.0-24.0,TRUE,TRUE,TRUE,TRUE,"""event"",""trial"",""time""
""fullscreenenter"",""5"",""64258""
","
","
","""event"",""trial"",""time""
""fullscreenenter"",""5"",""64258""
","
",659.1250000055879,NA,49,NA,NA,3000,1,NA,NA,images/tutyellowplanet.jpg,null,images/tutalien3,null,images/tutalien3,images/t.png,NA,practice,null,NA,NA,NA,NA,sub13
d3-animate-choice,25,222525,0.0-25.0,TRUE,TRUE,TRUE,TRUE,"""event"",""trial"",""time""
""fullscreenenter"",""5"",""64258""
","
","
","""event"",""trial"",""time""
""fullscreenenter"",""5"",""64258""
","
",763.7249999970663,NA,49,NA,NA,3000,1,NA,NA,images/tutyellowplanet.jpg,null,images/tutalien3,null,images/tutalien3,images/t.png,NA,practice,null,NA,NA,NA,NA,sub13
d3-animate-choice,26,225909,0.0-26.0,TRUE,TRUE,TRUE,TRUE,"""event"",""trial"",""time""
""fullscreenenter"",""5"",""64258""
","
","
","""event"",""trial"",""time""
""fullscreenenter"",""5"",""64258""
","
",1379.4249999918975,NA,49,NA,NA,3000,1,NA,NA,images/tutyellowplanet.jpg,null,images/tutalien3,null,images/tutalien3,images/nothing.png,NA,practice,null,NA,NA,NA,NA,sub13
d3-animate-choice,27,228558,0.0-27.0,TRUE,TRUE,TRUE,TRUE,"""event"",""trial"",""time""
""fullscreenenter"",""5"",""64258""
","
","
","""event"",""trial"",""time""
""fullscreenenter"",""5"",""64258""
","
",644.1699999995762,NA,49,NA,NA,3000,1,NA,NA,images/tutyellowplanet.jpg,null,images/tutalien3,null,images/tutalien3,images/t.png,NA,practice,null,NA,NA,NA,NA,sub13
d3-animate-choice,28,233012,0.0-28.0,TRUE,TRUE,TRUE,TRUE,"""event"",""trial"",""time""
""fullscreenenter"",""5"",""64258""
","
","
","""event"",""trial"",""time""
""fullscreenenter"",""5"",""64258""
","
",2450.089999998454,NA,49,NA,NA,3000,1,NA,NA,images/tutyellowplanet.jpg,null,images/tutalien3,null,images/tutalien3,images/t.png,NA,practice,null,NA,NA,NA,NA,sub13
d3-animate-choice,29,236477,0.0-29.0,TRUE,TRUE,TRUE,TRUE,"""event"",""trial"",""time""
""fullscreenenter"",""5"",""64258""
","
","
","""event"",""trial"",""time""
""fullscreenenter"",""5"",""64258""
","
",1460.4899999976624,NA,49,NA,NA,3000,1,NA,NA,images/tutyellowplanet.jpg,null,images/tutalien3,null,images/tutalien3,images/t.png,NA,practice,null,NA,NA,NA,NA,sub13
d3-instructions,30,244675,0.0-30.0,TRUE,TRUE,TRUE,TRUE,"""event"",""trial"",""time""
""fullscreenenter"",""5"",""64258""
","
","
","""event"",""trial"",""time""
""fullscreenenter"",""5"",""64258""
","
",NA,NA,NA,NA,NA,NA,NA,NA,NA,NA,NA,NA,NA,NA,NA,NA,NA,NA,NA,NA,NA,NA,sub13
d3-instructions,31,256083,0.0-31.0,TRUE,TRUE,TRUE,TRUE,"""event"",""trial"",""time""
""fullscreenenter"",""5"",""64258""
","
","
","""event"",""trial"",""time""
""fullscreenenter"",""5"",""64258""
","
",NA,NA,NA,NA,NA,NA,NA,NA,NA,NA,NA,NA,NA,NA,NA,NA,NA,NA,NA,NA,NA,NA,sub13
d3-instructions,32,268731,0.0-32.0,TRUE,TRUE,TRUE,TRUE,"""event"",""trial"",""time""
""fullscreenenter"",""5"",""64258""
","
","
","""event"",""trial"",""time""
""fullscreenenter"",""5"",""64258""
","
",NA,NA,NA,NA,NA,NA,NA,NA,NA,NA,NA,NA,NA,NA,NA,NA,NA,NA,NA,NA,NA,NA,sub13
d3-instructions,33,284515,0.0-33.0,TRUE,TRUE,TRUE,TRUE,"""event"",""trial"",""time""
""fullscreenenter"",""5"",""64258""
","
","
","""event"",""trial"",""time""
""fullscreenenter"",""5"",""64258""
","
",NA,NA,NA,NA,NA,NA,NA,NA,NA,NA,NA,NA,NA,NA,NA,NA,NA,NA,NA,NA,NA,NA,sub13
d3-animate-choice,34,288484,0.0-34.0,TRUE,TRUE,TRUE,TRUE,"""event"",""trial"",""time""
""fullscreenenter"",""5"",""64258""
","
","
","""event"",""trial"",""time""
""fullscreenenter"",""5"",""64258""
","
",1965.169999995851,NA,49,NA,NA,3000,1,NA,NA,images/tutgreenplanet.jpg,images/tutalien1,images/tutalien2,null,images/tutalien2,images/t.png,NA,practice,null,NA,NA,NA,NA,sub13
d3-animate-choice,35,291549,0.0-35.0,TRUE,TRUE,TRUE,TRUE,"""event"",""trial"",""time""
""fullscreenenter"",""5"",""64258""
","
","
","""event"",""trial"",""time""
""fullscreenenter"",""5"",""64258""
","
",1059.819999994943,NA,48,NA,NA,3000,1,NA,NA,images/tutgreenplanet.jpg,images/tutalien1,images/tutalien2,null,images/tutalien1,images/nothing.png,NA,practice,null,NA,NA,NA,NA,sub13
d3-animate-choice,36,294333,0.0-36.0,TRUE,TRUE,TRUE,TRUE,"""event"",""trial"",""time""
""fullscreenenter"",""5"",""64258""
","
","
","""event"",""trial"",""time""
""fullscreenenter"",""5"",""64258""
","
",779.0749999985565,NA,48,NA,NA,3000,1,NA,NA,images/tutgreenplanet.jpg,images/tutalien1,images/tutalien2,null,images/tutalien1,images/nothing.png,NA,practice,null,NA,NA,NA,NA,sub13
d3-animate-choice,37,297061,0.0-37.0,TRUE,TRUE,TRUE,TRUE,"""event"",""trial"",""time""
""fullscreenenter"",""5"",""64258""
","
","
","""event"",""trial"",""time""
""fullscreenenter"",""5"",""64258""
","
",724.1849999991246,NA,49,NA,NA,3000,1,NA,NA,images/tutgreenplanet.jpg,images/tutalien1,images/tutalien2,null,images/tutalien2,images/t.png,NA,practice,null,NA,NA,NA,NA,sub13
d3-animate-choice,38,299668,0.0-38.0,TRUE,TRUE,TRUE,TRUE,"""event"",""trial"",""time""
""fullscreenenter"",""5"",""64258""
","
","
","""event"",""trial"",""time""
""fullscreenenter"",""5"",""64258""
","
",602.6100000017323,NA,49,NA,NA,3000,1,NA,NA,images/tutgreenplanet.jpg,images/tutalien1,images/tutalien2,null,images/tutalien2,images/t.png,NA,practice,null,NA,NA,NA,NA,sub13
d3-animate-choice,39,302381,0.0-39.0,TRUE,TRUE,TRUE,TRUE,"""event"",""trial"",""time""
""fullscreenenter"",""5"",""64258""
","
","
","""event"",""trial"",""time""
""fullscreenenter"",""5"",""64258""
","
",707.300000009127,NA,48,NA,NA,3000,1,NA,NA,images/tutgreenplanet.jpg,images/tutalien1,images/tutalien2,null,images/tutalien1,images/nothing.png,NA,practice,null,NA,NA,NA,NA,sub13
d3-animate-choice,40,304766,0.0-40.0,TRUE,TRUE,TRUE,TRUE,"""event"",""trial"",""time""
""fullscreenenter"",""5"",""64258""
","
","
","""event"",""trial"",""time""
""fullscreenenter"",""5"",""64258""
","
",378.9200000028359,NA,49,NA,NA,3000,1,2010.9000000084052,49,images/tutgreenplanet.jpg,images/tutalien1,images/tutalien2,null,images/tutalien2,images/t.png,NA,practice,null,NA,NA,NA,NA,sub13
d3-animate-choice,41,307110,0.0-41.0,TRUE,TRUE,TRUE,TRUE,"""event"",""trial"",""time""
""fullscreenenter"",""5"",""64258""
","
","
","""event"",""trial"",""time""
""fullscreenenter"",""5"",""64258""
","
",339.8100000049453,NA,49,NA,NA,3000,1,NA,NA,images/tutgreenplanet.jpg,images/tutalien1,images/tutalien2,null,images/tutalien2,images/t.png,NA,practice,null,NA,NA,NA,NA,sub13
d3-animate-choice,42,309476,0.0-42.0,TRUE,TRUE,TRUE,TRUE,"""event"",""trial"",""time""
""fullscreenenter"",""5"",""64258""
","
","
","""event"",""trial"",""time""
""fullscreenenter"",""5"",""64258""
","
",362.2950000135461,NA,49,NA,NA,3000,1,1922.6250000065193,49,images/tutgreenplanet.jpg,images/tutalien1,images/tutalien2,null,images/tutalien2,images/t.png,NA,practice,null,NA,NA,NA,NA,sub13
d3-animate-choice,43,311804,0.0-43.0,TRUE,TRUE,TRUE,TRUE,"""event"",""trial"",""time""
""fullscreenenter"",""5"",""64258""
","
","
","""event"",""trial"",""time""
""fullscreenenter"",""5"",""64258""
","
",324.0150000056019,NA,49,NA,NA,3000,1,NA,NA,images/tutgreenplanet.jpg,images/tutalien1,images/tutalien2,null,images/tutalien2,images/nothing.png,NA,practice,null,NA,NA,NA,NA,sub13
d3-instructions,44,327299,0.0-44.0,TRUE,TRUE,TRUE,TRUE,"""event"",""trial"",""time""
""fullscreenenter"",""5"",""64258""
","
","
","""event"",""trial"",""time""
""fullscreenenter"",""5"",""64258""
","
",NA,NA,NA,NA,NA,NA,NA,NA,NA,NA,NA,NA,NA,NA,NA,NA,NA,NA,NA,NA,NA,NA,sub13
d3-instructions,45,335659,0.0-45.0,TRUE,TRUE,TRUE,TRUE,"""event"",""trial"",""time""
""fullscreenenter"",""5"",""64258""
","
","
","""event"",""trial"",""time""
""fullscreenenter"",""5"",""64258""
","
",NA,NA,NA,NA,NA,NA,NA,NA,NA,NA,NA,NA,NA,NA,NA,NA,NA,NA,NA,NA,NA,NA,sub13
d3-instructions,46,342051,0.0-46.0,TRUE,TRUE,TRUE,TRUE,"""event"",""trial"",""time""
""fullscreenenter"",""5"",""64258""
","
","
","""event"",""trial"",""time""
""fullscreenenter"",""5"",""64258""
","
",NA,NA,NA,NA,NA,NA,NA,NA,NA,NA,NA,NA,NA,NA,NA,NA,NA,NA,NA,NA,NA,NA,sub13
d3-instructions,47,358603,0.0-47.0,TRUE,TRUE,TRUE,TRUE,"""event"",""trial"",""time""
""fullscreenenter"",""5"",""64258""
","
","
","""event"",""trial"",""time""
""fullscreenenter"",""5"",""64258""
","
",NA,NA,NA,NA,NA,NA,NA,NA,NA,NA,NA,NA,NA,NA,NA,NA,NA,NA,NA,NA,NA,NA,sub13
d3-instructions,48,365427,0.0-48.0,TRUE,TRUE,TRUE,TRUE,"""event"",""trial"",""time""
""fullscreenenter"",""5"",""64258""
","
","
","""event"",""trial"",""time""
""fullscreenenter"",""5"",""64258""
","
",NA,NA,NA,NA,NA,NA,NA,NA,NA,NA,NA,NA,NA,NA,NA,NA,NA,NA,NA,NA,NA,NA,sub13
d3-instructions,49,378122,0.0-49.0,TRUE,TRUE,TRUE,TRUE,"""event"",""trial"",""time""
""fullscreenenter"",""5"",""64258""
","
","
","""event"",""trial"",""time""
""fullscreenenter"",""5"",""64258""
","
",NA,NA,NA,NA,NA,NA,NA,NA,NA,NA,NA,NA,NA,NA,NA,NA,NA,NA,NA,NA,NA,NA,sub13
d3-instructions,50,395490,0.0-50.0,TRUE,TRUE,TRUE,TRUE,"""event"",""trial"",""time""
""fullscreenenter"",""5"",""64258""
","
","
","""event"",""trial"",""time""
""fullscreenenter"",""5"",""64258""
","
",NA,NA,NA,NA,NA,NA,NA,NA,NA,NA,NA,NA,NA,NA,NA,NA,NA,NA,NA,NA,NA,NA,sub13
d3-instructions,51,399962,0.0-51.0,TRUE,TRUE,TRUE,TRUE,"""event"",""trial"",""time""
""fullscreenenter"",""5"",""64258""
","
","
","""event"",""trial"",""time""
""fullscreenenter"",""5"",""64258""
","
",NA,NA,NA,NA,NA,NA,NA,NA,NA,NA,NA,NA,NA,NA,NA,NA,NA,NA,NA,NA,NA,NA,sub13
d3-instructions,52,402554,0.0-52.0,TRUE,TRUE,TRUE,TRUE,"""event"",""trial"",""time""
""fullscreenenter"",""5"",""64258""
","
","
","""event"",""trial"",""time""
""fullscreenenter"",""5"",""64258""
","
",NA,NA,NA,NA,NA,NA,NA,NA,NA,NA,NA,NA,NA,NA,NA,NA,NA,NA,NA,NA,NA,NA,sub13
d3-instructions,53,415418,0.0-53.0,TRUE,TRUE,TRUE,TRUE,"""event"",""trial"",""time""
""fullscreenenter"",""5"",""64258""
","
","
","""event"",""trial"",""time""
""fullscreenenter"",""5"",""64258""
","
",NA,NA,NA,NA,NA,NA,NA,NA,NA,NA,NA,NA,NA,NA,NA,NA,NA,NA,NA,NA,NA,NA,sub13
d3-instructions,54,435514,0.0-54.0,TRUE,TRUE,TRUE,TRUE,"""event"",""trial"",""time""
""fullscreenenter"",""5"",""64258""
","
","
","""event"",""trial"",""time""
""fullscreenenter"",""5"",""64258""
","
",NA,NA,NA,NA,NA,NA,NA,NA,NA,NA,NA,NA,NA,NA,NA,NA,NA,NA,NA,NA,NA,NA,sub13
d3-instructions,55,447850,0.0-55.0,TRUE,TRUE,TRUE,TRUE,"""event"",""trial"",""time""
""fullscreenenter"",""5"",""64258""
","
","
","""event"",""trial"",""time""
""fullscreenenter"",""5"",""64258""
","
",NA,NA,NA,NA,NA,NA,NA,NA,NA,NA,NA,NA,NA,NA,NA,NA,NA,NA,NA,NA,NA,NA,sub13
d3-instructions,56,456530,0.0-56.0,TRUE,TRUE,TRUE,TRUE,"""event"",""trial"",""time""
""fullscreenenter"",""5"",""64258""
","
","
","""event"",""trial"",""time""
""fullscreenenter"",""5"",""64258""
","
",NA,NA,NA,NA,NA,NA,NA,NA,NA,NA,NA,NA,NA,NA,NA,NA,NA,NA,NA,NA,NA,NA,sub13
d3-instructions,57,558688,0.0-57.0,TRUE,TRUE,TRUE,TRUE,"""event"",""trial"",""time""
""fullscreenenter"",""5"",""64258""
","
","
","""event"",""trial"",""time""
""fullscreenenter"",""5"",""64258""
","
",NA,NA,NA,NA,NA,NA,NA,NA,NA,NA,NA,NA,NA,NA,NA,NA,NA,NA,NA,NA,NA,NA,sub13
d3-instructions,58,570848,0.0-58.0,TRUE,TRUE,TRUE,TRUE,"""event"",""trial"",""time""
""fullscreenenter"",""5"",""64258""
","
","
","""event"",""trial"",""time""
""fullscreenenter"",""5"",""64258""
","
",NA,NA,NA,NA,NA,NA,NA,NA,NA,NA,NA,NA,NA,NA,NA,NA,NA,NA,NA,NA,NA,NA,sub13
d3-instructions,59,576272,0.0-59.0,TRUE,TRUE,TRUE,TRUE,"""event"",""trial"",""time""
""fullscreenenter"",""5"",""64258""
","
","
","""event"",""trial"",""time""
""fullscreenenter"",""5"",""64258""
","
",NA,NA,NA,NA,NA,NA,NA,NA,NA,NA,NA,NA,NA,NA,NA,NA,NA,NA,NA,NA,NA,NA,sub13
d3-instructions,60,583248,0.0-60.0,TRUE,TRUE,TRUE,TRUE,"""event"",""trial"",""time""
""fullscreenenter"",""5"",""64258""
","
","
","""event"",""trial"",""time""
""fullscreenenter"",""5"",""64258""
","
",NA,NA,NA,NA,NA,NA,NA,NA,NA,NA,NA,NA,NA,NA,NA,NA,NA,NA,NA,NA,NA,NA,sub13
d3-animate-choice,61,586361,0.0-61.0-0.0,TRUE,TRUE,TRUE,TRUE,"""event"",""trial"",""time""
""fullscreenenter"",""5"",""64258""
","
","
","""event"",""trial"",""time""
""fullscreenenter"",""5"",""64258""
","
",1105.5599999963306,NA,49,NA,NA,3000,1,NA,NA,images/earth.jpg,images/tutrocket1,images/tutrocket2,null,images/tutrocket2,NA,1,practice,null,1,NA,NA,NA,sub13
d3-animate-choice,62,590051,0.0-61.0-1.0,TRUE,TRUE,TRUE,TRUE,"""event"",""trial"",""time""
""fullscreenenter"",""5"",""64258""
","
","
","""event"",""trial"",""time""
""fullscreenenter"",""5"",""64258""
","
",1679.5800000109011,NA,49,NA,NA,3000,1,NA,NA,images/tutyellowplanet.jpg,images/tutalien4,images/tutalien3,images/tutrocket2,images/tutalien3,images/nothing.png,2,practice,true,1,common,0,2020-06-09T17:53:08Z,sub13
two-step-fixation,63,591061,0.0-61.0-2.0,TRUE,TRUE,TRUE,TRUE,"""event"",""trial"",""time""
""fullscreenenter"",""5"",""64258""
","
","
","""event"",""trial"",""time""
""fullscreenenter"",""5"",""64258""
","
",NA,images/earth.jpg,NA,NA,NA,NA,NA,NA,NA,NA,NA,NA,NA,NA,NA,fixation,NA,NA,NA,NA,NA,NA,sub13
d3-animate-choice,64,595066,0.0-61.0-0.1,TRUE,TRUE,TRUE,TRUE,"""event"",""trial"",""time""
""fullscreenenter"",""5"",""64258""
","
","
","""event"",""trial"",""time""
""fullscreenenter"",""5"",""64258""
","
",2088.4300000034273,NA,48,NA,NA,3000,1,NA,NA,images/earth.jpg,images/tutrocket1,images/tutrocket2,null,images/tutrocket1,NA,1,practice,null,2,NA,NA,NA,sub13
d3-animate-choice,65,597634,0.0-61.0-1.1,TRUE,TRUE,TRUE,TRUE,"""event"",""trial"",""time""
""fullscreenenter"",""5"",""64258""
","
","
","""event"",""trial"",""time""
""fullscreenenter"",""5"",""64258""
","
",561.8700000050012,NA,48,NA,NA,3000,1,NA,NA,images/tutgreenplanet.jpg,images/tutalien2,images/tutalien1,images/tutrocket1,images/tutalien2,images/nothing.png,2,practice,true,2,common,0,2020-06-09T17:53:15Z,sub13
two-step-fixation,66,598639,0.0-61.0-2.1,TRUE,TRUE,TRUE,TRUE,"""event"",""trial"",""time""
""fullscreenenter"",""5"",""64258""
","
","
","""event"",""trial"",""time""
""fullscreenenter"",""5"",""64258""
","
",NA,images/earth.jpg,NA,NA,NA,NA,NA,NA,NA,NA,NA,NA,NA,NA,NA,fixation,NA,NA,NA,NA,NA,NA,sub13
d3-animate-choice,67,601218,0.0-61.0-0.2,TRUE,TRUE,TRUE,TRUE,"""event"",""trial"",""time""
""fullscreenenter"",""5"",""64258""
","
","
","""event"",""trial"",""time""
""fullscreenenter"",""5"",""64258""
","
",573.2150000112597,NA,48,NA,NA,3000,1,NA,NA,images/earth.jpg,images/tutrocket1,images/tutrocket2,null,images/tutrocket1,NA,1,practice,null,2,NA,NA,NA,sub13
d3-animate-choice,68,603762,0.0-61.0-1.2,TRUE,TRUE,TRUE,TRUE,"""event"",""trial"",""time""
""fullscreenenter"",""5"",""64258""
","
","
","""event"",""trial"",""time""
""fullscreenenter"",""5"",""64258""
","
",538.7449999980163,NA,49,NA,NA,3000,1,NA,NA,images/tutgreenplanet.jpg,images/tutalien2,images/tutalien1,images/tutrocket1,images/tutalien1,images/nothing.png,2,practice,true,1,common,0,2020-06-09T17:53:21Z,sub13
two-step-fixation,69,604767,0.0-61.0-2.2,TRUE,TRUE,TRUE,TRUE,"""event"",""trial"",""time""
""fullscreenenter"",""5"",""64258""
","
","
","""event"",""trial"",""time""
""fullscreenenter"",""5"",""64258""
","
",NA,images/earth.jpg,NA,NA,NA,NA,NA,NA,NA,NA,NA,NA,NA,NA,NA,fixation,NA,NA,NA,NA,NA,NA,sub13
d3-animate-choice,70,606955,0.0-61.0-0.3,TRUE,TRUE,TRUE,TRUE,"""event"",""trial"",""time""
""fullscreenenter"",""5"",""64258""
","
","
","""event"",""trial"",""time""
""fullscreenenter"",""5"",""64258""
","
",182.69499999587424,NA,48,NA,NA,3000,1,NA,NA,images/earth.jpg,images/tutrocket1,images/tutrocket2,null,images/tutrocket1,NA,1,practice,null,2,NA,NA,NA,sub13
d3-animate-choice,71,609348,0.0-61.0-1.3,TRUE,TRUE,TRUE,TRUE,"""event"",""trial"",""time""
""fullscreenenter"",""5"",""64258""
","
","
","""event"",""trial"",""time""
""fullscreenenter"",""5"",""64258""
","
",384.70999999844935,NA,48,NA,NA,3000,1,NA,NA,images/tutgreenplanet.jpg,images/tutalien2,images/tutalien1,images/tutrocket1,images/tutalien2,images/t.png,2,practice,true,2,common,1,2020-06-09T17:53:27Z,sub13
two-step-fixation,72,610353,0.0-61.0-2.3,TRUE,TRUE,TRUE,TRUE,"""event"",""trial"",""time""
""fullscreenenter"",""5"",""64258""
","
","
","""event"",""trial"",""time""
""fullscreenenter"",""5"",""64258""
","
",NA,images/earth.jpg,NA,NA,NA,NA,NA,NA,NA,NA,NA,NA,NA,NA,NA,fixation,NA,NA,NA,NA,NA,NA,sub13
d3-animate-choice,73,612970,0.0-61.0-0.4,TRUE,TRUE,TRUE,TRUE,"""event"",""trial"",""time""
""fullscreenenter"",""5"",""64258""
","
","
","""event"",""trial"",""time""
""fullscreenenter"",""5"",""64258""
","
",611.7899999953806,NA,49,NA,NA,3000,1,NA,NA,images/earth.jpg,images/tutrocket1,images/tutrocket2,null,images/tutrocket2,NA,1,practice,null,1,NA,NA,NA,sub13
d3-animate-choice,74,615585,0.0-61.0-1.4,TRUE,TRUE,TRUE,TRUE,"""event"",""trial"",""time""
""fullscreenenter"",""5"",""64258""
","
","
","""event"",""trial"",""time""
""fullscreenenter"",""5"",""64258""
","
",608.0399999918882,NA,48,NA,NA,3000,1,NA,NA,images/tutyellowplanet.jpg,images/tutalien4,images/tutalien3,images/tutrocket2,images/tutalien4,images/nothing.png,2,practice,true,2,common,0,2020-06-09T17:53:33Z,sub13
two-step-fixation,75,616591,0.0-61.0-2.4,TRUE,TRUE,TRUE,TRUE,"""event"",""trial"",""time""
""fullscreenenter"",""5"",""64258""
","
","
","""event"",""trial"",""time""
""fullscreenenter"",""5"",""64258""
","
",NA,images/earth.jpg,NA,NA,NA,NA,NA,NA,NA,NA,NA,NA,NA,NA,NA,fixation,NA,NA,NA,NA,NA,NA,sub13
d3-animate-choice,76,619243,0.0-61.0-0.5,TRUE,TRUE,TRUE,TRUE,"""event"",""trial"",""time""
""fullscreenenter"",""5"",""64258""
","
","
","""event"",""trial"",""time""
""fullscreenenter"",""5"",""64258""
","
",646.9099999958416,NA,49,NA,NA,3000,1,NA,NA,images/earth.jpg,images/tutrocket1,images/tutrocket2,null,images/tutrocket2,NA,1,practice,null,1,NA,NA,NA,sub13
d3-animate-choice,77,621841,0.0-61.0-1.5,TRUE,TRUE,TRUE,TRUE,"""event"",""trial"",""time""
""fullscreenenter"",""5"",""64258""
","
","
","""event"",""trial"",""time""
""fullscreenenter"",""5"",""64258""
","
",593.1350000028033,NA,49,NA,NA,3000,1,NA,NA,images/tutyellowplanet.jpg,images/tutalien4,images/tutalien3,images/tutrocket2,images/tutalien3,images/nothing.png,2,practice,true,1,common,0,2020-06-09T17:53:40Z,sub13
two-step-fixation,78,622847,0.0-61.0-2.5,TRUE,TRUE,TRUE,TRUE,"""event"",""trial"",""time""
""fullscreenenter"",""5"",""64258""
","
","
","""event"",""trial"",""time""
""fullscreenenter"",""5"",""64258""
","
",NA,images/earth.jpg,NA,NA,NA,NA,NA,NA,NA,NA,NA,NA,NA,NA,NA,fixation,NA,NA,NA,NA,NA,NA,sub13
d3-animate-choice,79,625018,0.0-61.0-0.6,TRUE,TRUE,TRUE,TRUE,"""event"",""trial"",""time""
""fullscreenenter"",""5"",""64258""
","
","
","""event"",""trial"",""time""
""fullscreenenter"",""5"",""64258""
","
",166.14000000117812,NA,49,NA,NA,3000,1,NA,NA,images/earth.jpg,images/tutrocket1,images/tutrocket2,null,images/tutrocket2,NA,1,practice,null,1,NA,NA,NA,sub13
d3-animate-choice,80,627538,0.0-61.0-1.6,TRUE,TRUE,TRUE,TRUE,"""event"",""trial"",""time""
""fullscreenenter"",""5"",""64258""
","
","
","""event"",""trial"",""time""
""fullscreenenter"",""5"",""64258""
","
",514.5699999993667,NA,48,NA,NA,3000,1,NA,NA,images/tutyellowplanet.jpg,images/tutalien4,images/tutalien3,images/tutrocket2,images/tutalien4,images/t.png,2,practice,true,2,common,1,2020-06-09T17:53:45Z,sub13
two-step-fixation,81,628544,0.0-61.0-2.6,TRUE,TRUE,TRUE,TRUE,"""event"",""trial"",""time""
""fullscreenenter"",""5"",""64258""
","
","
","""event"",""trial"",""time""
""fullscreenenter"",""5"",""64258""
","
",NA,images/earth.jpg,NA,NA,NA,NA,NA,NA,NA,NA,NA,NA,NA,NA,NA,fixation,NA,NA,NA,NA,NA,NA,sub13
d3-animate-choice,82,631690,0.0-61.0-0.7,TRUE,TRUE,TRUE,TRUE,"""event"",""trial"",""time""
""fullscreenenter"",""5"",""64258""
","
","
","""event"",""trial"",""time""
""fullscreenenter"",""5"",""64258""
","
",1140.9049999929266,NA,48,NA,NA,3000,1,NA,NA,images/earth.jpg,images/tutrocket1,images/tutrocket2,null,images/tutrocket1,NA,1,practice,null,2,NA,NA,NA,sub13
d3-animate-choice,83,634273,0.0-61.0-1.7,TRUE,TRUE,TRUE,TRUE,"""event"",""trial"",""time""
""fullscreenenter"",""5"",""64258""
","
","
","""event"",""trial"",""time""
""fullscreenenter"",""5"",""64258""
","
",578.0099999974482,NA,49,NA,NA,3000,1,NA,NA,images/tutgreenplanet.jpg,images/tutalien2,images/tutalien1,images/tutrocket1,images/tutalien1,images/nothing.png,2,practice,true,1,common,0,2020-06-09T17:53:52Z,sub13
two-step-fixation,84,635278,0.0-61.0-2.7,TRUE,TRUE,TRUE,TRUE,"""event"",""trial"",""time""
""fullscreenenter"",""5"",""64258""
","
","
","""event"",""trial"",""time""
""fullscreenenter"",""5"",""64258""
","
",NA,images/earth.jpg,NA,NA,NA,NA,NA,NA,NA,NA,NA,NA,NA,NA,NA,fixation,NA,NA,NA,NA,NA,NA,sub13
d3-animate-choice,85,637308,0.0-61.0-0.8,TRUE,TRUE,TRUE,TRUE,"""event"",""trial"",""time""
""fullscreenenter"",""5"",""64258""
","
","
","""event"",""trial"",""time""
""fullscreenenter"",""5"",""64258""
","
",22.45000000402797,NA,49,NA,NA,3000,1,NA,NA,images/earth.jpg,images/tutrocket1,images/tutrocket2,null,images/tutrocket2,NA,1,practice,null,1,NA,NA,NA,sub13
d3-animate-choice,86,639995,0.0-61.0-1.8,TRUE,TRUE,TRUE,TRUE,"""event"",""trial"",""time""
""fullscreenenter"",""5"",""64258""
","
","
","""event"",""trial"",""time""
""fullscreenenter"",""5"",""64258""
","
",681.8400000047404,NA,48,NA,NA,3000,1,NA,NA,images/tutgreenplanet.jpg,images/tutalien2,images/tutalien1,images/tutrocket2,images/tutalien2,images/nothing.png,2,practice,false,2,rare,0,2020-06-09T17:53:58Z,sub13
two-step-fixation,87,641002,0.0-61.0-2.8,TRUE,TRUE,TRUE,TRUE,"""event"",""trial"",""time""
""fullscreenenter"",""5"",""64258""
","
","
","""event"",""trial"",""time""
""fullscreenenter"",""5"",""64258""
","
",NA,images/earth.jpg,NA,NA,NA,NA,NA,NA,NA,NA,NA,NA,NA,NA,NA,fixation,NA,NA,NA,NA,NA,NA,sub13
d3-animate-choice,88,643786,0.0-61.0-0.9,TRUE,TRUE,TRUE,TRUE,"""event"",""trial"",""time""
""fullscreenenter"",""5"",""64258""
","
","
","""event"",""trial"",""time""
""fullscreenenter"",""5"",""64258""
","
",780.7800000009593,NA,49,NA,NA,3000,1,NA,NA,images/earth.jpg,images/tutrocket1,images/tutrocket2,null,images/tutrocket2,NA,1,practice,null,1,NA,NA,NA,sub13
d3-animate-choice,89,646265,0.0-61.0-1.9,TRUE,TRUE,TRUE,TRUE,"""event"",""trial"",""time""
""fullscreenenter"",""5"",""64258""
","
","
","""event"",""trial"",""time""
""fullscreenenter"",""5"",""64258""
","
",473.2850000000326,NA,49,NA,NA,3000,1,NA,NA,images/tutgreenplanet.jpg,images/tutalien2,images/tutalien1,images/tutrocket2,images/tutalien1,images/t.png,2,practice,false,1,rare,1,2020-06-09T17:54:04Z,sub13
two-step-fixation,90,647270,0.0-61.0-2.9,TRUE,TRUE,TRUE,TRUE,"""event"",""trial"",""time""
""fullscreenenter"",""5"",""64258""
","
","
","""event"",""trial"",""time""
""fullscreenenter"",""5"",""64258""
","
",NA,images/earth.jpg,NA,NA,NA,NA,NA,NA,NA,NA,NA,NA,NA,NA,NA,fixation,NA,NA,NA,NA,NA,NA,sub13
d3-animate-choice,91,649658,0.0-61.0-0.10,TRUE,TRUE,TRUE,TRUE,"""event"",""trial"",""time""
""fullscreenenter"",""5"",""64258""
","
","
","""event"",""trial"",""time""
""fullscreenenter"",""5"",""64258""
","
",382.33999999647494,NA,48,NA,NA,3000,1,NA,NA,images/earth.jpg,images/tutrocket1,images/tutrocket2,null,images/tutrocket1,NA,1,practice,null,2,NA,NA,NA,sub13
d3-animate-choice,92,652920,0.0-61.0-1.10,TRUE,TRUE,TRUE,TRUE,"""event"",""trial"",""time""
""fullscreenenter"",""5"",""64258""
","
","
","""event"",""trial"",""time""
""fullscreenenter"",""5"",""64258""
","
",1258.1349999964004,NA,49,NA,NA,3000,1,NA,NA,images/tutyellowplanet.jpg,images/tutalien4,images/tutalien3,images/tutrocket1,images/tutalien3,images/nothing.png,2,practice,false,1,rare,0,2020-06-09T17:54:11Z,sub13
two-step-fixation,93,653925,0.0-61.0-2.10,TRUE,TRUE,TRUE,TRUE,"""event"",""trial"",""time""
""fullscreenenter"",""5"",""64258""
","
","
","""event"",""trial"",""time""
""fullscreenenter"",""5"",""64258""
","
",NA,images/earth.jpg,NA,NA,NA,NA,NA,NA,NA,NA,NA,NA,NA,NA,NA,fixation,NA,NA,NA,NA,NA,NA,sub13
d3-animate-choice,94,656514,0.0-61.0-0.11,TRUE,TRUE,TRUE,TRUE,"""event"",""trial"",""time""
""fullscreenenter"",""5"",""64258""
","
","
","""event"",""trial"",""time""
""fullscreenenter"",""5"",""64258""
","
",582.9999999987194,NA,49,NA,NA,3000,1,NA,NA,images/earth.jpg,images/tutrocket1,images/tutrocket2,null,images/tutrocket2,NA,1,practice,null,1,NA,NA,NA,sub13
d3-animate-choice,95,659352,0.0-61.0-1.11,TRUE,TRUE,TRUE,TRUE,"""event"",""trial"",""time""
""fullscreenenter"",""5"",""64258""
","
","
","""event"",""trial"",""time""
""fullscreenenter"",""5"",""64258""
","
",833.279999991646,NA,49,NA,NA,3000,1,NA,NA,images/tutyellowplanet.jpg,images/tutalien4,images/tutalien3,images/tutrocket2,images/tutalien3,images/t.png,2,practice,true,1,common,1,2020-06-09T17:54:17Z,sub13
two-step-fixation,96,660358,0.0-61.0-2.11,TRUE,TRUE,TRUE,TRUE,"""event"",""trial"",""time""
""fullscreenenter"",""5"",""64258""
","
","
","""event"",""trial"",""time""
""fullscreenenter"",""5"",""64258""
","
",NA,images/earth.jpg,NA,NA,NA,NA,NA,NA,NA,NA,NA,NA,NA,NA,NA,fixation,NA,NA,NA,NA,NA,NA,sub13
d3-animate-choice,97,664065,0.0-61.0-0.12,TRUE,TRUE,TRUE,TRUE,"""event"",""trial"",""time""
""fullscreenenter"",""5"",""64258""
","
","
","""event"",""trial"",""time""
""fullscreenenter"",""5"",""64258""
","
",574.4600000034552,NA,57,NA,NA,3000,1,1701.8050000042422,48,images/earth.jpg,images/tutrocket1,images/tutrocket2,null,images/tutrocket1,NA,1,practice,null,NA,NA,NA,NA,sub13
d3-animate-choice,98,666945,0.0-61.0-1.12,TRUE,TRUE,TRUE,TRUE,"""event"",""trial"",""time""
""fullscreenenter"",""5"",""64258""
","
","
","""event"",""trial"",""time""
""fullscreenenter"",""5"",""64258""
","
",874.0099999995437,NA,49,NA,NA,3000,1,NA,NA,images/tutyellowplanet.jpg,images/tutalien4,images/tutalien3,images/tutrocket1,images/tutalien3,images/nothing.png,2,practice,false,1,rare,0,2020-06-09T17:54:25Z,sub13
two-step-fixation,99,667950,0.0-61.0-2.12,TRUE,TRUE,TRUE,TRUE,"""event"",""trial"",""time""
""fullscreenenter"",""5"",""64258""
","
","
","""event"",""trial"",""time""
""fullscreenenter"",""5"",""64258""
","
",NA,images/earth.jpg,NA,NA,NA,NA,NA,NA,NA,NA,NA,NA,NA,NA,NA,fixation,NA,NA,NA,NA,NA,NA,sub13
d3-animate-choice,100,670312,0.0-61.0-0.13,TRUE,TRUE,TRUE,TRUE,"""event"",""trial"",""time""
""fullscreenenter"",""5"",""64258""
","
","
","""event"",""trial"",""time""
""fullscreenenter"",""5"",""64258""
","
",356.97500000242144,NA,48,NA,NA,3000,1,NA,NA,images/earth.jpg,images/tutrocket1,images/tutrocket2,null,images/tutrocket1,NA,1,practice,null,2,NA,NA,NA,sub13
d3-animate-choice,101,672817,0.0-61.0-1.13,TRUE,TRUE,TRUE,TRUE,"""event"",""trial"",""time""
""fullscreenenter"",""5"",""64258""
","
","
","""event"",""trial"",""time""
""fullscreenenter"",""5"",""64258""
","
",499.1050000098767,NA,48,NA,NA,3000,1,NA,NA,images/tutgreenplanet.jpg,images/tutalien2,images/tutalien1,images/tutrocket1,images/tutalien2,images/t.png,2,practice,true,2,common,1,2020-06-09T17:54:31Z,sub13
two-step-fixation,102,673822,0.0-61.0-2.13,TRUE,TRUE,TRUE,TRUE,"""event"",""trial"",""time""
""fullscreenenter"",""5"",""64258""
","
","
","""event"",""trial"",""time""
""fullscreenenter"",""5"",""64258""
","
",NA,images/earth.jpg,NA,NA,NA,NA,NA,NA,NA,NA,NA,NA,NA,NA,NA,fixation,NA,NA,NA,NA,NA,NA,sub13
d3-animate-choice,103,676232,0.0-61.0-0.14,TRUE,TRUE,TRUE,TRUE,"""event"",""trial"",""time""
""fullscreenenter"",""5"",""64258""
","
","
","""event"",""trial"",""time""
""fullscreenenter"",""5"",""64258""
","
",405.1249999902211,NA,48,NA,NA,3000,1,NA,NA,images/earth.jpg,images/tutrocket1,images/tutrocket2,null,images/tutrocket1,NA,1,practice,null,2,NA,NA,NA,sub13
d3-animate-choice,104,679121,0.0-61.0-1.14,TRUE,TRUE,TRUE,TRUE,"""event"",""trial"",""time""
""fullscreenenter"",""5"",""64258""
","
","
","""event"",""trial"",""time""
""fullscreenenter"",""5"",""64258""
","
",883.270000005723,NA,48,NA,NA,3000,1,NA,NA,images/tutyellowplanet.jpg,images/tutalien4,images/tutalien3,images/tutrocket1,images/tutalien4,images/nothing.png,2,practice,false,2,rare,0,2020-06-09T17:54:37Z,sub13
two-step-fixation,105,680127,0.0-61.0-2.14,TRUE,TRUE,TRUE,TRUE,"""event"",""trial"",""time""
""fullscreenenter"",""5"",""64258""
","
","
","""event"",""trial"",""time""
""fullscreenenter"",""5"",""64258""
","
",NA,images/earth.jpg,NA,NA,NA,NA,NA,NA,NA,NA,NA,NA,NA,NA,NA,fixation,NA,NA,NA,NA,NA,NA,sub13
d3-animate-choice,106,682592,0.0-61.0-0.15,TRUE,TRUE,TRUE,TRUE,"""event"",""trial"",""time""
""fullscreenenter"",""5"",""64258""
","
","
","""event"",""trial"",""time""
""fullscreenenter"",""5"",""64258""
","
",460.51999999326654,NA,49,NA,NA,3000,1,NA,NA,images/earth.jpg,images/tutrocket1,images/tutrocket2,null,images/tutrocket2,NA,1,practice,null,1,NA,NA,NA,sub13
d3-animate-choice,107,685121,0.0-61.0-1.15,TRUE,TRUE,TRUE,TRUE,"""event"",""trial"",""time""
""fullscreenenter"",""5"",""64258""
","
","
","""event"",""trial"",""time""
""fullscreenenter"",""5"",""64258""
","
",522.3249999980908,NA,48,NA,NA,3000,1,NA,NA,images/tutyellowplanet.jpg,images/tutalien4,images/tutalien3,images/tutrocket2,images/tutalien4,images/nothing.png,2,practice,true,2,common,0,2020-06-09T17:54:43Z,sub13
two-step-fixation,108,686126,0.0-61.0-2.15,TRUE,TRUE,TRUE,TRUE,"""event"",""trial"",""time""
""fullscreenenter"",""5"",""64258""
","
","
","""event"",""trial"",""time""
""fullscreenenter"",""5"",""64258""
","
",NA,images/earth.jpg,NA,NA,NA,NA,NA,NA,NA,NA,NA,NA,NA,NA,NA,fixation,NA,NA,NA,NA,NA,NA,sub13
d3-animate-choice,109,688408,0.0-61.0-0.16,TRUE,TRUE,TRUE,TRUE,"""event"",""trial"",""time""
""fullscreenenter"",""5"",""64258""
","
","
","""event"",""trial"",""time""
""fullscreenenter"",""5"",""64258""
","
",277.9549999977462,NA,49,NA,NA,3000,1,NA,NA,images/earth.jpg,images/tutrocket1,images/tutrocket2,null,images/tutrocket2,NA,1,practice,null,1,NA,NA,NA,sub13
d3-animate-choice,110,690896,0.0-61.0-1.16,TRUE,TRUE,TRUE,TRUE,"""event"",""trial"",""time""
""fullscreenenter"",""5"",""64258""
","
","
","""event"",""trial"",""time""
""fullscreenenter"",""5"",""64258""
","
",483.03000000305474,NA,49,NA,NA,3000,1,NA,NA,images/tutyellowplanet.jpg,images/tutalien4,images/tutalien3,images/tutrocket2,images/tutalien3,images/nothing.png,2,practice,true,1,common,0,2020-06-09T17:54:49Z,sub13
two-step-fixation,111,691902,0.0-61.0-2.16,TRUE,TRUE,TRUE,TRUE,"""event"",""trial"",""time""
""fullscreenenter"",""5"",""64258""
","
","
","""event"",""trial"",""time""
""fullscreenenter"",""5"",""64258""
","
",NA,images/earth.jpg,NA,NA,NA,NA,NA,NA,NA,NA,NA,NA,NA,NA,NA,fixation,NA,NA,NA,NA,NA,NA,sub13
d3-animate-choice,112,694016,0.0-61.0-0.17,TRUE,TRUE,TRUE,TRUE,"""event"",""trial"",""time""
""fullscreenenter"",""5"",""64258""
","
","
","""event"",""trial"",""time""
""fullscreenenter"",""5"",""64258""
","
",109.15499999828171,NA,48,NA,NA,3000,1,NA,NA,images/earth.jpg,images/tutrocket1,images/tutrocket2,null,images/tutrocket1,NA,1,practice,null,2,NA,NA,NA,sub13
d3-animate-choice,113,696208,0.0-61.0-1.17,TRUE,TRUE,TRUE,TRUE,"""event"",""trial"",""time""
""fullscreenenter"",""5"",""64258""
","
","
","""event"",""trial"",""time""
""fullscreenenter"",""5"",""64258""
","
",186.71999999787658,NA,49,NA,NA,3000,1,NA,NA,images/tutgreenplanet.jpg,images/tutalien2,images/tutalien1,images/tutrocket1,images/tutalien1,images/nothing.png,2,practice,true,1,common,0,2020-06-09T17:54:54Z,sub13
two-step-fixation,114,697213,0.0-61.0-2.17,TRUE,TRUE,TRUE,TRUE,"""event"",""trial"",""time""
""fullscreenenter"",""5"",""64258""
","
","
","""event"",""trial"",""time""
""fullscreenenter"",""5"",""64258""
","
",NA,images/earth.jpg,NA,NA,NA,NA,NA,NA,NA,NA,NA,NA,NA,NA,NA,fixation,NA,NA,NA,NA,NA,NA,sub13
d3-animate-choice,115,699344,0.0-61.0-0.18,TRUE,TRUE,TRUE,TRUE,"""event"",""trial"",""time""
""fullscreenenter"",""5"",""64258""
","
","
","""event"",""trial"",""time""
""fullscreenenter"",""5"",""64258""
","
",125.91000000247732,NA,48,NA,NA,3000,1,1021.9250000081956,48,images/earth.jpg,images/tutrocket1,images/tutrocket2,null,images/tutrocket1,NA,1,practice,null,2,NA,NA,NA,sub13
d3-animate-choice,116,701937,0.0-61.0-1.18,TRUE,TRUE,TRUE,TRUE,"""event"",""trial"",""time""
""fullscreenenter"",""5"",""64258""
","
","
","""event"",""trial"",""time""
""fullscreenenter"",""5"",""64258""
","
",586.8550000013784,NA,49,NA,NA,3000,1,NA,NA,images/tutgreenplanet.jpg,images/tutalien2,images/tutalien1,images/tutrocket1,images/tutalien1,images/t.png,2,practice,true,1,common,1,2020-06-09T17:55:00Z,sub13
two-step-fixation,117,702942,0.0-61.0-2.18,TRUE,TRUE,TRUE,TRUE,"""event"",""trial"",""time""
""fullscreenenter"",""5"",""64258""
","
","
","""event"",""trial"",""time""
""fullscreenenter"",""5"",""64258""
","
",NA,images/earth.jpg,NA,NA,NA,NA,NA,NA,NA,NA,NA,NA,NA,NA,NA,fixation,NA,NA,NA,NA,NA,NA,sub13
d3-animate-choice,118,705649,0.0-61.0-0.19,TRUE,TRUE,TRUE,TRUE,"""event"",""trial"",""time""
""fullscreenenter"",""5"",""64258""
","
","
","""event"",""trial"",""time""
""fullscreenenter"",""5"",""64258""
","
",701.0700000100769,NA,49,NA,NA,3000,1,NA,NA,images/earth.jpg,images/tutrocket1,images/tutrocket2,null,images/tutrocket2,NA,1,practice,null,1,NA,NA,NA,sub13
d3-animate-choice,119,708128,0.0-61.0-1.19,TRUE,TRUE,TRUE,TRUE,"""event"",""trial"",""time""
""fullscreenenter"",""5"",""64258""
","
","
","""event"",""trial"",""time""
""fullscreenenter"",""5"",""64258""
","
",473.81000001041684,NA,48,NA,NA,3000,1,NA,NA,images/tutyellowplanet.jpg,images/tutalien4,images/tutalien3,images/tutrocket2,images/tutalien4,images/t.png,2,practice,true,2,common,1,2020-06-09T17:55:06Z,sub13
two-step-fixation,120,709133,0.0-61.0-2.19,TRUE,TRUE,TRUE,TRUE,"""event"",""trial"",""time""
""fullscreenenter"",""5"",""64258""
","
","
","""event"",""trial"",""time""
""fullscreenenter"",""5"",""64258""
","
",NA,images/earth.jpg,NA,NA,NA,NA,NA,NA,NA,NA,NA,NA,NA,NA,NA,fixation,NA,NA,NA,NA,NA,NA,sub13
d3-instructions,121,717310,0.0-62.0,TRUE,TRUE,TRUE,TRUE,"""event"",""trial"",""time""
""fullscreenenter"",""5"",""64258""
","
","
","""event"",""trial"",""time""
""fullscreenenter"",""5"",""64258""
","
",NA,NA,NA,NA,NA,NA,NA,NA,NA,NA,NA,NA,NA,NA,NA,NA,NA,NA,NA,NA,NA,NA,sub13
audio-keyboard-response,122,722167,0.0-63.0,TRUE,TRUE,TRUE,TRUE,"""event"",""trial"",""time""
""fullscreenenter"",""5"",""64258""
","
","
","""event"",""trial"",""time""
""fullscreenenter"",""5"",""64258""
","
",4819,audio/instructions/treasure_feedback.wav,32,NA,NA,NA,NA,NA,NA,NA,NA,NA,NA,NA,NA,NA,NA,NA,NA,NA,NA,NA,sub13
d3-instructions,123,745006,0.0-64.0,TRUE,TRUE,TRUE,TRUE,"""event"",""trial"",""time""
""fullscreenenter"",""5"",""64258""
","
","
","""event"",""trial"",""time""
""fullscreenenter"",""5"",""64258""
","
",NA,NA,NA,NA,NA,NA,NA,NA,NA,NA,NA,NA,NA,NA,NA,NA,NA,NA,NA,NA,NA,NA,sub13
d3-instructions,124,759774,0.0-65.0,TRUE,TRUE,TRUE,TRUE,"""event"",""trial"",""time""
""fullscreenenter"",""5"",""64258""
","
","
","""event"",""trial"",""time""
""fullscreenenter"",""5"",""64258""
","
",NA,NA,NA,NA,NA,NA,NA,NA,NA,NA,NA,NA,NA,NA,NA,NA,NA,NA,NA,NA,NA,NA,sub13
d3-instructions,125,785366,0.0-66.0,TRUE,TRUE,TRUE,TRUE,"""event"",""trial"",""time""
""fullscreenenter"",""5"",""64258""
","
","
","""event"",""trial"",""time""
""fullscreenenter"",""5"",""64258""
","
",NA,NA,NA,NA,NA,NA,NA,NA,NA,NA,NA,NA,NA,NA,NA,NA,NA,NA,NA,NA,NA,NA,sub13
d3-instructions,126,802525,0.0-67.0,TRUE,TRUE,TRUE,TRUE,"""event"",""trial"",""time""
""fullscreenenter"",""5"",""64258""
","
","
","""event"",""trial"",""time""
""fullscreenenter"",""5"",""64258""
","
",NA,NA,NA,NA,NA,NA,NA,NA,NA,NA,NA,NA,NA,NA,NA,NA,NA,NA,NA,NA,NA,NA,sub13
d3-instructions,127,815382,0.0-68.0,TRUE,TRUE,TRUE,TRUE,"""event"",""trial"",""time""
""fullscreenenter"",""5"",""64258""
","
","
","""event"",""trial"",""time""
""fullscreenenter"",""5"",""64258""
","
",NA,NA,NA,NA,NA,NA,NA,NA,NA,NA,NA,NA,NA,NA,NA,NA,NA,NA,NA,NA,NA,NA,sub13
instructions-quiz,128,820642,0.0-69.0,TRUE,TRUE,TRUE,TRUE,"""event"",""trial"",""time""
""fullscreenenter"",""5"",""64258""
","
","
","""event"",""trial"",""time""
""fullscreenenter"",""5"",""64258""
","
",5258.0699999962235,audio/quiz/Q1_Prompt.wav,NA,0,NA,NA,NA,NA,NA,NA,NA,NA,NA,NA,NA,NA,NA,NA,NA,NA,NA,NA,sub13
audio-keyboard-response,129,830888,0.0-70.0,TRUE,TRUE,TRUE,TRUE,"""event"",""trial"",""time""
""fullscreenenter"",""5"",""64258""
","
","
","""event"",""trial"",""time""
""fullscreenenter"",""5"",""64258""
","
",null,audio/quiz/Q1_Incorrect.wav,null,NA,NA,NA,NA,NA,NA,NA,NA,NA,NA,NA,NA,NA,NA,NA,NA,NA,NA,NA,sub13
instructions-quiz,130,835986,0.0-71.0,TRUE,TRUE,TRUE,TRUE,"""event"",""trial"",""time""
""fullscreenenter"",""5"",""64258""
","
","
","""event"",""trial"",""time""
""fullscreenenter"",""5"",""64258""
","
",5096.2149999977555,audio/quiz/Q2_Prompt.wav,NA,0,NA,NA,NA,NA,NA,NA,NA,NA,NA,NA,NA,NA,NA,NA,NA,NA,NA,NA,sub13
audio-keyboard-response,131,848849,0.0-72.0,TRUE,TRUE,TRUE,TRUE,"""event"",""trial"",""time""
""fullscreenenter"",""5"",""64258""
","
","
","""event"",""trial"",""time""
""fullscreenenter"",""5"",""64258""
","
",null,audio/quiz/Q2_Correct.wav,null,NA,NA,NA,NA,NA,NA,NA,NA,NA,NA,NA,NA,NA,NA,NA,NA,NA,NA,NA,sub13
instructions-quiz,132,853689,0.0-73.0,TRUE,TRUE,TRUE,TRUE,"""event"",""trial"",""time""
""fullscreenenter"",""5"",""64258""
","
","
","""event"",""trial"",""time""
""fullscreenenter"",""5"",""64258""
","
",4838.950000004843,audio/quiz/Q3_Prompt.wav,NA,1,NA,NA,NA,NA,NA,NA,NA,NA,NA,NA,NA,NA,NA,NA,NA,NA,NA,NA,sub13
audio-keyboard-response,133,859478,0.0-74.0,TRUE,TRUE,TRUE,TRUE,"""event"",""trial"",""time""
""fullscreenenter"",""5"",""64258""
","
","
","""event"",""trial"",""time""
""fullscreenenter"",""5"",""64258""
","
",null,audio/quiz/Q3_Correct.wav,null,NA,NA,NA,NA,NA,NA,NA,NA,NA,NA,NA,NA,NA,NA,NA,NA,NA,NA,NA,sub13
d3-instructions,134,876261,0.0-75.0,TRUE,TRUE,TRUE,TRUE,"""event"",""trial"",""time""
""fullscreenenter"",""5"",""64258""
","
","
","""event"",""trial"",""time""
""fullscreenenter"",""5"",""64258""
","
",NA,NA,NA,NA,NA,NA,NA,NA,NA,NA,NA,NA,NA,NA,NA,NA,NA,NA,NA,NA,NA,NA,sub13
d3-animate-choice,135,880142,0.0-76.0-0.0,TRUE,TRUE,TRUE,TRUE,"""event"",""trial"",""time""
""fullscreenenter"",""5"",""64258""
","
","
","""event"",""trial"",""time""
""fullscreenenter"",""5"",""64258""
","
",1875.5050000036135,NA,48,NA,NA,3000,1,NA,NA,images/earth.jpg,images/rocket2,images/rocket1,null,images/rocket2,NA,1,real,null,2,NA,NA,NA,sub13
d3-animate-choice,136,882807,0.0-76.0-1.0,TRUE,TRUE,TRUE,TRUE,"""event"",""trial"",""time""
""fullscreenenter"",""5"",""64258""
","
","
","""event"",""trial"",""time""
""fullscreenenter"",""5"",""64258""
","
",658.8950000004843,NA,49,NA,NA,3000,1,NA,NA,images/redplanet1.jpg,images/alien2,images/alien1,images/rocket2,images/alien1,images/nothing.png,2,real,false,1,rare,0,2020-06-09T17:58:01Z,sub13
two-step-fixation,137,883812,0.0-76.0-2.0,TRUE,TRUE,TRUE,TRUE,"""event"",""trial"",""time""
""fullscreenenter"",""5"",""64258""
","
","
","""event"",""trial"",""time""
""fullscreenenter"",""5"",""64258""
","
",NA,images/earth.jpg,NA,NA,NA,NA,NA,NA,NA,NA,NA,NA,NA,NA,NA,fixation,NA,NA,NA,NA,NA,NA,sub13
d3-animate-choice,138,886198,0.0-76.0-0.1,TRUE,TRUE,TRUE,TRUE,"""event"",""trial"",""time""
""fullscreenenter"",""5"",""64258""
","
","
","""event"",""trial"",""time""
""fullscreenenter"",""5"",""64258""
","
",380.6250000052387,NA,48,NA,NA,3000,1,NA,NA,images/earth.jpg,images/rocket2,images/rocket1,null,images/rocket2,NA,1,real,null,2,NA,NA,NA,sub13
d3-animate-choice,139,888695,0.0-76.0-1.1,TRUE,TRUE,TRUE,TRUE,"""event"",""trial"",""time""
""fullscreenenter"",""5"",""64258""
","
","
","""event"",""trial"",""time""
""fullscreenenter"",""5"",""64258""
","
",491.6149999917252,NA,48,NA,NA,3000,1,NA,NA,images/redplanet1.jpg,images/alien2,images/alien1,images/rocket2,images/alien2,images/t.png,2,real,false,2,rare,1,2020-06-09T17:58:06Z,sub13
two-step-fixation,140,889700,0.0-76.0-2.1,TRUE,TRUE,TRUE,TRUE,"""event"",""trial"",""time""
""fullscreenenter"",""5"",""64258""
","
","
","""event"",""trial"",""time""
""fullscreenenter"",""5"",""64258""
","
",NA,images/earth.jpg,NA,NA,NA,NA,NA,NA,NA,NA,NA,NA,NA,NA,NA,fixation,NA,NA,NA,NA,NA,NA,sub13
d3-animate-choice,141,892318,0.0-76.0-0.2,TRUE,TRUE,TRUE,TRUE,"""event"",""trial"",""time""
""fullscreenenter"",""5"",""64258""
","
","
","""event"",""trial"",""time""
""fullscreenenter"",""5"",""64258""
","
",611.6100000072038,NA,49,NA,NA,3000,1,NA,NA,images/earth.jpg,images/rocket2,images/rocket1,null,images/rocket1,NA,1,real,null,1,NA,NA,NA,sub13
d3-animate-choice,142,894815,0.0-76.0-1.2,TRUE,TRUE,TRUE,TRUE,"""event"",""trial"",""time""
""fullscreenenter"",""5"",""64258""
","
","
","""event"",""trial"",""time""
""fullscreenenter"",""5"",""64258""
","
",489.69999999098945,NA,49,NA,NA,3000,1,NA,NA,images/redplanet1.jpg,images/alien2,images/alien1,images/rocket1,images/alien1,images/t.png,2,real,true,1,common,1,2020-06-09T17:58:13Z,sub13
two-step-fixation,143,895821,0.0-76.0-2.2,TRUE,TRUE,TRUE,TRUE,"""event"",""trial"",""time""
""fullscreenenter"",""5"",""64258""
","
","
","""event"",""trial"",""time""
""fullscreenenter"",""5"",""64258""
","
",NA,images/earth.jpg,NA,NA,NA,NA,NA,NA,NA,NA,NA,NA,NA,NA,NA,fixation,NA,NA,NA,NA,NA,NA,sub13
d3-animate-choice,144,897869,0.0-76.0-0.3,TRUE,TRUE,TRUE,TRUE,"""event"",""trial"",""time""
""fullscreenenter"",""5"",""64258""
","
","
","""event"",""trial"",""time""
""fullscreenenter"",""5"",""64258""
","
",44.05500000575557,NA,48,NA,NA,3000,1,NA,NA,images/earth.jpg,images/rocket2,images/rocket1,null,images/rocket2,NA,1,real,null,2,NA,NA,NA,sub13
d3-animate-choice,145,900288,0.0-76.0-1.3,TRUE,TRUE,TRUE,TRUE,"""event"",""trial"",""time""
""fullscreenenter"",""5"",""64258""
","
","
","""event"",""trial"",""time""
""fullscreenenter"",""5"",""64258""
","
",412.25500000291504,NA,48,NA,NA,3000,1,NA,NA,images/purpleplanet.jpg,images/alien4,images/alien3,images/rocket2,images/alien4,images/nothing.png,2,real,true,2,common,0,2020-06-09T17:58:18Z,sub13
two-step-fixation,146,901292,0.0-76.0-2.3,TRUE,TRUE,TRUE,TRUE,"""event"",""trial"",""time""
""fullscreenenter"",""5"",""64258""
","
","
","""event"",""trial"",""time""
""fullscreenenter"",""5"",""64258""
","
",NA,images/earth.jpg,NA,NA,NA,NA,NA,NA,NA,NA,NA,NA,NA,NA,NA,fixation,NA,NA,NA,NA,NA,NA,sub13
d3-animate-choice,147,903686,0.0-76.0-0.4,TRUE,TRUE,TRUE,TRUE,"""event"",""trial"",""time""
""fullscreenenter"",""5"",""64258""
","
","
","""event"",""trial"",""time""
""fullscreenenter"",""5"",""64258""
","
",388.57500000449363,NA,48,NA,NA,3000,1,NA,NA,images/earth.jpg,images/rocket2,images/rocket1,null,images/rocket2,NA,1,real,null,2,NA,NA,NA,sub13
d3-animate-choice,148,906864,0.0-76.0-1.4,TRUE,TRUE,TRUE,TRUE,"""event"",""trial"",""time""
""fullscreenenter"",""5"",""64258""
","
","
","""event"",""trial"",""time""
""fullscreenenter"",""5"",""64258""
","
",1171.2200000038138,NA,57,NA,NA,3000,1,1172.1850000030827,48,images/redplanet1.jpg,images/alien2,images/alien1,images/rocket2,images/alien2,images/nothing.png,2,real,false,NA,rare,0,2020-06-09T17:58:25Z,sub13
two-step-fixation,149,907869,0.0-76.0-2.4,TRUE,TRUE,TRUE,TRUE,"""event"",""trial"",""time""
""fullscreenenter"",""5"",""64258""
","
","
","""event"",""trial"",""time""
""fullscreenenter"",""5"",""64258""
","
",NA,images/earth.jpg,NA,NA,NA,NA,NA,NA,NA,NA,NA,NA,NA,NA,NA,fixation,NA,NA,NA,NA,NA,NA,sub13
d3-animate-choice,150,910391,0.0-76.0-0.5,TRUE,TRUE,TRUE,TRUE,"""event"",""trial"",""time""
""fullscreenenter"",""5"",""64258""
","
","
","""event"",""trial"",""time""
""fullscreenenter"",""5"",""64258""
","
",516.9150000001537,NA,49,NA,NA,3000,1,NA,NA,images/earth.jpg,images/rocket2,images/rocket1,null,images/rocket1,NA,1,real,null,1,NA,NA,NA,sub13
d3-animate-choice,151,913006,0.0-76.0-1.5,TRUE,TRUE,TRUE,TRUE,"""event"",""trial"",""time""
""fullscreenenter"",""5"",""64258""
","
","
","""event"",""trial"",""time""
""fullscreenenter"",""5"",""64258""
","
",609.4849999935832,NA,48,NA,NA,3000,1,NA,NA,images/redplanet1.jpg,images/alien2,images/alien1,images/rocket1,images/alien2,images/t.png,2,real,true,2,common,1,2020-06-09T17:58:31Z,sub13
two-step-fixation,152,914011,0.0-76.0-2.5,TRUE,TRUE,TRUE,TRUE,"""event"",""trial"",""time""
""fullscreenenter"",""5"",""64258""
","
","
","""event"",""trial"",""time""
""fullscreenenter"",""5"",""64258""
","
",NA,images/earth.jpg,NA,NA,NA,NA,NA,NA,NA,NA,NA,NA,NA,NA,NA,fixation,NA,NA,NA,NA,NA,NA,sub13
d3-animate-choice,153,916527,0.0-76.0-0.6,TRUE,TRUE,TRUE,TRUE,"""event"",""trial"",""time""
""fullscreenenter"",""5"",""64258""
","
","
","""event"",""trial"",""time""
""fullscreenenter"",""5"",""64258""
","
",511.0899999999674,NA,48,NA,NA,3000,1,NA,NA,images/earth.jpg,images/rocket2,images/rocket1,null,images/rocket2,NA,1,real,null,2,NA,NA,NA,sub13
d3-animate-choice,154,919718,0.0-76.0-1.6,TRUE,TRUE,TRUE,TRUE,"""event"",""trial"",""time""
""fullscreenenter"",""5"",""64258""
","
","
","""event"",""trial"",""time""
""fullscreenenter"",""5"",""64258""
","
",1185.2950000029523,NA,49,NA,NA,3000,1,NA,NA,images/purpleplanet.jpg,images/alien4,images/alien3,images/rocket2,images/alien3,images/t.png,2,real,true,1,common,1,2020-06-09T17:58:37Z,sub13
two-step-fixation,155,920723,0.0-76.0-2.6,TRUE,TRUE,TRUE,TRUE,"""event"",""trial"",""time""
""fullscreenenter"",""5"",""64258""
","
","
","""event"",""trial"",""time""
""fullscreenenter"",""5"",""64258""
","
",NA,images/earth.jpg,NA,NA,NA,NA,NA,NA,NA,NA,NA,NA,NA,NA,NA,fixation,NA,NA,NA,NA,NA,NA,sub13
d3-animate-choice,156,923559,0.0-76.0-0.7,TRUE,TRUE,TRUE,TRUE,"""event"",""trial"",""time""
""fullscreenenter"",""5"",""64258""
","
","
","""event"",""trial"",""time""
""fullscreenenter"",""5"",""64258""
","
",829.4000000023516,NA,48,NA,NA,3000,1,NA,NA,images/earth.jpg,images/rocket2,images/rocket1,null,images/rocket2,NA,1,real,null,2,NA,NA,NA,sub13
d3-animate-choice,157,926831,0.0-76.0-1.7,TRUE,TRUE,TRUE,TRUE,"""event"",""trial"",""time""
""fullscreenenter"",""5"",""64258""
","
","
","""event"",""trial"",""time""
""fullscreenenter"",""5"",""64258""
","
",1266.7149999906542,NA,49,NA,NA,3000,1,1268.7599999917438,50,images/purpleplanet.jpg,images/alien4,images/alien3,images/rocket2,images/alien3,images/nothing.png,2,real,true,1,common,0,2020-06-09T17:58:45Z,sub13
two-step-fixation,158,927837,0.0-76.0-2.7,TRUE,TRUE,TRUE,TRUE,"""event"",""trial"",""time""
""fullscreenenter"",""5"",""64258""
","
","
","""event"",""trial"",""time""
""fullscreenenter"",""5"",""64258""
","
",NA,images/earth.jpg,NA,NA,NA,NA,NA,NA,NA,NA,NA,NA,NA,NA,NA,fixation,NA,NA,NA,NA,NA,NA,sub13
d3-animate-choice,159,930334,0.0-76.0-0.8,TRUE,TRUE,TRUE,TRUE,"""event"",""trial"",""time""
""fullscreenenter"",""5"",""64258""
","
","
","""event"",""trial"",""time""
""fullscreenenter"",""5"",""64258""
","
",492.23000000347383,NA,48,NA,NA,3000,1,NA,NA,images/earth.jpg,images/rocket2,images/rocket1,null,images/rocket2,NA,1,real,null,2,NA,NA,NA,sub13
d3-animate-choice,160,933240,0.0-76.0-1.8,TRUE,TRUE,TRUE,TRUE,"""event"",""trial"",""time""
""fullscreenenter"",""5"",""64258""
","
","
","""event"",""trial"",""time""
""fullscreenenter"",""5"",""64258""
","
",898.205000004964,NA,49,NA,NA,3000,1,NA,NA,images/purpleplanet.jpg,images/alien4,images/alien3,images/rocket2,images/alien3,images/t.png,2,real,true,1,common,1,2020-06-09T17:58:51Z,sub13
two-step-fixation,161,934244,0.0-76.0-2.8,TRUE,TRUE,TRUE,TRUE,"""event"",""trial"",""time""
""fullscreenenter"",""5"",""64258""
","
","
","""event"",""trial"",""time""
""fullscreenenter"",""5"",""64258""
","
",NA,images/earth.jpg,NA,NA,NA,NA,NA,NA,NA,NA,NA,NA,NA,NA,NA,fixation,NA,NA,NA,NA,NA,NA,sub13
d3-animate-choice,162,936663,0.0-76.0-0.9,TRUE,TRUE,TRUE,TRUE,"""event"",""trial"",""time""
""fullscreenenter"",""5"",""64258""
","
","
","""event"",""trial"",""time""
""fullscreenenter"",""5"",""64258""
","
",412.49999999126885,NA,48,NA,NA,3000,1,NA,NA,images/earth.jpg,images/rocket2,images/rocket1,null,images/rocket2,NA,1,real,null,2,NA,NA,NA,sub13
d3-animate-choice,163,939350,0.0-76.0-1.9,TRUE,TRUE,TRUE,TRUE,"""event"",""trial"",""time""
""fullscreenenter"",""5"",""64258""
","
","
","""event"",""trial"",""time""
""fullscreenenter"",""5"",""64258""
","
",681.0899999982212,NA,48,NA,NA,3000,1,NA,NA,images/purpleplanet.jpg,images/alien4,images/alien3,images/rocket2,images/alien4,images/t.png,2,real,true,2,common,1,2020-06-09T17:58:57Z,sub13
two-step-fixation,164,940355,0.0-76.0-2.9,TRUE,TRUE,TRUE,TRUE,"""event"",""trial"",""time""
""fullscreenenter"",""5"",""64258""
","
","
","""event"",""trial"",""time""
""fullscreenenter"",""5"",""64258""
","
",NA,images/earth.jpg,NA,NA,NA,NA,NA,NA,NA,NA,NA,NA,NA,NA,NA,fixation,NA,NA,NA,NA,NA,NA,sub13
d3-animate-choice,165,943086,0.0-76.0-0.10,TRUE,TRUE,TRUE,TRUE,"""event"",""trial"",""time""
""fullscreenenter"",""5"",""64258""
","
","
","""event"",""trial"",""time""
""fullscreenenter"",""5"",""64258""
","
",725.8500000025379,NA,49,NA,NA,3000,1,NA,NA,images/earth.jpg,images/rocket2,images/rocket1,null,images/rocket1,NA,1,real,null,1,NA,NA,NA,sub13
d3-animate-choice,166,945855,0.0-76.0-1.10,TRUE,TRUE,TRUE,TRUE,"""event"",""trial"",""time""
""fullscreenenter"",""5"",""64258""
","
","
","""event"",""trial"",""time""
""fullscreenenter"",""5"",""64258""
","
",763.135000001057,NA,49,NA,NA,3000,1,NA,NA,images/redplanet1.jpg,images/alien2,images/alien1,images/rocket1,images/alien1,images/nothing.png,2,real,true,1,common,0,2020-06-09T17:59:04Z,sub13
two-step-fixation,167,946861,0.0-76.0-2.10,TRUE,TRUE,TRUE,TRUE,"""event"",""trial"",""time""
""fullscreenenter"",""5"",""64258""
","
","
","""event"",""trial"",""time""
""fullscreenenter"",""5"",""64258""
","
",NA,images/earth.jpg,NA,NA,NA,NA,NA,NA,NA,NA,NA,NA,NA,NA,NA,fixation,NA,NA,NA,NA,NA,NA,sub13
d3-animate-choice,168,948887,0.0-76.0-0.11,TRUE,TRUE,TRUE,TRUE,"""event"",""trial"",""time""
""fullscreenenter"",""5"",""64258""
","
","
","""event"",""trial"",""time""
""fullscreenenter"",""5"",""64258""
","
",19.229999990784563,NA,49,NA,NA,3000,1,NA,NA,images/earth.jpg,images/rocket2,images/rocket1,null,images/rocket1,NA,1,real,null,1,NA,NA,NA,sub13
d3-animate-choice,169,952230,0.0-76.0-1.11,TRUE,TRUE,TRUE,TRUE,"""event"",""trial"",""time""
""fullscreenenter"",""5"",""64258""
","
","
","""event"",""trial"",""time""
""fullscreenenter"",""5"",""64258""
","
",1337.2499999968568,NA,48,NA,NA,3000,1,NA,NA,images/purpleplanet.jpg,images/alien4,images/alien3,images/rocket1,images/alien4,images/t.png,2,real,false,2,rare,1,2020-06-09T17:59:10Z,sub13
two-step-fixation,170,953235,0.0-76.0-2.11,TRUE,TRUE,TRUE,TRUE,"""event"",""trial"",""time""
""fullscreenenter"",""5"",""64258""
","
","
","""event"",""trial"",""time""
""fullscreenenter"",""5"",""64258""
","
",NA,images/earth.jpg,NA,NA,NA,NA,NA,NA,NA,NA,NA,NA,NA,NA,NA,fixation,NA,NA,NA,NA,NA,NA,sub13
d3-animate-choice,171,955734,0.0-76.0-0.12,TRUE,TRUE,TRUE,TRUE,"""event"",""trial"",""time""
""fullscreenenter"",""5"",""64258""
","
","
","""event"",""trial"",""time""
""fullscreenenter"",""5"",""64258""
","
",494.2949999967823,NA,49,NA,NA,3000,1,NA,NA,images/earth.jpg,images/rocket2,images/rocket1,null,images/rocket1,NA,1,real,null,1,NA,NA,NA,sub13
d3-animate-choice,172,958655,0.0-76.0-1.12,TRUE,TRUE,TRUE,TRUE,"""event"",""trial"",""time""
""fullscreenenter"",""5"",""64258""
","
","
","""event"",""trial"",""time""
""fullscreenenter"",""5"",""64258""
","
",915.4399999970337,NA,49,NA,NA,3000,1,NA,NA,images/purpleplanet.jpg,images/alien4,images/alien3,images/rocket1,images/alien3,images/nothing.png,2,real,false,1,rare,0,2020-06-09T17:59:16Z,sub13
two-step-fixation,173,959661,0.0-76.0-2.12,TRUE,TRUE,TRUE,TRUE,"""event"",""trial"",""time""
""fullscreenenter"",""5"",""64258""
","
","
","""event"",""trial"",""time""
""fullscreenenter"",""5"",""64258""
","
",NA,images/earth.jpg,NA,NA,NA,NA,NA,NA,NA,NA,NA,NA,NA,NA,NA,fixation,NA,NA,NA,NA,NA,NA,sub13
d3-animate-choice,174,962072,0.0-76.0-0.13,TRUE,TRUE,TRUE,TRUE,"""event"",""trial"",""time""
""fullscreenenter"",""5"",""64258""
","
","
","""event"",""trial"",""time""
""fullscreenenter"",""5"",""64258""
","
",405.2850000007311,NA,49,NA,NA,3000,1,NA,NA,images/earth.jpg,images/rocket2,images/rocket1,null,images/rocket1,NA,1,real,null,1,NA,NA,NA,sub13
d3-animate-choice,175,965574,0.0-76.0-1.13,TRUE,TRUE,TRUE,TRUE,"""event"",""trial"",""time""
""fullscreenenter"",""5"",""64258""
","
","
","""event"",""trial"",""time""
""fullscreenenter"",""5"",""64258""
","
",1495.7900000008522,NA,48,NA,NA,3000,1,NA,NA,images/purpleplanet.jpg,images/alien4,images/alien3,images/rocket1,images/alien4,images/t.png,2,real,false,2,rare,1,2020-06-09T17:59:23Z,sub13
two-step-fixation,176,966578,0.0-76.0-2.13,TRUE,TRUE,TRUE,TRUE,"""event"",""trial"",""time""
""fullscreenenter"",""5"",""64258""
","
","
","""event"",""trial"",""time""
""fullscreenenter"",""5"",""64258""
","
",NA,images/earth.jpg,NA,NA,NA,NA,NA,NA,NA,NA,NA,NA,NA,NA,NA,fixation,NA,NA,NA,NA,NA,NA,sub13
d3-animate-choice,177,969320,0.0-76.0-0.14,TRUE,TRUE,TRUE,TRUE,"""event"",""trial"",""time""
""fullscreenenter"",""5"",""64258""
","
","
","""event"",""trial"",""time""
""fullscreenenter"",""5"",""64258""
","
",735.6399999989662,NA,49,NA,NA,3000,1,NA,NA,images/earth.jpg,images/rocket2,images/rocket1,null,images/rocket1,NA,1,real,null,1,NA,NA,NA,sub13
d3-animate-choice,178,972950,0.0-76.0-1.14,TRUE,TRUE,TRUE,TRUE,"""event"",""trial"",""time""
""fullscreenenter"",""5"",""64258""
","
","
","""event"",""trial"",""time""
""fullscreenenter"",""5"",""64258""
","
",1625.1199999969685,NA,48,NA,NA,3000,1,NA,NA,images/redplanet1.jpg,images/alien2,images/alien1,images/rocket1,images/alien2,images/nothing.png,2,real,true,2,common,0,2020-06-09T17:59:31Z,sub13
two-step-fixation,179,973955,0.0-76.0-2.14,TRUE,TRUE,TRUE,TRUE,"""event"",""trial"",""time""
""fullscreenenter"",""5"",""64258""
","
","
","""event"",""trial"",""time""
""fullscreenenter"",""5"",""64258""
","
",NA,images/earth.jpg,NA,NA,NA,NA,NA,NA,NA,NA,NA,NA,NA,NA,NA,fixation,NA,NA,NA,NA,NA,NA,sub13
d3-animate-choice,180,976469,0.0-76.0-0.15,TRUE,TRUE,TRUE,TRUE,"""event"",""trial"",""time""
""fullscreenenter"",""5"",""64258""
","
","
","""event"",""trial"",""time""
""fullscreenenter"",""5"",""64258""
","
",510.1100000028964,NA,49,NA,NA,3000,1,NA,NA,images/earth.jpg,images/rocket2,images/rocket1,null,images/rocket1,NA,1,real,null,1,NA,NA,NA,sub13
d3-animate-choice,181,979479,0.0-76.0-1.15,TRUE,TRUE,TRUE,TRUE,"""event"",""trial"",""time""
""fullscreenenter"",""5"",""64258""
","
","
","""event"",""trial"",""time""
""fullscreenenter"",""5"",""64258""
","
",1003.0550000083167,NA,48,NA,NA,3000,1,NA,NA,images/redplanet1.jpg,images/alien2,images/alien1,images/rocket1,images/alien2,images/nothing.png,2,real,true,2,common,0,2020-06-09T17:59:37Z,sub13
two-step-fixation,182,980484,0.0-76.0-2.15,TRUE,TRUE,TRUE,TRUE,"""event"",""trial"",""time""
""fullscreenenter"",""5"",""64258""
","
","
","""event"",""trial"",""time""
""fullscreenenter"",""5"",""64258""
","
",NA,images/earth.jpg,NA,NA,NA,NA,NA,NA,NA,NA,NA,NA,NA,NA,NA,fixation,NA,NA,NA,NA,NA,NA,sub13
d3-animate-choice,183,982623,0.0-76.0-0.16,TRUE,TRUE,TRUE,TRUE,"""event"",""trial"",""time""
""fullscreenenter"",""5"",""64258""
","
","
","""event"",""trial"",""time""
""fullscreenenter"",""5"",""64258""
","
",131.4799999963725,NA,48,NA,NA,3000,1,NA,NA,images/earth.jpg,images/rocket2,images/rocket1,null,images/rocket2,NA,1,real,null,2,NA,NA,NA,sub13
d3-animate-choice,184,985246,0.0-76.0-1.16,TRUE,TRUE,TRUE,TRUE,"""event"",""trial"",""time""
""fullscreenenter"",""5"",""64258""
","
","
","""event"",""trial"",""time""
""fullscreenenter"",""5"",""64258""
","
",618.1800000049407,NA,49,NA,NA,3000,1,NA,NA,images/purpleplanet.jpg,images/alien4,images/alien3,images/rocket2,images/alien3,images/nothing.png,2,real,true,1,common,0,2020-06-09T17:59:43Z,sub13
two-step-fixation,185,986251,0.0-76.0-2.16,TRUE,TRUE,TRUE,TRUE,"""event"",""trial"",""time""
""fullscreenenter"",""5"",""64258""
","
","
","""event"",""trial"",""time""
""fullscreenenter"",""5"",""64258""
","
",NA,images/earth.jpg,NA,NA,NA,NA,NA,NA,NA,NA,NA,NA,NA,NA,NA,fixation,NA,NA,NA,NA,NA,NA,sub13
d3-animate-choice,186,988758,0.0-76.0-0.17,TRUE,TRUE,TRUE,TRUE,"""event"",""trial"",""time""
""fullscreenenter"",""5"",""64258""
","
","
","""event"",""trial"",""time""
""fullscreenenter"",""5"",""64258""
","
",502.7599999884842,NA,48,NA,NA,3000,1,NA,NA,images/earth.jpg,images/rocket2,images/rocket1,null,images/rocket2,NA,1,real,null,2,NA,NA,NA,sub13
d3-animate-choice,187,992344,0.0-76.0-1.17,TRUE,TRUE,TRUE,TRUE,"""event"",""trial"",""time""
""fullscreenenter"",""5"",""64258""
","
","
","""event"",""trial"",""time""
""fullscreenenter"",""5"",""64258""
","
",1578.5999999934575,NA,48,NA,NA,3000,1,NA,NA,images/redplanet1.jpg,images/alien2,images/alien1,images/rocket2,images/alien2,images/t.png,2,real,false,2,rare,1,2020-06-09T17:59:50Z,sub13
two-step-fixation,188,993350,0.0-76.0-2.17,TRUE,TRUE,TRUE,TRUE,"""event"",""trial"",""time""
""fullscreenenter"",""5"",""64258""
","
","
","""event"",""trial"",""time""
""fullscreenenter"",""5"",""64258""
","
",NA,images/earth.jpg,NA,NA,NA,NA,NA,NA,NA,NA,NA,NA,NA,NA,NA,fixation,NA,NA,NA,NA,NA,NA,sub13
d3-animate-choice,189,996968,0.0-76.0-0.18,TRUE,TRUE,TRUE,TRUE,"""event"",""trial"",""time""
""fullscreenenter"",""5"",""64258""
","
","
","""event"",""trial"",""time""
""fullscreenenter"",""5"",""64258""
","
",1612.4549999949522,NA,48,NA,NA,3000,1,NA,NA,images/earth.jpg,images/rocket2,images/rocket1,null,images/rocket2,NA,1,real,null,2,NA,NA,NA,sub13
d3-animate-choice,190,999976,0.0-76.0-1.18,TRUE,TRUE,TRUE,TRUE,"""event"",""trial"",""time""
""fullscreenenter"",""5"",""64258""
","
","
","""event"",""trial"",""time""
""fullscreenenter"",""5"",""64258""
","
",1002.7049999916926,NA,48,NA,NA,3000,1,NA,NA,images/purpleplanet.jpg,images/alien4,images/alien3,images/rocket2,images/alien4,images/t.png,2,real,true,2,common,1,2020-06-09T17:59:58Z,sub13
two-step-fixation,191,1000982,0.0-76.0-2.18,TRUE,TRUE,TRUE,TRUE,"""event"",""trial"",""time""
""fullscreenenter"",""5"",""64258""
","
","
","""event"",""trial"",""time""
""fullscreenenter"",""5"",""64258""
","
",NA,images/earth.jpg,NA,NA,NA,NA,NA,NA,NA,NA,NA,NA,NA,NA,NA,fixation,NA,NA,NA,NA,NA,NA,sub13
d3-animate-choice,192,1003495,0.0-76.0-0.19,TRUE,TRUE,TRUE,TRUE,"""event"",""trial"",""time""
""fullscreenenter"",""5"",""64258""
","
","
","""event"",""trial"",""time""
""fullscreenenter"",""5"",""64258""
","
",507.30000001203734,NA,48,NA,NA,3000,1,NA,NA,images/earth.jpg,images/rocket2,images/rocket1,null,images/rocket2,NA,1,real,null,2,NA,NA,NA,sub13
d3-animate-choice,193,1005985,0.0-76.0-1.19,TRUE,TRUE,TRUE,TRUE,"""event"",""trial"",""time""
""fullscreenenter"",""5"",""64258""
","
","
","""event"",""trial"",""time""
""fullscreenenter"",""5"",""64258""
","
",482.5649999984307,NA,49,NA,NA,3000,1,NA,NA,images/purpleplanet.jpg,images/alien4,images/alien3,images/rocket2,images/alien3,images/t.png,2,real,true,1,common,1,2020-06-09T18:00:04Z,sub13
two-step-fixation,194,1006990,0.0-76.0-2.19,TRUE,TRUE,TRUE,TRUE,"""event"",""trial"",""time""
""fullscreenenter"",""5"",""64258""
","
","
","""event"",""trial"",""time""
""fullscreenenter"",""5"",""64258""
","
",NA,images/earth.jpg,NA,NA,NA,NA,NA,NA,NA,NA,NA,NA,NA,NA,NA,fixation,NA,NA,NA,NA,NA,NA,sub13
d3-animate-choice,195,1009638,0.0-76.0-0.20,TRUE,TRUE,TRUE,TRUE,"""event"",""trial"",""time""
""fullscreenenter"",""5"",""64258""
","
","
","""event"",""trial"",""time""
""fullscreenenter"",""5"",""64258""
","
",642.9999999963911,NA,48,NA,NA,3000,1,NA,NA,images/earth.jpg,images/rocket2,images/rocket1,null,images/rocket2,NA,1,real,null,2,NA,NA,NA,sub13
d3-animate-choice,196,1012645,0.0-76.0-1.20,TRUE,TRUE,TRUE,TRUE,"""event"",""trial"",""time""
""fullscreenenter"",""5"",""64258""
","
","
","""event"",""trial"",""time""
""fullscreenenter"",""5"",""64258""
","
",1002.1799999958603,NA,48,NA,NA,3000,1,NA,NA,images/purpleplanet.jpg,images/alien4,images/alien3,images/rocket2,images/alien4,images/t.png,2,real,true,2,common,1,2020-06-09T18:00:10Z,sub13
two-step-fixation,197,1013650,0.0-76.0-2.20,TRUE,TRUE,TRUE,TRUE,"""event"",""trial"",""time""
""fullscreenenter"",""5"",""64258""
","
","
","""event"",""trial"",""time""
""fullscreenenter"",""5"",""64258""
","
",NA,images/earth.jpg,NA,NA,NA,NA,NA,NA,NA,NA,NA,NA,NA,NA,NA,fixation,NA,NA,NA,NA,NA,NA,sub13
d3-animate-choice,198,1016199,0.0-76.0-0.21,TRUE,TRUE,TRUE,TRUE,"""event"",""trial"",""time""
""fullscreenenter"",""5"",""64258""
","
","
","""event"",""trial"",""time""
""fullscreenenter"",""5"",""64258""
","
",542.0799999992596,NA,48,NA,NA,3000,1,NA,NA,images/earth.jpg,images/rocket2,images/rocket1,null,images/rocket2,NA,1,real,null,2,NA,NA,NA,sub13
d3-animate-choice,199,1019070,0.0-76.0-1.21,TRUE,TRUE,TRUE,TRUE,"""event"",""trial"",""time""
""fullscreenenter"",""5"",""64258""
","
","
","""event"",""trial"",""time""
""fullscreenenter"",""5"",""64258""
","
",866.5199999959441,NA,49,NA,NA,3000,1,NA,NA,images/purpleplanet.jpg,images/alien4,images/alien3,images/rocket2,images/alien3,images/nothing.png,2,real,true,1,common,0,2020-06-09T18:00:17Z,sub13
two-step-fixation,200,1020074,0.0-76.0-2.21,TRUE,TRUE,TRUE,TRUE,"""event"",""trial"",""time""
""fullscreenenter"",""5"",""64258""
","
","
","""event"",""trial"",""time""
""fullscreenenter"",""5"",""64258""
","
",NA,images/earth.jpg,NA,NA,NA,NA,NA,NA,NA,NA,NA,NA,NA,NA,NA,fixation,NA,NA,NA,NA,NA,NA,sub13
d3-animate-choice,201,1022599,0.0-76.0-0.22,TRUE,TRUE,TRUE,TRUE,"""event"",""trial"",""time""
""fullscreenenter"",""5"",""64258""
","
","
","""event"",""trial"",""time""
""fullscreenenter"",""5"",""64258""
","
",518.1750000047032,NA,49,NA,NA,3000,1,NA,NA,images/earth.jpg,images/rocket2,images/rocket1,null,images/rocket1,NA,1,real,null,1,NA,NA,NA,sub13
d3-animate-choice,202,1025718,0.0-76.0-1.22,TRUE,TRUE,TRUE,TRUE,"""event"",""trial"",""time""
""fullscreenenter"",""5"",""64258""
","
","
","""event"",""trial"",""time""
""fullscreenenter"",""5"",""64258""
","
",1112.8150000004098,NA,48,NA,NA,3000,1,NA,NA,images/purpleplanet.jpg,images/alien4,images/alien3,images/rocket1,images/alien4,images/t.png,2,real,false,2,rare,1,2020-06-09T18:00:23Z,sub13
two-step-fixation,203,1026723,0.0-76.0-2.22,TRUE,TRUE,TRUE,TRUE,"""event"",""trial"",""time""
""fullscreenenter"",""5"",""64258""
","
","
","""event"",""trial"",""time""
""fullscreenenter"",""5"",""64258""
","
",NA,images/earth.jpg,NA,NA,NA,NA,NA,NA,NA,NA,NA,NA,NA,NA,NA,fixation,NA,NA,NA,NA,NA,NA,sub13
d3-animate-choice,204,1029743,0.0-76.0-0.23,TRUE,TRUE,TRUE,TRUE,"""event"",""trial"",""time""
""fullscreenenter"",""5"",""64258""
","
","
","""event"",""trial"",""time""
""fullscreenenter"",""5"",""64258""
","
",1014.6349999995437,NA,48,NA,NA,3000,1,NA,NA,images/earth.jpg,images/rocket2,images/rocket1,null,images/rocket2,NA,1,real,null,2,NA,NA,NA,sub13
d3-animate-choice,205,1032213,0.0-76.0-1.23,TRUE,TRUE,TRUE,TRUE,"""event"",""trial"",""time""
""fullscreenenter"",""5"",""64258""
","
","
","""event"",""trial"",""time""
""fullscreenenter"",""5"",""64258""
","
",466.0449999937555,NA,49,NA,NA,3000,1,NA,NA,images/purpleplanet.jpg,images/alien4,images/alien3,images/rocket2,images/alien3,images/t.png,2,real,true,1,common,1,2020-06-09T18:00:30Z,sub13
two-step-fixation,206,1033219,0.0-76.0-2.23,TRUE,TRUE,TRUE,TRUE,"""event"",""trial"",""time""
""fullscreenenter"",""5"",""64258""
","
","
","""event"",""trial"",""time""
""fullscreenenter"",""5"",""64258""
","
",NA,images/earth.jpg,NA,NA,NA,NA,NA,NA,NA,NA,NA,NA,NA,NA,NA,fixation,NA,NA,NA,NA,NA,NA,sub13
d3-animate-choice,207,1035703,0.0-76.0-0.24,TRUE,TRUE,TRUE,TRUE,"""event"",""trial"",""time""
""fullscreenenter"",""5"",""64258""
","
","
","""event"",""trial"",""time""
""fullscreenenter"",""5"",""64258""
","
",478.3600000082515,NA,48,NA,NA,3000,1,NA,NA,images/earth.jpg,images/rocket2,images/rocket1,null,images/rocket2,NA,1,real,null,2,NA,NA,NA,sub13
d3-animate-choice,208,1038950,0.0-76.0-1.24,TRUE,TRUE,TRUE,TRUE,"""event"",""trial"",""time""
""fullscreenenter"",""5"",""64258""
","
","
","""event"",""trial"",""time""
""fullscreenenter"",""5"",""64258""
","
",1241.0450000024866,NA,49,NA,NA,3000,1,NA,NA,images/purpleplanet.jpg,images/alien4,images/alien3,images/rocket2,images/alien3,images/nothing.png,2,real,true,1,common,0,2020-06-09T18:00:37Z,sub13
two-step-fixation,209,1039955,0.0-76.0-2.24,TRUE,TRUE,TRUE,TRUE,"""event"",""trial"",""time""
""fullscreenenter"",""5"",""64258""
","
","
","""event"",""trial"",""time""
""fullscreenenter"",""5"",""64258""
","
",NA,images/earth.jpg,NA,NA,NA,NA,NA,NA,NA,NA,NA,NA,NA,NA,NA,fixation,NA,NA,NA,NA,NA,NA,sub13
d3-animate-choice,210,1042423,0.0-76.0-0.25,TRUE,TRUE,TRUE,TRUE,"""event"",""trial"",""time""
""fullscreenenter"",""5"",""64258""
","
","
","""event"",""trial"",""time""
""fullscreenenter"",""5"",""64258""
","
",462.879999991972,NA,48,NA,NA,3000,1,NA,NA,images/earth.jpg,images/rocket2,images/rocket1,null,images/rocket2,NA,1,real,null,2,NA,NA,NA,sub13
d3-animate-choice,211,1045981,0.0-76.0-1.25,TRUE,TRUE,TRUE,TRUE,"""event"",""trial"",""time""
""fullscreenenter"",""5"",""64258""
","
","
","""event"",""trial"",""time""
""fullscreenenter"",""5"",""64258""
","
",1552.8350000097416,NA,48,NA,NA,3000,1,NA,NA,images/purpleplanet.jpg,images/alien4,images/alien3,images/rocket2,images/alien4,images/nothing.png,2,real,true,2,common,0,2020-06-09T18:00:44Z,sub13
two-step-fixation,212,1046988,0.0-76.0-2.25,TRUE,TRUE,TRUE,TRUE,"""event"",""trial"",""time""
""fullscreenenter"",""5"",""64258""
","
","
","""event"",""trial"",""time""
""fullscreenenter"",""5"",""64258""
","
",NA,images/earth.jpg,NA,NA,NA,NA,NA,NA,NA,NA,NA,NA,NA,NA,NA,fixation,NA,NA,NA,NA,NA,NA,sub13
d3-animate-choice,213,1049461,0.0-76.0-0.26,TRUE,TRUE,TRUE,TRUE,"""event"",""trial"",""time""
""fullscreenenter"",""5"",""64258""
","
","
","""event"",""trial"",""time""
""fullscreenenter"",""5"",""64258""
","
",468.35000001010485,NA,49,NA,NA,3000,1,NA,NA,images/earth.jpg,images/rocket2,images/rocket1,null,images/rocket1,NA,1,real,null,1,NA,NA,NA,sub13
d3-animate-choice,214,1052125,0.0-76.0-1.26,TRUE,TRUE,TRUE,TRUE,"""event"",""trial"",""time""
""fullscreenenter"",""5"",""64258""
","
","
","""event"",""trial"",""time""
""fullscreenenter"",""5"",""64258""
","
",657.4499999987893,NA,49,NA,NA,3000,1,NA,NA,images/redplanet1.jpg,images/alien2,images/alien1,images/rocket1,images/alien1,images/t.png,2,real,true,1,common,1,2020-06-09T18:00:50Z,sub13
two-step-fixation,215,1053131,0.0-76.0-2.26,TRUE,TRUE,TRUE,TRUE,"""event"",""trial"",""time""
""fullscreenenter"",""5"",""64258""
","
","
","""event"",""trial"",""time""
""fullscreenenter"",""5"",""64258""
","
",NA,images/earth.jpg,NA,NA,NA,NA,NA,NA,NA,NA,NA,NA,NA,NA,NA,fixation,NA,NA,NA,NA,NA,NA,sub13
d3-animate-choice,216,1055598,0.0-76.0-0.27,TRUE,TRUE,TRUE,TRUE,"""event"",""trial"",""time""
""fullscreenenter"",""5"",""64258""
","
","
","""event"",""trial"",""time""
""fullscreenenter"",""5"",""64258""
","
",462.37000000826083,NA,49,NA,NA,3000,1,NA,NA,images/earth.jpg,images/rocket2,images/rocket1,null,images/rocket1,NA,1,real,null,1,NA,NA,NA,sub13
d3-animate-choice,217,1058504,0.0-76.0-1.27,TRUE,TRUE,TRUE,TRUE,"""event"",""trial"",""time""
""fullscreenenter"",""5"",""64258""
","
","
","""event"",""trial"",""time""
""fullscreenenter"",""5"",""64258""
","
",897.5099999953527,NA,48,NA,NA,3000,1,NA,NA,images/redplanet1.jpg,images/alien2,images/alien1,images/rocket1,images/alien2,images/nothing.png,2,real,true,2,common,0,2020-06-09T18:00:56Z,sub13
two-step-fixation,218,1059508,0.0-76.0-2.27,TRUE,TRUE,TRUE,TRUE,"""event"",""trial"",""time""
""fullscreenenter"",""5"",""64258""
","
","
","""event"",""trial"",""time""
""fullscreenenter"",""5"",""64258""
","
",NA,images/earth.jpg,NA,NA,NA,NA,NA,NA,NA,NA,NA,NA,NA,NA,NA,fixation,NA,NA,NA,NA,NA,NA,sub13
d3-animate-choice,219,1062693,0.0-76.0-0.28,TRUE,TRUE,TRUE,TRUE,"""event"",""trial"",""time""
""fullscreenenter"",""5"",""64258""
","
","
","""event"",""trial"",""time""
""fullscreenenter"",""5"",""64258""
","
",1179.6400000022259,NA,49,NA,NA,3000,1,NA,NA,images/earth.jpg,images/rocket2,images/rocket1,null,images/rocket1,NA,1,real,null,1,NA,NA,NA,sub13
d3-animate-choice,220,1065117,0.0-76.0-1.28,TRUE,TRUE,TRUE,TRUE,"""event"",""trial"",""time""
""fullscreenenter"",""5"",""64258""
","
","
","""event"",""trial"",""time""
""fullscreenenter"",""5"",""64258""
","
",417.7500000076834,NA,49,NA,NA,3000,1,NA,NA,images/purpleplanet.jpg,images/alien4,images/alien3,images/rocket1,images/alien3,images/nothing.png,2,real,false,1,rare,0,2020-06-09T18:01:03Z,sub13
two-step-fixation,221,1066122,0.0-76.0-2.28,TRUE,TRUE,TRUE,TRUE,"""event"",""trial"",""time""
""fullscreenenter"",""5"",""64258""
","
","
","""event"",""trial"",""time""
""fullscreenenter"",""5"",""64258""
","
",NA,images/earth.jpg,NA,NA,NA,NA,NA,NA,NA,NA,NA,NA,NA,NA,NA,fixation,NA,NA,NA,NA,NA,NA,sub13
d3-animate-choice,222,1068582,0.0-76.0-0.29,TRUE,TRUE,TRUE,TRUE,"""event"",""trial"",""time""
""fullscreenenter"",""5"",""64258""
","
","
","""event"",""trial"",""time""
""fullscreenenter"",""5"",""64258""
","
",455.48499999870546,NA,49,NA,NA,3000,1,NA,NA,images/earth.jpg,images/rocket2,images/rocket1,null,images/rocket1,NA,1,real,null,1,NA,NA,NA,sub13
d3-animate-choice,223,1071702,0.0-76.0-1.29,TRUE,TRUE,TRUE,TRUE,"""event"",""trial"",""time""
""fullscreenenter"",""5"",""64258""
","
","
","""event"",""trial"",""time""
""fullscreenenter"",""5"",""64258""
","
",1114.4250000070315,NA,49,NA,NA,3000,1,NA,NA,images/redplanet1.jpg,images/alien2,images/alien1,images/rocket1,images/alien1,images/t.png,2,real,true,1,common,1,2020-06-09T18:01:09Z,sub13
two-step-fixation,224,1072708,0.0-76.0-2.29,TRUE,TRUE,TRUE,TRUE,"""event"",""trial"",""time""
""fullscreenenter"",""5"",""64258""
","
","
","""event"",""trial"",""time""
""fullscreenenter"",""5"",""64258""
","
",NA,images/earth.jpg,NA,NA,NA,NA,NA,NA,NA,NA,NA,NA,NA,NA,NA,fixation,NA,NA,NA,NA,NA,NA,sub13
d3-animate-choice,225,1075013,0.0-76.0-0.30,TRUE,TRUE,TRUE,TRUE,"""event"",""trial"",""time""
""fullscreenenter"",""5"",""64258""
","
","
","""event"",""trial"",""time""
""fullscreenenter"",""5"",""64258""
","
",299.86500000813976,NA,49,NA,NA,3000,1,NA,NA,images/earth.jpg,images/rocket2,images/rocket1,null,images/rocket1,NA,1,real,null,1,NA,NA,NA,sub13
d3-animate-choice,226,1078029,0.0-76.0-1.30,TRUE,TRUE,TRUE,TRUE,"""event"",""trial"",""time""
""fullscreenenter"",""5"",""64258""
","
","
","""event"",""trial"",""time""
""fullscreenenter"",""5"",""64258""
","
",1010.1750000030734,NA,49,NA,NA,3000,1,NA,NA,images/redplanet1.jpg,images/alien2,images/alien1,images/rocket1,images/alien1,images/t.png,2,real,true,1,common,1,2020-06-09T18:01:16Z,sub13
two-step-fixation,227,1079034,0.0-76.0-2.30,TRUE,TRUE,TRUE,TRUE,"""event"",""trial"",""time""
""fullscreenenter"",""5"",""64258""
","
","
","""event"",""trial"",""time""
""fullscreenenter"",""5"",""64258""
","
",NA,images/earth.jpg,NA,NA,NA,NA,NA,NA,NA,NA,NA,NA,NA,NA,NA,fixation,NA,NA,NA,NA,NA,NA,sub13
d3-animate-choice,228,1081486,0.0-76.0-0.31,TRUE,TRUE,TRUE,TRUE,"""event"",""trial"",""time""
""fullscreenenter"",""5"",""64258""
","
","
","""event"",""trial"",""time""
""fullscreenenter"",""5"",""64258""
","
",447.48999999137595,NA,49,NA,NA,3000,1,NA,NA,images/earth.jpg,images/rocket2,images/rocket1,null,images/rocket1,NA,1,real,null,1,NA,NA,NA,sub13
d3-animate-choice,229,1084229,0.0-76.0-1.31,TRUE,TRUE,TRUE,TRUE,"""event"",""trial"",""time""
""fullscreenenter"",""5"",""64258""
","
","
","""event"",""trial"",""time""
""fullscreenenter"",""5"",""64258""
","
",736.7550000052433,NA,49,NA,NA,3000,1,NA,NA,images/redplanet1.jpg,images/alien2,images/alien1,images/rocket1,images/alien1,images/nothing.png,2,real,true,1,common,0,2020-06-09T18:01:22Z,sub13
two-step-fixation,230,1085232,0.0-76.0-2.31,TRUE,TRUE,TRUE,TRUE,"""event"",""trial"",""time""
""fullscreenenter"",""5"",""64258""
","
","
","""event"",""trial"",""time""
""fullscreenenter"",""5"",""64258""
","
",NA,images/earth.jpg,NA,NA,NA,NA,NA,NA,NA,NA,NA,NA,NA,NA,NA,fixation,NA,NA,NA,NA,NA,NA,sub13
d3-animate-choice,231,1087852,0.0-76.0-0.32,TRUE,TRUE,TRUE,TRUE,"""event"",""trial"",""time""
""fullscreenenter"",""5"",""64258""
","
","
","""event"",""trial"",""time""
""fullscreenenter"",""5"",""64258""
","
",614.9399999994785,NA,48,NA,NA,3000,1,NA,NA,images/earth.jpg,images/rocket2,images/rocket1,null,images/rocket2,NA,1,real,null,2,NA,NA,NA,sub13
d3-animate-choice,232,1090501,0.0-76.0-1.32,TRUE,TRUE,TRUE,TRUE,"""event"",""trial"",""time""
""fullscreenenter"",""5"",""64258""
","
","
","""event"",""trial"",""time""
""fullscreenenter"",""5"",""64258""
","
",643.1099999898579,NA,49,NA,NA,3000,1,NA,NA,images/purpleplanet.jpg,images/alien4,images/alien3,images/rocket2,images/alien3,images/t.png,2,real,true,1,common,1,2020-06-09T18:01:28Z,sub13
two-step-fixation,233,1091507,0.0-76.0-2.32,TRUE,TRUE,TRUE,TRUE,"""event"",""trial"",""time""
""fullscreenenter"",""5"",""64258""
","
","
","""event"",""trial"",""time""
""fullscreenenter"",""5"",""64258""
","
",NA,images/earth.jpg,NA,NA,NA,NA,NA,NA,NA,NA,NA,NA,NA,NA,NA,fixation,NA,NA,NA,NA,NA,NA,sub13
d3-animate-choice,234,1093933,0.0-76.0-0.33,TRUE,TRUE,TRUE,TRUE,"""event"",""trial"",""time""
""fullscreenenter"",""5"",""64258""
","
","
","""event"",""trial"",""time""
""fullscreenenter"",""5"",""64258""
","
",420.90500000631437,NA,49,NA,NA,3000,1,NA,NA,images/earth.jpg,images/rocket2,images/rocket1,null,images/rocket1,NA,1,real,null,1,NA,NA,NA,sub13
d3-animate-choice,235,1097276,0.0-76.0-1.33,TRUE,TRUE,TRUE,TRUE,"""event"",""trial"",""time""
""fullscreenenter"",""5"",""64258""
","
","
","""event"",""trial"",""time""
""fullscreenenter"",""5"",""64258""
","
",1337.4850000110455,NA,48,NA,NA,3000,1,NA,NA,images/purpleplanet.jpg,images/alien4,images/alien3,images/rocket1,images/alien4,images/nothing.png,2,real,false,2,rare,0,2020-06-09T18:01:35Z,sub13
two-step-fixation,236,1098282,0.0-76.0-2.33,TRUE,TRUE,TRUE,TRUE,"""event"",""trial"",""time""
""fullscreenenter"",""5"",""64258""
","
","
","""event"",""trial"",""time""
""fullscreenenter"",""5"",""64258""
","
",NA,images/earth.jpg,NA,NA,NA,NA,NA,NA,NA,NA,NA,NA,NA,NA,NA,fixation,NA,NA,NA,NA,NA,NA,sub13
d3-animate-choice,237,1100885,0.0-76.0-0.34,TRUE,TRUE,TRUE,TRUE,"""event"",""trial"",""time""
""fullscreenenter"",""5"",""64258""
","
","
","""event"",""trial"",""time""
""fullscreenenter"",""5"",""64258""
","
",595.0299999970011,NA,48,NA,NA,3000,1,NA,NA,images/earth.jpg,images/rocket2,images/rocket1,null,images/rocket2,NA,1,real,null,2,NA,NA,NA,sub13
d3-animate-choice,238,1103380,0.0-76.0-1.34,TRUE,TRUE,TRUE,TRUE,"""event"",""trial"",""time""
""fullscreenenter"",""5"",""64258""
","
","
","""event"",""trial"",""time""
""fullscreenenter"",""5"",""64258""
","
",490.47499999869615,NA,49,NA,NA,3000,1,NA,NA,images/redplanet1.jpg,images/alien2,images/alien1,images/rocket2,images/alien1,images/t.png,2,real,false,1,rare,1,2020-06-09T18:01:41Z,sub13
two-step-fixation,239,1104384,0.0-76.0-2.34,TRUE,TRUE,TRUE,TRUE,"""event"",""trial"",""time""
""fullscreenenter"",""5"",""64258""
","
","
","""event"",""trial"",""time""
""fullscreenenter"",""5"",""64258""
","
",NA,images/earth.jpg,NA,NA,NA,NA,NA,NA,NA,NA,NA,NA,NA,NA,NA,fixation,NA,NA,NA,NA,NA,NA,sub13
d3-animate-choice,240,1107061,0.0-76.0-0.35,TRUE,TRUE,TRUE,TRUE,"""event"",""trial"",""time""
""fullscreenenter"",""5"",""64258""
","
","
","""event"",""trial"",""time""
""fullscreenenter"",""5"",""64258""
","
",671.0099999909289,NA,49,NA,NA,3000,1,NA,NA,images/earth.jpg,images/rocket2,images/rocket1,null,images/rocket1,NA,1,real,null,1,NA,NA,NA,sub13
d3-animate-choice,241,1110100,0.0-76.0-1.35,TRUE,TRUE,TRUE,TRUE,"""event"",""trial"",""time""
""fullscreenenter"",""5"",""64258""
","
","
","""event"",""trial"",""time""
""fullscreenenter"",""5"",""64258""
","
",1033.3800000080373,NA,49,NA,NA,3000,1,NA,NA,images/redplanet1.jpg,images/alien2,images/alien1,images/rocket1,images/alien1,images/t.png,2,real,true,1,common,1,2020-06-09T18:01:48Z,sub13
two-step-fixation,242,1111105,0.0-76.0-2.35,TRUE,TRUE,TRUE,TRUE,"""event"",""trial"",""time""
""fullscreenenter"",""5"",""64258""
","
","
","""event"",""trial"",""time""
""fullscreenenter"",""5"",""64258""
","
",NA,images/earth.jpg,NA,NA,NA,NA,NA,NA,NA,NA,NA,NA,NA,NA,NA,fixation,NA,NA,NA,NA,NA,NA,sub13
d3-animate-choice,243,1114549,0.0-76.0-0.36,TRUE,TRUE,TRUE,TRUE,"""event"",""trial"",""time""
""fullscreenenter"",""5"",""64258""
","
","
","""event"",""trial"",""time""
""fullscreenenter"",""5"",""64258""
","
",1437.6650000051595,NA,49,NA,NA,3000,1,NA,NA,images/earth.jpg,images/rocket2,images/rocket1,null,images/rocket1,NA,1,real,null,1,NA,NA,NA,sub13
d3-animate-choice,244,1117988,0.0-76.0-1.36,TRUE,TRUE,TRUE,TRUE,"""event"",""trial"",""time""
""fullscreenenter"",""5"",""64258""
","
","
","""event"",""trial"",""time""
""fullscreenenter"",""5"",""64258""
","
",1433.9150000014342,NA,48,NA,NA,3000,1,NA,NA,images/purpleplanet.jpg,images/alien4,images/alien3,images/rocket1,images/alien4,images/t.png,2,real,false,2,rare,1,2020-06-09T18:01:56Z,sub13
two-step-fixation,245,1118993,0.0-76.0-2.36,TRUE,TRUE,TRUE,TRUE,"""event"",""trial"",""time""
""fullscreenenter"",""5"",""64258""
","
","
","""event"",""trial"",""time""
""fullscreenenter"",""5"",""64258""
","
",NA,images/earth.jpg,NA,NA,NA,NA,NA,NA,NA,NA,NA,NA,NA,NA,NA,fixation,NA,NA,NA,NA,NA,NA,sub13
d3-animate-choice,246,1121883,0.0-76.0-0.37,TRUE,TRUE,TRUE,TRUE,"""event"",""trial"",""time""
""fullscreenenter"",""5"",""64258""
","
","
","""event"",""trial"",""time""
""fullscreenenter"",""5"",""64258""
","
",885.8899999905843,NA,49,NA,NA,3000,1,NA,NA,images/earth.jpg,images/rocket2,images/rocket1,null,images/rocket1,NA,1,real,null,1,NA,NA,NA,sub13
d3-animate-choice,247,1125268,0.0-76.0-1.37,TRUE,TRUE,TRUE,TRUE,"""event"",""trial"",""time""
""fullscreenenter"",""5"",""64258""
","
","
","""event"",""trial"",""time""
""fullscreenenter"",""5"",""64258""
","
",1378.679999994114,NA,49,NA,NA,3000,1,NA,NA,images/redplanet1.jpg,images/alien2,images/alien1,images/rocket1,images/alien1,images/t.png,2,real,true,1,common,1,2020-06-09T18:02:03Z,sub13
two-step-fixation,248,1126273,0.0-76.0-2.37,TRUE,TRUE,TRUE,TRUE,"""event"",""trial"",""time""
""fullscreenenter"",""5"",""64258""
","
","
","""event"",""trial"",""time""
""fullscreenenter"",""5"",""64258""
","
",NA,images/earth.jpg,NA,NA,NA,NA,NA,NA,NA,NA,NA,NA,NA,NA,NA,fixation,NA,NA,NA,NA,NA,NA,sub13
d3-animate-choice,249,1128900,0.0-76.0-0.38,TRUE,TRUE,TRUE,TRUE,"""event"",""trial"",""time""
""fullscreenenter"",""5"",""64258""
","
","
","""event"",""trial"",""time""
""fullscreenenter"",""5"",""64258""
","
",621.2649999940768,NA,49,NA,NA,3000,1,NA,NA,images/earth.jpg,images/rocket2,images/rocket1,null,images/rocket1,NA,1,real,null,1,NA,NA,NA,sub13
d3-animate-choice,250,1132454,0.0-76.0-1.38,TRUE,TRUE,TRUE,TRUE,"""event"",""trial"",""time""
""fullscreenenter"",""5"",""64258""
","
","
","""event"",""trial"",""time""
""fullscreenenter"",""5"",""64258""
","
",1545.614999995567,NA,48,NA,NA,3000,1,NA,NA,images/purpleplanet.jpg,images/alien4,images/alien3,images/rocket1,images/alien4,images/t.png,2,real,false,2,rare,1,2020-06-09T18:02:10Z,sub13
two-step-fixation,251,1133460,0.0-76.0-2.38,TRUE,TRUE,TRUE,TRUE,"""event"",""trial"",""time""
""fullscreenenter"",""5"",""64258""
","
","
","""event"",""trial"",""time""
""fullscreenenter"",""5"",""64258""
","
",NA,images/earth.jpg,NA,NA,NA,NA,NA,NA,NA,NA,NA,NA,NA,NA,NA,fixation,NA,NA,NA,NA,NA,NA,sub13
d3-animate-choice,252,1135901,0.0-76.0-0.39,TRUE,TRUE,TRUE,TRUE,"""event"",""trial"",""time""
""fullscreenenter"",""5"",""64258""
","
","
","""event"",""trial"",""time""
""fullscreenenter"",""5"",""64258""
","
",435.149999990128,NA,49,NA,NA,3000,1,NA,NA,images/earth.jpg,images/rocket2,images/rocket1,null,images/rocket1,NA,1,real,null,1,NA,NA,NA,sub13
d3-animate-choice,253,1138925,0.0-76.0-1.39,TRUE,TRUE,TRUE,TRUE,"""event"",""trial"",""time""
""fullscreenenter"",""5"",""64258""
","
","
","""event"",""trial"",""time""
""fullscreenenter"",""5"",""64258""
","
",1018.4850000077859,NA,49,NA,NA,3000,1,NA,NA,images/redplanet1.jpg,images/alien2,images/alien1,images/rocket1,images/alien1,images/t.png,2,real,true,1,common,1,2020-06-09T18:02:17Z,sub13
two-step-fixation,254,1139930,0.0-76.0-2.39,TRUE,TRUE,TRUE,TRUE,"""event"",""trial"",""time""
""fullscreenenter"",""5"",""64258""
","
","
","""event"",""trial"",""time""
""fullscreenenter"",""5"",""64258""
","
",NA,images/earth.jpg,NA,NA,NA,NA,NA,NA,NA,NA,NA,NA,NA,NA,NA,fixation,NA,NA,NA,NA,NA,NA,sub13
d3-animate-choice,255,1142253,0.0-76.0-0.40,TRUE,TRUE,TRUE,TRUE,"""event"",""trial"",""time""
""fullscreenenter"",""5"",""64258""
","
","
","""event"",""trial"",""time""
""fullscreenenter"",""5"",""64258""
","
",316.980000003241,NA,49,NA,NA,3000,1,NA,NA,images/earth.jpg,images/rocket2,images/rocket1,null,images/rocket1,NA,1,real,null,1,NA,NA,NA,sub13
d3-animate-choice,256,1145428,0.0-76.0-1.40,TRUE,TRUE,TRUE,TRUE,"""event"",""trial"",""time""
""fullscreenenter"",""5"",""64258""
","
","
","""event"",""trial"",""time""
""fullscreenenter"",""5"",""64258""
","
",1169.705000007525,NA,49,NA,NA,3000,1,NA,NA,images/redplanet1.jpg,images/alien2,images/alien1,images/rocket1,images/alien1,images/nothing.png,2,real,true,1,common,0,2020-06-09T18:02:23Z,sub13
two-step-fixation,257,1146433,0.0-76.0-2.40,TRUE,TRUE,TRUE,TRUE,"""event"",""trial"",""time""
""fullscreenenter"",""5"",""64258""
","
","
","""event"",""trial"",""time""
""fullscreenenter"",""5"",""64258""
","
",NA,images/earth.jpg,NA,NA,NA,NA,NA,NA,NA,NA,NA,NA,NA,NA,NA,fixation,NA,NA,NA,NA,NA,NA,sub13
d3-animate-choice,258,1149229,0.0-76.0-0.41,TRUE,TRUE,TRUE,TRUE,"""event"",""trial"",""time""
""fullscreenenter"",""5"",""64258""
","
","
","""event"",""trial"",""time""
""fullscreenenter"",""5"",""64258""
","
",786.6849999991246,NA,49,NA,NA,3000,1,NA,NA,images/earth.jpg,images/rocket2,images/rocket1,null,images/rocket1,NA,1,real,null,1,NA,NA,NA,sub13
d3-animate-choice,259,1152547,0.0-76.0-1.41,TRUE,TRUE,TRUE,TRUE,"""event"",""trial"",""time""
""fullscreenenter"",""5"",""64258""
","
","
","""event"",""trial"",""time""
""fullscreenenter"",""5"",""64258""
","
",1313.3800000068732,NA,48,NA,NA,3000,1,NA,NA,images/purpleplanet.jpg,images/alien4,images/alien3,images/rocket1,images/alien4,images/t.png,2,real,false,2,rare,1,2020-06-09T18:02:30Z,sub13
two-step-fixation,260,1153552,0.0-76.0-2.41,TRUE,TRUE,TRUE,TRUE,"""event"",""trial"",""time""
""fullscreenenter"",""5"",""64258""
","
","
","""event"",""trial"",""time""
""fullscreenenter"",""5"",""64258""
","
",NA,images/earth.jpg,NA,NA,NA,NA,NA,NA,NA,NA,NA,NA,NA,NA,NA,fixation,NA,NA,NA,NA,NA,NA,sub13
d3-animate-choice,261,1155997,0.0-76.0-0.42,TRUE,TRUE,TRUE,TRUE,"""event"",""trial"",""time""
""fullscreenenter"",""5"",""64258""
","
","
","""event"",""trial"",""time""
""fullscreenenter"",""5"",""64258""
","
",440.11999999918044,NA,49,NA,NA,3000,1,NA,NA,images/earth.jpg,images/rocket2,images/rocket1,null,images/rocket1,NA,1,real,null,1,NA,NA,NA,sub13
d3-animate-choice,262,1158909,0.0-76.0-1.42,TRUE,TRUE,TRUE,TRUE,"""event"",""trial"",""time""
""fullscreenenter"",""5"",""64258""
","
","
","""event"",""trial"",""time""
""fullscreenenter"",""5"",""64258""
","
",906.484999999404,NA,49,NA,NA,3000,1,NA,NA,images/redplanet1.jpg,images/alien2,images/alien1,images/rocket1,images/alien1,images/t.png,2,real,true,1,common,1,2020-06-09T18:02:37Z,sub13
two-step-fixation,263,1159915,0.0-76.0-2.42,TRUE,TRUE,TRUE,TRUE,"""event"",""trial"",""time""
""fullscreenenter"",""5"",""64258""
","
","
","""event"",""trial"",""time""
""fullscreenenter"",""5"",""64258""
","
",NA,images/earth.jpg,NA,NA,NA,NA,NA,NA,NA,NA,NA,NA,NA,NA,NA,fixation,NA,NA,NA,NA,NA,NA,sub13
d3-animate-choice,264,1163023,0.0-76.0-0.43,TRUE,TRUE,TRUE,TRUE,"""event"",""trial"",""time""
""fullscreenenter"",""5"",""64258""
","
","
","""event"",""trial"",""time""
""fullscreenenter"",""5"",""64258""
","
",1100.9799999883398,NA,48,NA,NA,3000,1,NA,NA,images/earth.jpg,images/rocket2,images/rocket1,null,images/rocket2,NA,1,real,null,2,NA,NA,NA,sub13
d3-animate-choice,265,1166324,0.0-76.0-1.43,TRUE,TRUE,TRUE,TRUE,"""event"",""trial"",""time""
""fullscreenenter"",""5"",""64258""
","
","
","""event"",""trial"",""time""
""fullscreenenter"",""5"",""64258""
","
",1293.749999997206,NA,48,NA,NA,3000,1,NA,NA,images/purpleplanet.jpg,images/alien4,images/alien3,images/rocket2,images/alien4,images/t.png,2,real,true,2,common,1,2020-06-09T18:02:44Z,sub13
two-step-fixation,266,1167328,0.0-76.0-2.43,TRUE,TRUE,TRUE,TRUE,"""event"",""trial"",""time""
""fullscreenenter"",""5"",""64258""
","
","
","""event"",""trial"",""time""
""fullscreenenter"",""5"",""64258""
","
",NA,images/earth.jpg,NA,NA,NA,NA,NA,NA,NA,NA,NA,NA,NA,NA,NA,fixation,NA,NA,NA,NA,NA,NA,sub13
d3-animate-choice,267,1169804,0.0-76.0-0.44,TRUE,TRUE,TRUE,TRUE,"""event"",""trial"",""time""
""fullscreenenter"",""5"",""64258""
","
","
","""event"",""trial"",""time""
""fullscreenenter"",""5"",""64258""
","
",470.29500000644475,NA,49,NA,NA,3000,1,NA,NA,images/earth.jpg,images/rocket2,images/rocket1,null,images/rocket1,NA,1,real,null,1,NA,NA,NA,sub13
d3-animate-choice,268,1172542,0.0-76.0-1.44,TRUE,TRUE,TRUE,TRUE,"""event"",""trial"",""time""
""fullscreenenter"",""5"",""64258""
","
","
","""event"",""trial"",""time""
""fullscreenenter"",""5"",""64258""
","
",730.7349999900907,NA,49,NA,NA,3000,1,NA,NA,images/redplanet1.jpg,images/alien2,images/alien1,images/rocket1,images/alien1,images/t.png,2,real,true,1,common,1,2020-06-09T18:02:50Z,sub13
two-step-fixation,269,1173547,0.0-76.0-2.44,TRUE,TRUE,TRUE,TRUE,"""event"",""trial"",""time""
""fullscreenenter"",""5"",""64258""
","
","
","""event"",""trial"",""time""
""fullscreenenter"",""5"",""64258""
","
",NA,images/earth.jpg,NA,NA,NA,NA,NA,NA,NA,NA,NA,NA,NA,NA,NA,fixation,NA,NA,NA,NA,NA,NA,sub13
d3-animate-choice,270,1176517,0.0-76.0-0.45,TRUE,TRUE,TRUE,TRUE,"""event"",""trial"",""time""
""fullscreenenter"",""5"",""64258""
","
","
","""event"",""trial"",""time""
""fullscreenenter"",""5"",""64258""
","
",964.5650000020396,NA,48,NA,NA,3000,1,NA,NA,images/earth.jpg,images/rocket2,images/rocket1,null,images/rocket2,NA,1,real,null,2,NA,NA,NA,sub13
d3-animate-choice,271,1179956,0.0-76.0-1.45,TRUE,TRUE,TRUE,TRUE,"""event"",""trial"",""time""
""fullscreenenter"",""5"",""64258""
","
","
","""event"",""trial"",""time""
""fullscreenenter"",""5"",""64258""
","
",1433.1950000049546,NA,48,NA,NA,3000,1,NA,NA,images/purpleplanet.jpg,images/alien4,images/alien3,images/rocket2,images/alien4,images/t.png,2,real,true,2,common,1,2020-06-09T18:02:58Z,sub13
two-step-fixation,272,1180961,0.0-76.0-2.45,TRUE,TRUE,TRUE,TRUE,"""event"",""trial"",""time""
""fullscreenenter"",""5"",""64258""
","
","
","""event"",""trial"",""time""
""fullscreenenter"",""5"",""64258""
","
",NA,images/earth.jpg,NA,NA,NA,NA,NA,NA,NA,NA,NA,NA,NA,NA,NA,fixation,NA,NA,NA,NA,NA,NA,sub13
d3-animate-choice,273,1183532,0.0-76.0-0.46,TRUE,TRUE,TRUE,TRUE,"""event"",""trial"",""time""
""fullscreenenter"",""5"",""64258""
","
","
","""event"",""trial"",""time""
""fullscreenenter"",""5"",""64258""
","
",565.1399999917485,NA,49,NA,NA,3000,1,NA,NA,images/earth.jpg,images/rocket2,images/rocket1,null,images/rocket1,NA,1,real,null,1,NA,NA,NA,sub13
d3-animate-choice,274,1186171,0.0-76.0-1.46,TRUE,TRUE,TRUE,TRUE,"""event"",""trial"",""time""
""fullscreenenter"",""5"",""64258""
","
","
","""event"",""trial"",""time""
""fullscreenenter"",""5"",""64258""
","
",634.6100000082515,NA,49,NA,NA,3000,1,NA,NA,images/redplanet1.jpg,images/alien2,images/alien1,images/rocket1,images/alien1,images/t.png,2,real,true,1,common,1,2020-06-09T18:03:04Z,sub13
two-step-fixation,275,1187178,0.0-76.0-2.46,TRUE,TRUE,TRUE,TRUE,"""event"",""trial"",""time""
""fullscreenenter"",""5"",""64258""
","
","
","""event"",""trial"",""time""
""fullscreenenter"",""5"",""64258""
","
",NA,images/earth.jpg,NA,NA,NA,NA,NA,NA,NA,NA,NA,NA,NA,NA,NA,fixation,NA,NA,NA,NA,NA,NA,sub13
d3-animate-choice,276,1189644,0.0-76.0-0.47,TRUE,TRUE,TRUE,TRUE,"""event"",""trial"",""time""
""fullscreenenter"",""5"",""64258""
","
","
","""event"",""trial"",""time""
""fullscreenenter"",""5"",""64258""
","
",461.56499999039806,NA,48,NA,NA,3000,1,NA,NA,images/earth.jpg,images/rocket2,images/rocket1,null,images/rocket2,NA,1,real,null,2,NA,NA,NA,sub13
d3-animate-choice,277,1193156,0.0-76.0-1.47,TRUE,TRUE,TRUE,TRUE,"""event"",""trial"",""time""
""fullscreenenter"",""5"",""64258""
","
","
","""event"",""trial"",""time""
""fullscreenenter"",""5"",""64258""
","
",1504.9999999899883,NA,49,NA,NA,3000,1,1657.3749999951106,17,images/redplanet1.jpg,images/alien2,images/alien1,images/rocket2,images/alien1,images/t.png,2,real,false,1,rare,1,2020-06-09T18:03:11Z,sub13
two-step-fixation,278,1194161,0.0-76.0-2.47,TRUE,TRUE,TRUE,TRUE,"""event"",""trial"",""time""
""fullscreenenter"",""5"",""64258""
","
","
","""event"",""trial"",""time""
""fullscreenenter"",""5"",""64258""
","
",NA,images/earth.jpg,NA,NA,NA,NA,NA,NA,NA,NA,NA,NA,NA,NA,NA,fixation,NA,NA,NA,NA,NA,NA,sub13
d3-animate-choice,279,1196780,0.0-76.0-0.48,TRUE,TRUE,TRUE,TRUE,"""event"",""trial"",""time""
""fullscreenenter"",""5"",""64258""
","
","
","""event"",""trial"",""time""
""fullscreenenter"",""5"",""64258""
","
",614.684999993071,NA,49,NA,NA,3000,1,NA,NA,images/earth.jpg,images/rocket2,images/rocket1,null,images/rocket1,NA,1,real,null,1,NA,NA,NA,sub13
d3-animate-choice,280,1199605,0.0-76.0-1.48,TRUE,TRUE,TRUE,TRUE,"""event"",""trial"",""time""
""fullscreenenter"",""5"",""64258""
","
","
","""event"",""trial"",""time""
""fullscreenenter"",""5"",""64258""
","
",817.4200000066776,NA,49,NA,NA,3000,1,NA,NA,images/redplanet1.jpg,images/alien2,images/alien1,images/rocket1,images/alien1,images/nothing.png,2,real,true,1,common,0,2020-06-09T18:03:17Z,sub13
two-step-fixation,281,1200612,0.0-76.0-2.48,TRUE,TRUE,TRUE,TRUE,"""event"",""trial"",""time""
""fullscreenenter"",""5"",""64258""
","
","
","""event"",""trial"",""time""
""fullscreenenter"",""5"",""64258""
","
",NA,images/earth.jpg,NA,NA,NA,NA,NA,NA,NA,NA,NA,NA,NA,NA,NA,fixation,NA,NA,NA,NA,NA,NA,sub13
d3-animate-choice,282,1203095,0.0-76.0-0.49,TRUE,TRUE,TRUE,TRUE,"""event"",""trial"",""time""
""fullscreenenter"",""5"",""64258""
","
","
","""event"",""trial"",""time""
""fullscreenenter"",""5"",""64258""
","
",476.3249999959953,NA,49,NA,NA,3000,1,NA,NA,images/earth.jpg,images/rocket2,images/rocket1,null,images/rocket1,NA,1,real,null,1,NA,NA,NA,sub13
d3-animate-choice,283,1206196,0.0-76.0-1.49,TRUE,TRUE,TRUE,TRUE,"""event"",""trial"",""time""
""fullscreenenter"",""5"",""64258""
","
","
","""event"",""trial"",""time""
""fullscreenenter"",""5"",""64258""
","
",1095.5749999994878,NA,48,NA,NA,3000,1,NA,NA,images/redplanet1.jpg,images/alien2,images/alien1,images/rocket1,images/alien2,images/nothing.png,2,real,true,2,common,0,2020-06-09T18:03:24Z,sub13
two-step-fixation,284,1207200,0.0-76.0-2.49,TRUE,TRUE,TRUE,TRUE,"""event"",""trial"",""time""
""fullscreenenter"",""5"",""64258""
","
","
","""event"",""trial"",""time""
""fullscreenenter"",""5"",""64258""
","
",NA,images/earth.jpg,NA,NA,NA,NA,NA,NA,NA,NA,NA,NA,NA,NA,NA,fixation,NA,NA,NA,NA,NA,NA,sub13
