trial_type,trial_index,time_elapsed,internal_node_id,rocket_sides,red_planet_first_rocket,red_display_order,purple_display_order,interactions,blur_events,focus_events,fullscreenenter_events,fullscreenexit_events,rt,stimulus,key_press,button_pressed,success,duration,valid_pressed,rts,keys,planet_text,right_text,left_text,center_text,chosen_text,reward_text,trial_stage,practice_trial,transition_type,choice,transition,reward,timestamp,subject_id
pavlovia,0,9,0.0-0.0,TRUE,TRUE,FALSE,FALSE,"
","
","
","
","
",NA,NA,NA,NA,NA,NA,NA,NA,NA,NA,NA,NA,NA,NA,NA,NA,NA,NA,NA,NA,NA,NA,sub39
html-keyboard-response,1,3231,0.0-1.0,TRUE,TRUE,FALSE,FALSE,"
","
","
","
","
",3219.860000011977,Welcome! Press the space bar to begin.,32,NA,NA,NA,NA,NA,NA,NA,NA,NA,NA,NA,NA,NA,NA,NA,NA,NA,NA,NA,sub39
audio-keyboard-response,2,7013,0.0-2.0,TRUE,TRUE,FALSE,FALSE,"
","
","
","
","
",3320,audio/beep_loop.wav,32,NA,NA,NA,NA,NA,NA,NA,NA,NA,NA,NA,NA,NA,NA,NA,NA,NA,NA,NA,sub39
audio-button-response,3,9736,0.0-3.0,TRUE,TRUE,FALSE,FALSE,"
","
","
","
","
",NaN,audio/fish.mp3,NA,1,NA,NA,NA,NA,NA,NA,NA,NA,NA,NA,NA,NA,NA,NA,NA,NA,NA,NA,sub39
audio-button-response,4,12655,0.0-4.0,TRUE,TRUE,FALSE,FALSE,"""event"",""trial"",""time""
""fullscreenenter"",""5"",""25118""
","
","
","""event"",""trial"",""time""
""fullscreenenter"",""5"",""25118""
","
",NaN,audio/tiger.mp3,NA,4,NA,NA,NA,NA,NA,NA,NA,NA,NA,NA,NA,NA,NA,NA,NA,NA,NA,NA,sub39
fullscreen,5,26061,0.0-5.0,TRUE,TRUE,FALSE,FALSE,"""event"",""trial"",""time""
""fullscreenenter"",""5"",""25118""
","
","
","""event"",""trial"",""time""
""fullscreenenter"",""5"",""25118""
","
",NA,NA,NA,NA,TRUE,NA,NA,NA,NA,NA,NA,NA,NA,NA,NA,NA,NA,NA,NA,NA,NA,NA,sub39
d3-instructions,6,40542,0.0-6.0,TRUE,TRUE,FALSE,FALSE,"""event"",""trial"",""time""
""fullscreenenter"",""5"",""25118""
","
","
","""event"",""trial"",""time""
""fullscreenenter"",""5"",""25118""
","
",NA,NA,NA,NA,NA,NA,NA,NA,NA,NA,NA,NA,NA,NA,NA,NA,NA,NA,NA,NA,NA,NA,sub39
d3-instructions,7,50433,0.0-7.0,TRUE,TRUE,FALSE,FALSE,"""event"",""trial"",""time""
""fullscreenenter"",""5"",""25118""
","
","
","""event"",""trial"",""time""
""fullscreenenter"",""5"",""25118""
","
",NA,NA,NA,NA,NA,NA,NA,NA,NA,NA,NA,NA,NA,NA,NA,NA,NA,NA,NA,NA,NA,NA,sub39
d3-instructions,8,57333,0.0-8.0,TRUE,TRUE,FALSE,FALSE,"""event"",""trial"",""time""
""fullscreenenter"",""5"",""25118""
","
","
","""event"",""trial"",""time""
""fullscreenenter"",""5"",""25118""
","
",NA,NA,NA,NA,NA,NA,NA,NA,NA,NA,NA,NA,NA,NA,NA,NA,NA,NA,NA,NA,NA,NA,sub39
d3-instructions,9,69478,0.0-9.0,TRUE,TRUE,FALSE,FALSE,"""event"",""trial"",""time""
""fullscreenenter"",""5"",""25118""
","
","
","""event"",""trial"",""time""
""fullscreenenter"",""5"",""25118""
","
",NA,NA,NA,NA,NA,NA,NA,NA,NA,NA,NA,NA,NA,NA,NA,NA,NA,NA,NA,NA,NA,NA,sub39
d3-instructions,10,91020,0.0-10.0,TRUE,TRUE,FALSE,FALSE,"""event"",""trial"",""time""
""fullscreenenter"",""5"",""25118""
","
","
","""event"",""trial"",""time""
""fullscreenenter"",""5"",""25118""
","
",NA,NA,NA,NA,NA,NA,NA,NA,NA,NA,NA,NA,NA,NA,NA,NA,NA,NA,NA,NA,NA,NA,sub39
d3-animate-choice,11,94758,0.0-11.0,TRUE,TRUE,FALSE,FALSE,"""event"",""trial"",""time""
""fullscreenenter"",""5"",""25118""
","
","
","""event"",""trial"",""time""
""fullscreenenter"",""5"",""25118""
","
",1725.9749999793712,NA,49,NA,NA,3000,1,"2453.8599999796133,3678.4150000021327",4849,images/tutgreenplanet.jpg,images/tutalien1,images/tutalien2,null,images/tutalien2,NA,NA,practice,null,NA,NA,NA,NA,sub39
d3-animate-choice,12,97471,0.0-12.0,TRUE,TRUE,FALSE,FALSE,"""event"",""trial"",""time""
""fullscreenenter"",""5"",""25118""
","
","
","""event"",""trial"",""time""
""fullscreenenter"",""5"",""25118""
","
",706.4149999932852,NA,48,NA,NA,3000,1,1746.019999991404,48,images/tutgreenplanet.jpg,images/tutalien1,images/tutalien2,null,images/tutalien1,NA,NA,practice,null,NA,NA,NA,NA,sub39
d3-animate-choice,13,99502,0.0-13.0,TRUE,TRUE,FALSE,FALSE,"""event"",""trial"",""time""
""fullscreenenter"",""5"",""25118""
","
","
","""event"",""trial"",""time""
""fullscreenenter"",""5"",""25118""
","
",24.994999985210598,NA,49,NA,NA,3000,1,"977.8299999888986,1681.4749999903142",4849,images/tutgreenplanet.jpg,images/tutalien1,images/tutalien2,null,images/tutalien2,NA,NA,practice,null,NA,NA,NA,NA,sub39
d3-animate-choice,14,101767,0.0-14.0,TRUE,TRUE,FALSE,FALSE,"""event"",""trial"",""time""
""fullscreenenter"",""5"",""25118""
","
","
","""event"",""trial"",""time""
""fullscreenenter"",""5"",""25118""
","
",258.960000006482,NA,48,NA,NA,3000,1,954.4650000170805,48,images/tutgreenplanet.jpg,images/tutalien1,images/tutalien2,null,images/tutalien1,NA,NA,practice,null,NA,NA,NA,NA,sub39
d3-instructions,15,108646,0.0-15.0,TRUE,TRUE,FALSE,FALSE,"""event"",""trial"",""time""
""fullscreenenter"",""5"",""25118""
","
","
","""event"",""trial"",""time""
""fullscreenenter"",""5"",""25118""
","
",NA,NA,NA,NA,NA,NA,NA,NA,NA,NA,NA,NA,NA,NA,NA,NA,NA,NA,NA,NA,NA,NA,sub39
d3-instructions,16,116262,0.0-16.0,TRUE,TRUE,FALSE,FALSE,"""event"",""trial"",""time""
""fullscreenenter"",""5"",""25118""
","
","
","""event"",""trial"",""time""
""fullscreenenter"",""5"",""25118""
","
",NA,NA,NA,NA,NA,NA,NA,NA,NA,NA,NA,NA,NA,NA,NA,NA,NA,NA,NA,NA,NA,NA,sub39
d3-instructions,17,124965,0.0-17.0,TRUE,TRUE,FALSE,FALSE,"""event"",""trial"",""time""
""fullscreenenter"",""5"",""25118""
","
","
","""event"",""trial"",""time""
""fullscreenenter"",""5"",""25118""
","
",NA,NA,NA,NA,NA,NA,NA,NA,NA,NA,NA,NA,NA,NA,NA,NA,NA,NA,NA,NA,NA,NA,sub39
d3-instructions,18,138325,0.0-18.0,TRUE,TRUE,FALSE,FALSE,"""event"",""trial"",""time""
""fullscreenenter"",""5"",""25118""
","
","
","""event"",""trial"",""time""
""fullscreenenter"",""5"",""25118""
","
",NA,NA,NA,NA,NA,NA,NA,NA,NA,NA,NA,NA,NA,NA,NA,NA,NA,NA,NA,NA,NA,NA,sub39
d3-instructions,19,152438,0.0-19.0,TRUE,TRUE,FALSE,FALSE,"""event"",""trial"",""time""
""fullscreenenter"",""5"",""25118""
","
","
","""event"",""trial"",""time""
""fullscreenenter"",""5"",""25118""
","
",NA,NA,NA,NA,NA,NA,NA,NA,NA,NA,NA,NA,NA,NA,NA,NA,NA,NA,NA,NA,NA,NA,sub39
d3-animate-choice,20,155903,0.0-20.0,TRUE,TRUE,FALSE,FALSE,"""event"",""trial"",""time""
""fullscreenenter"",""5"",""25118""
","
","
","""event"",""trial"",""time""
""fullscreenenter"",""5"",""25118""
","
",1459.2249999986961,NA,49,NA,NA,3000,1,"2052.174999989802,3370.8699999842793",4949,images/tutyellowplanet.jpg,null,images/tutalien3,null,images/tutalien3,images/t.png,NA,practice,null,NA,NA,NA,NA,sub39
d3-animate-choice,21,158534,0.0-21.0,TRUE,TRUE,FALSE,FALSE,"""event"",""trial"",""time""
""fullscreenenter"",""5"",""25118""
","
","
","""event"",""trial"",""time""
""fullscreenenter"",""5"",""25118""
","
",626.5450000064448,NA,49,NA,NA,3000,1,1146.40500000678,49,images/tutyellowplanet.jpg,null,images/tutalien3,null,images/tutalien3,images/t.png,NA,practice,null,NA,NA,NA,NA,sub39
d3-animate-choice,22,160839,0.0-22.0,TRUE,TRUE,FALSE,FALSE,"""event"",""trial"",""time""
""fullscreenenter"",""5"",""25118""
","
","
","""event"",""trial"",""time""
""fullscreenenter"",""5"",""25118""
","
",299.1250000195578,NA,49,NA,NA,3000,1,795.2750000113156,49,images/tutyellowplanet.jpg,null,images/tutalien3,null,images/tutalien3,images/t.png,NA,practice,null,NA,NA,NA,NA,sub39
d3-animate-choice,23,163185,0.0-23.0,TRUE,TRUE,FALSE,FALSE,"""event"",""trial"",""time""
""fullscreenenter"",""5"",""25118""
","
","
","""event"",""trial"",""time""
""fullscreenenter"",""5"",""25118""
","
",339.55500001320615,NA,49,NA,NA,3000,1,858.47500001546,49,images/tutyellowplanet.jpg,null,images/tutalien3,null,images/tutalien3,images/nothing.png,NA,practice,null,NA,NA,NA,NA,sub39
d3-animate-choice,24,165655,0.0-24.0,TRUE,TRUE,FALSE,FALSE,"""event"",""trial"",""time""
""fullscreenenter"",""5"",""25118""
","
","
","""event"",""trial"",""time""
""fullscreenenter"",""5"",""25118""
","
",463.57500000158325,NA,49,NA,NA,3000,1,"999.3449999892619,1191.2949999968987",4949,images/tutyellowplanet.jpg,null,images/tutalien3,null,images/tutalien3,images/t.png,NA,practice,null,NA,NA,NA,NA,sub39
d3-animate-choice,25,168046,0.0-25.0,TRUE,TRUE,FALSE,FALSE,"""event"",""trial"",""time""
""fullscreenenter"",""5"",""25118""
","
","
","""event"",""trial"",""time""
""fullscreenenter"",""5"",""25118""
","
",384.20999998925254,NA,49,NA,NA,3000,1,992.0349999738391,49,images/tutyellowplanet.jpg,null,images/tutalien3,null,images/tutalien3,images/t.png,NA,practice,null,NA,NA,NA,NA,sub39
d3-animate-choice,26,170433,0.0-26.0,TRUE,TRUE,FALSE,FALSE,"""event"",""trial"",""time""
""fullscreenenter"",""5"",""25118""
","
","
","""event"",""trial"",""time""
""fullscreenenter"",""5"",""25118""
","
",380.73000000440516,NA,49,NA,NA,3000,1,931.3600000168663,49,images/tutyellowplanet.jpg,null,images/tutalien3,null,images/tutalien3,images/t.png,NA,practice,null,NA,NA,NA,NA,sub39
d3-animate-choice,27,172810,0.0-27.0,TRUE,TRUE,FALSE,FALSE,"""event"",""trial"",""time""
""fullscreenenter"",""5"",""25118""
","
","
","""event"",""trial"",""time""
""fullscreenenter"",""5"",""25118""
","
",369.62499999208376,NA,49,NA,NA,3000,1,808.6299999849871,49,images/tutyellowplanet.jpg,null,images/tutalien3,null,images/tutalien3,images/t.png,NA,practice,null,NA,NA,NA,NA,sub39
d3-animate-choice,28,175191,0.0-28.0,TRUE,TRUE,FALSE,FALSE,"""event"",""trial"",""time""
""fullscreenenter"",""5"",""25118""
","
","
","""event"",""trial"",""time""
""fullscreenenter"",""5"",""25118""
","
",375.39999998989515,NA,49,NA,NA,3000,1,864.6599999919999,49,images/tutyellowplanet.jpg,null,images/tutalien3,null,images/tutalien3,images/t.png,NA,practice,null,NA,NA,NA,NA,sub39
d3-animate-choice,29,177687,0.0-29.0,TRUE,TRUE,FALSE,FALSE,"""event"",""trial"",""time""
""fullscreenenter"",""5"",""25118""
","
","
","""event"",""trial"",""time""
""fullscreenenter"",""5"",""25118""
","
",491.7299999797251,NA,49,NA,NA,3000,1,1050.9099999908358,49,images/tutyellowplanet.jpg,null,images/tutalien3,null,images/tutalien3,images/t.png,NA,practice,null,NA,NA,NA,NA,sub39
d3-instructions,30,184710,0.0-30.0,TRUE,TRUE,FALSE,FALSE,"""event"",""trial"",""time""
""fullscreenenter"",""5"",""25118""
","
","
","""event"",""trial"",""time""
""fullscreenenter"",""5"",""25118""
","
",NA,NA,NA,NA,NA,NA,NA,NA,NA,NA,NA,NA,NA,NA,NA,NA,NA,NA,NA,NA,NA,NA,sub39
d3-instructions,31,195532,0.0-31.0,TRUE,TRUE,FALSE,FALSE,"""event"",""trial"",""time""
""fullscreenenter"",""5"",""25118""
","
","
","""event"",""trial"",""time""
""fullscreenenter"",""5"",""25118""
","
",NA,NA,NA,NA,NA,NA,NA,NA,NA,NA,NA,NA,NA,NA,NA,NA,NA,NA,NA,NA,NA,NA,sub39
d3-instructions,32,202870,0.0-32.0,TRUE,TRUE,FALSE,FALSE,"""event"",""trial"",""time""
""fullscreenenter"",""5"",""25118""
","
","
","""event"",""trial"",""time""
""fullscreenenter"",""5"",""25118""
","
",NA,NA,NA,NA,NA,NA,NA,NA,NA,NA,NA,NA,NA,NA,NA,NA,NA,NA,NA,NA,NA,NA,sub39
d3-instructions,33,222333,0.0-33.0,TRUE,TRUE,FALSE,FALSE,"""event"",""trial"",""time""
""fullscreenenter"",""5"",""25118""
","
","
","""event"",""trial"",""time""
""fullscreenenter"",""5"",""25118""
","
",NA,NA,NA,NA,NA,NA,NA,NA,NA,NA,NA,NA,NA,NA,NA,NA,NA,NA,NA,NA,NA,NA,sub39
d3-animate-choice,34,226080,0.0-34.0,TRUE,TRUE,FALSE,FALSE,"""event"",""trial"",""time""
""fullscreenenter"",""5"",""25118""
","
","
","""event"",""trial"",""time""
""fullscreenenter"",""5"",""25118""
","
",1740.2949999959674,NA,49,NA,NA,3000,1,2372.2800000105053,49,images/tutgreenplanet.jpg,images/tutalien1,images/tutalien2,null,images/tutalien2,images/t.png,NA,practice,null,NA,NA,NA,NA,sub39
d3-animate-choice,35,229936,0.0-35.0,TRUE,TRUE,FALSE,FALSE,"""event"",""trial"",""time""
""fullscreenenter"",""5"",""25118""
","
","
","""event"",""trial"",""time""
""fullscreenenter"",""5"",""25118""
","
",1850.2100000041537,NA,48,NA,NA,3000,1,2320.884999993723,48,images/tutgreenplanet.jpg,images/tutalien1,images/tutalien2,null,images/tutalien1,images/t.png,NA,practice,null,NA,NA,NA,NA,sub39
d3-animate-choice,36,233343,0.0-36.0,TRUE,TRUE,FALSE,FALSE,"""event"",""trial"",""time""
""fullscreenenter"",""5"",""25118""
","
","
","""event"",""trial"",""time""
""fullscreenenter"",""5"",""25118""
","
",1401.3649999978952,NA,49,NA,NA,3000,1,2481.6050000081304,49,images/tutgreenplanet.jpg,images/tutalien1,images/tutalien2,null,images/tutalien2,images/t.png,NA,practice,null,NA,NA,NA,NA,sub39
d3-animate-choice,37,236503,0.0-37.0,TRUE,TRUE,FALSE,FALSE,"""event"",""trial"",""time""
""fullscreenenter"",""5"",""25118""
","
","
","""event"",""trial"",""time""
""fullscreenenter"",""5"",""25118""
","
",1154.3799999926705,NA,49,NA,NA,3000,1,1546.3999999919906,49,images/tutgreenplanet.jpg,images/tutalien1,images/tutalien2,null,images/tutalien2,images/t.png,NA,practice,null,NA,NA,NA,NA,sub39
d3-animate-choice,38,239370,0.0-38.0,TRUE,TRUE,FALSE,FALSE,"""event"",""trial"",""time""
""fullscreenenter"",""5"",""25118""
","
","
","""event"",""trial"",""time""
""fullscreenenter"",""5"",""25118""
","
",858.9550000033341,NA,49,NA,NA,3000,1,1232.994999998482,49,images/tutgreenplanet.jpg,images/tutalien1,images/tutalien2,null,images/tutalien2,images/t.png,NA,practice,null,NA,NA,NA,NA,sub39
d3-animate-choice,39,242078,0.0-39.0,TRUE,TRUE,FALSE,FALSE,"""event"",""trial"",""time""
""fullscreenenter"",""5"",""25118""
","
","
","""event"",""trial"",""time""
""fullscreenenter"",""5"",""25118""
","
",703.6349999834783,NA,49,NA,NA,3000,1,1121.1649999895599,49,images/tutgreenplanet.jpg,images/tutalien1,images/tutalien2,null,images/tutalien2,images/t.png,NA,practice,null,NA,NA,NA,NA,sub39
d3-animate-choice,40,244614,0.0-40.0,TRUE,TRUE,FALSE,FALSE,"""event"",""trial"",""time""
""fullscreenenter"",""5"",""25118""
","
","
","""event"",""trial"",""time""
""fullscreenenter"",""5"",""25118""
","
",530.6350000028033,NA,49,NA,NA,3000,1,962.1350000088569,49,images/tutgreenplanet.jpg,images/tutalien1,images/tutalien2,null,images/tutalien2,images/t.png,NA,practice,null,NA,NA,NA,NA,sub39
d3-animate-choice,41,247017,0.0-41.0,TRUE,TRUE,FALSE,FALSE,"""event"",""trial"",""time""
""fullscreenenter"",""5"",""25118""
","
","
","""event"",""trial"",""time""
""fullscreenenter"",""5"",""25118""
","
",394.8600000003353,NA,49,NA,NA,3000,1,818.1549999862909,49,images/tutgreenplanet.jpg,images/tutalien1,images/tutalien2,null,images/tutalien2,images/t.png,NA,practice,null,NA,NA,NA,NA,sub39
d3-animate-choice,42,249371,0.0-42.0,TRUE,TRUE,FALSE,FALSE,"""event"",""trial"",""time""
""fullscreenenter"",""5"",""25118""
","
","
","""event"",""trial"",""time""
""fullscreenenter"",""5"",""25118""
","
",345.1549999881536,NA,49,NA,NA,3000,1,688.6499999964144,49,images/tutgreenplanet.jpg,images/tutalien1,images/tutalien2,null,images/tutalien2,images/t.png,NA,practice,null,NA,NA,NA,NA,sub39
d3-animate-choice,43,251783,0.0-43.0,TRUE,TRUE,FALSE,FALSE,"""event"",""trial"",""time""
""fullscreenenter"",""5"",""25118""
","
","
","""event"",""trial"",""time""
""fullscreenenter"",""5"",""25118""
","
",406.50000001187436,NA,49,NA,NA,3000,1,822.2700000042096,49,images/tutgreenplanet.jpg,images/tutalien1,images/tutalien2,null,images/tutalien2,images/t.png,NA,practice,null,NA,NA,NA,NA,sub39
d3-instructions,44,265085,0.0-44.0,TRUE,TRUE,FALSE,FALSE,"""event"",""trial"",""time""
""fullscreenenter"",""5"",""25118""
","
","
","""event"",""trial"",""time""
""fullscreenenter"",""5"",""25118""
","
",NA,NA,NA,NA,NA,NA,NA,NA,NA,NA,NA,NA,NA,NA,NA,NA,NA,NA,NA,NA,NA,NA,sub39
d3-instructions,45,271437,0.0-45.0,TRUE,TRUE,FALSE,FALSE,"""event"",""trial"",""time""
""fullscreenenter"",""5"",""25118""
","
","
","""event"",""trial"",""time""
""fullscreenenter"",""5"",""25118""
","
",NA,NA,NA,NA,NA,NA,NA,NA,NA,NA,NA,NA,NA,NA,NA,NA,NA,NA,NA,NA,NA,NA,sub39
d3-instructions,46,276556,0.0-46.0,TRUE,TRUE,FALSE,FALSE,"""event"",""trial"",""time""
""fullscreenenter"",""5"",""25118""
","
","
","""event"",""trial"",""time""
""fullscreenenter"",""5"",""25118""
","
",NA,NA,NA,NA,NA,NA,NA,NA,NA,NA,NA,NA,NA,NA,NA,NA,NA,NA,NA,NA,NA,NA,sub39
d3-instructions,47,293253,0.0-47.0,TRUE,TRUE,FALSE,FALSE,"""event"",""trial"",""time""
""fullscreenenter"",""5"",""25118""
","
","
","""event"",""trial"",""time""
""fullscreenenter"",""5"",""25118""
","
",NA,NA,NA,NA,NA,NA,NA,NA,NA,NA,NA,NA,NA,NA,NA,NA,NA,NA,NA,NA,NA,NA,sub39
d3-instructions,48,299797,0.0-48.0,TRUE,TRUE,FALSE,FALSE,"""event"",""trial"",""time""
""fullscreenenter"",""5"",""25118""
","
","
","""event"",""trial"",""time""
""fullscreenenter"",""5"",""25118""
","
",NA,NA,NA,NA,NA,NA,NA,NA,NA,NA,NA,NA,NA,NA,NA,NA,NA,NA,NA,NA,NA,NA,sub39
d3-instructions,49,311382,0.0-49.0,TRUE,TRUE,FALSE,FALSE,"""event"",""trial"",""time""
""fullscreenenter"",""5"",""25118""
","
","
","""event"",""trial"",""time""
""fullscreenenter"",""5"",""25118""
","
",NA,NA,NA,NA,NA,NA,NA,NA,NA,NA,NA,NA,NA,NA,NA,NA,NA,NA,NA,NA,NA,NA,sub39
d3-instructions,50,321782,0.0-50.0,TRUE,TRUE,FALSE,FALSE,"""event"",""trial"",""time""
""fullscreenenter"",""5"",""25118""
","
","
","""event"",""trial"",""time""
""fullscreenenter"",""5"",""25118""
","
",NA,NA,NA,NA,NA,NA,NA,NA,NA,NA,NA,NA,NA,NA,NA,NA,NA,NA,NA,NA,NA,NA,sub39
d3-instructions,51,324838,0.0-51.0,TRUE,TRUE,FALSE,FALSE,"""event"",""trial"",""time""
""fullscreenenter"",""5"",""25118""
","
","
","""event"",""trial"",""time""
""fullscreenenter"",""5"",""25118""
","
",NA,NA,NA,NA,NA,NA,NA,NA,NA,NA,NA,NA,NA,NA,NA,NA,NA,NA,NA,NA,NA,NA,sub39
d3-instructions,52,327477,0.0-52.0,TRUE,TRUE,FALSE,FALSE,"""event"",""trial"",""time""
""fullscreenenter"",""5"",""25118""
","
","
","""event"",""trial"",""time""
""fullscreenenter"",""5"",""25118""
","
",NA,NA,NA,NA,NA,NA,NA,NA,NA,NA,NA,NA,NA,NA,NA,NA,NA,NA,NA,NA,NA,NA,sub39
d3-instructions,53,340774,0.0-53.0,TRUE,TRUE,FALSE,FALSE,"""event"",""trial"",""time""
""fullscreenenter"",""5"",""25118""
","
","
","""event"",""trial"",""time""
""fullscreenenter"",""5"",""25118""
","
",NA,NA,NA,NA,NA,NA,NA,NA,NA,NA,NA,NA,NA,NA,NA,NA,NA,NA,NA,NA,NA,NA,sub39
d3-instructions,54,355829,0.0-54.0,TRUE,TRUE,FALSE,FALSE,"""event"",""trial"",""time""
""fullscreenenter"",""5"",""25118""
","
","
","""event"",""trial"",""time""
""fullscreenenter"",""5"",""25118""
","
",NA,NA,NA,NA,NA,NA,NA,NA,NA,NA,NA,NA,NA,NA,NA,NA,NA,NA,NA,NA,NA,NA,sub39
d3-instructions,55,366829,0.0-55.0,TRUE,TRUE,FALSE,FALSE,"""event"",""trial"",""time""
""fullscreenenter"",""5"",""25118""
","
","
","""event"",""trial"",""time""
""fullscreenenter"",""5"",""25118""
","
",NA,NA,NA,NA,NA,NA,NA,NA,NA,NA,NA,NA,NA,NA,NA,NA,NA,NA,NA,NA,NA,NA,sub39
d3-instructions,56,375308,0.0-56.0,TRUE,TRUE,FALSE,FALSE,"""event"",""trial"",""time""
""fullscreenenter"",""5"",""25118""
","
","
","""event"",""trial"",""time""
""fullscreenenter"",""5"",""25118""
","
",NA,NA,NA,NA,NA,NA,NA,NA,NA,NA,NA,NA,NA,NA,NA,NA,NA,NA,NA,NA,NA,NA,sub39
d3-instructions,57,385221,0.0-57.0,TRUE,TRUE,FALSE,FALSE,"""event"",""trial"",""time""
""fullscreenenter"",""5"",""25118""
","
","
","""event"",""trial"",""time""
""fullscreenenter"",""5"",""25118""
","
",NA,NA,NA,NA,NA,NA,NA,NA,NA,NA,NA,NA,NA,NA,NA,NA,NA,NA,NA,NA,NA,NA,sub39
d3-instructions,58,395813,0.0-58.0,TRUE,TRUE,FALSE,FALSE,"""event"",""trial"",""time""
""fullscreenenter"",""5"",""25118""
","
","
","""event"",""trial"",""time""
""fullscreenenter"",""5"",""25118""
","
",NA,NA,NA,NA,NA,NA,NA,NA,NA,NA,NA,NA,NA,NA,NA,NA,NA,NA,NA,NA,NA,NA,sub39
d3-instructions,59,400349,0.0-59.0,TRUE,TRUE,FALSE,FALSE,"""event"",""trial"",""time""
""fullscreenenter"",""5"",""25118""
","
","
","""event"",""trial"",""time""
""fullscreenenter"",""5"",""25118""
","
",NA,NA,NA,NA,NA,NA,NA,NA,NA,NA,NA,NA,NA,NA,NA,NA,NA,NA,NA,NA,NA,NA,sub39
d3-instructions,60,407373,0.0-60.0,TRUE,TRUE,FALSE,FALSE,"""event"",""trial"",""time""
""fullscreenenter"",""5"",""25118""
","
","
","""event"",""trial"",""time""
""fullscreenenter"",""5"",""25118""
","
",NA,NA,NA,NA,NA,NA,NA,NA,NA,NA,NA,NA,NA,NA,NA,NA,NA,NA,NA,NA,NA,NA,sub39
d3-animate-choice,61,409744,0.0-61.0-0.0,TRUE,TRUE,FALSE,FALSE,"""event"",""trial"",""time""
""fullscreenenter"",""5"",""25118""
","
","
","""event"",""trial"",""time""
""fullscreenenter"",""5"",""25118""
","
",361.47999999229796,NA,48,NA,NA,3000,1,1913.4199999971315,48,images/earth.jpg,images/tutrocket1,images/tutrocket2,null,images/tutrocket1,NA,1,practice,null,2,NA,NA,NA,sub39
d3-animate-choice,62,413513,0.0-61.0-1.0,TRUE,TRUE,FALSE,FALSE,"""event"",""trial"",""time""
""fullscreenenter"",""5"",""25118""
","
","
","""event"",""trial"",""time""
""fullscreenenter"",""5"",""25118""
","
",1756.0750000120606,NA,49,NA,NA,3000,1,2699.9200000136625,49,images/tutgreenplanet.jpg,images/tutalien2,images/tutalien1,images/tutrocket1,images/tutalien1,images/nothing.png,2,practice,true,1,common,0,2020-06-13T15:16:07Z,sub39
two-step-fixation,63,414524,0.0-61.0-2.0,TRUE,TRUE,FALSE,FALSE,"""event"",""trial"",""time""
""fullscreenenter"",""5"",""25118""
","
","
","""event"",""trial"",""time""
""fullscreenenter"",""5"",""25118""
","
",NA,images/earth.jpg,NA,NA,NA,NA,NA,NA,NA,NA,NA,NA,NA,NA,NA,fixation,NA,NA,NA,NA,NA,NA,sub39
d3-animate-choice,64,417863,0.0-61.0-0.1,TRUE,TRUE,FALSE,FALSE,"""event"",""trial"",""time""
""fullscreenenter"",""5"",""25118""
","
","
","""event"",""trial"",""time""
""fullscreenenter"",""5"",""25118""
","
",1332.414999982575,NA,49,NA,NA,3000,1,1901.6049999918323,49,images/earth.jpg,images/tutrocket1,images/tutrocket2,null,images/tutrocket2,NA,1,practice,null,1,NA,NA,NA,sub39
d3-animate-choice,65,421135,0.0-61.0-1.1,TRUE,TRUE,FALSE,FALSE,"""event"",""trial"",""time""
""fullscreenenter"",""5"",""25118""
","
","
","""event"",""trial"",""time""
""fullscreenenter"",""5"",""25118""
","
",1257.0049999922048,NA,49,NA,NA,3000,1,1872.7300000027753,49,images/tutyellowplanet.jpg,images/tutalien4,images/tutalien3,images/tutrocket2,images/tutalien3,images/nothing.png,2,practice,true,1,common,0,2020-06-13T15:16:14Z,sub39
two-step-fixation,66,422141,0.0-61.0-2.1,TRUE,TRUE,FALSE,FALSE,"""event"",""trial"",""time""
""fullscreenenter"",""5"",""25118""
","
","
","""event"",""trial"",""time""
""fullscreenenter"",""5"",""25118""
","
",NA,images/earth.jpg,NA,NA,NA,NA,NA,NA,NA,NA,NA,NA,NA,NA,NA,fixation,NA,NA,NA,NA,NA,NA,sub39
d3-animate-choice,67,424936,0.0-61.0-0.2,TRUE,TRUE,FALSE,FALSE,"""event"",""trial"",""time""
""fullscreenenter"",""5"",""25118""
","
","
","""event"",""trial"",""time""
""fullscreenenter"",""5"",""25118""
","
",787.4350000056438,NA,49,NA,NA,3000,1,1186.3200000079814,49,images/earth.jpg,images/tutrocket1,images/tutrocket2,null,images/tutrocket2,NA,1,practice,null,1,NA,NA,NA,sub39
d3-animate-choice,68,427342,0.0-61.0-1.2,TRUE,TRUE,FALSE,FALSE,"""event"",""trial"",""time""
""fullscreenenter"",""5"",""25118""
","
","
","""event"",""trial"",""time""
""fullscreenenter"",""5"",""25118""
","
",402.3499999893829,NA,48,NA,NA,3000,1,"842.2449999779928,1346.5649999852758",4848,images/tutyellowplanet.jpg,images/tutalien4,images/tutalien3,images/tutrocket2,images/tutalien4,images/t.png,2,practice,true,2,common,1,2020-06-13T15:16:21Z,sub39
two-step-fixation,69,428349,0.0-61.0-2.2,TRUE,TRUE,FALSE,FALSE,"""event"",""trial"",""time""
""fullscreenenter"",""5"",""25118""
","
","
","""event"",""trial"",""time""
""fullscreenenter"",""5"",""25118""
","
",NA,images/earth.jpg,NA,NA,NA,NA,NA,NA,NA,NA,NA,NA,NA,NA,NA,fixation,NA,NA,NA,NA,NA,NA,sub39
d3-animate-choice,70,431462,0.0-61.0-0.3,TRUE,TRUE,FALSE,FALSE,"""event"",""trial"",""time""
""fullscreenenter"",""5"",""25118""
","
","
","""event"",""trial"",""time""
""fullscreenenter"",""5"",""25118""
","
",1105.970000004163,NA,48,NA,NA,3000,1,1489.7100000234786,48,images/earth.jpg,images/tutrocket1,images/tutrocket2,null,images/tutrocket1,NA,1,practice,null,2,NA,NA,NA,sub39
d3-animate-choice,71,434018,0.0-61.0-1.3,TRUE,TRUE,FALSE,FALSE,"""event"",""trial"",""time""
""fullscreenenter"",""5"",""25118""
","
","
","""event"",""trial"",""time""
""fullscreenenter"",""5"",""25118""
","
",546.2700000207406,NA,48,NA,NA,3000,1,1376.9200000097044,48,images/tutgreenplanet.jpg,images/tutalien2,images/tutalien1,images/tutrocket1,images/tutalien2,images/nothing.png,2,practice,true,2,common,0,2020-06-13T15:16:27Z,sub39
two-step-fixation,72,435026,0.0-61.0-2.3,TRUE,TRUE,FALSE,FALSE,"""event"",""trial"",""time""
""fullscreenenter"",""5"",""25118""
","
","
","""event"",""trial"",""time""
""fullscreenenter"",""5"",""25118""
","
",NA,images/earth.jpg,NA,NA,NA,NA,NA,NA,NA,NA,NA,NA,NA,NA,NA,fixation,NA,NA,NA,NA,NA,NA,sub39
d3-animate-choice,73,437930,0.0-61.0-0.4,TRUE,TRUE,FALSE,FALSE,"""event"",""trial"",""time""
""fullscreenenter"",""5"",""25118""
","
","
","""event"",""trial"",""time""
""fullscreenenter"",""5"",""25118""
","
",896.4299999934155,NA,49,NA,NA,3000,1,1264.6250000107102,49,images/earth.jpg,images/tutrocket1,images/tutrocket2,null,images/tutrocket2,NA,1,practice,null,1,NA,NA,NA,sub39
d3-animate-choice,74,440840,0.0-61.0-1.4,TRUE,TRUE,FALSE,FALSE,"""event"",""trial"",""time""
""fullscreenenter"",""5"",""25118""
","
","
","""event"",""trial"",""time""
""fullscreenenter"",""5"",""25118""
","
",901.0249999992084,NA,48,NA,NA,3000,1,1380.9300000139046,48,images/tutyellowplanet.jpg,images/tutalien4,images/tutalien3,images/tutrocket2,images/tutalien4,images/t.png,2,practice,true,2,common,1,2020-06-13T15:16:34Z,sub39
two-step-fixation,75,441846,0.0-61.0-2.4,TRUE,TRUE,FALSE,FALSE,"""event"",""trial"",""time""
""fullscreenenter"",""5"",""25118""
","
","
","""event"",""trial"",""time""
""fullscreenenter"",""5"",""25118""
","
",NA,images/earth.jpg,NA,NA,NA,NA,NA,NA,NA,NA,NA,NA,NA,NA,NA,fixation,NA,NA,NA,NA,NA,NA,sub39
d3-animate-choice,76,444912,0.0-61.0-0.5,TRUE,TRUE,FALSE,FALSE,"""event"",""trial"",""time""
""fullscreenenter"",""5"",""25118""
","
","
","""event"",""trial"",""time""
""fullscreenenter"",""5"",""25118""
","
",1058.4000000089873,NA,48,NA,NA,3000,1,1385.645000002114,48,images/earth.jpg,images/tutrocket1,images/tutrocket2,null,images/tutrocket1,NA,1,practice,null,2,NA,NA,NA,sub39
d3-animate-choice,77,447255,0.0-61.0-1.5,TRUE,TRUE,FALSE,FALSE,"""event"",""trial"",""time""
""fullscreenenter"",""5"",""25118""
","
","
","""event"",""trial"",""time""
""fullscreenenter"",""5"",""25118""
","
",335.98500001244247,NA,48,NA,NA,3000,1,"734.8000000056345,1095.3349999908824",4848,images/tutgreenplanet.jpg,images/tutalien2,images/tutalien1,images/tutrocket1,images/tutalien2,images/nothing.png,2,practice,true,2,common,0,2020-06-13T15:16:40Z,sub39
two-step-fixation,78,448261,0.0-61.0-2.5,TRUE,TRUE,FALSE,FALSE,"""event"",""trial"",""time""
""fullscreenenter"",""5"",""25118""
","
","
","""event"",""trial"",""time""
""fullscreenenter"",""5"",""25118""
","
",NA,images/earth.jpg,NA,NA,NA,NA,NA,NA,NA,NA,NA,NA,NA,NA,NA,fixation,NA,NA,NA,NA,NA,NA,sub39
d3-animate-choice,79,451439,0.0-61.0-0.6,TRUE,TRUE,FALSE,FALSE,"""event"",""trial"",""time""
""fullscreenenter"",""5"",""25118""
","
","
","""event"",""trial"",""time""
""fullscreenenter"",""5"",""25118""
","
",1169.9299999745563,NA,48,NA,NA,3000,1,1474.0749999764375,48,images/earth.jpg,images/tutrocket1,images/tutrocket2,null,images/tutrocket1,NA,1,practice,null,2,NA,NA,NA,sub39
d3-animate-choice,80,454358,0.0-61.0-1.6,TRUE,TRUE,FALSE,FALSE,"""event"",""trial"",""time""
""fullscreenenter"",""5"",""25118""
","
","
","""event"",""trial"",""time""
""fullscreenenter"",""5"",""25118""
","
",912.3749999853317,NA,49,NA,NA,3000,1,"1200.3099999856204,1776.624999998603",4949,images/tutgreenplanet.jpg,images/tutalien2,images/tutalien1,images/tutrocket1,images/tutalien1,images/nothing.png,2,practice,true,1,common,0,2020-06-13T15:16:48Z,sub39
two-step-fixation,81,455368,0.0-61.0-2.6,TRUE,TRUE,FALSE,FALSE,"""event"",""trial"",""time""
""fullscreenenter"",""5"",""25118""
","
","
","""event"",""trial"",""time""
""fullscreenenter"",""5"",""25118""
","
",NA,images/earth.jpg,NA,NA,NA,NA,NA,NA,NA,NA,NA,NA,NA,NA,NA,fixation,NA,NA,NA,NA,NA,NA,sub39
d3-animate-choice,82,458104,0.0-61.0-0.7,TRUE,TRUE,FALSE,FALSE,"""event"",""trial"",""time""
""fullscreenenter"",""5"",""25118""
","
","
","""event"",""trial"",""time""
""fullscreenenter"",""5"",""25118""
","
",723.824999993667,NA,49,NA,NA,3000,1,1059.8400000017136,49,images/earth.jpg,images/tutrocket1,images/tutrocket2,null,images/tutrocket2,NA,1,practice,null,1,NA,NA,NA,sub39
d3-animate-choice,83,460551,0.0-61.0-1.7,TRUE,TRUE,FALSE,FALSE,"""event"",""trial"",""time""
""fullscreenenter"",""5"",""25118""
","
","
","""event"",""trial"",""time""
""fullscreenenter"",""5"",""25118""
","
",438.1299999949988,NA,48,NA,NA,3000,1,"777.5399999809451,1125.9849999914877",4848,images/tutyellowplanet.jpg,images/tutalien4,images/tutalien3,images/tutrocket2,images/tutalien4,images/nothing.png,2,practice,true,2,common,0,2020-06-13T15:16:54Z,sub39
two-step-fixation,84,461557,0.0-61.0-2.7,TRUE,TRUE,FALSE,FALSE,"""event"",""trial"",""time""
""fullscreenenter"",""5"",""25118""
","
","
","""event"",""trial"",""time""
""fullscreenenter"",""5"",""25118""
","
",NA,images/earth.jpg,NA,NA,NA,NA,NA,NA,NA,NA,NA,NA,NA,NA,NA,fixation,NA,NA,NA,NA,NA,NA,sub39
d3-animate-choice,85,464462,0.0-61.0-0.8,TRUE,TRUE,FALSE,FALSE,"""event"",""trial"",""time""
""fullscreenenter"",""5"",""25118""
","
","
","""event"",""trial"",""time""
""fullscreenenter"",""5"",""25118""
","
",901.1600000085309,NA,49,NA,NA,3000,1,1253.179999999702,49,images/earth.jpg,images/tutrocket1,images/tutrocket2,null,images/tutrocket2,NA,1,practice,null,1,NA,NA,NA,sub39
d3-animate-choice,86,467503,0.0-61.0-1.8,TRUE,TRUE,FALSE,FALSE,"""event"",""trial"",""time""
""fullscreenenter"",""5"",""25118""
","
","
","""event"",""trial"",""time""
""fullscreenenter"",""5"",""25118""
","
",1032.3999999964144,NA,48,NA,NA,3000,1,"1439.5199999853503,1839.3900000082795",4848,images/tutgreenplanet.jpg,images/tutalien2,images/tutalien1,images/tutrocket2,images/tutalien2,images/t.png,2,practice,false,2,rare,1,2020-06-13T15:17:01Z,sub39
two-step-fixation,87,468515,0.0-61.0-2.8,TRUE,TRUE,FALSE,FALSE,"""event"",""trial"",""time""
""fullscreenenter"",""5"",""25118""
","
","
","""event"",""trial"",""time""
""fullscreenenter"",""5"",""25118""
","
",NA,images/earth.jpg,NA,NA,NA,NA,NA,NA,NA,NA,NA,NA,NA,NA,NA,fixation,NA,NA,NA,NA,NA,NA,sub39
d3-animate-choice,88,471543,0.0-61.0-0.9,TRUE,TRUE,FALSE,FALSE,"""event"",""trial"",""time""
""fullscreenenter"",""5"",""25118""
","
","
","""event"",""trial"",""time""
""fullscreenenter"",""5"",""25118""
","
",1021.0399999923538,NA,49,NA,NA,3000,1,1372.8849999897648,49,images/earth.jpg,images/tutrocket1,images/tutrocket2,null,images/tutrocket2,NA,1,practice,null,1,NA,NA,NA,sub39
d3-animate-choice,89,474272,0.0-61.0-1.9,TRUE,TRUE,FALSE,FALSE,"""event"",""trial"",""time""
""fullscreenenter"",""5"",""25118""
","
","
","""event"",""trial"",""time""
""fullscreenenter"",""5"",""25118""
","
",720.9900000016205,NA,48,NA,NA,3000,1,"1360.4300000006333,1736.36500001885",4848,images/tutgreenplanet.jpg,images/tutalien2,images/tutalien1,images/tutrocket2,images/tutalien2,images/t.png,2,practice,false,2,rare,1,2020-06-13T15:17:07Z,sub39
two-step-fixation,90,475278,0.0-61.0-2.9,TRUE,TRUE,FALSE,FALSE,"""event"",""trial"",""time""
""fullscreenenter"",""5"",""25118""
","
","
","""event"",""trial"",""time""
""fullscreenenter"",""5"",""25118""
","
",NA,images/earth.jpg,NA,NA,NA,NA,NA,NA,NA,NA,NA,NA,NA,NA,NA,fixation,NA,NA,NA,NA,NA,NA,sub39
d3-animate-choice,91,478160,0.0-61.0-0.10,TRUE,TRUE,FALSE,FALSE,"""event"",""trial"",""time""
""fullscreenenter"",""5"",""25118""
","
","
","""event"",""trial"",""time""
""fullscreenenter"",""5"",""25118""
","
",865.6100000080187,NA,49,NA,NA,3000,1,2137.619999994058,48,images/earth.jpg,images/tutrocket1,images/tutrocket2,null,images/tutrocket2,NA,1,practice,null,1,NA,NA,NA,sub39
d3-animate-choice,92,481638,0.0-61.0-1.10,TRUE,TRUE,FALSE,FALSE,"""event"",""trial"",""time""
""fullscreenenter"",""5"",""25118""
","
","
","""event"",""trial"",""time""
""fullscreenenter"",""5"",""25118""
","
",1471.045000012964,NA,48,NA,NA,3000,1,"1686.7400000046473,2063.0550000059884,2407.0099999953527",484848,images/tutgreenplanet.jpg,images/tutalien2,images/tutalien1,images/tutrocket2,images/tutalien2,images/nothing.png,2,practice,false,2,rare,0,2020-06-13T15:17:15Z,sub39
two-step-fixation,93,482644,0.0-61.0-2.10,TRUE,TRUE,FALSE,FALSE,"""event"",""trial"",""time""
""fullscreenenter"",""5"",""25118""
","
","
","""event"",""trial"",""time""
""fullscreenenter"",""5"",""25118""
","
",NA,images/earth.jpg,NA,NA,NA,NA,NA,NA,NA,NA,NA,NA,NA,NA,NA,fixation,NA,NA,NA,NA,NA,NA,sub39
d3-animate-choice,94,485654,0.0-61.0-0.11,TRUE,TRUE,FALSE,FALSE,"""event"",""trial"",""time""
""fullscreenenter"",""5"",""25118""
","
","
","""event"",""trial"",""time""
""fullscreenenter"",""5"",""25118""
","
",1002.005000016652,NA,48,NA,NA,3000,1,1330.035000020871,48,images/earth.jpg,images/tutrocket1,images/tutrocket2,null,images/tutrocket1,NA,1,practice,null,2,NA,NA,NA,sub39
d3-animate-choice,95,488183,0.0-61.0-1.11,TRUE,TRUE,FALSE,FALSE,"""event"",""trial"",""time""
""fullscreenenter"",""5"",""25118""
","
","
","""event"",""trial"",""time""
""fullscreenenter"",""5"",""25118""
","
",522.4950000119861,NA,48,NA,NA,3000,1,"900.0250000099186,1241.3200000009965,1562.2350000194274",484848,images/tutyellowplanet.jpg,images/tutalien4,images/tutalien3,images/tutrocket1,images/tutalien4,images/t.png,2,practice,false,2,rare,1,2020-06-13T15:17:21Z,sub39
two-step-fixation,96,489186,0.0-61.0-2.11,TRUE,TRUE,FALSE,FALSE,"""event"",""trial"",""time""
""fullscreenenter"",""5"",""25118""
","
","
","""event"",""trial"",""time""
""fullscreenenter"",""5"",""25118""
","
",NA,images/earth.jpg,NA,NA,NA,NA,NA,NA,NA,NA,NA,NA,NA,NA,NA,fixation,NA,NA,NA,NA,NA,NA,sub39
d3-animate-choice,97,491815,0.0-61.0-0.12,TRUE,TRUE,FALSE,FALSE,"""event"",""trial"",""time""
""fullscreenenter"",""5"",""25118""
","
","
","""event"",""trial"",""time""
""fullscreenenter"",""5"",""25118""
","
",622.2700000216719,NA,48,NA,NA,3000,1,965.9950000059325,48,images/earth.jpg,images/tutrocket1,images/tutrocket2,null,images/tutrocket1,NA,1,practice,null,2,NA,NA,NA,sub39
d3-animate-choice,98,495454,0.0-61.0-1.12,TRUE,TRUE,FALSE,FALSE,"""event"",""trial"",""time""
""fullscreenenter"",""5"",""25118""
","
","
","""event"",""trial"",""time""
""fullscreenenter"",""5"",""25118""
","
",1634.6400000038557,NA,48,NA,NA,3000,1,"1834.8999999871012,2082.1350000042003",4848,images/tutgreenplanet.jpg,images/tutalien2,images/tutalien1,images/tutrocket1,images/tutalien2,images/nothing.png,2,practice,true,2,common,0,2020-06-13T15:17:29Z,sub39
two-step-fixation,99,496461,0.0-61.0-2.12,TRUE,TRUE,FALSE,FALSE,"""event"",""trial"",""time""
""fullscreenenter"",""5"",""25118""
","
","
","""event"",""trial"",""time""
""fullscreenenter"",""5"",""25118""
","
",NA,images/earth.jpg,NA,NA,NA,NA,NA,NA,NA,NA,NA,NA,NA,NA,NA,fixation,NA,NA,NA,NA,NA,NA,sub39
d3-animate-choice,100,499567,0.0-61.0-0.13,TRUE,TRUE,FALSE,FALSE,"""event"",""trial"",""time""
""fullscreenenter"",""5"",""25118""
","
","
","""event"",""trial"",""time""
""fullscreenenter"",""5"",""25118""
","
",1099.7350000252482,NA,48,NA,NA,3000,1,1386.8300000031013,48,images/earth.jpg,images/tutrocket1,images/tutrocket2,null,images/tutrocket1,NA,1,practice,null,2,NA,NA,NA,sub39
d3-animate-choice,101,502038,0.0-61.0-1.13,TRUE,TRUE,FALSE,FALSE,"""event"",""trial"",""time""
""fullscreenenter"",""5"",""25118""
","
","
","""event"",""trial"",""time""
""fullscreenenter"",""5"",""25118""
","
",463.9200000092387,NA,48,NA,NA,3000,1,"824.1750000161119,1192.8650000190828",4848,images/tutyellowplanet.jpg,images/tutalien4,images/tutalien3,images/tutrocket1,images/tutalien4,images/t.png,2,practice,false,2,rare,1,2020-06-13T15:17:35Z,sub39
two-step-fixation,102,503042,0.0-61.0-2.13,TRUE,TRUE,FALSE,FALSE,"""event"",""trial"",""time""
""fullscreenenter"",""5"",""25118""
","
","
","""event"",""trial"",""time""
""fullscreenenter"",""5"",""25118""
","
",NA,images/earth.jpg,NA,NA,NA,NA,NA,NA,NA,NA,NA,NA,NA,NA,NA,fixation,NA,NA,NA,NA,NA,NA,sub39
d3-animate-choice,103,505919,0.0-61.0-0.14,TRUE,TRUE,FALSE,FALSE,"""event"",""trial"",""time""
""fullscreenenter"",""5"",""25118""
","
","
","""event"",""trial"",""time""
""fullscreenenter"",""5"",""25118""
","
",870.4699999943841,NA,49,NA,NA,3000,1,1206.399999995483,49,images/earth.jpg,images/tutrocket1,images/tutrocket2,null,images/tutrocket2,NA,1,practice,null,1,NA,NA,NA,sub39
d3-animate-choice,104,508271,0.0-61.0-1.14,TRUE,TRUE,FALSE,FALSE,"""event"",""trial"",""time""
""fullscreenenter"",""5"",""25118""
","
","
","""event"",""trial"",""time""
""fullscreenenter"",""5"",""25118""
","
",342.68999999039806,NA,49,NA,NA,3000,1,926.659999997355,49,images/tutyellowplanet.jpg,images/tutalien4,images/tutalien3,images/tutrocket2,images/tutalien3,images/t.png,2,practice,true,1,common,1,2020-06-13T15:17:41Z,sub39
two-step-fixation,105,509279,0.0-61.0-2.14,TRUE,TRUE,FALSE,FALSE,"""event"",""trial"",""time""
""fullscreenenter"",""5"",""25118""
","
","
","""event"",""trial"",""time""
""fullscreenenter"",""5"",""25118""
","
",NA,images/earth.jpg,NA,NA,NA,NA,NA,NA,NA,NA,NA,NA,NA,NA,NA,fixation,NA,NA,NA,NA,NA,NA,sub39
d3-animate-choice,106,511871,0.0-61.0-0.15,TRUE,TRUE,FALSE,FALSE,"""event"",""trial"",""time""
""fullscreenenter"",""5"",""25118""
","
","
","""event"",""trial"",""time""
""fullscreenenter"",""5"",""25118""
","
",584.3800000147894,NA,49,NA,NA,3000,1,863.8300000166055,49,images/earth.jpg,images/tutrocket1,images/tutrocket2,null,images/tutrocket2,NA,1,practice,null,1,NA,NA,NA,sub39
d3-animate-choice,107,514774,0.0-61.0-1.15,TRUE,TRUE,FALSE,FALSE,"""event"",""trial"",""time""
""fullscreenenter"",""5"",""25118""
","
","
","""event"",""trial"",""time""
""fullscreenenter"",""5"",""25118""
","
",895.9949999989476,NA,49,NA,NA,3000,1,1195.0749999959953,49,images/tutgreenplanet.jpg,images/tutalien2,images/tutalien1,images/tutrocket2,images/tutalien1,images/nothing.png,2,practice,false,1,rare,0,2020-06-13T15:17:48Z,sub39
two-step-fixation,108,515783,0.0-61.0-2.15,TRUE,TRUE,FALSE,FALSE,"""event"",""trial"",""time""
""fullscreenenter"",""5"",""25118""
","
","
","""event"",""trial"",""time""
""fullscreenenter"",""5"",""25118""
","
",NA,images/earth.jpg,NA,NA,NA,NA,NA,NA,NA,NA,NA,NA,NA,NA,NA,fixation,NA,NA,NA,NA,NA,NA,sub39
d3-animate-choice,109,519023,0.0-61.0-0.16,TRUE,TRUE,FALSE,FALSE,"""event"",""trial"",""time""
""fullscreenenter"",""5"",""25118""
","
","
","""event"",""trial"",""time""
""fullscreenenter"",""5"",""25118""
","
",1234.024999983376,NA,48,NA,NA,3000,1,1553.3449999929871,48,images/earth.jpg,images/tutrocket1,images/tutrocket2,null,images/tutrocket1,NA,1,practice,null,2,NA,NA,NA,sub39
d3-animate-choice,110,522447,0.0-61.0-1.16,TRUE,TRUE,FALSE,FALSE,"""event"",""trial"",""time""
""fullscreenenter"",""5"",""25118""
","
","
","""event"",""trial"",""time""
""fullscreenenter"",""5"",""25118""
","
",1416.8400000198744,NA,48,NA,NA,3000,1,"1673.6200000159442,2384.5450000080746",4848,images/tutgreenplanet.jpg,images/tutalien2,images/tutalien1,images/tutrocket1,images/tutalien2,images/nothing.png,2,practice,true,2,common,0,2020-06-13T15:17:56Z,sub39
two-step-fixation,111,523453,0.0-61.0-2.16,TRUE,TRUE,FALSE,FALSE,"""event"",""trial"",""time""
""fullscreenenter"",""5"",""25118""
","
","
","""event"",""trial"",""time""
""fullscreenenter"",""5"",""25118""
","
",NA,images/earth.jpg,NA,NA,NA,NA,NA,NA,NA,NA,NA,NA,NA,NA,NA,fixation,NA,NA,NA,NA,NA,NA,sub39
d3-animate-choice,112,526414,0.0-61.0-0.17,TRUE,TRUE,FALSE,FALSE,"""event"",""trial"",""time""
""fullscreenenter"",""5"",""25118""
","
","
","""event"",""trial"",""time""
""fullscreenenter"",""5"",""25118""
","
",954.6399999817368,NA,49,NA,NA,3000,1,1218.75,49,images/earth.jpg,images/tutrocket1,images/tutrocket2,null,images/tutrocket2,NA,1,practice,null,1,NA,NA,NA,sub39
d3-animate-choice,113,528910,0.0-61.0-1.17,TRUE,TRUE,FALSE,FALSE,"""event"",""trial"",""time""
""fullscreenenter"",""5"",""25118""
","
","
","""event"",""trial"",""time""
""fullscreenenter"",""5"",""25118""
","
",492.43499999283813,NA,48,NA,NA,3000,1,"900.5899999756366,1300.5299999786075",4848,images/tutyellowplanet.jpg,images/tutalien4,images/tutalien3,images/tutrocket2,images/tutalien4,images/t.png,2,practice,true,2,common,1,2020-06-13T15:18:02Z,sub39
two-step-fixation,114,529916,0.0-61.0-2.17,TRUE,TRUE,FALSE,FALSE,"""event"",""trial"",""time""
""fullscreenenter"",""5"",""25118""
","
","
","""event"",""trial"",""time""
""fullscreenenter"",""5"",""25118""
","
",NA,images/earth.jpg,NA,NA,NA,NA,NA,NA,NA,NA,NA,NA,NA,NA,NA,fixation,NA,NA,NA,NA,NA,NA,sub39
d3-animate-choice,115,532345,0.0-61.0-0.18,TRUE,TRUE,FALSE,FALSE,"""event"",""trial"",""time""
""fullscreenenter"",""5"",""25118""
","
","
","""event"",""trial"",""time""
""fullscreenenter"",""5"",""25118""
","
",419.95999999926426,NA,49,NA,NA,3000,1,756.2650000036228,49,images/earth.jpg,images/tutrocket1,images/tutrocket2,null,images/tutrocket2,NA,1,practice,null,1,NA,NA,NA,sub39
d3-animate-choice,116,535478,0.0-61.0-1.18,TRUE,TRUE,FALSE,FALSE,"""event"",""trial"",""time""
""fullscreenenter"",""5"",""25118""
","
","
","""event"",""trial"",""time""
""fullscreenenter"",""5"",""25118""
","
",1124.5749999943655,NA,48,NA,NA,3000,1,1436.5300000063144,48,images/tutgreenplanet.jpg,images/tutalien2,images/tutalien1,images/tutrocket2,images/tutalien2,images/t.png,2,practice,false,2,rare,1,2020-06-13T15:18:09Z,sub39
two-step-fixation,117,536484,0.0-61.0-2.18,TRUE,TRUE,FALSE,FALSE,"""event"",""trial"",""time""
""fullscreenenter"",""5"",""25118""
","
","
","""event"",""trial"",""time""
""fullscreenenter"",""5"",""25118""
","
",NA,images/earth.jpg,NA,NA,NA,NA,NA,NA,NA,NA,NA,NA,NA,NA,NA,fixation,NA,NA,NA,NA,NA,NA,sub39
d3-animate-choice,118,539096,0.0-61.0-0.19,TRUE,TRUE,FALSE,FALSE,"""event"",""trial"",""time""
""fullscreenenter"",""5"",""25118""
","
","
","""event"",""trial"",""time""
""fullscreenenter"",""5"",""25118""
","
",603.8449999759905,NA,48,NA,NA,3000,1,907.5899999879766,48,images/earth.jpg,images/tutrocket1,images/tutrocket2,null,images/tutrocket1,NA,1,practice,null,2,NA,NA,NA,sub39
d3-animate-choice,119,542306,0.0-61.0-1.19,TRUE,TRUE,FALSE,FALSE,"""event"",""trial"",""time""
""fullscreenenter"",""5"",""25118""
","
","
","""event"",""trial"",""time""
""fullscreenenter"",""5"",""25118""
","
",1200.9050000051502,NA,48,NA,NA,3000,1,"1203.1000000133645,1464.0150000050198,1728.3650000172202",1894848,images/tutgreenplanet.jpg,images/tutalien2,images/tutalien1,images/tutrocket1,images/tutalien2,images/nothing.png,2,practice,true,2,common,0,2020-06-13T15:18:15Z,sub39
two-step-fixation,120,543313,0.0-61.0-2.19,TRUE,TRUE,FALSE,FALSE,"""event"",""trial"",""time""
""fullscreenenter"",""5"",""25118""
","
","
","""event"",""trial"",""time""
""fullscreenenter"",""5"",""25118""
","
",NA,images/earth.jpg,NA,NA,NA,NA,NA,NA,NA,NA,NA,NA,NA,NA,NA,fixation,NA,NA,NA,NA,NA,NA,sub39
d3-instructions,121,550213,0.0-62.0,TRUE,TRUE,FALSE,FALSE,"""event"",""trial"",""time""
""fullscreenenter"",""5"",""25118""
","
","
","""event"",""trial"",""time""
""fullscreenenter"",""5"",""25118""
","
",NA,NA,NA,NA,NA,NA,NA,NA,NA,NA,NA,NA,NA,NA,NA,NA,NA,NA,NA,NA,NA,NA,sub39
audio-keyboard-response,122,555285,0.0-63.0,TRUE,TRUE,FALSE,FALSE,"""event"",""trial"",""time""
""fullscreenenter"",""5"",""25118""
","
","
","""event"",""trial"",""time""
""fullscreenenter"",""5"",""25118""
","
",5069,audio/instructions/treasure_feedback.wav,32,NA,NA,NA,NA,NA,NA,NA,NA,NA,NA,NA,NA,NA,NA,NA,NA,NA,NA,NA,sub39
d3-instructions,123,578884,0.0-64.0,TRUE,TRUE,FALSE,FALSE,"""event"",""trial"",""time""
""fullscreenenter"",""5"",""25118""
","
","
","""event"",""trial"",""time""
""fullscreenenter"",""5"",""25118""
","
",NA,NA,NA,NA,NA,NA,NA,NA,NA,NA,NA,NA,NA,NA,NA,NA,NA,NA,NA,NA,NA,NA,sub39
d3-instructions,124,605613,0.0-65.0,TRUE,TRUE,FALSE,FALSE,"""event"",""trial"",""time""
""fullscreenenter"",""5"",""25118""
","
","
","""event"",""trial"",""time""
""fullscreenenter"",""5"",""25118""
","
",NA,NA,NA,NA,NA,NA,NA,NA,NA,NA,NA,NA,NA,NA,NA,NA,NA,NA,NA,NA,NA,NA,sub39
d3-instructions,125,630300,0.0-66.0,TRUE,TRUE,FALSE,FALSE,"""event"",""trial"",""time""
""fullscreenenter"",""5"",""25118""
","
","
","""event"",""trial"",""time""
""fullscreenenter"",""5"",""25118""
","
",NA,NA,NA,NA,NA,NA,NA,NA,NA,NA,NA,NA,NA,NA,NA,NA,NA,NA,NA,NA,NA,NA,sub39
d3-instructions,126,681269,0.0-67.0,TRUE,TRUE,FALSE,FALSE,"""event"",""trial"",""time""
""fullscreenenter"",""5"",""25118""
","
","
","""event"",""trial"",""time""
""fullscreenenter"",""5"",""25118""
","
",NA,NA,NA,NA,NA,NA,NA,NA,NA,NA,NA,NA,NA,NA,NA,NA,NA,NA,NA,NA,NA,NA,sub39
d3-instructions,127,690612,0.0-68.0,TRUE,TRUE,FALSE,FALSE,"""event"",""trial"",""time""
""fullscreenenter"",""5"",""25118""
","
","
","""event"",""trial"",""time""
""fullscreenenter"",""5"",""25118""
","
",NA,NA,NA,NA,NA,NA,NA,NA,NA,NA,NA,NA,NA,NA,NA,NA,NA,NA,NA,NA,NA,NA,sub39
instructions-quiz,128,695599,0.0-69.0,TRUE,TRUE,FALSE,FALSE,"""event"",""trial"",""time""
""fullscreenenter"",""5"",""25118""
","
","
","""event"",""trial"",""time""
""fullscreenenter"",""5"",""25118""
","
",4983.82500000298,audio/quiz/Q1_Prompt.wav,NA,1,NA,NA,NA,NA,NA,NA,NA,NA,NA,NA,NA,NA,NA,NA,NA,NA,NA,NA,sub39
audio-keyboard-response,129,704769,0.0-70.0,TRUE,TRUE,FALSE,FALSE,"""event"",""trial"",""time""
""fullscreenenter"",""5"",""25118""
","
","
","""event"",""trial"",""time""
""fullscreenenter"",""5"",""25118""
","
",null,audio/quiz/Q1_Correct.wav,null,NA,NA,NA,NA,NA,NA,NA,NA,NA,NA,NA,NA,NA,NA,NA,NA,NA,NA,NA,sub39
instructions-quiz,130,722671,0.0-71.0,TRUE,TRUE,FALSE,FALSE,"""event"",""trial"",""time""
""fullscreenenter"",""5"",""25118""
","
","
","""event"",""trial"",""time""
""fullscreenenter"",""5"",""25118""
","
",17899.635000008857,audio/quiz/Q2_Prompt.wav,NA,0,NA,NA,NA,NA,NA,NA,NA,NA,NA,NA,NA,NA,NA,NA,NA,NA,NA,NA,sub39
audio-keyboard-response,131,735539,0.0-72.0,TRUE,TRUE,FALSE,FALSE,"""event"",""trial"",""time""
""fullscreenenter"",""5"",""25118""
","
","
","""event"",""trial"",""time""
""fullscreenenter"",""5"",""25118""
","
",null,audio/quiz/Q2_Correct.wav,null,NA,NA,NA,NA,NA,NA,NA,NA,NA,NA,NA,NA,NA,NA,NA,NA,NA,NA,NA,sub39
instructions-quiz,132,741014,0.0-73.0,TRUE,TRUE,FALSE,FALSE,"""event"",""trial"",""time""
""fullscreenenter"",""5"",""25118""
","
","
","""event"",""trial"",""time""
""fullscreenenter"",""5"",""25118""
","
",5473.605000006501,audio/quiz/Q3_Prompt.wav,NA,1,NA,NA,NA,NA,NA,NA,NA,NA,NA,NA,NA,NA,NA,NA,NA,NA,NA,NA,sub39
audio-keyboard-response,133,746809,0.0-74.0,TRUE,TRUE,FALSE,FALSE,"""event"",""trial"",""time""
""fullscreenenter"",""5"",""25118""
","
","
","""event"",""trial"",""time""
""fullscreenenter"",""5"",""25118""
","
",null,audio/quiz/Q3_Correct.wav,null,NA,NA,NA,NA,NA,NA,NA,NA,NA,NA,NA,NA,NA,NA,NA,NA,NA,NA,NA,sub39
d3-instructions,134,760990,0.0-75.0,TRUE,TRUE,FALSE,FALSE,"""event"",""trial"",""time""
""fullscreenenter"",""5"",""25118""
","
","
","""event"",""trial"",""time""
""fullscreenenter"",""5"",""25118""
","
",NA,NA,NA,NA,NA,NA,NA,NA,NA,NA,NA,NA,NA,NA,NA,NA,NA,NA,NA,NA,NA,NA,sub39
d3-animate-choice,135,764359,0.0-76.0-0.0,TRUE,TRUE,FALSE,FALSE,"""event"",""trial"",""time""
""fullscreenenter"",""5"",""25118""
","
","
","""event"",""trial"",""time""
""fullscreenenter"",""5"",""25118""
","
",1360.6199999921955,NA,49,NA,NA,3000,1,1688.6299999896437,49,images/earth.jpg,images/rocket2,images/rocket1,null,images/rocket1,NA,1,real,null,1,NA,NA,NA,sub39
d3-animate-choice,136,767167,0.0-76.0-1.0,TRUE,TRUE,FALSE,FALSE,"""event"",""trial"",""time""
""fullscreenenter"",""5"",""25118""
","
","
","""event"",""trial"",""time""
""fullscreenenter"",""5"",""25118""
","
",799.5349999982864,NA,48,NA,NA,3000,1,1255.5499999725726,48,images/purpleplanet.jpg,images/alien4,images/alien3,images/rocket1,images/alien4,images/t.png,2,real,false,2,rare,1,2020-06-13T15:22:00Z,sub39
two-step-fixation,137,768173,0.0-76.0-2.0,TRUE,TRUE,FALSE,FALSE,"""event"",""trial"",""time""
""fullscreenenter"",""5"",""25118""
","
","
","""event"",""trial"",""time""
""fullscreenenter"",""5"",""25118""
","
",NA,images/earth.jpg,NA,NA,NA,NA,NA,NA,NA,NA,NA,NA,NA,NA,NA,fixation,NA,NA,NA,NA,NA,NA,sub39
d3-animate-choice,138,770767,0.0-76.0-0.1,TRUE,TRUE,FALSE,FALSE,"""event"",""trial"",""time""
""fullscreenenter"",""5"",""25118""
","
","
","""event"",""trial"",""time""
""fullscreenenter"",""5"",""25118""
","
",589.4900000130292,NA,49,NA,NA,3000,1,1293.7800000072457,49,images/earth.jpg,images/rocket2,images/rocket1,null,images/rocket1,NA,1,real,null,1,NA,NA,NA,sub39
d3-animate-choice,139,773319,0.0-76.0-1.1,TRUE,TRUE,FALSE,FALSE,"""event"",""trial"",""time""
""fullscreenenter"",""5"",""25118""
","
","
","""event"",""trial"",""time""
""fullscreenenter"",""5"",""25118""
","
",547.4349999858532,NA,48,NA,NA,3000,1,1331.3250000064727,48,images/purpleplanet.jpg,images/alien4,images/alien3,images/rocket1,images/alien4,images/t.png,2,real,false,2,rare,1,2020-06-13T15:22:06Z,sub39
two-step-fixation,140,774326,0.0-76.0-2.1,TRUE,TRUE,FALSE,FALSE,"""event"",""trial"",""time""
""fullscreenenter"",""5"",""25118""
","
","
","""event"",""trial"",""time""
""fullscreenenter"",""5"",""25118""
","
",NA,images/earth.jpg,NA,NA,NA,NA,NA,NA,NA,NA,NA,NA,NA,NA,NA,fixation,NA,NA,NA,NA,NA,NA,sub39
d3-animate-choice,141,777999,0.0-76.0-0.2,TRUE,TRUE,FALSE,FALSE,"""event"",""trial"",""time""
""fullscreenenter"",""5"",""25118""
","
","
","""event"",""trial"",""time""
""fullscreenenter"",""5"",""25118""
","
",1665.8499999903142,NA,49,NA,NA,3000,1,1897.819999983767,49,images/earth.jpg,images/rocket2,images/rocket1,null,images/rocket1,NA,1,real,null,1,NA,NA,NA,sub39
d3-animate-choice,142,781014,0.0-76.0-1.2,TRUE,TRUE,FALSE,FALSE,"""event"",""trial"",""time""
""fullscreenenter"",""5"",""25118""
","
","
","""event"",""trial"",""time""
""fullscreenenter"",""5"",""25118""
","
",1008.1049999862444,NA,48,NA,NA,3000,1,"1231.8800000066403,1575.8599999826401",4848,images/redplanet1.jpg,images/alien2,images/alien1,images/rocket1,images/alien2,images/t.png,2,real,true,2,common,1,2020-06-13T15:22:14Z,sub39
two-step-fixation,143,782020,0.0-76.0-2.2,TRUE,TRUE,FALSE,FALSE,"""event"",""trial"",""time""
""fullscreenenter"",""5"",""25118""
","
","
","""event"",""trial"",""time""
""fullscreenenter"",""5"",""25118""
","
",NA,images/earth.jpg,NA,NA,NA,NA,NA,NA,NA,NA,NA,NA,NA,NA,NA,fixation,NA,NA,NA,NA,NA,NA,sub39
d3-animate-choice,144,784392,0.0-76.0-0.3,TRUE,TRUE,FALSE,FALSE,"""event"",""trial"",""time""
""fullscreenenter"",""5"",""25118""
","
","
","""event"",""trial"",""time""
""fullscreenenter"",""5"",""25118""
","
",364.49000000720844,NA,49,NA,NA,3000,1,740.0000000197906,49,images/earth.jpg,images/rocket2,images/rocket1,null,images/rocket1,NA,1,real,null,1,NA,NA,NA,sub39
d3-animate-choice,145,786878,0.0-76.0-1.3,TRUE,TRUE,FALSE,FALSE,"""event"",""trial"",""time""
""fullscreenenter"",""5"",""25118""
","
","
","""event"",""trial"",""time""
""fullscreenenter"",""5"",""25118""
","
",479.86999998101965,NA,48,NA,NA,3000,1,1007.789999974193,48,images/redplanet1.jpg,images/alien2,images/alien1,images/rocket1,images/alien2,images/t.png,2,real,true,2,common,1,2020-06-13T15:22:20Z,sub39
two-step-fixation,146,787886,0.0-76.0-2.3,TRUE,TRUE,FALSE,FALSE,"""event"",""trial"",""time""
""fullscreenenter"",""5"",""25118""
","
","
","""event"",""trial"",""time""
""fullscreenenter"",""5"",""25118""
","
",NA,images/earth.jpg,NA,NA,NA,NA,NA,NA,NA,NA,NA,NA,NA,NA,NA,fixation,NA,NA,NA,NA,NA,NA,sub39
d3-animate-choice,147,790310,0.0-76.0-0.4,TRUE,TRUE,FALSE,FALSE,"""event"",""trial"",""time""
""fullscreenenter"",""5"",""25118""
","
","
","""event"",""trial"",""time""
""fullscreenenter"",""5"",""25118""
","
",417.9100000183098,NA,49,NA,NA,3000,1,785.5600000184495,48,images/earth.jpg,images/rocket2,images/rocket1,null,images/rocket1,NA,1,real,null,1,NA,NA,NA,sub39
d3-animate-choice,148,792822,0.0-76.0-1.4,TRUE,TRUE,FALSE,FALSE,"""event"",""trial"",""time""
""fullscreenenter"",""5"",""25118""
","
","
","""event"",""trial"",""time""
""fullscreenenter"",""5"",""25118""
","
",505.34000000334345,NA,48,NA,NA,3000,1,929.7550000192132,48,images/redplanet1.jpg,images/alien2,images/alien1,images/rocket1,images/alien2,images/t.png,2,real,true,2,common,1,2020-06-13T15:22:26Z,sub39
two-step-fixation,149,793829,0.0-76.0-2.4,TRUE,TRUE,FALSE,FALSE,"""event"",""trial"",""time""
""fullscreenenter"",""5"",""25118""
","
","
","""event"",""trial"",""time""
""fullscreenenter"",""5"",""25118""
","
",NA,images/earth.jpg,NA,NA,NA,NA,NA,NA,NA,NA,NA,NA,NA,NA,NA,fixation,NA,NA,NA,NA,NA,NA,sub39
d3-animate-choice,150,796151,0.0-76.0-0.5,TRUE,TRUE,FALSE,FALSE,"""event"",""trial"",""time""
""fullscreenenter"",""5"",""25118""
","
","
","""event"",""trial"",""time""
""fullscreenenter"",""5"",""25118""
","
",314.11999999545515,NA,49,NA,NA,3000,1,658.4150000126101,48,images/earth.jpg,images/rocket2,images/rocket1,null,images/rocket1,NA,1,real,null,1,NA,NA,NA,sub39
d3-animate-choice,151,798814,0.0-76.0-1.5,TRUE,TRUE,FALSE,FALSE,"""event"",""trial"",""time""
""fullscreenenter"",""5"",""25118""
","
","
","""event"",""trial"",""time""
""fullscreenenter"",""5"",""25118""
","
",656.1100000108127,NA,48,NA,NA,3000,1,"1088.7849999999162,1415.8799999859184",4848,images/purpleplanet.jpg,images/alien4,images/alien3,images/rocket1,images/alien4,images/t.png,2,real,false,2,rare,1,2020-06-13T15:22:32Z,sub39
two-step-fixation,152,799820,0.0-76.0-2.5,TRUE,TRUE,FALSE,FALSE,"""event"",""trial"",""time""
""fullscreenenter"",""5"",""25118""
","
","
","""event"",""trial"",""time""
""fullscreenenter"",""5"",""25118""
","
",NA,images/earth.jpg,NA,NA,NA,NA,NA,NA,NA,NA,NA,NA,NA,NA,NA,fixation,NA,NA,NA,NA,NA,NA,sub39
d3-animate-choice,153,802190,0.0-76.0-0.6,TRUE,TRUE,FALSE,FALSE,"""event"",""trial"",""time""
""fullscreenenter"",""5"",""25118""
","
","
","""event"",""trial"",""time""
""fullscreenenter"",""5"",""25118""
","
",363.4299999976065,NA,49,NA,NA,3000,1,675.2400000113994,49,images/earth.jpg,images/rocket2,images/rocket1,null,images/rocket1,NA,1,real,null,1,NA,NA,NA,sub39
d3-animate-choice,154,804726,0.0-76.0-1.6,TRUE,TRUE,FALSE,FALSE,"""event"",""trial"",""time""
""fullscreenenter"",""5"",""25118""
","
","
","""event"",""trial"",""time""
""fullscreenenter"",""5"",""25118""
","
",529.5500000065658,NA,48,NA,NA,3000,1,"897.4750000052154,1241.5000000037253",4848,images/redplanet1.jpg,images/alien2,images/alien1,images/rocket1,images/alien2,images/t.png,2,real,true,2,common,1,2020-06-13T15:22:38Z,sub39
two-step-fixation,155,805732,0.0-76.0-2.6,TRUE,TRUE,FALSE,FALSE,"""event"",""trial"",""time""
""fullscreenenter"",""5"",""25118""
","
","
","""event"",""trial"",""time""
""fullscreenenter"",""5"",""25118""
","
",NA,images/earth.jpg,NA,NA,NA,NA,NA,NA,NA,NA,NA,NA,NA,NA,NA,fixation,NA,NA,NA,NA,NA,NA,sub39
d3-animate-choice,156,808079,0.0-76.0-0.7,TRUE,TRUE,FALSE,FALSE,"""event"",""trial"",""time""
""fullscreenenter"",""5"",""25118""
","
","
","""event"",""trial"",""time""
""fullscreenenter"",""5"",""25118""
","
",339.7450000047684,NA,49,NA,NA,3000,1,675.1100000110455,49,images/earth.jpg,images/rocket2,images/rocket1,null,images/rocket1,NA,1,real,null,1,NA,NA,NA,sub39
d3-animate-choice,157,810561,0.0-76.0-1.7,TRUE,TRUE,FALSE,FALSE,"""event"",""trial"",""time""
""fullscreenenter"",""5"",""25118""
","
","
","""event"",""trial"",""time""
""fullscreenenter"",""5"",""25118""
","
",473.599999997532,NA,48,NA,NA,3000,1,888.3499999938067,48,images/redplanet1.jpg,images/alien2,images/alien1,images/rocket1,images/alien2,images/nothing.png,2,real,true,2,common,0,2020-06-13T15:22:44Z,sub39
two-step-fixation,158,811571,0.0-76.0-2.7,TRUE,TRUE,FALSE,FALSE,"""event"",""trial"",""time""
""fullscreenenter"",""5"",""25118""
","
","
","""event"",""trial"",""time""
""fullscreenenter"",""5"",""25118""
","
",NA,images/earth.jpg,NA,NA,NA,NA,NA,NA,NA,NA,NA,NA,NA,NA,NA,fixation,NA,NA,NA,NA,NA,NA,sub39
d3-animate-choice,159,813783,0.0-76.0-0.8,TRUE,TRUE,FALSE,FALSE,"""event"",""trial"",""time""
""fullscreenenter"",""5"",""25118""
","
","
","""event"",""trial"",""time""
""fullscreenenter"",""5"",""25118""
","
",204.65500000864267,NA,49,NA,NA,3000,1,564.7400000016205,49,images/earth.jpg,images/rocket2,images/rocket1,null,images/rocket1,NA,1,real,null,1,NA,NA,NA,sub39
d3-animate-choice,160,816254,0.0-76.0-1.8,TRUE,TRUE,FALSE,FALSE,"""event"",""trial"",""time""
""fullscreenenter"",""5"",""25118""
","
","
","""event"",""trial"",""time""
""fullscreenenter"",""5"",""25118""
","
",464.53000002657063,NA,48,NA,NA,3000,1,769.4100000080653,48,images/redplanet1.jpg,images/alien2,images/alien1,images/rocket1,images/alien2,images/nothing.png,2,real,true,2,common,0,2020-06-13T15:22:49Z,sub39
two-step-fixation,161,817261,0.0-76.0-2.8,TRUE,TRUE,FALSE,FALSE,"""event"",""trial"",""time""
""fullscreenenter"",""5"",""25118""
","
","
","""event"",""trial"",""time""
""fullscreenenter"",""5"",""25118""
","
",NA,images/earth.jpg,NA,NA,NA,NA,NA,NA,NA,NA,NA,NA,NA,NA,NA,fixation,NA,NA,NA,NA,NA,NA,sub39
d3-animate-choice,162,819374,0.0-76.0-0.9,TRUE,TRUE,FALSE,FALSE,"""event"",""trial"",""time""
""fullscreenenter"",""5"",""25118""
","
","
","""event"",""trial"",""time""
""fullscreenenter"",""5"",""25118""
","
",106.35000001639128,NA,49,NA,NA,3000,1,539.0250000054948,49,images/earth.jpg,images/rocket2,images/rocket1,null,images/rocket1,NA,1,real,null,1,NA,NA,NA,sub39
d3-animate-choice,163,821902,0.0-76.0-1.9,TRUE,TRUE,FALSE,FALSE,"""event"",""trial"",""time""
""fullscreenenter"",""5"",""25118""
","
","
","""event"",""trial"",""time""
""fullscreenenter"",""5"",""25118""
","
",521.999999997206,NA,49,NA,NA,3000,1,"1051.8999999912921,1441.9550000166055",4949,images/redplanet1.jpg,images/alien2,images/alien1,images/rocket1,images/alien1,images/nothing.png,2,real,true,1,common,0,2020-06-13T15:22:55Z,sub39
two-step-fixation,164,822908,0.0-76.0-2.9,TRUE,TRUE,FALSE,FALSE,"""event"",""trial"",""time""
""fullscreenenter"",""5"",""25118""
","
","
","""event"",""trial"",""time""
""fullscreenenter"",""5"",""25118""
","
",NA,images/earth.jpg,NA,NA,NA,NA,NA,NA,NA,NA,NA,NA,NA,NA,NA,fixation,NA,NA,NA,NA,NA,NA,sub39
d3-animate-choice,165,825061,0.0-76.0-0.10,TRUE,TRUE,FALSE,FALSE,"""event"",""trial"",""time""
""fullscreenenter"",""5"",""25118""
","
","
","""event"",""trial"",""time""
""fullscreenenter"",""5"",""25118""
","
",147.38500001840293,NA,49,NA,NA,3000,1,508.1050000153482,49,images/earth.jpg,images/rocket2,images/rocket1,null,images/rocket1,NA,1,real,null,1,NA,NA,NA,sub39
d3-animate-choice,166,827574,0.0-76.0-1.10,TRUE,TRUE,FALSE,FALSE,"""event"",""trial"",""time""
""fullscreenenter"",""5"",""25118""
","
","
","""event"",""trial"",""time""
""fullscreenenter"",""5"",""25118""
","
",505.86499998462386,NA,48,NA,NA,3000,1,882.484999980079,48,images/redplanet1.jpg,images/alien2,images/alien1,images/rocket1,images/alien2,images/t.png,2,real,true,2,common,1,2020-06-13T15:23:01Z,sub39
two-step-fixation,167,828580,0.0-76.0-2.10,TRUE,TRUE,FALSE,FALSE,"""event"",""trial"",""time""
""fullscreenenter"",""5"",""25118""
","
","
","""event"",""trial"",""time""
""fullscreenenter"",""5"",""25118""
","
",NA,images/earth.jpg,NA,NA,NA,NA,NA,NA,NA,NA,NA,NA,NA,NA,NA,fixation,NA,NA,NA,NA,NA,NA,sub39
d3-animate-choice,168,830903,0.0-76.0-0.11,TRUE,TRUE,FALSE,FALSE,"""event"",""trial"",""time""
""fullscreenenter"",""5"",""25118""
","
","
","""event"",""trial"",""time""
""fullscreenenter"",""5"",""25118""
","
",318.3300000091549,NA,48,NA,NA,3000,1,646.0300000035204,48,images/earth.jpg,images/rocket2,images/rocket1,null,images/rocket2,NA,1,real,null,2,NA,NA,NA,sub39
d3-animate-choice,169,833358,0.0-76.0-1.11,TRUE,TRUE,FALSE,FALSE,"""event"",""trial"",""time""
""fullscreenenter"",""5"",""25118""
","
","
","""event"",""trial"",""time""
""fullscreenenter"",""5"",""25118""
","
",448.5199999762699,NA,48,NA,NA,3000,1,848.4049999970011,48,images/purpleplanet.jpg,images/alien4,images/alien3,images/rocket2,images/alien4,images/t.png,2,real,true,2,common,1,2020-06-13T15:23:07Z,sub39
two-step-fixation,170,834364,0.0-76.0-2.11,TRUE,TRUE,FALSE,FALSE,"""event"",""trial"",""time""
""fullscreenenter"",""5"",""25118""
","
","
","""event"",""trial"",""time""
""fullscreenenter"",""5"",""25118""
","
",NA,images/earth.jpg,NA,NA,NA,NA,NA,NA,NA,NA,NA,NA,NA,NA,NA,fixation,NA,NA,NA,NA,NA,NA,sub39
d3-animate-choice,171,836702,0.0-76.0-0.12,TRUE,TRUE,FALSE,FALSE,"""event"",""trial"",""time""
""fullscreenenter"",""5"",""25118""
","
","
","""event"",""trial"",""time""
""fullscreenenter"",""5"",""25118""
","
",330.89000001200475,NA,48,NA,NA,3000,1,682.104999985313,48,images/earth.jpg,images/rocket2,images/rocket1,null,images/rocket2,NA,1,real,null,2,NA,NA,NA,sub39
d3-animate-choice,172,839127,0.0-76.0-1.12,TRUE,TRUE,FALSE,FALSE,"""event"",""trial"",""time""
""fullscreenenter"",""5"",""25118""
","
","
","""event"",""trial"",""time""
""fullscreenenter"",""5"",""25118""
","
",418.1749999988824,NA,48,NA,NA,3000,1,841.5399999939837,48,images/purpleplanet.jpg,images/alien4,images/alien3,images/rocket2,images/alien4,images/t.png,2,real,true,2,common,1,2020-06-13T15:23:12Z,sub39
two-step-fixation,173,840133,0.0-76.0-2.12,TRUE,TRUE,FALSE,FALSE,"""event"",""trial"",""time""
""fullscreenenter"",""5"",""25118""
","
","
","""event"",""trial"",""time""
""fullscreenenter"",""5"",""25118""
","
",NA,images/earth.jpg,NA,NA,NA,NA,NA,NA,NA,NA,NA,NA,NA,NA,NA,fixation,NA,NA,NA,NA,NA,NA,sub39
d3-animate-choice,174,842496,0.0-76.0-0.13,TRUE,TRUE,FALSE,FALSE,"""event"",""trial"",""time""
""fullscreenenter"",""5"",""25118""
","
","
","""event"",""trial"",""time""
""fullscreenenter"",""5"",""25118""
","
",356.1549999867566,NA,48,NA,NA,3000,1,690.679999999702,48,images/earth.jpg,images/rocket2,images/rocket1,null,images/rocket2,NA,1,real,null,2,NA,NA,NA,sub39
d3-animate-choice,175,844878,0.0-76.0-1.13,TRUE,TRUE,FALSE,FALSE,"""event"",""trial"",""time""
""fullscreenenter"",""5"",""25118""
","
","
","""event"",""trial"",""time""
""fullscreenenter"",""5"",""25118""
","
",375.33500001882203,NA,48,NA,NA,3000,1,735.3000000002794,48,images/purpleplanet.jpg,images/alien4,images/alien3,images/rocket2,images/alien4,images/t.png,2,real,true,2,common,1,2020-06-13T15:23:18Z,sub39
two-step-fixation,176,845885,0.0-76.0-2.13,TRUE,TRUE,FALSE,FALSE,"""event"",""trial"",""time""
""fullscreenenter"",""5"",""25118""
","
","
","""event"",""trial"",""time""
""fullscreenenter"",""5"",""25118""
","
",NA,images/earth.jpg,NA,NA,NA,NA,NA,NA,NA,NA,NA,NA,NA,NA,NA,fixation,NA,NA,NA,NA,NA,NA,sub39
d3-animate-choice,177,848255,0.0-76.0-0.14,TRUE,TRUE,FALSE,FALSE,"""event"",""trial"",""time""
""fullscreenenter"",""5"",""25118""
","
","
","""event"",""trial"",""time""
""fullscreenenter"",""5"",""25118""
","
",361.3500000210479,NA,48,NA,NA,3000,1,713.3150000008754,48,images/earth.jpg,images/rocket2,images/rocket1,null,images/rocket2,NA,1,real,null,2,NA,NA,NA,sub39
d3-animate-choice,178,850606,0.0-76.0-1.14,TRUE,TRUE,FALSE,FALSE,"""event"",""trial"",""time""
""fullscreenenter"",""5"",""25118""
","
","
","""event"",""trial"",""time""
""fullscreenenter"",""5"",""25118""
","
",344.7100000048522,NA,48,NA,NA,3000,1,976.7299999948591,48,images/purpleplanet.jpg,images/alien4,images/alien3,images/rocket2,images/alien4,images/t.png,2,real,true,2,common,1,2020-06-13T15:23:24Z,sub39
two-step-fixation,179,851613,0.0-76.0-2.14,TRUE,TRUE,FALSE,FALSE,"""event"",""trial"",""time""
""fullscreenenter"",""5"",""25118""
","
","
","""event"",""trial"",""time""
""fullscreenenter"",""5"",""25118""
","
",NA,images/earth.jpg,NA,NA,NA,NA,NA,NA,NA,NA,NA,NA,NA,NA,NA,fixation,NA,NA,NA,NA,NA,NA,sub39
d3-animate-choice,180,853966,0.0-76.0-0.15,TRUE,TRUE,FALSE,FALSE,"""event"",""trial"",""time""
""fullscreenenter"",""5"",""25118""
","
","
","""event"",""trial"",""time""
""fullscreenenter"",""5"",""25118""
","
",345.7650000054855,NA,48,NA,NA,3000,1,681.2150000187103,48,images/earth.jpg,images/rocket2,images/rocket1,null,images/rocket2,NA,1,real,null,2,NA,NA,NA,sub39
d3-animate-choice,181,856350,0.0-76.0-1.15,TRUE,TRUE,FALSE,FALSE,"""event"",""trial"",""time""
""fullscreenenter"",""5"",""25118""
","
","
","""event"",""trial"",""time""
""fullscreenenter"",""5"",""25118""
","
",376.91500000073574,NA,48,NA,NA,3000,1,792.6399999996647,48,images/purpleplanet.jpg,images/alien4,images/alien3,images/rocket2,images/alien4,images/t.png,2,real,true,2,common,1,2020-06-13T15:23:30Z,sub39
two-step-fixation,182,857356,0.0-76.0-2.15,TRUE,TRUE,FALSE,FALSE,"""event"",""trial"",""time""
""fullscreenenter"",""5"",""25118""
","
","
","""event"",""trial"",""time""
""fullscreenenter"",""5"",""25118""
","
",NA,images/earth.jpg,NA,NA,NA,NA,NA,NA,NA,NA,NA,NA,NA,NA,NA,fixation,NA,NA,NA,NA,NA,NA,sub39
d3-animate-choice,183,859471,0.0-76.0-0.16,TRUE,TRUE,FALSE,FALSE,"""event"",""trial"",""time""
""fullscreenenter"",""5"",""25118""
","
","
","""event"",""trial"",""time""
""fullscreenenter"",""5"",""25118""
","
",107.82500001369044,NA,48,NA,NA,3000,1,"475.83000001031905,995.7149999972899,1507.5450000003912",484848,images/earth.jpg,images/rocket2,images/rocket1,null,images/rocket2,NA,1,real,null,2,NA,NA,NA,sub39
d3-animate-choice,184,861854,0.0-76.0-1.16,TRUE,TRUE,FALSE,FALSE,"""event"",""trial"",""time""
""fullscreenenter"",""5"",""25118""
","
","
","""event"",""trial"",""time""
""fullscreenenter"",""5"",""25118""
","
",376.6499999910593,NA,48,NA,NA,3000,1,"752.6200000138488,1424.8650000081398",4848,images/purpleplanet.jpg,images/alien4,images/alien3,images/rocket2,images/alien4,images/t.png,2,real,true,2,common,1,2020-06-13T15:23:35Z,sub39
two-step-fixation,185,862860,0.0-76.0-2.16,TRUE,TRUE,FALSE,FALSE,"""event"",""trial"",""time""
""fullscreenenter"",""5"",""25118""
","
","
","""event"",""trial"",""time""
""fullscreenenter"",""5"",""25118""
","
",NA,images/earth.jpg,NA,NA,NA,NA,NA,NA,NA,NA,NA,NA,NA,NA,NA,fixation,NA,NA,NA,NA,NA,NA,sub39
d3-animate-choice,186,865243,0.0-76.0-0.17,TRUE,TRUE,FALSE,FALSE,"""event"",""trial"",""time""
""fullscreenenter"",""5"",""25118""
","
","
","""event"",""trial"",""time""
""fullscreenenter"",""5"",""25118""
","
",372.00999999186024,NA,48,NA,NA,3000,1,730.9050000039861,48,images/earth.jpg,images/rocket2,images/rocket1,null,images/rocket2,NA,1,real,null,2,NA,NA,NA,sub39
d3-animate-choice,187,867563,0.0-76.0-1.17,TRUE,TRUE,FALSE,FALSE,"""event"",""trial"",""time""
""fullscreenenter"",""5"",""25118""
","
","
","""event"",""trial"",""time""
""fullscreenenter"",""5"",""25118""
","
",311.32000000798143,NA,48,NA,NA,3000,1,"707.9249999951571,1220.0299999967683",4848,images/purpleplanet.jpg,images/alien4,images/alien3,images/rocket2,images/alien4,images/t.png,2,real,true,2,common,1,2020-06-13T15:23:41Z,sub39
two-step-fixation,188,868570,0.0-76.0-2.17,TRUE,TRUE,FALSE,FALSE,"""event"",""trial"",""time""
""fullscreenenter"",""5"",""25118""
","
","
","""event"",""trial"",""time""
""fullscreenenter"",""5"",""25118""
","
",NA,images/earth.jpg,NA,NA,NA,NA,NA,NA,NA,NA,NA,NA,NA,NA,NA,fixation,NA,NA,NA,NA,NA,NA,sub39
d3-animate-choice,189,870846,0.0-76.0-0.18,TRUE,TRUE,FALSE,FALSE,"""event"",""trial"",""time""
""fullscreenenter"",""5"",""25118""
","
","
","""event"",""trial"",""time""
""fullscreenenter"",""5"",""25118""
","
",270.15499997651204,NA,48,NA,NA,3000,1,661.9399999908637,48,images/earth.jpg,images/rocket2,images/rocket1,null,images/rocket2,NA,1,real,null,2,NA,NA,NA,sub39
d3-animate-choice,190,873286,0.0-76.0-1.18,TRUE,TRUE,FALSE,FALSE,"""event"",""trial"",""time""
""fullscreenenter"",""5"",""25118""
","
","
","""event"",""trial"",""time""
""fullscreenenter"",""5"",""25118""
","
",433.164999994915,NA,48,NA,NA,3000,1,"865.2399999846239,1322.0249999722",4848,images/purpleplanet.jpg,images/alien4,images/alien3,images/rocket2,images/alien4,images/t.png,2,real,true,2,common,1,2020-06-13T15:23:46Z,sub39
two-step-fixation,191,874292,0.0-76.0-2.18,TRUE,TRUE,FALSE,FALSE,"""event"",""trial"",""time""
""fullscreenenter"",""5"",""25118""
","
","
","""event"",""trial"",""time""
""fullscreenenter"",""5"",""25118""
","
",NA,images/earth.jpg,NA,NA,NA,NA,NA,NA,NA,NA,NA,NA,NA,NA,NA,fixation,NA,NA,NA,NA,NA,NA,sub39
d3-animate-choice,192,876679,0.0-76.0-0.19,TRUE,TRUE,FALSE,FALSE,"""event"",""trial"",""time""
""fullscreenenter"",""5"",""25118""
","
","
","""event"",""trial"",""time""
""fullscreenenter"",""5"",""25118""
","
",380.0500000070315,NA,48,NA,NA,3000,1,731.7249999905471,48,images/earth.jpg,images/rocket2,images/rocket1,null,images/rocket2,NA,1,real,null,2,NA,NA,NA,sub39
d3-animate-choice,193,879046,0.0-76.0-1.19,TRUE,TRUE,FALSE,FALSE,"""event"",""trial"",""time""
""fullscreenenter"",""5"",""25118""
","
","
","""event"",""trial"",""time""
""fullscreenenter"",""5"",""25118""
","
",359.90000001038425,NA,48,NA,NA,3000,1,"695.9700000006706,1334.1049999871757",4848,images/purpleplanet.jpg,images/alien4,images/alien3,images/rocket2,images/alien4,images/t.png,2,real,true,2,common,1,2020-06-13T15:23:52Z,sub39
two-step-fixation,194,880049,0.0-76.0-2.19,TRUE,TRUE,FALSE,FALSE,"""event"",""trial"",""time""
""fullscreenenter"",""5"",""25118""
","
","
","""event"",""trial"",""time""
""fullscreenenter"",""5"",""25118""
","
",NA,images/earth.jpg,NA,NA,NA,NA,NA,NA,NA,NA,NA,NA,NA,NA,NA,fixation,NA,NA,NA,NA,NA,NA,sub39
d3-animate-choice,195,882101,0.0-76.0-0.20,TRUE,TRUE,FALSE,FALSE,"""event"",""trial"",""time""
""fullscreenenter"",""5"",""25118""
","
","
","""event"",""trial"",""time""
""fullscreenenter"",""5"",""25118""
","
",46.16999998688698,NA,48,NA,NA,3000,1,"374.54499999876134,910.6049999827519,1321.1449999944307",484848,images/earth.jpg,images/rocket2,images/rocket1,null,images/rocket2,NA,1,real,null,2,NA,NA,NA,sub39
d3-animate-choice,196,884549,0.0-76.0-1.20,TRUE,TRUE,FALSE,FALSE,"""event"",""trial"",""time""
""fullscreenenter"",""5"",""25118""
","
","
","""event"",""trial"",""time""
""fullscreenenter"",""5"",""25118""
","
",442.17999998363666,NA,48,NA,NA,3000,1,"690.0000000023283,994.3250000069384",4848,images/purpleplanet.jpg,images/alien4,images/alien3,images/rocket2,images/alien4,images/t.png,2,real,true,2,common,1,2020-06-13T15:23:58Z,sub39
two-step-fixation,197,885558,0.0-76.0-2.20,TRUE,TRUE,FALSE,FALSE,"""event"",""trial"",""time""
""fullscreenenter"",""5"",""25118""
","
","
","""event"",""trial"",""time""
""fullscreenenter"",""5"",""25118""
","
",NA,images/earth.jpg,NA,NA,NA,NA,NA,NA,NA,NA,NA,NA,NA,NA,NA,fixation,NA,NA,NA,NA,NA,NA,sub39
d3-animate-choice,198,887966,0.0-76.0-0.21,TRUE,TRUE,FALSE,FALSE,"""event"",""trial"",""time""
""fullscreenenter"",""5"",""25118""
","
","
","""event"",""trial"",""time""
""fullscreenenter"",""5"",""25118""
","
",400.6999999983236,NA,48,NA,NA,3000,1,"696.3249999971595,1072.1649999904912,1696.380000008503",484848,images/earth.jpg,images/rocket2,images/rocket1,null,images/rocket2,NA,1,real,null,2,NA,NA,NA,sub39
d3-animate-choice,199,889974,0.0-76.0-1.21,TRUE,TRUE,FALSE,FALSE,"""event"",""trial"",""time""
""fullscreenenter"",""5"",""25118""
","
","
","""event"",""trial"",""time""
""fullscreenenter"",""5"",""25118""
","
",0.4650000191759318,NA,48,NA,NA,3000,1,"377.89000000339,688.6950000189245,1080.8499999984633",484848,images/purpleplanet.jpg,images/alien4,images/alien3,images/rocket2,images/alien4,images/nothing.png,2,real,true,2,common,0,2020-06-13T15:24:03Z,sub39
two-step-fixation,200,890980,0.0-76.0-2.21,TRUE,TRUE,FALSE,FALSE,"""event"",""trial"",""time""
""fullscreenenter"",""5"",""25118""
","
","
","""event"",""trial"",""time""
""fullscreenenter"",""5"",""25118""
","
",NA,images/earth.jpg,NA,NA,NA,NA,NA,NA,NA,NA,NA,NA,NA,NA,NA,fixation,NA,NA,NA,NA,NA,NA,sub39
d3-animate-choice,201,893302,0.0-76.0-0.22,TRUE,TRUE,FALSE,FALSE,"""event"",""trial"",""time""
""fullscreenenter"",""5"",""25118""
","
","
","""event"",""trial"",""time""
""fullscreenenter"",""5"",""25118""
","
",315.535000001546,NA,48,NA,NA,3000,1,"643.2999999960884,1758.9049999951385",4848,images/earth.jpg,images/rocket2,images/rocket1,null,images/rocket2,NA,1,real,null,2,NA,NA,NA,sub39
d3-animate-choice,202,895631,0.0-76.0-1.22,TRUE,TRUE,FALSE,FALSE,"""event"",""trial"",""time""
""fullscreenenter"",""5"",""25118""
","
","
","""event"",""trial"",""time""
""fullscreenenter"",""5"",""25118""
","
",319.4799999764655,NA,48,NA,NA,3000,1,577.3950000002515,48,images/purpleplanet.jpg,images/alien4,images/alien3,images/rocket2,images/alien4,images/t.png,2,real,true,2,common,1,2020-06-13T15:24:09Z,sub39
two-step-fixation,203,896637,0.0-76.0-2.22,TRUE,TRUE,FALSE,FALSE,"""event"",""trial"",""time""
""fullscreenenter"",""5"",""25118""
","
","
","""event"",""trial"",""time""
""fullscreenenter"",""5"",""25118""
","
",NA,images/earth.jpg,NA,NA,NA,NA,NA,NA,NA,NA,NA,NA,NA,NA,NA,fixation,NA,NA,NA,NA,NA,NA,sub39
d3-animate-choice,204,899022,0.0-76.0-0.23,TRUE,TRUE,FALSE,FALSE,"""event"",""trial"",""time""
""fullscreenenter"",""5"",""25118""
","
","
","""event"",""trial"",""time""
""fullscreenenter"",""5"",""25118""
","
",378.6499999987427,NA,48,NA,NA,3000,1,723.2299999741372,48,images/earth.jpg,images/rocket2,images/rocket1,null,images/rocket2,NA,1,real,null,2,NA,NA,NA,sub39
d3-animate-choice,205,901406,0.0-76.0-1.23,TRUE,TRUE,FALSE,FALSE,"""event"",""trial"",""time""
""fullscreenenter"",""5"",""25118""
","
","
","""event"",""trial"",""time""
""fullscreenenter"",""5"",""25118""
","
",375.56499999482185,NA,48,NA,NA,3000,1,"647.7149999991525,991.6249999951106,1295.5300000030547,1799.6099999872968,2127.4949999933597",4848484848,images/purpleplanet.jpg,images/alien4,images/alien3,images/rocket2,images/alien4,images/t.png,2,real,true,2,common,1,2020-06-13T15:24:15Z,sub39
two-step-fixation,206,902412,0.0-76.0-2.23,TRUE,TRUE,FALSE,FALSE,"""event"",""trial"",""time""
""fullscreenenter"",""5"",""25118""
","
","
","""event"",""trial"",""time""
""fullscreenenter"",""5"",""25118""
","
",NA,images/earth.jpg,NA,NA,NA,NA,NA,NA,NA,NA,NA,NA,NA,NA,NA,fixation,NA,NA,NA,NA,NA,NA,sub39
d3-animate-choice,207,904510,0.0-76.0-0.24,TRUE,TRUE,FALSE,FALSE,"""event"",""trial"",""time""
""fullscreenenter"",""5"",""25118""
","
","
","""event"",""trial"",""time""
""fullscreenenter"",""5"",""25118""
","
",90.93999999458902,NA,48,NA,NA,3000,1,"388.2199999934528,610.1849999977276,883.3600000070874",484848,images/earth.jpg,images/rocket2,images/rocket1,null,images/rocket2,NA,1,real,null,2,NA,NA,NA,sub39
d3-animate-choice,208,907591,0.0-76.0-1.24,TRUE,TRUE,FALSE,FALSE,"""event"",""trial"",""time""
""fullscreenenter"",""5"",""25118""
","
","
","""event"",""trial"",""time""
""fullscreenenter"",""5"",""25118""
","
",1069.8649999976624,NA,48,NA,NA,3000,1,"1276.7999999923632,1517.1100000152364",4848,images/redplanet1.jpg,images/alien2,images/alien1,images/rocket2,images/alien2,images/t.png,2,real,false,2,rare,1,2020-06-13T15:24:21Z,sub39
two-step-fixation,209,908599,0.0-76.0-2.24,TRUE,TRUE,FALSE,FALSE,"""event"",""trial"",""time""
""fullscreenenter"",""5"",""25118""
","
","
","""event"",""trial"",""time""
""fullscreenenter"",""5"",""25118""
","
",NA,images/earth.jpg,NA,NA,NA,NA,NA,NA,NA,NA,NA,NA,NA,NA,NA,fixation,NA,NA,NA,NA,NA,NA,sub39
d3-animate-choice,210,910966,0.0-76.0-0.25,TRUE,TRUE,FALSE,FALSE,"""event"",""trial"",""time""
""fullscreenenter"",""5"",""25118""
","
","
","""event"",""trial"",""time""
""fullscreenenter"",""5"",""25118""
","
",361.45999998552725,NA,48,NA,NA,3000,1,"688.8899999903515,945.015000004787,1304.9549999996088",484848,images/earth.jpg,images/rocket2,images/rocket1,null,images/rocket2,NA,1,real,null,2,NA,NA,NA,sub39
d3-animate-choice,211,913486,0.0-76.0-1.25,TRUE,TRUE,FALSE,FALSE,"""event"",""trial"",""time""
""fullscreenenter"",""5"",""25118""
","
","
","""event"",""trial"",""time""
""fullscreenenter"",""5"",""25118""
","
",513.1999999866821,NA,48,NA,NA,3000,1,"833.2349999982398,1185.1150000002235",4848,images/redplanet1.jpg,images/alien2,images/alien1,images/rocket2,images/alien2,images/nothing.png,2,real,false,2,rare,0,2020-06-13T15:24:27Z,sub39
two-step-fixation,212,914493,0.0-76.0-2.25,TRUE,TRUE,FALSE,FALSE,"""event"",""trial"",""time""
""fullscreenenter"",""5"",""25118""
","
","
","""event"",""trial"",""time""
""fullscreenenter"",""5"",""25118""
","
",NA,images/earth.jpg,NA,NA,NA,NA,NA,NA,NA,NA,NA,NA,NA,NA,NA,fixation,NA,NA,NA,NA,NA,NA,sub39
d3-animate-choice,213,916751,0.0-76.0-0.26,TRUE,TRUE,FALSE,FALSE,"""event"",""trial"",""time""
""fullscreenenter"",""5"",""25118""
","
","
","""event"",""trial"",""time""
""fullscreenenter"",""5"",""25118""
","
",250.71500000194646,NA,48,NA,NA,3000,1,554.6449999965262,48,images/earth.jpg,images/rocket2,images/rocket1,null,images/rocket2,NA,1,real,null,2,NA,NA,NA,sub39
d3-animate-choice,214,919190,0.0-76.0-1.26,TRUE,TRUE,FALSE,FALSE,"""event"",""trial"",""time""
""fullscreenenter"",""5"",""25118""
","
","
","""event"",""trial"",""time""
""fullscreenenter"",""5"",""25118""
","
",432.51499999314547,NA,48,NA,NA,3000,1,736.9849999959115,48,images/purpleplanet.jpg,images/alien4,images/alien3,images/rocket2,images/alien4,images/t.png,2,real,true,2,common,1,2020-06-13T15:24:32Z,sub39
two-step-fixation,215,920197,0.0-76.0-2.26,TRUE,TRUE,FALSE,FALSE,"""event"",""trial"",""time""
""fullscreenenter"",""5"",""25118""
","
","
","""event"",""trial"",""time""
""fullscreenenter"",""5"",""25118""
","
",NA,images/earth.jpg,NA,NA,NA,NA,NA,NA,NA,NA,NA,NA,NA,NA,NA,fixation,NA,NA,NA,NA,NA,NA,sub39
d3-animate-choice,216,922727,0.0-76.0-0.27,TRUE,TRUE,FALSE,FALSE,"""event"",""trial"",""time""
""fullscreenenter"",""5"",""25118""
","
","
","""event"",""trial"",""time""
""fullscreenenter"",""5"",""25118""
","
",522.8099999949336,NA,48,NA,NA,3000,1,"866.6950000042561,1211.1250000016298",4848,images/earth.jpg,images/rocket2,images/rocket1,null,images/rocket2,NA,1,real,null,2,NA,NA,NA,sub39
d3-animate-choice,217,925110,0.0-76.0-1.27,TRUE,TRUE,FALSE,FALSE,"""event"",""trial"",""time""
""fullscreenenter"",""5"",""25118""
","
","
","""event"",""trial"",""time""
""fullscreenenter"",""5"",""25118""
","
",376.0550000006333,NA,48,NA,NA,3000,1,656.554999994114,48,images/purpleplanet.jpg,images/alien4,images/alien3,images/rocket2,images/alien4,images/nothing.png,2,real,true,2,common,0,2020-06-13T15:24:38Z,sub39
two-step-fixation,218,926119,0.0-76.0-2.27,TRUE,TRUE,FALSE,FALSE,"""event"",""trial"",""time""
""fullscreenenter"",""5"",""25118""
","
","
","""event"",""trial"",""time""
""fullscreenenter"",""5"",""25118""
","
",NA,images/earth.jpg,NA,NA,NA,NA,NA,NA,NA,NA,NA,NA,NA,NA,NA,fixation,NA,NA,NA,NA,NA,NA,sub39
d3-animate-choice,219,928173,0.0-76.0-0.28,TRUE,TRUE,FALSE,FALSE,"""event"",""trial"",""time""
""fullscreenenter"",""5"",""25118""
","
","
","""event"",""trial"",""time""
""fullscreenenter"",""5"",""25118""
","
",45.799999992595986,NA,48,NA,NA,3000,1,398.5849999880884,48,images/earth.jpg,images/rocket2,images/rocket1,null,images/rocket2,NA,1,real,null,2,NA,NA,NA,sub39
d3-animate-choice,220,930670,0.0-76.0-1.28,TRUE,TRUE,FALSE,FALSE,"""event"",""trial"",""time""
""fullscreenenter"",""5"",""25118""
","
","
","""event"",""trial"",""time""
""fullscreenenter"",""5"",""25118""
","
",484.3550000223331,NA,48,NA,NA,3000,1,851.7700000084005,48,images/redplanet1.jpg,images/alien2,images/alien1,images/rocket2,images/alien2,images/t.png,2,real,false,2,rare,1,2020-06-13T15:24:44Z,sub39
two-step-fixation,221,931676,0.0-76.0-2.28,TRUE,TRUE,FALSE,FALSE,"""event"",""trial"",""time""
""fullscreenenter"",""5"",""25118""
","
","
","""event"",""trial"",""time""
""fullscreenenter"",""5"",""25118""
","
",NA,images/earth.jpg,NA,NA,NA,NA,NA,NA,NA,NA,NA,NA,NA,NA,NA,fixation,NA,NA,NA,NA,NA,NA,sub39
d3-animate-choice,222,933710,0.0-76.0-0.29,TRUE,TRUE,FALSE,FALSE,"""event"",""trial"",""time""
""fullscreenenter"",""5"",""25118""
","
","
","""event"",""trial"",""time""
""fullscreenenter"",""5"",""25118""
","
",26.720000023487955,NA,48,NA,NA,3000,1,403.2250000163913,48,images/earth.jpg,images/rocket2,images/rocket1,null,images/rocket2,NA,1,real,null,2,NA,NA,NA,sub39
d3-animate-choice,223,936142,0.0-76.0-1.29,TRUE,TRUE,FALSE,FALSE,"""event"",""trial"",""time""
""fullscreenenter"",""5"",""25118""
","
","
","""event"",""trial"",""time""
""fullscreenenter"",""5"",""25118""
","
",425.4650000075344,NA,48,NA,NA,3000,1,705.6800000136718,48,images/purpleplanet.jpg,images/alien4,images/alien3,images/rocket2,images/alien4,images/nothing.png,2,real,true,2,common,0,2020-06-13T15:24:49Z,sub39
two-step-fixation,224,937148,0.0-76.0-2.29,TRUE,TRUE,FALSE,FALSE,"""event"",""trial"",""time""
""fullscreenenter"",""5"",""25118""
","
","
","""event"",""trial"",""time""
""fullscreenenter"",""5"",""25118""
","
",NA,images/earth.jpg,NA,NA,NA,NA,NA,NA,NA,NA,NA,NA,NA,NA,NA,fixation,NA,NA,NA,NA,NA,NA,sub39
d3-animate-choice,225,939511,0.0-76.0-0.30,TRUE,TRUE,FALSE,FALSE,"""event"",""trial"",""time""
""fullscreenenter"",""5"",""25118""
","
","
","""event"",""trial"",""time""
""fullscreenenter"",""5"",""25118""
","
",355.70499999448657,NA,48,NA,NA,3000,1,675.5149999808054,48,images/earth.jpg,images/rocket2,images/rocket1,null,images/rocket2,NA,1,real,null,2,NA,NA,NA,sub39
d3-animate-choice,226,942150,0.0-76.0-1.30,TRUE,TRUE,FALSE,FALSE,"""event"",""trial"",""time""
""fullscreenenter"",""5"",""25118""
","
","
","""event"",""trial"",""time""
""fullscreenenter"",""5"",""25118""
","
",632.2999999974854,NA,48,NA,NA,3000,1,"977.4150000012014,1336.1349999904633",4848,images/redplanet1.jpg,images/alien2,images/alien1,images/rocket2,images/alien2,images/t.png,2,real,false,2,rare,1,2020-06-13T15:24:55Z,sub39
two-step-fixation,227,943156,0.0-76.0-2.30,TRUE,TRUE,FALSE,FALSE,"""event"",""trial"",""time""
""fullscreenenter"",""5"",""25118""
","
","
","""event"",""trial"",""time""
""fullscreenenter"",""5"",""25118""
","
",NA,images/earth.jpg,NA,NA,NA,NA,NA,NA,NA,NA,NA,NA,NA,NA,NA,fixation,NA,NA,NA,NA,NA,NA,sub39
d3-animate-choice,228,945536,0.0-76.0-0.31,TRUE,TRUE,FALSE,FALSE,"""event"",""trial"",""time""
""fullscreenenter"",""5"",""25118""
","
","
","""event"",""trial"",""time""
""fullscreenenter"",""5"",""25118""
","
",372.12000001454726,NA,48,NA,NA,3000,1,667.4400000192691,48,images/earth.jpg,images/rocket2,images/rocket1,null,images/rocket2,NA,1,real,null,2,NA,NA,NA,sub39
d3-animate-choice,229,948007,0.0-76.0-1.31,TRUE,TRUE,FALSE,FALSE,"""event"",""trial"",""time""
""fullscreenenter"",""5"",""25118""
","
","
","""event"",""trial"",""time""
""fullscreenenter"",""5"",""25118""
","
",464.2599999788217,NA,49,NA,NA,3000,1,830.8799999940675,49,images/purpleplanet.jpg,images/alien4,images/alien3,images/rocket2,images/alien3,images/t.png,2,real,true,1,common,1,2020-06-13T15:25:01Z,sub39
two-step-fixation,230,949013,0.0-76.0-2.31,TRUE,TRUE,FALSE,FALSE,"""event"",""trial"",""time""
""fullscreenenter"",""5"",""25118""
","
","
","""event"",""trial"",""time""
""fullscreenenter"",""5"",""25118""
","
",NA,images/earth.jpg,NA,NA,NA,NA,NA,NA,NA,NA,NA,NA,NA,NA,NA,fixation,NA,NA,NA,NA,NA,NA,sub39
d3-animate-choice,231,951334,0.0-76.0-0.32,TRUE,TRUE,FALSE,FALSE,"""event"",""trial"",""time""
""fullscreenenter"",""5"",""25118""
","
","
","""event"",""trial"",""time""
""fullscreenenter"",""5"",""25118""
","
",317.3149999929592,NA,48,NA,NA,3000,1,677.3549999925308,48,images/earth.jpg,images/rocket2,images/rocket1,null,images/rocket2,NA,1,real,null,2,NA,NA,NA,sub39
d3-animate-choice,232,953744,0.0-76.0-1.32,TRUE,TRUE,FALSE,FALSE,"""event"",""trial"",""time""
""fullscreenenter"",""5"",""25118""
","
","
","""event"",""trial"",""time""
""fullscreenenter"",""5"",""25118""
","
",402.28000000934117,NA,49,NA,NA,3000,1,809.175000002142,49,images/purpleplanet.jpg,images/alien4,images/alien3,images/rocket2,images/alien3,images/nothing.png,2,real,true,1,common,0,2020-06-13T15:25:07Z,sub39
two-step-fixation,233,954750,0.0-76.0-2.32,TRUE,TRUE,FALSE,FALSE,"""event"",""trial"",""time""
""fullscreenenter"",""5"",""25118""
","
","
","""event"",""trial"",""time""
""fullscreenenter"",""5"",""25118""
","
",NA,images/earth.jpg,NA,NA,NA,NA,NA,NA,NA,NA,NA,NA,NA,NA,NA,fixation,NA,NA,NA,NA,NA,NA,sub39
d3-animate-choice,234,957279,0.0-76.0-0.33,TRUE,TRUE,FALSE,FALSE,"""event"",""trial"",""time""
""fullscreenenter"",""5"",""25118""
","
","
","""event"",""trial"",""time""
""fullscreenenter"",""5"",""25118""
","
",521.8600000080187,NA,49,NA,NA,3000,1,809.7500000149012,49,images/earth.jpg,images/rocket2,images/rocket1,null,images/rocket1,NA,1,real,null,1,NA,NA,NA,sub39
d3-animate-choice,235,959702,0.0-76.0-1.33,TRUE,TRUE,FALSE,FALSE,"""event"",""trial"",""time""
""fullscreenenter"",""5"",""25118""
","
","
","""event"",""trial"",""time""
""fullscreenenter"",""5"",""25118""
","
",416.70499998144805,NA,48,NA,NA,3000,1,824.8049999820068,48,images/redplanet1.jpg,images/alien2,images/alien1,images/rocket1,images/alien2,images/nothing.png,2,real,true,2,common,0,2020-06-13T15:25:13Z,sub39
two-step-fixation,236,960709,0.0-76.0-2.33,TRUE,TRUE,FALSE,FALSE,"""event"",""trial"",""time""
""fullscreenenter"",""5"",""25118""
","
","
","""event"",""trial"",""time""
""fullscreenenter"",""5"",""25118""
","
",NA,images/earth.jpg,NA,NA,NA,NA,NA,NA,NA,NA,NA,NA,NA,NA,NA,fixation,NA,NA,NA,NA,NA,NA,sub39
d3-animate-choice,237,962895,0.0-76.0-0.34,TRUE,TRUE,FALSE,FALSE,"""event"",""trial"",""time""
""fullscreenenter"",""5"",""25118""
","
","
","""event"",""trial"",""time""
""fullscreenenter"",""5"",""25118""
","
",107.3550000146497,NA,48,NA,NA,3000,1,418.88000001199543,48,images/earth.jpg,images/rocket2,images/rocket1,null,images/rocket2,NA,1,real,null,2,NA,NA,NA,sub39
d3-animate-choice,238,965358,0.0-76.0-1.34,TRUE,TRUE,FALSE,FALSE,"""event"",""trial"",""time""
""fullscreenenter"",""5"",""25118""
","
","
","""event"",""trial"",""time""
""fullscreenenter"",""5"",""25118""
","
",456.3699999998789,NA,49,NA,NA,3000,1,888.4050000051502,49,images/purpleplanet.jpg,images/alien4,images/alien3,images/rocket2,images/alien3,images/nothing.png,2,real,true,1,common,0,2020-06-13T15:25:19Z,sub39
two-step-fixation,239,966364,0.0-76.0-2.34,TRUE,TRUE,FALSE,FALSE,"""event"",""trial"",""time""
""fullscreenenter"",""5"",""25118""
","
","
","""event"",""trial"",""time""
""fullscreenenter"",""5"",""25118""
","
",NA,images/earth.jpg,NA,NA,NA,NA,NA,NA,NA,NA,NA,NA,NA,NA,NA,fixation,NA,NA,NA,NA,NA,NA,sub39
d3-animate-choice,240,968486,0.0-76.0-0.35,TRUE,TRUE,FALSE,FALSE,"""event"",""trial"",""time""
""fullscreenenter"",""5"",""25118""
","
","
","""event"",""trial"",""time""
""fullscreenenter"",""5"",""25118""
","
",114.99000000185333,NA,48,NA,NA,3000,1,396.3400000066031,48,images/earth.jpg,images/rocket2,images/rocket1,null,images/rocket2,NA,1,real,null,2,NA,NA,NA,sub39
d3-animate-choice,241,970750,0.0-76.0-1.35,TRUE,TRUE,FALSE,FALSE,"""event"",""trial"",""time""
""fullscreenenter"",""5"",""25118""
","
","
","""event"",""trial"",""time""
""fullscreenenter"",""5"",""25118""
","
",255.47499998356216,NA,48,NA,NA,3000,1,550.7700000016484,48,images/purpleplanet.jpg,images/alien4,images/alien3,images/rocket2,images/alien4,images/t.png,2,real,true,2,common,1,2020-06-13T15:25:24Z,sub39
two-step-fixation,242,971757,0.0-76.0-2.35,TRUE,TRUE,FALSE,FALSE,"""event"",""trial"",""time""
""fullscreenenter"",""5"",""25118""
","
","
","""event"",""trial"",""time""
""fullscreenenter"",""5"",""25118""
","
",NA,images/earth.jpg,NA,NA,NA,NA,NA,NA,NA,NA,NA,NA,NA,NA,NA,fixation,NA,NA,NA,NA,NA,NA,sub39
d3-animate-choice,243,974014,0.0-76.0-0.36,TRUE,TRUE,FALSE,FALSE,"""event"",""trial"",""time""
""fullscreenenter"",""5"",""25118""
","
","
","""event"",""trial"",""time""
""fullscreenenter"",""5"",""25118""
","
",250.91999999131076,NA,48,NA,NA,3000,1,NA,NA,images/earth.jpg,images/rocket2,images/rocket1,null,images/rocket2,NA,1,real,null,2,NA,NA,NA,sub39
d3-animate-choice,244,976342,0.0-76.0-1.36,TRUE,TRUE,FALSE,FALSE,"""event"",""trial"",""time""
""fullscreenenter"",""5"",""25118""
","
","
","""event"",""trial"",""time""
""fullscreenenter"",""5"",""25118""
","
",321.2150000035763,NA,48,NA,NA,3000,1,616.4149999967776,48,images/purpleplanet.jpg,images/alien4,images/alien3,images/rocket2,images/alien4,images/t.png,2,real,true,2,common,1,2020-06-13T15:25:30Z,sub39
two-step-fixation,245,977348,0.0-76.0-2.36,TRUE,TRUE,FALSE,FALSE,"""event"",""trial"",""time""
""fullscreenenter"",""5"",""25118""
","
","
","""event"",""trial"",""time""
""fullscreenenter"",""5"",""25118""
","
",NA,images/earth.jpg,NA,NA,NA,NA,NA,NA,NA,NA,NA,NA,NA,NA,NA,fixation,NA,NA,NA,NA,NA,NA,sub39
d3-animate-choice,246,979511,0.0-76.0-0.37,TRUE,TRUE,FALSE,FALSE,"""event"",""trial"",""time""
""fullscreenenter"",""5"",""25118""
","
","
","""event"",""trial"",""time""
""fullscreenenter"",""5"",""25118""
","
",155.33999999752268,NA,48,NA,NA,3000,1,459.29999998770654,48,images/earth.jpg,images/rocket2,images/rocket1,null,images/rocket2,NA,1,real,null,2,NA,NA,NA,sub39
d3-animate-choice,247,981855,0.0-76.0-1.37,TRUE,TRUE,FALSE,FALSE,"""event"",""trial"",""time""
""fullscreenenter"",""5"",""25118""
","
","
","""event"",""trial"",""time""
""fullscreenenter"",""5"",""25118""
","
",336.4700000092853,NA,48,NA,NA,3000,1,"688.7149999965914,1088.3899999898858,1560.5649999924935,2096.385000011651",48484848,images/purpleplanet.jpg,images/alien4,images/alien3,images/rocket2,images/alien4,images/nothing.png,2,real,true,2,common,0,2020-06-13T15:25:35Z,sub39
two-step-fixation,248,982862,0.0-76.0-2.37,TRUE,TRUE,FALSE,FALSE,"""event"",""trial"",""time""
""fullscreenenter"",""5"",""25118""
","
","
","""event"",""trial"",""time""
""fullscreenenter"",""5"",""25118""
","
",NA,images/earth.jpg,NA,NA,NA,NA,NA,NA,NA,NA,NA,NA,NA,NA,NA,fixation,NA,NA,NA,NA,NA,NA,sub39
d3-animate-choice,249,985215,0.0-76.0-0.38,TRUE,TRUE,FALSE,FALSE,"""event"",""trial"",""time""
""fullscreenenter"",""5"",""25118""
","
","
","""event"",""trial"",""time""
""fullscreenenter"",""5"",""25118""
","
",345.6400000141002,NA,48,NA,NA,3000,1,673.1450000079349,48,images/earth.jpg,images/rocket2,images/rocket1,null,images/rocket2,NA,1,real,null,2,NA,NA,NA,sub39
d3-animate-choice,250,987583,0.0-76.0-1.38,TRUE,TRUE,FALSE,FALSE,"""event"",""trial"",""time""
""fullscreenenter"",""5"",""25118""
","
","
","""event"",""trial"",""time""
""fullscreenenter"",""5"",""25118""
","
",360.4150000028312,NA,48,NA,NA,3000,1,"672.3800000036135,1048.2999999949243",4848,images/redplanet1.jpg,images/alien2,images/alien1,images/rocket2,images/alien2,images/nothing.png,2,real,false,2,rare,0,2020-06-13T15:25:41Z,sub39
two-step-fixation,251,988590,0.0-76.0-2.38,TRUE,TRUE,FALSE,FALSE,"""event"",""trial"",""time""
""fullscreenenter"",""5"",""25118""
","
","
","""event"",""trial"",""time""
""fullscreenenter"",""5"",""25118""
","
",NA,images/earth.jpg,NA,NA,NA,NA,NA,NA,NA,NA,NA,NA,NA,NA,NA,fixation,NA,NA,NA,NA,NA,NA,sub39
d3-animate-choice,252,990958,0.0-76.0-0.39,TRUE,TRUE,FALSE,FALSE,"""event"",""trial"",""time""
""fullscreenenter"",""5"",""25118""
","
","
","""event"",""trial"",""time""
""fullscreenenter"",""5"",""25118""
","
",362.17999999644235,NA,49,NA,NA,3000,1,651.3500000000931,49,images/earth.jpg,images/rocket2,images/rocket1,null,images/rocket1,NA,1,real,null,1,NA,NA,NA,sub39
d3-animate-choice,253,993367,0.0-76.0-1.39,TRUE,TRUE,FALSE,FALSE,"""event"",""trial"",""time""
""fullscreenenter"",""5"",""25118""
","
","
","""event"",""trial"",""time""
""fullscreenenter"",""5"",""25118""
","
",401.48499998031184,NA,49,NA,NA,3000,1,945.4249999835156,49,images/redplanet1.jpg,images/alien2,images/alien1,images/rocket1,images/alien1,images/t.png,2,real,true,1,common,1,2020-06-13T15:25:47Z,sub39
two-step-fixation,254,994374,0.0-76.0-2.39,TRUE,TRUE,FALSE,FALSE,"""event"",""trial"",""time""
""fullscreenenter"",""5"",""25118""
","
","
","""event"",""trial"",""time""
""fullscreenenter"",""5"",""25118""
","
",NA,images/earth.jpg,NA,NA,NA,NA,NA,NA,NA,NA,NA,NA,NA,NA,NA,fixation,NA,NA,NA,NA,NA,NA,sub39
d3-animate-choice,255,996510,0.0-76.0-0.40,TRUE,TRUE,FALSE,FALSE,"""event"",""trial"",""time""
""fullscreenenter"",""5"",""25118""
","
","
","""event"",""trial"",""time""
""fullscreenenter"",""5"",""25118""
","
",129.95499998214655,NA,49,NA,NA,3000,1,513.9999999955762,49,images/earth.jpg,images/rocket2,images/rocket1,null,images/rocket1,NA,1,real,null,1,NA,NA,NA,sub39
d3-animate-choice,256,998895,0.0-76.0-1.40,TRUE,TRUE,FALSE,FALSE,"""event"",""trial"",""time""
""fullscreenenter"",""5"",""25118""
","
","
","""event"",""trial"",""time""
""fullscreenenter"",""5"",""25118""
","
",377.44999999995343,NA,49,NA,NA,3000,1,"649.2399999988265,979.460000002291",4949,images/redplanet1.jpg,images/alien2,images/alien1,images/rocket1,images/alien1,images/t.png,2,real,true,1,common,1,2020-06-13T15:25:52Z,sub39
two-step-fixation,257,999901,0.0-76.0-2.40,TRUE,TRUE,FALSE,FALSE,"""event"",""trial"",""time""
""fullscreenenter"",""5"",""25118""
","
","
","""event"",""trial"",""time""
""fullscreenenter"",""5"",""25118""
","
",NA,images/earth.jpg,NA,NA,NA,NA,NA,NA,NA,NA,NA,NA,NA,NA,NA,fixation,NA,NA,NA,NA,NA,NA,sub39
d3-animate-choice,258,1002296,0.0-76.0-0.41,TRUE,TRUE,FALSE,FALSE,"""event"",""trial"",""time""
""fullscreenenter"",""5"",""25118""
","
","
","""event"",""trial"",""time""
""fullscreenenter"",""5"",""25118""
","
",386.8050000164658,NA,49,NA,NA,3000,1,674.1599999950267,49,images/earth.jpg,images/rocket2,images/rocket1,null,images/rocket1,NA,1,real,null,1,NA,NA,NA,sub39
d3-animate-choice,259,1004670,0.0-76.0-1.41,TRUE,TRUE,FALSE,FALSE,"""event"",""trial"",""time""
""fullscreenenter"",""5"",""25118""
","
","
","""event"",""trial"",""time""
""fullscreenenter"",""5"",""25118""
","
",368.04500001017004,NA,49,NA,NA,3000,1,616.9749999826308,49,images/redplanet1.jpg,images/alien2,images/alien1,images/rocket1,images/alien1,images/nothing.png,2,real,true,1,common,0,2020-06-13T15:25:58Z,sub39
two-step-fixation,260,1005679,0.0-76.0-2.41,TRUE,TRUE,FALSE,FALSE,"""event"",""trial"",""time""
""fullscreenenter"",""5"",""25118""
","
","
","""event"",""trial"",""time""
""fullscreenenter"",""5"",""25118""
","
",NA,images/earth.jpg,NA,NA,NA,NA,NA,NA,NA,NA,NA,NA,NA,NA,NA,fixation,NA,NA,NA,NA,NA,NA,sub39
d3-animate-choice,261,1007862,0.0-76.0-0.42,TRUE,TRUE,FALSE,FALSE,"""event"",""trial"",""time""
""fullscreenenter"",""5"",""25118""
","
","
","""event"",""trial"",""time""
""fullscreenenter"",""5"",""25118""
","
",175.86000001756474,NA,48,NA,NA,3000,1,471.40500001842156,48,images/earth.jpg,images/rocket2,images/rocket1,null,images/rocket2,NA,1,real,null,2,NA,NA,NA,sub39
d3-animate-choice,262,1010149,0.0-76.0-1.42,TRUE,TRUE,FALSE,FALSE,"""event"",""trial"",""time""
""fullscreenenter"",""5"",""25118""
","
","
","""event"",""trial"",""time""
""fullscreenenter"",""5"",""25118""
","
",281.4799999759998,NA,49,NA,NA,3000,1,681.1049999960233,49,images/purpleplanet.jpg,images/alien4,images/alien3,images/rocket2,images/alien3,images/t.png,2,real,true,1,common,1,2020-06-13T15:26:03Z,sub39
two-step-fixation,263,1011156,0.0-76.0-2.42,TRUE,TRUE,FALSE,FALSE,"""event"",""trial"",""time""
""fullscreenenter"",""5"",""25118""
","
","
","""event"",""trial"",""time""
""fullscreenenter"",""5"",""25118""
","
",NA,images/earth.jpg,NA,NA,NA,NA,NA,NA,NA,NA,NA,NA,NA,NA,NA,fixation,NA,NA,NA,NA,NA,NA,sub39
d3-animate-choice,264,1013431,0.0-76.0-0.43,TRUE,TRUE,FALSE,FALSE,"""event"",""trial"",""time""
""fullscreenenter"",""5"",""25118""
","
","
","""event"",""trial"",""time""
""fullscreenenter"",""5"",""25118""
","
",267.37999997567385,NA,48,NA,NA,3000,1,NA,NA,images/earth.jpg,images/rocket2,images/rocket1,null,images/rocket2,NA,1,real,null,2,NA,NA,NA,sub39
d3-animate-choice,265,1015767,0.0-76.0-1.43,TRUE,TRUE,FALSE,FALSE,"""event"",""trial"",""time""
""fullscreenenter"",""5"",""25118""
","
","
","""event"",""trial"",""time""
""fullscreenenter"",""5"",""25118""
","
",327.644999983022,NA,49,NA,NA,3000,1,727.4899999902118,49,images/redplanet1.jpg,images/alien2,images/alien1,images/rocket2,images/alien1,images/t.png,2,real,false,1,rare,1,2020-06-13T15:26:09Z,sub39
two-step-fixation,266,1016774,0.0-76.0-2.43,TRUE,TRUE,FALSE,FALSE,"""event"",""trial"",""time""
""fullscreenenter"",""5"",""25118""
","
","
","""event"",""trial"",""time""
""fullscreenenter"",""5"",""25118""
","
",NA,images/earth.jpg,NA,NA,NA,NA,NA,NA,NA,NA,NA,NA,NA,NA,NA,fixation,NA,NA,NA,NA,NA,NA,sub39
d3-animate-choice,267,1019007,0.0-76.0-0.44,TRUE,TRUE,FALSE,FALSE,"""event"",""trial"",""time""
""fullscreenenter"",""5"",""25118""
","
","
","""event"",""trial"",""time""
""fullscreenenter"",""5"",""25118""
","
",228.66000002250075,NA,48,NA,NA,3000,1,NA,NA,images/earth.jpg,images/rocket2,images/rocket1,null,images/rocket2,NA,1,real,null,2,NA,NA,NA,sub39
d3-animate-choice,268,1021407,0.0-76.0-1.44,TRUE,TRUE,FALSE,FALSE,"""event"",""trial"",""time""
""fullscreenenter"",""5"",""25118""
","
","
","""event"",""trial"",""time""
""fullscreenenter"",""5"",""25118""
","
",390.0349999894388,NA,49,NA,NA,3000,1,782.0500000088941,49,images/purpleplanet.jpg,images/alien4,images/alien3,images/rocket2,images/alien3,images/nothing.png,2,real,true,1,common,0,2020-06-13T15:26:15Z,sub39
two-step-fixation,269,1022413,0.0-76.0-2.44,TRUE,TRUE,FALSE,FALSE,"""event"",""trial"",""time""
""fullscreenenter"",""5"",""25118""
","
","
","""event"",""trial"",""time""
""fullscreenenter"",""5"",""25118""
","
",NA,images/earth.jpg,NA,NA,NA,NA,NA,NA,NA,NA,NA,NA,NA,NA,NA,fixation,NA,NA,NA,NA,NA,NA,sub39
d3-animate-choice,270,1024864,0.0-76.0-0.45,TRUE,TRUE,FALSE,FALSE,"""event"",""trial"",""time""
""fullscreenenter"",""5"",""25118""
","
","
","""event"",""trial"",""time""
""fullscreenenter"",""5"",""25118""
","
",442.9200000013225,NA,49,NA,NA,3000,1,738.3449999906588,49,images/earth.jpg,images/rocket2,images/rocket1,null,images/rocket1,NA,1,real,null,1,NA,NA,NA,sub39
d3-animate-choice,271,1027174,0.0-76.0-1.45,TRUE,TRUE,FALSE,FALSE,"""event"",""trial"",""time""
""fullscreenenter"",""5"",""25118""
","
","
","""event"",""trial"",""time""
""fullscreenenter"",""5"",""25118""
","
",301.3799999898765,NA,49,NA,NA,3000,1,533.3849999879021,49,images/purpleplanet.jpg,images/alien4,images/alien3,images/rocket1,images/alien3,images/t.png,2,real,false,1,rare,1,2020-06-13T15:26:20Z,sub39
two-step-fixation,272,1028182,0.0-76.0-2.45,TRUE,TRUE,FALSE,FALSE,"""event"",""trial"",""time""
""fullscreenenter"",""5"",""25118""
","
","
","""event"",""trial"",""time""
""fullscreenenter"",""5"",""25118""
","
",NA,images/earth.jpg,NA,NA,NA,NA,NA,NA,NA,NA,NA,NA,NA,NA,NA,fixation,NA,NA,NA,NA,NA,NA,sub39
d3-animate-choice,273,1030463,0.0-76.0-0.46,TRUE,TRUE,FALSE,FALSE,"""event"",""trial"",""time""
""fullscreenenter"",""5"",""25118""
","
","
","""event"",""trial"",""time""
""fullscreenenter"",""5"",""25118""
","
",272.85000000847504,NA,48,NA,NA,3000,1,617.419999995036,48,images/earth.jpg,images/rocket2,images/rocket1,null,images/rocket2,NA,1,real,null,2,NA,NA,NA,sub39
d3-animate-choice,274,1032830,0.0-76.0-1.46,TRUE,TRUE,FALSE,FALSE,"""event"",""trial"",""time""
