trial_type,trial_index,time_elapsed,internal_node_id,rocket_sides,red_planet_first_rocket,red_display_order,purple_display_order,interactions,blur_events,focus_events,fullscreenenter_events,fullscreenexit_events,rt,stimulus,key_press,button_pressed,success,duration,valid_pressed,rts,keys,planet_text,right_text,left_text,center_text,chosen_text,reward_text,trial_stage,practice_trial,transition_type,choice,transition,reward,timestamp,subject_id
pavlovia,0,5,0.0-0.0,TRUE,FALSE,FALSE,FALSE,"
","
","
","
","
",NA,NA,NA,NA,NA,NA,NA,NA,NA,NA,NA,NA,NA,NA,NA,NA,NA,NA,NA,NA,NA,NA,sub138
html-keyboard-response,1,1278,0.0-1.0,TRUE,FALSE,FALSE,FALSE,"
","
","
","
","
",1271.139999999832,Welcome! Press the space bar to begin.,32,NA,NA,NA,NA,NA,NA,NA,NA,NA,NA,NA,NA,NA,NA,NA,NA,NA,NA,NA,sub138
audio-keyboard-response,2,3700,0.0-2.0,TRUE,FALSE,FALSE,FALSE,"
","
","
","
","
",2416,audio/beep_loop.wav,32,NA,NA,NA,NA,NA,NA,NA,NA,NA,NA,NA,NA,NA,NA,NA,NA,NA,NA,NA,sub138
audio-button-response,3,6360,0.0-3.0,TRUE,FALSE,FALSE,FALSE,"
","
","
","
","
",NaN,audio/fish.mp3,NA,1,NA,NA,NA,NA,NA,NA,NA,NA,NA,NA,NA,NA,NA,NA,NA,NA,NA,NA,sub138
audio-button-response,4,8884,0.0-4.0,TRUE,FALSE,FALSE,FALSE,"""event"",""trial"",""time""
""fullscreenenter"",""5"",""14286""
","
","
","""event"",""trial"",""time""
""fullscreenenter"",""5"",""14286""
","
",NaN,audio/tiger.mp3,NA,4,NA,NA,NA,NA,NA,NA,NA,NA,NA,NA,NA,NA,NA,NA,NA,NA,NA,NA,sub138
fullscreen,5,15238,0.0-5.0,TRUE,FALSE,FALSE,FALSE,"""event"",""trial"",""time""
""fullscreenenter"",""5"",""14286""
","
","
","""event"",""trial"",""time""
""fullscreenenter"",""5"",""14286""
","
",NA,NA,NA,NA,TRUE,NA,NA,NA,NA,NA,NA,NA,NA,NA,NA,NA,NA,NA,NA,NA,NA,NA,sub138
d3-instructions,6,26745,0.0-6.0,TRUE,FALSE,FALSE,FALSE,"""event"",""trial"",""time""
""fullscreenenter"",""5"",""14286""
","
","
","""event"",""trial"",""time""
""fullscreenenter"",""5"",""14286""
","
",NA,NA,NA,NA,NA,NA,NA,NA,NA,NA,NA,NA,NA,NA,NA,NA,NA,NA,NA,NA,NA,NA,sub138
d3-instructions,7,34099,0.0-7.0,TRUE,FALSE,FALSE,FALSE,"""event"",""trial"",""time""
""fullscreenenter"",""5"",""14286""
","
","
","""event"",""trial"",""time""
""fullscreenenter"",""5"",""14286""
","
",NA,NA,NA,NA,NA,NA,NA,NA,NA,NA,NA,NA,NA,NA,NA,NA,NA,NA,NA,NA,NA,NA,sub138
d3-instructions,8,36476,0.0-8.0,TRUE,FALSE,FALSE,FALSE,"""event"",""trial"",""time""
""fullscreenenter"",""5"",""14286""
","
","
","""event"",""trial"",""time""
""fullscreenenter"",""5"",""14286""
","
",NA,NA,NA,NA,NA,NA,NA,NA,NA,NA,NA,NA,NA,NA,NA,NA,NA,NA,NA,NA,NA,NA,sub138
d3-instructions,9,42996,0.0-9.0,TRUE,FALSE,FALSE,FALSE,"""event"",""trial"",""time""
""fullscreenenter"",""5"",""14286""
","
","
","""event"",""trial"",""time""
""fullscreenenter"",""5"",""14286""
","
",NA,NA,NA,NA,NA,NA,NA,NA,NA,NA,NA,NA,NA,NA,NA,NA,NA,NA,NA,NA,NA,NA,sub138
d3-instructions,10,49128,0.0-10.0,TRUE,FALSE,FALSE,FALSE,"""event"",""trial"",""time""
""fullscreenenter"",""5"",""14286""
","
","
","""event"",""trial"",""time""
""fullscreenenter"",""5"",""14286""
","
",NA,NA,NA,NA,NA,NA,NA,NA,NA,NA,NA,NA,NA,NA,NA,NA,NA,NA,NA,NA,NA,NA,sub138
d3-animate-choice,11,52104,0.0-11.0,TRUE,FALSE,FALSE,FALSE,"""event"",""trial"",""time""
""fullscreenenter"",""5"",""14286""
","
","
","""event"",""trial"",""time""
""fullscreenenter"",""5"",""14286""
","
",966.4149999998699,NA,49,NA,NA,3000,1,NA,NA,images/tutgreenplanet.jpg,images/tutalien1,images/tutalien2,null,images/tutalien2,NA,NA,practice,null,NA,NA,NA,NA,sub138
d3-animate-choice,12,54979,0.0-12.0,TRUE,FALSE,FALSE,FALSE,"""event"",""trial"",""time""
""fullscreenenter"",""5"",""14286""
","
","
","""event"",""trial"",""time""
""fullscreenenter"",""5"",""14286""
","
",871.5799999999945,NA,48,NA,NA,3000,1,NA,NA,images/tutgreenplanet.jpg,images/tutalien1,images/tutalien2,null,images/tutalien1,NA,NA,practice,null,NA,NA,NA,NA,sub138
d3-animate-choice,13,57827,0.0-13.0,TRUE,FALSE,FALSE,FALSE,"""event"",""trial"",""time""
""fullscreenenter"",""5"",""14286""
","
","
","""event"",""trial"",""time""
""fullscreenenter"",""5"",""14286""
","
",845.6400000004578,NA,49,NA,NA,3000,1,NA,NA,images/tutgreenplanet.jpg,images/tutalien1,images/tutalien2,null,images/tutalien2,NA,NA,practice,null,NA,NA,NA,NA,sub138
d3-animate-choice,14,60482,0.0-14.0,TRUE,FALSE,FALSE,FALSE,"""event"",""trial"",""time""
""fullscreenenter"",""5"",""14286""
","
","
","""event"",""trial"",""time""
""fullscreenenter"",""5"",""14286""
","
",652.1600000005492,NA,49,NA,NA,3000,1,"1213.0999999999403,2135.299999999923",4848,images/tutgreenplanet.jpg,images/tutalien1,images/tutalien2,null,images/tutalien2,NA,NA,practice,null,NA,NA,NA,NA,sub138
d3-instructions,15,64071,0.0-15.0,TRUE,FALSE,FALSE,FALSE,"""event"",""trial"",""time""
""fullscreenenter"",""5"",""14286""
","
","
","""event"",""trial"",""time""
""fullscreenenter"",""5"",""14286""
","
",NA,NA,NA,NA,NA,NA,NA,NA,NA,NA,NA,NA,NA,NA,NA,NA,NA,NA,NA,NA,NA,NA,sub138
d3-instructions,16,66144,0.0-16.0,TRUE,FALSE,FALSE,FALSE,"""event"",""trial"",""time""
""fullscreenenter"",""5"",""14286""
","
","
","""event"",""trial"",""time""
""fullscreenenter"",""5"",""14286""
","
",NA,NA,NA,NA,NA,NA,NA,NA,NA,NA,NA,NA,NA,NA,NA,NA,NA,NA,NA,NA,NA,NA,sub138
d3-instructions,17,69014,0.0-17.0,TRUE,FALSE,FALSE,FALSE,"""event"",""trial"",""time""
""fullscreenenter"",""5"",""14286""
","
","
","""event"",""trial"",""time""
""fullscreenenter"",""5"",""14286""
","
",NA,NA,NA,NA,NA,NA,NA,NA,NA,NA,NA,NA,NA,NA,NA,NA,NA,NA,NA,NA,NA,NA,sub138
d3-instructions,18,77658,0.0-18.0,TRUE,FALSE,FALSE,FALSE,"""event"",""trial"",""time""
""fullscreenenter"",""5"",""14286""
","
","
","""event"",""trial"",""time""
""fullscreenenter"",""5"",""14286""
","
",NA,NA,NA,NA,NA,NA,NA,NA,NA,NA,NA,NA,NA,NA,NA,NA,NA,NA,NA,NA,NA,NA,sub138
d3-instructions,19,83511,0.0-19.0,TRUE,FALSE,FALSE,FALSE,"""event"",""trial"",""time""
""fullscreenenter"",""5"",""14286""
","
","
","""event"",""trial"",""time""
""fullscreenenter"",""5"",""14286""
","
",NA,NA,NA,NA,NA,NA,NA,NA,NA,NA,NA,NA,NA,NA,NA,NA,NA,NA,NA,NA,NA,NA,sub138
d3-animate-choice,20,85958,0.0-20.0,TRUE,FALSE,FALSE,FALSE,"""event"",""trial"",""time""
""fullscreenenter"",""5"",""14286""
","
","
","""event"",""trial"",""time""
""fullscreenenter"",""5"",""14286""
","
",444.72000000042317,NA,49,NA,NA,3000,1,"944.449999999968,1896.5749999997643",4949,images/tutyellowplanet.jpg,null,images/tutalien3,null,images/tutalien3,images/t.png,NA,practice,null,NA,NA,NA,NA,sub138
d3-animate-choice,21,88213,0.0-21.0,TRUE,FALSE,FALSE,FALSE,"""event"",""trial"",""time""
""fullscreenenter"",""5"",""14286""
","
","
","""event"",""trial"",""time""
""fullscreenenter"",""5"",""14286""
","
",249.14000000081433,NA,49,NA,NA,3000,1,NA,NA,images/tutyellowplanet.jpg,null,images/tutalien3,null,images/tutalien3,images/t.png,NA,practice,null,NA,NA,NA,NA,sub138
d3-animate-choice,22,90475,0.0-22.0,TRUE,FALSE,FALSE,FALSE,"""event"",""trial"",""time""
""fullscreenenter"",""5"",""14286""
","
","
","""event"",""trial"",""time""
""fullscreenenter"",""5"",""14286""
","
",254.58499999968626,NA,49,NA,NA,3000,1,2195.5399999997026,49,images/tutyellowplanet.jpg,null,images/tutalien3,null,images/tutalien3,images/t.png,NA,practice,null,NA,NA,NA,NA,sub138
d3-animate-choice,23,92808,0.0-23.0,TRUE,FALSE,FALSE,FALSE,"""event"",""trial"",""time""
""fullscreenenter"",""5"",""14286""
","
","
","""event"",""trial"",""time""
""fullscreenenter"",""5"",""14286""
","
",329.42999999977474,NA,49,NA,NA,3000,1,1726.9949999999808,49,images/tutyellowplanet.jpg,null,images/tutalien3,null,images/tutalien3,images/t.png,NA,practice,null,NA,NA,NA,NA,sub138
d3-animate-choice,24,95058,0.0-24.0,TRUE,FALSE,FALSE,FALSE,"""event"",""trial"",""time""
""fullscreenenter"",""5"",""14286""
","
","
","""event"",""trial"",""time""
""fullscreenenter"",""5"",""14286""
","
",243.1249999999709,NA,49,NA,NA,3000,1,1607.3299999998271,49,images/tutyellowplanet.jpg,null,images/tutalien3,null,images/tutalien3,images/nothing.png,NA,practice,null,NA,NA,NA,NA,sub138
d3-animate-choice,25,97315,0.0-25.0,TRUE,FALSE,FALSE,FALSE,"""event"",""trial"",""time""
""fullscreenenter"",""5"",""14286""
","
","
","""event"",""trial"",""time""
""fullscreenenter"",""5"",""14286""
","
",252.73999999990338,NA,49,NA,NA,3000,1,1744.5250000000815,49,images/tutyellowplanet.jpg,null,images/tutalien3,null,images/tutalien3,images/t.png,NA,practice,null,NA,NA,NA,NA,sub138
d3-animate-choice,26,99624,0.0-26.0,TRUE,FALSE,FALSE,FALSE,"""event"",""trial"",""time""
""fullscreenenter"",""5"",""14286""
","
","
","""event"",""trial"",""time""
""fullscreenenter"",""5"",""14286""
","
",306.8000000003085,NA,49,NA,NA,3000,1,NA,NA,images/tutyellowplanet.jpg,null,images/tutalien3,null,images/tutalien3,images/t.png,NA,practice,null,NA,NA,NA,NA,sub138
d3-animate-choice,27,101769,0.0-27.0,TRUE,FALSE,FALSE,FALSE,"""event"",""trial"",""time""
""fullscreenenter"",""5"",""14286""
","
","
","""event"",""trial"",""time""
""fullscreenenter"",""5"",""14286""
","
",137.44500000029802,NA,49,NA,NA,3000,1,NA,NA,images/tutyellowplanet.jpg,null,images/tutalien3,null,images/tutalien3,images/t.png,NA,practice,null,NA,NA,NA,NA,sub138
d3-animate-choice,28,103942,0.0-28.0,TRUE,FALSE,FALSE,FALSE,"""event"",""trial"",""time""
""fullscreenenter"",""5"",""14286""
","
","
","""event"",""trial"",""time""
""fullscreenenter"",""5"",""14286""
","
",170.13500000030035,NA,49,NA,NA,3000,1,NA,NA,images/tutyellowplanet.jpg,null,images/tutalien3,null,images/tutalien3,images/t.png,NA,practice,null,NA,NA,NA,NA,sub138
d3-animate-choice,29,106237,0.0-29.0,TRUE,FALSE,FALSE,FALSE,"""event"",""trial"",""time""
""fullscreenenter"",""5"",""14286""
","
","
","""event"",""trial"",""time""
""fullscreenenter"",""5"",""14286""
","
",290.9299999992072,NA,49,NA,NA,3000,1,NA,NA,images/tutyellowplanet.jpg,null,images/tutalien3,null,images/tutalien3,images/nothing.png,NA,practice,null,NA,NA,NA,NA,sub138
d3-instructions,30,108901,0.0-30.0,TRUE,FALSE,FALSE,FALSE,"""event"",""trial"",""time""
""fullscreenenter"",""5"",""14286""
","
","
","""event"",""trial"",""time""
""fullscreenenter"",""5"",""14286""
","
",NA,NA,NA,NA,NA,NA,NA,NA,NA,NA,NA,NA,NA,NA,NA,NA,NA,NA,NA,NA,NA,NA,sub138
d3-instructions,31,111287,0.0-31.0,TRUE,FALSE,FALSE,FALSE,"""event"",""trial"",""time""
""fullscreenenter"",""5"",""14286""
","
","
","""event"",""trial"",""time""
""fullscreenenter"",""5"",""14286""
","
",NA,NA,NA,NA,NA,NA,NA,NA,NA,NA,NA,NA,NA,NA,NA,NA,NA,NA,NA,NA,NA,NA,sub138
d3-instructions,32,115148,0.0-32.0,TRUE,FALSE,FALSE,FALSE,"""event"",""trial"",""time""
""fullscreenenter"",""5"",""14286""
","
","
","""event"",""trial"",""time""
""fullscreenenter"",""5"",""14286""
","
",NA,NA,NA,NA,NA,NA,NA,NA,NA,NA,NA,NA,NA,NA,NA,NA,NA,NA,NA,NA,NA,NA,sub138
d3-instructions,33,116922,0.0-33.0,TRUE,FALSE,FALSE,FALSE,"""event"",""trial"",""time""
""fullscreenenter"",""5"",""14286""
","
","
","""event"",""trial"",""time""
""fullscreenenter"",""5"",""14286""
","
",NA,NA,NA,NA,NA,NA,NA,NA,NA,NA,NA,NA,NA,NA,NA,NA,NA,NA,NA,NA,NA,NA,sub138
d3-animate-choice,34,119480,0.0-34.0,TRUE,FALSE,FALSE,FALSE,"""event"",""trial"",""time""
""fullscreenenter"",""5"",""14286""
","
","
","""event"",""trial"",""time""
""fullscreenenter"",""5"",""14286""
","
",553.6150000007183,NA,49,NA,NA,3000,1,NA,NA,images/tutgreenplanet.jpg,images/tutalien1,images/tutalien2,null,images/tutalien2,images/t.png,NA,practice,null,NA,NA,NA,NA,sub138
d3-animate-choice,35,121977,0.0-35.0,TRUE,FALSE,FALSE,FALSE,"""event"",""trial"",""time""
""fullscreenenter"",""5"",""14286""
","
","
","""event"",""trial"",""time""
""fullscreenenter"",""5"",""14286""
","
",490.81500000011874,NA,49,NA,NA,3000,1,NA,NA,images/tutgreenplanet.jpg,images/tutalien1,images/tutalien2,null,images/tutalien2,images/t.png,NA,practice,null,NA,NA,NA,NA,sub138
d3-animate-choice,36,124211,0.0-36.0,TRUE,FALSE,FALSE,FALSE,"""event"",""trial"",""time""
""fullscreenenter"",""5"",""14286""
","
","
","""event"",""trial"",""time""
""fullscreenenter"",""5"",""14286""
","
",232.68499999993946,NA,49,NA,NA,3000,1,NA,NA,images/tutgreenplanet.jpg,images/tutalien1,images/tutalien2,null,images/tutalien2,images/t.png,NA,practice,null,NA,NA,NA,NA,sub138
d3-animate-choice,37,126398,0.0-37.0,TRUE,FALSE,FALSE,FALSE,"""event"",""trial"",""time""
""fullscreenenter"",""5"",""14286""
","
","
","""event"",""trial"",""time""
""fullscreenenter"",""5"",""14286""
","
",183.16999999934342,NA,49,NA,NA,3000,1,NA,NA,images/tutgreenplanet.jpg,images/tutalien1,images/tutalien2,null,images/tutalien2,images/t.png,NA,practice,null,NA,NA,NA,NA,sub138
d3-animate-choice,38,128622,0.0-38.0,TRUE,FALSE,FALSE,FALSE,"""event"",""trial"",""time""
""fullscreenenter"",""5"",""14286""
","
","
","""event"",""trial"",""time""
""fullscreenenter"",""5"",""14286""
","
",220.89499999946565,NA,49,NA,NA,3000,1,1668.1249999992142,49,images/tutgreenplanet.jpg,images/tutalien1,images/tutalien2,null,images/tutalien2,images/t.png,NA,practice,null,NA,NA,NA,NA,sub138
d3-animate-choice,39,130894,0.0-39.0,TRUE,FALSE,FALSE,FALSE,"""event"",""trial"",""time""
""fullscreenenter"",""5"",""14286""
","
","
","""event"",""trial"",""time""
""fullscreenenter"",""5"",""14286""
","
",268.8550000002724,NA,49,NA,NA,3000,1,NA,NA,images/tutgreenplanet.jpg,images/tutalien1,images/tutalien2,null,images/tutalien2,images/t.png,NA,practice,null,NA,NA,NA,NA,sub138
d3-animate-choice,40,132941,0.0-40.0,TRUE,FALSE,FALSE,FALSE,"""event"",""trial"",""time""
""fullscreenenter"",""5"",""14286""
","
","
","""event"",""trial"",""time""
""fullscreenenter"",""5"",""14286""
","
",43.999999999883585,NA,49,NA,NA,3000,1,1464.789999999979,49,images/tutgreenplanet.jpg,images/tutalien1,images/tutalien2,null,images/tutalien2,images/t.png,NA,practice,null,NA,NA,NA,NA,sub138
d3-animate-choice,41,135191,0.0-41.0,TRUE,FALSE,FALSE,FALSE,"""event"",""trial"",""time""
""fullscreenenter"",""5"",""14286""
","
","
","""event"",""trial"",""time""
""fullscreenenter"",""5"",""14286""
","
",244.07999999949243,NA,49,NA,NA,3000,1,NA,NA,images/tutgreenplanet.jpg,images/tutalien1,images/tutalien2,null,images/tutalien2,images/t.png,NA,practice,null,NA,NA,NA,NA,sub138
d3-animate-choice,42,137374,0.0-42.0,TRUE,FALSE,FALSE,FALSE,"""event"",""trial"",""time""
""fullscreenenter"",""5"",""14286""
","
","
","""event"",""trial"",""time""
""fullscreenenter"",""5"",""14286""
","
",178.32999999972526,NA,49,NA,NA,3000,1,NA,NA,images/tutgreenplanet.jpg,images/tutalien1,images/tutalien2,null,images/tutalien2,images/nothing.png,NA,practice,null,NA,NA,NA,NA,sub138
d3-animate-choice,43,139541,0.0-43.0,TRUE,FALSE,FALSE,FALSE,"""event"",""trial"",""time""
""fullscreenenter"",""5"",""14286""
","
","
","""event"",""trial"",""time""
""fullscreenenter"",""5"",""14286""
","
",163.43500000037602,NA,49,NA,NA,3000,1,NA,NA,images/tutgreenplanet.jpg,images/tutalien1,images/tutalien2,null,images/tutalien2,images/t.png,NA,practice,null,NA,NA,NA,NA,sub138
d3-instructions,44,144820,0.0-44.0,TRUE,FALSE,FALSE,FALSE,"""event"",""trial"",""time""
""fullscreenenter"",""5"",""14286""
","
","
","""event"",""trial"",""time""
""fullscreenenter"",""5"",""14286""
","
",NA,NA,NA,NA,NA,NA,NA,NA,NA,NA,NA,NA,NA,NA,NA,NA,NA,NA,NA,NA,NA,NA,sub138
d3-instructions,45,147375,0.0-45.0,TRUE,FALSE,FALSE,FALSE,"""event"",""trial"",""time""
""fullscreenenter"",""5"",""14286""
","
","
","""event"",""trial"",""time""
""fullscreenenter"",""5"",""14286""
","
",NA,NA,NA,NA,NA,NA,NA,NA,NA,NA,NA,NA,NA,NA,NA,NA,NA,NA,NA,NA,NA,NA,sub138
d3-instructions,46,149322,0.0-46.0,TRUE,FALSE,FALSE,FALSE,"""event"",""trial"",""time""
""fullscreenenter"",""5"",""14286""
","
","
","""event"",""trial"",""time""
""fullscreenenter"",""5"",""14286""
","
",NA,NA,NA,NA,NA,NA,NA,NA,NA,NA,NA,NA,NA,NA,NA,NA,NA,NA,NA,NA,NA,NA,sub138
d3-instructions,47,155435,0.0-47.0,TRUE,FALSE,FALSE,FALSE,"""event"",""trial"",""time""
""fullscreenenter"",""5"",""14286""
","
","
","""event"",""trial"",""time""
""fullscreenenter"",""5"",""14286""
","
",NA,NA,NA,NA,NA,NA,NA,NA,NA,NA,NA,NA,NA,NA,NA,NA,NA,NA,NA,NA,NA,NA,sub138
d3-instructions,48,157722,0.0-48.0,TRUE,FALSE,FALSE,FALSE,"""event"",""trial"",""time""
""fullscreenenter"",""5"",""14286""
","
","
","""event"",""trial"",""time""
""fullscreenenter"",""5"",""14286""
","
",NA,NA,NA,NA,NA,NA,NA,NA,NA,NA,NA,NA,NA,NA,NA,NA,NA,NA,NA,NA,NA,NA,sub138
d3-instructions,49,160981,0.0-49.0,TRUE,FALSE,FALSE,FALSE,"""event"",""trial"",""time""
""fullscreenenter"",""5"",""14286""
","
","
","""event"",""trial"",""time""
""fullscreenenter"",""5"",""14286""
","
",NA,NA,NA,NA,NA,NA,NA,NA,NA,NA,NA,NA,NA,NA,NA,NA,NA,NA,NA,NA,NA,NA,sub138
d3-instructions,50,163592,0.0-50.0,TRUE,FALSE,FALSE,FALSE,"""event"",""trial"",""time""
""fullscreenenter"",""5"",""14286""
","
","
","""event"",""trial"",""time""
""fullscreenenter"",""5"",""14286""
","
",NA,NA,NA,NA,NA,NA,NA,NA,NA,NA,NA,NA,NA,NA,NA,NA,NA,NA,NA,NA,NA,NA,sub138
d3-instructions,51,165058,0.0-51.0,TRUE,FALSE,FALSE,FALSE,"""event"",""trial"",""time""
""fullscreenenter"",""5"",""14286""
","
","
","""event"",""trial"",""time""
""fullscreenenter"",""5"",""14286""
","
",NA,NA,NA,NA,NA,NA,NA,NA,NA,NA,NA,NA,NA,NA,NA,NA,NA,NA,NA,NA,NA,NA,sub138
d3-instructions,52,165886,0.0-52.0,TRUE,FALSE,FALSE,FALSE,"""event"",""trial"",""time""
""fullscreenenter"",""5"",""14286""
","
","
","""event"",""trial"",""time""
""fullscreenenter"",""5"",""14286""
","
",NA,NA,NA,NA,NA,NA,NA,NA,NA,NA,NA,NA,NA,NA,NA,NA,NA,NA,NA,NA,NA,NA,sub138
d3-instructions,53,171113,0.0-53.0,TRUE,FALSE,FALSE,FALSE,"""event"",""trial"",""time""
""fullscreenenter"",""5"",""14286""
","
","
","""event"",""trial"",""time""
""fullscreenenter"",""5"",""14286""
","
",NA,NA,NA,NA,NA,NA,NA,NA,NA,NA,NA,NA,NA,NA,NA,NA,NA,NA,NA,NA,NA,NA,sub138
d3-instructions,54,180451,0.0-54.0,TRUE,FALSE,FALSE,FALSE,"""event"",""trial"",""time""
""fullscreenenter"",""5"",""14286""
","
","
","""event"",""trial"",""time""
""fullscreenenter"",""5"",""14286""
","
",NA,NA,NA,NA,NA,NA,NA,NA,NA,NA,NA,NA,NA,NA,NA,NA,NA,NA,NA,NA,NA,NA,sub138
d3-instructions,55,185186,0.0-55.0,TRUE,FALSE,FALSE,FALSE,"""event"",""trial"",""time""
""fullscreenenter"",""5"",""14286""
","
","
","""event"",""trial"",""time""
""fullscreenenter"",""5"",""14286""
","
",NA,NA,NA,NA,NA,NA,NA,NA,NA,NA,NA,NA,NA,NA,NA,NA,NA,NA,NA,NA,NA,NA,sub138
d3-instructions,56,186739,0.0-56.0,TRUE,FALSE,FALSE,FALSE,"""event"",""trial"",""time""
""fullscreenenter"",""5"",""14286""
","
","
","""event"",""trial"",""time""
""fullscreenenter"",""5"",""14286""
","
",NA,NA,NA,NA,NA,NA,NA,NA,NA,NA,NA,NA,NA,NA,NA,NA,NA,NA,NA,NA,NA,NA,sub138
d3-instructions,57,192651,0.0-57.0,TRUE,FALSE,FALSE,FALSE,"""event"",""trial"",""time""
""fullscreenenter"",""5"",""14286""
","
","
","""event"",""trial"",""time""
""fullscreenenter"",""5"",""14286""
","
",NA,NA,NA,NA,NA,NA,NA,NA,NA,NA,NA,NA,NA,NA,NA,NA,NA,NA,NA,NA,NA,NA,sub138
d3-instructions,58,197963,0.0-58.0,TRUE,FALSE,FALSE,FALSE,"""event"",""trial"",""time""
""fullscreenenter"",""5"",""14286""
","
","
","""event"",""trial"",""time""
""fullscreenenter"",""5"",""14286""
","
",NA,NA,NA,NA,NA,NA,NA,NA,NA,NA,NA,NA,NA,NA,NA,NA,NA,NA,NA,NA,NA,NA,sub138
d3-instructions,59,199538,0.0-59.0,TRUE,FALSE,FALSE,FALSE,"""event"",""trial"",""time""
""fullscreenenter"",""5"",""14286""
","
","
","""event"",""trial"",""time""
""fullscreenenter"",""5"",""14286""
","
",NA,NA,NA,NA,NA,NA,NA,NA,NA,NA,NA,NA,NA,NA,NA,NA,NA,NA,NA,NA,NA,NA,sub138
d3-instructions,60,200893,0.0-60.0,TRUE,FALSE,FALSE,FALSE,"""event"",""trial"",""time""
""fullscreenenter"",""5"",""14286""
","
","
","""event"",""trial"",""time""
""fullscreenenter"",""5"",""14286""
","
",NA,NA,NA,NA,NA,NA,NA,NA,NA,NA,NA,NA,NA,NA,NA,NA,NA,NA,NA,NA,NA,NA,sub138
d3-animate-choice,61,203647,0.0-61.0-0.0,TRUE,FALSE,FALSE,FALSE,"""event"",""trial"",""time""
""fullscreenenter"",""5"",""14286""
","
","
","""event"",""trial"",""time""
""fullscreenenter"",""5"",""14286""
","
",747.6850000002887,NA,49,NA,NA,3000,1,NA,NA,images/earth.jpg,images/tutrocket2,images/tutrocket1,null,images/tutrocket1,NA,1,practice,null,1,NA,NA,NA,sub138
d3-animate-choice,62,206621,0.0-61.0-1.0,TRUE,FALSE,FALSE,FALSE,"""event"",""trial"",""time""
""fullscreenenter"",""5"",""14286""
","
","
","""event"",""trial"",""time""
""fullscreenenter"",""5"",""14286""
","
",969.5849999998172,NA,49,NA,NA,3000,1,NA,NA,images/tutgreenplanet.jpg,images/tutalien2,images/tutalien1,images/tutrocket1,images/tutalien1,images/t.png,2,practice,false,1,rare,1,2020-06-26T16:17:49Z,sub138
two-step-fixation,63,207626,0.0-61.0-2.0,TRUE,FALSE,FALSE,FALSE,"""event"",""trial"",""time""
""fullscreenenter"",""5"",""14286""
","
","
","""event"",""trial"",""time""
""fullscreenenter"",""5"",""14286""
","
",NA,images/earth.jpg,NA,NA,NA,NA,NA,NA,NA,NA,NA,NA,NA,NA,NA,fixation,NA,NA,NA,NA,NA,NA,sub138
d3-animate-choice,64,210142,0.0-61.0-0.1,TRUE,FALSE,FALSE,FALSE,"""event"",""trial"",""time""
""fullscreenenter"",""5"",""14286""
","
","
","""event"",""trial"",""time""
""fullscreenenter"",""5"",""14286""
","
",514.3550000002433,NA,48,NA,NA,3000,1,NA,NA,images/earth.jpg,images/tutrocket2,images/tutrocket1,null,images/tutrocket2,NA,1,practice,null,2,NA,NA,NA,sub138
d3-animate-choice,65,212740,0.0-61.0-1.1,TRUE,FALSE,FALSE,FALSE,"""event"",""trial"",""time""
""fullscreenenter"",""5"",""14286""
","
","
","""event"",""trial"",""time""
""fullscreenenter"",""5"",""14286""
","
",593.8349999996717,NA,48,NA,NA,3000,1,NA,NA,images/tutgreenplanet.jpg,images/tutalien2,images/tutalien1,images/tutrocket2,images/tutalien2,images/nothing.png,2,practice,true,2,common,0,2020-06-26T16:17:55Z,sub138
two-step-fixation,66,213743,0.0-61.0-2.1,TRUE,FALSE,FALSE,FALSE,"""event"",""trial"",""time""
""fullscreenenter"",""5"",""14286""
","
","
","""event"",""trial"",""time""
""fullscreenenter"",""5"",""14286""
","
",NA,images/earth.jpg,NA,NA,NA,NA,NA,NA,NA,NA,NA,NA,NA,NA,NA,fixation,NA,NA,NA,NA,NA,NA,sub138
d3-animate-choice,67,216666,0.0-61.0-0.2,TRUE,FALSE,FALSE,FALSE,"""event"",""trial"",""time""
""fullscreenenter"",""5"",""14286""
","
","
","""event"",""trial"",""time""
""fullscreenenter"",""5"",""14286""
","
",919.5449999997218,NA,48,NA,NA,3000,1,NA,NA,images/earth.jpg,images/tutrocket2,images/tutrocket1,null,images/tutrocket2,NA,1,practice,null,2,NA,NA,NA,sub138
d3-animate-choice,68,219021,0.0-61.0-1.2,TRUE,FALSE,FALSE,FALSE,"""event"",""trial"",""time""
""fullscreenenter"",""5"",""14286""
","
","
","""event"",""trial"",""time""
""fullscreenenter"",""5"",""14286""
","
",352.50999999968917,NA,49,NA,NA,3000,1,NA,NA,images/tutyellowplanet.jpg,images/tutalien4,images/tutalien3,images/tutrocket2,images/tutalien3,images/nothing.png,2,practice,false,1,rare,0,2020-06-26T16:18:02Z,sub138
two-step-fixation,69,220026,0.0-61.0-2.2,TRUE,FALSE,FALSE,FALSE,"""event"",""trial"",""time""
""fullscreenenter"",""5"",""14286""
","
","
","""event"",""trial"",""time""
""fullscreenenter"",""5"",""14286""
","
",NA,images/earth.jpg,NA,NA,NA,NA,NA,NA,NA,NA,NA,NA,NA,NA,NA,fixation,NA,NA,NA,NA,NA,NA,sub138
d3-animate-choice,70,222438,0.0-61.0-0.3,TRUE,FALSE,FALSE,FALSE,"""event"",""trial"",""time""
""fullscreenenter"",""5"",""14286""
","
","
","""event"",""trial"",""time""
""fullscreenenter"",""5"",""14286""
","
",406.06500000011874,NA,49,NA,NA,3000,1,NA,NA,images/earth.jpg,images/tutrocket2,images/tutrocket1,null,images/tutrocket1,NA,1,practice,null,1,NA,NA,NA,sub138
d3-animate-choice,71,224832,0.0-61.0-1.3,TRUE,FALSE,FALSE,FALSE,"""event"",""trial"",""time""
""fullscreenenter"",""5"",""14286""
","
","
","""event"",""trial"",""time""
""fullscreenenter"",""5"",""14286""
","
",389.02999999935855,NA,49,NA,NA,3000,1,NA,NA,images/tutgreenplanet.jpg,images/tutalien2,images/tutalien1,images/tutrocket1,images/tutalien1,images/nothing.png,2,practice,false,1,rare,0,2020-06-26T16:18:08Z,sub138
two-step-fixation,72,225839,0.0-61.0-2.3,TRUE,FALSE,FALSE,FALSE,"""event"",""trial"",""time""
""fullscreenenter"",""5"",""14286""
","
","
","""event"",""trial"",""time""
""fullscreenenter"",""5"",""14286""
","
",NA,images/earth.jpg,NA,NA,NA,NA,NA,NA,NA,NA,NA,NA,NA,NA,NA,fixation,NA,NA,NA,NA,NA,NA,sub138
d3-animate-choice,73,228187,0.0-61.0-0.4,TRUE,FALSE,FALSE,FALSE,"""event"",""trial"",""time""
""fullscreenenter"",""5"",""14286""
","
","
","""event"",""trial"",""time""
""fullscreenenter"",""5"",""14286""
","
",344.6750000002794,NA,49,NA,NA,3000,1,NA,NA,images/earth.jpg,images/tutrocket2,images/tutrocket1,null,images/tutrocket1,NA,1,practice,null,1,NA,NA,NA,sub138
d3-animate-choice,74,230563,0.0-61.0-1.4,TRUE,FALSE,FALSE,FALSE,"""event"",""trial"",""time""
""fullscreenenter"",""5"",""14286""
","
","
","""event"",""trial"",""time""
""fullscreenenter"",""5"",""14286""
","
",371.8399999997928,NA,48,NA,NA,3000,1,NA,NA,images/tutgreenplanet.jpg,images/tutalien2,images/tutalien1,images/tutrocket1,images/tutalien2,images/nothing.png,2,practice,false,2,rare,0,2020-06-26T16:18:13Z,sub138
two-step-fixation,75,231569,0.0-61.0-2.4,TRUE,FALSE,FALSE,FALSE,"""event"",""trial"",""time""
""fullscreenenter"",""5"",""14286""
","
","
","""event"",""trial"",""time""
""fullscreenenter"",""5"",""14286""
","
",NA,images/earth.jpg,NA,NA,NA,NA,NA,NA,NA,NA,NA,NA,NA,NA,NA,fixation,NA,NA,NA,NA,NA,NA,sub138
d3-animate-choice,76,234363,0.0-61.0-0.5,TRUE,FALSE,FALSE,FALSE,"""event"",""trial"",""time""
""fullscreenenter"",""5"",""14286""
","
","
","""event"",""trial"",""time""
""fullscreenenter"",""5"",""14286""
","
",788.2600000002421,NA,49,NA,NA,3000,1,2617.3500000004424,49,images/earth.jpg,images/tutrocket2,images/tutrocket1,null,images/tutrocket1,NA,1,practice,null,1,NA,NA,NA,sub138
d3-animate-choice,77,236729,0.0-61.0-1.5,TRUE,FALSE,FALSE,FALSE,"""event"",""trial"",""time""
""fullscreenenter"",""5"",""14286""
","
","
","""event"",""trial"",""time""
""fullscreenenter"",""5"",""14286""
","
",364.0150000001013,NA,49,NA,NA,3000,1,NA,NA,images/tutyellowplanet.jpg,images/tutalien4,images/tutalien3,images/tutrocket1,images/tutalien3,images/t.png,2,practice,true,1,common,1,2020-06-26T16:18:19Z,sub138
two-step-fixation,78,237732,0.0-61.0-2.5,TRUE,FALSE,FALSE,FALSE,"""event"",""trial"",""time""
""fullscreenenter"",""5"",""14286""
","
","
","""event"",""trial"",""time""
""fullscreenenter"",""5"",""14286""
","
",NA,images/earth.jpg,NA,NA,NA,NA,NA,NA,NA,NA,NA,NA,NA,NA,NA,fixation,NA,NA,NA,NA,NA,NA,sub138
d3-animate-choice,79,240120,0.0-61.0-0.6,TRUE,FALSE,FALSE,FALSE,"""event"",""trial"",""time""
""fullscreenenter"",""5"",""14286""
","
","
","""event"",""trial"",""time""
""fullscreenenter"",""5"",""14286""
","
",383.65000000069267,NA,49,NA,NA,3000,1,NA,NA,images/earth.jpg,images/tutrocket2,images/tutrocket1,null,images/tutrocket1,NA,1,practice,null,1,NA,NA,NA,sub138
d3-animate-choice,80,242582,0.0-61.0-1.6,TRUE,FALSE,FALSE,FALSE,"""event"",""trial"",""time""
""fullscreenenter"",""5"",""14286""
","
","
","""event"",""trial"",""time""
""fullscreenenter"",""5"",""14286""
","
",457.3150000005553,NA,49,NA,NA,3000,1,NA,NA,images/tutyellowplanet.jpg,images/tutalien4,images/tutalien3,images/tutrocket1,images/tutalien3,images/nothing.png,2,practice,true,1,common,0,2020-06-26T16:18:25Z,sub138
two-step-fixation,81,243585,0.0-61.0-2.6,TRUE,FALSE,FALSE,FALSE,"""event"",""trial"",""time""
""fullscreenenter"",""5"",""14286""
","
","
","""event"",""trial"",""time""
""fullscreenenter"",""5"",""14286""
","
",NA,images/earth.jpg,NA,NA,NA,NA,NA,NA,NA,NA,NA,NA,NA,NA,NA,fixation,NA,NA,NA,NA,NA,NA,sub138
d3-animate-choice,82,245892,0.0-61.0-0.7,TRUE,FALSE,FALSE,FALSE,"""event"",""trial"",""time""
""fullscreenenter"",""5"",""14286""
","
","
","""event"",""trial"",""time""
""fullscreenenter"",""5"",""14286""
","
",302.5950000000885,NA,49,NA,NA,3000,1,NA,NA,images/earth.jpg,images/tutrocket2,images/tutrocket1,null,images/tutrocket1,NA,1,practice,null,1,NA,NA,NA,sub138
d3-animate-choice,83,248863,0.0-61.0-1.7,TRUE,FALSE,FALSE,FALSE,"""event"",""trial"",""time""
""fullscreenenter"",""5"",""14286""
","
","
","""event"",""trial"",""time""
""fullscreenenter"",""5"",""14286""
","
",962.5350000005565,NA,49,NA,NA,3000,1,NA,NA,images/tutyellowplanet.jpg,images/tutalien4,images/tutalien3,images/tutrocket1,images/tutalien3,images/nothing.png,2,practice,true,1,common,0,2020-06-26T16:18:32Z,sub138
two-step-fixation,84,249868,0.0-61.0-2.7,TRUE,FALSE,FALSE,FALSE,"""event"",""trial"",""time""
""fullscreenenter"",""5"",""14286""
","
","
","""event"",""trial"",""time""
""fullscreenenter"",""5"",""14286""
","
",NA,images/earth.jpg,NA,NA,NA,NA,NA,NA,NA,NA,NA,NA,NA,NA,NA,fixation,NA,NA,NA,NA,NA,NA,sub138
d3-animate-choice,85,252145,0.0-61.0-0.8,TRUE,FALSE,FALSE,FALSE,"""event"",""trial"",""time""
""fullscreenenter"",""5"",""14286""
","
","
","""event"",""trial"",""time""
""fullscreenenter"",""5"",""14286""
","
",269.8250000003318,NA,49,NA,NA,3000,1,NA,NA,images/earth.jpg,images/tutrocket2,images/tutrocket1,null,images/tutrocket1,NA,1,practice,null,1,NA,NA,NA,sub138
d3-animate-choice,86,254577,0.0-61.0-1.8,TRUE,FALSE,FALSE,FALSE,"""event"",""trial"",""time""
""fullscreenenter"",""5"",""14286""
","
","
","""event"",""trial"",""time""
""fullscreenenter"",""5"",""14286""
","
",425.7099999995262,NA,48,NA,NA,3000,1,NA,NA,images/tutyellowplanet.jpg,images/tutalien4,images/tutalien3,images/tutrocket1,images/tutalien4,images/t.png,2,practice,true,2,common,1,2020-06-26T16:18:37Z,sub138
two-step-fixation,87,255584,0.0-61.0-2.8,TRUE,FALSE,FALSE,FALSE,"""event"",""trial"",""time""
""fullscreenenter"",""5"",""14286""
","
","
","""event"",""trial"",""time""
""fullscreenenter"",""5"",""14286""
","
",NA,images/earth.jpg,NA,NA,NA,NA,NA,NA,NA,NA,NA,NA,NA,NA,NA,fixation,NA,NA,NA,NA,NA,NA,sub138
d3-animate-choice,88,257847,0.0-61.0-0.9,TRUE,FALSE,FALSE,FALSE,"""event"",""trial"",""time""
""fullscreenenter"",""5"",""14286""
","
","
","""event"",""trial"",""time""
""fullscreenenter"",""5"",""14286""
","
",257.4599999998172,NA,49,NA,NA,3000,1,NA,NA,images/earth.jpg,images/tutrocket2,images/tutrocket1,null,images/tutrocket1,NA,1,practice,null,1,NA,NA,NA,sub138
d3-animate-choice,89,260159,0.0-61.0-1.9,TRUE,FALSE,FALSE,FALSE,"""event"",""trial"",""time""
""fullscreenenter"",""5"",""14286""
","
","
","""event"",""trial"",""time""
""fullscreenenter"",""5"",""14286""
","
",308.3800000004121,NA,48,NA,NA,3000,1,NA,NA,images/tutgreenplanet.jpg,images/tutalien2,images/tutalien1,images/tutrocket1,images/tutalien2,images/t.png,2,practice,false,2,rare,1,2020-06-26T16:18:43Z,sub138
two-step-fixation,90,261163,0.0-61.0-2.9,TRUE,FALSE,FALSE,FALSE,"""event"",""trial"",""time""
""fullscreenenter"",""5"",""14286""
","
","
","""event"",""trial"",""time""
""fullscreenenter"",""5"",""14286""
","
",NA,images/earth.jpg,NA,NA,NA,NA,NA,NA,NA,NA,NA,NA,NA,NA,NA,fixation,NA,NA,NA,NA,NA,NA,sub138
d3-animate-choice,91,263546,0.0-61.0-0.10,TRUE,FALSE,FALSE,FALSE,"""event"",""trial"",""time""
""fullscreenenter"",""5"",""14286""
","
","
","""event"",""trial"",""time""
""fullscreenenter"",""5"",""14286""
","
",377.78499999962514,NA,49,NA,NA,3000,1,NA,NA,images/earth.jpg,images/tutrocket2,images/tutrocket1,null,images/tutrocket1,NA,1,practice,null,1,NA,NA,NA,sub138
d3-animate-choice,92,266150,0.0-61.0-1.10,TRUE,FALSE,FALSE,FALSE,"""event"",""trial"",""time""
""fullscreenenter"",""5"",""14286""
","
","
","""event"",""trial"",""time""
""fullscreenenter"",""5"",""14286""
","
",599.5050000001211,NA,48,NA,NA,3000,1,NA,NA,images/tutgreenplanet.jpg,images/tutalien2,images/tutalien1,images/tutrocket1,images/tutalien2,images/nothing.png,2,practice,false,2,rare,0,2020-06-26T16:18:49Z,sub138
two-step-fixation,93,267153,0.0-61.0-2.10,TRUE,FALSE,FALSE,FALSE,"""event"",""trial"",""time""
""fullscreenenter"",""5"",""14286""
","
","
","""event"",""trial"",""time""
""fullscreenenter"",""5"",""14286""
","
",NA,images/earth.jpg,NA,NA,NA,NA,NA,NA,NA,NA,NA,NA,NA,NA,NA,fixation,NA,NA,NA,NA,NA,NA,sub138
d3-animate-choice,94,269279,0.0-61.0-0.11,TRUE,FALSE,FALSE,FALSE,"""event"",""trial"",""time""
""fullscreenenter"",""5"",""14286""
","
","
","""event"",""trial"",""time""
""fullscreenenter"",""5"",""14286""
","
",119.98499999934575,NA,49,NA,NA,3000,1,NA,NA,images/earth.jpg,images/tutrocket2,images/tutrocket1,null,images/tutrocket1,NA,1,practice,null,1,NA,NA,NA,sub138
d3-animate-choice,95,271927,0.0-61.0-1.11,TRUE,FALSE,FALSE,FALSE,"""event"",""trial"",""time""
""fullscreenenter"",""5"",""14286""
","
","
","""event"",""trial"",""time""
""fullscreenenter"",""5"",""14286""
","
",644.0800000000745,NA,48,NA,NA,3000,1,NA,NA,images/tutyellowplanet.jpg,images/tutalien4,images/tutalien3,images/tutrocket1,images/tutalien4,images/t.png,2,practice,true,2,common,1,2020-06-26T16:18:55Z,sub138
two-step-fixation,96,272931,0.0-61.0-2.11,TRUE,FALSE,FALSE,FALSE,"""event"",""trial"",""time""
""fullscreenenter"",""5"",""14286""
","
","
","""event"",""trial"",""time""
""fullscreenenter"",""5"",""14286""
","
",NA,images/earth.jpg,NA,NA,NA,NA,NA,NA,NA,NA,NA,NA,NA,NA,NA,fixation,NA,NA,NA,NA,NA,NA,sub138
d3-animate-choice,97,275249,0.0-61.0-0.12,TRUE,FALSE,FALSE,FALSE,"""event"",""trial"",""time""
""fullscreenenter"",""5"",""14286""
","
","
","""event"",""trial"",""time""
""fullscreenenter"",""5"",""14286""
","
",314.66499999986263,NA,49,NA,NA,3000,1,NA,NA,images/earth.jpg,images/tutrocket2,images/tutrocket1,null,images/tutrocket1,NA,1,practice,null,1,NA,NA,NA,sub138
d3-animate-choice,98,278460,0.0-61.0-1.12,TRUE,FALSE,FALSE,FALSE,"""event"",""trial"",""time""
""fullscreenenter"",""5"",""14286""
","
","
","""event"",""trial"",""time""
""fullscreenenter"",""5"",""14286""
","
",1205.8950000000768,NA,48,NA,NA,3000,1,NA,NA,images/tutgreenplanet.jpg,images/tutalien2,images/tutalien1,images/tutrocket1,images/tutalien2,images/t.png,2,practice,false,2,rare,1,2020-06-26T16:19:01Z,sub138
two-step-fixation,99,279465,0.0-61.0-2.12,TRUE,FALSE,FALSE,FALSE,"""event"",""trial"",""time""
""fullscreenenter"",""5"",""14286""
","
","
","""event"",""trial"",""time""
""fullscreenenter"",""5"",""14286""
","
",NA,images/earth.jpg,NA,NA,NA,NA,NA,NA,NA,NA,NA,NA,NA,NA,NA,fixation,NA,NA,NA,NA,NA,NA,sub138
d3-animate-choice,100,281495,0.0-61.0-0.13,TRUE,FALSE,FALSE,FALSE,"""event"",""trial"",""time""
""fullscreenenter"",""5"",""14286""
","
","
","""event"",""trial"",""time""
""fullscreenenter"",""5"",""14286""
","
",26.609999999927823,NA,49,NA,NA,3000,1,NA,NA,images/earth.jpg,images/tutrocket2,images/tutrocket1,null,images/tutrocket1,NA,1,practice,null,1,NA,NA,NA,sub138
d3-animate-choice,101,283884,0.0-61.0-1.13,TRUE,FALSE,FALSE,FALSE,"""event"",""trial"",""time""
""fullscreenenter"",""5"",""14286""
","
","
","""event"",""trial"",""time""
""fullscreenenter"",""5"",""14286""
","
",384.5600000004051,NA,48,NA,NA,3000,1,NA,NA,images/tutyellowplanet.jpg,images/tutalien4,images/tutalien3,images/tutrocket1,images/tutalien4,images/nothing.png,2,practice,true,2,common,0,2020-06-26T16:19:07Z,sub138
two-step-fixation,102,284887,0.0-61.0-2.13,TRUE,FALSE,FALSE,FALSE,"""event"",""trial"",""time""
""fullscreenenter"",""5"",""14286""
","
","
","""event"",""trial"",""time""
""fullscreenenter"",""5"",""14286""
","
",NA,images/earth.jpg,NA,NA,NA,NA,NA,NA,NA,NA,NA,NA,NA,NA,NA,fixation,NA,NA,NA,NA,NA,NA,sub138
d3-animate-choice,103,287252,0.0-61.0-0.14,TRUE,FALSE,FALSE,FALSE,"""event"",""trial"",""time""
""fullscreenenter"",""5"",""14286""
","
","
","""event"",""trial"",""time""
""fullscreenenter"",""5"",""14286""
","
",363.094999999681,NA,49,NA,NA,3000,1,NA,NA,images/earth.jpg,images/tutrocket2,images/tutrocket1,null,images/tutrocket1,NA,1,practice,null,1,NA,NA,NA,sub138
d3-animate-choice,104,289791,0.0-61.0-1.14,TRUE,FALSE,FALSE,FALSE,"""event"",""trial"",""time""
""fullscreenenter"",""5"",""14286""
","
","
","""event"",""trial"",""time""
""fullscreenenter"",""5"",""14286""
","
",530.8049999994109,NA,49,NA,NA,3000,1,NA,NA,images/tutyellowplanet.jpg,images/tutalien4,images/tutalien3,images/tutrocket1,images/tutalien3,images/t.png,2,practice,true,1,common,1,2020-06-26T16:19:12Z,sub138
two-step-fixation,105,290795,0.0-61.0-2.14,TRUE,FALSE,FALSE,FALSE,"""event"",""trial"",""time""
""fullscreenenter"",""5"",""14286""
","
","
","""event"",""trial"",""time""
""fullscreenenter"",""5"",""14286""
","
",NA,images/earth.jpg,NA,NA,NA,NA,NA,NA,NA,NA,NA,NA,NA,NA,NA,fixation,NA,NA,NA,NA,NA,NA,sub138
d3-animate-choice,106,292896,0.0-61.0-0.15,TRUE,FALSE,FALSE,FALSE,"""event"",""trial"",""time""
""fullscreenenter"",""5"",""14286""
","
","
","""event"",""trial"",""time""
""fullscreenenter"",""5"",""14286""
","
",93.659999999566935,NA,49,NA,NA,3000,1,NA,NA,images/earth.jpg,images/tutrocket2,images/tutrocket1,null,images/tutrocket1,NA,1,practice,null,1,NA,NA,NA,sub138
d3-animate-choice,107,295869,0.0-61.0-1.15,TRUE,FALSE,FALSE,FALSE,"""event"",""trial"",""time""
""fullscreenenter"",""5"",""14286""
","
","
","""event"",""trial"",""time""
""fullscreenenter"",""5"",""14286""
","
",966.8650000002817,NA,48,NA,NA,3000,1,NA,NA,images/tutgreenplanet.jpg,images/tutalien2,images/tutalien1,images/tutrocket1,images/tutalien2,images/nothing.png,2,practice,false,2,rare,0,2020-06-26T16:19:19Z,sub138
two-step-fixation,108,296874,0.0-61.0-2.15,TRUE,FALSE,FALSE,FALSE,"""event"",""trial"",""time""
""fullscreenenter"",""5"",""14286""
","
","
","""event"",""trial"",""time""
""fullscreenenter"",""5"",""14286""
","
",NA,images/earth.jpg,NA,NA,NA,NA,NA,NA,NA,NA,NA,NA,NA,NA,NA,fixation,NA,NA,NA,NA,NA,NA,sub138
d3-animate-choice,109,299153,0.0-61.0-0.16,TRUE,FALSE,FALSE,FALSE,"""event"",""trial"",""time""
""fullscreenenter"",""5"",""14286""
","
","
","""event"",""trial"",""time""
""fullscreenenter"",""5"",""14286""
","
",271.78000000008615,NA,48,NA,NA,3000,1,NA,NA,images/earth.jpg,images/tutrocket2,images/tutrocket1,null,images/tutrocket2,NA,1,practice,null,2,NA,NA,NA,sub138
d3-animate-choice,110,302875,0.0-61.0-1.16,TRUE,FALSE,FALSE,FALSE,"""event"",""trial"",""time""
""fullscreenenter"",""5"",""14286""
","
","
","""event"",""trial"",""time""
""fullscreenenter"",""5"",""14286""
","
",1716.6200000001118,NA,48,NA,NA,3000,1,NA,NA,images/tutyellowplanet.jpg,images/tutalien4,images/tutalien3,images/tutrocket2,images/tutalien4,images/nothing.png,2,practice,false,2,rare,0,2020-06-26T16:19:26Z,sub138
two-step-fixation,111,303879,0.0-61.0-2.16,TRUE,FALSE,FALSE,FALSE,"""event"",""trial"",""time""
""fullscreenenter"",""5"",""14286""
","
","
","""event"",""trial"",""time""
""fullscreenenter"",""5"",""14286""
","
",NA,images/earth.jpg,NA,NA,NA,NA,NA,NA,NA,NA,NA,NA,NA,NA,NA,fixation,NA,NA,NA,NA,NA,NA,sub138
d3-animate-choice,112,305911,0.0-61.0-0.17,TRUE,FALSE,FALSE,FALSE,"""event"",""trial"",""time""
""fullscreenenter"",""5"",""14286""
","
","
","""event"",""trial"",""time""
""fullscreenenter"",""5"",""14286""
","
",27.17500000016298,NA,48,NA,NA,3000,1,NA,NA,images/earth.jpg,images/tutrocket2,images/tutrocket1,null,images/tutrocket2,NA,1,practice,null,2,NA,NA,NA,sub138
d3-animate-choice,113,308306,0.0-61.0-1.17,TRUE,FALSE,FALSE,FALSE,"""event"",""trial"",""time""
""fullscreenenter"",""5"",""14286""
","
","
","""event"",""trial"",""time""
""fullscreenenter"",""5"",""14286""
","
",390.5300000005518,NA,49,NA,NA,3000,1,NA,NA,images/tutyellowplanet.jpg,images/tutalien4,images/tutalien3,images/tutrocket2,images/tutalien3,images/t.png,2,practice,false,1,rare,1,2020-06-26T16:19:31Z,sub138
two-step-fixation,114,309309,0.0-61.0-2.17,TRUE,FALSE,FALSE,FALSE,"""event"",""trial"",""time""
""fullscreenenter"",""5"",""14286""
","
","
","""event"",""trial"",""time""
""fullscreenenter"",""5"",""14286""
","
",NA,images/earth.jpg,NA,NA,NA,NA,NA,NA,NA,NA,NA,NA,NA,NA,NA,fixation,NA,NA,NA,NA,NA,NA,sub138
d3-animate-choice,115,311598,0.0-61.0-0.18,TRUE,FALSE,FALSE,FALSE,"""event"",""trial"",""time""
""fullscreenenter"",""5"",""14286""
","
","
","""event"",""trial"",""time""
""fullscreenenter"",""5"",""14286""
","
",285.25999999966007,NA,48,NA,NA,3000,1,NA,NA,images/earth.jpg,images/tutrocket2,images/tutrocket1,null,images/tutrocket2,NA,1,practice,null,2,NA,NA,NA,sub138
d3-animate-choice,116,314519,0.0-61.0-1.18,TRUE,FALSE,FALSE,FALSE,"""event"",""trial"",""time""
""fullscreenenter"",""5"",""14286""
","
","
","""event"",""trial"",""time""
""fullscreenenter"",""5"",""14286""
","
",917.8449999999139,NA,49,NA,NA,3000,1,NA,NA,images/tutgreenplanet.jpg,images/tutalien2,images/tutalien1,images/tutrocket2,images/tutalien1,images/nothing.png,2,practice,true,1,common,0,2020-06-26T16:19:37Z,sub138
two-step-fixation,117,315522,0.0-61.0-2.18,TRUE,FALSE,FALSE,FALSE,"""event"",""trial"",""time""
""fullscreenenter"",""5"",""14286""
","
","
","""event"",""trial"",""time""
""fullscreenenter"",""5"",""14286""
","
",NA,images/earth.jpg,NA,NA,NA,NA,NA,NA,NA,NA,NA,NA,NA,NA,NA,fixation,NA,NA,NA,NA,NA,NA,sub138
d3-animate-choice,118,317631,0.0-61.0-0.19,TRUE,FALSE,FALSE,FALSE,"""event"",""trial"",""time""
""fullscreenenter"",""5"",""14286""
","
","
","""event"",""trial"",""time""
""fullscreenenter"",""5"",""14286""
","
",102.9399999997695,NA,48,NA,NA,3000,1,NA,NA,images/earth.jpg,images/tutrocket2,images/tutrocket1,null,images/tutrocket2,NA,1,practice,null,2,NA,NA,NA,sub138
d3-animate-choice,119,320241,0.0-61.0-1.19,TRUE,FALSE,FALSE,FALSE,"""event"",""trial"",""time""
""fullscreenenter"",""5"",""14286""
","
","
","""event"",""trial"",""time""
""fullscreenenter"",""5"",""14286""
","
",607.1000000001513,NA,48,NA,NA,3000,1,NA,NA,images/tutgreenplanet.jpg,images/tutalien2,images/tutalien1,images/tutrocket2,images/tutalien2,images/t.png,2,practice,true,2,common,1,2020-06-26T16:19:43Z,sub138
two-step-fixation,120,321244,0.0-61.0-2.19,TRUE,FALSE,FALSE,FALSE,"""event"",""trial"",""time""
""fullscreenenter"",""5"",""14286""
","
","
","""event"",""trial"",""time""
""fullscreenenter"",""5"",""14286""
","
",NA,images/earth.jpg,NA,NA,NA,NA,NA,NA,NA,NA,NA,NA,NA,NA,NA,fixation,NA,NA,NA,NA,NA,NA,sub138
d3-instructions,121,324175,0.0-62.0,TRUE,FALSE,FALSE,FALSE,"""event"",""trial"",""time""
""fullscreenenter"",""5"",""14286""
","
","
","""event"",""trial"",""time""
""fullscreenenter"",""5"",""14286""
","
",NA,NA,NA,NA,NA,NA,NA,NA,NA,NA,NA,NA,NA,NA,NA,NA,NA,NA,NA,NA,NA,NA,sub138
audio-keyboard-response,122,325917,0.0-63.0,TRUE,FALSE,FALSE,FALSE,"""event"",""trial"",""time""
""fullscreenenter"",""5"",""14286""
","
","
","""event"",""trial"",""time""
""fullscreenenter"",""5"",""14286""
","
",1739,audio/instructions/treasure_feedback.wav,32,NA,NA,NA,NA,NA,NA,NA,NA,NA,NA,NA,NA,NA,NA,NA,NA,NA,NA,NA,sub138
d3-instructions,123,330275,0.0-64.0,TRUE,FALSE,FALSE,FALSE,"""event"",""trial"",""time""
""fullscreenenter"",""5"",""14286""
","
","
","""event"",""trial"",""time""
""fullscreenenter"",""5"",""14286""
","
",NA,NA,NA,NA,NA,NA,NA,NA,NA,NA,NA,NA,NA,NA,NA,NA,NA,NA,NA,NA,NA,NA,sub138
d3-instructions,124,338569,0.0-65.0,TRUE,FALSE,FALSE,FALSE,"""event"",""trial"",""time""
""fullscreenenter"",""5"",""14286""
","
","
","""event"",""trial"",""time""
""fullscreenenter"",""5"",""14286""
","
",NA,NA,NA,NA,NA,NA,NA,NA,NA,NA,NA,NA,NA,NA,NA,NA,NA,NA,NA,NA,NA,NA,sub138
d3-instructions,125,352771,0.0-66.0,TRUE,FALSE,FALSE,FALSE,"""event"",""trial"",""time""
""fullscreenenter"",""5"",""14286""
","
","
","""event"",""trial"",""time""
""fullscreenenter"",""5"",""14286""
","
",NA,NA,NA,NA,NA,NA,NA,NA,NA,NA,NA,NA,NA,NA,NA,NA,NA,NA,NA,NA,NA,NA,sub138
d3-instructions,126,361415,0.0-67.0,TRUE,FALSE,FALSE,FALSE,"""event"",""trial"",""time""
""fullscreenenter"",""5"",""14286""
","
","
","""event"",""trial"",""time""
""fullscreenenter"",""5"",""14286""
","
",NA,NA,NA,NA,NA,NA,NA,NA,NA,NA,NA,NA,NA,NA,NA,NA,NA,NA,NA,NA,NA,NA,sub138
d3-instructions,127,363554,0.0-68.0,TRUE,FALSE,FALSE,FALSE,"""event"",""trial"",""time""
""fullscreenenter"",""5"",""14286""
","
","
","""event"",""trial"",""time""
""fullscreenenter"",""5"",""14286""
","
",NA,NA,NA,NA,NA,NA,NA,NA,NA,NA,NA,NA,NA,NA,NA,NA,NA,NA,NA,NA,NA,NA,sub138
instructions-quiz,128,366403,0.0-69.0,TRUE,FALSE,FALSE,FALSE,"""event"",""trial"",""time""
""fullscreenenter"",""5"",""14286""
","
","
","""event"",""trial"",""time""
""fullscreenenter"",""5"",""14286""
","
",2847.110000000568,audio/quiz/Q1_Prompt.wav,NA,1,NA,NA,NA,NA,NA,NA,NA,NA,NA,NA,NA,NA,NA,NA,NA,NA,NA,NA,sub138
audio-keyboard-response,129,369185,0.0-70.0,TRUE,FALSE,FALSE,FALSE,"""event"",""trial"",""time""
""fullscreenenter"",""5"",""14286""
","
","
","""event"",""trial"",""time""
""fullscreenenter"",""5"",""14286""
","
",2784,audio/quiz/Q1_Correct.wav,32,NA,NA,NA,NA,NA,NA,NA,NA,NA,NA,NA,NA,NA,NA,NA,NA,NA,NA,NA,sub138
instructions-quiz,130,372413,0.0-71.0,TRUE,FALSE,FALSE,FALSE,"""event"",""trial"",""time""
""fullscreenenter"",""5"",""14286""
","
","
","""event"",""trial"",""time""
""fullscreenenter"",""5"",""14286""
","
",3226.2350000001024,audio/quiz/Q2_Prompt.wav,NA,1,NA,NA,NA,NA,NA,NA,NA,NA,NA,NA,NA,NA,NA,NA,NA,NA,NA,NA,sub138
audio-keyboard-response,131,379354,0.0-72.0,TRUE,FALSE,FALSE,FALSE,"""event"",""trial"",""time""
""fullscreenenter"",""5"",""14286""
","
","
","""event"",""trial"",""time""
""fullscreenenter"",""5"",""14286""
","
",6939,audio/quiz/Q2_Incorrect.wav,32,NA,NA,NA,NA,NA,NA,NA,NA,NA,NA,NA,NA,NA,NA,NA,NA,NA,NA,NA,sub138
instructions-quiz,132,380990,0.0-73.0,TRUE,FALSE,FALSE,FALSE,"""event"",""trial"",""time""
""fullscreenenter"",""5"",""14286""
","
","
","""event"",""trial"",""time""
""fullscreenenter"",""5"",""14286""
","
",1635.7149999994435,audio/quiz/Q3_Prompt.wav,NA,1,NA,NA,NA,NA,NA,NA,NA,NA,NA,NA,NA,NA,NA,NA,NA,NA,NA,NA,sub138
audio-keyboard-response,133,382338,0.0-74.0,TRUE,FALSE,FALSE,FALSE,"""event"",""trial"",""time""
""fullscreenenter"",""5"",""14286""
","
","
","""event"",""trial"",""time""
""fullscreenenter"",""5"",""14286""
","
",1349,audio/quiz/Q3_Correct.wav,32,NA,NA,NA,NA,NA,NA,NA,NA,NA,NA,NA,NA,NA,NA,NA,NA,NA,NA,NA,sub138
d3-instructions,134,383725,0.0-75.0,TRUE,FALSE,FALSE,FALSE,"""event"",""trial"",""time""
""fullscreenenter"",""5"",""14286""
","
","
","""event"",""trial"",""time""
""fullscreenenter"",""5"",""14286""
","
",NA,NA,NA,NA,NA,NA,NA,NA,NA,NA,NA,NA,NA,NA,NA,NA,NA,NA,NA,NA,NA,NA,sub138
d3-animate-choice,135,387324,0.0-76.0-0.0,TRUE,FALSE,FALSE,FALSE,"""event"",""trial"",""time""
""fullscreenenter"",""5"",""14286""
","
","
","""event"",""trial"",""time""
""fullscreenenter"",""5"",""14286""
","
",1597.6449999997858,NA,49,NA,NA,3000,1,NA,NA,images/earth.jpg,images/rocket2,images/rocket1,null,images/rocket1,NA,1,real,null,1,NA,NA,NA,sub138
d3-animate-choice,136,389880,0.0-76.0-1.0,TRUE,FALSE,FALSE,FALSE,"""event"",""trial"",""time""
""fullscreenenter"",""5"",""14286""
","
","
","""event"",""trial"",""time""
""fullscreenenter"",""5"",""14286""
","
",551.6499999994412,NA,49,NA,NA,3000,1,NA,NA,images/purpleplanet.jpg,images/alien4,images/alien3,images/rocket1,images/alien3,images/t.png,2,real,true,1,common,1,2020-06-26T16:20:53Z,sub138
two-step-fixation,137,390885,0.0-76.0-2.0,TRUE,FALSE,FALSE,FALSE,"""event"",""trial"",""time""
""fullscreenenter"",""5"",""14286""
","
","
","""event"",""trial"",""time""
""fullscreenenter"",""5"",""14286""
","
",NA,images/earth.jpg,NA,NA,NA,NA,NA,NA,NA,NA,NA,NA,NA,NA,NA,fixation,NA,NA,NA,NA,NA,NA,sub138
d3-animate-choice,138,393174,0.0-76.0-0.1,TRUE,FALSE,FALSE,FALSE,"""event"",""trial"",""time""
""fullscreenenter"",""5"",""14286""
","
","
","""event"",""trial"",""time""
""fullscreenenter"",""5"",""14286""
","
",286.12499999965075,NA,49,NA,NA,3000,1,NA,NA,images/earth.jpg,images/rocket2,images/rocket1,null,images/rocket1,NA,1,real,null,1,NA,NA,NA,sub138
d3-animate-choice,139,395610,0.0-76.0-1.1,TRUE,FALSE,FALSE,FALSE,"""event"",""trial"",""time""
""fullscreenenter"",""5"",""14286""
","
","
","""event"",""trial"",""time""
""fullscreenenter"",""5"",""14286""
","
",431.8750000001746,NA,49,NA,NA,3000,1,NA,NA,images/purpleplanet.jpg,images/alien4,images/alien3,images/rocket1,images/alien3,images/nothing.png,2,real,true,1,common,0,2020-06-26T16:20:58Z,sub138
two-step-fixation,140,396615,0.0-76.0-2.1,TRUE,FALSE,FALSE,FALSE,"""event"",""trial"",""time""
""fullscreenenter"",""5"",""14286""
","
","
","""event"",""trial"",""time""
""fullscreenenter"",""5"",""14286""
","
",NA,images/earth.jpg,NA,NA,NA,NA,NA,NA,NA,NA,NA,NA,NA,NA,NA,fixation,NA,NA,NA,NA,NA,NA,sub138
d3-animate-choice,141,398930,0.0-76.0-0.2,TRUE,FALSE,FALSE,FALSE,"""event"",""trial"",""time""
""fullscreenenter"",""5"",""14286""
","
","
","""event"",""trial"",""time""
""fullscreenenter"",""5"",""14286""
","
",312.5700000000652,NA,49,NA,NA,3000,1,NA,NA,images/earth.jpg,images/rocket2,images/rocket1,null,images/rocket1,NA,1,real,null,1,NA,NA,NA,sub138
d3-animate-choice,142,401242,0.0-76.0-1.2,TRUE,FALSE,FALSE,FALSE,"""event"",""trial"",""time""
""fullscreenenter"",""5"",""14286""
","
","
","""event"",""trial"",""time""
""fullscreenenter"",""5"",""14286""
","
",309.27500000054715,NA,48,NA,NA,3000,1,NA,NA,images/redplanet1.jpg,images/alien2,images/alien1,images/rocket1,images/alien2,images/nothing.png,2,real,false,2,rare,0,2020-06-26T16:21:04Z,sub138
two-step-fixation,143,402245,0.0-76.0-2.2,TRUE,FALSE,FALSE,FALSE,"""event"",""trial"",""time""
""fullscreenenter"",""5"",""14286""
","
","
","""event"",""trial"",""time""
""fullscreenenter"",""5"",""14286""
","
",NA,images/earth.jpg,NA,NA,NA,NA,NA,NA,NA,NA,NA,NA,NA,NA,NA,fixation,NA,NA,NA,NA,NA,NA,sub138
d3-animate-choice,144,404555,0.0-76.0-0.3,TRUE,FALSE,FALSE,FALSE,"""event"",""trial"",""time""
""fullscreenenter"",""5"",""14286""
","
","
","""event"",""trial"",""time""
""fullscreenenter"",""5"",""14286""
","
",304.6300000005285,NA,49,NA,NA,3000,1,NA,NA,images/earth.jpg,images/rocket2,images/rocket1,null,images/rocket1,NA,1,real,null,1,NA,NA,NA,sub138
d3-animate-choice,145,407185,0.0-76.0-1.3,TRUE,FALSE,FALSE,FALSE,"""event"",""trial"",""time""
""fullscreenenter"",""5"",""14286""
","
","
","""event"",""trial"",""time""
""fullscreenenter"",""5"",""14286""
","
",628.335000000312,NA,49,NA,NA,3000,1,NA,NA,images/redplanet1.jpg,images/alien2,images/alien1,images/rocket1,images/alien1,images/t.png,2,real,false,1,rare,1,2020-06-26T16:21:10Z,sub138
two-step-fixation,146,408188,0.0-76.0-2.3,TRUE,FALSE,FALSE,FALSE,"""event"",""trial"",""time""
""fullscreenenter"",""5"",""14286""
","
","
","""event"",""trial"",""time""
""fullscreenenter"",""5"",""14286""
","
",NA,images/earth.jpg,NA,NA,NA,NA,NA,NA,NA,NA,NA,NA,NA,NA,NA,fixation,NA,NA,NA,NA,NA,NA,sub138
d3-animate-choice,147,410540,0.0-76.0-0.4,TRUE,FALSE,FALSE,FALSE,"""event"",""trial"",""time""
""fullscreenenter"",""5"",""14286""
","
","
","""event"",""trial"",""time""
""fullscreenenter"",""5"",""14286""
","
",347.41500000015367,NA,49,NA,NA,3000,1,NA,NA,images/earth.jpg,images/rocket2,images/rocket1,null,images/rocket1,NA,1,real,null,1,NA,NA,NA,sub138
d3-animate-choice,148,413511,0.0-76.0-1.4,TRUE,FALSE,FALSE,FALSE,"""event"",""trial"",""time""
""fullscreenenter"",""5"",""14286""
","
","
","""event"",""trial"",""time""
""fullscreenenter"",""5"",""14286""
","
",967.3250000005355,NA,49,NA,NA,3000,1,NA,NA,images/redplanet1.jpg,images/alien2,images/alien1,images/rocket1,images/alien1,images/nothing.png,2,real,false,1,rare,0,2020-06-26T16:21:16Z,sub138
two-step-fixation,149,414515,0.0-76.0-2.4,TRUE,FALSE,FALSE,FALSE,"""event"",""trial"",""time""
""fullscreenenter"",""5"",""14286""
","
","
","""event"",""trial"",""time""
""fullscreenenter"",""5"",""14286""
","
",NA,images/earth.jpg,NA,NA,NA,NA,NA,NA,NA,NA,NA,NA,NA,NA,NA,fixation,NA,NA,NA,NA,NA,NA,sub138
d3-animate-choice,150,417043,0.0-76.0-0.5,TRUE,FALSE,FALSE,FALSE,"""event"",""trial"",""time""
""fullscreenenter"",""5"",""14286""
","
","
","""event"",""trial"",""time""
""fullscreenenter"",""5"",""14286""
","
",521.960000000021,NA,48,NA,NA,3000,1,NA,NA,images/earth.jpg,images/rocket2,images/rocket1,null,images/rocket2,NA,1,real,null,2,NA,NA,NA,sub138
d3-animate-choice,151,420457,0.0-76.0-1.5,TRUE,FALSE,FALSE,FALSE,"""event"",""trial"",""time""
""fullscreenenter"",""5"",""14286""
","
","
","""event"",""trial"",""time""
""fullscreenenter"",""5"",""14286""
","
",1406.675000000163,NA,48,NA,NA,3000,1,NA,NA,images/redplanet1.jpg,images/alien2,images/alien1,images/rocket2,images/alien2,images/nothing.png,2,real,true,2,common,0,2020-06-26T16:21:23Z,sub138
two-step-fixation,152,421465,0.0-76.0-2.5,TRUE,FALSE,FALSE,FALSE,"""event"",""trial"",""time""
""fullscreenenter"",""5"",""14286""
","
","
","""event"",""trial"",""time""
""fullscreenenter"",""5"",""14286""
","
",NA,images/earth.jpg,NA,NA,NA,NA,NA,NA,NA,NA,NA,NA,NA,NA,NA,fixation,NA,NA,NA,NA,NA,NA,sub138
d3-animate-choice,153,423538,0.0-76.0-0.6,TRUE,FALSE,FALSE,FALSE,"""event"",""trial"",""time""
""fullscreenenter"",""5"",""14286""
","
","
","""event"",""trial"",""time""
""fullscreenenter"",""5"",""14286""
","
",68.71499999944353,NA,48,NA,NA,3000,1,NA,NA,images/earth.jpg,images/rocket2,images/rocket1,null,images/rocket2,NA,1,real,null,2,NA,NA,NA,sub138
d3-animate-choice,154,426706,0.0-76.0-1.6,TRUE,FALSE,FALSE,FALSE,"""event"",""trial"",""time""
""fullscreenenter"",""5"",""14286""
","
","
","""event"",""trial"",""time""
""fullscreenenter"",""5"",""14286""
","
",1161.5499999998137,NA,49,NA,NA,3000,1,NA,NA,images/purpleplanet.jpg,images/alien4,images/alien3,images/rocket2,images/alien3,images/nothing.png,2,real,false,1,rare,0,2020-06-26T16:21:29Z,sub138
two-step-fixation,155,427712,0.0-76.0-2.6,TRUE,FALSE,FALSE,FALSE,"""event"",""trial"",""time""
""fullscreenenter"",""5"",""14286""
","
","
","""event"",""trial"",""time""
""fullscreenenter"",""5"",""14286""
","
",NA,images/earth.jpg,NA,NA,NA,NA,NA,NA,NA,NA,NA,NA,NA,NA,NA,fixation,NA,NA,NA,NA,NA,NA,sub138
d3-animate-choice,156,430001,0.0-76.0-0.7,TRUE,FALSE,FALSE,FALSE,"""event"",""trial"",""time""
""fullscreenenter"",""5"",""14286""
","
","
","""event"",""trial"",""time""
""fullscreenenter"",""5"",""14286""
","
",284.42499999981374,NA,48,NA,NA,3000,1,NA,NA,images/earth.jpg,images/rocket2,images/rocket1,null,images/rocket2,NA,1,real,null,2,NA,NA,NA,sub138
d3-animate-choice,157,432736,0.0-76.0-1.7,TRUE,FALSE,FALSE,FALSE,"""event"",""trial"",""time""
""fullscreenenter"",""5"",""14286""
","
","
","""event"",""trial"",""time""
""fullscreenenter"",""5"",""14286""
","
",731.5800000005984,NA,49,NA,NA,3000,1,NA,NA,images/redplanet1.jpg,images/alien2,images/alien1,images/rocket2,images/alien1,images/t.png,2,real,true,1,common,1,2020-06-26T16:21:35Z,sub138
two-step-fixation,158,433741,0.0-76.0-2.7,TRUE,FALSE,FALSE,FALSE,"""event"",""trial"",""time""
""fullscreenenter"",""5"",""14286""
","
","
","""event"",""trial"",""time""
""fullscreenenter"",""5"",""14286""
","
",NA,images/earth.jpg,NA,NA,NA,NA,NA,NA,NA,NA,NA,NA,NA,NA,NA,fixation,NA,NA,NA,NA,NA,NA,sub138
d3-animate-choice,159,435984,0.0-76.0-0.8,TRUE,FALSE,FALSE,FALSE,"""event"",""trial"",""time""
""fullscreenenter"",""5"",""14286""
","
","
","""event"",""trial"",""time""
""fullscreenenter"",""5"",""14286""
","
",239.96999999962281,NA,48,NA,NA,3000,1,NA,NA,images/earth.jpg,images/rocket2,images/rocket1,null,images/rocket2,NA,1,real,null,2,NA,NA,NA,sub138
d3-animate-choice,160,438605,0.0-76.0-1.8,TRUE,FALSE,FALSE,FALSE,"""event"",""trial"",""time""
""fullscreenenter"",""5"",""14286""
","
","
","""event"",""trial"",""time""
""fullscreenenter"",""5"",""14286""
","
",616.7350000005099,NA,49,NA,NA,3000,1,NA,NA,images/redplanet1.jpg,images/alien2,images/alien1,images/rocket2,images/alien1,images/t.png,2,real,true,1,common,1,2020-06-26T16:21:41Z,sub138
two-step-fixation,161,439609,0.0-76.0-2.8,TRUE,FALSE,FALSE,FALSE,"""event"",""trial"",""time""
""fullscreenenter"",""5"",""14286""
","
","
","""event"",""trial"",""time""
""fullscreenenter"",""5"",""14286""
","
",NA,images/earth.jpg,NA,NA,NA,NA,NA,NA,NA,NA,NA,NA,NA,NA,NA,fixation,NA,NA,NA,NA,NA,NA,sub138
d3-animate-choice,162,441932,0.0-76.0-0.9,TRUE,FALSE,FALSE,FALSE,"""event"",""trial"",""time""
""fullscreenenter"",""5"",""14286""
","
","
","""event"",""trial"",""time""
""fullscreenenter"",""5"",""14286""
","
",321.045000000624,NA,48,NA,NA,3000,1,NA,NA,images/earth.jpg,images/rocket2,images/rocket1,null,images/rocket2,NA,1,real,null,2,NA,NA,NA,sub138
d3-animate-choice,163,445399,0.0-76.0-1.9,TRUE,FALSE,FALSE,FALSE,"""event"",""trial"",""time""
""fullscreenenter"",""5"",""14286""
","
","
","""event"",""trial"",""time""
""fullscreenenter"",""5"",""14286""
","
",1464.2149999999674,NA,49,NA,NA,3000,1,NA,NA,images/purpleplanet.jpg,images/alien4,images/alien3,images/rocket2,images/alien3,images/t.png,2,real,false,1,rare,1,2020-06-26T16:21:48Z,sub138
two-step-fixation,164,446403,0.0-76.0-2.9,TRUE,FALSE,FALSE,FALSE,"""event"",""trial"",""time""
""fullscreenenter"",""5"",""14286""
","
","
","""event"",""trial"",""time""
""fullscreenenter"",""5"",""14286""
","
",NA,images/earth.jpg,NA,NA,NA,NA,NA,NA,NA,NA,NA,NA,NA,NA,NA,fixation,NA,NA,NA,NA,NA,NA,sub138
d3-animate-choice,165,448771,0.0-76.0-0.10,TRUE,FALSE,FALSE,FALSE,"""event"",""trial"",""time""
""fullscreenenter"",""5"",""14286""
","
","
","""event"",""trial"",""time""
""fullscreenenter"",""5"",""14286""
","
",362.739999999525,NA,48,NA,NA,3000,1,NA,NA,images/earth.jpg,images/rocket2,images/rocket1,null,images/rocket2,NA,1,real,null,2,NA,NA,NA,sub138
d3-animate-choice,166,451232,0.0-76.0-1.10,TRUE,FALSE,FALSE,FALSE,"""event"",""trial"",""time""
""fullscreenenter"",""5"",""14286""
","
","
","""event"",""trial"",""time""
""fullscreenenter"",""5"",""14286""
","
",458.45000000006985,NA,49,NA,NA,3000,1,NA,NA,images/purpleplanet.jpg,images/alien4,images/alien3,images/rocket2,images/alien3,images/t.png,2,real,false,1,rare,1,2020-06-26T16:21:54Z,sub138
two-step-fixation,167,452236,0.0-76.0-2.10,TRUE,FALSE,FALSE,FALSE,"""event"",""trial"",""time""
""fullscreenenter"",""5"",""14286""
","
","
","""event"",""trial"",""time""
""fullscreenenter"",""5"",""14286""
","
",NA,images/earth.jpg,NA,NA,NA,NA,NA,NA,NA,NA,NA,NA,NA,NA,NA,fixation,NA,NA,NA,NA,NA,NA,sub138
d3-animate-choice,168,454508,0.0-76.0-0.11,TRUE,FALSE,FALSE,FALSE,"""event"",""trial"",""time""
""fullscreenenter"",""5"",""14286""
","
","
","""event"",""trial"",""time""
""fullscreenenter"",""5"",""14286""
","
",266.2099999997299,NA,48,NA,NA,3000,1,NA,NA,images/earth.jpg,images/rocket2,images/rocket1,null,images/rocket2,NA,1,real,null,2,NA,NA,NA,sub138
d3-animate-choice,169,457030,0.0-76.0-1.11,TRUE,FALSE,FALSE,FALSE,"""event"",""trial"",""time""
""fullscreenenter"",""5"",""14286""
","
","
","""event"",""trial"",""time""
""fullscreenenter"",""5"",""14286""
","
",519.2200000001467,NA,49,NA,NA,3000,1,NA,NA,images/purpleplanet.jpg,images/alien4,images/alien3,images/rocket2,images/alien3,images/t.png,2,real,false,1,rare,1,2020-06-26T16:22:00Z,sub138
two-step-fixation,170,458034,0.0-76.0-2.11,TRUE,FALSE,FALSE,FALSE,"""event"",""trial"",""time""
""fullscreenenter"",""5"",""14286""
","
","
","""event"",""trial"",""time""
""fullscreenenter"",""5"",""14286""
","
",NA,images/earth.jpg,NA,NA,NA,NA,NA,NA,NA,NA,NA,NA,NA,NA,NA,fixation,NA,NA,NA,NA,NA,NA,sub138
d3-animate-choice,171,460132,0.0-76.0-0.12,TRUE,FALSE,FALSE,FALSE,"""event"",""trial"",""time""
""fullscreenenter"",""5"",""14286""
","
","
","""event"",""trial"",""time""
""fullscreenenter"",""5"",""14286""
","
",93.35000000009313,NA,48,NA,NA,3000,1,NA,NA,images/earth.jpg,images/rocket2,images/rocket1,null,images/rocket2,NA,1,real,null,2,NA,NA,NA,sub138
d3-animate-choice,172,463544,0.0-76.0-1.12,TRUE,FALSE,FALSE,FALSE,"""event"",""trial"",""time""
""fullscreenenter"",""5"",""14286""
","
","
","""event"",""trial"",""time""
""fullscreenenter"",""5"",""14286""
","
",1408.2749999997905,NA,48,NA,NA,3000,1,NA,NA,images/redplanet1.jpg,images/alien2,images/alien1,images/rocket2,images/alien2,images/t.png,2,real,true,2,common,1,2020-06-26T16:22:06Z,sub138
two-step-fixation,173,464551,0.0-76.0-2.12,TRUE,FALSE,FALSE,FALSE,"""event"",""trial"",""time""
""fullscreenenter"",""5"",""14286""
","
","
","""event"",""trial"",""time""
""fullscreenenter"",""5"",""14286""
","
",NA,images/earth.jpg,NA,NA,NA,NA,NA,NA,NA,NA,NA,NA,NA,NA,NA,fixation,NA,NA,NA,NA,NA,NA,sub138
d3-animate-choice,174,466884,0.0-76.0-0.13,TRUE,FALSE,FALSE,FALSE,"""event"",""trial"",""time""
""fullscreenenter"",""5"",""14286""
","
","
","""event"",""trial"",""time""
""fullscreenenter"",""5"",""14286""
","
",328.2550000003539,NA,48,NA,NA,3000,1,NA,NA,images/earth.jpg,images/rocket2,images/rocket1,null,images/rocket2,NA,1,real,null,2,NA,NA,NA,sub138
d3-animate-choice,175,469657,0.0-76.0-1.13,TRUE,FALSE,FALSE,FALSE,"""event"",""trial"",""time""
""fullscreenenter"",""5"",""14286""
","
","
","""event"",""trial"",""time""
""fullscreenenter"",""5"",""14286""
","
",770.725000000326,NA,48,NA,NA,3000,1,NA,NA,images/redplanet1.jpg,images/alien2,images/alien1,images/rocket2,images/alien2,images/t.png,2,real,true,2,common,1,2020-06-26T16:22:12Z,sub138
two-step-fixation,176,470660,0.0-76.0-2.13,TRUE,FALSE,FALSE,FALSE,"""event"",""trial"",""time""
""fullscreenenter"",""5"",""14286""
","
","
","""event"",""trial"",""time""
""fullscreenenter"",""5"",""14286""
","
",NA,images/earth.jpg,NA,NA,NA,NA,NA,NA,NA,NA,NA,NA,NA,NA,NA,fixation,NA,NA,NA,NA,NA,NA,sub138
d3-animate-choice,177,472739,0.0-76.0-0.14,TRUE,FALSE,FALSE,FALSE,"""event"",""trial"",""time""
""fullscreenenter"",""5"",""14286""
","
","
","""event"",""trial"",""time""
""fullscreenenter"",""5"",""14286""
","
",75.63500000018394,NA,48,NA,NA,3000,1,NA,NA,images/earth.jpg,images/rocket2,images/rocket1,null,images/rocket2,NA,1,real,null,2,NA,NA,NA,sub138
d3-animate-choice,178,475385,0.0-76.0-1.14,TRUE,FALSE,FALSE,FALSE,"""event"",""trial"",""time""
""fullscreenenter"",""5"",""14286""
","
","
","""event"",""trial"",""time""
""fullscreenenter"",""5"",""14286""
","
",640.8750000000582,NA,48,NA,NA,3000,1,NA,NA,images/redplanet1.jpg,images/alien2,images/alien1,images/rocket2,images/alien2,images/nothing.png,2,real,true,2,common,0,2020-06-26T16:22:18Z,sub138
two-step-fixation,179,476388,0.0-76.0-2.14,TRUE,FALSE,FALSE,FALSE,"""event"",""trial"",""time""
""fullscreenenter"",""5"",""14286""
","
","
","""event"",""trial"",""time""
""fullscreenenter"",""5"",""14286""
","
",NA,images/earth.jpg,NA,NA,NA,NA,NA,NA,NA,NA,NA,NA,NA,NA,NA,fixation,NA,NA,NA,NA,NA,NA,sub138
d3-animate-choice,180,478473,0.0-76.0-0.15,TRUE,FALSE,FALSE,FALSE,"""event"",""trial"",""time""
""fullscreenenter"",""5"",""14286""
","
","
","""event"",""trial"",""time""
""fullscreenenter"",""5"",""14286""
","
",79.8349999995553,NA,48,NA,NA,3000,1,NA,NA,images/earth.jpg,images/rocket2,images/rocket1,null,images/rocket2,NA,1,real,null,2,NA,NA,NA,sub138
d3-animate-choice,181,480845,0.0-76.0-1.15,TRUE,FALSE,FALSE,FALSE,"""event"",""trial"",""time""
""fullscreenenter"",""5"",""14286""
","
","
","""event"",""trial"",""time""
""fullscreenenter"",""5"",""14286""
","
",366.760000000766,NA,49,NA,NA,3000,1,NA,NA,images/redplanet1.jpg,images/alien2,images/alien1,images/rocket2,images/alien1,images/t.png,2,real,true,1,common,1,2020-06-26T16:22:24Z,sub138
two-step-fixation,182,481847,0.0-76.0-2.15,TRUE,FALSE,FALSE,FALSE,"""event"",""trial"",""time""
""fullscreenenter"",""5"",""14286""
","
","
","""event"",""trial"",""time""
""fullscreenenter"",""5"",""14286""
","
",NA,images/earth.jpg,NA,NA,NA,NA,NA,NA,NA,NA,NA,NA,NA,NA,NA,fixation,NA,NA,NA,NA,NA,NA,sub138
d3-animate-choice,183,484387,0.0-76.0-0.16,TRUE,FALSE,FALSE,FALSE,"""event"",""trial"",""time""
""fullscreenenter"",""5"",""14286""
","
","
","""event"",""trial"",""time""
""fullscreenenter"",""5"",""14286""
","
",536.015000000596,NA,48,NA,NA,3000,1,NA,NA,images/earth.jpg,images/rocket2,images/rocket1,null,images/rocket2,NA,1,real,null,2,NA,NA,NA,sub138
d3-animate-choice,184,488390,0.0-76.0-1.16,TRUE,FALSE,FALSE,FALSE,"""event"",""trial"",""time""
""fullscreenenter"",""5"",""14286""
","
","
","""event"",""trial"",""time""
""fullscreenenter"",""5"",""14286""
","
",2554.8800000005867,NA,49,NA,NA,3000,1,NA,NA,images/purpleplanet.jpg,images/alien4,images/alien3,images/rocket2,images/alien3,images/t.png,2,real,false,1,rare,1,2020-06-26T16:22:31Z,sub138
two-step-fixation,185,489394,0.0-76.0-2.16,TRUE,FALSE,FALSE,FALSE,"""event"",""trial"",""time""
""fullscreenenter"",""5"",""14286""
","
","
","""event"",""trial"",""time""
""fullscreenenter"",""5"",""14286""
","
",NA,images/earth.jpg,NA,NA,NA,NA,NA,NA,NA,NA,NA,NA,NA,NA,NA,fixation,NA,NA,NA,NA,NA,NA,sub138
d3-animate-choice,186,491958,0.0-76.0-0.17,TRUE,FALSE,FALSE,FALSE,"""event"",""trial"",""time""
""fullscreenenter"",""5"",""14286""
","
","
","""event"",""trial"",""time""
""fullscreenenter"",""5"",""14286""
","
",560.2849999995669,NA,48,NA,NA,3000,1,NA,NA,images/earth.jpg,images/rocket2,images/rocket1,null,images/rocket2,NA,1,real,null,2,NA,NA,NA,sub138
d3-animate-choice,187,494788,0.0-76.0-1.17,TRUE,FALSE,FALSE,FALSE,"""event"",""trial"",""time""
""fullscreenenter"",""5"",""14286""
","
","
","""event"",""trial"",""time""
""fullscreenenter"",""5"",""14286""
","
",822.8949999993783,NA,49,NA,NA,3000,1,NA,NA,images/purpleplanet.jpg,images/alien4,images/alien3,images/rocket2,images/alien3,images/t.png,2,real,false,1,rare,1,2020-06-26T16:22:37Z,sub138
two-step-fixation,188,495795,0.0-76.0-2.17,TRUE,FALSE,FALSE,FALSE,"""event"",""trial"",""time""
""fullscreenenter"",""5"",""14286""
","
","
","""event"",""trial"",""time""
""fullscreenenter"",""5"",""14286""
","
",NA,images/earth.jpg,NA,NA,NA,NA,NA,NA,NA,NA,NA,NA,NA,NA,NA,fixation,NA,NA,NA,NA,NA,NA,sub138
d3-animate-choice,189,498077,0.0-76.0-0.18,TRUE,FALSE,FALSE,FALSE,"""event"",""trial"",""time""
""fullscreenenter"",""5"",""14286""
","
","
","""event"",""trial"",""time""
""fullscreenenter"",""5"",""14286""
","
",277.7200000000885,NA,48,NA,NA,3000,1,NA,NA,images/earth.jpg,images/rocket2,images/rocket1,null,images/rocket2,NA,1,real,null,2,NA,NA,NA,sub138
d3-animate-choice,190,501532,0.0-76.0-1.18,TRUE,FALSE,FALSE,FALSE,"""event"",""trial"",""time""
""fullscreenenter"",""5"",""14286""
","
","
","""event"",""trial"",""time""
""fullscreenenter"",""5"",""14286""
","
",1451.1149999998743,NA,48,NA,NA,3000,1,NA,NA,images/redplanet1.jpg,images/alien2,images/alien1,images/rocket2,images/alien2,images/t.png,2,real,true,2,common,1,2020-06-26T16:22:44Z,sub138
two-step-fixation,191,502536,0.0-76.0-2.18,TRUE,FALSE,FALSE,FALSE,"""event"",""trial"",""time""
""fullscreenenter"",""5"",""14286""
","
","
","""event"",""trial"",""time""
""fullscreenenter"",""5"",""14286""
","
",NA,images/earth.jpg,NA,NA,NA,NA,NA,NA,NA,NA,NA,NA,NA,NA,NA,fixation,NA,NA,NA,NA,NA,NA,sub138
d3-animate-choice,192,504742,0.0-76.0-0.19,TRUE,FALSE,FALSE,FALSE,"""event"",""trial"",""time""
""fullscreenenter"",""5"",""14286""
","
","
","""event"",""trial"",""time""
""fullscreenenter"",""5"",""14286""
","
",201.64500000007683,NA,48,NA,NA,3000,1,NA,NA,images/earth.jpg,images/rocket2,images/rocket1,null,images/rocket2,NA,1,real,null,2,NA,NA,NA,sub138
d3-animate-choice,193,507678,0.0-76.0-1.19,TRUE,FALSE,FALSE,FALSE,"""event"",""trial"",""time""
""fullscreenenter"",""5"",""14286""
","
","
","""event"",""trial"",""time""
""fullscreenenter"",""5"",""14286""
","
",932.1549999995041,NA,48,NA,NA,3000,1,NA,NA,images/redplanet1.jpg,images/alien2,images/alien1,images/rocket2,images/alien2,images/nothing.png,2,real,true,2,common,0,2020-06-26T16:22:50Z,sub138
two-step-fixation,194,508682,0.0-76.0-2.19,TRUE,FALSE,FALSE,FALSE,"""event"",""trial"",""time""
""fullscreenenter"",""5"",""14286""
","
","
","""event"",""trial"",""time""
""fullscreenenter"",""5"",""14286""
","
",NA,images/earth.jpg,NA,NA,NA,NA,NA,NA,NA,NA,NA,NA,NA,NA,NA,fixation,NA,NA,NA,NA,NA,NA,sub138
d3-animate-choice,195,510961,0.0-76.0-0.20,TRUE,FALSE,FALSE,FALSE,"""event"",""trial"",""time""
""fullscreenenter"",""5"",""14286""
","
","
","""event"",""trial"",""time""
""fullscreenenter"",""5"",""14286""
","
",273.9599999994971,NA,48,NA,NA,3000,1,NA,NA,images/earth.jpg,images/rocket2,images/rocket1,null,images/rocket2,NA,1,real,null,2,NA,NA,NA,sub138
d3-animate-choice,196,513919,0.0-76.0-1.20,TRUE,FALSE,FALSE,FALSE,"""event"",""trial"",""time""
""fullscreenenter"",""5"",""14286""
","
","
","""event"",""trial"",""time""
""fullscreenenter"",""5"",""14286""
","
",954.150000000489,NA,49,NA,NA,3000,1,NA,NA,images/purpleplanet.jpg,images/alien4,images/alien3,images/rocket2,images/alien3,images/t.png,2,real,false,1,rare,1,2020-06-26T16:22:57Z,sub138
two-step-fixation,197,514924,0.0-76.0-2.20,TRUE,FALSE,FALSE,FALSE,"""event"",""trial"",""time""
""fullscreenenter"",""5"",""14286""
","
","
","""event"",""trial"",""time""
""fullscreenenter"",""5"",""14286""
","
",NA,images/earth.jpg,NA,NA,NA,NA,NA,NA,NA,NA,NA,NA,NA,NA,NA,fixation,NA,NA,NA,NA,NA,NA,sub138
d3-animate-choice,198,516938,0.0-76.0-0.21,TRUE,FALSE,FALSE,FALSE,"""event"",""trial"",""time""
""fullscreenenter"",""5"",""14286""
","
","
","""event"",""trial"",""time""
""fullscreenenter"",""5"",""14286""
","
",8.594999999331776,NA,48,NA,NA,3000,1,NA,NA,images/earth.jpg,images/rocket2,images/rocket1,null,images/rocket2,NA,1,real,null,2,NA,NA,NA,sub138
d3-animate-choice,199,519901,0.0-76.0-1.21,TRUE,FALSE,FALSE,FALSE,"""event"",""trial"",""time""
""fullscreenenter"",""5"",""14286""
","
","
","""event"",""trial"",""time""
""fullscreenenter"",""5"",""14286""
","
",959.0749999997788,NA,48,NA,NA,3000,1,NA,NA,images/redplanet1.jpg,images/alien2,images/alien1,images/rocket2,images/alien2,images/nothing.png,2,real,true,2,common,0,2020-06-26T16:23:03Z,sub138
two-step-fixation,200,520905,0.0-76.0-2.21,TRUE,FALSE,FALSE,FALSE,"""event"",""trial"",""time""
""fullscreenenter"",""5"",""14286""
","
","
","""event"",""trial"",""time""
""fullscreenenter"",""5"",""14286""
","
",NA,images/earth.jpg,NA,NA,NA,NA,NA,NA,NA,NA,NA,NA,NA,NA,NA,fixation,NA,NA,NA,NA,NA,NA,sub138
d3-animate-choice,201,523011,0.0-76.0-0.22,TRUE,FALSE,FALSE,FALSE,"""event"",""trial"",""time""
""fullscreenenter"",""5"",""14286""
","
","
","""event"",""trial"",""time""
""fullscreenenter"",""5"",""14286""
","
",101.81499999994412,NA,48,NA,NA,3000,1,NA,NA,images/earth.jpg,images/rocket2,images/rocket1,null,images/rocket2,NA,1,real,null,2,NA,NA,NA,sub138
d3-animate-choice,202,525428,0.0-76.0-1.22,TRUE,FALSE,FALSE,FALSE,"""event"",""trial"",""time""
""fullscreenenter"",""5"",""14286""
","
","
","""event"",""trial"",""time""
""fullscreenenter"",""5"",""14286""
","
",412.800000000163,NA,49,NA,NA,3000,1,NA,NA,images/redplanet1.jpg,images/alien2,images/alien1,images/rocket2,images/alien1,images/nothing.png,2,real,true,1,common,0,2020-06-26T16:23:08Z,sub138
two-step-fixation,203,526434,0.0-76.0-2.22,TRUE,FALSE,FALSE,FALSE,"""event"",""trial"",""time""
""fullscreenenter"",""5"",""14286""
","
","
","""event"",""trial"",""time""
""fullscreenenter"",""5"",""14286""
","
",NA,images/earth.jpg,NA,NA,NA,NA,NA,NA,NA,NA,NA,NA,NA,NA,NA,fixation,NA,NA,NA,NA,NA,NA,sub138
d3-animate-choice,204,528655,0.0-76.0-0.23,TRUE,FALSE,FALSE,FALSE,"""event"",""trial"",""time""
""fullscreenenter"",""5"",""14286""
","
","
","""event"",""trial"",""time""
""fullscreenenter"",""5"",""14286""
","
",218.5849999996135,NA,48,NA,NA,3000,1,NA,NA,images/earth.jpg,images/rocket2,images/rocket1,null,images/rocket2,NA,1,real,null,2,NA,NA,NA,sub138
d3-animate-choice,205,531583,0.0-76.0-1.23,TRUE,FALSE,FALSE,FALSE,"""event"",""trial"",""time""
""fullscreenenter"",""5"",""14286""
","
","
","""event"",""trial"",""time""
""fullscreenenter"",""5"",""14286""
","
",922.9700000005541,NA,48,NA,NA,3000,1,NA,NA,images/redplanet1.jpg,images/alien2,images/alien1,images/rocket2,images/alien2,images/t.png,2,real,true,2,common,1,2020-06-26T16:23:14Z,sub138
two-step-fixation,206,532586,0.0-76.0-2.23,TRUE,FALSE,FALSE,FALSE,"""event"",""trial"",""time""
""fullscreenenter"",""5"",""14286""
","
","
","""event"",""trial"",""time""
""fullscreenenter"",""5"",""14286""
","
",NA,images/earth.jpg,NA,NA,NA,NA,NA,NA,NA,NA,NA,NA,NA,NA,NA,fixation,NA,NA,NA,NA,NA,NA,sub138
d3-animate-choice,207,534908,0.0-76.0-0.24,TRUE,FALSE,FALSE,FALSE,"""event"",""trial"",""time""
""fullscreenenter"",""5"",""14286""
","
","
","""event"",""trial"",""time""
""fullscreenenter"",""5"",""14286""
","
",318.9099999999162,NA,48,NA,NA,3000,1,NA,NA,images/earth.jpg,images/rocket2,images/rocket1,null,images/rocket2,NA,1,real,null,2,NA,NA,NA,sub138
d3-animate-choice,208,537891,0.0-76.0-1.24,TRUE,FALSE,FALSE,FALSE,"""event"",""trial"",""time""
""fullscreenenter"",""5"",""14286""
","
","
","""event"",""trial"",""time""
""fullscreenenter"",""5"",""14286""
","
",978.804999999702,NA,48,NA,NA,3000,1,NA,NA,images/redplanet1.jpg,images/alien2,images/alien1,images/rocket2,images/alien2,images/nothing.png,2,real,true,2,common,0,2020-06-26T16:23:21Z,sub138
two-step-fixation,209,538896,0.0-76.0-2.24,TRUE,FALSE,FALSE,FALSE,"""event"",""trial"",""time""
""fullscreenenter"",""5"",""14286""
","
","
","""event"",""trial"",""time""
""fullscreenenter"",""5"",""14286""
","
",NA,images/earth.jpg,NA,NA,NA,NA,NA,NA,NA,NA,NA,NA,NA,NA,NA,fixation,NA,NA,NA,NA,NA,NA,sub138
d3-animate-choice,210,541429,0.0-76.0-0.25,TRUE,FALSE,FALSE,FALSE,"""event"",""trial"",""time""
""fullscreenenter"",""5"",""14286""
","
","
","""event"",""trial"",""time""
""fullscreenenter"",""5"",""14286""
","
",528.515000000014,NA,49,NA,NA,3000,1,NA,NA,images/earth.jpg,images/rocket2,images/rocket1,null,images/rocket1,NA,1,real,null,1,NA,NA,NA,sub138
d3-animate-choice,211,544222,0.0-76.0-1.25,TRUE,FALSE,FALSE,FALSE,"""event"",""trial"",""time""
""fullscreenenter"",""5"",""14286""
","
","
","""event"",""trial"",""time""
""fullscreenenter"",""5"",""14286""
","
",788.9800000002142,NA,49,NA,NA,3000,1,NA,NA,images/purpleplanet.jpg,images/alien4,images/alien3,images/rocket1,images/alien3,images/nothing.png,2,real,true,1,common,0,2020-06-26T16:23:27Z,sub138
two-step-fixation,212,545228,0.0-76.0-2.25,TRUE,FALSE,FALSE,FALSE,"""event"",""trial"",""time""
""fullscreenenter"",""5"",""14286""
","
","
","""event"",""trial"",""time""
""fullscreenenter"",""5"",""14286""
","
",NA,images/earth.jpg,NA,NA,NA,NA,NA,NA,NA,NA,NA,NA,NA,NA,NA,fixation,NA,NA,NA,NA,NA,NA,sub138
d3-animate-choice,213,548319,0.0-76.0-0.26,TRUE,FALSE,FALSE,FALSE,"""event"",""trial"",""time""
""fullscreenenter"",""5"",""14286""
","
","
","""event"",""trial"",""time""
""fullscreenenter"",""5"",""14286""
","
",1086.5500000000466,NA,49,NA,NA,3000,1,NA,NA,images/earth.jpg,images/rocket2,images/rocket1,null,images/rocket1,NA,1,real,null,1,NA,NA,NA,sub138
d3-animate-choice,214,550787,0.0-76.0-1.26,TRUE,FALSE,FALSE,FALSE,"""event"",""trial"",""time""
""fullscreenenter"",""5"",""14286""
","
","
","""event"",""trial"",""time""
""fullscreenenter"",""5"",""14286""
","
",463.00999999942724,NA,48,NA,NA,3000,1,NA,NA,images/purpleplanet.jpg,images/alien4,images/alien3,images/rocket1,images/alien4,images/nothing.png,2,real,true,2,common,0,2020-06-26T16:23:33Z,sub138
two-step-fixation,215,551792,0.0-76.0-2.26,TRUE,FALSE,FALSE,FALSE,"""event"",""trial"",""time""
""fullscreenenter"",""5"",""14286""
","
","
","""event"",""trial"",""time""
""fullscreenenter"",""5"",""14286""
","
",NA,images/earth.jpg,NA,NA,NA,NA,NA,NA,NA,NA,NA,NA,NA,NA,NA,fixation,NA,NA,NA,NA,NA,NA,sub138
d3-animate-choice,216,554676,0.0-76.0-0.27,TRUE,FALSE,FALSE,FALSE,"""event"",""trial"",""time""
""fullscreenenter"",""5"",""14286""
","
","
","""event"",""trial"",""time""
""fullscreenenter"",""5"",""14286""
","
",881.5949999998556,NA,49,NA,NA,3000,1,NA,NA,images/earth.jpg,images/rocket2,images/rocket1,null,images/rocket1,NA,1,real,null,1,NA,NA,NA,sub138
d3-animate-choice,217,558131,0.0-76.0-1.27,TRUE,FALSE,FALSE,FALSE,"""event"",""trial"",""time""
""fullscreenenter"",""5"",""14286""
","
","
","""event"",""trial"",""time""
""fullscreenenter"",""5"",""14286""
","
",1451.1050000000978,NA,48,NA,NA,3000,1,NA,NA,images/redplanet1.jpg,images/alien2,images/alien1,images/rocket1,images/alien2,images/nothing.png,2,real,false,2,rare,0,2020-06-26T16:23:41Z,sub138
two-step-fixation,218,559134,0.0-76.0-2.27,TRUE,FALSE,FALSE,FALSE,"""event"",""trial"",""time""
""fullscreenenter"",""5"",""14286""
","
","
","""event"",""trial"",""time""
""fullscreenenter"",""5"",""14286""
","
",NA,images/earth.jpg,NA,NA,NA,NA,NA,NA,NA,NA,NA,NA,NA,NA,NA,fixation,NA,NA,NA,NA,NA,NA,sub138
d3-animate-choice,219,561513,0.0-76.0-0.28,TRUE,FALSE,FALSE,FALSE,"""event"",""trial"",""time""
""fullscreenenter"",""5"",""14286""
","
","
","""event"",""trial"",""time""
""fullscreenenter"",""5"",""14286""
","
",376.9099999999162,NA,49,NA,NA,3000,1,NA,NA,images/earth.jpg,images/rocket2,images/rocket1,null,images/rocket1,NA,1,real,null,1,NA,NA,NA,sub138
d3-animate-choice,220,564437,0.0-76.0-1.28,TRUE,FALSE,FALSE,FALSE,"""event"",""trial"",""time""
""fullscreenenter"",""5"",""14286""
","
","
","""event"",""trial"",""time""
""fullscreenenter"",""5"",""14286""
","
",920.6599999996834,NA,49,NA,NA,3000,1,NA,NA,images/purpleplanet.jpg,images/alien4,images/alien3,images/rocket1,images/alien3,images/nothing.png,2,real,true,1,common,0,2020-06-26T16:23:47Z,sub138
two-step-fixation,221,565444,0.0-76.0-2.28,TRUE,FALSE,FALSE,FALSE,"""event"",""trial"",""time""
""fullscreenenter"",""5"",""14286""
","
","
","""event"",""trial"",""time""
""fullscreenenter"",""5"",""14286""
","
",NA,images/earth.jpg,NA,NA,NA,NA,NA,NA,NA,NA,NA,NA,NA,NA,NA,fixation,NA,NA,NA,NA,NA,NA,sub138
d3-animate-choice,222,567790,0.0-76.0-0.29,TRUE,FALSE,FALSE,FALSE,"""event"",""trial"",""time""
""fullscreenenter"",""5"",""14286""
","
","
","""event"",""trial"",""time""
""fullscreenenter"",""5"",""14286""
","
",340.08499999984633,NA,48,NA,NA,3000,1,NA,NA,images/earth.jpg,images/rocket2,images/rocket1,null,images/rocket2,NA,1,real,null,2,NA,NA,NA,sub138
d3-animate-choice,223,571078,0.0-76.0-1.29,TRUE,FALSE,FALSE,FALSE,"""event"",""trial"",""time""
""fullscreenenter"",""5"",""14286""
","
","
","""event"",""trial"",""time""
""fullscreenenter"",""5"",""14286""
","
",1284.110000000568,NA,48,NA,NA,3000,1,NA,NA,images/redplanet1.jpg,images/alien2,images/alien1,images/rocket2,images/alien2,images/t.png,2,real,true,2,common,1,2020-06-26T16:23:54Z,sub138
two-step-fixation,224,572083,0.0-76.0-2.29,TRUE,FALSE,FALSE,FALSE,"""event"",""trial"",""time""
""fullscreenenter"",""5"",""14286""
","
","
","""event"",""trial"",""time""
""fullscreenenter"",""5"",""14286""
","
",NA,images/earth.jpg,NA,NA,NA,NA,NA,NA,NA,NA,NA,NA,NA,NA,NA,fixation,NA,NA,NA,NA,NA,NA,sub138
d3-animate-choice,225,574213,0.0-76.0-0.30,TRUE,FALSE,FALSE,FALSE,"""event"",""trial"",""time""
""fullscreenenter"",""5"",""14286""
","
","
","""event"",""trial"",""time""
""fullscreenenter"",""5"",""14286""
","
",125.65499999979511,NA,48,NA,NA,3000,1,NA,NA,images/earth.jpg,images/rocket2,images/rocket1,null,images/rocket2,NA,1,real,null,2,NA,NA,NA,sub138
d3-animate-choice,226,577231,0.0-76.0-1.30,TRUE,FALSE,FALSE,FALSE,"""event"",""trial"",""time""
""fullscreenenter"",""5"",""14286""
","
","
","""event"",""trial"",""time""
""fullscreenenter"",""5"",""14286""
","
",1011.9150000000373,NA,48,NA,NA,3000,1,NA,NA,images/redplanet1.jpg,images/alien2,images/alien1,images/rocket2,images/alien2,images/t.png,2,real,true,2,common,1,2020-06-26T16:24:00Z,sub138
two-step-fixation,227,578234,0.0-76.0-2.30,TRUE,FALSE,FALSE,FALSE,"""event"",""trial"",""time""
""fullscreenenter"",""5"",""14286""
","
","
","""event"",""trial"",""time""
""fullscreenenter"",""5"",""14286""
","
",NA,images/earth.jpg,NA,NA,NA,NA,NA,NA,NA,NA,NA,NA,NA,NA,NA,fixation,NA,NA,NA,NA,NA,NA,sub138
d3-animate-choice,228,580704,0.0-76.0-0.31,TRUE,FALSE,FALSE,FALSE,"""event"",""trial"",""time""
""fullscreenenter"",""5"",""14286""
","
","
","""event"",""trial"",""time""
""fullscreenenter"",""5"",""14286""
","
",38.68500000052154,NA,79,NA,NA,3000,1,466.5649999997113,48,images/earth.jpg,images/rocket2,images/rocket1,null,images/rocket2,NA,1,real,null,NA,NA,NA,NA,sub138
d3-animate-choice,229,583931,0.0-76.0-1.31,TRUE,FALSE,FALSE,FALSE,"""event"",""trial"",""time""
""fullscreenenter"",""5"",""14286""
","
","
","""event"",""trial"",""time""
""fullscreenenter"",""5"",""14286""
","
",1222.9850000003353,NA,48,NA,NA,3000,1,1227.2000000003027,57,images/redplanet1.jpg,images/alien2,images/alien1,images/rocket2,images/alien2,images/nothing.png,2,real,true,2,common,0,2020-06-26T16:24:07Z,sub138
two-step-fixation,230,584934,0.0-76.0-2.31,TRUE,FALSE,FALSE,FALSE,"""event"",""trial"",""time""
""fullscreenenter"",""5"",""14286""
","
","
","""event"",""trial"",""time""
""fullscreenenter"",""5"",""14286""
","
",NA,images/earth.jpg,NA,NA,NA,NA,NA,NA,NA,NA,NA,NA,NA,NA,NA,fixation,NA,NA,NA,NA,NA,NA,sub138
d3-animate-choice,231,587461,0.0-76.0-0.32,TRUE,FALSE,FALSE,FALSE,"""event"",""trial"",""time""
""fullscreenenter"",""5"",""14286""
","
","
","""event"",""trial"",""time""
""fullscreenenter"",""5"",""14286""
","
",524.3700000001118,NA,48,NA,NA,3000,1,NA,NA,images/earth.jpg,images/rocket2,images/rocket1,null,images/rocket2,NA,1,real,null,2,NA,NA,NA,sub138
d3-animate-choice,232,589867,0.0-76.0-1.32,TRUE,FALSE,FALSE,FALSE,"""event"",""trial"",""time""
""fullscreenenter"",""5"",""14286""
","
","
","""event"",""trial"",""time""
""fullscreenenter"",""5"",""14286""
","
",398.5200000007171,NA,49,NA,NA,3000,1,NA,NA,images/redplanet1.jpg,images/alien2,images/alien1,images/rocket2,images/alien1,images/t.png,2,real,true,1,common,1,2020-06-26T16:24:13Z,sub138
two-step-fixation,233,590874,0.0-76.0-2.32,TRUE,FALSE,FALSE,FALSE,"""event"",""trial"",""time""
""fullscreenenter"",""5"",""14286""
","
","
","""event"",""trial"",""time""
""fullscreenenter"",""5"",""14286""
","
",NA,images/earth.jpg,NA,NA,NA,NA,NA,NA,NA,NA,NA,NA,NA,NA,NA,fixation,NA,NA,NA,NA,NA,NA,sub138
d3-animate-choice,234,593259,0.0-76.0-0.33,TRUE,FALSE,FALSE,FALSE,"""event"",""trial"",""time""
""fullscreenenter"",""5"",""14286""
","
","
","""event"",""trial"",""time""
""fullscreenenter"",""5"",""14286""
","
",381.1100000003353,NA,48,NA,NA,3000,1,NA,NA,images/earth.jpg,images/rocket2,images/rocket1,null,images/rocket2,NA,1,real,null,2,NA,NA,NA,sub138
d3-animate-choice,235,595785,0.0-76.0-1.33,TRUE,FALSE,FALSE,FALSE,"""event"",""trial"",""time""
""fullscreenenter"",""5"",""14286""
","
","
","""event"",""trial"",""time""
""fullscreenenter"",""5"",""14286""
","
",519.4299999994691,NA,49,NA,NA,3000,1,NA,NA,images/redplanet1.jpg,images/alien2,images/alien1,images/rocket2,images/alien1,images/t.png,2,real,true,1,common,1,2020-06-26T16:24:18Z,sub138
two-step-fixation,236,596789,0.0-76.0-2.33,TRUE,FALSE,FALSE,FALSE,"""event"",""trial"",""time""
""fullscreenenter"",""5"",""14286""
","
","
","""event"",""trial"",""time""
""fullscreenenter"",""5"",""14286""
","
",NA,images/earth.jpg,NA,NA,NA,NA,NA,NA,NA,NA,NA,NA,NA,NA,NA,fixation,NA,NA,NA,NA,NA,NA,sub138
d3-animate-choice,237,599353,0.0-76.0-0.34,TRUE,FALSE,FALSE,FALSE,"""event"",""trial"",""time""
""fullscreenenter"",""5"",""14286""
","
","
","""event"",""trial"",""time""
""fullscreenenter"",""5"",""14286""
","
",559.9100000000326,NA,48,NA,NA,3000,1,NA,NA,images/earth.jpg,images/rocket2,images/rocket1,null,images/rocket2,NA,1,real,null,2,NA,NA,NA,sub138
d3-animate-choice,238,602961,0.0-76.0-1.34,TRUE,FALSE,FALSE,FALSE,"""event"",""trial"",""time""
""fullscreenenter"",""5"",""14286""
","
","
","""event"",""trial"",""time""
""fullscreenenter"",""5"",""14286""
","
",1602.2200000006706,NA,48,NA,NA,3000,1,NA,NA,images/purpleplanet.jpg,images/alien4,images/alien3,images/rocket2,images/alien4,images/t.png,2,real,false,2,rare,1,2020-06-26T16:24:26Z,sub138
two-step-fixation,239,603964,0.0-76.0-2.34,TRUE,FALSE,FALSE,FALSE,"""event"",""trial"",""time""
""fullscreenenter"",""5"",""14286""
","
","
","""event"",""trial"",""time""
""fullscreenenter"",""5"",""14286""
","
",NA,images/earth.jpg,NA,NA,NA,NA,NA,NA,NA,NA,NA,NA,NA,NA,NA,fixation,NA,NA,NA,NA,NA,NA,sub138
d3-animate-choice,240,606360,0.0-76.0-0.35,TRUE,FALSE,FALSE,FALSE,"""event"",""trial"",""time""
""fullscreenenter"",""5"",""14286""
","
","
","""event"",""trial"",""time""
""fullscreenenter"",""5"",""14286""
","
",390.1249999998836,NA,48,NA,NA,3000,1,NA,NA,images/earth.jpg,images/rocket2,images/rocket1,null,images/rocket2,NA,1,real,null,2,NA,NA,NA,sub138
d3-animate-choice,241,609218,0.0-76.0-1.35,TRUE,FALSE,FALSE,FALSE,"""event"",""trial"",""time""
""fullscreenenter"",""5"",""14286""
","
","
","""event"",""trial"",""time""
""fullscreenenter"",""5"",""14286""
","
",854.5400000002701,NA,48,NA,NA,3000,1,NA,NA,images/redplanet1.jpg,images/alien2,images/alien1,images/rocket2,images/alien2,images/nothing.png,2,real,true,2,common,0,2020-06-26T16:24:32Z,sub138
two-step-fixation,242,610221,0.0-76.0-2.35,TRUE,FALSE,FALSE,FALSE,"""event"",""trial"",""time""
""fullscreenenter"",""5"",""14286""
","
","
","""event"",""trial"",""time""
""fullscreenenter"",""5"",""14286""
","
",NA,images/earth.jpg,NA,NA,NA,NA,NA,NA,NA,NA,NA,NA,NA,NA,NA,fixation,NA,NA,NA,NA,NA,NA,sub138
d3-animate-choice,243,612748,0.0-76.0-0.36,TRUE,FALSE,FALSE,FALSE,"""event"",""trial"",""time""
""fullscreenenter"",""5"",""14286""
","
","
","""event"",""trial"",""time""
""fullscreenenter"",""5"",""14286""
","
",520.929999999702,NA,48,NA,NA,3000,1,NA,NA,images/earth.jpg,images/rocket2,images/rocket1,null,images/rocket2,NA,1,real,null,2,NA,NA,NA,sub138
d3-animate-choice,244,615834,0.0-76.0-1.36,TRUE,FALSE,FALSE,FALSE,"""event"",""trial"",""time""
""fullscreenenter"",""5"",""14286""
","
","
","""event"",""trial"",""time""
""fullscreenenter"",""5"",""14286""
","
",1080.0550000004005,NA,49,NA,NA,3000,1,NA,NA,images/purpleplanet.jpg,images/alien4,images/alien3,images/rocket2,images/alien3,images/nothing.png,2,real,false,1,rare,0,2020-06-26T16:24:39Z,sub138
two-step-fixation,245,616837,0.0-76.0-2.36,TRUE,FALSE,FALSE,FALSE,"""event"",""trial"",""time""
""fullscreenenter"",""5"",""14286""
","
","
","""event"",""trial"",""time""
""fullscreenenter"",""5"",""14286""
","
",NA,images/earth.jpg,NA,NA,NA,NA,NA,NA,NA,NA,NA,NA,NA,NA,NA,fixation,NA,NA,NA,NA,NA,NA,sub138
d3-animate-choice,246,619476,0.0-76.0-0.37,TRUE,FALSE,FALSE,FALSE,"""event"",""trial"",""time""
""fullscreenenter"",""5"",""14286""
","
","
","""event"",""trial"",""time""
""fullscreenenter"",""5"",""14286""
","
",635.6100000002189,NA,48,NA,NA,3000,1,NA,NA,images/earth.jpg,images/rocket2,images/rocket1,null,images/rocket2,NA,1,real,null,2,NA,NA,NA,sub138
d3-animate-choice,247,622316,0.0-76.0-1.37,TRUE,FALSE,FALSE,FALSE,"""event"",""trial"",""time""
""fullscreenenter"",""5"",""14286""
","
","
","""event"",""trial"",""time""
""fullscreenenter"",""5"",""14286""
","
",836.4849999997532,NA,48,NA,NA,3000,1,NA,NA,images/redplanet1.jpg,images/alien2,images/alien1,images/rocket2,images/alien2,images/t.png,2,real,true,2,common,1,2020-06-26T16:24:45Z,sub138
two-step-fixation,248,623321,0.0-76.0-2.37,TRUE,FALSE,FALSE,FALSE,"""event"",""trial"",""time""
""fullscreenenter"",""5"",""14286""
","
","
","""event"",""trial"",""time""
""fullscreenenter"",""5"",""14286""
","
",NA,images/earth.jpg,NA,NA,NA,NA,NA,NA,NA,NA,NA,NA,NA,NA,NA,fixation,NA,NA,NA,NA,NA,NA,sub138
d3-animate-choice,249,625633,0.0-76.0-0.38,TRUE,FALSE,FALSE,FALSE,"""event"",""trial"",""time""
""fullscreenenter"",""5"",""14286""
","
","
","""event"",""trial"",""time""
""fullscreenenter"",""5"",""14286""
","
",307.27000000025146,NA,48,NA,NA,3000,1,NA,NA,images/earth.jpg,images/rocket2,images/rocket1,null,images/rocket2,NA,1,real,null,2,NA,NA,NA,sub138
d3-animate-choice,250,628447,0.0-76.0-1.38,TRUE,FALSE,FALSE,FALSE,"""event"",""trial"",""time""
""fullscreenenter"",""5"",""14286""
","
","
","""event"",""trial"",""time""
""fullscreenenter"",""5"",""14286""
","
",809.2800000003772,NA,48,NA,NA,3000,1,NA,NA,images/redplanet1.jpg,images/alien2,images/alien1,images/rocket2,images/alien2,images/nothing.png,2,real,true,2,common,0,2020-06-26T16:24:51Z,sub138
two-step-fixation,251,629451,0.0-76.0-2.38,TRUE,FALSE,FALSE,FALSE,"""event"",""trial"",""time""
""fullscreenenter"",""5"",""14286""
","
","
","""event"",""trial"",""time""
""fullscreenenter"",""5"",""14286""
","
",NA,images/earth.jpg,NA,NA,NA,NA,NA,NA,NA,NA,NA,NA,NA,NA,NA,fixation,NA,NA,NA,NA,NA,NA,sub138
d3-animate-choice,252,631542,0.0-76.0-0.39,TRUE,FALSE,FALSE,FALSE,"""event"",""trial"",""time""
""fullscreenenter"",""5"",""14286""
","
","
","""event"",""trial"",""time""
""fullscreenenter"",""5"",""14286""
","
",87.35999999952037,NA,48,NA,NA,3000,1,NA,NA,images/earth.jpg,images/rocket2,images/rocket1,null,images/rocket2,NA,1,real,null,2,NA,NA,NA,sub138
d3-animate-choice,253,633960,0.0-76.0-1.39,TRUE,FALSE,FALSE,FALSE,"""event"",""trial"",""time""
""fullscreenenter"",""5"",""14286""
","
","
","""event"",""trial"",""time""
""fullscreenenter"",""5"",""14286""
","
",413.3499999998603,NA,49,NA,NA,3000,1,NA,NA,images/redplanet1.jpg,images/alien2,images/alien1,images/rocket2,images/alien1,images/t.png,2,real,true,1,common,1,2020-06-26T16:24:57Z,sub138
two-step-fixation,254,634965,0.0-76.0-2.39,TRUE,FALSE,FALSE,FALSE,"""event"",""trial"",""time""
""fullscreenenter"",""5"",""14286""
","
","
","""event"",""trial"",""time""
""fullscreenenter"",""5"",""14286""
","
",NA,images/earth.jpg,NA,NA,NA,NA,NA,NA,NA,NA,NA,NA,NA,NA,NA,fixation,NA,NA,NA,NA,NA,NA,sub138
d3-animate-choice,255,637241,0.0-76.0-0.40,TRUE,FALSE,FALSE,FALSE,"""event"",""trial"",""time""
""fullscreenenter"",""5"",""14286""
","
","
","""event"",""trial"",""time""
""fullscreenenter"",""5"",""14286""
","
",272.1050000000978,NA,48,NA,NA,3000,1,NA,NA,images/earth.jpg,images/rocket2,images/rocket1,null,images/rocket2,NA,1,real,null,2,NA,NA,NA,sub138
d3-animate-choice,256,640675,0.0-76.0-1.40,TRUE,FALSE,FALSE,FALSE,"""event"",""trial"",""time""
""fullscreenenter"",""5"",""14286""
","
","
","""event"",""trial"",""time""
""fullscreenenter"",""5"",""14286""
","
",1429.509999999893,NA,48,NA,NA,3000,1,NA,NA,images/purpleplanet.jpg,images/alien4,images/alien3,images/rocket2,images/alien4,images/t.png,2,real,false,2,rare,1,2020-06-26T16:25:03Z,sub138
two-step-fixation,257,641677,0.0-76.0-2.40,TRUE,FALSE,FALSE,FALSE,"""event"",""trial"",""time""
""fullscreenenter"",""5"",""14286""
","
","
","""event"",""trial"",""time""
""fullscreenenter"",""5"",""14286""
","
",NA,images/earth.jpg,NA,NA,NA,NA,NA,NA,NA,NA,NA,NA,NA,NA,NA,fixation,NA,NA,NA,NA,NA,NA,sub138
d3-animate-choice,258,643765,0.0-76.0-0.41,TRUE,FALSE,FALSE,FALSE,"""event"",""trial"",""time""
""fullscreenenter"",""5"",""14286""
","
","
","""event"",""trial"",""time""
""fullscreenenter"",""5"",""14286""
","
",85.84500000055414,NA,48,NA,NA,3000,1,NA,NA,images/earth.jpg,images/rocket2,images/rocket1,null,images/rocket2,NA,1,real,null,2,NA,NA,NA,sub138
d3-animate-choice,259,647028,0.0-76.0-1.41,TRUE,FALSE,FALSE,FALSE,"""event"",""trial"",""time""
""fullscreenenter"",""5"",""14286""
","
","
","""event"",""trial"",""time""
""fullscreenenter"",""5"",""14286""
","
",1259.7349999996368,NA,49,NA,NA,3000,1,NA,NA,images/redplanet1.jpg,images/alien2,images/alien1,images/rocket2,images/alien1,images/nothing.png,2,real,true,1,common,0,2020-06-26T16:25:10Z,sub138
two-step-fixation,260,648032,0.0-76.0-2.41,TRUE,FALSE,FALSE,FALSE,"""event"",""trial"",""time""
""fullscreenenter"",""5"",""14286""
","
","
","""event"",""trial"",""time""
""fullscreenenter"",""5"",""14286""
","
",NA,images/earth.jpg,NA,NA,NA,NA,NA,NA,NA,NA,NA,NA,NA,NA,NA,fixation,NA,NA,NA,NA,NA,NA,sub138
d3-animate-choice,261,650121,0.0-76.0-0.42,TRUE,FALSE,FALSE,FALSE,"""event"",""trial"",""time""
""fullscreenenter"",""5"",""14286""
","
","
","""event"",""trial"",""time""
""fullscreenenter"",""5"",""14286""
","
",83.9199999999255,NA,48,NA,NA,3000,1,NA,NA,images/earth.jpg,images/rocket2,images/rocket1,null,images/rocket2,NA,1,real,null,2,NA,NA,NA,sub138
d3-animate-choice,262,653128,0.0-76.0-1.42,TRUE,FALSE,FALSE,FALSE,"""event"",""trial"",""time""
""fullscreenenter"",""5"",""14286""
","
","
","""event"",""trial"",""time""
""fullscreenenter"",""5"",""14286""
","
",1003.6899999995949,NA,48,NA,NA,3000,1,NA,NA,images/purpleplanet.jpg,images/alien4,images/alien3,images/rocket2,images/alien4,images/t.png,2,real,false,2,rare,1,2020-06-26T16:25:16Z,sub138
two-step-fixation,263,654132,0.0-76.0-2.42,TRUE,FALSE,FALSE,FALSE,"""event"",""trial"",""time""
""fullscreenenter"",""5"",""14286""
","
","
","""event"",""trial"",""time""
""fullscreenenter"",""5"",""14286""
","
",NA,images/earth.jpg,NA,NA,NA,NA,NA,NA,NA,NA,NA,NA,NA,NA,NA,fixation,NA,NA,NA,NA,NA,NA,sub138
d3-animate-choice,264,656388,0.0-76.0-0.43,TRUE,FALSE,FALSE,FALSE,"""event"",""trial"",""time""
""fullscreenenter"",""5"",""14286""
","
","
","""event"",""trial"",""time""
""fullscreenenter"",""5"",""14286""
","
",251.87999999977183,NA,48,NA,NA,3000,1,NA,NA,images/earth.jpg,images/rocket2,images/rocket1,null,images/rocket2,NA,1,real,null,2,NA,NA,NA,sub138
d3-animate-choice,265,659305,0.0-76.0-1.43,TRUE,FALSE,FALSE,FALSE,"""event"",""trial"",""time""
""fullscreenenter"",""5"",""14286""
","
","
","""event"",""trial"",""time""
""fullscreenenter"",""5"",""14286""
","
",911.2100000001956,NA,49,NA,NA,3000,1,NA,NA,images/redplanet1.jpg,images/alien2,images/alien1,images/rocket2,images/alien1,images/t.png,2,real,true,1,common,1,2020-06-26T16:25:22Z,sub138
two-step-fixation,266,660308,0.0-76.0-2.43,TRUE,FALSE,FALSE,FALSE,"""event"",""trial"",""time""
""fullscreenenter"",""5"",""14286""
","
","
","""event"",""trial"",""time""
""fullscreenenter"",""5"",""14286""
","
",NA,images/earth.jpg,NA,NA,NA,NA,NA,NA,NA,NA,NA,NA,NA,NA,NA,fixation,NA,NA,NA,NA,NA,NA,sub138
d3-animate-choice,267,662392,0.0-76.0-0.44,TRUE,FALSE,FALSE,FALSE,"""event"",""trial"",""time""
""fullscreenenter"",""5"",""14286""
""fullscreenexit"",""268"",""663324""
","
","
","""event"",""trial"",""time""
""fullscreenenter"",""5"",""14286""
","""event"",""trial"",""time""
""fullscreenexit"",""268"",""663324""
",80.6899999998277,NA,48,NA,NA,3000,1,NA,NA,images/earth.jpg,images/rocket2,images/rocket1,null,images/rocket2,NA,1,real,null,2,NA,NA,NA,sub138
d3-animate-choice,268,665285,0.0-76.0-1.44,TRUE,FALSE,FALSE,FALSE,"""event"",""trial"",""time""
""fullscreenenter"",""5"",""14286""
""fullscreenexit"",""268"",""663324""
","
","
","""event"",""trial"",""time""
""fullscreenenter"",""5"",""14286""
","""event"",""trial"",""time""
""fullscreenexit"",""268"",""663324""
",888.2700000003679,NA,49,NA,NA,3000,1,NA,NA,images/redplanet1.jpg,images/alien2,images/alien1,images/rocket2,images/alien1,images/t.png,2,real,true,1,common,1,2020-06-26T16:25:28Z,sub138
two-step-fixation,269,666291,0.0-76.0-2.44,TRUE,FALSE,FALSE,FALSE,"""event"",""trial"",""time""
""fullscreenenter"",""5"",""14286""
""fullscreenexit"",""268"",""663324""
","
","
","""event"",""trial"",""time""
""fullscreenenter"",""5"",""14286""
","""event"",""trial"",""time""
""fullscreenexit"",""268"",""663324""
",NA,images/earth.jpg,NA,NA,NA,NA,NA,NA,NA,NA,NA,NA,NA,NA,NA,fixation,NA,NA,NA,NA,NA,NA,sub138
d3-animate-choice,270,669087,0.0-76.0-0.45,TRUE,FALSE,FALSE,FALSE,"""event"",""trial"",""time""
""fullscreenenter"",""5"",""14286""
""fullscreenexit"",""268"",""663324""
","
","
","""event"",""trial"",""time""
""fullscreenenter"",""5"",""14286""
","""event"",""trial"",""time""
""fullscreenexit"",""268"",""663324""
",791.1399999993155,NA,48,NA,NA,3000,1,NA,NA,images/earth.jpg,images/rocket2,images/rocket1,null,images/rocket2,NA,1,real,null,2,NA,NA,NA,sub138
d3-animate-choice,271,671814,0.0-76.0-1.45,TRUE,FALSE,FALSE,FALSE,"""event"",""trial"",""time""
""fullscreenenter"",""5"",""14286""
""fullscreenexit"",""268"",""663324""
","
","
","""event"",""trial"",""time""
""fullscreenenter"",""5"",""14286""
","""event"",""trial"",""time""
""fullscreenexit"",""268"",""663324""
",724.5349999994505,NA,49,NA,NA,3000,1,NA,NA,images/redplanet1.jpg,images/alien2,images/alien1,images/rocket2,images/alien1,images/nothing.png,2,real,true,1,common,0,2020-06-26T16:25:35Z,sub138
two-step-fixation,272,672816,0.0-76.0-2.45,TRUE,FALSE,FALSE,FALSE,"""event"",""trial"",""time""
""fullscreenenter"",""5"",""14286""
""fullscreenexit"",""268"",""663324""
","
","
","""event"",""trial"",""time""
""fullscreenenter"",""5"",""14286""
","""event"",""trial"",""time""
""fullscreenexit"",""268"",""663324""
",NA,images/earth.jpg,NA,NA,NA,NA,NA,NA,NA,NA,NA,NA,NA,NA,NA,fixation,NA,NA,NA,NA,NA,NA,sub138
d3-animate-choice,273,674938,0.0-76.0-0.46,TRUE,FALSE,FALSE,FALSE,"""event"",""trial"",""time""
""fullscreenenter"",""5"",""14286""
""fullscreenexit"",""268"",""663324""
","
","
","""event"",""trial"",""time""
""fullscreenenter"",""5"",""14286""
","""event"",""trial"",""time""
""fullscreenexit"",""268"",""663324""
",116.95500000042375,NA,48,NA,NA,3000,1,NA,NA,images/earth.jpg,images/rocket2,images/rocket1,null,images/rocket2,NA,1,real,null,2,NA,NA,NA,sub138
d3-animate-choice,274,677723,0.0-76.0-1.46,TRUE,FALSE,FALSE,FALSE,"""event"",""trial"",""time""
""fullscreenenter"",""5"",""14286""
""fullscreenexit"",""268"",""663324""
","
","
","""event"",""trial"",""time""
""fullscreenenter"",""5"",""14286""
","""event"",""trial"",""time""
""fullscreenexit"",""268"",""663324""
",777.6249999997672,NA,48,NA,NA,3000,1,NA,NA,images/purpleplanet.jpg,images/alien4,images/alien3,images/rocket2,images/alien4,images/t.png,2,real,false,2,rare,1,2020-06-26T16:25:40Z,sub138
two-step-fixation,275,678729,0.0-76.0-2.46,TRUE,FALSE,FALSE,FALSE,"""event"",""trial"",""time""
""fullscreenenter"",""5"",""14286""
""fullscreenexit"",""268"",""663324""
","
","
","""event"",""trial"",""time""
""fullscreenenter"",""5"",""14286""
","""event"",""trial"",""time""
""fullscreenexit"",""268"",""663324""
",NA,images/earth.jpg,NA,NA,NA,NA,NA,NA,NA,NA,NA,NA,NA,NA,NA,fixation,NA,NA,NA,NA,NA,NA,sub138
d3-animate-choice,276,681049,0.0-76.0-0.47,TRUE,FALSE,FALSE,FALSE,"""event"",""trial"",""time""
""fullscreenenter"",""5"",""14286""
""fullscreenexit"",""268"",""663324""
","
","
","""event"",""trial"",""time""
""fullscreenenter"",""5"",""14286""
","""event"",""trial"",""time""
""fullscreenexit"",""268"",""663324""
",315.30999999993946,NA,48,NA,NA,3000,1,NA,NA,images/earth.jpg,images/rocket2,images/rocket1,null,images/rocket2,NA,1,real,null,2,NA,NA,NA,sub138
d3-animate-choice,277,683664,0.0-76.0-1.47,TRUE,FALSE,FALSE,FALSE,"""event"",""trial"",""time""
""fullscreenenter"",""5"",""14286""
""fullscreenexit"",""268"",""663324""
","
","
","""event"",""trial"",""time""
""fullscreenenter"",""5"",""14286""
","""event"",""trial"",""time""
""fullscreenexit"",""268"",""663324""
",609.4149999999208,NA,49,NA,NA,3000,1,NA,NA,images/redplanet1.jpg,images/alien2,images/alien1,images/rocket2,images/alien1,images/t.png,2,real,true,1,common,1,2020-06-26T16:25:46Z,sub138
two-step-fixation,278,684667,0.0-76.0-2.47,TRUE,FALSE,FALSE,FALSE,"""event"",""trial"",""time""
""fullscreenenter"",""5"",""14286""
""fullscreenexit"",""268"",""663324""
","
","
","""event"",""trial"",""time""
""fullscreenenter"",""5"",""14286""
","""event"",""trial"",""time""
