trial_type,trial_index,time_elapsed,internal_node_id,rocket_sides,red_planet_first_rocket,red_display_order,purple_display_order,interactions,blur_events,focus_events,fullscreenenter_events,fullscreenexit_events,rt,stimulus,key_press,button_pressed,success,duration,valid_pressed,rts,keys,planet_text,right_text,left_text,center_text,chosen_text,reward_text,trial_stage,practice_trial,transition_type,choice,transition,reward,timestamp,subject_id
pavlovia,0,5,0.0-0.0,FALSE,FALSE,TRUE,TRUE,"""event"",""trial"",""time""
""blur"",""0"",""0""
""focus"",""1"",""20564""
","""event"",""trial"",""time""
""blur"",""0"",""0""
","""event"",""trial"",""time""
""focus"",""1"",""20564""
","
","
",NA,NA,NA,NA,NA,NA,NA,NA,NA,NA,NA,NA,NA,NA,NA,NA,NA,NA,NA,NA,NA,NA,sub99
html-keyboard-response,1,21975,0.0-1.0,FALSE,FALSE,TRUE,TRUE,"""event"",""trial"",""time""
""blur"",""0"",""0""
""focus"",""1"",""20564""
","""event"",""trial"",""time""
""blur"",""0"",""0""
","""event"",""trial"",""time""
""focus"",""1"",""20564""
","
","
",21967.579999996815,Welcome! Press the space bar to begin.,32,NA,NA,NA,NA,NA,NA,NA,NA,NA,NA,NA,NA,NA,NA,NA,NA,NA,NA,NA,sub99
audio-keyboard-response,2,25278,0.0-2.0,FALSE,FALSE,TRUE,TRUE,"""event"",""trial"",""time""
""blur"",""0"",""0""
""focus"",""1"",""20564""
","""event"",""trial"",""time""
""blur"",""0"",""0""
","""event"",""trial"",""time""
""focus"",""1"",""20564""
","
","
",2960,audio/beep_loop.wav,32,NA,NA,NA,NA,NA,NA,NA,NA,NA,NA,NA,NA,NA,NA,NA,NA,NA,NA,NA,sub99
audio-button-response,3,27852,0.0-3.0,FALSE,FALSE,TRUE,TRUE,"""event"",""trial"",""time""
""blur"",""0"",""0""
""focus"",""1"",""20564""
","""event"",""trial"",""time""
""blur"",""0"",""0""
","""event"",""trial"",""time""
""focus"",""1"",""20564""
","
","
",NaN,audio/fish.mp3,NA,1,NA,NA,NA,NA,NA,NA,NA,NA,NA,NA,NA,NA,NA,NA,NA,NA,NA,NA,sub99
audio-button-response,4,30451,0.0-4.0,FALSE,FALSE,TRUE,TRUE,"""event"",""trial"",""time""
""blur"",""0"",""0""
""focus"",""1"",""20564""
""fullscreenenter"",""5"",""38323""
","""event"",""trial"",""time""
""blur"",""0"",""0""
","""event"",""trial"",""time""
""focus"",""1"",""20564""
","""event"",""trial"",""time""
""fullscreenenter"",""5"",""38323""
","
",NaN,audio/tiger.mp3,NA,4,NA,NA,NA,NA,NA,NA,NA,NA,NA,NA,NA,NA,NA,NA,NA,NA,NA,NA,sub99
fullscreen,5,39275,0.0-5.0,FALSE,FALSE,TRUE,TRUE,"""event"",""trial"",""time""
""blur"",""0"",""0""
""focus"",""1"",""20564""
""fullscreenenter"",""5"",""38323""
","""event"",""trial"",""time""
""blur"",""0"",""0""
","""event"",""trial"",""time""
""focus"",""1"",""20564""
","""event"",""trial"",""time""
""fullscreenenter"",""5"",""38323""
","
",NA,NA,NA,NA,TRUE,NA,NA,NA,NA,NA,NA,NA,NA,NA,NA,NA,NA,NA,NA,NA,NA,NA,sub99
d3-instructions,6,53812,0.0-6.0,FALSE,FALSE,TRUE,TRUE,"""event"",""trial"",""time""
""blur"",""0"",""0""
""focus"",""1"",""20564""
""fullscreenenter"",""5"",""38323""
","""event"",""trial"",""time""
""blur"",""0"",""0""
","""event"",""trial"",""time""
""focus"",""1"",""20564""
","""event"",""trial"",""time""
""fullscreenenter"",""5"",""38323""
","
",NA,NA,NA,NA,NA,NA,NA,NA,NA,NA,NA,NA,NA,NA,NA,NA,NA,NA,NA,NA,NA,NA,sub99
d3-instructions,7,63456,0.0-7.0,FALSE,FALSE,TRUE,TRUE,"""event"",""trial"",""time""
""blur"",""0"",""0""
""focus"",""1"",""20564""
""fullscreenenter"",""5"",""38323""
","""event"",""trial"",""time""
""blur"",""0"",""0""
","""event"",""trial"",""time""
""focus"",""1"",""20564""
","""event"",""trial"",""time""
""fullscreenenter"",""5"",""38323""
","
",NA,NA,NA,NA,NA,NA,NA,NA,NA,NA,NA,NA,NA,NA,NA,NA,NA,NA,NA,NA,NA,NA,sub99
d3-instructions,8,71803,0.0-8.0,FALSE,FALSE,TRUE,TRUE,"""event"",""trial"",""time""
""blur"",""0"",""0""
""focus"",""1"",""20564""
""fullscreenenter"",""5"",""38323""
","""event"",""trial"",""time""
""blur"",""0"",""0""
","""event"",""trial"",""time""
""focus"",""1"",""20564""
","""event"",""trial"",""time""
""fullscreenenter"",""5"",""38323""
","
",NA,NA,NA,NA,NA,NA,NA,NA,NA,NA,NA,NA,NA,NA,NA,NA,NA,NA,NA,NA,NA,NA,sub99
d3-instructions,9,86675,0.0-9.0,FALSE,FALSE,TRUE,TRUE,"""event"",""trial"",""time""
""blur"",""0"",""0""
""focus"",""1"",""20564""
""fullscreenenter"",""5"",""38323""
","""event"",""trial"",""time""
""blur"",""0"",""0""
","""event"",""trial"",""time""
""focus"",""1"",""20564""
","""event"",""trial"",""time""
""fullscreenenter"",""5"",""38323""
","
",NA,NA,NA,NA,NA,NA,NA,NA,NA,NA,NA,NA,NA,NA,NA,NA,NA,NA,NA,NA,NA,NA,sub99
d3-instructions,10,107096,0.0-10.0,FALSE,FALSE,TRUE,TRUE,"""event"",""trial"",""time""
""blur"",""0"",""0""
""focus"",""1"",""20564""
""fullscreenenter"",""5"",""38323""
","""event"",""trial"",""time""
""blur"",""0"",""0""
","""event"",""trial"",""time""
""focus"",""1"",""20564""
","""event"",""trial"",""time""
""fullscreenenter"",""5"",""38323""
","
",NA,NA,NA,NA,NA,NA,NA,NA,NA,NA,NA,NA,NA,NA,NA,NA,NA,NA,NA,NA,NA,NA,sub99
d3-animate-choice,11,112364,0.0-11.0,FALSE,FALSE,TRUE,TRUE,"""event"",""trial"",""time""
""blur"",""0"",""0""
""focus"",""1"",""20564""
""fullscreenenter"",""5"",""38323""
","""event"",""trial"",""time""
""blur"",""0"",""0""
","""event"",""trial"",""time""
""focus"",""1"",""20564""
","""event"",""trial"",""time""
""fullscreenenter"",""5"",""38323""
","
",3258.105000015348,NA,49,NA,NA,3000,1,4567.320000031032,48,images/tutgreenplanet.jpg,images/tutalien1,images/tutalien2,null,images/tutalien2,NA,NA,practice,null,NA,NA,NA,NA,sub99
d3-animate-choice,12,114949,0.0-12.0,FALSE,FALSE,TRUE,TRUE,"""event"",""trial"",""time""
""blur"",""0"",""0""
""focus"",""1"",""20564""
""fullscreenenter"",""5"",""38323""
","""event"",""trial"",""time""
""blur"",""0"",""0""
","""event"",""trial"",""time""
""focus"",""1"",""20564""
","""event"",""trial"",""time""
""fullscreenenter"",""5"",""38323""
","
",580.759999982547,NA,48,NA,NA,3000,1,NA,NA,images/tutgreenplanet.jpg,images/tutalien1,images/tutalien2,null,images/tutalien1,NA,NA,practice,null,NA,NA,NA,NA,sub99
d3-animate-choice,13,117590,0.0-13.0,FALSE,FALSE,TRUE,TRUE,"""event"",""trial"",""time""
""blur"",""0"",""0""
""focus"",""1"",""20564""
""fullscreenenter"",""5"",""38323""
","""event"",""trial"",""time""
""blur"",""0"",""0""
","""event"",""trial"",""time""
""focus"",""1"",""20564""
","""event"",""trial"",""time""
""fullscreenenter"",""5"",""38323""
","
",636.3750000018626,NA,49,NA,NA,3000,1,NA,NA,images/tutgreenplanet.jpg,images/tutalien1,images/tutalien2,null,images/tutalien2,NA,NA,practice,null,NA,NA,NA,NA,sub99
d3-animate-choice,14,120008,0.0-14.0,FALSE,FALSE,TRUE,TRUE,"""event"",""trial"",""time""
""blur"",""0"",""0""
""focus"",""1"",""20564""
""fullscreenenter"",""5"",""38323""
","""event"",""trial"",""time""
""blur"",""0"",""0""
","""event"",""trial"",""time""
""focus"",""1"",""20564""
","""event"",""trial"",""time""
""fullscreenenter"",""5"",""38323""
","
",414.0649999608286,NA,48,NA,NA,3000,1,NA,NA,images/tutgreenplanet.jpg,images/tutalien1,images/tutalien2,null,images/tutalien1,NA,NA,practice,null,NA,NA,NA,NA,sub99
d3-instructions,15,127470,0.0-15.0,FALSE,FALSE,TRUE,TRUE,"""event"",""trial"",""time""
""blur"",""0"",""0""
""focus"",""1"",""20564""
""fullscreenenter"",""5"",""38323""
","""event"",""trial"",""time""
""blur"",""0"",""0""
","""event"",""trial"",""time""
""focus"",""1"",""20564""
","""event"",""trial"",""time""
""fullscreenenter"",""5"",""38323""
","
",NA,NA,NA,NA,NA,NA,NA,NA,NA,NA,NA,NA,NA,NA,NA,NA,NA,NA,NA,NA,NA,NA,sub99
d3-instructions,16,134616,0.0-16.0,FALSE,FALSE,TRUE,TRUE,"""event"",""trial"",""time""
""blur"",""0"",""0""
""focus"",""1"",""20564""
""fullscreenenter"",""5"",""38323""
","""event"",""trial"",""time""
""blur"",""0"",""0""
","""event"",""trial"",""time""
""focus"",""1"",""20564""
","""event"",""trial"",""time""
""fullscreenenter"",""5"",""38323""
","
",NA,NA,NA,NA,NA,NA,NA,NA,NA,NA,NA,NA,NA,NA,NA,NA,NA,NA,NA,NA,NA,NA,sub99
d3-instructions,17,143963,0.0-17.0,FALSE,FALSE,TRUE,TRUE,"""event"",""trial"",""time""
""blur"",""0"",""0""
""focus"",""1"",""20564""
""fullscreenenter"",""5"",""38323""
","""event"",""trial"",""time""
""blur"",""0"",""0""
","""event"",""trial"",""time""
""focus"",""1"",""20564""
","""event"",""trial"",""time""
""fullscreenenter"",""5"",""38323""
","
",NA,NA,NA,NA,NA,NA,NA,NA,NA,NA,NA,NA,NA,NA,NA,NA,NA,NA,NA,NA,NA,NA,sub99
d3-instructions,18,157084,0.0-18.0,FALSE,FALSE,TRUE,TRUE,"""event"",""trial"",""time""
""blur"",""0"",""0""
""focus"",""1"",""20564""
""fullscreenenter"",""5"",""38323""
","""event"",""trial"",""time""
""blur"",""0"",""0""
","""event"",""trial"",""time""
""focus"",""1"",""20564""
","""event"",""trial"",""time""
""fullscreenenter"",""5"",""38323""
","
",NA,NA,NA,NA,NA,NA,NA,NA,NA,NA,NA,NA,NA,NA,NA,NA,NA,NA,NA,NA,NA,NA,sub99
d3-instructions,19,171496,0.0-19.0,FALSE,FALSE,TRUE,TRUE,"""event"",""trial"",""time""
""blur"",""0"",""0""
""focus"",""1"",""20564""
""fullscreenenter"",""5"",""38323""
","""event"",""trial"",""time""
""blur"",""0"",""0""
","""event"",""trial"",""time""
""focus"",""1"",""20564""
","""event"",""trial"",""time""
""fullscreenenter"",""5"",""38323""
","
",NA,NA,NA,NA,NA,NA,NA,NA,NA,NA,NA,NA,NA,NA,NA,NA,NA,NA,NA,NA,NA,NA,sub99
d3-animate-choice,20,175908,0.0-20.0,FALSE,FALSE,TRUE,TRUE,"""event"",""trial"",""time""
""blur"",""0"",""0""
""focus"",""1"",""20564""
""fullscreenenter"",""5"",""38323""
","""event"",""trial"",""time""
""blur"",""0"",""0""
","""event"",""trial"",""time""
""focus"",""1"",""20564""
","""event"",""trial"",""time""
""fullscreenenter"",""5"",""38323""
","
",1365.8200000063516,NA,32,NA,NA,3000,1,2408.2650000345893,49,images/tutyellowplanet.jpg,null,images/tutalien3,null,images/tutalien3,images/t.png,NA,practice,null,NA,NA,NA,NA,sub99
d3-animate-choice,21,178421,0.0-21.0,FALSE,FALSE,TRUE,TRUE,"""event"",""trial"",""time""
""blur"",""0"",""0""
""focus"",""1"",""20564""
""fullscreenenter"",""5"",""38323""
","""event"",""trial"",""time""
""blur"",""0"",""0""
","""event"",""trial"",""time""
""focus"",""1"",""20564""
","""event"",""trial"",""time""
""fullscreenenter"",""5"",""38323""
","
",509.38000000314787,NA,49,NA,NA,3000,1,NA,NA,images/tutyellowplanet.jpg,null,images/tutalien3,null,images/tutalien3,images/t.png,NA,practice,null,NA,NA,NA,NA,sub99
d3-animate-choice,22,180877,0.0-22.0,FALSE,FALSE,TRUE,TRUE,"""event"",""trial"",""time""
""blur"",""0"",""0""
""focus"",""1"",""20564""
""fullscreenenter"",""5"",""38323""
","""event"",""trial"",""time""
""blur"",""0"",""0""
","""event"",""trial"",""time""
""focus"",""1"",""20564""
","""event"",""trial"",""time""
""fullscreenenter"",""5"",""38323""
","
",453.1299999798648,NA,49,NA,NA,3000,1,NA,NA,images/tutyellowplanet.jpg,null,images/tutalien3,null,images/tutalien3,images/t.png,NA,practice,null,NA,NA,NA,NA,sub99
d3-animate-choice,23,183435,0.0-23.0,FALSE,FALSE,TRUE,TRUE,"""event"",""trial"",""time""
""blur"",""0"",""0""
""focus"",""1"",""20564""
""fullscreenenter"",""5"",""38323""
","""event"",""trial"",""time""
""blur"",""0"",""0""
","""event"",""trial"",""time""
""focus"",""1"",""20564""
","""event"",""trial"",""time""
""fullscreenenter"",""5"",""38323""
","
",555.1449999911711,NA,49,NA,NA,3000,1,NA,NA,images/tutyellowplanet.jpg,null,images/tutalien3,null,images/tutalien3,images/t.png,NA,practice,null,NA,NA,NA,NA,sub99
d3-animate-choice,24,185901,0.0-24.0,FALSE,FALSE,TRUE,TRUE,"""event"",""trial"",""time""
""blur"",""0"",""0""
""focus"",""1"",""20564""
""fullscreenenter"",""5"",""38323""
","""event"",""trial"",""time""
""blur"",""0"",""0""
","""event"",""trial"",""time""
""focus"",""1"",""20564""
","""event"",""trial"",""time""
""fullscreenenter"",""5"",""38323""
","
",463.04000000236556,NA,49,NA,NA,3000,1,NA,NA,images/tutyellowplanet.jpg,null,images/tutalien3,null,images/tutalien3,images/t.png,NA,practice,null,NA,NA,NA,NA,sub99
d3-animate-choice,25,188375,0.0-25.0,FALSE,FALSE,TRUE,TRUE,"""event"",""trial"",""time""
""blur"",""0"",""0""
""focus"",""1"",""20564""
""fullscreenenter"",""5"",""38323""
","""event"",""trial"",""time""
""blur"",""0"",""0""
","""event"",""trial"",""time""
""focus"",""1"",""20564""
","""event"",""trial"",""time""
""fullscreenenter"",""5"",""38323""
","
",470.5400000093505,NA,49,NA,NA,3000,1,NA,NA,images/tutyellowplanet.jpg,null,images/tutalien3,null,images/tutalien3,images/t.png,NA,practice,null,NA,NA,NA,NA,sub99
d3-animate-choice,26,190903,0.0-26.0,FALSE,FALSE,TRUE,TRUE,"""event"",""trial"",""time""
""blur"",""0"",""0""
""focus"",""1"",""20564""
""fullscreenenter"",""5"",""38323""
","""event"",""trial"",""time""
""blur"",""0"",""0""
","""event"",""trial"",""time""
""focus"",""1"",""20564""
","""event"",""trial"",""time""
""fullscreenenter"",""5"",""38323""
","
",525.1399999833666,NA,49,NA,NA,3000,1,NA,NA,images/tutyellowplanet.jpg,null,images/tutalien3,null,images/tutalien3,images/t.png,NA,practice,null,NA,NA,NA,NA,sub99
d3-animate-choice,27,193356,0.0-27.0,FALSE,FALSE,TRUE,TRUE,"""event"",""trial"",""time""
""blur"",""0"",""0""
""focus"",""1"",""20564""
""fullscreenenter"",""5"",""38323""
","""event"",""trial"",""time""
""blur"",""0"",""0""
","""event"",""trial"",""time""
""focus"",""1"",""20564""
","""event"",""trial"",""time""
""fullscreenenter"",""5"",""38323""
","
",448.73000000370666,NA,49,NA,NA,3000,1,NA,NA,images/tutyellowplanet.jpg,null,images/tutalien3,null,images/tutalien3,images/t.png,NA,practice,null,NA,NA,NA,NA,sub99
d3-animate-choice,28,195868,0.0-28.0,FALSE,FALSE,TRUE,TRUE,"""event"",""trial"",""time""
""blur"",""0"",""0""
""focus"",""1"",""20564""
""fullscreenenter"",""5"",""38323""
","""event"",""trial"",""time""
""blur"",""0"",""0""
","""event"",""trial"",""time""
""focus"",""1"",""20564""
","""event"",""trial"",""time""
""fullscreenenter"",""5"",""38323""
","
",509.9000000045635,NA,49,NA,NA,3000,1,NA,NA,images/tutyellowplanet.jpg,null,images/tutalien3,null,images/tutalien3,images/t.png,NA,practice,null,NA,NA,NA,NA,sub99
d3-animate-choice,29,198288,0.0-29.0,FALSE,FALSE,TRUE,TRUE,"""event"",""trial"",""time""
""blur"",""0"",""0""
""focus"",""1"",""20564""
""fullscreenenter"",""5"",""38323""
","""event"",""trial"",""time""
""blur"",""0"",""0""
","""event"",""trial"",""time""
""focus"",""1"",""20564""
","""event"",""trial"",""time""
""fullscreenenter"",""5"",""38323""
","
",416.70000000158325,NA,49,NA,NA,3000,1,NA,NA,images/tutyellowplanet.jpg,null,images/tutalien3,null,images/tutalien3,images/t.png,NA,practice,null,NA,NA,NA,NA,sub99
d3-instructions,30,206030,0.0-30.0,FALSE,FALSE,TRUE,TRUE,"""event"",""trial"",""time""
""blur"",""0"",""0""
""focus"",""1"",""20564""
""fullscreenenter"",""5"",""38323""
","""event"",""trial"",""time""
""blur"",""0"",""0""
","""event"",""trial"",""time""
""focus"",""1"",""20564""
","""event"",""trial"",""time""
""fullscreenenter"",""5"",""38323""
","
",NA,NA,NA,NA,NA,NA,NA,NA,NA,NA,NA,NA,NA,NA,NA,NA,NA,NA,NA,NA,NA,NA,sub99
d3-instructions,31,217593,0.0-31.0,FALSE,FALSE,TRUE,TRUE,"""event"",""trial"",""time""
""blur"",""0"",""0""
""focus"",""1"",""20564""
""fullscreenenter"",""5"",""38323""
","""event"",""trial"",""time""
""blur"",""0"",""0""
","""event"",""trial"",""time""
""focus"",""1"",""20564""
","""event"",""trial"",""time""
""fullscreenenter"",""5"",""38323""
","
",NA,NA,NA,NA,NA,NA,NA,NA,NA,NA,NA,NA,NA,NA,NA,NA,NA,NA,NA,NA,NA,NA,sub99
d3-instructions,32,225509,0.0-32.0,FALSE,FALSE,TRUE,TRUE,"""event"",""trial"",""time""
""blur"",""0"",""0""
""focus"",""1"",""20564""
""fullscreenenter"",""5"",""38323""
","""event"",""trial"",""time""
""blur"",""0"",""0""
","""event"",""trial"",""time""
""focus"",""1"",""20564""
","""event"",""trial"",""time""
""fullscreenenter"",""5"",""38323""
","
",NA,NA,NA,NA,NA,NA,NA,NA,NA,NA,NA,NA,NA,NA,NA,NA,NA,NA,NA,NA,NA,NA,sub99
d3-instructions,33,236365,0.0-33.0,FALSE,FALSE,TRUE,TRUE,"""event"",""trial"",""time""
""blur"",""0"",""0""
""focus"",""1"",""20564""
""fullscreenenter"",""5"",""38323""
","""event"",""trial"",""time""
""blur"",""0"",""0""
","""event"",""trial"",""time""
""focus"",""1"",""20564""
","""event"",""trial"",""time""
""fullscreenenter"",""5"",""38323""
","
",NA,NA,NA,NA,NA,NA,NA,NA,NA,NA,NA,NA,NA,NA,NA,NA,NA,NA,NA,NA,NA,NA,sub99
d3-animate-choice,34,241005,0.0-34.0,FALSE,FALSE,TRUE,TRUE,"""event"",""trial"",""time""
""blur"",""0"",""0""
""focus"",""1"",""20564""
""fullscreenenter"",""5"",""38323""
","""event"",""trial"",""time""
""blur"",""0"",""0""
","""event"",""trial"",""time""
""focus"",""1"",""20564""
","""event"",""trial"",""time""
""fullscreenenter"",""5"",""38323""
","
",2638.325000007171,NA,49,NA,NA,3000,1,NA,NA,images/tutgreenplanet.jpg,images/tutalien1,images/tutalien2,null,images/tutalien2,images/nothing.png,NA,practice,null,NA,NA,NA,NA,sub99
d3-animate-choice,35,243721,0.0-35.0,FALSE,FALSE,TRUE,TRUE,"""event"",""trial"",""time""
""blur"",""0"",""0""
""focus"",""1"",""20564""
""fullscreenenter"",""5"",""38323""
","""event"",""trial"",""time""
""blur"",""0"",""0""
","""event"",""trial"",""time""
""focus"",""1"",""20564""
","""event"",""trial"",""time""
""fullscreenenter"",""5"",""38323""
","
",712.7249999903142,NA,48,NA,NA,3000,1,NA,NA,images/tutgreenplanet.jpg,images/tutalien1,images/tutalien2,null,images/tutalien1,images/nothing.png,NA,practice,null,NA,NA,NA,NA,sub99
d3-animate-choice,36,246368,0.0-36.0,FALSE,FALSE,TRUE,TRUE,"""event"",""trial"",""time""
""blur"",""0"",""0""
""focus"",""1"",""20564""
""fullscreenenter"",""5"",""38323""
","""event"",""trial"",""time""
""blur"",""0"",""0""
","""event"",""trial"",""time""
""focus"",""1"",""20564""
","""event"",""trial"",""time""
""fullscreenenter"",""5"",""38323""
","
",643.949999997858,NA,49,NA,NA,3000,1,NA,NA,images/tutgreenplanet.jpg,images/tutalien1,images/tutalien2,null,images/tutalien2,images/t.png,NA,practice,null,NA,NA,NA,NA,sub99
d3-animate-choice,37,248792,0.0-37.0,FALSE,FALSE,TRUE,TRUE,"""event"",""trial"",""time""
""blur"",""0"",""0""
""focus"",""1"",""20564""
""fullscreenenter"",""5"",""38323""
","""event"",""trial"",""time""
""blur"",""0"",""0""
","""event"",""trial"",""time""
""focus"",""1"",""20564""
","""event"",""trial"",""time""
""fullscreenenter"",""5"",""38323""
","
",420.14000000199303,NA,49,NA,NA,3000,1,NA,NA,images/tutgreenplanet.jpg,images/tutalien1,images/tutalien2,null,images/tutalien2,images/t.png,NA,practice,null,NA,NA,NA,NA,sub99
d3-animate-choice,38,251209,0.0-38.0,FALSE,FALSE,TRUE,TRUE,"""event"",""trial"",""time""
""blur"",""0"",""0""
""focus"",""1"",""20564""
""fullscreenenter"",""5"",""38323""
","""event"",""trial"",""time""
""blur"",""0"",""0""
","""event"",""trial"",""time""
""focus"",""1"",""20564""
","""event"",""trial"",""time""
""fullscreenenter"",""5"",""38323""
","
",413.3199999923818,NA,49,NA,NA,3000,1,NA,NA,images/tutgreenplanet.jpg,images/tutalien1,images/tutalien2,null,images/tutalien2,images/t.png,NA,practice,null,NA,NA,NA,NA,sub99
d3-animate-choice,39,253673,0.0-39.0,FALSE,FALSE,TRUE,TRUE,"""event"",""trial"",""time""
""blur"",""0"",""0""
""focus"",""1"",""20564""
""fullscreenenter"",""5"",""38323""
","""event"",""trial"",""time""
""blur"",""0"",""0""
","""event"",""trial"",""time""
""focus"",""1"",""20564""
","""event"",""trial"",""time""
""fullscreenenter"",""5"",""38323""
","
",460.1600000169128,NA,49,NA,NA,3000,1,NA,NA,images/tutgreenplanet.jpg,images/tutalien1,images/tutalien2,null,images/tutalien2,images/t.png,NA,practice,null,NA,NA,NA,NA,sub99
d3-animate-choice,40,256123,0.0-40.0,FALSE,FALSE,TRUE,TRUE,"""event"",""trial"",""time""
""blur"",""0"",""0""
""focus"",""1"",""20564""
""fullscreenenter"",""5"",""38323""
","""event"",""trial"",""time""
""blur"",""0"",""0""
","""event"",""trial"",""time""
""focus"",""1"",""20564""
","""event"",""trial"",""time""
""fullscreenenter"",""5"",""38323""
","
",446.54000003356487,NA,49,NA,NA,3000,1,NA,NA,images/tutgreenplanet.jpg,images/tutalien1,images/tutalien2,null,images/tutalien2,images/t.png,NA,practice,null,NA,NA,NA,NA,sub99
d3-animate-choice,41,258554,0.0-41.0,FALSE,FALSE,TRUE,TRUE,"""event"",""trial"",""time""
""blur"",""0"",""0""
""focus"",""1"",""20564""
""fullscreenenter"",""5"",""38323""
","""event"",""trial"",""time""
""blur"",""0"",""0""
","""event"",""trial"",""time""
""focus"",""1"",""20564""
","""event"",""trial"",""time""
""fullscreenenter"",""5"",""38323""
","
",426.294999953825,NA,49,NA,NA,3000,1,NA,NA,images/tutgreenplanet.jpg,images/tutalien1,images/tutalien2,null,images/tutalien2,images/t.png,NA,practice,null,NA,NA,NA,NA,sub99
d3-animate-choice,42,260909,0.0-42.0,FALSE,FALSE,TRUE,TRUE,"""event"",""trial"",""time""
""blur"",""0"",""0""
""focus"",""1"",""20564""
""fullscreenenter"",""5"",""38323""
","""event"",""trial"",""time""
""blur"",""0"",""0""
","""event"",""trial"",""time""
""focus"",""1"",""20564""
","""event"",""trial"",""time""
""fullscreenenter"",""5"",""38323""
","
",352.004999993369,NA,49,NA,NA,3000,1,NA,NA,images/tutgreenplanet.jpg,images/tutalien1,images/tutalien2,null,images/tutalien2,images/t.png,NA,practice,null,NA,NA,NA,NA,sub99
d3-animate-choice,43,263292,0.0-43.0,FALSE,FALSE,TRUE,TRUE,"""event"",""trial"",""time""
""blur"",""0"",""0""
""focus"",""1"",""20564""
""fullscreenenter"",""5"",""38323""
","""event"",""trial"",""time""
""blur"",""0"",""0""
","""event"",""trial"",""time""
""focus"",""1"",""20564""
","""event"",""trial"",""time""
""fullscreenenter"",""5"",""38323""
","
",377.74999998509884,NA,49,NA,NA,3000,1,NA,NA,images/tutgreenplanet.jpg,images/tutalien1,images/tutalien2,null,images/tutalien2,images/t.png,NA,practice,null,NA,NA,NA,NA,sub99
d3-instructions,44,277179,0.0-44.0,FALSE,FALSE,TRUE,TRUE,"""event"",""trial"",""time""
""blur"",""0"",""0""
""focus"",""1"",""20564""
""fullscreenenter"",""5"",""38323""
","""event"",""trial"",""time""
""blur"",""0"",""0""
","""event"",""trial"",""time""
""focus"",""1"",""20564""
","""event"",""trial"",""time""
""fullscreenenter"",""5"",""38323""
","
",NA,NA,NA,NA,NA,NA,NA,NA,NA,NA,NA,NA,NA,NA,NA,NA,NA,NA,NA,NA,NA,NA,sub99
d3-instructions,45,284117,0.0-45.0,FALSE,FALSE,TRUE,TRUE,"""event"",""trial"",""time""
""blur"",""0"",""0""
""focus"",""1"",""20564""
""fullscreenenter"",""5"",""38323""
","""event"",""trial"",""time""
""blur"",""0"",""0""
","""event"",""trial"",""time""
""focus"",""1"",""20564""
","""event"",""trial"",""time""
""fullscreenenter"",""5"",""38323""
","
",NA,NA,NA,NA,NA,NA,NA,NA,NA,NA,NA,NA,NA,NA,NA,NA,NA,NA,NA,NA,NA,NA,sub99
d3-instructions,46,291386,0.0-46.0,FALSE,FALSE,TRUE,TRUE,"""event"",""trial"",""time""
""blur"",""0"",""0""
""focus"",""1"",""20564""
""fullscreenenter"",""5"",""38323""
","""event"",""trial"",""time""
""blur"",""0"",""0""
","""event"",""trial"",""time""
""focus"",""1"",""20564""
","""event"",""trial"",""time""
""fullscreenenter"",""5"",""38323""
","
",NA,NA,NA,NA,NA,NA,NA,NA,NA,NA,NA,NA,NA,NA,NA,NA,NA,NA,NA,NA,NA,NA,sub99
d3-instructions,47,309661,0.0-47.0,FALSE,FALSE,TRUE,TRUE,"""event"",""trial"",""time""
""blur"",""0"",""0""
""focus"",""1"",""20564""
""fullscreenenter"",""5"",""38323""
","""event"",""trial"",""time""
""blur"",""0"",""0""
","""event"",""trial"",""time""
""focus"",""1"",""20564""
","""event"",""trial"",""time""
""fullscreenenter"",""5"",""38323""
","
",NA,NA,NA,NA,NA,NA,NA,NA,NA,NA,NA,NA,NA,NA,NA,NA,NA,NA,NA,NA,NA,NA,sub99
d3-instructions,48,317137,0.0-48.0,FALSE,FALSE,TRUE,TRUE,"""event"",""trial"",""time""
""blur"",""0"",""0""
""focus"",""1"",""20564""
""fullscreenenter"",""5"",""38323""
","""event"",""trial"",""time""
""blur"",""0"",""0""
","""event"",""trial"",""time""
""focus"",""1"",""20564""
","""event"",""trial"",""time""
""fullscreenenter"",""5"",""38323""
","
",NA,NA,NA,NA,NA,NA,NA,NA,NA,NA,NA,NA,NA,NA,NA,NA,NA,NA,NA,NA,NA,NA,sub99
d3-instructions,49,328388,0.0-49.0,FALSE,FALSE,TRUE,TRUE,"""event"",""trial"",""time""
""blur"",""0"",""0""
""focus"",""1"",""20564""
""fullscreenenter"",""5"",""38323""
","""event"",""trial"",""time""
""blur"",""0"",""0""
","""event"",""trial"",""time""
""focus"",""1"",""20564""
","""event"",""trial"",""time""
""fullscreenenter"",""5"",""38323""
","
",NA,NA,NA,NA,NA,NA,NA,NA,NA,NA,NA,NA,NA,NA,NA,NA,NA,NA,NA,NA,NA,NA,sub99
d3-instructions,50,337815,0.0-50.0,FALSE,FALSE,TRUE,TRUE,"""event"",""trial"",""time""
""blur"",""0"",""0""
""focus"",""1"",""20564""
""fullscreenenter"",""5"",""38323""
","""event"",""trial"",""time""
""blur"",""0"",""0""
","""event"",""trial"",""time""
""focus"",""1"",""20564""
","""event"",""trial"",""time""
""fullscreenenter"",""5"",""38323""
","
",NA,NA,NA,NA,NA,NA,NA,NA,NA,NA,NA,NA,NA,NA,NA,NA,NA,NA,NA,NA,NA,NA,sub99
d3-instructions,51,340894,0.0-51.0,FALSE,FALSE,TRUE,TRUE,"""event"",""trial"",""time""
""blur"",""0"",""0""
""focus"",""1"",""20564""
""fullscreenenter"",""5"",""38323""
","""event"",""trial"",""time""
""blur"",""0"",""0""
","""event"",""trial"",""time""
""focus"",""1"",""20564""
","""event"",""trial"",""time""
""fullscreenenter"",""5"",""38323""
","
",NA,NA,NA,NA,NA,NA,NA,NA,NA,NA,NA,NA,NA,NA,NA,NA,NA,NA,NA,NA,NA,NA,sub99
d3-instructions,52,343944,0.0-52.0,FALSE,FALSE,TRUE,TRUE,"""event"",""trial"",""time""
""blur"",""0"",""0""
""focus"",""1"",""20564""
""fullscreenenter"",""5"",""38323""
","""event"",""trial"",""time""
""blur"",""0"",""0""
","""event"",""trial"",""time""
""focus"",""1"",""20564""
","""event"",""trial"",""time""
""fullscreenenter"",""5"",""38323""
","
",NA,NA,NA,NA,NA,NA,NA,NA,NA,NA,NA,NA,NA,NA,NA,NA,NA,NA,NA,NA,NA,NA,sub99
d3-instructions,53,356340,0.0-53.0,FALSE,FALSE,TRUE,TRUE,"""event"",""trial"",""time""
""blur"",""0"",""0""
""focus"",""1"",""20564""
""fullscreenenter"",""5"",""38323""
","""event"",""trial"",""time""
""blur"",""0"",""0""
","""event"",""trial"",""time""
""focus"",""1"",""20564""
","""event"",""trial"",""time""
""fullscreenenter"",""5"",""38323""
","
",NA,NA,NA,NA,NA,NA,NA,NA,NA,NA,NA,NA,NA,NA,NA,NA,NA,NA,NA,NA,NA,NA,sub99
d3-instructions,54,369619,0.0-54.0,FALSE,FALSE,TRUE,TRUE,"""event"",""trial"",""time""
""blur"",""0"",""0""
""focus"",""1"",""20564""
""fullscreenenter"",""5"",""38323""
","""event"",""trial"",""time""
""blur"",""0"",""0""
","""event"",""trial"",""time""
""focus"",""1"",""20564""
","""event"",""trial"",""time""
""fullscreenenter"",""5"",""38323""
","
",NA,NA,NA,NA,NA,NA,NA,NA,NA,NA,NA,NA,NA,NA,NA,NA,NA,NA,NA,NA,NA,NA,sub99
d3-instructions,55,380177,0.0-55.0,FALSE,FALSE,TRUE,TRUE,"""event"",""trial"",""time""
""blur"",""0"",""0""
""focus"",""1"",""20564""
""fullscreenenter"",""5"",""38323""
","""event"",""trial"",""time""
""blur"",""0"",""0""
","""event"",""trial"",""time""
""focus"",""1"",""20564""
","""event"",""trial"",""time""
""fullscreenenter"",""5"",""38323""
","
",NA,NA,NA,NA,NA,NA,NA,NA,NA,NA,NA,NA,NA,NA,NA,NA,NA,NA,NA,NA,NA,NA,sub99
d3-instructions,56,389294,0.0-56.0,FALSE,FALSE,TRUE,TRUE,"""event"",""trial"",""time""
""blur"",""0"",""0""
""focus"",""1"",""20564""
""fullscreenenter"",""5"",""38323""
","""event"",""trial"",""time""
""blur"",""0"",""0""
","""event"",""trial"",""time""
""focus"",""1"",""20564""
","""event"",""trial"",""time""
""fullscreenenter"",""5"",""38323""
","
",NA,NA,NA,NA,NA,NA,NA,NA,NA,NA,NA,NA,NA,NA,NA,NA,NA,NA,NA,NA,NA,NA,sub99
d3-instructions,57,399880,0.0-57.0,FALSE,FALSE,TRUE,TRUE,"""event"",""trial"",""time""
""blur"",""0"",""0""
""focus"",""1"",""20564""
""fullscreenenter"",""5"",""38323""
","""event"",""trial"",""time""
""blur"",""0"",""0""
","""event"",""trial"",""time""
""focus"",""1"",""20564""
","""event"",""trial"",""time""
""fullscreenenter"",""5"",""38323""
","
",NA,NA,NA,NA,NA,NA,NA,NA,NA,NA,NA,NA,NA,NA,NA,NA,NA,NA,NA,NA,NA,NA,sub99
d3-instructions,58,411508,0.0-58.0,FALSE,FALSE,TRUE,TRUE,"""event"",""trial"",""time""
""blur"",""0"",""0""
""focus"",""1"",""20564""
""fullscreenenter"",""5"",""38323""
","""event"",""trial"",""time""
""blur"",""0"",""0""
","""event"",""trial"",""time""
""focus"",""1"",""20564""
","""event"",""trial"",""time""
""fullscreenenter"",""5"",""38323""
","
",NA,NA,NA,NA,NA,NA,NA,NA,NA,NA,NA,NA,NA,NA,NA,NA,NA,NA,NA,NA,NA,NA,sub99
d3-instructions,59,417137,0.0-59.0,FALSE,FALSE,TRUE,TRUE,"""event"",""trial"",""time""
""blur"",""0"",""0""
""focus"",""1"",""20564""
""fullscreenenter"",""5"",""38323""
","""event"",""trial"",""time""
""blur"",""0"",""0""
","""event"",""trial"",""time""
""focus"",""1"",""20564""
","""event"",""trial"",""time""
""fullscreenenter"",""5"",""38323""
","
",NA,NA,NA,NA,NA,NA,NA,NA,NA,NA,NA,NA,NA,NA,NA,NA,NA,NA,NA,NA,NA,NA,sub99
d3-instructions,60,424071,0.0-60.0,FALSE,FALSE,TRUE,TRUE,"""event"",""trial"",""time""
""blur"",""0"",""0""
""focus"",""1"",""20564""
""fullscreenenter"",""5"",""38323""
","""event"",""trial"",""time""
""blur"",""0"",""0""
","""event"",""trial"",""time""
""focus"",""1"",""20564""
","""event"",""trial"",""time""
""fullscreenenter"",""5"",""38323""
","
",NA,NA,NA,NA,NA,NA,NA,NA,NA,NA,NA,NA,NA,NA,NA,NA,NA,NA,NA,NA,NA,NA,sub99
d3-animate-choice,61,428076,0.0-61.0-0.0,FALSE,FALSE,TRUE,TRUE,"""event"",""trial"",""time""
""blur"",""0"",""0""
""focus"",""1"",""20564""
""fullscreenenter"",""5"",""38323""
","""event"",""trial"",""time""
""blur"",""0"",""0""
","""event"",""trial"",""time""
""focus"",""1"",""20564""
","""event"",""trial"",""time""
""fullscreenenter"",""5"",""38323""
","
",2832.0300000486895,NA,48,NA,NA,3000,1,NA,NA,images/earth.jpg,images/tutrocket1,images/tutrocket2,null,images/tutrocket1,NA,1,practice,null,2,NA,NA,NA,sub99
d3-animate-choice,62,432084,0.0-61.0-1.0,FALSE,FALSE,TRUE,TRUE,"""event"",""trial"",""time""
""blur"",""0"",""0""
""focus"",""1"",""20564""
""fullscreenenter"",""5"",""38323""
","""event"",""trial"",""time""
""blur"",""0"",""0""
","""event"",""trial"",""time""
""focus"",""1"",""20564""
","""event"",""trial"",""time""
""fullscreenenter"",""5"",""38323""
","
",2674.209999968298,NA,48,NA,NA,3000,1,NA,NA,images/tutyellowplanet.jpg,images/tutalien4,images/tutalien3,images/tutrocket1,images/tutalien4,NA,2,practice,true,2,common,0,2020-06-23T15:51:16Z,sub99
two-step-fixation,63,433088,0.0-61.0-2.0,FALSE,FALSE,TRUE,TRUE,"""event"",""trial"",""time""
""blur"",""0"",""0""
""focus"",""1"",""20564""
""fullscreenenter"",""5"",""38323""
","""event"",""trial"",""time""
""blur"",""0"",""0""
","""event"",""trial"",""time""
""focus"",""1"",""20564""
","""event"",""trial"",""time""
""fullscreenenter"",""5"",""38323""
","
",NA,images/earth.jpg,NA,NA,NA,NA,NA,NA,NA,NA,NA,NA,NA,NA,NA,fixation,NA,NA,NA,NA,NA,NA,sub99
d3-animate-choice,64,436730,0.0-61.0-0.1,FALSE,FALSE,TRUE,TRUE,"""event"",""trial"",""time""
""blur"",""0"",""0""
""focus"",""1"",""20564""
""fullscreenenter"",""5"",""38323""
","""event"",""trial"",""time""
""blur"",""0"",""0""
","""event"",""trial"",""time""
""focus"",""1"",""20564""
","""event"",""trial"",""time""
""fullscreenenter"",""5"",""38323""
","
",1638.8150000129826,NA,49,NA,NA,3000,1,NA,NA,images/earth.jpg,images/tutrocket1,images/tutrocket2,null,images/tutrocket2,NA,1,practice,null,1,NA,NA,NA,sub99
d3-animate-choice,65,439361,0.0-61.0-1.1,FALSE,FALSE,TRUE,TRUE,"""event"",""trial"",""time""
""blur"",""0"",""0""
""focus"",""1"",""20564""
""fullscreenenter"",""5"",""38323""
","""event"",""trial"",""time""
""blur"",""0"",""0""
","""event"",""trial"",""time""
""focus"",""1"",""20564""
","""event"",""trial"",""time""
""fullscreenenter"",""5"",""38323""
","
",627.184999990277,NA,48,NA,NA,3000,1,NA,NA,images/tutyellowplanet.jpg,images/tutalien4,images/tutalien3,images/tutrocket2,images/tutalien4,images/t.png,2,practice,false,2,rare,1,2020-06-23T15:51:23Z,sub99
two-step-fixation,66,440365,0.0-61.0-2.1,FALSE,FALSE,TRUE,TRUE,"""event"",""trial"",""time""
""blur"",""0"",""0""
""focus"",""1"",""20564""
""fullscreenenter"",""5"",""38323""
","""event"",""trial"",""time""
""blur"",""0"",""0""
","""event"",""trial"",""time""
""focus"",""1"",""20564""
","""event"",""trial"",""time""
""fullscreenenter"",""5"",""38323""
","
",NA,images/earth.jpg,NA,NA,NA,NA,NA,NA,NA,NA,NA,NA,NA,NA,NA,fixation,NA,NA,NA,NA,NA,NA,sub99
d3-animate-choice,67,442889,0.0-61.0-0.2,FALSE,FALSE,TRUE,TRUE,"""event"",""trial"",""time""
""blur"",""0"",""0""
""focus"",""1"",""20564""
""fullscreenenter"",""5"",""38323""
","""event"",""trial"",""time""
""blur"",""0"",""0""
","""event"",""trial"",""time""
""focus"",""1"",""20564""
","""event"",""trial"",""time""
""fullscreenenter"",""5"",""38323""
","
",520.3249999904074,NA,48,NA,NA,3000,1,NA,NA,images/earth.jpg,images/tutrocket1,images/tutrocket2,null,images/tutrocket1,NA,1,practice,null,2,NA,NA,NA,sub99
d3-animate-choice,68,445497,0.0-61.0-1.2,FALSE,FALSE,TRUE,TRUE,"""event"",""trial"",""time""
""blur"",""0"",""0""
""focus"",""1"",""20564""
""fullscreenenter"",""5"",""38323""
","""event"",""trial"",""time""
""blur"",""0"",""0""
","""event"",""trial"",""time""
""focus"",""1"",""20564""
","""event"",""trial"",""time""
""fullscreenenter"",""5"",""38323""
","
",603.2649999833666,NA,49,NA,NA,3000,1,NA,NA,images/tutyellowplanet.jpg,images/tutalien4,images/tutalien3,images/tutrocket1,images/tutalien3,images/t.png,2,practice,true,1,common,1,2020-06-23T15:51:30Z,sub99
two-step-fixation,69,446499,0.0-61.0-2.2,FALSE,FALSE,TRUE,TRUE,"""event"",""trial"",""time""
""blur"",""0"",""0""
""focus"",""1"",""20564""
""fullscreenenter"",""5"",""38323""
","""event"",""trial"",""time""
""blur"",""0"",""0""
","""event"",""trial"",""time""
""focus"",""1"",""20564""
","""event"",""trial"",""time""
""fullscreenenter"",""5"",""38323""
","
",NA,images/earth.jpg,NA,NA,NA,NA,NA,NA,NA,NA,NA,NA,NA,NA,NA,fixation,NA,NA,NA,NA,NA,NA,sub99
d3-animate-choice,70,449000,0.0-61.0-0.3,FALSE,FALSE,TRUE,TRUE,"""event"",""trial"",""time""
""blur"",""0"",""0""
""focus"",""1"",""20564""
""fullscreenenter"",""5"",""38323""
","""event"",""trial"",""time""
""blur"",""0"",""0""
","""event"",""trial"",""time""
""focus"",""1"",""20564""
","""event"",""trial"",""time""
""fullscreenenter"",""5"",""38323""
","
",496.4449999970384,NA,48,NA,NA,3000,1,NA,NA,images/earth.jpg,images/tutrocket1,images/tutrocket2,null,images/tutrocket1,NA,1,practice,null,2,NA,NA,NA,sub99
d3-animate-choice,71,451460,0.0-61.0-1.3,FALSE,FALSE,TRUE,TRUE,"""event"",""trial"",""time""
""blur"",""0"",""0""
""focus"",""1"",""20564""
""fullscreenenter"",""5"",""38323""
","""event"",""trial"",""time""
""blur"",""0"",""0""
","""event"",""trial"",""time""
""focus"",""1"",""20564""
","""event"",""trial"",""time""
""fullscreenenter"",""5"",""38323""
","
",456.3550000311807,NA,49,NA,NA,3000,1,NA,NA,images/tutyellowplanet.jpg,images/tutalien4,images/tutalien3,images/tutrocket1,images/tutalien3,images/t.png,2,practice,true,1,common,1,2020-06-23T15:51:36Z,sub99
two-step-fixation,72,452463,0.0-61.0-2.3,FALSE,FALSE,TRUE,TRUE,"""event"",""trial"",""time""
""blur"",""0"",""0""
""focus"",""1"",""20564""
""fullscreenenter"",""5"",""38323""
","""event"",""trial"",""time""
""blur"",""0"",""0""
","""event"",""trial"",""time""
""focus"",""1"",""20564""
","""event"",""trial"",""time""
""fullscreenenter"",""5"",""38323""
","
",NA,images/earth.jpg,NA,NA,NA,NA,NA,NA,NA,NA,NA,NA,NA,NA,NA,fixation,NA,NA,NA,NA,NA,NA,sub99
d3-animate-choice,73,454962,0.0-61.0-0.4,FALSE,FALSE,TRUE,TRUE,"""event"",""trial"",""time""
""blur"",""0"",""0""
""focus"",""1"",""20564""
""fullscreenenter"",""5"",""38323""
","""event"",""trial"",""time""
""blur"",""0"",""0""
","""event"",""trial"",""time""
""focus"",""1"",""20564""
","""event"",""trial"",""time""
""fullscreenenter"",""5"",""38323""
","
",495.27000001398847,NA,49,NA,NA,3000,1,NA,NA,images/earth.jpg,images/tutrocket1,images/tutrocket2,null,images/tutrocket2,NA,1,practice,null,1,NA,NA,NA,sub99
d3-animate-choice,74,457559,0.0-61.0-1.4,FALSE,FALSE,TRUE,TRUE,"""event"",""trial"",""time""
""blur"",""0"",""0""
""focus"",""1"",""20564""
""fullscreenenter"",""5"",""38323""
","""event"",""trial"",""time""
""blur"",""0"",""0""
","""event"",""trial"",""time""
""focus"",""1"",""20564""
","""event"",""trial"",""time""
""fullscreenenter"",""5"",""38323""
","
",594.0400000545196,NA,48,NA,NA,3000,1,NA,NA,images/tutgreenplanet.jpg,images/tutalien2,images/tutalien1,images/tutrocket2,images/tutalien2,images/t.png,2,practice,true,2,common,1,2020-06-23T15:51:42Z,sub99
two-step-fixation,75,458563,0.0-61.0-2.4,FALSE,FALSE,TRUE,TRUE,"""event"",""trial"",""time""
""blur"",""0"",""0""
""focus"",""1"",""20564""
""fullscreenenter"",""5"",""38323""
","""event"",""trial"",""time""
""blur"",""0"",""0""
","""event"",""trial"",""time""
""focus"",""1"",""20564""
","""event"",""trial"",""time""
""fullscreenenter"",""5"",""38323""
","
",NA,images/earth.jpg,NA,NA,NA,NA,NA,NA,NA,NA,NA,NA,NA,NA,NA,fixation,NA,NA,NA,NA,NA,NA,sub99
d3-animate-choice,76,461047,0.0-61.0-0.5,FALSE,FALSE,TRUE,TRUE,"""event"",""trial"",""time""
""blur"",""0"",""0""
""focus"",""1"",""20564""
""fullscreenenter"",""5"",""38323""
","""event"",""trial"",""time""
""blur"",""0"",""0""
","""event"",""trial"",""time""
""focus"",""1"",""20564""
","""event"",""trial"",""time""
""fullscreenenter"",""5"",""38323""
","
",480.3599999868311,NA,49,NA,NA,3000,1,NA,NA,images/earth.jpg,images/tutrocket1,images/tutrocket2,null,images/tutrocket2,NA,1,practice,null,1,NA,NA,NA,sub99
d3-animate-choice,77,463782,0.0-61.0-1.5,FALSE,FALSE,TRUE,TRUE,"""event"",""trial"",""time""
""blur"",""0"",""0""
""focus"",""1"",""20564""
""fullscreenenter"",""5"",""38323""
","""event"",""trial"",""time""
""blur"",""0"",""0""
","""event"",""trial"",""time""
""focus"",""1"",""20564""
","""event"",""trial"",""time""
""fullscreenenter"",""5"",""38323""
","
",730.5699999560602,NA,48,NA,NA,3000,1,NA,NA,images/tutgreenplanet.jpg,images/tutalien2,images/tutalien1,images/tutrocket2,images/tutalien2,images/nothing.png,2,practice,true,2,common,0,2020-06-23T15:51:48Z,sub99
two-step-fixation,78,464786,0.0-61.0-2.5,FALSE,FALSE,TRUE,TRUE,"""event"",""trial"",""time""
""blur"",""0"",""0""
""focus"",""1"",""20564""
""fullscreenenter"",""5"",""38323""
","""event"",""trial"",""time""
""blur"",""0"",""0""
","""event"",""trial"",""time""
""focus"",""1"",""20564""
","""event"",""trial"",""time""
""fullscreenenter"",""5"",""38323""
","
",NA,images/earth.jpg,NA,NA,NA,NA,NA,NA,NA,NA,NA,NA,NA,NA,NA,fixation,NA,NA,NA,NA,NA,NA,sub99
d3-animate-choice,79,467102,0.0-61.0-0.6,FALSE,FALSE,TRUE,TRUE,"""event"",""trial"",""time""
""blur"",""0"",""0""
""focus"",""1"",""20564""
""fullscreenenter"",""5"",""38323""
","""event"",""trial"",""time""
""blur"",""0"",""0""
","""event"",""trial"",""time""
""focus"",""1"",""20564""
","""event"",""trial"",""time""
""fullscreenenter"",""5"",""38323""
","
",311.72500003594905,NA,48,NA,NA,3000,1,NA,NA,images/earth.jpg,images/tutrocket1,images/tutrocket2,null,images/tutrocket1,NA,1,practice,null,2,NA,NA,NA,sub99
d3-animate-choice,80,469582,0.0-61.0-1.6,FALSE,FALSE,TRUE,TRUE,"""event"",""trial"",""time""
""blur"",""0"",""0""
""focus"",""1"",""20564""
""fullscreenenter"",""5"",""38323""
","""event"",""trial"",""time""
""blur"",""0"",""0""
","""event"",""trial"",""time""
""focus"",""1"",""20564""
","""event"",""trial"",""time""
""fullscreenenter"",""5"",""38323""
","
",476.9199999864213,NA,48,NA,NA,3000,1,NA,NA,images/tutyellowplanet.jpg,images/tutalien4,images/tutalien3,images/tutrocket1,images/tutalien4,images/t.png,2,practice,true,2,common,1,2020-06-23T15:51:54Z,sub99
two-step-fixation,81,470587,0.0-61.0-2.6,FALSE,FALSE,TRUE,TRUE,"""event"",""trial"",""time""
""blur"",""0"",""0""
""focus"",""1"",""20564""
""fullscreenenter"",""5"",""38323""
","""event"",""trial"",""time""
""blur"",""0"",""0""
","""event"",""trial"",""time""
""focus"",""1"",""20564""
","""event"",""trial"",""time""
""fullscreenenter"",""5"",""38323""
","
",NA,images/earth.jpg,NA,NA,NA,NA,NA,NA,NA,NA,NA,NA,NA,NA,NA,fixation,NA,NA,NA,NA,NA,NA,sub99
d3-animate-choice,82,472978,0.0-61.0-0.7,FALSE,FALSE,TRUE,TRUE,"""event"",""trial"",""time""
""blur"",""0"",""0""
""focus"",""1"",""20564""
""fullscreenenter"",""5"",""38323""
","""event"",""trial"",""time""
""blur"",""0"",""0""
","""event"",""trial"",""time""
""focus"",""1"",""20564""
","""event"",""trial"",""time""
""fullscreenenter"",""5"",""38323""
","
",388.02999997278675,NA,48,NA,NA,3000,1,NA,NA,images/earth.jpg,images/tutrocket1,images/tutrocket2,null,images/tutrocket1,NA,1,practice,null,2,NA,NA,NA,sub99
d3-animate-choice,83,475355,0.0-61.0-1.7,FALSE,FALSE,TRUE,TRUE,"""event"",""trial"",""time""
""blur"",""0"",""0""
""focus"",""1"",""20564""
""fullscreenenter"",""5"",""38323""
","""event"",""trial"",""time""
""blur"",""0"",""0""
","""event"",""trial"",""time""
""focus"",""1"",""20564""
","""event"",""trial"",""time""
""fullscreenenter"",""5"",""38323""
","
",372.1849999856204,NA,49,NA,NA,3000,1,NA,NA,images/tutgreenplanet.jpg,images/tutalien2,images/tutalien1,images/tutrocket1,images/tutalien1,images/nothing.png,2,practice,false,1,rare,0,2020-06-23T15:51:59Z,sub99
two-step-fixation,84,476358,0.0-61.0-2.7,FALSE,FALSE,TRUE,TRUE,"""event"",""trial"",""time""
""blur"",""0"",""0""
""focus"",""1"",""20564""
""fullscreenenter"",""5"",""38323""
","""event"",""trial"",""time""
""blur"",""0"",""0""
","""event"",""trial"",""time""
""focus"",""1"",""20564""
","""event"",""trial"",""time""
""fullscreenenter"",""5"",""38323""
","
",NA,images/earth.jpg,NA,NA,NA,NA,NA,NA,NA,NA,NA,NA,NA,NA,NA,fixation,NA,NA,NA,NA,NA,NA,sub99
d3-animate-choice,85,478680,0.0-61.0-0.8,FALSE,FALSE,TRUE,TRUE,"""event"",""trial"",""time""
""blur"",""0"",""0""
""focus"",""1"",""20564""
""fullscreenenter"",""5"",""38323""
","""event"",""trial"",""time""
""blur"",""0"",""0""
","""event"",""trial"",""time""
""focus"",""1"",""20564""
","""event"",""trial"",""time""
""fullscreenenter"",""5"",""38323""
","
",318.9499999862164,NA,48,NA,NA,3000,1,NA,NA,images/earth.jpg,images/tutrocket1,images/tutrocket2,null,images/tutrocket1,NA,1,practice,null,2,NA,NA,NA,sub99
d3-animate-choice,86,481286,0.0-61.0-1.8,FALSE,FALSE,TRUE,TRUE,"""event"",""trial"",""time""
""blur"",""0"",""0""
""focus"",""1"",""20564""
""fullscreenenter"",""5"",""38323""
","""event"",""trial"",""time""
""blur"",""0"",""0""
","""event"",""trial"",""time""
""focus"",""1"",""20564""
","""event"",""trial"",""time""
""fullscreenenter"",""5"",""38323""
","
",602.0700000226498,NA,48,NA,NA,3000,1,NA,NA,images/tutyellowplanet.jpg,images/tutalien4,images/tutalien3,images/tutrocket1,images/tutalien4,images/t.png,2,practice,true,2,common,1,2020-06-23T15:52:05Z,sub99
two-step-fixation,87,482290,0.0-61.0-2.8,FALSE,FALSE,TRUE,TRUE,"""event"",""trial"",""time""
""blur"",""0"",""0""
""focus"",""1"",""20564""
""fullscreenenter"",""5"",""38323""
","""event"",""trial"",""time""
""blur"",""0"",""0""
","""event"",""trial"",""time""
""focus"",""1"",""20564""
","""event"",""trial"",""time""
""fullscreenenter"",""5"",""38323""
","
",NA,images/earth.jpg,NA,NA,NA,NA,NA,NA,NA,NA,NA,NA,NA,NA,NA,fixation,NA,NA,NA,NA,NA,NA,sub99
d3-animate-choice,88,484722,0.0-61.0-0.9,FALSE,FALSE,TRUE,TRUE,"""event"",""trial"",""time""
""blur"",""0"",""0""
""focus"",""1"",""20564""
""fullscreenenter"",""5"",""38323""
","""event"",""trial"",""time""
""blur"",""0"",""0""
","""event"",""trial"",""time""
""focus"",""1"",""20564""
","""event"",""trial"",""time""
""fullscreenenter"",""5"",""38323""
","
",429.62000000989065,NA,48,NA,NA,3000,1,NA,NA,images/earth.jpg,images/tutrocket1,images/tutrocket2,null,images/tutrocket1,NA,1,practice,null,2,NA,NA,NA,sub99
d3-animate-choice,89,487385,0.0-61.0-1.9,FALSE,FALSE,TRUE,TRUE,"""event"",""trial"",""time""
""blur"",""0"",""0""
""focus"",""1"",""20564""
""fullscreenenter"",""5"",""38323""
","""event"",""trial"",""time""
""blur"",""0"",""0""
","""event"",""trial"",""time""
""focus"",""1"",""20564""
","""event"",""trial"",""time""
""fullscreenenter"",""5"",""38323""
","
",659.5950000337325,NA,48,NA,NA,3000,1,NA,NA,images/tutgreenplanet.jpg,images/tutalien2,images/tutalien1,images/tutrocket1,images/tutalien2,images/nothing.png,2,practice,false,2,rare,0,2020-06-23T15:52:11Z,sub99
two-step-fixation,90,488387,0.0-61.0-2.9,FALSE,FALSE,TRUE,TRUE,"""event"",""trial"",""time""
""blur"",""0"",""0""
""focus"",""1"",""20564""
""fullscreenenter"",""5"",""38323""
","""event"",""trial"",""time""
""blur"",""0"",""0""
","""event"",""trial"",""time""
""focus"",""1"",""20564""
","""event"",""trial"",""time""
""fullscreenenter"",""5"",""38323""
","
",NA,images/earth.jpg,NA,NA,NA,NA,NA,NA,NA,NA,NA,NA,NA,NA,NA,fixation,NA,NA,NA,NA,NA,NA,sub99
d3-animate-choice,91,490783,0.0-61.0-0.10,FALSE,FALSE,TRUE,TRUE,"""event"",""trial"",""time""
""blur"",""0"",""0""
""focus"",""1"",""20564""
""fullscreenenter"",""5"",""38323""
","""event"",""trial"",""time""
""blur"",""0"",""0""
","""event"",""trial"",""time""
""focus"",""1"",""20564""
","""event"",""trial"",""time""
""fullscreenenter"",""5"",""38323""
","
",392.2850000089966,NA,49,NA,NA,3000,1,NA,NA,images/earth.jpg,images/tutrocket1,images/tutrocket2,null,images/tutrocket2,NA,1,practice,null,1,NA,NA,NA,sub99
d3-animate-choice,92,493458,0.0-61.0-1.10,FALSE,FALSE,TRUE,TRUE,"""event"",""trial"",""time""
""blur"",""0"",""0""
""focus"",""1"",""20564""
""fullscreenenter"",""5"",""38323""
","""event"",""trial"",""time""
""blur"",""0"",""0""
","""event"",""trial"",""time""
""focus"",""1"",""20564""
","""event"",""trial"",""time""
""fullscreenenter"",""5"",""38323""
","
",670.4650000319816,NA,49,NA,NA,3000,1,NA,NA,images/tutgreenplanet.jpg,images/tutalien2,images/tutalien1,images/tutrocket2,images/tutalien1,images/nothing.png,2,practice,true,1,common,0,2020-06-23T15:52:18Z,sub99
two-step-fixation,93,494461,0.0-61.0-2.10,FALSE,FALSE,TRUE,TRUE,"""event"",""trial"",""time""
""blur"",""0"",""0""
""focus"",""1"",""20564""
""fullscreenenter"",""5"",""38323""
","""event"",""trial"",""time""
""blur"",""0"",""0""
","""event"",""trial"",""time""
""focus"",""1"",""20564""
","""event"",""trial"",""time""
""fullscreenenter"",""5"",""38323""
","
",NA,images/earth.jpg,NA,NA,NA,NA,NA,NA,NA,NA,NA,NA,NA,NA,NA,fixation,NA,NA,NA,NA,NA,NA,sub99
d3-animate-choice,94,496756,0.0-61.0-0.11,FALSE,FALSE,TRUE,TRUE,"""event"",""trial"",""time""
""blur"",""0"",""0""
""focus"",""1"",""20564""
""fullscreenenter"",""5"",""38323""
","""event"",""trial"",""time""
""blur"",""0"",""0""
","""event"",""trial"",""time""
""focus"",""1"",""20564""
","""event"",""trial"",""time""
""fullscreenenter"",""5"",""38323""
","
",290.2000000467524,NA,48,NA,NA,3000,1,NA,NA,images/earth.jpg,images/tutrocket1,images/tutrocket2,null,images/tutrocket1,NA,1,practice,null,2,NA,NA,NA,sub99
d3-animate-choice,95,499607,0.0-61.0-1.11,FALSE,FALSE,TRUE,TRUE,"""event"",""trial"",""time""
""blur"",""0"",""0""
""focus"",""1"",""20564""
""fullscreenenter"",""5"",""38323""
","""event"",""trial"",""time""
""blur"",""0"",""0""
","""event"",""trial"",""time""
""focus"",""1"",""20564""
","""event"",""trial"",""time""
""fullscreenenter"",""5"",""38323""
","
",847.2549999714829,NA,48,NA,NA,3000,1,NA,NA,images/tutgreenplanet.jpg,images/tutalien2,images/tutalien1,images/tutrocket1,images/tutalien2,images/nothing.png,2,practice,false,2,rare,0,2020-06-23T15:52:24Z,sub99
two-step-fixation,96,500610,0.0-61.0-2.11,FALSE,FALSE,TRUE,TRUE,"""event"",""trial"",""time""
""blur"",""0"",""0""
""focus"",""1"",""20564""
""fullscreenenter"",""5"",""38323""
","""event"",""trial"",""time""
""blur"",""0"",""0""
","""event"",""trial"",""time""
""focus"",""1"",""20564""
","""event"",""trial"",""time""
""fullscreenenter"",""5"",""38323""
","
",NA,images/earth.jpg,NA,NA,NA,NA,NA,NA,NA,NA,NA,NA,NA,NA,NA,fixation,NA,NA,NA,NA,NA,NA,sub99
d3-animate-choice,97,502946,0.0-61.0-0.12,FALSE,FALSE,TRUE,TRUE,"""event"",""trial"",""time""
""blur"",""0"",""0""
""focus"",""1"",""20564""
""fullscreenenter"",""5"",""38323""
","""event"",""trial"",""time""
""blur"",""0"",""0""
","""event"",""trial"",""time""
""focus"",""1"",""20564""
","""event"",""trial"",""time""
""fullscreenenter"",""5"",""38323""
","
",329.9750000005588,NA,48,NA,NA,3000,1,NA,NA,images/earth.jpg,images/tutrocket1,images/tutrocket2,null,images/tutrocket1,NA,1,practice,null,2,NA,NA,NA,sub99
d3-animate-choice,98,505640,0.0-61.0-1.12,FALSE,FALSE,TRUE,TRUE,"""event"",""trial"",""time""
""blur"",""0"",""0""
""focus"",""1"",""20564""
""fullscreenenter"",""5"",""38323""
","""event"",""trial"",""time""
""blur"",""0"",""0""
","""event"",""trial"",""time""
""focus"",""1"",""20564""
","""event"",""trial"",""time""
""fullscreenenter"",""5"",""38323""
","
",690.1899999938905,NA,49,NA,NA,3000,1,NA,NA,images/tutgreenplanet.jpg,images/tutalien2,images/tutalien1,images/tutrocket1,images/tutalien1,images/nothing.png,2,practice,false,1,rare,0,2020-06-23T15:52:30Z,sub99
two-step-fixation,99,506643,0.0-61.0-2.12,FALSE,FALSE,TRUE,TRUE,"""event"",""trial"",""time""
""blur"",""0"",""0""
""focus"",""1"",""20564""
""fullscreenenter"",""5"",""38323""
","""event"",""trial"",""time""
""blur"",""0"",""0""
","""event"",""trial"",""time""
""focus"",""1"",""20564""
","""event"",""trial"",""time""
""fullscreenenter"",""5"",""38323""
","
",NA,images/earth.jpg,NA,NA,NA,NA,NA,NA,NA,NA,NA,NA,NA,NA,NA,fixation,NA,NA,NA,NA,NA,NA,sub99
d3-animate-choice,100,508934,0.0-61.0-0.13,FALSE,FALSE,TRUE,TRUE,"""event"",""trial"",""time""
""blur"",""0"",""0""
""focus"",""1"",""20564""
""fullscreenenter"",""5"",""38323""
","""event"",""trial"",""time""
""blur"",""0"",""0""
","""event"",""trial"",""time""
""focus"",""1"",""20564""
","""event"",""trial"",""time""
""fullscreenenter"",""5"",""38323""
","
",288.4399999747984,NA,49,NA,NA,3000,1,NA,NA,images/earth.jpg,images/tutrocket1,images/tutrocket2,null,images/tutrocket2,NA,1,practice,null,1,NA,NA,NA,sub99
d3-animate-choice,101,511525,0.0-61.0-1.13,FALSE,FALSE,TRUE,TRUE,"""event"",""trial"",""time""
""blur"",""0"",""0""
""focus"",""1"",""20564""
""fullscreenenter"",""5"",""38323""
","""event"",""trial"",""time""
""blur"",""0"",""0""
","""event"",""trial"",""time""
""focus"",""1"",""20564""
","""event"",""trial"",""time""
""fullscreenenter"",""5"",""38323""
","
",587.1549999574199,NA,48,NA,NA,3000,1,NA,NA,images/tutgreenplanet.jpg,images/tutalien2,images/tutalien1,images/tutrocket2,images/tutalien2,images/nothing.png,2,practice,true,2,common,0,2020-06-23T15:52:36Z,sub99
two-step-fixation,102,512528,0.0-61.0-2.13,FALSE,FALSE,TRUE,TRUE,"""event"",""trial"",""time""
""blur"",""0"",""0""
""focus"",""1"",""20564""
""fullscreenenter"",""5"",""38323""
","""event"",""trial"",""time""
""blur"",""0"",""0""
","""event"",""trial"",""time""
""focus"",""1"",""20564""
","""event"",""trial"",""time""
""fullscreenenter"",""5"",""38323""
","
",NA,images/earth.jpg,NA,NA,NA,NA,NA,NA,NA,NA,NA,NA,NA,NA,NA,fixation,NA,NA,NA,NA,NA,NA,sub99
d3-animate-choice,103,514828,0.0-61.0-0.14,FALSE,FALSE,TRUE,TRUE,"""event"",""trial"",""time""
""blur"",""0"",""0""
""focus"",""1"",""20564""
""fullscreenenter"",""5"",""38323""
","""event"",""trial"",""time""
""blur"",""0"",""0""
","""event"",""trial"",""time""
""focus"",""1"",""20564""
","""event"",""trial"",""time""
""fullscreenenter"",""5"",""38323""
","
",294.289999990724,NA,48,NA,NA,3000,1,NA,NA,images/earth.jpg,images/tutrocket1,images/tutrocket2,null,images/tutrocket1,NA,1,practice,null,2,NA,NA,NA,sub99
d3-animate-choice,104,517510,0.0-61.0-1.14,FALSE,FALSE,TRUE,TRUE,"""event"",""trial"",""time""
""blur"",""0"",""0""
""focus"",""1"",""20564""
""fullscreenenter"",""5"",""38323""
","""event"",""trial"",""time""
""blur"",""0"",""0""
","""event"",""trial"",""time""
""focus"",""1"",""20564""
","""event"",""trial"",""time""
""fullscreenenter"",""5"",""38323""
","
",676.5250000171363,NA,48,NA,NA,3000,1,NA,NA,images/tutgreenplanet.jpg,images/tutalien2,images/tutalien1,images/tutrocket1,images/tutalien2,images/t.png,2,practice,false,2,rare,1,2020-06-23T15:52:42Z,sub99
two-step-fixation,105,518513,0.0-61.0-2.14,FALSE,FALSE,TRUE,TRUE,"""event"",""trial"",""time""
""blur"",""0"",""0""
""focus"",""1"",""20564""
""fullscreenenter"",""5"",""38323""
","""event"",""trial"",""time""
""blur"",""0"",""0""
","""event"",""trial"",""time""
""focus"",""1"",""20564""
","""event"",""trial"",""time""
""fullscreenenter"",""5"",""38323""
","
",NA,images/earth.jpg,NA,NA,NA,NA,NA,NA,NA,NA,NA,NA,NA,NA,NA,fixation,NA,NA,NA,NA,NA,NA,sub99
d3-animate-choice,106,520921,0.0-61.0-0.15,FALSE,FALSE,TRUE,TRUE,"""event"",""trial"",""time""
""blur"",""0"",""0""
""focus"",""1"",""20564""
""fullscreenenter"",""5"",""38323""
","""event"",""trial"",""time""
""blur"",""0"",""0""
","""event"",""trial"",""time""
""focus"",""1"",""20564""
","""event"",""trial"",""time""
""fullscreenenter"",""5"",""38323""
","
",403.31500000320375,NA,48,NA,NA,3000,1,NA,NA,images/earth.jpg,images/tutrocket1,images/tutrocket2,null,images/tutrocket1,NA,1,practice,null,2,NA,NA,NA,sub99
d3-animate-choice,107,523623,0.0-61.0-1.15,FALSE,FALSE,TRUE,TRUE,"""event"",""trial"",""time""
""blur"",""0"",""0""
""focus"",""1"",""20564""
""fullscreenenter"",""5"",""38323""
","""event"",""trial"",""time""
""blur"",""0"",""0""
","""event"",""trial"",""time""
""focus"",""1"",""20564""
","""event"",""trial"",""time""
""fullscreenenter"",""5"",""38323""
","
",698.1099999975413,NA,49,NA,NA,3000,1,NA,NA,images/tutyellowplanet.jpg,images/tutalien4,images/tutalien3,images/tutrocket1,images/tutalien3,images/nothing.png,2,practice,true,1,common,0,2020-06-23T15:52:48Z,sub99
two-step-fixation,108,524626,0.0-61.0-2.15,FALSE,FALSE,TRUE,TRUE,"""event"",""trial"",""time""
""blur"",""0"",""0""
""focus"",""1"",""20564""
""fullscreenenter"",""5"",""38323""
","""event"",""trial"",""time""
""blur"",""0"",""0""
","""event"",""trial"",""time""
""focus"",""1"",""20564""
","""event"",""trial"",""time""
""fullscreenenter"",""5"",""38323""
","
",NA,images/earth.jpg,NA,NA,NA,NA,NA,NA,NA,NA,NA,NA,NA,NA,NA,fixation,NA,NA,NA,NA,NA,NA,sub99
d3-animate-choice,109,526931,0.0-61.0-0.16,FALSE,FALSE,TRUE,TRUE,"""event"",""trial"",""time""
""blur"",""0"",""0""
""focus"",""1"",""20564""
""fullscreenenter"",""5"",""38323""
","""event"",""trial"",""time""
""blur"",""0"",""0""
","""event"",""trial"",""time""
""focus"",""1"",""20564""
","""event"",""trial"",""time""
""fullscreenenter"",""5"",""38323""
","
",301.5550000127405,NA,48,NA,NA,3000,1,NA,NA,images/earth.jpg,images/tutrocket1,images/tutrocket2,null,images/tutrocket1,NA,1,practice,null,2,NA,NA,NA,sub99
d3-animate-choice,110,529295,0.0-61.0-1.16,FALSE,FALSE,TRUE,TRUE,"""event"",""trial"",""time""
""blur"",""0"",""0""
""focus"",""1"",""20564""
""fullscreenenter"",""5"",""38323""
","""event"",""trial"",""time""
""blur"",""0"",""0""
","""event"",""trial"",""time""
""focus"",""1"",""20564""
","""event"",""trial"",""time""
""fullscreenenter"",""5"",""38323""
","
",361.159999971278,NA,48,NA,NA,3000,1,NA,NA,images/tutyellowplanet.jpg,images/tutalien4,images/tutalien3,images/tutrocket1,images/tutalien4,images/t.png,2,practice,true,2,common,1,2020-06-23T15:52:53Z,sub99
two-step-fixation,111,530299,0.0-61.0-2.16,FALSE,FALSE,TRUE,TRUE,"""event"",""trial"",""time""
""blur"",""0"",""0""
""focus"",""1"",""20564""
""fullscreenenter"",""5"",""38323""
","""event"",""trial"",""time""
""blur"",""0"",""0""
","""event"",""trial"",""time""
""focus"",""1"",""20564""
","""event"",""trial"",""time""
""fullscreenenter"",""5"",""38323""
","
",NA,images/earth.jpg,NA,NA,NA,NA,NA,NA,NA,NA,NA,NA,NA,NA,NA,fixation,NA,NA,NA,NA,NA,NA,sub99
d3-animate-choice,112,532625,0.0-61.0-0.17,FALSE,FALSE,TRUE,TRUE,"""event"",""trial"",""time""
""blur"",""0"",""0""
""focus"",""1"",""20564""
""fullscreenenter"",""5"",""38323""
","""event"",""trial"",""time""
""blur"",""0"",""0""
","""event"",""trial"",""time""
""focus"",""1"",""20564""
","""event"",""trial"",""time""
""fullscreenenter"",""5"",""38323""
","
",322.8950000484474,NA,48,NA,NA,3000,1,NA,NA,images/earth.jpg,images/tutrocket1,images/tutrocket2,null,images/tutrocket1,NA,1,practice,null,2,NA,NA,NA,sub99
d3-animate-choice,113,535128,0.0-61.0-1.17,FALSE,FALSE,TRUE,TRUE,"""event"",""trial"",""time""
""blur"",""0"",""0""
""focus"",""1"",""20564""
""fullscreenenter"",""5"",""38323""
","""event"",""trial"",""time""
""blur"",""0"",""0""
","""event"",""trial"",""time""
""focus"",""1"",""20564""
","""event"",""trial"",""time""
""fullscreenenter"",""5"",""38323""
","
",498.91000002389774,NA,48,NA,NA,3000,1,NA,NA,images/tutyellowplanet.jpg,images/tutalien4,images/tutalien3,images/tutrocket1,images/tutalien4,images/nothing.png,2,practice,true,2,common,0,2020-06-23T15:52:59Z,sub99
two-step-fixation,114,536130,0.0-61.0-2.17,FALSE,FALSE,TRUE,TRUE,"""event"",""trial"",""time""
""blur"",""0"",""0""
""focus"",""1"",""20564""
""fullscreenenter"",""5"",""38323""
","""event"",""trial"",""time""
""blur"",""0"",""0""
","""event"",""trial"",""time""
""focus"",""1"",""20564""
","""event"",""trial"",""time""
""fullscreenenter"",""5"",""38323""
","
",NA,images/earth.jpg,NA,NA,NA,NA,NA,NA,NA,NA,NA,NA,NA,NA,NA,fixation,NA,NA,NA,NA,NA,NA,sub99
d3-animate-choice,115,538547,0.0-61.0-0.18,FALSE,FALSE,TRUE,TRUE,"""event"",""trial"",""time""
""blur"",""0"",""0""
""focus"",""1"",""20564""
""fullscreenenter"",""5"",""38323""
","""event"",""trial"",""time""
""blur"",""0"",""0""
","""event"",""trial"",""time""
""focus"",""1"",""20564""
","""event"",""trial"",""time""
""fullscreenenter"",""5"",""38323""
","
",413.6399999842979,NA,49,NA,NA,3000,1,NA,NA,images/earth.jpg,images/tutrocket1,images/tutrocket2,null,images/tutrocket2,NA,1,practice,null,1,NA,NA,NA,sub99
d3-animate-choice,116,541245,0.0-61.0-1.18,FALSE,FALSE,TRUE,TRUE,"""event"",""trial"",""time""
""blur"",""0"",""0""
""focus"",""1"",""20564""
""fullscreenenter"",""5"",""38323""
","""event"",""trial"",""time""
""blur"",""0"",""0""
","""event"",""trial"",""time""
""focus"",""1"",""20564""
","""event"",""trial"",""time""
""fullscreenenter"",""5"",""38323""
","
",693.9699999638833,NA,48,NA,NA,3000,1,NA,NA,images/tutyellowplanet.jpg,images/tutalien4,images/tutalien3,images/tutrocket2,images/tutalien4,images/nothing.png,2,practice,false,2,rare,0,2020-06-23T15:53:05Z,sub99
two-step-fixation,117,542248,0.0-61.0-2.18,FALSE,FALSE,TRUE,TRUE,"""event"",""trial"",""time""
""blur"",""0"",""0""
""focus"",""1"",""20564""
""fullscreenenter"",""5"",""38323""
","""event"",""trial"",""time""
""blur"",""0"",""0""
","""event"",""trial"",""time""
""focus"",""1"",""20564""
","""event"",""trial"",""time""
""fullscreenenter"",""5"",""38323""
","
",NA,images/earth.jpg,NA,NA,NA,NA,NA,NA,NA,NA,NA,NA,NA,NA,NA,fixation,NA,NA,NA,NA,NA,NA,sub99
d3-animate-choice,118,544839,0.0-61.0-0.19,FALSE,FALSE,TRUE,TRUE,"""event"",""trial"",""time""
""blur"",""0"",""0""
""focus"",""1"",""20564""
""fullscreenenter"",""5"",""38323""
","""event"",""trial"",""time""
""blur"",""0"",""0""
","""event"",""trial"",""time""
""focus"",""1"",""20564""
","""event"",""trial"",""time""
""fullscreenenter"",""5"",""38323""
","
",585.335000010673,NA,48,NA,NA,3000,1,NA,NA,images/earth.jpg,images/tutrocket1,images/tutrocket2,null,images/tutrocket1,NA,1,practice,null,2,NA,NA,NA,sub99
d3-animate-choice,119,547272,0.0-61.0-1.19,FALSE,FALSE,TRUE,TRUE,"""event"",""trial"",""time""
""blur"",""0"",""0""
""focus"",""1"",""20564""
""fullscreenenter"",""5"",""38323""
","""event"",""trial"",""time""
""blur"",""0"",""0""
","""event"",""trial"",""time""
""focus"",""1"",""20564""
","""event"",""trial"",""time""
""fullscreenenter"",""5"",""38323""
","
",429.984999995213,NA,49,NA,NA,3000,1,NA,NA,images/tutyellowplanet.jpg,images/tutalien4,images/tutalien3,images/tutrocket1,images/tutalien3,images/nothing.png,2,practice,true,1,common,0,2020-06-23T15:53:11Z,sub99
two-step-fixation,120,548276,0.0-61.0-2.19,FALSE,FALSE,TRUE,TRUE,"""event"",""trial"",""time""
""blur"",""0"",""0""
""focus"",""1"",""20564""
""fullscreenenter"",""5"",""38323""
","""event"",""trial"",""time""
""blur"",""0"",""0""
","""event"",""trial"",""time""
""focus"",""1"",""20564""
","""event"",""trial"",""time""
""fullscreenenter"",""5"",""38323""
","
",NA,images/earth.jpg,NA,NA,NA,NA,NA,NA,NA,NA,NA,NA,NA,NA,NA,fixation,NA,NA,NA,NA,NA,NA,sub99
d3-instructions,121,555499,0.0-62.0,FALSE,FALSE,TRUE,TRUE,"""event"",""trial"",""time""
""blur"",""0"",""0""
""focus"",""1"",""20564""
""fullscreenenter"",""5"",""38323""
","""event"",""trial"",""time""
""blur"",""0"",""0""
","""event"",""trial"",""time""
""focus"",""1"",""20564""
","""event"",""trial"",""time""
""fullscreenenter"",""5"",""38323""
","
",NA,NA,NA,NA,NA,NA,NA,NA,NA,NA,NA,NA,NA,NA,NA,NA,NA,NA,NA,NA,NA,NA,sub99
audio-keyboard-response,122,560447,0.0-63.0,FALSE,FALSE,TRUE,TRUE,"""event"",""trial"",""time""
""blur"",""0"",""0""
""focus"",""1"",""20564""
""fullscreenenter"",""5"",""38323""
","""event"",""trial"",""time""
""blur"",""0"",""0""
","""event"",""trial"",""time""
""focus"",""1"",""20564""
","""event"",""trial"",""time""
""fullscreenenter"",""5"",""38323""
","
",4952,audio/instructions/treasure_feedback.wav,32,NA,NA,NA,NA,NA,NA,NA,NA,NA,NA,NA,NA,NA,NA,NA,NA,NA,NA,NA,sub99
d3-instructions,123,584415,0.0-64.0,FALSE,FALSE,TRUE,TRUE,"""event"",""trial"",""time""
""blur"",""0"",""0""
""focus"",""1"",""20564""
""fullscreenenter"",""5"",""38323""
","""event"",""trial"",""time""
""blur"",""0"",""0""
","""event"",""trial"",""time""
""focus"",""1"",""20564""
","""event"",""trial"",""time""
""fullscreenenter"",""5"",""38323""
","
",NA,NA,NA,NA,NA,NA,NA,NA,NA,NA,NA,NA,NA,NA,NA,NA,NA,NA,NA,NA,NA,NA,sub99
d3-instructions,124,599134,0.0-65.0,FALSE,FALSE,TRUE,TRUE,"""event"",""trial"",""time""
""blur"",""0"",""0""
""focus"",""1"",""20564""
""fullscreenenter"",""5"",""38323""
","""event"",""trial"",""time""
""blur"",""0"",""0""
","""event"",""trial"",""time""
""focus"",""1"",""20564""
","""event"",""trial"",""time""
""fullscreenenter"",""5"",""38323""
","
",NA,NA,NA,NA,NA,NA,NA,NA,NA,NA,NA,NA,NA,NA,NA,NA,NA,NA,NA,NA,NA,NA,sub99
d3-instructions,125,624206,0.0-66.0,FALSE,FALSE,TRUE,TRUE,"""event"",""trial"",""time""
""blur"",""0"",""0""
""focus"",""1"",""20564""
""fullscreenenter"",""5"",""38323""
","""event"",""trial"",""time""
""blur"",""0"",""0""
","""event"",""trial"",""time""
""focus"",""1"",""20564""
","""event"",""trial"",""time""
""fullscreenenter"",""5"",""38323""
","
",NA,NA,NA,NA,NA,NA,NA,NA,NA,NA,NA,NA,NA,NA,NA,NA,NA,NA,NA,NA,NA,NA,sub99
d3-instructions,126,640525,0.0-67.0,FALSE,FALSE,TRUE,TRUE,"""event"",""trial"",""time""
""blur"",""0"",""0""
""focus"",""1"",""20564""
""fullscreenenter"",""5"",""38323""
","""event"",""trial"",""time""
""blur"",""0"",""0""
","""event"",""trial"",""time""
""focus"",""1"",""20564""
","""event"",""trial"",""time""
""fullscreenenter"",""5"",""38323""
","
",NA,NA,NA,NA,NA,NA,NA,NA,NA,NA,NA,NA,NA,NA,NA,NA,NA,NA,NA,NA,NA,NA,sub99
d3-instructions,127,649002,0.0-68.0,FALSE,FALSE,TRUE,TRUE,"""event"",""trial"",""time""
""blur"",""0"",""0""
""focus"",""1"",""20564""
""fullscreenenter"",""5"",""38323""
","""event"",""trial"",""time""
""blur"",""0"",""0""
","""event"",""trial"",""time""
""focus"",""1"",""20564""
","""event"",""trial"",""time""
""fullscreenenter"",""5"",""38323""
","
",NA,NA,NA,NA,NA,NA,NA,NA,NA,NA,NA,NA,NA,NA,NA,NA,NA,NA,NA,NA,NA,NA,sub99
instructions-quiz,128,653961,0.0-69.0,FALSE,FALSE,TRUE,TRUE,"""event"",""trial"",""time""
""blur"",""0"",""0""
""focus"",""1"",""20564""
""fullscreenenter"",""5"",""38323""
","""event"",""trial"",""time""
""blur"",""0"",""0""
","""event"",""trial"",""time""
""focus"",""1"",""20564""
","""event"",""trial"",""time""
""fullscreenenter"",""5"",""38323""
","
",4956.119999988005,audio/quiz/Q1_Prompt.wav,NA,1,NA,NA,NA,NA,NA,NA,NA,NA,NA,NA,NA,NA,NA,NA,NA,NA,NA,NA,sub99
audio-keyboard-response,129,663132,0.0-70.0,FALSE,FALSE,TRUE,TRUE,"""event"",""trial"",""time""
""blur"",""0"",""0""
""focus"",""1"",""20564""
""fullscreenenter"",""5"",""38323""
","""event"",""trial"",""time""
""blur"",""0"",""0""
","""event"",""trial"",""time""
""focus"",""1"",""20564""
","""event"",""trial"",""time""
""fullscreenenter"",""5"",""38323""
","
",null,audio/quiz/Q1_Correct.wav,null,NA,NA,NA,NA,NA,NA,NA,NA,NA,NA,NA,NA,NA,NA,NA,NA,NA,NA,NA,sub99
instructions-quiz,130,672264,0.0-71.0,FALSE,FALSE,TRUE,TRUE,"""event"",""trial"",""time""
""blur"",""0"",""0""
""focus"",""1"",""20564""
""fullscreenenter"",""5"",""38323""
","""event"",""trial"",""time""
""blur"",""0"",""0""
","""event"",""trial"",""time""
""focus"",""1"",""20564""
","""event"",""trial"",""time""
""fullscreenenter"",""5"",""38323""
","
",9130.424999981187,audio/quiz/Q2_Prompt.wav,NA,0,NA,NA,NA,NA,NA,NA,NA,NA,NA,NA,NA,NA,NA,NA,NA,NA,NA,NA,sub99
audio-keyboard-response,131,685132,0.0-72.0,FALSE,FALSE,TRUE,TRUE,"""event"",""trial"",""time""
""blur"",""0"",""0""
""focus"",""1"",""20564""
""fullscreenenter"",""5"",""38323""
","""event"",""trial"",""time""
""blur"",""0"",""0""
","""event"",""trial"",""time""
""focus"",""1"",""20564""
","""event"",""trial"",""time""
""fullscreenenter"",""5"",""38323""
","
",null,audio/quiz/Q2_Correct.wav,null,NA,NA,NA,NA,NA,NA,NA,NA,NA,NA,NA,NA,NA,NA,NA,NA,NA,NA,NA,sub99
instructions-quiz,132,690053,0.0-73.0,FALSE,FALSE,TRUE,TRUE,"""event"",""trial"",""time""
""blur"",""0"",""0""
""focus"",""1"",""20564""
""fullscreenenter"",""5"",""38323""
","""event"",""trial"",""time""
""blur"",""0"",""0""
","""event"",""trial"",""time""
""focus"",""1"",""20564""
","""event"",""trial"",""time""
""fullscreenenter"",""5"",""38323""
","
",4919.455000024755,audio/quiz/Q3_Prompt.wav,NA,1,NA,NA,NA,NA,NA,NA,NA,NA,NA,NA,NA,NA,NA,NA,NA,NA,NA,NA,sub99
audio-keyboard-response,133,695852,0.0-74.0,FALSE,FALSE,TRUE,TRUE,"""event"",""trial"",""time""
""blur"",""0"",""0""
""focus"",""1"",""20564""
""fullscreenenter"",""5"",""38323""
","""event"",""trial"",""time""
""blur"",""0"",""0""
","""event"",""trial"",""time""
""focus"",""1"",""20564""
","""event"",""trial"",""time""
""fullscreenenter"",""5"",""38323""
","
",null,audio/quiz/Q3_Correct.wav,null,NA,NA,NA,NA,NA,NA,NA,NA,NA,NA,NA,NA,NA,NA,NA,NA,NA,NA,NA,sub99
d3-instructions,134,709657,0.0-75.0,FALSE,FALSE,TRUE,TRUE,"""event"",""trial"",""time""
""blur"",""0"",""0""
""focus"",""1"",""20564""
""fullscreenenter"",""5"",""38323""
","""event"",""trial"",""time""
""blur"",""0"",""0""
","""event"",""trial"",""time""
""focus"",""1"",""20564""
","""event"",""trial"",""time""
""fullscreenenter"",""5"",""38323""
","
",NA,NA,NA,NA,NA,NA,NA,NA,NA,NA,NA,NA,NA,NA,NA,NA,NA,NA,NA,NA,NA,NA,sub99
d3-animate-choice,135,712786,0.0-76.0-0.0,FALSE,FALSE,TRUE,TRUE,"""event"",""trial"",""time""
""blur"",""0"",""0""
""focus"",""1"",""20564""
""fullscreenenter"",""5"",""38323""
","""event"",""trial"",""time""
""blur"",""0"",""0""
","""event"",""trial"",""time""
""focus"",""1"",""20564""
","""event"",""trial"",""time""
""fullscreenenter"",""5"",""38323""
","
",1125.6500000017695,NA,49,NA,NA,3000,1,NA,NA,images/earth.jpg,images/rocket1,images/rocket2,null,images/rocket2,NA,1,real,null,1,NA,NA,NA,sub99
d3-animate-choice,136,715465,0.0-76.0-1.0,FALSE,FALSE,TRUE,TRUE,"""event"",""trial"",""time""
""blur"",""0"",""0""
""focus"",""1"",""20564""
""fullscreenenter"",""5"",""38323""
","""event"",""trial"",""time""
""blur"",""0"",""0""
","""event"",""trial"",""time""
""focus"",""1"",""20564""
","""event"",""trial"",""time""
""fullscreenenter"",""5"",""38323""
","
",675.4950000322424,NA,48,NA,NA,3000,1,NA,NA,images/redplanet1.jpg,images/alien2,images/alien1,images/rocket2,images/alien2,images/nothing.png,2,real,true,2,common,0,2020-06-23T15:56:00Z,sub99
two-step-fixation,137,716469,0.0-76.0-2.0,FALSE,FALSE,TRUE,TRUE,"""event"",""trial"",""time""
""blur"",""0"",""0""
""focus"",""1"",""20564""
""fullscreenenter"",""5"",""38323""
","""event"",""trial"",""time""
""blur"",""0"",""0""
","""event"",""trial"",""time""
""focus"",""1"",""20564""
","""event"",""trial"",""time""
""fullscreenenter"",""5"",""38323""
","
",NA,images/earth.jpg,NA,NA,NA,NA,NA,NA,NA,NA,NA,NA,NA,NA,NA,fixation,NA,NA,NA,NA,NA,NA,sub99
d3-animate-choice,138,718780,0.0-76.0-0.1,FALSE,FALSE,TRUE,TRUE,"""event"",""trial"",""time""
""blur"",""0"",""0""
""focus"",""1"",""20564""
""fullscreenenter"",""5"",""38323""
","""event"",""trial"",""time""
""blur"",""0"",""0""
","""event"",""trial"",""time""
""focus"",""1"",""20564""
","""event"",""trial"",""time""
""fullscreenenter"",""5"",""38323""
","
",307.26999999023974,NA,48,NA,NA,3000,1,NA,NA,images/earth.jpg,images/rocket1,images/rocket2,null,images/rocket1,NA,1,real,null,2,NA,NA,NA,sub99
d3-animate-choice,139,721382,0.0-76.0-1.1,FALSE,FALSE,TRUE,TRUE,"""event"",""trial"",""time""
""blur"",""0"",""0""
""focus"",""1"",""20564""
""fullscreenenter"",""5"",""38323""
","""event"",""trial"",""time""
""blur"",""0"",""0""
","""event"",""trial"",""time""
""focus"",""1"",""20564""
","""event"",""trial"",""time""
""fullscreenenter"",""5"",""38323""
","
",597.5650000036694,NA,49,NA,NA,3000,1,NA,NA,images/purpleplanet.jpg,images/alien4,images/alien3,images/rocket1,images/alien3,images/t.png,2,real,true,1,common,1,2020-06-23T15:56:05Z,sub99
two-step-fixation,140,722385,0.0-76.0-2.1,FALSE,FALSE,TRUE,TRUE,"""event"",""trial"",""time""
""blur"",""0"",""0""
""focus"",""1"",""20564""
""fullscreenenter"",""5"",""38323""
","""event"",""trial"",""time""
""blur"",""0"",""0""
","""event"",""trial"",""time""
""focus"",""1"",""20564""
","""event"",""trial"",""time""
""fullscreenenter"",""5"",""38323""
","
",NA,images/earth.jpg,NA,NA,NA,NA,NA,NA,NA,NA,NA,NA,NA,NA,NA,fixation,NA,NA,NA,NA,NA,NA,sub99
d3-animate-choice,141,724733,0.0-76.0-0.2,FALSE,FALSE,TRUE,TRUE,"""event"",""trial"",""time""
""blur"",""0"",""0""
""focus"",""1"",""20564""
""fullscreenenter"",""5"",""38323""
","""event"",""trial"",""time""
""blur"",""0"",""0""
","""event"",""trial"",""time""
""focus"",""1"",""20564""
","""event"",""trial"",""time""
""fullscreenenter"",""5"",""38323""
","
",344.59999995306134,NA,48,NA,NA,3000,1,NA,NA,images/earth.jpg,images/rocket1,images/rocket2,null,images/rocket1,NA,1,real,null,2,NA,NA,NA,sub99
d3-animate-choice,142,727199,0.0-76.0-1.2,FALSE,FALSE,TRUE,TRUE,"""event"",""trial"",""time""
""blur"",""0"",""0""
""focus"",""1"",""20564""
""fullscreenenter"",""5"",""38323""
","""event"",""trial"",""time""
""blur"",""0"",""0""
","""event"",""trial"",""time""
""focus"",""1"",""20564""
","""event"",""trial"",""time""
""fullscreenenter"",""5"",""38323""
","
",462.0700000086799,NA,49,NA,NA,3000,1,NA,NA,images/purpleplanet.jpg,images/alien4,images/alien3,images/rocket1,images/alien3,images/t.png,2,real,true,1,common,1,2020-06-23T15:56:11Z,sub99
two-step-fixation,143,728203,0.0-76.0-2.2,FALSE,FALSE,TRUE,TRUE,"""event"",""trial"",""time""
""blur"",""0"",""0""
""focus"",""1"",""20564""
""fullscreenenter"",""5"",""38323""
","""event"",""trial"",""time""
""blur"",""0"",""0""
","""event"",""trial"",""time""
""focus"",""1"",""20564""
","""event"",""trial"",""time""
""fullscreenenter"",""5"",""38323""
","
",NA,images/earth.jpg,NA,NA,NA,NA,NA,NA,NA,NA,NA,NA,NA,NA,NA,fixation,NA,NA,NA,NA,NA,NA,sub99
d3-animate-choice,144,730589,0.0-76.0-0.3,FALSE,FALSE,TRUE,TRUE,"""event"",""trial"",""time""
""blur"",""0"",""0""
""focus"",""1"",""20564""
""fullscreenenter"",""5"",""38323""
","""event"",""trial"",""time""
""blur"",""0"",""0""
","""event"",""trial"",""time""
""focus"",""1"",""20564""
","""event"",""trial"",""time""
""fullscreenenter"",""5"",""38323""
","
",380.05499995779246,NA,48,NA,NA,3000,1,NA,NA,images/earth.jpg,images/rocket1,images/rocket2,null,images/rocket1,NA,1,real,null,2,NA,NA,NA,sub99
d3-animate-choice,145,733454,0.0-76.0-1.3,FALSE,FALSE,TRUE,TRUE,"""event"",""trial"",""time""
""blur"",""0"",""0""
""focus"",""1"",""20564""
""fullscreenenter"",""5"",""38323""
","""event"",""trial"",""time""
""blur"",""0"",""0""
","""event"",""trial"",""time""
""focus"",""1"",""20564""
","""event"",""trial"",""time""
""fullscreenenter"",""5"",""38323""
","
",861.5950000239536,NA,48,NA,NA,3000,1,NA,NA,images/redplanet1.jpg,images/alien2,images/alien1,images/rocket1,images/alien2,images/t.png,2,real,false,2,rare,1,2020-06-23T15:56:18Z,sub99
two-step-fixation,146,734457,0.0-76.0-2.3,FALSE,FALSE,TRUE,TRUE,"""event"",""trial"",""time""
""blur"",""0"",""0""
""focus"",""1"",""20564""
""fullscreenenter"",""5"",""38323""
","""event"",""trial"",""time""
""blur"",""0"",""0""
","""event"",""trial"",""time""
""focus"",""1"",""20564""
","""event"",""trial"",""time""
""fullscreenenter"",""5"",""38323""
","
",NA,images/earth.jpg,NA,NA,NA,NA,NA,NA,NA,NA,NA,NA,NA,NA,NA,fixation,NA,NA,NA,NA,NA,NA,sub99
d3-animate-choice,147,736820,0.0-76.0-0.4,FALSE,FALSE,TRUE,TRUE,"""event"",""trial"",""time""
""blur"",""0"",""0""
""focus"",""1"",""20564""
""fullscreenenter"",""5"",""38323""
","""event"",""trial"",""time""
""blur"",""0"",""0""
","""event"",""trial"",""time""
""focus"",""1"",""20564""
","""event"",""trial"",""time""
""fullscreenenter"",""5"",""38323""
","
",358.4300000220537,NA,48,NA,NA,3000,1,NA,NA,images/earth.jpg,images/rocket1,images/rocket2,null,images/rocket1,NA,1,real,null,2,NA,NA,NA,sub99
d3-animate-choice,148,739319,0.0-76.0-1.4,FALSE,FALSE,TRUE,TRUE,"""event"",""trial"",""time""
""blur"",""0"",""0""
""focus"",""1"",""20564""
""fullscreenenter"",""5"",""38323""
","""event"",""trial"",""time""
""blur"",""0"",""0""
","""event"",""trial"",""time""
""focus"",""1"",""20564""
","""event"",""trial"",""time""
""fullscreenenter"",""5"",""38323""
","
",494.2550000268966,NA,49,NA,NA,3000,1,NA,NA,images/purpleplanet.jpg,images/alien4,images/alien3,images/rocket1,images/alien3,images/nothing.png,2,real,true,1,common,0,2020-06-23T15:56:23Z,sub99
two-step-fixation,149,740321,0.0-76.0-2.4,FALSE,FALSE,TRUE,TRUE,"""event"",""trial"",""time""
""blur"",""0"",""0""
""focus"",""1"",""20564""
""fullscreenenter"",""5"",""38323""
","""event"",""trial"",""time""
""blur"",""0"",""0""
","""event"",""trial"",""time""
""focus"",""1"",""20564""
","""event"",""trial"",""time""
""fullscreenenter"",""5"",""38323""
","
",NA,images/earth.jpg,NA,NA,NA,NA,NA,NA,NA,NA,NA,NA,NA,NA,NA,fixation,NA,NA,NA,NA,NA,NA,sub99
d3-animate-choice,150,742602,0.0-76.0-0.5,FALSE,FALSE,TRUE,TRUE,"""event"",""trial"",""time""
""blur"",""0"",""0""
""focus"",""1"",""20564""
""fullscreenenter"",""5"",""38323""
","""event"",""trial"",""time""
""blur"",""0"",""0""
","""event"",""trial"",""time""
""focus"",""1"",""20564""
","""event"",""trial"",""time""
""fullscreenenter"",""5"",""38323""
","
",275.94999998109415,NA,49,NA,NA,3000,1,NA,NA,images/earth.jpg,images/rocket1,images/rocket2,null,images/rocket2,NA,1,real,null,1,NA,NA,NA,sub99
d3-animate-choice,151,745084,0.0-76.0-1.5,FALSE,FALSE,TRUE,TRUE,"""event"",""trial"",""time""
""blur"",""0"",""0""
""focus"",""1"",""20564""
""fullscreenenter"",""5"",""38323""
","""event"",""trial"",""time""
""blur"",""0"",""0""
","""event"",""trial"",""time""
""focus"",""1"",""20564""
","""event"",""trial"",""time""
""fullscreenenter"",""5"",""38323""
","
",478.2349999877624,NA,48,NA,NA,3000,1,NA,NA,images/redplanet1.jpg,images/alien2,images/alien1,images/rocket2,images/alien2,images/nothing.png,2,real,true,2,common,0,2020-06-23T15:56:29Z,sub99
two-step-fixation,152,746087,0.0-76.0-2.5,FALSE,FALSE,TRUE,TRUE,"""event"",""trial"",""time""
""blur"",""0"",""0""
""focus"",""1"",""20564""
""fullscreenenter"",""5"",""38323""
","""event"",""trial"",""time""
""blur"",""0"",""0""
","""event"",""trial"",""time""
""focus"",""1"",""20564""
","""event"",""trial"",""time""
""fullscreenenter"",""5"",""38323""
","
",NA,images/earth.jpg,NA,NA,NA,NA,NA,NA,NA,NA,NA,NA,NA,NA,NA,fixation,NA,NA,NA,NA,NA,NA,sub99
d3-animate-choice,153,748351,0.0-76.0-0.6,FALSE,FALSE,TRUE,TRUE,"""event"",""trial"",""time""
""blur"",""0"",""0""
""focus"",""1"",""20564""
""fullscreenenter"",""5"",""38323""
","""event"",""trial"",""time""
""blur"",""0"",""0""
","""event"",""trial"",""time""
""focus"",""1"",""20564""
","""event"",""trial"",""time""
""fullscreenenter"",""5"",""38323""
","
",258.6400000145659,NA,49,NA,NA,3000,1,NA,NA,images/earth.jpg,images/rocket1,images/rocket2,null,images/rocket2,NA,1,real,null,1,NA,NA,NA,sub99
d3-animate-choice,154,750696,0.0-76.0-1.6,FALSE,FALSE,TRUE,TRUE,"""event"",""trial"",""time""
""blur"",""0"",""0""
""focus"",""1"",""20564""
""fullscreenenter"",""5"",""38323""
","""event"",""trial"",""time""
""blur"",""0"",""0""
","""event"",""trial"",""time""
""focus"",""1"",""20564""
","""event"",""trial"",""time""
""fullscreenenter"",""5"",""38323""
","
",339.64999997988343,NA,49,NA,NA,3000,1,NA,NA,images/redplanet1.jpg,images/alien2,images/alien1,images/rocket2,images/alien1,images/t.png,2,real,true,1,common,1,2020-06-23T15:56:35Z,sub99
two-step-fixation,155,751700,0.0-76.0-2.6,FALSE,FALSE,TRUE,TRUE,"""event"",""trial"",""time""
""blur"",""0"",""0""
""focus"",""1"",""20564""
""fullscreenenter"",""5"",""38323""
","""event"",""trial"",""time""
""blur"",""0"",""0""
","""event"",""trial"",""time""
""focus"",""1"",""20564""
","""event"",""trial"",""time""
""fullscreenenter"",""5"",""38323""
","
",NA,images/earth.jpg,NA,NA,NA,NA,NA,NA,NA,NA,NA,NA,NA,NA,NA,fixation,NA,NA,NA,NA,NA,NA,sub99
d3-animate-choice,156,753985,0.0-76.0-0.7,FALSE,FALSE,TRUE,TRUE,"""event"",""trial"",""time""
""blur"",""0"",""0""
""focus"",""1"",""20564""
""fullscreenenter"",""5"",""38323""
","""event"",""trial"",""time""
""blur"",""0"",""0""
","""event"",""trial"",""time""
""focus"",""1"",""20564""
","""event"",""trial"",""time""
""fullscreenenter"",""5"",""38323""
","
",282.3199999984354,NA,49,NA,NA,3000,1,NA,NA,images/earth.jpg,images/rocket1,images/rocket2,null,images/rocket2,NA,1,real,null,1,NA,NA,NA,sub99
d3-animate-choice,157,756658,0.0-76.0-1.7,FALSE,FALSE,TRUE,TRUE,"""event"",""trial"",""time""
""blur"",""0"",""0""
""focus"",""1"",""20564""
""fullscreenenter"",""5"",""38323""
","""event"",""trial"",""time""
""blur"",""0"",""0""
","""event"",""trial"",""time""
""focus"",""1"",""20564""
","""event"",""trial"",""time""
""fullscreenenter"",""5"",""38323""
","
",670.0100000016391,NA,49,NA,NA,3000,1,NA,NA,images/purpleplanet.jpg,images/alien4,images/alien3,images/rocket2,images/alien3,images/t.png,2,real,false,1,rare,1,2020-06-23T15:56:41Z,sub99
two-step-fixation,158,757662,0.0-76.0-2.7,FALSE,FALSE,TRUE,TRUE,"""event"",""trial"",""time""
""blur"",""0"",""0""
""focus"",""1"",""20564""
""fullscreenenter"",""5"",""38323""
","""event"",""trial"",""time""
""blur"",""0"",""0""
","""event"",""trial"",""time""
""focus"",""1"",""20564""
","""event"",""trial"",""time""
""fullscreenenter"",""5"",""38323""
","
",NA,images/earth.jpg,NA,NA,NA,NA,NA,NA,NA,NA,NA,NA,NA,NA,NA,fixation,NA,NA,NA,NA,NA,NA,sub99
d3-animate-choice,159,760045,0.0-76.0-0.8,FALSE,FALSE,TRUE,TRUE,"""event"",""trial"",""time""
""blur"",""0"",""0""
""focus"",""1"",""20564""
""fullscreenenter"",""5"",""38323""
","""event"",""trial"",""time""
""blur"",""0"",""0""
","""event"",""trial"",""time""
""focus"",""1"",""20564""
","""event"",""trial"",""time""
""fullscreenenter"",""5"",""38323""
","
",379.6650000149384,NA,49,NA,NA,3000,1,NA,NA,images/earth.jpg,images/rocket1,images/rocket2,null,images/rocket2,NA,1,real,null,1,NA,NA,NA,sub99
d3-animate-choice,160,762554,0.0-76.0-1.8,FALSE,FALSE,TRUE,TRUE,"""event"",""trial"",""time""
""blur"",""0"",""0""
""focus"",""1"",""20564""
""fullscreenenter"",""5"",""38323""
","""event"",""trial"",""time""
""blur"",""0"",""0""
","""event"",""trial"",""time""
""focus"",""1"",""20564""
","""event"",""trial"",""time""
""fullscreenenter"",""5"",""38323""
","
",505.76500000897795,NA,49,NA,NA,3000,1,NA,NA,images/redplanet1.jpg,images/alien2,images/alien1,images/rocket2,images/alien1,images/nothing.png,2,real,true,1,common,0,2020-06-23T15:56:47Z,sub99
two-step-fixation,161,763557,0.0-76.0-2.8,FALSE,FALSE,TRUE,TRUE,"""event"",""trial"",""time""
""blur"",""0"",""0""
""focus"",""1"",""20564""
""fullscreenenter"",""5"",""38323""
","""event"",""trial"",""time""
""blur"",""0"",""0""
","""event"",""trial"",""time""
""focus"",""1"",""20564""
","""event"",""trial"",""time""
""fullscreenenter"",""5"",""38323""
","
",NA,images/earth.jpg,NA,NA,NA,NA,NA,NA,NA,NA,NA,NA,NA,NA,NA,fixation,NA,NA,NA,NA,NA,NA,sub99
d3-animate-choice,162,765830,0.0-76.0-0.9,FALSE,FALSE,TRUE,TRUE,"""event"",""trial"",""time""
""blur"",""0"",""0""
""focus"",""1"",""20564""
""fullscreenenter"",""5"",""38323""
","""event"",""trial"",""time""
""blur"",""0"",""0""
","""event"",""trial"",""time""
""focus"",""1"",""20564""
","""event"",""trial"",""time""
""fullscreenenter"",""5"",""38323""
","
",269.02000000700355,NA,48,NA,NA,3000,1,NA,NA,images/earth.jpg,images/rocket1,images/rocket2,null,images/rocket1,NA,1,real,null,2,NA,NA,NA,sub99
d3-animate-choice,163,768429,0.0-76.0-1.9,FALSE,FALSE,TRUE,TRUE,"""event"",""trial"",""time""
""blur"",""0"",""0""
""focus"",""1"",""20564""
""fullscreenenter"",""5"",""38323""
","""event"",""trial"",""time""
""blur"",""0"",""0""
","""event"",""trial"",""time""
""focus"",""1"",""20564""
","""event"",""trial"",""time""
""fullscreenenter"",""5"",""38323""
","
",594.9099999852479,NA,49,NA,NA,3000,1,NA,NA,images/redplanet1.jpg,images/alien2,images/alien1,images/rocket1,images/alien1,images/t.png,2,real,false,1,rare,1,2020-06-23T15:56:53Z,sub99
two-step-fixation,164,769431,0.0-76.0-2.9,FALSE,FALSE,TRUE,TRUE,"""event"",""trial"",""time""
""blur"",""0"",""0""
""focus"",""1"",""20564""
""fullscreenenter"",""5"",""38323""
","""event"",""trial"",""time""
""blur"",""0"",""0""
","""event"",""trial"",""time""
""focus"",""1"",""20564""
","""event"",""trial"",""time""
""fullscreenenter"",""5"",""38323""
","
",NA,images/earth.jpg,NA,NA,NA,NA,NA,NA,NA,NA,NA,NA,NA,NA,NA,fixation,NA,NA,NA,NA,NA,NA,sub99
d3-animate-choice,165,771562,0.0-76.0-0.10,FALSE,FALSE,TRUE,TRUE,"""event"",""trial"",""time""
""blur"",""0"",""0""
""focus"",""1"",""20564""
""fullscreenenter"",""5"",""38323""
","""event"",""trial"",""time""
""blur"",""0"",""0""
","""event"",""trial"",""time""
""focus"",""1"",""20564""
","""event"",""trial"",""time""
""fullscreenenter"",""5"",""38323""
","
",124.78500005090609,NA,48,NA,NA,3000,1,NA,NA,images/earth.jpg,images/rocket1,images/rocket2,null,images/rocket1,NA,1,real,null,2,NA,NA,NA,sub99
d3-animate-choice,166,774062,0.0-76.0-1.10,FALSE,FALSE,TRUE,TRUE,"""event"",""trial"",""time""
""blur"",""0"",""0""
""focus"",""1"",""20564""
""fullscreenenter"",""5"",""38323""
","""event"",""trial"",""time""
""blur"",""0"",""0""
","""event"",""trial"",""time""
""focus"",""1"",""20564""
","""event"",""trial"",""time""
""fullscreenenter"",""5"",""38323""
","
",496.0950000095181,NA,49,NA,NA,3000,1,NA,NA,images/purpleplanet.jpg,images/alien4,images/alien3,images/rocket1,images/alien3,images/t.png,2,real,true,1,common,1,2020-06-23T15:56:58Z,sub99
two-step-fixation,167,775065,0.0-76.0-2.10,FALSE,FALSE,TRUE,TRUE,"""event"",""trial"",""time""
""blur"",""0"",""0""
""focus"",""1"",""20564""
""fullscreenenter"",""5"",""38323""
","""event"",""trial"",""time""
""blur"",""0"",""0""
","""event"",""trial"",""time""
""focus"",""1"",""20564""
","""event"",""trial"",""time""
""fullscreenenter"",""5"",""38323""
","
",NA,images/earth.jpg,NA,NA,NA,NA,NA,NA,NA,NA,NA,NA,NA,NA,NA,fixation,NA,NA,NA,NA,NA,NA,sub99
d3-animate-choice,168,777360,0.0-76.0-0.11,FALSE,FALSE,TRUE,TRUE,"""event"",""trial"",""time""
""blur"",""0"",""0""
""focus"",""1"",""20564""
""fullscreenenter"",""5"",""38323""
","""event"",""trial"",""time""
""blur"",""0"",""0""
","""event"",""trial"",""time""
""focus"",""1"",""20564""
","""event"",""trial"",""time""
""fullscreenenter"",""5"",""38323""
","
",290.6000000075437,NA,48,NA,NA,3000,1,NA,NA,images/earth.jpg,images/rocket1,images/rocket2,null,images/rocket1,NA,1,real,null,2,NA,NA,NA,sub99
d3-animate-choice,169,779797,0.0-76.0-1.11,FALSE,FALSE,TRUE,TRUE,"""event"",""trial"",""time""
""blur"",""0"",""0""
""focus"",""1"",""20564""
""fullscreenenter"",""5"",""38323""
","""event"",""trial"",""time""
""blur"",""0"",""0""
","""event"",""trial"",""time""
""focus"",""1"",""20564""
","""event"",""trial"",""time""
""fullscreenenter"",""5"",""38323""
","
",434.1150000109337,NA,49,NA,NA,3000,1,NA,NA,images/purpleplanet.jpg,images/alien4,images/alien3,images/rocket1,images/alien3,images/t.png,2,real,true,1,common,1,2020-06-23T15:57:04Z,sub99
two-step-fixation,170,780800,0.0-76.0-2.11,FALSE,FALSE,TRUE,TRUE,"""event"",""trial"",""time""
""blur"",""0"",""0""
""focus"",""1"",""20564""
""fullscreenenter"",""5"",""38323""
","""event"",""trial"",""time""
""blur"",""0"",""0""
","""event"",""trial"",""time""
""focus"",""1"",""20564""
","""event"",""trial"",""time""
""fullscreenenter"",""5"",""38323""
","
",NA,images/earth.jpg,NA,NA,NA,NA,NA,NA,NA,NA,NA,NA,NA,NA,NA,fixation,NA,NA,NA,NA,NA,NA,sub99
d3-animate-choice,171,783071,0.0-76.0-0.12,FALSE,FALSE,TRUE,TRUE,"""event"",""trial"",""time""
""blur"",""0"",""0""
""focus"",""1"",""20564""
""fullscreenenter"",""5"",""38323""
","""event"",""trial"",""time""
""blur"",""0"",""0""
","""event"",""trial"",""time""
""focus"",""1"",""20564""
","""event"",""trial"",""time""
""fullscreenenter"",""5"",""38323""
","
",267.214999999851,NA,48,NA,NA,3000,1,NA,NA,images/earth.jpg,images/rocket1,images/rocket2,null,images/rocket1,NA,1,real,null,2,NA,NA,NA,sub99
d3-animate-choice,172,785494,0.0-76.0-1.12,FALSE,FALSE,TRUE,TRUE,"""event"",""trial"",""time""
""blur"",""0"",""0""
""focus"",""1"",""20564""
""fullscreenenter"",""5"",""38323""
","""event"",""trial"",""time""
""blur"",""0"",""0""
","""event"",""trial"",""time""
""focus"",""1"",""20564""
","""event"",""trial"",""time""
""fullscreenenter"",""5"",""38323""
","
",420.05499999504536,NA,49,NA,NA,3000,1,NA,NA,images/purpleplanet.jpg,images/alien4,images/alien3,images/rocket1,images/alien3,images/nothing.png,2,real,true,1,common,0,2020-06-23T15:57:10Z,sub99
two-step-fixation,173,786496,0.0-76.0-2.12,FALSE,FALSE,TRUE,TRUE,"""event"",""trial"",""time""
""blur"",""0"",""0""
""focus"",""1"",""20564""
""fullscreenenter"",""5"",""38323""
","""event"",""trial"",""time""
""blur"",""0"",""0""
","""event"",""trial"",""time""
""focus"",""1"",""20564""
","""event"",""trial"",""time""
""fullscreenenter"",""5"",""38323""
","
",NA,images/earth.jpg,NA,NA,NA,NA,NA,NA,NA,NA,NA,NA,NA,NA,NA,fixation,NA,NA,NA,NA,NA,NA,sub99
d3-animate-choice,174,788843,0.0-76.0-0.13,FALSE,FALSE,TRUE,TRUE,"""event"",""trial"",""time""
""blur"",""0"",""0""
""focus"",""1"",""20564""
""fullscreenenter"",""5"",""38323""
","""event"",""trial"",""time""
""blur"",""0"",""0""
","""event"",""trial"",""time""
""focus"",""1"",""20564""
","""event"",""trial"",""time""
""fullscreenenter"",""5"",""38323""
","
",344.18499999446794,NA,48,NA,NA,3000,1,NA,NA,images/earth.jpg,images/rocket1,images/rocket2,null,images/rocket1,NA,1,real,null,2,NA,NA,NA,sub99
d3-animate-choice,175,791335,0.0-76.0-1.13,FALSE,FALSE,TRUE,TRUE,"""event"",""trial"",""time""
""blur"",""0"",""0""
""focus"",""1"",""20564""
""fullscreenenter"",""5"",""38323""
","""event"",""trial"",""time""
""blur"",""0"",""0""
","""event"",""trial"",""time""
""focus"",""1"",""20564""
","""event"",""trial"",""time""
""fullscreenenter"",""5"",""38323""
","
",488.43000002671033,NA,48,NA,NA,3000,1,NA,NA,images/purpleplanet.jpg,images/alien4,images/alien3,images/rocket1,images/alien4,images/nothing.png,2,real,true,2,common,0,2020-06-23T15:57:15Z,sub99
two-step-fixation,176,792338,0.0-76.0-2.13,FALSE,FALSE,TRUE,TRUE,"""event"",""trial"",""time""
""blur"",""0"",""0""
""focus"",""1"",""20564""
""fullscreenenter"",""5"",""38323""
","""event"",""trial"",""time""
""blur"",""0"",""0""
","""event"",""trial"",""time""
""focus"",""1"",""20564""
","""event"",""trial"",""time""
""fullscreenenter"",""5"",""38323""
","
",NA,images/earth.jpg,NA,NA,NA,NA,NA,NA,NA,NA,NA,NA,NA,NA,NA,fixation,NA,NA,NA,NA,NA,NA,sub99
d3-animate-choice,177,794644,0.0-76.0-0.14,FALSE,FALSE,TRUE,TRUE,"""event"",""trial"",""time""
""blur"",""0"",""0""
""focus"",""1"",""20564""
""fullscreenenter"",""5"",""38323""
","""event"",""trial"",""time""
""blur"",""0"",""0""
","""event"",""trial"",""time""
""focus"",""1"",""20564""
","""event"",""trial"",""time""
""fullscreenenter"",""5"",""38323""
","
",301.90500000026077,NA,49,NA,NA,3000,1,NA,NA,images/earth.jpg,images/rocket1,images/rocket2,null,images/rocket2,NA,1,real,null,1,NA,NA,NA,sub99
d3-animate-choice,178,797341,0.0-76.0-1.14,FALSE,FALSE,TRUE,TRUE,"""event"",""trial"",""time""
""blur"",""0"",""0""
""focus"",""1"",""20564""
""fullscreenenter"",""5"",""38323""
","""event"",""trial"",""time""
""blur"",""0"",""0""
","""event"",""trial"",""time""
""focus"",""1"",""20564""
","""event"",""trial"",""time""
""fullscreenenter"",""5"",""38323""
","
",693.4149999869987,NA,49,NA,NA,3000,1,NA,NA,images/redplanet1.jpg,images/alien2,images/alien1,images/rocket2,images/alien1,images/nothing.png,2,real,true,1,common,0,2020-06-23T15:57:21Z,sub99
two-step-fixation,179,798345,0.0-76.0-2.14,FALSE,FALSE,TRUE,TRUE,"""event"",""trial"",""time""
""blur"",""0"",""0""
""focus"",""1"",""20564""
""fullscreenenter"",""5"",""38323""
","""event"",""trial"",""time""
""blur"",""0"",""0""
","""event"",""trial"",""time""
""focus"",""1"",""20564""
","""event"",""trial"",""time""
""fullscreenenter"",""5"",""38323""
","
",NA,images/earth.jpg,NA,NA,NA,NA,NA,NA,NA,NA,NA,NA,NA,NA,NA,fixation,NA,NA,NA,NA,NA,NA,sub99
d3-animate-choice,180,800675,0.0-76.0-0.15,FALSE,FALSE,TRUE,TRUE,"""event"",""trial"",""time""
""blur"",""0"",""0""
""focus"",""1"",""20564""
""fullscreenenter"",""5"",""38323""
","""event"",""trial"",""time""
""blur"",""0"",""0""
","""event"",""trial"",""time""
""focus"",""1"",""20564""
","""event"",""trial"",""time""
""fullscreenenter"",""5"",""38323""
","
",326.44000003347173,NA,49,NA,NA,3000,1,NA,NA,images/earth.jpg,images/rocket1,images/rocket2,null,images/rocket2,NA,1,real,null,1,NA,NA,NA,sub99
d3-animate-choice,181,803232,0.0-76.0-1.15,FALSE,FALSE,TRUE,TRUE,"""event"",""trial"",""time""
""blur"",""0"",""0""
""focus"",""1"",""20564""
""fullscreenenter"",""5"",""38323""
","""event"",""trial"",""time""
""blur"",""0"",""0""
","""event"",""trial"",""time""
""focus"",""1"",""20564""
","""event"",""trial"",""time""
""fullscreenenter"",""5"",""38323""
","
",553.0049999943003,NA,48,NA,NA,3000,1,NA,NA,images/redplanet1.jpg,images/alien2,images/alien1,images/rocket2,images/alien2,images/t.png,2,real,true,2,common,1,2020-06-23T15:57:27Z,sub99
two-step-fixation,182,804234,0.0-76.0-2.15,FALSE,FALSE,TRUE,TRUE,"""event"",""trial"",""time""
""blur"",""0"",""0""
""focus"",""1"",""20564""
""fullscreenenter"",""5"",""38323""
","""event"",""trial"",""time""
""blur"",""0"",""0""
","""event"",""trial"",""time""
""focus"",""1"",""20564""
","""event"",""trial"",""time""
""fullscreenenter"",""5"",""38323""
","
",NA,images/earth.jpg,NA,NA,NA,NA,NA,NA,NA,NA,NA,NA,NA,NA,NA,fixation,NA,NA,NA,NA,NA,NA,sub99
d3-animate-choice,183,806570,0.0-76.0-0.16,FALSE,FALSE,TRUE,TRUE,"""event"",""trial"",""time""
""blur"",""0"",""0""
""focus"",""1"",""20564""
""fullscreenenter"",""5"",""38323""
","""event"",""trial"",""time""
""blur"",""0"",""0""
","""event"",""trial"",""time""
""focus"",""1"",""20564""
","""event"",""trial"",""time""
""fullscreenenter"",""5"",""38323""
","
",330.8950000209734,NA,49,NA,NA,3000,1,NA,NA,images/earth.jpg,images/rocket1,images/rocket2,null,images/rocket2,NA,1,real,null,1,NA,NA,NA,sub99
d3-animate-choice,184,809301,0.0-76.0-1.16,FALSE,FALSE,TRUE,TRUE,"""event"",""trial"",""time""
""blur"",""0"",""0""
""focus"",""1"",""20564""
""fullscreenenter"",""5"",""38323""
","""event"",""trial"",""time""
""blur"",""0"",""0""
","""event"",""trial"",""time""
""focus"",""1"",""20564""
","""event"",""trial"",""time""
""fullscreenenter"",""5"",""38323""
","
",727.2499999962747,NA,48,NA,NA,3000,1,NA,NA,images/redplanet1.jpg,images/alien2,images/alien1,images/rocket2,images/alien2,images/t.png,2,real,true,2,common,1,2020-06-23T15:57:33Z,sub99
two-step-fixation,185,810303,0.0-76.0-2.16,FALSE,FALSE,TRUE,TRUE,"""event"",""trial"",""time""
""blur"",""0"",""0""
""focus"",""1"",""20564""
""fullscreenenter"",""5"",""38323""
","""event"",""trial"",""time""
""blur"",""0"",""0""
","""event"",""trial"",""time""
""focus"",""1"",""20564""
","""event"",""trial"",""time""
""fullscreenenter"",""5"",""38323""
","
",NA,images/earth.jpg,NA,NA,NA,NA,NA,NA,NA,NA,NA,NA,NA,NA,NA,fixation,NA,NA,NA,NA,NA,NA,sub99
d3-animate-choice,186,812615,0.0-76.0-0.17,FALSE,FALSE,TRUE,TRUE,"""event"",""trial"",""time""
""blur"",""0"",""0""
""focus"",""1"",""20564""
""fullscreenenter"",""5"",""38323""
","""event"",""trial"",""time""
""blur"",""0"",""0""
","""event"",""trial"",""time""
""focus"",""1"",""20564""
","""event"",""trial"",""time""
""fullscreenenter"",""5"",""38323""
","
",308.0150000168942,NA,49,NA,NA,3000,1,NA,NA,images/earth.jpg,images/rocket1,images/rocket2,null,images/rocket2,NA,1,real,null,1,NA,NA,NA,sub99
d3-animate-choice,187,815582,0.0-76.0-1.17,FALSE,FALSE,TRUE,TRUE,"""event"",""trial"",""time""
""blur"",""0"",""0""
""focus"",""1"",""20564""
""fullscreenenter"",""5"",""38323""
","""event"",""trial"",""time""
""blur"",""0"",""0""
","""event"",""trial"",""time""
""focus"",""1"",""20564""
","""event"",""trial"",""time""
""fullscreenenter"",""5"",""38323""
","
",962.0600000489503,NA,49,NA,NA,3000,1,NA,NA,images/purpleplanet.jpg,images/alien4,images/alien3,images/rocket2,images/alien3,images/nothing.png,2,real,false,1,rare,0,2020-06-23T15:57:40Z,sub99
two-step-fixation,188,816584,0.0-76.0-2.17,FALSE,FALSE,TRUE,TRUE,"""event"",""trial"",""time""
""blur"",""0"",""0""
""focus"",""1"",""20564""
""fullscreenenter"",""5"",""38323""
","""event"",""trial"",""time""
""blur"",""0"",""0""
","""event"",""trial"",""time""
""focus"",""1"",""20564""
","""event"",""trial"",""time""
""fullscreenenter"",""5"",""38323""
","
",NA,images/earth.jpg,NA,NA,NA,NA,NA,NA,NA,NA,NA,NA,NA,NA,NA,fixation,NA,NA,NA,NA,NA,NA,sub99
d3-animate-choice,189,818835,0.0-76.0-0.18,FALSE,FALSE,TRUE,TRUE,"""event"",""trial"",""time""
""blur"",""0"",""0""
""focus"",""1"",""20564""
""fullscreenenter"",""5"",""38323""
","""event"",""trial"",""time""
""blur"",""0"",""0""
","""event"",""trial"",""time""
""focus"",""1"",""20564""
","""event"",""trial"",""time""
""fullscreenenter"",""5"",""38323""
","
",247.41000001085922,NA,48,NA,NA,3000,1,NA,NA,images/earth.jpg,images/rocket1,images/rocket2,null,images/rocket1,NA,1,real,null,2,NA,NA,NA,sub99
d3-animate-choice,190,821354,0.0-76.0-1.18,FALSE,FALSE,TRUE,TRUE,"""event"",""trial"",""time""
""blur"",""0"",""0""
""focus"",""1"",""20564""
""fullscreenenter"",""5"",""38323""
","""event"",""trial"",""time""
""blur"",""0"",""0""
","""event"",""trial"",""time""
""focus"",""1"",""20564""
","""event"",""trial"",""time""
""fullscreenenter"",""5"",""38323""
","
",514.7299999953248,NA,48,NA,NA,3000,1,NA,NA,images/redplanet1.jpg,images/alien2,images/alien1,images/rocket1,images/alien2,images/t.png,2,real,false,2,rare,1,2020-06-23T15:57:45Z,sub99
two-step-fixation,191,822359,0.0-76.0-2.18,FALSE,FALSE,TRUE,TRUE,"""event"",""trial"",""time""
""blur"",""0"",""0""
""focus"",""1"",""20564""
""fullscreenenter"",""5"",""38323""
","""event"",""trial"",""time""
""blur"",""0"",""0""
","""event"",""trial"",""time""
""focus"",""1"",""20564""
","""event"",""trial"",""time""
""fullscreenenter"",""5"",""38323""
","
",NA,images/earth.jpg,NA,NA,NA,NA,NA,NA,NA,NA,NA,NA,NA,NA,NA,fixation,NA,NA,NA,NA,NA,NA,sub99
d3-animate-choice,192,824816,0.0-76.0-0.19,FALSE,FALSE,TRUE,TRUE,"""event"",""trial"",""time""
""blur"",""0"",""0""
""focus"",""1"",""20564""
""fullscreenenter"",""5"",""38323""
","""event"",""trial"",""time""
""blur"",""0"",""0""
","""event"",""trial"",""time""
""focus"",""1"",""20564""
","""event"",""trial"",""time""
""fullscreenenter"",""5"",""38323""
","
",453.1349999597296,NA,48,NA,NA,3000,1,NA,NA,images/earth.jpg,images/rocket1,images/rocket2,null,images/rocket1,NA,1,real,null,2,NA,NA,NA,sub99
d3-animate-choice,193,827384,0.0-76.0-1.19,FALSE,FALSE,TRUE,TRUE,"""event"",""trial"",""time""
""blur"",""0"",""0""
""focus"",""1"",""20564""
""fullscreenenter"",""5"",""38323""
","""event"",""trial"",""time""
""blur"",""0"",""0""
","""event"",""trial"",""time""
""focus"",""1"",""20564""
","""event"",""trial"",""time""
""fullscreenenter"",""5"",""38323""
","
",563.7649999698624,NA,48,NA,NA,3000,1,NA,NA,images/purpleplanet.jpg,images/alien4,images/alien3,images/rocket1,images/alien4,images/nothing.png,2,real,true,2,common,0,2020-06-23T15:57:51Z,sub99
two-step-fixation,194,828389,0.0-76.0-2.19,FALSE,FALSE,TRUE,TRUE,"""event"",""trial"",""time""
""blur"",""0"",""0""
""focus"",""1"",""20564""
""fullscreenenter"",""5"",""38323""
","""event"",""trial"",""time""
""blur"",""0"",""0""
","""event"",""trial"",""time""
""focus"",""1"",""20564""
","""event"",""trial"",""time""
""fullscreenenter"",""5"",""38323""
","
",NA,images/earth.jpg,NA,NA,NA,NA,NA,NA,NA,NA,NA,NA,NA,NA,NA,fixation,NA,NA,NA,NA,NA,NA,sub99
d3-animate-choice,195,830712,0.0-76.0-0.20,FALSE,FALSE,TRUE,TRUE,"""event"",""trial"",""time""
""blur"",""0"",""0""
""focus"",""1"",""20564""
""fullscreenenter"",""5"",""38323""
","""event"",""trial"",""time""
""blur"",""0"",""0""
","""event"",""trial"",""time""
""focus"",""1"",""20564""
","""event"",""trial"",""time""
""fullscreenenter"",""5"",""38323""
","
",319.5699999923818,NA,49,NA,NA,3000,1,NA,NA,images/earth.jpg,images/rocket1,images/rocket2,null,images/rocket2,NA,1,real,null,1,NA,NA,NA,sub99
d3-animate-choice,196,833243,0.0-76.0-1.20,FALSE,FALSE,TRUE,TRUE,"""event"",""trial"",""time""
""blur"",""0"",""0""
""focus"",""1"",""20564""
""fullscreenenter"",""5"",""38323""
","""event"",""trial"",""time""
""blur"",""0"",""0""
","""event"",""trial"",""time""
""focus"",""1"",""20564""
","""event"",""trial"",""time""
""fullscreenenter"",""5"",""38323""
","
",527.0799999707378,NA,48,NA,NA,3000,1,NA,NA,images/redplanet1.jpg,images/alien2,images/alien1,images/rocket2,images/alien2,images/nothing.png,2,real,true,2,common,0,2020-06-23T15:57:57Z,sub99
two-step-fixation,197,834246,0.0-76.0-2.20,FALSE,FALSE,TRUE,TRUE,"""event"",""trial"",""time""
""blur"",""0"",""0""
""focus"",""1"",""20564""
""fullscreenenter"",""5"",""38323""
","""event"",""trial"",""time""
""blur"",""0"",""0""
","""event"",""trial"",""time""
""focus"",""1"",""20564""
","""event"",""trial"",""time""
""fullscreenenter"",""5"",""38323""
","
",NA,images/earth.jpg,NA,NA,NA,NA,NA,NA,NA,NA,NA,NA,NA,NA,NA,fixation,NA,NA,NA,NA,NA,NA,sub99
d3-animate-choice,198,836894,0.0-76.0-0.21,FALSE,FALSE,TRUE,TRUE,"""event"",""trial"",""time""
""blur"",""0"",""0""
""focus"",""1"",""20564""
""fullscreenenter"",""5"",""38323""
","""event"",""trial"",""time""
""blur"",""0"",""0""
","""event"",""trial"",""time""
""focus"",""1"",""20564""
","""event"",""trial"",""time""
""fullscreenenter"",""5"",""38323""
","
