trial_type,trial_index,time_elapsed,internal_node_id,rocket_sides,red_planet_first_rocket,red_display_order,purple_display_order,interactions,blur_events,focus_events,fullscreenenter_events,fullscreenexit_events,rt,stimulus,key_press,button_pressed,success,duration,valid_pressed,rts,keys,planet_text,right_text,left_text,center_text,chosen_text,reward_text,trial_stage,practice_trial,transition_type,choice,transition,reward,timestamp,subject_id
pavlovia,0,14,0.0-0.0,FALSE,FALSE,TRUE,TRUE,"
","
","
","
","
",NA,NA,NA,NA,NA,NA,NA,NA,NA,NA,NA,NA,NA,NA,NA,NA,NA,NA,NA,NA,NA,NA,sub140
html-keyboard-response,1,1528,0.0-1.0,FALSE,FALSE,TRUE,TRUE,"
","
","
","
","
",1511.495000013383,Welcome! Press the space bar to begin.,32,NA,NA,NA,NA,NA,NA,NA,NA,NA,NA,NA,NA,NA,NA,NA,NA,NA,NA,NA,sub140
audio-keyboard-response,2,3528,0.0-2.0,FALSE,FALSE,TRUE,TRUE,"
","
","
","
","
",1980,audio/beep_loop.wav,32,NA,NA,NA,NA,NA,NA,NA,NA,NA,NA,NA,NA,NA,NA,NA,NA,NA,NA,NA,sub140
audio-button-response,3,6232,0.0-3.0,FALSE,FALSE,TRUE,TRUE,"
","
","
","
","
",NaN,audio/fish.mp3,NA,1,NA,NA,NA,NA,NA,NA,NA,NA,NA,NA,NA,NA,NA,NA,NA,NA,NA,NA,sub140
audio-button-response,4,8820,0.0-4.0,FALSE,FALSE,TRUE,TRUE,"""event"",""trial"",""time""
""fullscreenenter"",""5"",""13118""
","
","
","""event"",""trial"",""time""
""fullscreenenter"",""5"",""13118""
","
",NaN,audio/tiger.mp3,NA,4,NA,NA,NA,NA,NA,NA,NA,NA,NA,NA,NA,NA,NA,NA,NA,NA,NA,NA,sub140
fullscreen,5,14028,0.0-5.0,FALSE,FALSE,TRUE,TRUE,"""event"",""trial"",""time""
""fullscreenenter"",""5"",""13118""
","
","
","""event"",""trial"",""time""
""fullscreenenter"",""5"",""13118""
","
",NA,NA,NA,NA,TRUE,NA,NA,NA,NA,NA,NA,NA,NA,NA,NA,NA,NA,NA,NA,NA,NA,NA,sub140
d3-instructions,6,21160,0.0-6.0,FALSE,FALSE,TRUE,TRUE,"""event"",""trial"",""time""
""fullscreenenter"",""5"",""13118""
","
","
","""event"",""trial"",""time""
""fullscreenenter"",""5"",""13118""
","
",NA,NA,NA,NA,NA,NA,NA,NA,NA,NA,NA,NA,NA,NA,NA,NA,NA,NA,NA,NA,NA,NA,sub140
d3-instructions,7,28867,0.0-7.0,FALSE,FALSE,TRUE,TRUE,"""event"",""trial"",""time""
""fullscreenenter"",""5"",""13118""
","
","
","""event"",""trial"",""time""
""fullscreenenter"",""5"",""13118""
","
",NA,NA,NA,NA,NA,NA,NA,NA,NA,NA,NA,NA,NA,NA,NA,NA,NA,NA,NA,NA,NA,NA,sub140
d3-instructions,8,34567,0.0-8.0,FALSE,FALSE,TRUE,TRUE,"""event"",""trial"",""time""
""fullscreenenter"",""5"",""13118""
","
","
","""event"",""trial"",""time""
""fullscreenenter"",""5"",""13118""
","
",NA,NA,NA,NA,NA,NA,NA,NA,NA,NA,NA,NA,NA,NA,NA,NA,NA,NA,NA,NA,NA,NA,sub140
d3-instructions,9,43661,0.0-9.0,FALSE,FALSE,TRUE,TRUE,"""event"",""trial"",""time""
""fullscreenenter"",""5"",""13118""
","
","
","""event"",""trial"",""time""
""fullscreenenter"",""5"",""13118""
","
",NA,NA,NA,NA,NA,NA,NA,NA,NA,NA,NA,NA,NA,NA,NA,NA,NA,NA,NA,NA,NA,NA,sub140
d3-instructions,10,55549,0.0-10.0,FALSE,FALSE,TRUE,TRUE,"""event"",""trial"",""time""
""fullscreenenter"",""5"",""13118""
","
","
","""event"",""trial"",""time""
""fullscreenenter"",""5"",""13118""
","
",NA,NA,NA,NA,NA,NA,NA,NA,NA,NA,NA,NA,NA,NA,NA,NA,NA,NA,NA,NA,NA,NA,sub140
d3-animate-choice,11,61473,0.0-11.0,FALSE,FALSE,TRUE,TRUE,"""event"",""trial"",""time""
""fullscreenenter"",""5"",""13118""
","
","
","""event"",""trial"",""time""
""fullscreenenter"",""5"",""13118""
","
",1918.165000010049,NA,32,NA,NA,3000,1,3912.3100000142585,49,images/tutgreenplanet.jpg,images/tutalien1,images/tutalien2,null,images/tutalien2,NA,NA,practice,null,NA,NA,NA,NA,sub140
d3-animate-choice,12,64829,0.0-12.0,FALSE,FALSE,TRUE,TRUE,"""event"",""trial"",""time""
""fullscreenenter"",""5"",""13118""
","
","
","""event"",""trial"",""time""
""fullscreenenter"",""5"",""13118""
","
",1350.3550000023097,NA,48,NA,NA,3000,1,NA,NA,images/tutgreenplanet.jpg,images/tutalien1,images/tutalien2,null,images/tutalien1,NA,NA,practice,null,NA,NA,NA,NA,sub140
d3-animate-choice,13,68288,0.0-13.0,FALSE,FALSE,TRUE,TRUE,"""event"",""trial"",""time""
""fullscreenenter"",""5"",""13118""
","
","
","""event"",""trial"",""time""
""fullscreenenter"",""5"",""13118""
","
",1451.325000001816,NA,49,NA,NA,3000,1,NA,NA,images/tutgreenplanet.jpg,images/tutalien1,images/tutalien2,null,images/tutalien2,NA,NA,practice,null,NA,NA,NA,NA,sub140
d3-animate-choice,14,71109,0.0-14.0,FALSE,FALSE,TRUE,TRUE,"""event"",""trial"",""time""
""fullscreenenter"",""5"",""13118""
","
","
","""event"",""trial"",""time""
""fullscreenenter"",""5"",""13118""
","
",817.2300000151154,NA,48,NA,NA,3000,1,NA,NA,images/tutgreenplanet.jpg,images/tutalien1,images/tutalien2,null,images/tutalien1,NA,NA,practice,null,NA,NA,NA,NA,sub140
d3-instructions,15,76462,0.0-15.0,FALSE,FALSE,TRUE,TRUE,"""event"",""trial"",""time""
""fullscreenenter"",""5"",""13118""
","
","
","""event"",""trial"",""time""
""fullscreenenter"",""5"",""13118""
","
",NA,NA,NA,NA,NA,NA,NA,NA,NA,NA,NA,NA,NA,NA,NA,NA,NA,NA,NA,NA,NA,NA,sub140
d3-instructions,16,78957,0.0-16.0,FALSE,FALSE,TRUE,TRUE,"""event"",""trial"",""time""
""fullscreenenter"",""5"",""13118""
","
","
","""event"",""trial"",""time""
""fullscreenenter"",""5"",""13118""
","
",NA,NA,NA,NA,NA,NA,NA,NA,NA,NA,NA,NA,NA,NA,NA,NA,NA,NA,NA,NA,NA,NA,sub140
d3-instructions,17,85425,0.0-17.0,FALSE,FALSE,TRUE,TRUE,"""event"",""trial"",""time""
""fullscreenenter"",""5"",""13118""
","
","
","""event"",""trial"",""time""
""fullscreenenter"",""5"",""13118""
","
",NA,NA,NA,NA,NA,NA,NA,NA,NA,NA,NA,NA,NA,NA,NA,NA,NA,NA,NA,NA,NA,NA,sub140
d3-instructions,18,94158,0.0-18.0,FALSE,FALSE,TRUE,TRUE,"""event"",""trial"",""time""
""fullscreenenter"",""5"",""13118""
","
","
","""event"",""trial"",""time""
""fullscreenenter"",""5"",""13118""
","
",NA,NA,NA,NA,NA,NA,NA,NA,NA,NA,NA,NA,NA,NA,NA,NA,NA,NA,NA,NA,NA,NA,sub140
d3-instructions,19,106549,0.0-19.0,FALSE,FALSE,TRUE,TRUE,"""event"",""trial"",""time""
""fullscreenenter"",""5"",""13118""
","
","
","""event"",""trial"",""time""
""fullscreenenter"",""5"",""13118""
","
",NA,NA,NA,NA,NA,NA,NA,NA,NA,NA,NA,NA,NA,NA,NA,NA,NA,NA,NA,NA,NA,NA,sub140
d3-animate-choice,20,109201,0.0-20.0,FALSE,FALSE,TRUE,TRUE,"""event"",""trial"",""time""
""fullscreenenter"",""5"",""13118""
","
","
","""event"",""trial"",""time""
""fullscreenenter"",""5"",""13118""
","
",644.8899999959394,NA,49,NA,NA,3000,1,1116.1399999982677,49,images/tutyellowplanet.jpg,null,images/tutalien3,null,images/tutalien3,images/nothing.png,NA,practice,null,NA,NA,NA,NA,sub140
d3-animate-choice,21,111530,0.0-21.0,FALSE,FALSE,TRUE,TRUE,"""event"",""trial"",""time""
""fullscreenenter"",""5"",""13118""
","
","
","""event"",""trial"",""time""
""fullscreenenter"",""5"",""13118""
","
",322.93500000378117,NA,49,NA,NA,3000,1,NA,NA,images/tutyellowplanet.jpg,null,images/tutalien3,null,images/tutalien3,images/t.png,NA,practice,null,NA,NA,NA,NA,sub140
d3-animate-choice,22,113852,0.0-22.0,FALSE,FALSE,TRUE,TRUE,"""event"",""trial"",""time""
""fullscreenenter"",""5"",""13118""
","
","
","""event"",""trial"",""time""
""fullscreenenter"",""5"",""13118""
","
",314.09999998868443,NA,49,NA,NA,3000,1,NA,NA,images/tutyellowplanet.jpg,null,images/tutalien3,null,images/tutalien3,images/t.png,NA,practice,null,NA,NA,NA,NA,sub140
d3-animate-choice,23,116516,0.0-23.0,FALSE,FALSE,TRUE,TRUE,"""event"",""trial"",""time""
""fullscreenenter"",""5"",""13118""
","
","
","""event"",""trial"",""time""
""fullscreenenter"",""5"",""13118""
","
",659.1199999966193,NA,49,NA,NA,3000,1,2098.0299999937415,49,images/tutyellowplanet.jpg,null,images/tutalien3,null,images/tutalien3,images/t.png,NA,practice,null,NA,NA,NA,NA,sub140
d3-animate-choice,24,118624,0.0-24.0,FALSE,FALSE,TRUE,TRUE,"""event"",""trial"",""time""
""fullscreenenter"",""5"",""13118""
","
","
","""event"",""trial"",""time""
""fullscreenenter"",""5"",""13118""
","
",100.14500000397675,NA,49,NA,NA,3000,1,NA,NA,images/tutyellowplanet.jpg,null,images/tutalien3,null,images/tutalien3,images/t.png,NA,practice,null,NA,NA,NA,NA,sub140
d3-animate-choice,25,120936,0.0-25.0,FALSE,FALSE,TRUE,TRUE,"""event"",""trial"",""time""
""fullscreenenter"",""5"",""13118""
","
","
","""event"",""trial"",""time""
""fullscreenenter"",""5"",""13118""
","
",309.9899999797344,NA,49,NA,NA,3000,1,NA,NA,images/tutyellowplanet.jpg,null,images/tutalien3,null,images/tutalien3,images/t.png,NA,practice,null,NA,NA,NA,NA,sub140
d3-animate-choice,26,122949,0.0-26.0,FALSE,FALSE,TRUE,TRUE,"""event"",""trial"",""time""
""fullscreenenter"",""5"",""13118""
","
","
","""event"",""trial"",""time""
""fullscreenenter"",""5"",""13118""
","
",9.330000000772998,NA,49,NA,NA,3000,1,NA,NA,images/tutyellowplanet.jpg,null,images/tutalien3,null,images/tutalien3,images/t.png,NA,practice,null,NA,NA,NA,NA,sub140
d3-animate-choice,27,125178,0.0-27.0,FALSE,FALSE,TRUE,TRUE,"""event"",""trial"",""time""
""fullscreenenter"",""5"",""13118""
","
","
","""event"",""trial"",""time""
""fullscreenenter"",""5"",""13118""
","
",224.90999998990446,NA,49,NA,NA,3000,1,NA,NA,images/tutyellowplanet.jpg,null,images/tutalien3,null,images/tutalien3,images/t.png,NA,practice,null,NA,NA,NA,NA,sub140
d3-animate-choice,28,127343,0.0-28.0,FALSE,FALSE,TRUE,TRUE,"""event"",""trial"",""time""
""fullscreenenter"",""5"",""13118""
","
","
","""event"",""trial"",""time""
""fullscreenenter"",""5"",""13118""
","
",156.6949999833014,NA,49,NA,NA,3000,1,NA,NA,images/tutyellowplanet.jpg,null,images/tutalien3,null,images/tutalien3,images/t.png,NA,practice,null,NA,NA,NA,NA,sub140
d3-animate-choice,29,129572,0.0-29.0,FALSE,FALSE,TRUE,TRUE,"""event"",""trial"",""time""
""fullscreenenter"",""5"",""13118""
","
","
","""event"",""trial"",""time""
""fullscreenenter"",""5"",""13118""
","
",225.56999998050742,NA,49,NA,NA,3000,1,NA,NA,images/tutyellowplanet.jpg,null,images/tutalien3,null,images/tutalien3,images/t.png,NA,practice,null,NA,NA,NA,NA,sub140
d3-instructions,30,132974,0.0-30.0,FALSE,FALSE,TRUE,TRUE,"""event"",""trial"",""time""
""fullscreenenter"",""5"",""13118""
","
","
","""event"",""trial"",""time""
""fullscreenenter"",""5"",""13118""
","
",NA,NA,NA,NA,NA,NA,NA,NA,NA,NA,NA,NA,NA,NA,NA,NA,NA,NA,NA,NA,NA,NA,sub140
d3-instructions,31,140817,0.0-31.0,FALSE,FALSE,TRUE,TRUE,"""event"",""trial"",""time""
""fullscreenenter"",""5"",""13118""
","
","
","""event"",""trial"",""time""
""fullscreenenter"",""5"",""13118""
","
",NA,NA,NA,NA,NA,NA,NA,NA,NA,NA,NA,NA,NA,NA,NA,NA,NA,NA,NA,NA,NA,NA,sub140
d3-instructions,32,148219,0.0-32.0,FALSE,FALSE,TRUE,TRUE,"""event"",""trial"",""time""
""fullscreenenter"",""5"",""13118""
","
","
","""event"",""trial"",""time""
""fullscreenenter"",""5"",""13118""
","
",NA,NA,NA,NA,NA,NA,NA,NA,NA,NA,NA,NA,NA,NA,NA,NA,NA,NA,NA,NA,NA,NA,sub140
d3-instructions,33,152386,0.0-33.0,FALSE,FALSE,TRUE,TRUE,"""event"",""trial"",""time""
""fullscreenenter"",""5"",""13118""
","
","
","""event"",""trial"",""time""
""fullscreenenter"",""5"",""13118""
","
",NA,NA,NA,NA,NA,NA,NA,NA,NA,NA,NA,NA,NA,NA,NA,NA,NA,NA,NA,NA,NA,NA,sub140
d3-animate-choice,34,155828,0.0-34.0,FALSE,FALSE,TRUE,TRUE,"""event"",""trial"",""time""
""fullscreenenter"",""5"",""13118""
","
","
","""event"",""trial"",""time""
""fullscreenenter"",""5"",""13118""
","
",1433.935000008205,NA,48,NA,NA,3000,1,NA,NA,images/tutgreenplanet.jpg,images/tutalien1,images/tutalien2,null,images/tutalien1,images/nothing.png,NA,practice,null,NA,NA,NA,NA,sub140
d3-animate-choice,35,162672,0.0-35.0,FALSE,FALSE,TRUE,TRUE,"""event"",""trial"",""time""
""fullscreenenter"",""5"",""13118""
","
","
","""event"",""trial"",""time""
""fullscreenenter"",""5"",""13118""
","
",1726.0299999907147,NA,57,NA,NA,3000,1,"3570.7600000023376,4838.369999983115",5749,images/tutgreenplanet.jpg,images/tutalien1,images/tutalien2,null,images/tutalien2,images/nothing.png,NA,practice,null,NA,NA,NA,NA,sub140
d3-animate-choice,36,166649,0.0-36.0,FALSE,FALSE,TRUE,TRUE,"""event"",""trial"",""time""
""fullscreenenter"",""5"",""13118""
","
","
","""event"",""trial"",""time""
""fullscreenenter"",""5"",""13118""
","
",1971.9700000132434,NA,49,NA,NA,3000,1,NA,NA,images/tutgreenplanet.jpg,images/tutalien1,images/tutalien2,null,images/tutalien2,images/t.png,NA,practice,null,NA,NA,NA,NA,sub140
d3-animate-choice,37,169377,0.0-37.0,FALSE,FALSE,TRUE,TRUE,"""event"",""trial"",""time""
""fullscreenenter"",""5"",""13118""
","
","
","""event"",""trial"",""time""
""fullscreenenter"",""5"",""13118""
","
",720.3250000020489,NA,49,NA,NA,3000,1,NA,NA,images/tutgreenplanet.jpg,images/tutalien1,images/tutalien2,null,images/tutalien2,images/t.png,NA,practice,null,NA,NA,NA,NA,sub140
d3-animate-choice,38,172471,0.0-38.0,FALSE,FALSE,TRUE,TRUE,"""event"",""trial"",""time""
""fullscreenenter"",""5"",""13118""
","
","
","""event"",""trial"",""time""
""fullscreenenter"",""5"",""13118""
","
",1085.9199999831617,NA,49,NA,NA,3000,1,NA,NA,images/tutgreenplanet.jpg,images/tutalien1,images/tutalien2,null,images/tutalien2,images/t.png,NA,practice,null,NA,NA,NA,NA,sub140
d3-animate-choice,39,175538,0.0-39.0,FALSE,FALSE,TRUE,TRUE,"""event"",""trial"",""time""
""fullscreenenter"",""5"",""13118""
","
","
","""event"",""trial"",""time""
""fullscreenenter"",""5"",""13118""
","
",1061.3399999856483,NA,49,NA,NA,3000,1,NA,NA,images/tutgreenplanet.jpg,images/tutalien1,images/tutalien2,null,images/tutalien2,images/t.png,NA,practice,null,NA,NA,NA,NA,sub140
d3-animate-choice,40,178159,0.0-40.0,FALSE,FALSE,TRUE,TRUE,"""event"",""trial"",""time""
""fullscreenenter"",""5"",""13118""
","
","
","""event"",""trial"",""time""
""fullscreenenter"",""5"",""13118""
","
",615.9799999732058,NA,49,NA,NA,3000,1,NA,NA,images/tutgreenplanet.jpg,images/tutalien1,images/tutalien2,null,images/tutalien2,images/t.png,NA,practice,null,NA,NA,NA,NA,sub140
d3-animate-choice,41,180505,0.0-41.0,FALSE,FALSE,TRUE,TRUE,"""event"",""trial"",""time""
""fullscreenenter"",""5"",""13118""
","
","
","""event"",""trial"",""time""
""fullscreenenter"",""5"",""13118""
","
",339.1200000187382,NA,49,NA,NA,3000,1,NA,NA,images/tutgreenplanet.jpg,images/tutalien1,images/tutalien2,null,images/tutalien2,images/t.png,NA,practice,null,NA,NA,NA,NA,sub140
d3-animate-choice,42,182789,0.0-42.0,FALSE,FALSE,TRUE,TRUE,"""event"",""trial"",""time""
""fullscreenenter"",""5"",""13118""
","
","
","""event"",""trial"",""time""
""fullscreenenter"",""5"",""13118""
","
",279.7450000070967,NA,49,NA,NA,3000,1,NA,NA,images/tutgreenplanet.jpg,images/tutalien1,images/tutalien2,null,images/tutalien2,images/t.png,NA,practice,null,NA,NA,NA,NA,sub140
d3-animate-choice,43,185143,0.0-43.0,FALSE,FALSE,TRUE,TRUE,"""event"",""trial"",""time""
""fullscreenenter"",""5"",""13118""
","
","
","""event"",""trial"",""time""
""fullscreenenter"",""5"",""13118""
","
",345.7699999853503,NA,49,NA,NA,3000,1,NA,NA,images/tutgreenplanet.jpg,images/tutalien1,images/tutalien2,null,images/tutalien2,images/t.png,NA,practice,null,NA,NA,NA,NA,sub140
d3-instructions,44,194169,0.0-44.0,FALSE,FALSE,TRUE,TRUE,"""event"",""trial"",""time""
""fullscreenenter"",""5"",""13118""
","
","
","""event"",""trial"",""time""
""fullscreenenter"",""5"",""13118""
","
",NA,NA,NA,NA,NA,NA,NA,NA,NA,NA,NA,NA,NA,NA,NA,NA,NA,NA,NA,NA,NA,NA,sub140
d3-instructions,45,197285,0.0-45.0,FALSE,FALSE,TRUE,TRUE,"""event"",""trial"",""time""
""fullscreenenter"",""5"",""13118""
","
","
","""event"",""trial"",""time""
""fullscreenenter"",""5"",""13118""
","
",NA,NA,NA,NA,NA,NA,NA,NA,NA,NA,NA,NA,NA,NA,NA,NA,NA,NA,NA,NA,NA,NA,sub140
d3-instructions,46,202118,0.0-46.0,FALSE,FALSE,TRUE,TRUE,"""event"",""trial"",""time""
""fullscreenenter"",""5"",""13118""
","
","
","""event"",""trial"",""time""
""fullscreenenter"",""5"",""13118""
","
",NA,NA,NA,NA,NA,NA,NA,NA,NA,NA,NA,NA,NA,NA,NA,NA,NA,NA,NA,NA,NA,NA,sub140
d3-instructions,47,213924,0.0-47.0,FALSE,FALSE,TRUE,TRUE,"""event"",""trial"",""time""
""fullscreenenter"",""5"",""13118""
","
","
","""event"",""trial"",""time""
""fullscreenenter"",""5"",""13118""
","
",NA,NA,NA,NA,NA,NA,NA,NA,NA,NA,NA,NA,NA,NA,NA,NA,NA,NA,NA,NA,NA,NA,sub140
d3-instructions,48,218179,0.0-48.0,FALSE,FALSE,TRUE,TRUE,"""event"",""trial"",""time""
""fullscreenenter"",""5"",""13118""
","
","
","""event"",""trial"",""time""
""fullscreenenter"",""5"",""13118""
","
",NA,NA,NA,NA,NA,NA,NA,NA,NA,NA,NA,NA,NA,NA,NA,NA,NA,NA,NA,NA,NA,NA,sub140
d3-instructions,49,226601,0.0-49.0,FALSE,FALSE,TRUE,TRUE,"""event"",""trial"",""time""
""fullscreenenter"",""5"",""13118""
","
","
","""event"",""trial"",""time""
""fullscreenenter"",""5"",""13118""
","
",NA,NA,NA,NA,NA,NA,NA,NA,NA,NA,NA,NA,NA,NA,NA,NA,NA,NA,NA,NA,NA,NA,sub140
d3-instructions,50,233689,0.0-50.0,FALSE,FALSE,TRUE,TRUE,"""event"",""trial"",""time""
""fullscreenenter"",""5"",""13118""
","
","
","""event"",""trial"",""time""
""fullscreenenter"",""5"",""13118""
","
",NA,NA,NA,NA,NA,NA,NA,NA,NA,NA,NA,NA,NA,NA,NA,NA,NA,NA,NA,NA,NA,NA,sub140
d3-instructions,51,235170,0.0-51.0,FALSE,FALSE,TRUE,TRUE,"""event"",""trial"",""time""
""fullscreenenter"",""5"",""13118""
","
","
","""event"",""trial"",""time""
""fullscreenenter"",""5"",""13118""
","
",NA,NA,NA,NA,NA,NA,NA,NA,NA,NA,NA,NA,NA,NA,NA,NA,NA,NA,NA,NA,NA,NA,sub140
d3-instructions,52,236366,0.0-52.0,FALSE,FALSE,TRUE,TRUE,"""event"",""trial"",""time""
""fullscreenenter"",""5"",""13118""
","
","
","""event"",""trial"",""time""
""fullscreenenter"",""5"",""13118""
","
",NA,NA,NA,NA,NA,NA,NA,NA,NA,NA,NA,NA,NA,NA,NA,NA,NA,NA,NA,NA,NA,NA,sub140
d3-instructions,53,242439,0.0-53.0,FALSE,FALSE,TRUE,TRUE,"""event"",""trial"",""time""
""fullscreenenter"",""5"",""13118""
","
","
","""event"",""trial"",""time""
""fullscreenenter"",""5"",""13118""
","
",NA,NA,NA,NA,NA,NA,NA,NA,NA,NA,NA,NA,NA,NA,NA,NA,NA,NA,NA,NA,NA,NA,sub140
d3-instructions,54,253940,0.0-54.0,FALSE,FALSE,TRUE,TRUE,"""event"",""trial"",""time""
""fullscreenenter"",""5"",""13118""
","
","
","""event"",""trial"",""time""
""fullscreenenter"",""5"",""13118""
","
",NA,NA,NA,NA,NA,NA,NA,NA,NA,NA,NA,NA,NA,NA,NA,NA,NA,NA,NA,NA,NA,NA,sub140
d3-instructions,55,258837,0.0-55.0,FALSE,FALSE,TRUE,TRUE,"""event"",""trial"",""time""
""fullscreenenter"",""5"",""13118""
","
","
","""event"",""trial"",""time""
""fullscreenenter"",""5"",""13118""
","
",NA,NA,NA,NA,NA,NA,NA,NA,NA,NA,NA,NA,NA,NA,NA,NA,NA,NA,NA,NA,NA,NA,sub140
d3-instructions,56,263597,0.0-56.0,FALSE,FALSE,TRUE,TRUE,"""event"",""trial"",""time""
""fullscreenenter"",""5"",""13118""
","
","
","""event"",""trial"",""time""
""fullscreenenter"",""5"",""13118""
","
",NA,NA,NA,NA,NA,NA,NA,NA,NA,NA,NA,NA,NA,NA,NA,NA,NA,NA,NA,NA,NA,NA,sub140
d3-instructions,57,269975,0.0-57.0,FALSE,FALSE,TRUE,TRUE,"""event"",""trial"",""time""
""fullscreenenter"",""5"",""13118""
","
","
","""event"",""trial"",""time""
""fullscreenenter"",""5"",""13118""
","
",NA,NA,NA,NA,NA,NA,NA,NA,NA,NA,NA,NA,NA,NA,NA,NA,NA,NA,NA,NA,NA,NA,sub140
d3-instructions,58,272509,0.0-58.0,FALSE,FALSE,TRUE,TRUE,"""event"",""trial"",""time""
""fullscreenenter"",""5"",""13118""
","
","
","""event"",""trial"",""time""
""fullscreenenter"",""5"",""13118""
","
",NA,NA,NA,NA,NA,NA,NA,NA,NA,NA,NA,NA,NA,NA,NA,NA,NA,NA,NA,NA,NA,NA,sub140
d3-instructions,59,275078,0.0-59.0,FALSE,FALSE,TRUE,TRUE,"""event"",""trial"",""time""
""fullscreenenter"",""5"",""13118""
","
","
","""event"",""trial"",""time""
""fullscreenenter"",""5"",""13118""
","
",NA,NA,NA,NA,NA,NA,NA,NA,NA,NA,NA,NA,NA,NA,NA,NA,NA,NA,NA,NA,NA,NA,sub140
d3-instructions,60,277200,0.0-60.0,FALSE,FALSE,TRUE,TRUE,"""event"",""trial"",""time""
""fullscreenenter"",""5"",""13118""
","
","
","""event"",""trial"",""time""
""fullscreenenter"",""5"",""13118""
","
",NA,NA,NA,NA,NA,NA,NA,NA,NA,NA,NA,NA,NA,NA,NA,NA,NA,NA,NA,NA,NA,NA,sub140
d3-animate-choice,61,279949,0.0-61.0-0.0,FALSE,FALSE,TRUE,TRUE,"""event"",""trial"",""time""
""fullscreenenter"",""5"",""13118""
","
","
","""event"",""trial"",""time""
""fullscreenenter"",""5"",""13118""
","
",744.3900000071153,NA,49,NA,NA,3000,1,NA,NA,images/earth.jpg,images/tutrocket1,images/tutrocket2,null,images/tutrocket2,NA,1,practice,null,1,NA,NA,NA,sub140
d3-animate-choice,62,282955,0.0-61.0-1.0,FALSE,FALSE,TRUE,TRUE,"""event"",""trial"",""time""
""fullscreenenter"",""5"",""13118""
","
","
","""event"",""trial"",""time""
""fullscreenenter"",""5"",""13118""
","
",993.7599999830127,NA,49,NA,NA,3000,1,NA,NA,images/tutgreenplanet.jpg,images/tutalien2,images/tutalien1,images/tutrocket2,images/tutalien1,images/nothing.png,2,practice,true,1,common,0,2020-06-28T20:38:17Z,sub140
two-step-fixation,63,283965,0.0-61.0-2.0,FALSE,FALSE,TRUE,TRUE,"""event"",""trial"",""time""
""fullscreenenter"",""5"",""13118""
","
","
","""event"",""trial"",""time""
""fullscreenenter"",""5"",""13118""
","
",NA,images/earth.jpg,NA,NA,NA,NA,NA,NA,NA,NA,NA,NA,NA,NA,NA,fixation,NA,NA,NA,NA,NA,NA,sub140
d3-animate-choice,64,286982,0.0-61.0-0.1,FALSE,FALSE,TRUE,TRUE,"""event"",""trial"",""time""
""fullscreenenter"",""5"",""13118""
","
","
","""event"",""trial"",""time""
""fullscreenenter"",""5"",""13118""
","
",1012.3499999754131,NA,48,NA,NA,3000,1,NA,NA,images/earth.jpg,images/tutrocket1,images/tutrocket2,null,images/tutrocket1,NA,1,practice,null,2,NA,NA,NA,sub140
d3-animate-choice,65,289785,0.0-61.0-1.1,FALSE,FALSE,TRUE,TRUE,"""event"",""trial"",""time""
""fullscreenenter"",""5"",""13118""
","
","
","""event"",""trial"",""time""
""fullscreenenter"",""5"",""13118""
","
",800.2549999800976,NA,48,NA,NA,3000,1,NA,NA,images/tutyellowplanet.jpg,images/tutalien4,images/tutalien3,images/tutrocket1,images/tutalien4,images/t.png,2,practice,true,2,common,1,2020-06-28T20:38:24Z,sub140
two-step-fixation,66,290791,0.0-61.0-2.1,FALSE,FALSE,TRUE,TRUE,"""event"",""trial"",""time""
""fullscreenenter"",""5"",""13118""
","
","
","""event"",""trial"",""time""
""fullscreenenter"",""5"",""13118""
","
",NA,images/earth.jpg,NA,NA,NA,NA,NA,NA,NA,NA,NA,NA,NA,NA,NA,fixation,NA,NA,NA,NA,NA,NA,sub140
d3-animate-choice,67,293380,0.0-61.0-0.2,FALSE,FALSE,TRUE,TRUE,"""event"",""trial"",""time""
""fullscreenenter"",""5"",""13118""
","
","
","""event"",""trial"",""time""
""fullscreenenter"",""5"",""13118""
","
",581.7150000075344,NA,48,NA,NA,3000,1,NA,NA,images/earth.jpg,images/tutrocket1,images/tutrocket2,null,images/tutrocket1,NA,1,practice,null,2,NA,NA,NA,sub140
d3-animate-choice,68,295695,0.0-61.0-1.2,FALSE,FALSE,TRUE,TRUE,"""event"",""trial"",""time""
""fullscreenenter"",""5"",""13118""
","
","
","""event"",""trial"",""time""
""fullscreenenter"",""5"",""13118""
","
",309.1100000019651,NA,48,NA,NA,3000,1,NA,NA,images/tutgreenplanet.jpg,images/tutalien2,images/tutalien1,images/tutrocket1,images/tutalien2,images/t.png,2,practice,false,2,rare,1,2020-06-28T20:38:29Z,sub140
two-step-fixation,69,296701,0.0-61.0-2.2,FALSE,FALSE,TRUE,TRUE,"""event"",""trial"",""time""
""fullscreenenter"",""5"",""13118""
","
","
","""event"",""trial"",""time""
""fullscreenenter"",""5"",""13118""
","
",NA,images/earth.jpg,NA,NA,NA,NA,NA,NA,NA,NA,NA,NA,NA,NA,NA,fixation,NA,NA,NA,NA,NA,NA,sub140
d3-animate-choice,70,299122,0.0-61.0-0.3,FALSE,FALSE,TRUE,TRUE,"""event"",""trial"",""time""
""fullscreenenter"",""5"",""13118""
","
","
","""event"",""trial"",""time""
""fullscreenenter"",""5"",""13118""
","
",416.25500001828186,NA,48,NA,NA,3000,1,NA,NA,images/earth.jpg,images/tutrocket1,images/tutrocket2,null,images/tutrocket1,NA,1,practice,null,2,NA,NA,NA,sub140
d3-animate-choice,71,301497,0.0-61.0-1.3,FALSE,FALSE,TRUE,TRUE,"""event"",""trial"",""time""
""fullscreenenter"",""5"",""13118""
","
","
","""event"",""trial"",""time""
""fullscreenenter"",""5"",""13118""
","
",369.7849999880418,NA,48,NA,NA,3000,1,NA,NA,images/tutgreenplanet.jpg,images/tutalien2,images/tutalien1,images/tutrocket1,images/tutalien2,images/nothing.png,2,practice,false,2,rare,0,2020-06-28T20:38:35Z,sub140
two-step-fixation,72,302504,0.0-61.0-2.3,FALSE,FALSE,TRUE,TRUE,"""event"",""trial"",""time""
""fullscreenenter"",""5"",""13118""
","
","
","""event"",""trial"",""time""
""fullscreenenter"",""5"",""13118""
","
",NA,images/earth.jpg,NA,NA,NA,NA,NA,NA,NA,NA,NA,NA,NA,NA,NA,fixation,NA,NA,NA,NA,NA,NA,sub140
d3-animate-choice,73,305100,0.0-61.0-0.4,FALSE,FALSE,TRUE,TRUE,"""event"",""trial"",""time""
""fullscreenenter"",""5"",""13118""
","
","
","""event"",""trial"",""time""
""fullscreenenter"",""5"",""13118""
","
",588.5850000195205,NA,48,NA,NA,3000,1,NA,NA,images/earth.jpg,images/tutrocket1,images/tutrocket2,null,images/tutrocket1,NA,1,practice,null,2,NA,NA,NA,sub140
d3-animate-choice,74,307451,0.0-61.0-1.4,FALSE,FALSE,TRUE,TRUE,"""event"",""trial"",""time""
""fullscreenenter"",""5"",""13118""
","
","
","""event"",""trial"",""time""
""fullscreenenter"",""5"",""13118""
","
",345.564999995986,NA,48,NA,NA,3000,1,NA,NA,images/tutyellowplanet.jpg,images/tutalien4,images/tutalien3,images/tutrocket1,images/tutalien4,images/t.png,2,practice,true,2,common,1,2020-06-28T20:38:41Z,sub140
two-step-fixation,75,308458,0.0-61.0-2.4,FALSE,FALSE,TRUE,TRUE,"""event"",""trial"",""time""
""fullscreenenter"",""5"",""13118""
","
","
","""event"",""trial"",""time""
""fullscreenenter"",""5"",""13118""
","
",NA,images/earth.jpg,NA,NA,NA,NA,NA,NA,NA,NA,NA,NA,NA,NA,NA,fixation,NA,NA,NA,NA,NA,NA,sub140
d3-animate-choice,76,310884,0.0-61.0-0.5,FALSE,FALSE,TRUE,TRUE,"""event"",""trial"",""time""
""fullscreenenter"",""5"",""13118""
","
","
","""event"",""trial"",""time""
""fullscreenenter"",""5"",""13118""
","
",421.055000013439,NA,48,NA,NA,3000,1,NA,NA,images/earth.jpg,images/tutrocket1,images/tutrocket2,null,images/tutrocket1,NA,1,practice,null,2,NA,NA,NA,sub140
d3-animate-choice,77,313351,0.0-61.0-1.5,FALSE,FALSE,TRUE,TRUE,"""event"",""trial"",""time""
""fullscreenenter"",""5"",""13118""
","
","
","""event"",""trial"",""time""
""fullscreenenter"",""5"",""13118""
","
",460.5149999842979,NA,48,NA,NA,3000,1,NA,NA,images/tutyellowplanet.jpg,images/tutalien4,images/tutalien3,images/tutrocket1,images/tutalien4,images/t.png,2,practice,true,2,common,1,2020-06-28T20:38:47Z,sub140
two-step-fixation,78,314356,0.0-61.0-2.5,FALSE,FALSE,TRUE,TRUE,"""event"",""trial"",""time""
""fullscreenenter"",""5"",""13118""
","
","
","""event"",""trial"",""time""
""fullscreenenter"",""5"",""13118""
","
",NA,images/earth.jpg,NA,NA,NA,NA,NA,NA,NA,NA,NA,NA,NA,NA,NA,fixation,NA,NA,NA,NA,NA,NA,sub140
d3-animate-choice,79,316748,0.0-61.0-0.6,FALSE,FALSE,TRUE,TRUE,"""event"",""trial"",""time""
""fullscreenenter"",""5"",""13118""
","
","
","""event"",""trial"",""time""
""fullscreenenter"",""5"",""13118""
","
",386.23499998357147,NA,48,NA,NA,3000,1,NA,NA,images/earth.jpg,images/tutrocket1,images/tutrocket2,null,images/tutrocket1,NA,1,practice,null,2,NA,NA,NA,sub140
d3-animate-choice,80,319203,0.0-61.0-1.6,FALSE,FALSE,TRUE,TRUE,"""event"",""trial"",""time""
""fullscreenenter"",""5"",""13118""
","
","
","""event"",""trial"",""time""
""fullscreenenter"",""5"",""13118""
","
",450.6000000110362,NA,48,NA,NA,3000,1,NA,NA,images/tutyellowplanet.jpg,images/tutalien4,images/tutalien3,images/tutrocket1,images/tutalien4,images/t.png,2,practice,true,2,common,1,2020-06-28T20:38:53Z,sub140
two-step-fixation,81,320211,0.0-61.0-2.6,FALSE,FALSE,TRUE,TRUE,"""event"",""trial"",""time""
""fullscreenenter"",""5"",""13118""
","
","
","""event"",""trial"",""time""
""fullscreenenter"",""5"",""13118""
","
",NA,images/earth.jpg,NA,NA,NA,NA,NA,NA,NA,NA,NA,NA,NA,NA,NA,fixation,NA,NA,NA,NA,NA,NA,sub140
d3-animate-choice,82,322543,0.0-61.0-0.7,FALSE,FALSE,TRUE,TRUE,"""event"",""trial"",""time""
""fullscreenenter"",""5"",""13118""
","
","
","""event"",""trial"",""time""
""fullscreenenter"",""5"",""13118""
","
",325.97000000532717,NA,48,NA,NA,3000,1,NA,NA,images/earth.jpg,images/tutrocket1,images/tutrocket2,null,images/tutrocket1,NA,1,practice,null,2,NA,NA,NA,sub140
d3-animate-choice,83,324886,0.0-61.0-1.7,FALSE,FALSE,TRUE,TRUE,"""event"",""trial"",""time""
""fullscreenenter"",""5"",""13118""
","
","
","""event"",""trial"",""time""
""fullscreenenter"",""5"",""13118""
","
",334.96499998727813,NA,48,NA,NA,3000,1,NA,NA,images/tutyellowplanet.jpg,images/tutalien4,images/tutalien3,images/tutrocket1,images/tutalien4,images/nothing.png,2,practice,true,2,common,0,2020-06-28T20:38:59Z,sub140
two-step-fixation,84,325890,0.0-61.0-2.7,FALSE,FALSE,TRUE,TRUE,"""event"",""trial"",""time""
""fullscreenenter"",""5"",""13118""
","
","
","""event"",""trial"",""time""
""fullscreenenter"",""5"",""13118""
","
",NA,images/earth.jpg,NA,NA,NA,NA,NA,NA,NA,NA,NA,NA,NA,NA,NA,fixation,NA,NA,NA,NA,NA,NA,sub140
d3-animate-choice,85,328308,0.0-61.0-0.8,FALSE,FALSE,TRUE,TRUE,"""event"",""trial"",""time""
""fullscreenenter"",""5"",""13118""
","
","
","""event"",""trial"",""time""
""fullscreenenter"",""5"",""13118""
","
",412.84999999334104,NA,48,NA,NA,3000,1,NA,NA,images/earth.jpg,images/tutrocket1,images/tutrocket2,null,images/tutrocket1,NA,1,practice,null,2,NA,NA,NA,sub140
d3-animate-choice,86,330635,0.0-61.0-1.8,FALSE,FALSE,TRUE,TRUE,"""event"",""trial"",""time""
""fullscreenenter"",""5"",""13118""
","
","
","""event"",""trial"",""time""
""fullscreenenter"",""5"",""13118""
","
",321.1600000213366,NA,49,NA,NA,3000,1,NA,NA,images/tutyellowplanet.jpg,images/tutalien4,images/tutalien3,images/tutrocket1,images/tutalien3,images/nothing.png,2,practice,true,1,common,0,2020-06-28T20:39:04Z,sub140
two-step-fixation,87,331640,0.0-61.0-2.8,FALSE,FALSE,TRUE,TRUE,"""event"",""trial"",""time""
""fullscreenenter"",""5"",""13118""
","
","
","""event"",""trial"",""time""
""fullscreenenter"",""5"",""13118""
","
",NA,images/earth.jpg,NA,NA,NA,NA,NA,NA,NA,NA,NA,NA,NA,NA,NA,fixation,NA,NA,NA,NA,NA,NA,sub140
d3-animate-choice,88,333953,0.0-61.0-0.9,FALSE,FALSE,TRUE,TRUE,"""event"",""trial"",""time""
""fullscreenenter"",""5"",""13118""
","
","
","""event"",""trial"",""time""
""fullscreenenter"",""5"",""13118""
","
",306.8550000025425,NA,48,NA,NA,3000,1,NA,NA,images/earth.jpg,images/tutrocket1,images/tutrocket2,null,images/tutrocket1,NA,1,practice,null,2,NA,NA,NA,sub140
d3-animate-choice,89,336207,0.0-61.0-1.9,FALSE,FALSE,TRUE,TRUE,"""event"",""trial"",""time""
""fullscreenenter"",""5"",""13118""
","
","
","""event"",""trial"",""time""
""fullscreenenter"",""5"",""13118""
","
",246.49499999941327,NA,48,NA,NA,3000,1,NA,NA,images/tutyellowplanet.jpg,images/tutalien4,images/tutalien3,images/tutrocket1,images/tutalien4,images/t.png,2,practice,true,2,common,1,2020-06-28T20:39:10Z,sub140
two-step-fixation,90,337214,0.0-61.0-2.9,FALSE,FALSE,TRUE,TRUE,"""event"",""trial"",""time""
""fullscreenenter"",""5"",""13118""
","
","
","""event"",""trial"",""time""
""fullscreenenter"",""5"",""13118""
","
",NA,images/earth.jpg,NA,NA,NA,NA,NA,NA,NA,NA,NA,NA,NA,NA,NA,fixation,NA,NA,NA,NA,NA,NA,sub140
d3-animate-choice,91,339527,0.0-61.0-0.10,FALSE,FALSE,TRUE,TRUE,"""event"",""trial"",""time""
""fullscreenenter"",""5"",""13118""
","
","
","""event"",""trial"",""time""
""fullscreenenter"",""5"",""13118""
","
",308.56500001391396,NA,48,NA,NA,3000,1,NA,NA,images/earth.jpg,images/tutrocket1,images/tutrocket2,null,images/tutrocket1,NA,1,practice,null,2,NA,NA,NA,sub140
d3-animate-choice,92,341855,0.0-61.0-1.10,FALSE,FALSE,TRUE,TRUE,"""event"",""trial"",""time""
""fullscreenenter"",""5"",""13118""
","
","
","""event"",""trial"",""time""
""fullscreenenter"",""5"",""13118""
","
",322.4900000204798,NA,48,NA,NA,3000,1,NA,NA,images/tutyellowplanet.jpg,images/tutalien4,images/tutalien3,images/tutrocket1,images/tutalien4,images/nothing.png,2,practice,true,2,common,0,2020-06-28T20:39:16Z,sub140
two-step-fixation,93,342858,0.0-61.0-2.10,FALSE,FALSE,TRUE,TRUE,"""event"",""trial"",""time""
""fullscreenenter"",""5"",""13118""
","
","
","""event"",""trial"",""time""
""fullscreenenter"",""5"",""13118""
","
",NA,images/earth.jpg,NA,NA,NA,NA,NA,NA,NA,NA,NA,NA,NA,NA,NA,fixation,NA,NA,NA,NA,NA,NA,sub140
d3-animate-choice,94,345320,0.0-61.0-0.11,FALSE,FALSE,TRUE,TRUE,"""event"",""trial"",""time""
""fullscreenenter"",""5"",""13118""
","
","
","""event"",""trial"",""time""
""fullscreenenter"",""5"",""13118""
","
",454.4999999925494,NA,48,NA,NA,3000,1,NA,NA,images/earth.jpg,images/tutrocket1,images/tutrocket2,null,images/tutrocket1,NA,1,practice,null,2,NA,NA,NA,sub140
d3-animate-choice,95,347613,0.0-61.0-1.11,FALSE,FALSE,TRUE,TRUE,"""event"",""trial"",""time""
""fullscreenenter"",""5"",""13118""
","
","
","""event"",""trial"",""time""
""fullscreenenter"",""5"",""13118""
","
",285.27500000200234,NA,48,NA,NA,3000,1,NA,NA,images/tutyellowplanet.jpg,images/tutalien4,images/tutalien3,images/tutrocket1,images/tutalien4,images/t.png,2,practice,true,2,common,1,2020-06-28T20:39:21Z,sub140
two-step-fixation,96,348617,0.0-61.0-2.11,FALSE,FALSE,TRUE,TRUE,"""event"",""trial"",""time""
""fullscreenenter"",""5"",""13118""
","
","
","""event"",""trial"",""time""
""fullscreenenter"",""5"",""13118""
","
",NA,images/earth.jpg,NA,NA,NA,NA,NA,NA,NA,NA,NA,NA,NA,NA,NA,fixation,NA,NA,NA,NA,NA,NA,sub140
d3-animate-choice,97,351038,0.0-61.0-0.12,FALSE,FALSE,TRUE,TRUE,"""event"",""trial"",""time""
""fullscreenenter"",""5"",""13118""
","
","
","""event"",""trial"",""time""
""fullscreenenter"",""5"",""13118""
","
",417.47500002384186,NA,48,NA,NA,3000,1,NA,NA,images/earth.jpg,images/tutrocket1,images/tutrocket2,null,images/tutrocket1,NA,1,practice,null,2,NA,NA,NA,sub140
d3-animate-choice,98,353379,0.0-61.0-1.12,FALSE,FALSE,TRUE,TRUE,"""event"",""trial"",""time""
""fullscreenenter"",""5"",""13118""
","
","
","""event"",""trial"",""time""
""fullscreenenter"",""5"",""13118""
","
",333.01999999093823,NA,48,NA,NA,3000,1,NA,NA,images/tutgreenplanet.jpg,images/tutalien2,images/tutalien1,images/tutrocket1,images/tutalien2,images/nothing.png,2,practice,false,2,rare,0,2020-06-28T20:39:27Z,sub140
two-step-fixation,99,354386,0.0-61.0-2.12,FALSE,FALSE,TRUE,TRUE,"""event"",""trial"",""time""
""fullscreenenter"",""5"",""13118""
","
","
","""event"",""trial"",""time""
""fullscreenenter"",""5"",""13118""
","
",NA,images/earth.jpg,NA,NA,NA,NA,NA,NA,NA,NA,NA,NA,NA,NA,NA,fixation,NA,NA,NA,NA,NA,NA,sub140
d3-animate-choice,100,356703,0.0-61.0-0.13,FALSE,FALSE,TRUE,TRUE,"""event"",""trial"",""time""
""fullscreenenter"",""5"",""13118""
","
","
","""event"",""trial"",""time""
""fullscreenenter"",""5"",""13118""
","
",309.84500001068227,NA,48,NA,NA,3000,1,NA,NA,images/earth.jpg,images/tutrocket1,images/tutrocket2,null,images/tutrocket1,NA,1,practice,null,2,NA,NA,NA,sub140
d3-animate-choice,101,359231,0.0-61.0-1.13,FALSE,FALSE,TRUE,TRUE,"""event"",""trial"",""time""
""fullscreenenter"",""5"",""13118""
","
","
","""event"",""trial"",""time""
""fullscreenenter"",""5"",""13118""
","
",524.055000016233,NA,49,NA,NA,3000,1,NA,NA,images/tutgreenplanet.jpg,images/tutalien2,images/tutalien1,images/tutrocket1,images/tutalien1,images/nothing.png,2,practice,false,1,rare,0,2020-06-28T20:39:33Z,sub140
two-step-fixation,102,360239,0.0-61.0-2.13,FALSE,FALSE,TRUE,TRUE,"""event"",""trial"",""time""
""fullscreenenter"",""5"",""13118""
","
","
","""event"",""trial"",""time""
""fullscreenenter"",""5"",""13118""
","
",NA,images/earth.jpg,NA,NA,NA,NA,NA,NA,NA,NA,NA,NA,NA,NA,NA,fixation,NA,NA,NA,NA,NA,NA,sub140
d3-animate-choice,103,362567,0.0-61.0-0.14,FALSE,FALSE,TRUE,TRUE,"""event"",""trial"",""time""
""fullscreenenter"",""5"",""13118""
","
","
","""event"",""trial"",""time""
""fullscreenenter"",""5"",""13118""
","
",324.0500000247266,NA,48,NA,NA,3000,1,NA,NA,images/earth.jpg,images/tutrocket1,images/tutrocket2,null,images/tutrocket1,NA,1,practice,null,2,NA,NA,NA,sub140
d3-animate-choice,104,364872,0.0-61.0-1.14,FALSE,FALSE,TRUE,TRUE,"""event"",""trial"",""time""
""fullscreenenter"",""5"",""13118""
","
","
","""event"",""trial"",""time""
""fullscreenenter"",""5"",""13118""
","
",297.66499999095686,NA,48,NA,NA,3000,1,NA,NA,images/tutgreenplanet.jpg,images/tutalien2,images/tutalien1,images/tutrocket1,images/tutalien2,images/t.png,2,practice,false,2,rare,1,2020-06-28T20:39:39Z,sub140
two-step-fixation,105,365881,0.0-61.0-2.14,FALSE,FALSE,TRUE,TRUE,"""event"",""trial"",""time""
""fullscreenenter"",""5"",""13118""
","
","
","""event"",""trial"",""time""
""fullscreenenter"",""5"",""13118""
","
",NA,images/earth.jpg,NA,NA,NA,NA,NA,NA,NA,NA,NA,NA,NA,NA,NA,fixation,NA,NA,NA,NA,NA,NA,sub140
d3-animate-choice,106,368552,0.0-61.0-0.15,FALSE,FALSE,TRUE,TRUE,"""event"",""trial"",""time""
""fullscreenenter"",""5"",""13118""
","
","
","""event"",""trial"",""time""
""fullscreenenter"",""5"",""13118""
","
",663.6799999978393,NA,48,NA,NA,3000,1,NA,NA,images/earth.jpg,images/tutrocket1,images/tutrocket2,null,images/tutrocket1,NA,1,practice,null,2,NA,NA,NA,sub140
d3-animate-choice,107,370859,0.0-61.0-1.15,FALSE,FALSE,TRUE,TRUE,"""event"",""trial"",""time""
""fullscreenenter"",""5"",""13118""
","
","
","""event"",""trial"",""time""
""fullscreenenter"",""5"",""13118""
","
",302.86999998497777,NA,48,NA,NA,3000,1,NA,NA,images/tutyellowplanet.jpg,images/tutalien4,images/tutalien3,images/tutrocket1,images/tutalien4,images/nothing.png,2,practice,true,2,common,0,2020-06-28T20:39:45Z,sub140
two-step-fixation,108,371863,0.0-61.0-2.15,FALSE,FALSE,TRUE,TRUE,"""event"",""trial"",""time""
""fullscreenenter"",""5"",""13118""
","
","
","""event"",""trial"",""time""
""fullscreenenter"",""5"",""13118""
","
",NA,images/earth.jpg,NA,NA,NA,NA,NA,NA,NA,NA,NA,NA,NA,NA,NA,fixation,NA,NA,NA,NA,NA,NA,sub140
d3-animate-choice,109,374297,0.0-61.0-0.16,FALSE,FALSE,TRUE,TRUE,"""event"",""trial"",""time""
""fullscreenenter"",""5"",""13118""
","
","
","""event"",""trial"",""time""
""fullscreenenter"",""5"",""13118""
","
",429.45500000496395,NA,48,NA,NA,3000,1,2186.019999993732,48,images/earth.jpg,images/tutrocket1,images/tutrocket2,null,images/tutrocket1,NA,1,practice,null,2,NA,NA,NA,sub140
d3-animate-choice,110,376576,0.0-61.0-1.16,FALSE,FALSE,TRUE,TRUE,"""event"",""trial"",""time""
""fullscreenenter"",""5"",""13118""
","
","
","""event"",""trial"",""time""
""fullscreenenter"",""5"",""13118""
","
",275.51999999559484,NA,48,NA,NA,3000,1,NA,NA,images/tutyellowplanet.jpg,images/tutalien4,images/tutalien3,images/tutrocket1,images/tutalien4,images/nothing.png,2,practice,true,2,common,0,2020-06-28T20:39:50Z,sub140
two-step-fixation,111,377580,0.0-61.0-2.16,FALSE,FALSE,TRUE,TRUE,"""event"",""trial"",""time""
""fullscreenenter"",""5"",""13118""
","
","
","""event"",""trial"",""time""
""fullscreenenter"",""5"",""13118""
","
",NA,images/earth.jpg,NA,NA,NA,NA,NA,NA,NA,NA,NA,NA,NA,NA,NA,fixation,NA,NA,NA,NA,NA,NA,sub140
d3-animate-choice,112,379964,0.0-61.0-0.17,FALSE,FALSE,TRUE,TRUE,"""event"",""trial"",""time""
""fullscreenenter"",""5"",""13118""
","
","
","""event"",""trial"",""time""
""fullscreenenter"",""5"",""13118""
","
",378.9499999838881,NA,49,NA,NA,3000,1,NA,NA,images/earth.jpg,images/tutrocket1,images/tutrocket2,null,images/tutrocket2,NA,1,practice,null,1,NA,NA,NA,sub140
d3-animate-choice,113,382266,0.0-61.0-1.17,FALSE,FALSE,TRUE,TRUE,"""event"",""trial"",""time""
""fullscreenenter"",""5"",""13118""
","
","
","""event"",""trial"",""time""
""fullscreenenter"",""5"",""13118""
","
",298.5800000024028,NA,48,NA,NA,3000,1,NA,NA,images/tutgreenplanet.jpg,images/tutalien2,images/tutalien1,images/tutrocket2,images/tutalien2,images/t.png,2,practice,true,2,common,1,2020-06-28T20:39:56Z,sub140
two-step-fixation,114,383270,0.0-61.0-2.17,FALSE,FALSE,TRUE,TRUE,"""event"",""trial"",""time""
""fullscreenenter"",""5"",""13118""
","
","
","""event"",""trial"",""time""
""fullscreenenter"",""5"",""13118""
","
",NA,images/earth.jpg,NA,NA,NA,NA,NA,NA,NA,NA,NA,NA,NA,NA,NA,fixation,NA,NA,NA,NA,NA,NA,sub140
d3-animate-choice,115,385582,0.0-61.0-0.18,FALSE,FALSE,TRUE,TRUE,"""event"",""trial"",""time""
""fullscreenenter"",""5"",""13118""
","
","
","""event"",""trial"",""time""
""fullscreenenter"",""5"",""13118""
","
",309.834999992745,NA,49,NA,NA,3000,1,NA,NA,images/earth.jpg,images/tutrocket1,images/tutrocket2,null,images/tutrocket2,NA,1,practice,null,1,NA,NA,NA,sub140
d3-animate-choice,116,387981,0.0-61.0-1.18,FALSE,FALSE,TRUE,TRUE,"""event"",""trial"",""time""
""fullscreenenter"",""5"",""13118""
","
","
","""event"",""trial"",""time""
""fullscreenenter"",""5"",""13118""
","
",392.3400000203401,NA,48,NA,NA,3000,1,NA,NA,images/tutgreenplanet.jpg,images/tutalien2,images/tutalien1,images/tutrocket2,images/tutalien2,images/t.png,2,practice,true,2,common,1,2020-06-28T20:40:02Z,sub140
two-step-fixation,117,388987,0.0-61.0-2.18,FALSE,FALSE,TRUE,TRUE,"""event"",""trial"",""time""
""fullscreenenter"",""5"",""13118""
","
","
","""event"",""trial"",""time""
""fullscreenenter"",""5"",""13118""
","
",NA,images/earth.jpg,NA,NA,NA,NA,NA,NA,NA,NA,NA,NA,NA,NA,NA,fixation,NA,NA,NA,NA,NA,NA,sub140
d3-animate-choice,118,391292,0.0-61.0-0.19,FALSE,FALSE,TRUE,TRUE,"""event"",""trial"",""time""
""fullscreenenter"",""5"",""13118""
","
","
","""event"",""trial"",""time""
""fullscreenenter"",""5"",""13118""
","
",298.5249999910593,NA,49,NA,NA,3000,1,NA,NA,images/earth.jpg,images/tutrocket1,images/tutrocket2,null,images/tutrocket2,NA,1,practice,null,1,NA,NA,NA,sub140
d3-animate-choice,119,393781,0.0-61.0-1.19,FALSE,FALSE,TRUE,TRUE,"""event"",""trial"",""time""
""fullscreenenter"",""5"",""13118""
","
","
","""event"",""trial"",""time""
""fullscreenenter"",""5"",""13118""
","
",485.99499999545515,NA,48,NA,NA,3000,1,NA,NA,images/tutyellowplanet.jpg,images/tutalien4,images/tutalien3,images/tutrocket2,images/tutalien4,images/t.png,2,practice,false,2,rare,1,2020-06-28T20:40:08Z,sub140
two-step-fixation,120,394785,0.0-61.0-2.19,FALSE,FALSE,TRUE,TRUE,"""event"",""trial"",""time""
""fullscreenenter"",""5"",""13118""
","
","
","""event"",""trial"",""time""
""fullscreenenter"",""5"",""13118""
","
",NA,images/earth.jpg,NA,NA,NA,NA,NA,NA,NA,NA,NA,NA,NA,NA,NA,fixation,NA,NA,NA,NA,NA,NA,sub140
d3-instructions,121,398518,0.0-62.0,FALSE,FALSE,TRUE,TRUE,"""event"",""trial"",""time""
""fullscreenenter"",""5"",""13118""
","
","
","""event"",""trial"",""time""
""fullscreenenter"",""5"",""13118""
","
",NA,NA,NA,NA,NA,NA,NA,NA,NA,NA,NA,NA,NA,NA,NA,NA,NA,NA,NA,NA,NA,NA,sub140
audio-keyboard-response,122,403555,0.0-63.0,FALSE,FALSE,TRUE,TRUE,"""event"",""trial"",""time""
""fullscreenenter"",""5"",""13118""
","
","
","""event"",""trial"",""time""
""fullscreenenter"",""5"",""13118""
","
",5033,audio/instructions/treasure_feedback.wav,32,NA,NA,NA,NA,NA,NA,NA,NA,NA,NA,NA,NA,NA,NA,NA,NA,NA,NA,NA,sub140
d3-instructions,123,410485,0.0-64.0,FALSE,FALSE,TRUE,TRUE,"""event"",""trial"",""time""
""fullscreenenter"",""5"",""13118""
","
","
","""event"",""trial"",""time""
""fullscreenenter"",""5"",""13118""
","
",NA,NA,NA,NA,NA,NA,NA,NA,NA,NA,NA,NA,NA,NA,NA,NA,NA,NA,NA,NA,NA,NA,sub140
d3-instructions,124,416741,0.0-65.0,FALSE,FALSE,TRUE,TRUE,"""event"",""trial"",""time""
""fullscreenenter"",""5"",""13118""
","
","
","""event"",""trial"",""time""
""fullscreenenter"",""5"",""13118""
","
",NA,NA,NA,NA,NA,NA,NA,NA,NA,NA,NA,NA,NA,NA,NA,NA,NA,NA,NA,NA,NA,NA,sub140
d3-instructions,125,433462,0.0-66.0,FALSE,FALSE,TRUE,TRUE,"""event"",""trial"",""time""
""fullscreenenter"",""5"",""13118""
","
","
","""event"",""trial"",""time""
""fullscreenenter"",""5"",""13118""
","
",NA,NA,NA,NA,NA,NA,NA,NA,NA,NA,NA,NA,NA,NA,NA,NA,NA,NA,NA,NA,NA,NA,sub140
d3-instructions,126,445140,0.0-67.0,FALSE,FALSE,TRUE,TRUE,"""event"",""trial"",""time""
""fullscreenenter"",""5"",""13118""
","
","
","""event"",""trial"",""time""
""fullscreenenter"",""5"",""13118""
","
",NA,NA,NA,NA,NA,NA,NA,NA,NA,NA,NA,NA,NA,NA,NA,NA,NA,NA,NA,NA,NA,NA,sub140
d3-instructions,127,447613,0.0-68.0,FALSE,FALSE,TRUE,TRUE,"""event"",""trial"",""time""
""fullscreenenter"",""5"",""13118""
","
","
","""event"",""trial"",""time""
""fullscreenenter"",""5"",""13118""
","
",NA,NA,NA,NA,NA,NA,NA,NA,NA,NA,NA,NA,NA,NA,NA,NA,NA,NA,NA,NA,NA,NA,sub140
instructions-quiz,128,450083,0.0-69.0,FALSE,FALSE,TRUE,TRUE,"""event"",""trial"",""time""
""fullscreenenter"",""5"",""13118""
","
","
","""event"",""trial"",""time""
""fullscreenenter"",""5"",""13118""
","
",2466.6049999941606,audio/quiz/Q1_Prompt.wav,NA,1,NA,NA,NA,NA,NA,NA,NA,NA,NA,NA,NA,NA,NA,NA,NA,NA,NA,NA,sub140
audio-keyboard-response,129,459255,0.0-70.0,FALSE,FALSE,TRUE,TRUE,"""event"",""trial"",""time""
""fullscreenenter"",""5"",""13118""
","
","
","""event"",""trial"",""time""
""fullscreenenter"",""5"",""13118""
","
",null,audio/quiz/Q1_Correct.wav,null,NA,NA,NA,NA,NA,NA,NA,NA,NA,NA,NA,NA,NA,NA,NA,NA,NA,NA,NA,sub140
instructions-quiz,130,463137,0.0-71.0,FALSE,FALSE,TRUE,TRUE,"""event"",""trial"",""time""
""fullscreenenter"",""5"",""13118""
","
","
","""event"",""trial"",""time""
""fullscreenenter"",""5"",""13118""
","
",3880.7600000000093,audio/quiz/Q2_Prompt.wav,NA,0,NA,NA,NA,NA,NA,NA,NA,NA,NA,NA,NA,NA,NA,NA,NA,NA,NA,NA,sub140
audio-keyboard-response,131,476009,0.0-72.0,FALSE,FALSE,TRUE,TRUE,"""event"",""trial"",""time""
""fullscreenenter"",""5"",""13118""
","
","
","""event"",""trial"",""time""
""fullscreenenter"",""5"",""13118""
","
",null,audio/quiz/Q2_Correct.wav,null,NA,NA,NA,NA,NA,NA,NA,NA,NA,NA,NA,NA,NA,NA,NA,NA,NA,NA,NA,sub140
instructions-quiz,132,477850,0.0-73.0,FALSE,FALSE,TRUE,TRUE,"""event"",""trial"",""time""
""fullscreenenter"",""5"",""13118""
","
","
","""event"",""trial"",""time""
""fullscreenenter"",""5"",""13118""
","
",1840.2050000149757,audio/quiz/Q3_Prompt.wav,NA,1,NA,NA,NA,NA,NA,NA,NA,NA,NA,NA,NA,NA,NA,NA,NA,NA,NA,NA,sub140
audio-keyboard-response,133,482802,0.0-74.0,FALSE,FALSE,TRUE,TRUE,"""event"",""trial"",""time""
""fullscreenenter"",""5"",""13118""
","
","
","""event"",""trial"",""time""
""fullscreenenter"",""5"",""13118""
","
",4952,audio/quiz/Q3_Correct.wav,32,NA,NA,NA,NA,NA,NA,NA,NA,NA,NA,NA,NA,NA,NA,NA,NA,NA,NA,NA,sub140
d3-instructions,134,486426,0.0-75.0,FALSE,FALSE,TRUE,TRUE,"""event"",""trial"",""time""
""fullscreenenter"",""5"",""13118""
","
","
","""event"",""trial"",""time""
""fullscreenenter"",""5"",""13118""
","
",NA,NA,NA,NA,NA,NA,NA,NA,NA,NA,NA,NA,NA,NA,NA,NA,NA,NA,NA,NA,NA,NA,sub140
d3-animate-choice,135,490028,0.0-76.0-0.0,FALSE,FALSE,TRUE,TRUE,"""event"",""trial"",""time""
""fullscreenenter"",""5"",""13118""
","
","
","""event"",""trial"",""time""
""fullscreenenter"",""5"",""13118""
","
",1594.0499999851454,NA,48,NA,NA,3000,1,NA,NA,images/earth.jpg,images/rocket1,images/rocket2,null,images/rocket1,NA,1,real,null,2,NA,NA,NA,sub140
d3-animate-choice,136,492390,0.0-76.0-1.0,FALSE,FALSE,TRUE,TRUE,"""event"",""trial"",""time""
""fullscreenenter"",""5"",""13118""
","
","
","""event"",""trial"",""time""
""fullscreenenter"",""5"",""13118""
","
",354.0599999832921,NA,49,NA,NA,3000,1,NA,NA,images/redplanet1.jpg,images/alien2,images/alien1,images/rocket1,images/alien1,images/t.png,2,real,false,1,rare,1,2020-06-28T20:41:46Z,sub140
two-step-fixation,137,493395,0.0-76.0-2.0,FALSE,FALSE,TRUE,TRUE,"""event"",""trial"",""time""
""fullscreenenter"",""5"",""13118""
","
","
","""event"",""trial"",""time""
""fullscreenenter"",""5"",""13118""
","
",NA,images/earth.jpg,NA,NA,NA,NA,NA,NA,NA,NA,NA,NA,NA,NA,NA,fixation,NA,NA,NA,NA,NA,NA,sub140
d3-animate-choice,138,495763,0.0-76.0-0.1,FALSE,FALSE,TRUE,TRUE,"""event"",""trial"",""time""
""fullscreenenter"",""5"",""13118""
","
","
","""event"",""trial"",""time""
""fullscreenenter"",""5"",""13118""
","
",361.95999998017214,NA,48,NA,NA,3000,1,NA,NA,images/earth.jpg,images/rocket1,images/rocket2,null,images/rocket1,NA,1,real,null,2,NA,NA,NA,sub140
d3-animate-choice,139,498005,0.0-76.0-1.1,FALSE,FALSE,TRUE,TRUE,"""event"",""trial"",""time""
""fullscreenenter"",""5"",""13118""
","
","
","""event"",""trial"",""time""
""fullscreenenter"",""5"",""13118""
","
",238.02999997860752,NA,49,NA,NA,3000,1,NA,NA,images/purpleplanet.jpg,images/alien4,images/alien3,images/rocket1,images/alien3,images/nothing.png,2,real,true,1,common,0,2020-06-28T20:41:52Z,sub140
two-step-fixation,140,499011,0.0-76.0-2.1,FALSE,FALSE,TRUE,TRUE,"""event"",""trial"",""time""
""fullscreenenter"",""5"",""13118""
","
","
","""event"",""trial"",""time""
""fullscreenenter"",""5"",""13118""
","
",NA,images/earth.jpg,NA,NA,NA,NA,NA,NA,NA,NA,NA,NA,NA,NA,NA,fixation,NA,NA,NA,NA,NA,NA,sub140
d3-animate-choice,141,501353,0.0-76.0-0.2,FALSE,FALSE,TRUE,TRUE,"""event"",""trial"",""time""
""fullscreenenter"",""5"",""13118""
","
","
","""event"",""trial"",""time""
""fullscreenenter"",""5"",""13118""
","
",338.00999997765757,NA,48,NA,NA,3000,1,NA,NA,images/earth.jpg,images/rocket1,images/rocket2,null,images/rocket1,NA,1,real,null,2,NA,NA,NA,sub140
d3-animate-choice,142,504044,0.0-76.0-1.2,FALSE,FALSE,TRUE,TRUE,"""event"",""trial"",""time""
""fullscreenenter"",""5"",""13118""
","
","
","""event"",""trial"",""time""
""fullscreenenter"",""5"",""13118""
","
",687.2149999835528,NA,48,NA,NA,3000,1,NA,NA,images/purpleplanet.jpg,images/alien4,images/alien3,images/rocket1,images/alien4,images/t.png,2,real,true,2,common,1,2020-06-28T20:41:58Z,sub140
two-step-fixation,143,505049,0.0-76.0-2.2,FALSE,FALSE,TRUE,TRUE,"""event"",""trial"",""time""
""fullscreenenter"",""5"",""13118""
","
","
","""event"",""trial"",""time""
""fullscreenenter"",""5"",""13118""
","
",NA,images/earth.jpg,NA,NA,NA,NA,NA,NA,NA,NA,NA,NA,NA,NA,NA,fixation,NA,NA,NA,NA,NA,NA,sub140
d3-animate-choice,144,507439,0.0-76.0-0.3,FALSE,FALSE,TRUE,TRUE,"""event"",""trial"",""time""
""fullscreenenter"",""5"",""13118""
","
","
","""event"",""trial"",""time""
""fullscreenenter"",""5"",""13118""
","
",385.7399999978952,NA,48,NA,NA,3000,1,NA,NA,images/earth.jpg,images/rocket1,images/rocket2,null,images/rocket1,NA,1,real,null,2,NA,NA,NA,sub140
d3-animate-choice,145,509887,0.0-76.0-1.3,FALSE,FALSE,TRUE,TRUE,"""event"",""trial"",""time""
""fullscreenenter"",""5"",""13118""
","
","
","""event"",""trial"",""time""
""fullscreenenter"",""5"",""13118""
","
",443.055000010645,NA,48,NA,NA,3000,1,NA,NA,images/purpleplanet.jpg,images/alien4,images/alien3,images/rocket1,images/alien4,images/t.png,2,real,true,2,common,1,2020-06-28T20:42:04Z,sub140
two-step-fixation,146,510891,0.0-76.0-2.3,FALSE,FALSE,TRUE,TRUE,"""event"",""trial"",""time""
""fullscreenenter"",""5"",""13118""
","
","
","""event"",""trial"",""time""
""fullscreenenter"",""5"",""13118""
","
",NA,images/earth.jpg,NA,NA,NA,NA,NA,NA,NA,NA,NA,NA,NA,NA,NA,fixation,NA,NA,NA,NA,NA,NA,sub140
d3-animate-choice,147,513223,0.0-76.0-0.4,FALSE,FALSE,TRUE,TRUE,"""event"",""trial"",""time""
""fullscreenenter"",""5"",""13118""
","
","
","""event"",""trial"",""time""
""fullscreenenter"",""5"",""13118""
","
",328.15499999560416,NA,48,NA,NA,3000,1,NA,NA,images/earth.jpg,images/rocket1,images/rocket2,null,images/rocket1,NA,1,real,null,2,NA,NA,NA,sub140
d3-animate-choice,148,515788,0.0-76.0-1.4,FALSE,FALSE,TRUE,TRUE,"""event"",""trial"",""time""
""fullscreenenter"",""5"",""13118""
","
","
","""event"",""trial"",""time""
""fullscreenenter"",""5"",""13118""
","
",560.7550000131596,NA,49,NA,NA,3000,1,NA,NA,images/redplanet1.jpg,images/alien2,images/alien1,images/rocket1,images/alien1,images/t.png,2,real,false,1,rare,1,2020-06-28T20:42:10Z,sub140
two-step-fixation,149,516794,0.0-76.0-2.4,FALSE,FALSE,TRUE,TRUE,"""event"",""trial"",""time""
""fullscreenenter"",""5"",""13118""
","
","
","""event"",""trial"",""time""
""fullscreenenter"",""5"",""13118""
","
",NA,images/earth.jpg,NA,NA,NA,NA,NA,NA,NA,NA,NA,NA,NA,NA,NA,fixation,NA,NA,NA,NA,NA,NA,sub140
d3-animate-choice,150,519127,0.0-76.0-0.5,FALSE,FALSE,TRUE,TRUE,"""event"",""trial"",""time""
""fullscreenenter"",""5"",""13118""
","
","
","""event"",""trial"",""time""
""fullscreenenter"",""5"",""13118""
","
",324.2300000274554,NA,48,NA,NA,3000,1,NA,NA,images/earth.jpg,images/rocket1,images/rocket2,null,images/rocket1,NA,1,real,null,2,NA,NA,NA,sub140
d3-animate-choice,151,521612,0.0-76.0-1.5,FALSE,FALSE,TRUE,TRUE,"""event"",""trial"",""time""
""fullscreenenter"",""5"",""13118""
","
","
","""event"",""trial"",""time""
""fullscreenenter"",""5"",""13118""
","
",479.18500000378117,NA,49,NA,NA,3000,1,NA,NA,images/redplanet1.jpg,images/alien2,images/alien1,images/rocket1,images/alien1,images/t.png,2,real,false,1,rare,1,2020-06-28T20:42:15Z,sub140
two-step-fixation,152,522618,0.0-76.0-2.5,FALSE,FALSE,TRUE,TRUE,"""event"",""trial"",""time""
""fullscreenenter"",""5"",""13118""
","
","
","""event"",""trial"",""time""
""fullscreenenter"",""5"",""13118""
","
",NA,images/earth.jpg,NA,NA,NA,NA,NA,NA,NA,NA,NA,NA,NA,NA,NA,fixation,NA,NA,NA,NA,NA,NA,sub140
d3-animate-choice,153,524994,0.0-76.0-0.6,FALSE,FALSE,TRUE,TRUE,"""event"",""trial"",""time""
""fullscreenenter"",""5"",""13118""
","
","
","""event"",""trial"",""time""
""fullscreenenter"",""5"",""13118""
","
",371.19500001426786,NA,48,NA,NA,3000,1,NA,NA,images/earth.jpg,images/rocket1,images/rocket2,null,images/rocket1,NA,1,real,null,2,NA,NA,NA,sub140
d3-animate-choice,154,527584,0.0-76.0-1.6,FALSE,FALSE,TRUE,TRUE,"""event"",""trial"",""time""
""fullscreenenter"",""5"",""13118""
","
","
","""event"",""trial"",""time""
""fullscreenenter"",""5"",""13118""
","
",585.4450000042561,NA,48,NA,NA,3000,1,NA,NA,images/purpleplanet.jpg,images/alien4,images/alien3,images/rocket1,images/alien4,images/t.png,2,real,true,2,common,1,2020-06-28T20:42:21Z,sub140
two-step-fixation,155,528588,0.0-76.0-2.6,FALSE,FALSE,TRUE,TRUE,"""event"",""trial"",""time""
""fullscreenenter"",""5"",""13118""
","
","
","""event"",""trial"",""time""
""fullscreenenter"",""5"",""13118""
","
",NA,images/earth.jpg,NA,NA,NA,NA,NA,NA,NA,NA,NA,NA,NA,NA,NA,fixation,NA,NA,NA,NA,NA,NA,sub140
d3-animate-choice,156,530903,0.0-76.0-0.7,FALSE,FALSE,TRUE,TRUE,"""event"",""trial"",""time""
""fullscreenenter"",""5"",""13118""
","
","
","""event"",""trial"",""time""
""fullscreenenter"",""5"",""13118""
","
",306.6599999729078,NA,48,NA,NA,3000,1,NA,NA,images/earth.jpg,images/rocket1,images/rocket2,null,images/rocket1,NA,1,real,null,2,NA,NA,NA,sub140
d3-animate-choice,157,533358,0.0-76.0-1.7,FALSE,FALSE,TRUE,TRUE,"""event"",""trial"",""time""
""fullscreenenter"",""5"",""13118""
","
","
","""event"",""trial"",""time""
""fullscreenenter"",""5"",""13118""
","
",447.5000000093132,NA,48,NA,NA,3000,1,NA,NA,images/purpleplanet.jpg,images/alien4,images/alien3,images/rocket1,images/alien4,images/t.png,2,real,true,2,common,1,2020-06-28T20:42:27Z,sub140
two-step-fixation,158,534363,0.0-76.0-2.7,FALSE,FALSE,TRUE,TRUE,"""event"",""trial"",""time""
""fullscreenenter"",""5"",""13118""
","
","
","""event"",""trial"",""time""
""fullscreenenter"",""5"",""13118""
","
",NA,images/earth.jpg,NA,NA,NA,NA,NA,NA,NA,NA,NA,NA,NA,NA,NA,fixation,NA,NA,NA,NA,NA,NA,sub140
d3-animate-choice,159,536699,0.0-76.0-0.8,FALSE,FALSE,TRUE,TRUE,"""event"",""trial"",""time""
""fullscreenenter"",""5"",""13118""
","
","
","""event"",""trial"",""time""
""fullscreenenter"",""5"",""13118""
","
",331.7350000143051,NA,48,NA,NA,3000,1,NA,NA,images/earth.jpg,images/rocket1,images/rocket2,null,images/rocket1,NA,1,real,null,2,NA,NA,NA,sub140
d3-animate-choice,160,539139,0.0-76.0-1.8,FALSE,FALSE,TRUE,TRUE,"""event"",""trial"",""time""
""fullscreenenter"",""5"",""13118""
","
","
","""event"",""trial"",""time""
""fullscreenenter"",""5"",""13118""
","
",433.54999998700805,NA,48,NA,NA,3000,1,NA,NA,images/purpleplanet.jpg,images/alien4,images/alien3,images/rocket1,images/alien4,images/t.png,2,real,true,2,common,1,2020-06-28T20:42:33Z,sub140
two-step-fixation,161,540144,0.0-76.0-2.8,FALSE,FALSE,TRUE,TRUE,"""event"",""trial"",""time""
""fullscreenenter"",""5"",""13118""
","
","
","""event"",""trial"",""time""
""fullscreenenter"",""5"",""13118""
","
",NA,images/earth.jpg,NA,NA,NA,NA,NA,NA,NA,NA,NA,NA,NA,NA,NA,fixation,NA,NA,NA,NA,NA,NA,sub140
d3-animate-choice,162,542542,0.0-76.0-0.9,FALSE,FALSE,TRUE,TRUE,"""event"",""trial"",""time""
""fullscreenenter"",""5"",""13118""
","
","
","""event"",""trial"",""time""
""fullscreenenter"",""5"",""13118""
","
",389.1050000092946,NA,48,NA,NA,3000,1,NA,NA,images/earth.jpg,images/rocket1,images/rocket2,null,images/rocket1,NA,1,real,null,2,NA,NA,NA,sub140
d3-animate-choice,163,545006,0.0-76.0-1.9,FALSE,FALSE,TRUE,TRUE,"""event"",""trial"",""time""
""fullscreenenter"",""5"",""13118""
","
","
","""event"",""trial"",""time""
""fullscreenenter"",""5"",""13118""
","
",459.6599999931641,NA,48,NA,NA,3000,1,NA,NA,images/purpleplanet.jpg,images/alien4,images/alien3,images/rocket1,images/alien4,images/nothing.png,2,real,true,2,common,0,2020-06-28T20:42:39Z,sub140
two-step-fixation,164,546011,0.0-76.0-2.9,FALSE,FALSE,TRUE,TRUE,"""event"",""trial"",""time""
""fullscreenenter"",""5"",""13118""
","
","
","""event"",""trial"",""time""
""fullscreenenter"",""5"",""13118""
","
",NA,images/earth.jpg,NA,NA,NA,NA,NA,NA,NA,NA,NA,NA,NA,NA,NA,fixation,NA,NA,NA,NA,NA,NA,sub140
d3-animate-choice,165,548347,0.0-76.0-0.10,FALSE,FALSE,TRUE,TRUE,"""event"",""trial"",""time""
""fullscreenenter"",""5"",""13118""
","
","
","""event"",""trial"",""time""
""fullscreenenter"",""5"",""13118""
","
",328.830000013113,NA,48,NA,NA,3000,1,NA,NA,images/earth.jpg,images/rocket1,images/rocket2,null,images/rocket1,NA,1,real,null,2,NA,NA,NA,sub140
d3-animate-choice,166,550834,0.0-76.0-1.10,FALSE,FALSE,TRUE,TRUE,"""event"",""trial"",""time""
""fullscreenenter"",""5"",""13118""
","
","
","""event"",""trial"",""time""
""fullscreenenter"",""5"",""13118""
","
",482.4949999747332,NA,49,NA,NA,3000,1,NA,NA,images/redplanet1.jpg,images/alien2,images/alien1,images/rocket1,images/alien1,images/nothing.png,2,real,false,1,rare,0,2020-06-28T20:42:45Z,sub140
two-step-fixation,167,551842,0.0-76.0-2.10,FALSE,FALSE,TRUE,TRUE,"""event"",""trial"",""time""
""fullscreenenter"",""5"",""13118""
","
","
","""event"",""trial"",""time""
""fullscreenenter"",""5"",""13118""
","
",NA,images/earth.jpg,NA,NA,NA,NA,NA,NA,NA,NA,NA,NA,NA,NA,NA,fixation,NA,NA,NA,NA,NA,NA,sub140
d3-animate-choice,168,554225,0.0-76.0-0.11,FALSE,FALSE,TRUE,TRUE,"""event"",""trial"",""time""
""fullscreenenter"",""5"",""13118""
","
","
","""event"",""trial"",""time""
""fullscreenenter"",""5"",""13118""
","
",378.19499999750406,NA,48,NA,NA,3000,1,NA,NA,images/earth.jpg,images/rocket1,images/rocket2,null,images/rocket1,NA,1,real,null,2,NA,NA,NA,sub140
d3-animate-choice,169,556987,0.0-76.0-1.11,FALSE,FALSE,TRUE,TRUE,"""event"",""trial"",""time""
""fullscreenenter"",""5"",""13118""
","
","
","""event"",""trial"",""time""
""fullscreenenter"",""5"",""13118""
","
",758.0849999794737,NA,49,NA,NA,3000,1,NA,NA,images/purpleplanet.jpg,images/alien4,images/alien3,images/rocket1,images/alien3,images/t.png,2,real,true,1,common,1,2020-06-28T20:42:51Z,sub140
two-step-fixation,170,557992,0.0-76.0-2.11,FALSE,FALSE,TRUE,TRUE,"""event"",""trial"",""time""
""fullscreenenter"",""5"",""13118""
","
","
","""event"",""trial"",""time""
""fullscreenenter"",""5"",""13118""
","
",NA,images/earth.jpg,NA,NA,NA,NA,NA,NA,NA,NA,NA,NA,NA,NA,NA,fixation,NA,NA,NA,NA,NA,NA,sub140
d3-animate-choice,171,560263,0.0-76.0-0.12,FALSE,FALSE,TRUE,TRUE,"""event"",""trial"",""time""
""fullscreenenter"",""5"",""13118""
","
","
","""event"",""trial"",""time""
""fullscreenenter"",""5"",""13118""
","
",265.55999999982305,NA,48,NA,NA,3000,1,NA,NA,images/earth.jpg,images/rocket1,images/rocket2,null,images/rocket1,NA,1,real,null,2,NA,NA,NA,sub140
d3-animate-choice,172,562654,0.0-76.0-1.12,FALSE,FALSE,TRUE,TRUE,"""event"",""trial"",""time""
""fullscreenenter"",""5"",""13118""
","
","
","""event"",""trial"",""time""
""fullscreenenter"",""5"",""13118""
","
",384.98500001151115,NA,49,NA,NA,3000,1,NA,NA,images/purpleplanet.jpg,images/alien4,images/alien3,images/rocket1,images/alien3,images/nothing.png,2,real,true,1,common,0,2020-06-28T20:42:56Z,sub140
two-step-fixation,173,563658,0.0-76.0-2.12,FALSE,FALSE,TRUE,TRUE,"""event"",""trial"",""time""
""fullscreenenter"",""5"",""13118""
","
","
","""event"",""trial"",""time""
""fullscreenenter"",""5"",""13118""
","
",NA,images/earth.jpg,NA,NA,NA,NA,NA,NA,NA,NA,NA,NA,NA,NA,NA,fixation,NA,NA,NA,NA,NA,NA,sub140
d3-animate-choice,174,565987,0.0-76.0-0.13,FALSE,FALSE,TRUE,TRUE,"""event"",""trial"",""time""
""fullscreenenter"",""5"",""13118""
","
","
","""event"",""trial"",""time""
""fullscreenenter"",""5"",""13118""
","
",321.1650000012014,NA,48,NA,NA,3000,1,NA,NA,images/earth.jpg,images/rocket1,images/rocket2,null,images/rocket1,NA,1,real,null,2,NA,NA,NA,sub140
d3-animate-choice,175,568468,0.0-76.0-1.13,FALSE,FALSE,TRUE,TRUE,"""event"",""trial"",""time""
""fullscreenenter"",""5"",""13118""
","
","
","""event"",""trial"",""time""
""fullscreenenter"",""5"",""13118""
","
",477.03500001807697,NA,48,NA,NA,3000,1,NA,NA,images/purpleplanet.jpg,images/alien4,images/alien3,images/rocket1,images/alien4,images/t.png,2,real,true,2,common,1,2020-06-28T20:43:02Z,sub140
two-step-fixation,176,569476,0.0-76.0-2.13,FALSE,FALSE,TRUE,TRUE,"""event"",""trial"",""time""
""fullscreenenter"",""5"",""13118""
","
","
","""event"",""trial"",""time""
""fullscreenenter"",""5"",""13118""
","
",NA,images/earth.jpg,NA,NA,NA,NA,NA,NA,NA,NA,NA,NA,NA,NA,NA,fixation,NA,NA,NA,NA,NA,NA,sub140
d3-animate-choice,177,573186,0.0-76.0-0.14,FALSE,FALSE,TRUE,TRUE,"""event"",""trial"",""time""
""fullscreenenter"",""5"",""13118""
","
","
","""event"",""trial"",""time""
""fullscreenenter"",""5"",""13118""
","
",1705.4199999838602,NA,48,NA,NA,3000,1,NA,NA,images/earth.jpg,images/rocket1,images/rocket2,null,images/rocket1,NA,1,real,null,2,NA,NA,NA,sub140
d3-animate-choice,178,575722,0.0-76.0-1.14,FALSE,FALSE,TRUE,TRUE,"""event"",""trial"",""time""
""fullscreenenter"",""5"",""13118""
","
","
","""event"",""trial"",""time""
""fullscreenenter"",""5"",""13118""
","
",529.1250000009313,NA,48,NA,NA,3000,1,NA,NA,images/purpleplanet.jpg,images/alien4,images/alien3,images/rocket1,images/alien4,images/nothing.png,2,real,true,2,common,0,2020-06-28T20:43:09Z,sub140
two-step-fixation,179,576726,0.0-76.0-2.14,FALSE,FALSE,TRUE,TRUE,"""event"",""trial"",""time""
""fullscreenenter"",""5"",""13118""
","
","
","""event"",""trial"",""time""
""fullscreenenter"",""5"",""13118""
","
",NA,images/earth.jpg,NA,NA,NA,NA,NA,NA,NA,NA,NA,NA,NA,NA,NA,fixation,NA,NA,NA,NA,NA,NA,sub140
d3-animate-choice,180,579142,0.0-76.0-0.15,FALSE,FALSE,TRUE,TRUE,"""event"",""trial"",""time""
""fullscreenenter"",""5"",""13118""
","
","
","""event"",""trial"",""time""
""fullscreenenter"",""5"",""13118""
","
",406.84999999939464,NA,48,NA,NA,3000,1,NA,NA,images/earth.jpg,images/rocket1,images/rocket2,null,images/rocket1,NA,1,real,null,2,NA,NA,NA,sub140
d3-animate-choice,181,581850,0.0-76.0-1.15,FALSE,FALSE,TRUE,TRUE,"""event"",""trial"",""time""
""fullscreenenter"",""5"",""13118""
","
","
","""event"",""trial"",""time""
""fullscreenenter"",""5"",""13118""
","
",702.1050000039395,NA,49,NA,NA,3000,1,NA,NA,images/redplanet1.jpg,images/alien2,images/alien1,images/rocket1,images/alien1,images/nothing.png,2,real,false,1,rare,0,2020-06-28T20:43:16Z,sub140
two-step-fixation,182,582857,0.0-76.0-2.15,FALSE,FALSE,TRUE,TRUE,"""event"",""trial"",""time""
""fullscreenenter"",""5"",""13118""
","
","
","""event"",""trial"",""time""
""fullscreenenter"",""5"",""13118""
","
",NA,images/earth.jpg,NA,NA,NA,NA,NA,NA,NA,NA,NA,NA,NA,NA,NA,fixation,NA,NA,NA,NA,NA,NA,sub140
d3-animate-choice,183,585164,0.0-76.0-0.16,FALSE,FALSE,TRUE,TRUE,"""event"",""trial"",""time""
""fullscreenenter"",""5"",""13118""
","
","
","""event"",""trial"",""time""
""fullscreenenter"",""5"",""13118""
","
",302.3300000058953,NA,48,NA,NA,3000,1,NA,NA,images/earth.jpg,images/rocket1,images/rocket2,null,images/rocket1,NA,1,real,null,2,NA,NA,NA,sub140
d3-animate-choice,184,587959,0.0-76.0-1.16,FALSE,FALSE,TRUE,TRUE,"""event"",""trial"",""time""
""fullscreenenter"",""5"",""13118""
","
","
","""event"",""trial"",""time""
""fullscreenenter"",""5"",""13118""
","
",791.0749999864493,NA,49,NA,NA,3000,1,NA,NA,images/purpleplanet.jpg,images/alien4,images/alien3,images/rocket1,images/alien3,images/t.png,2,real,true,1,common,1,2020-06-28T20:43:22Z,sub140
two-step-fixation,185,588964,0.0-76.0-2.16,FALSE,FALSE,TRUE,TRUE,"""event"",""trial"",""time""
""fullscreenenter"",""5"",""13118""
","
","
","""event"",""trial"",""time""
""fullscreenenter"",""5"",""13118""
","
",NA,images/earth.jpg,NA,NA,NA,NA,NA,NA,NA,NA,NA,NA,NA,NA,NA,fixation,NA,NA,NA,NA,NA,NA,sub140
d3-animate-choice,186,591420,0.0-76.0-0.17,FALSE,FALSE,TRUE,TRUE,"""event"",""trial"",""time""
""fullscreenenter"",""5"",""13118""
","
","
","""event"",""trial"",""time""
""fullscreenenter"",""5"",""13118""
","
",449.5549999992363,NA,48,NA,NA,3000,1,NA,NA,images/earth.jpg,images/rocket1,images/rocket2,null,images/rocket1,NA,1,real,null,2,NA,NA,NA,sub140
d3-animate-choice,187,593905,0.0-76.0-1.17,FALSE,FALSE,TRUE,TRUE,"""event"",""trial"",""time""
""fullscreenenter"",""5"",""13118""
","
","
","""event"",""trial"",""time""
""fullscreenenter"",""5"",""13118""
","
",480.7250000012573,NA,49,NA,NA,3000,1,NA,NA,images/purpleplanet.jpg,images/alien4,images/alien3,images/rocket1,images/alien3,images/nothing.png,2,real,true,1,common,0,2020-06-28T20:43:28Z,sub140
two-step-fixation,188,594909,0.0-76.0-2.17,FALSE,FALSE,TRUE,TRUE,"""event"",""trial"",""time""
""fullscreenenter"",""5"",""13118""
","
","
","""event"",""trial"",""time""
""fullscreenenter"",""5"",""13118""
","
",NA,images/earth.jpg,NA,NA,NA,NA,NA,NA,NA,NA,NA,NA,NA,NA,NA,fixation,NA,NA,NA,NA,NA,NA,sub140
d3-animate-choice,189,597207,0.0-76.0-0.18,FALSE,FALSE,TRUE,TRUE,"""event"",""trial"",""time""
""fullscreenenter"",""5"",""13118""
","
","
","""event"",""trial"",""time""
""fullscreenenter"",""5"",""13118""
","
",292.12999998708256,NA,48,NA,NA,3000,1,NA,NA,images/earth.jpg,images/rocket1,images/rocket2,null,images/rocket1,NA,1,real,null,2,NA,NA,NA,sub140
d3-animate-choice,190,599722,0.0-76.0-1.18,FALSE,FALSE,TRUE,TRUE,"""event"",""trial"",""time""
""fullscreenenter"",""5"",""13118""
","
","
","""event"",""trial"",""time""
""fullscreenenter"",""5"",""13118""
","
",507.145000010496,NA,48,NA,NA,3000,1,NA,NA,images/purpleplanet.jpg,images/alien4,images/alien3,images/rocket1,images/alien4,images/t.png,2,real,true,2,common,1,2020-06-28T20:43:33Z,sub140
two-step-fixation,191,600726,0.0-76.0-2.18,FALSE,FALSE,TRUE,TRUE,"""event"",""trial"",""time""
""fullscreenenter"",""5"",""13118""
","
","
","""event"",""trial"",""time""
""fullscreenenter"",""5"",""13118""
","
",NA,images/earth.jpg,NA,NA,NA,NA,NA,NA,NA,NA,NA,NA,NA,NA,NA,fixation,NA,NA,NA,NA,NA,NA,sub140
d3-animate-choice,192,603078,0.0-76.0-0.19,FALSE,FALSE,TRUE,TRUE,"""event"",""trial"",""time""
""fullscreenenter"",""5"",""13118""
","
","
","""event"",""trial"",""time""
""fullscreenenter"",""5"",""13118""
","
",347.3649999941699,NA,48,NA,NA,3000,1,NA,NA,images/earth.jpg,images/rocket1,images/rocket2,null,images/rocket1,NA,1,real,null,2,NA,NA,NA,sub140
d3-animate-choice,193,605910,0.0-76.0-1.19,FALSE,FALSE,TRUE,TRUE,"""event"",""trial"",""time""
""fullscreenenter"",""5"",""13118""
","
","
","""event"",""trial"",""time""
""fullscreenenter"",""5"",""13118""
","
",828.1449999776669,NA,49,NA,NA,3000,1,NA,NA,images/redplanet1.jpg,images/alien2,images/alien1,images/rocket1,images/alien1,images/nothing.png,2,real,false,1,rare,0,2020-06-28T20:43:40Z,sub140
two-step-fixation,194,606915,0.0-76.0-2.19,FALSE,FALSE,TRUE,TRUE,"""event"",""trial"",""time""
""fullscreenenter"",""5"",""13118""
","
","
","""event"",""trial"",""time""
""fullscreenenter"",""5"",""13118""
","
",NA,images/earth.jpg,NA,NA,NA,NA,NA,NA,NA,NA,NA,NA,NA,NA,NA,fixation,NA,NA,NA,NA,NA,NA,sub140
d3-animate-choice,195,609267,0.0-76.0-0.20,FALSE,FALSE,TRUE,TRUE,"""event"",""trial"",""time""
""fullscreenenter"",""5"",""13118""
","
","
","""event"",""trial"",""time""
""fullscreenenter"",""5"",""13118""
","
",347.1500000159722,NA,48,NA,NA,3000,1,NA,NA,images/earth.jpg,images/rocket1,images/rocket2,null,images/rocket1,NA,1,real,null,2,NA,NA,NA,sub140
d3-animate-choice,196,612020,0.0-76.0-1.20,FALSE,FALSE,TRUE,TRUE,"""event"",""trial"",""time""
""fullscreenenter"",""5"",""13118""
","
","
","""event"",""trial"",""time""
""fullscreenenter"",""5"",""13118""
","
",746.4200000104029,NA,48,NA,NA,3000,1,NA,NA,images/purpleplanet.jpg,images/alien4,images/alien3,images/rocket1,images/alien4,images/t.png,2,real,true,2,common,1,2020-06-28T20:43:46Z,sub140
two-step-fixation,197,613025,0.0-76.0-2.20,FALSE,FALSE,TRUE,TRUE,"""event"",""trial"",""time""
""fullscreenenter"",""5"",""13118""
","
","
","""event"",""trial"",""time""
""fullscreenenter"",""5"",""13118""
","
",NA,images/earth.jpg,NA,NA,NA,NA,NA,NA,NA,NA,NA,NA,NA,NA,NA,fixation,NA,NA,NA,NA,NA,NA,sub140
d3-animate-choice,198,615423,0.0-76.0-0.21,FALSE,FALSE,TRUE,TRUE,"""event"",""trial"",""time""
""fullscreenenter"",""5"",""13118""
","
","
","""event"",""trial"",""time""
""fullscreenenter"",""5"",""13118""
","
",390.1499999919906,NA,48,NA,NA,3000,1,NA,NA,images/earth.jpg,images/rocket1,images/rocket2,null,images/rocket1,NA,1,real,null,2,NA,NA,NA,sub140
d3-animate-choice,199,617990,0.0-76.0-1.21,FALSE,FALSE,TRUE,TRUE,"""event"",""trial"",""time""
""fullscreenenter"",""5"",""13118""
","
","
","""event"",""trial"",""time""
""fullscreenenter"",""5"",""13118""
","
",561.054999998305,NA,48,NA,NA,3000,1,NA,NA,images/purpleplanet.jpg,images/alien4,images/alien3,images/rocket1,images/alien4,images/t.png,2,real,true,2,common,1,2020-06-28T20:43:52Z,sub140
two-step-fixation,200,618993,0.0-76.0-2.21,FALSE,FALSE,TRUE,TRUE,"""event"",""trial"",""time""
""fullscreenenter"",""5"",""13118""
","
","
","""event"",""trial"",""time""
""fullscreenenter"",""5"",""13118""
","
",NA,images/earth.jpg,NA,NA,NA,NA,NA,NA,NA,NA,NA,NA,NA,NA,NA,fixation,NA,NA,NA,NA,NA,NA,sub140
d3-animate-choice,201,621352,0.0-76.0-0.22,FALSE,FALSE,TRUE,TRUE,"""event"",""trial"",""time""
""fullscreenenter"",""5"",""13118""
","
","
","""event"",""trial"",""time""
""fullscreenenter"",""5"",""13118""
","
",353.159999998752,NA,48,NA,NA,3000,1,NA,NA,images/earth.jpg,images/rocket1,images/rocket2,null,images/rocket1,NA,1,real,null,2,NA,NA,NA,sub140
d3-animate-choice,202,623921,0.0-76.0-1.22,FALSE,FALSE,TRUE,TRUE,"""event"",""trial"",""time""
""fullscreenenter"",""5"",""13118""
","
","
","""event"",""trial"",""time""
""fullscreenenter"",""5"",""13118""
","
",563.9300000038929,NA,48,NA,NA,3000,1,NA,NA,images/purpleplanet.jpg,images/alien4,images/alien3,images/rocket1,images/alien4,images/t.png,2,real,true,2,common,1,2020-06-28T20:43:58Z,sub140
two-step-fixation,203,624929,0.0-76.0-2.22,FALSE,FALSE,TRUE,TRUE,"""event"",""trial"",""time""
""fullscreenenter"",""5"",""13118""
","
","
","""event"",""trial"",""time""
""fullscreenenter"",""5"",""13118""
","
",NA,images/earth.jpg,NA,NA,NA,NA,NA,NA,NA,NA,NA,NA,NA,NA,NA,fixation,NA,NA,NA,NA,NA,NA,sub140
d3-animate-choice,204,627345,0.0-76.0-0.23,FALSE,FALSE,TRUE,TRUE,"""event"",""trial"",""time""
""fullscreenenter"",""5"",""13118""
","
","
","""event"",""trial"",""time""
""fullscreenenter"",""5"",""13118""
","
",412.03500001574866,NA,48,NA,NA,3000,1,NA,NA,images/earth.jpg,images/rocket1,images/rocket2,null,images/rocket1,NA,1,real,null,2,NA,NA,NA,sub140
d3-animate-choice,205,629810,0.0-76.0-1.23,FALSE,FALSE,TRUE,TRUE,"""event"",""trial"",""time""
""fullscreenenter"",""5"",""13118""
","
","
","""event"",""trial"",""time""
""fullscreenenter"",""5"",""13118""
","
",457.8349999792408,NA,48,NA,NA,3000,1,NA,NA,images/purpleplanet.jpg,images/alien4,images/alien3,images/rocket1,images/alien4,images/t.png,2,real,true,2,common,1,2020-06-28T20:44:04Z,sub140
two-step-fixation,206,630814,0.0-76.0-2.23,FALSE,FALSE,TRUE,TRUE,"""event"",""trial"",""time""
""fullscreenenter"",""5"",""13118""
","
","
","""event"",""trial"",""time""
""fullscreenenter"",""5"",""13118""
","
",NA,images/earth.jpg,NA,NA,NA,NA,NA,NA,NA,NA,NA,NA,NA,NA,NA,fixation,NA,NA,NA,NA,NA,NA,sub140
d3-animate-choice,207,633148,0.0-76.0-0.24,FALSE,FALSE,TRUE,TRUE,"""event"",""trial"",""time""
""fullscreenenter"",""5"",""13118""
","
","
","""event"",""trial"",""time""
""fullscreenenter"",""5"",""13118""
","
",330.4400000197347,NA,48,NA,NA,3000,1,NA,NA,images/earth.jpg,images/rocket1,images/rocket2,null,images/rocket1,NA,1,real,null,2,NA,NA,NA,sub140
d3-animate-choice,208,635620,0.0-76.0-1.24,FALSE,FALSE,TRUE,TRUE,"""event"",""trial"",""time""
""fullscreenenter"",""5"",""13118""
","
","
","""event"",""trial"",""time""
""fullscreenenter"",""5"",""13118""
","
",466.6250000009313,NA,48,NA,NA,3000,1,NA,NA,images/purpleplanet.jpg,images/alien4,images/alien3,images/rocket1,images/alien4,images/t.png,2,real,true,2,common,1,2020-06-28T20:44:09Z,sub140
two-step-fixation,209,636625,0.0-76.0-2.24,FALSE,FALSE,TRUE,TRUE,"""event"",""trial"",""time""
""fullscreenenter"",""5"",""13118""
","
","
","""event"",""trial"",""time""
""fullscreenenter"",""5"",""13118""
","
",NA,images/earth.jpg,NA,NA,NA,NA,NA,NA,NA,NA,NA,NA,NA,NA,NA,fixation,NA,NA,NA,NA,NA,NA,sub140
d3-animate-choice,210,638811,0.0-76.0-0.25,FALSE,FALSE,TRUE,TRUE,"""event"",""trial"",""time""
""fullscreenenter"",""5"",""13118""
","
","
","""event"",""trial"",""time""
""fullscreenenter"",""5"",""13118""
","
",180.72500001289882,NA,48,NA,NA,3000,1,NA,NA,images/earth.jpg,images/rocket1,images/rocket2,null,images/rocket1,NA,1,real,null,2,NA,NA,NA,sub140
d3-animate-choice,211,641210,0.0-76.0-1.25,FALSE,FALSE,TRUE,TRUE,"""event"",""trial"",""time""
""fullscreenenter"",""5"",""13118""
","
","
","""event"",""trial"",""time""
""fullscreenenter"",""5"",""13118""
","
",393.72999998158775,NA,48,NA,NA,3000,1,NA,NA,images/purpleplanet.jpg,images/alien4,images/alien3,images/rocket1,images/alien4,images/t.png,2,real,true,2,common,1,2020-06-28T20:44:15Z,sub140
two-step-fixation,212,642214,0.0-76.0-2.25,FALSE,FALSE,TRUE,TRUE,"""event"",""trial"",""time""
""fullscreenenter"",""5"",""13118""
","
","
","""event"",""trial"",""time""
""fullscreenenter"",""5"",""13118""
","
",NA,images/earth.jpg,NA,NA,NA,NA,NA,NA,NA,NA,NA,NA,NA,NA,NA,fixation,NA,NA,NA,NA,NA,NA,sub140
d3-animate-choice,213,644651,0.0-76.0-0.26,FALSE,FALSE,TRUE,TRUE,"""event"",""trial"",""time""
""fullscreenenter"",""5"",""13118""
","
","
","""event"",""trial"",""time""
""fullscreenenter"",""5"",""13118""
","
",432.46999999973923,NA,48,NA,NA,3000,1,NA,NA,images/earth.jpg,images/rocket1,images/rocket2,null,images/rocket1,NA,1,real,null,2,NA,NA,NA,sub140
d3-animate-choice,214,646980,0.0-76.0-1.26,FALSE,FALSE,TRUE,TRUE,"""event"",""trial"",""time""
""fullscreenenter"",""5"",""13118""
","
","
","""event"",""trial"",""time""
""fullscreenenter"",""5"",""13118""
","
",324.9249999935273,NA,48,NA,NA,3000,1,NA,NA,images/purpleplanet.jpg,images/alien4,images/alien3,images/rocket1,images/alien4,images/t.png,2,real,true,2,common,1,2020-06-28T20:44:21Z,sub140
two-step-fixation,215,647985,0.0-76.0-2.26,FALSE,FALSE,TRUE,TRUE,"""event"",""trial"",""time""
""fullscreenenter"",""5"",""13118""
","
","
","""event"",""trial"",""time""
""fullscreenenter"",""5"",""13118""
","
",NA,images/earth.jpg,NA,NA,NA,NA,NA,NA,NA,NA,NA,NA,NA,NA,NA,fixation,NA,NA,NA,NA,NA,NA,sub140
d3-animate-choice,216,650539,0.0-76.0-0.27,FALSE,FALSE,TRUE,TRUE,"""event"",""trial"",""time""
""fullscreenenter"",""5"",""13118""
","
","
","""event"",""trial"",""time""
""fullscreenenter"",""5"",""13118""
","
",548.4400000132155,NA,48,NA,NA,3000,1,NA,NA,images/earth.jpg,images/rocket1,images/rocket2,null,images/rocket1,NA,1,real,null,2,NA,NA,NA,sub140
d3-animate-choice,217,652856,0.0-76.0-1.27,FALSE,FALSE,TRUE,TRUE,"""event"",""trial"",""time""
""fullscreenenter"",""5"",""13118""
","
","
","""event"",""trial"",""time""
""fullscreenenter"",""5"",""13118""
","
",312.87500000325963,NA,48,NA,NA,3000,1,NA,NA,images/redplanet1.jpg,images/alien2,images/alien1,images/rocket1,images/alien2,images/t.png,2,real,false,2,rare,1,2020-06-28T20:44:27Z,sub140
two-step-fixation,218,653862,0.0-76.0-2.27,FALSE,FALSE,TRUE,TRUE,"""event"",""trial"",""time""
""fullscreenenter"",""5"",""13118""
","
","
","""event"",""trial"",""time""
""fullscreenenter"",""5"",""13118""
","
",NA,images/earth.jpg,NA,NA,NA,NA,NA,NA,NA,NA,NA,NA,NA,NA,NA,fixation,NA,NA,NA,NA,NA,NA,sub140
d3-animate-choice,219,656180,0.0-76.0-0.28,FALSE,FALSE,TRUE,TRUE,"""event"",""trial"",""time""
""fullscreenenter"",""5"",""13118""
","
","
","""event"",""trial"",""time""
""fullscreenenter"",""5"",""13118""
","
",312.5949999957811,NA,48,NA,NA,3000,1,NA,NA,images/earth.jpg,images/rocket1,images/rocket2,null,images/rocket1,NA,1,real,null,2,NA,NA,NA,sub140
d3-animate-choice,220,658481,0.0-76.0-1.28,FALSE,FALSE,TRUE,TRUE,"""event"",""trial"",""time""
""fullscreenenter"",""5"",""13118""
","
","
","""event"",""trial"",""time""
""fullscreenenter"",""5"",""13118""
","
",296.32500000298023,NA,48,NA,NA,3000,1,NA,NA,images/purpleplanet.jpg,images/alien4,images/alien3,images/rocket1,images/alien4,images/t.png,2,real,true,2,common,1,2020-06-28T20:44:32Z,sub140
two-step-fixation,221,659485,0.0-76.0-2.28,FALSE,FALSE,TRUE,TRUE,"""event"",""trial"",""time""
""fullscreenenter"",""5"",""13118""
","
","
","""event"",""trial"",""time""
""fullscreenenter"",""5"",""13118""
","
",NA,images/earth.jpg,NA,NA,NA,NA,NA,NA,NA,NA,NA,NA,NA,NA,NA,fixation,NA,NA,NA,NA,NA,NA,sub140
d3-animate-choice,222,661880,0.0-76.0-0.29,FALSE,FALSE,TRUE,TRUE,"""event"",""trial"",""time""
""fullscreenenter"",""5"",""13118""
","
","
","""event"",""trial"",""time""
""fullscreenenter"",""5"",""13118""
","
",390.1499999919906,NA,48,NA,NA,3000,1,NA,NA,images/earth.jpg,images/rocket1,images/rocket2,null,images/rocket1,NA,1,real,null,2,NA,NA,NA,sub140
d3-animate-choice,223,664347,0.0-76.0-1.29,FALSE,FALSE,TRUE,TRUE,"""event"",""trial"",""time""
""fullscreenenter"",""5"",""13118""
","
","
","""event"",""trial"",""time""
""fullscreenenter"",""5"",""13118""
","
",462.534999998752,NA,48,NA,NA,3000,1,NA,NA,images/purpleplanet.jpg,images/alien4,images/alien3,images/rocket1,images/alien4,images/t.png,2,real,true,2,common,1,2020-06-28T20:44:38Z,sub140
two-step-fixation,224,665351,0.0-76.0-2.29,FALSE,FALSE,TRUE,TRUE,"""event"",""trial"",""time""
""fullscreenenter"",""5"",""13118""
","
","
","""event"",""trial"",""time""
""fullscreenenter"",""5"",""13118""
","
",NA,images/earth.jpg,NA,NA,NA,NA,NA,NA,NA,NA,NA,NA,NA,NA,NA,fixation,NA,NA,NA,NA,NA,NA,sub140
d3-animate-choice,225,667676,0.0-76.0-0.30,FALSE,FALSE,TRUE,TRUE,"""event"",""trial"",""time""
""fullscreenenter"",""5"",""13118""
","
","
","""event"",""trial"",""time""
""fullscreenenter"",""5"",""13118""
","
",321.7399999848567,NA,48,NA,NA,3000,1,NA,NA,images/earth.jpg,images/rocket1,images/rocket2,null,images/rocket1,NA,1,real,null,2,NA,NA,NA,sub140
d3-animate-choice,226,670007,0.0-76.0-1.30,FALSE,FALSE,TRUE,TRUE,"""event"",""trial"",""time""
""fullscreenenter"",""5"",""13118""
","
","
","""event"",""trial"",""time""
""fullscreenenter"",""5"",""13118""
","
",325.089999998454,NA,48,NA,NA,3000,1,NA,NA,images/purpleplanet.jpg,images/alien4,images/alien3,images/rocket1,images/alien4,images/t.png,2,real,true,2,common,1,2020-06-28T20:44:44Z,sub140
two-step-fixation,227,671013,0.0-76.0-2.30,FALSE,FALSE,TRUE,TRUE,"""event"",""trial"",""time""
""fullscreenenter"",""5"",""13118""
","
","
","""event"",""trial"",""time""
""fullscreenenter"",""5"",""13118""
","
",NA,images/earth.jpg,NA,NA,NA,NA,NA,NA,NA,NA,NA,NA,NA,NA,NA,fixation,NA,NA,NA,NA,NA,NA,sub140
d3-animate-choice,228,673394,0.0-76.0-0.31,FALSE,FALSE,TRUE,TRUE,"""event"",""trial"",""time""
""fullscreenenter"",""5"",""13118""
","
","
","""event"",""trial"",""time""
""fullscreenenter"",""5"",""13118""
","
",375.95000001601875,NA,48,NA,NA,3000,1,NA,NA,images/earth.jpg,images/rocket1,images/rocket2,null,images/rocket1,NA,1,real,null,2,NA,NA,NA,sub140
d3-animate-choice,229,675714,0.0-76.0-1.31,FALSE,FALSE,TRUE,TRUE,"""event"",""trial"",""time""
""fullscreenenter"",""5"",""13118""
","
","
","""event"",""trial"",""time""
""fullscreenenter"",""5"",""13118""
","
",312.56500000017695,NA,48,NA,NA,3000,1,NA,NA,images/purpleplanet.jpg,images/alien4,images/alien3,images/rocket1,images/alien4,images/t.png,2,real,true,2,common,1,2020-06-28T20:44:49Z,sub140
two-step-fixation,230,676721,0.0-76.0-2.31,FALSE,FALSE,TRUE,TRUE,"""event"",""trial"",""time""
""fullscreenenter"",""5"",""13118""
","
","
","""event"",""trial"",""time""
""fullscreenenter"",""5"",""13118""
","
",NA,images/earth.jpg,NA,NA,NA,NA,NA,NA,NA,NA,NA,NA,NA,NA,NA,fixation,NA,NA,NA,NA,NA,NA,sub140
d3-animate-choice,231,679021,0.0-76.0-0.32,FALSE,FALSE,TRUE,TRUE,"""event"",""trial"",""time""
""fullscreenenter"",""5"",""13118""
","
","
","""event"",""trial"",""time""
""fullscreenenter"",""5"",""13118""
","
",294.5600000093691,NA,48,NA,NA,3000,1,NA,NA,images/earth.jpg,images/rocket1,images/rocket2,null,images/rocket1,NA,1,real,null,2,NA,NA,NA,sub140
d3-animate-choice,232,681340,0.0-76.0-1.32,FALSE,FALSE,TRUE,TRUE,"""event"",""trial"",""time""
""fullscreenenter"",""5"",""13118""
","
","
","""event"",""trial"",""time""
""fullscreenenter"",""5"",""13118""
","
",313.77000000793487,NA,48,NA,NA,3000,1,NA,NA,images/purpleplanet.jpg,images/alien4,images/alien3,images/rocket1,images/alien4,images/t.png,2,real,true,2,common,1,2020-06-28T20:44:55Z,sub140
two-step-fixation,233,682347,0.0-76.0-2.32,FALSE,FALSE,TRUE,TRUE,"""event"",""trial"",""time""
""fullscreenenter"",""5"",""13118""
","
","
","""event"",""trial"",""time""
""fullscreenenter"",""5"",""13118""
","
",NA,images/earth.jpg,NA,NA,NA,NA,NA,NA,NA,NA,NA,NA,NA,NA,NA,fixation,NA,NA,NA,NA,NA,NA,sub140
d3-animate-choice,234,684492,0.0-76.0-0.33,FALSE,FALSE,TRUE,TRUE,"""event"",""trial"",""time""
""fullscreenenter"",""5"",""13118""
","
","
","""event"",""trial"",""time""
""fullscreenenter"",""5"",""13118""
","
",139.93000000482425,NA,48,NA,NA,3000,1,NA,NA,images/earth.jpg,images/rocket1,images/rocket2,null,images/rocket1,NA,1,real,null,2,NA,NA,NA,sub140
d3-animate-choice,235,686891,0.0-76.0-1.33,FALSE,FALSE,TRUE,TRUE,"""event"",""trial"",""time""
""fullscreenenter"",""5"",""13118""
","
","
","""event"",""trial"",""time""
""fullscreenenter"",""5"",""13118""
","
",394.6750000177417,NA,48,NA,NA,3000,1,NA,NA,images/purpleplanet.jpg,images/alien4,images/alien3,images/rocket1,images/alien4,images/t.png,2,real,true,2,common,1,2020-06-28T20:45:01Z,sub140
two-step-fixation,236,687899,0.0-76.0-2.33,FALSE,FALSE,TRUE,TRUE,"""event"",""trial"",""time""
""fullscreenenter"",""5"",""13118""
","
","
","""event"",""trial"",""time""
""fullscreenenter"",""5"",""13118""
","
",NA,images/earth.jpg,NA,NA,NA,NA,NA,NA,NA,NA,NA,NA,NA,NA,NA,fixation,NA,NA,NA,NA,NA,NA,sub140
d3-animate-choice,237,690331,0.0-76.0-0.34,FALSE,FALSE,TRUE,TRUE,"""event"",""trial"",""time""
""fullscreenenter"",""5"",""13118""
","
","
","""event"",""trial"",""time""
""fullscreenenter"",""5"",""13118""
","
",425.50500002107583,NA,48,NA,NA,3000,1,NA,NA,images/earth.jpg,images/rocket1,images/rocket2,null,images/rocket1,NA,1,real,null,2,NA,NA,NA,sub140
d3-animate-choice,238,692648,0.0-76.0-1.34,FALSE,FALSE,TRUE,TRUE,"""event"",""trial"",""time""
""fullscreenenter"",""5"",""13118""
","
","
","""event"",""trial"",""time""
""fullscreenenter"",""5"",""13118""
","
",309.8199999949429,NA,48,NA,NA,3000,1,NA,NA,images/purpleplanet.jpg,images/alien4,images/alien3,images/rocket1,images/alien4,images/t.png,2,real,true,2,common,1,2020-06-28T20:45:06Z,sub140
two-step-fixation,239,693653,0.0-76.0-2.34,FALSE,FALSE,TRUE,TRUE,"""event"",""trial"",""time""
""fullscreenenter"",""5"",""13118""
","
","
","""event"",""trial"",""time""
""fullscreenenter"",""5"",""13118""
","
",NA,images/earth.jpg,NA,NA,NA,NA,NA,NA,NA,NA,NA,NA,NA,NA,NA,fixation,NA,NA,NA,NA,NA,NA,sub140
d3-animate-choice,240,696046,0.0-76.0-0.35,FALSE,FALSE,TRUE,TRUE,"""event"",""trial"",""time""
""fullscreenenter"",""5"",""13118""
","
","
","""event"",""trial"",""time""
""fullscreenenter"",""5"",""13118""
","
",387.6999999920372,NA,48,NA,NA,3000,1,NA,NA,images/earth.jpg,images/rocket1,images/rocket2,null,images/rocket1,NA,1,real,null,2,NA,NA,NA,sub140
d3-animate-choice,241,698079,0.0-76.0-1.35,FALSE,FALSE,TRUE,TRUE,"""event"",""trial"",""time""
""fullscreenenter"",""5"",""13118""
","
","
","""event"",""trial"",""time""
""fullscreenenter"",""5"",""13118""
","
",29.334999999264255,NA,48,NA,NA,3000,1,NA,NA,images/redplanet1.jpg,images/alien2,images/alien1,images/rocket1,images/alien2,images/t.png,2,real,false,2,rare,1,2020-06-28T20:45:12Z,sub140
two-step-fixation,242,699083,0.0-76.0-2.35,FALSE,FALSE,TRUE,TRUE,"""event"",""trial"",""time""
""fullscreenenter"",""5"",""13118""
","
","
","""event"",""trial"",""time""
""fullscreenenter"",""5"",""13118""
","
",NA,images/earth.jpg,NA,NA,NA,NA,NA,NA,NA,NA,NA,NA,NA,NA,NA,fixation,NA,NA,NA,NA,NA,NA,sub140
d3-animate-choice,243,701362,0.0-76.0-0.36,FALSE,FALSE,TRUE,TRUE,"""event"",""trial"",""time""
""fullscreenenter"",""5"",""13118""
","
","
","""event"",""trial"",""time""
""fullscreenenter"",""5"",""13118""
","
",272.8449999995064,NA,48,NA,NA,3000,1,NA,NA,images/earth.jpg,images/rocket1,images/rocket2,null,images/rocket1,NA,1,real,null,2,NA,NA,NA,sub140
d3-animate-choice,244,703634,0.0-76.0-1.36,FALSE,FALSE,TRUE,TRUE,"""event"",""trial"",""time""
""fullscreenenter"",""5"",""13118""
","
","
","""event"",""trial"",""time""
""fullscreenenter"",""5"",""13118""
","
",268.1649999867659,NA,48,NA,NA,3000,1,NA,NA,images/purpleplanet.jpg,images/alien4,images/alien3,images/rocket1,images/alien4,images/t.png,2,real,true,2,common,1,2020-06-28T20:45:17Z,sub140
two-step-fixation,245,704637,0.0-76.0-2.36,FALSE,FALSE,TRUE,TRUE,"""event"",""trial"",""time""
""fullscreenenter"",""5"",""13118""
","
","
","""event"",""trial"",""time""
""fullscreenenter"",""5"",""13118""
","
",NA,images/earth.jpg,NA,NA,NA,NA,NA,NA,NA,NA,NA,NA,NA,NA,NA,fixation,NA,NA,NA,NA,NA,NA,sub140
d3-animate-choice,246,706970,0.0-76.0-0.37,FALSE,FALSE,TRUE,TRUE,"""event"",""trial"",""time""
""fullscreenenter"",""5"",""13118""
","
","
","""event"",""trial"",""time""
""fullscreenenter"",""5"",""13118""
","
",328.0749999976251,NA,48,NA,NA,3000,1,NA,NA,images/earth.jpg,images/rocket1,images/rocket2,null,images/rocket1,NA,1,real,null,2,NA,NA,NA,sub140
d3-animate-choice,247,709286,0.0-76.0-1.37,FALSE,FALSE,TRUE,TRUE,"""event"",""trial"",""time""
""fullscreenenter"",""5"",""13118""
","
","
","""event"",""trial"",""time""
""fullscreenenter"",""5"",""13118""
","
",312.2399999992922,NA,48,NA,NA,3000,1,NA,NA,images/purpleplanet.jpg,images/alien4,images/alien3,images/rocket1,images/alien4,images/t.png,2,real,true,2,common,1,2020-06-28T20:45:23Z,sub140
two-step-fixation,248,710291,0.0-76.0-2.37,FALSE,FALSE,TRUE,TRUE,"""event"",""trial"",""time""
""fullscreenenter"",""5"",""13118""
","
","
","""event"",""trial"",""time""
""fullscreenenter"",""5"",""13118""
","
",NA,images/earth.jpg,NA,NA,NA,NA,NA,NA,NA,NA,NA,NA,NA,NA,NA,fixation,NA,NA,NA,NA,NA,NA,sub140
d3-animate-choice,249,712590,0.0-76.0-0.38,FALSE,FALSE,TRUE,TRUE,"""event"",""trial"",""time""
""fullscreenenter"",""5"",""13118""
","
","
","""event"",""trial"",""time""
""fullscreenenter"",""5"",""13118""
","
",294.354999990901,NA,48,NA,NA,3000,1,NA,NA,images/earth.jpg,images/rocket1,images/rocket2,null,images/rocket1,NA,1,real,null,2,NA,NA,NA,sub140
d3-animate-choice,250,714894,0.0-76.0-1.38,FALSE,FALSE,TRUE,TRUE,"""event"",""trial"",""time""
""fullscreenenter"",""5"",""13118""
","
","
","""event"",""trial"",""time""
""fullscreenenter"",""5"",""13118""
","
",300.9799999999814,NA,48,NA,NA,3000,1,NA,NA,images/purpleplanet.jpg,images/alien4,images/alien3,images/rocket1,images/alien4,images/t.png,2,real,true,2,common,1,2020-06-28T20:45:29Z,sub140
two-step-fixation,251,715902,0.0-76.0-2.38,FALSE,FALSE,TRUE,TRUE,"""event"",""trial"",""time""
""fullscreenenter"",""5"",""13118""
","
","
","""event"",""trial"",""time""
""fullscreenenter"",""5"",""13118""
","
",NA,images/earth.jpg,NA,NA,NA,NA,NA,NA,NA,NA,NA,NA,NA,NA,NA,fixation,NA,NA,NA,NA,NA,NA,sub140
d3-animate-choice,252,718218,0.0-76.0-0.39,FALSE,FALSE,TRUE,TRUE,"""event"",""trial"",""time""
""fullscreenenter"",""5"",""13118""
","
","
","""event"",""trial"",""time""
""fullscreenenter"",""5"",""13118""
","
",309.24999999115244,NA,48,NA,NA,3000,1,NA,NA,images/earth.jpg,images/rocket1,images/rocket2,null,images/rocket1,NA,1,real,null,2,NA,NA,NA,sub140
d3-animate-choice,253,720554,0.0-76.0-1.39,FALSE,FALSE,TRUE,TRUE,"""event"",""trial"",""time""
""fullscreenenter"",""5"",""13118""
","
","
","""event"",""trial"",""time""
""fullscreenenter"",""5"",""13118""
","
",330.5149999796413,NA,48,NA,NA,3000,1,NA,NA,images/redplanet1.jpg,images/alien2,images/alien1,images/rocket1,images/alien2,images/t.png,2,real,false,2,rare,1,2020-06-28T20:45:34Z,sub140
two-step-fixation,254,721562,0.0-76.0-2.39,FALSE,FALSE,TRUE,TRUE,"""event"",""trial"",""time""
""fullscreenenter"",""5"",""13118""
","
","
","""event"",""trial"",""time""
""fullscreenenter"",""5"",""13118""
","
",NA,images/earth.jpg,NA,NA,NA,NA,NA,NA,NA,NA,NA,NA,NA,NA,NA,fixation,NA,NA,NA,NA,NA,NA,sub140
d3-animate-choice,255,723939,0.0-76.0-0.40,FALSE,FALSE,TRUE,TRUE,"""event"",""trial"",""time""
""fullscreenenter"",""5"",""13118""
","
","
","""event"",""trial"",""time""
""fullscreenenter"",""5"",""13118""
","
",372.7800000051502,NA,48,NA,NA,3000,1,2019.445000012638,48,images/earth.jpg,images/rocket1,images/rocket2,null,images/rocket1,NA,1,real,null,2,NA,NA,NA,sub140
d3-animate-choice,256,726429,0.0-76.0-1.40,FALSE,FALSE,TRUE,TRUE,"""event"",""trial"",""time""
""fullscreenenter"",""5"",""13118""
","
","
","""event"",""trial"",""time""
""fullscreenenter"",""5"",""13118""
","
",485.0450000085402,NA,48,NA,NA,3000,1,NA,NA,images/purpleplanet.jpg,images/alien4,images/alien3,images/rocket1,images/alien4,images/nothing.png,2,real,true,2,common,0,2020-06-28T20:45:40Z,sub140
two-step-fixation,257,727435,0.0-76.0-2.40,FALSE,FALSE,TRUE,TRUE,"""event"",""trial"",""time""
""fullscreenenter"",""5"",""13118""
","
","
","""event"",""trial"",""time""
""fullscreenenter"",""5"",""13118""
","
",NA,images/earth.jpg,NA,NA,NA,NA,NA,NA,NA,NA,NA,NA,NA,NA,NA,fixation,NA,NA,NA,NA,NA,NA,sub140
d3-animate-choice,258,729741,0.0-76.0-0.41,FALSE,FALSE,TRUE,TRUE,"""event"",""trial"",""time""
""fullscreenenter"",""5"",""13118""
","
","
","""event"",""trial"",""time""
""fullscreenenter"",""5"",""13118""
","
",300.17500001122244,NA,48,NA,NA,3000,1,NA,NA,images/earth.jpg,images/rocket1,images/rocket2,null,images/rocket1,NA,1,real,null,2,NA,NA,NA,sub140
d3-animate-choice,259,732123,0.0-76.0-1.41,FALSE,FALSE,TRUE,TRUE,"""event"",""trial"",""time""
""fullscreenenter"",""5"",""13118""
","
","
","""event"",""trial"",""time""
""fullscreenenter"",""5"",""13118""
","
",377.43500000215136,NA,48,NA,NA,3000,1,NA,NA,images/purpleplanet.jpg,images/alien4,images/alien3,images/rocket1,images/alien4,images/t.png,2,real,true,2,common,1,2020-06-28T20:45:46Z,sub140
two-step-fixation,260,733131,0.0-76.0-2.41,FALSE,FALSE,TRUE,TRUE,"""event"",""trial"",""time""
""fullscreenenter"",""5"",""13118""
","
","
","""event"",""trial"",""time""
""fullscreenenter"",""5"",""13118""
","
",NA,images/earth.jpg,NA,NA,NA,NA,NA,NA,NA,NA,NA,NA,NA,NA,NA,fixation,NA,NA,NA,NA,NA,NA,sub140
d3-animate-choice,261,735435,0.0-76.0-0.42,FALSE,FALSE,TRUE,TRUE,"""event"",""trial"",""time""
""fullscreenenter"",""5"",""13118""
","
","
","""event"",""trial"",""time""
""fullscreenenter"",""5"",""13118""
","
",297.73500000010245,NA,48,NA,NA,3000,1,NA,NA,images/earth.jpg,images/rocket1,images/rocket2,null,images/rocket1,NA,1,real,null,2,NA,NA,NA,sub140
d3-animate-choice,262,737765,0.0-76.0-1.42,FALSE,FALSE,TRUE,TRUE,"""event"",""trial"",""time""
""fullscreenenter"",""5"",""13118""
","
","
","""event"",""trial"",""time""
""fullscreenenter"",""5"",""13118""
","
",323.69499999913387,NA,48,NA,NA,3000,1,NA,NA,images/purpleplanet.jpg,images/alien4,images/alien3,images/rocket1,images/alien4,images/t.png,2,real,true,2,common,1,2020-06-28T20:45:52Z,sub140
two-step-fixation,263,738770,0.0-76.0-2.42,FALSE,FALSE,TRUE,TRUE,"""event"",""trial"",""time""
""fullscreenenter"",""5"",""13118""
","
","
","""event"",""trial"",""time""
""fullscreenenter"",""5"",""13118""
","
",NA,images/earth.jpg,NA,NA,NA,NA,NA,NA,NA,NA,NA,NA,NA,NA,NA,fixation,NA,NA,NA,NA,NA,NA,sub140
d3-animate-choice,264,741185,0.0-76.0-0.43,FALSE,FALSE,TRUE,TRUE,"""event"",""trial"",""time""
""fullscreenenter"",""5"",""13118""
","
","
","""event"",""trial"",""time""
""fullscreenenter"",""5"",""13118""
","
",410.20000001299195,NA,48,NA,NA,3000,1,1942.8600000101142,48,images/earth.jpg,images/rocket1,images/rocket2,null,images/rocket1,NA,1,real,null,2,NA,NA,NA,sub140
d3-animate-choice,265,743560,0.0-76.0-1.43,FALSE,FALSE,TRUE,TRUE,"""event"",""trial"",""time""
""fullscreenenter"",""5"",""13118""
","
","
","""event"",""trial"",""time""
""fullscreenenter"",""5"",""13118""
","
",367.3699999926612,NA,48,NA,NA,3000,1,NA,NA,images/purpleplanet.jpg,images/alien4,images/alien3,images/rocket1,images/alien4,images/t.png,2,real,true,2,common,1,2020-06-28T20:45:57Z,sub140
two-step-fixation,266,744565,0.0-76.0-2.43,FALSE,FALSE,TRUE,TRUE,"""event"",""trial"",""time""
""fullscreenenter"",""5"",""13118""
","
","
","""event"",""trial"",""time""
""fullscreenenter"",""5"",""13118""
","
",NA,images/earth.jpg,NA,NA,NA,NA,NA,NA,NA,NA,NA,NA,NA,NA,NA,fixation,NA,NA,NA,NA,NA,NA,sub140
d3-animate-choice,267,746886,0.0-76.0-0.44,FALSE,FALSE,TRUE,TRUE,"""event"",""trial"",""time""
""fullscreenenter"",""5"",""13118""
","
","
","""event"",""trial"",""time""
""fullscreenenter"",""5"",""13118""
","
",315.97499997587875,NA,48,NA,NA,3000,1,NA,NA,images/earth.jpg,images/rocket1,images/rocket2,null,images/rocket1,NA,1,real,null,2,NA,NA,NA,sub140
d3-animate-choice,268,749247,0.0-76.0-1.44,FALSE,FALSE,TRUE,TRUE,"""event"",""trial"",""time""
""fullscreenenter"",""5"",""13118""
","
","
","""event"",""trial"",""time""
""fullscreenenter"",""5"",""13118""
","
",355.7800000126008,NA,48,NA,NA,3000,1,NA,NA,images/purpleplanet.jpg,images/alien4,images/alien3,images/rocket1,images/alien4,images/t.png,2,real,true,2,common,1,2020-06-28T20:46:03Z,sub140
two-step-fixation,269,750253,0.0-76.0-2.44,FALSE,FALSE,TRUE,TRUE,"""event"",""trial"",""time""
""fullscreenenter"",""5"",""13118""
","
","
","""event"",""trial"",""time""
""fullscreenenter"",""5"",""13118""
","
",NA,images/earth.jpg,NA,NA,NA,NA,NA,NA,NA,NA,NA,NA,NA,NA,NA,fixation,NA,NA,NA,NA,NA,NA,sub140
d3-animate-choice,270,752620,0.0-76.0-0.45,FALSE,FALSE,TRUE,TRUE,"""event"",""trial"",""time""
""fullscreenenter"",""5"",""13118""
","
","
","""event"",""trial"",""time""
""fullscreenenter"",""5"",""13118""
","
",360.8400000084657,NA,48,NA,NA,3000,1,NA,NA,images/earth.jpg,images/rocket1,images/rocket2,null,images/rocket1,NA,1,real,null,2,NA,NA,NA,sub140
d3-animate-choice,271,755003,0.0-76.0-1.45,FALSE,FALSE,TRUE,TRUE,"""event"",""trial"",""time""
""fullscreenenter"",""5"",""13118""
","
","
","""event"",""trial"",""time""
""fullscreenenter"",""5"",""13118""
","
",376.47000001743436,NA,48,NA,NA,3000,1,NA,NA,images/purpleplanet.jpg,images/alien4,images/alien3,images/rocket1,images/alien4,images/t.png,2,real,true,2,common,1,2020-06-28T20:46:09Z,sub140
two-step-fixation,272,756008,0.0-76.0-2.45,FALSE,FALSE,TRUE,TRUE,"""event"",""trial"",""time""
""fullscreenenter"",""5"",""13118""
","
","
","""event"",""trial"",""time""
""fullscreenenter"",""5"",""13118""
","
",NA,images/earth.jpg,NA,NA,NA,NA,NA,NA,NA,NA,NA,NA,NA,NA,NA,fixation,NA,NA,NA,NA,NA,NA,sub140
d3-animate-choice,273,758525,0.0-76.0-0.46,FALSE,FALSE,TRUE,TRUE,"""event"",""trial"",""time""
""fullscreenenter"",""5"",""13118""
","
","
","""event"",""trial"",""time""
""fullscreenenter"",""5"",""13118""
","
",509.96500000474043,NA,48,NA,NA,3000,1,NA,NA,images/earth.jpg,images/rocket1,images/rocket2,null,images/rocket1,NA,1,real,null,2,NA,NA,NA,sub140
d3-animate-choice,274,761532,0.0-76.0-1.46,FALSE,FALSE,TRUE,TRUE,"""event"",""trial"",""time""
""fullscreenenter"",""5"",""13118""
","
","
","""event"",""trial"",""time""
""fullscreenenter"",""5"",""13118""
","
",1002.5600000226405,NA,48,NA,NA,3000,1,NA,NA,images/purpleplanet.jpg,images/alien4,images/alien3,images/rocket1,images/alien4,images/t.png,2,real,true,2,common,1,2020-06-28T20:46:15Z,sub140
two-step-fixation,275,762538,0.0-76.0-2.46,FALSE,FALSE,TRUE,TRUE,"""event"",""trial"",""time""
""fullscreenenter"",""5"",""13118""
","
","
","""event"",""trial"",""time""
""fullscreenenter"",""5"",""13118""
","
",NA,images/earth.jpg,NA,NA,NA,NA,NA,NA,NA,NA,NA,NA,NA,NA,NA,fixation,NA,NA,NA,NA,NA,NA,sub140
d3-animate-choice,276,765008,0.0-76.0-0.47,FALSE,FALSE,TRUE,TRUE,"""event"",""trial"",""time""
""fullscreenenter"",""5"",""13118""
","
","
","""event"",""trial"",""time""
""fullscreenenter"",""5"",""13118""
","
",465.54000000469387,NA,48,NA,NA,3000,1,NA,NA,images/earth.jpg,images/rocket1,images/rocket2,null,images/rocket1,NA,1,real,null,2,NA,NA,NA,sub140
d3-animate-choice,277,767365,0.0-76.0-1.47,FALSE,FALSE,TRUE,TRUE,"""event"",""trial"",""time""
""fullscreenenter"",""5"",""13118""
","
","
","""event"",""trial"",""time""
""fullscreenenter"",""5"",""13118""
","
",351.19500002474524,NA,48,NA,NA,3000,1,NA,NA,images/redplanet1.jpg,images/alien2,images/alien1,images/rocket1,images/alien2,images/nothing.png,2,real,false,2,rare,0,2020-06-28T20:46:21Z,sub140
two-step-fixation,278,768371,0.0-76.0-2.47,FALSE,FALSE,TRUE,TRUE,"""event"",""trial"",""time""
""fullscreenenter"",""5"",""13118""
","
","
","""event"",""trial"",""time""
""fullscreenenter"",""5"",""13118""
","
",NA,images/earth.jpg,NA,NA,NA,NA,NA,NA,NA,NA,NA,NA,NA,NA,NA,fixation,NA,NA,NA,NA,NA,NA,sub140
d3-animate-choice,279,770706,0.0-76.0-0.48,FALSE,FALSE,TRUE,TRUE,"""event"",""trial"",""time""
""fullscreenenter"",""5"",""13118""
","
","
","""event"",""trial"",""time""
""fullscreenenter"",""5"",""13118""
","
",331.00000000558794,NA,48,NA,NA,3000,1,NA,NA,images/earth.jpg,images/rocket1,images/rocket2,null,images/rocket1,NA,1,real,null,2,NA,NA,NA,sub140
d3-animate-choice,280,772957,0.0-76.0-1.48,FALSE,FALSE,TRUE,TRUE,"""event"",""trial"",""time""
""fullscreenenter"",""5"",""13118""
","
","
","""event"",""trial"",""time""
""fullscreenenter"",""5"",""13118""
","
",246.4099999924656,NA,48,NA,NA,3000,1,NA,NA,images/redplanet1.jpg,images/alien2,images/alien1,images/rocket1,images/alien2,images/t.png,2,real,false,2,rare,1,2020-06-28T20:46:27Z,sub140
two-step-fixation,281,773962,0.0-76.0-2.48,FALSE,FALSE,TRUE,TRUE,"""event"",""trial"",""time""
""fullscreenenter"",""5"",""13118""
","
","
","""event"",""trial"",""time""
""fullscreenenter"",""5"",""13118""
","
",NA,images/earth.jpg,NA,NA,NA,NA,NA,NA,NA,NA,NA,NA,NA,NA,NA,fixation,NA,NA,NA,NA,NA,NA,sub140
d3-animate-choice,282,776266,0.0-76.0-0.49,FALSE,FALSE,TRUE,TRUE,"""event"",""trial"",""time""
""fullscreenenter"",""5"",""13118""
","
","
","""event"",""trial"",""time""
""fullscreenenter"",""5"",""13118""
","
",299.25499999080785,NA,48,NA,NA,3000,1,NA,NA,images/earth.jpg,images/rocket1,images/rocket2,null,images/rocket1,NA,1,real,null,2,NA,NA,NA,sub140
