trial_type,trial_index,time_elapsed,internal_node_id,rocket_sides,red_planet_first_rocket,red_display_order,purple_display_order,interactions,blur_events,focus_events,fullscreenenter_events,fullscreenexit_events,rt,stimulus,key_press,button_pressed,success,duration,valid_pressed,rts,keys,planet_text,right_text,left_text,center_text,chosen_text,reward_text,trial_stage,practice_trial,transition_type,choice,transition,reward,timestamp,subject_id
pavlovia,0,5,0.0-0.0,TRUE,TRUE,FALSE,TRUE,"
","
","
","
","
",NA,NA,NA,NA,NA,NA,NA,NA,NA,NA,NA,NA,NA,NA,NA,NA,NA,NA,NA,NA,NA,NA,sub131
html-keyboard-response,1,1946,0.0-1.0,TRUE,TRUE,FALSE,TRUE,"
","
","
","
","
",1940.009999962058,Welcome! Press the space bar to begin.,32,NA,NA,NA,NA,NA,NA,NA,NA,NA,NA,NA,NA,NA,NA,NA,NA,NA,NA,NA,sub131
audio-keyboard-response,2,4748,0.0-2.0,TRUE,TRUE,FALSE,TRUE,"
","
","
","
","
",2682,audio/beep_loop.wav,32,NA,NA,NA,NA,NA,NA,NA,NA,NA,NA,NA,NA,NA,NA,NA,NA,NA,NA,NA,sub131
audio-button-response,3,6365,0.0-3.0,TRUE,TRUE,FALSE,TRUE,"
","
","
","
","
",NaN,audio/fish.mp3,NA,1,NA,NA,NA,NA,NA,NA,NA,NA,NA,NA,NA,NA,NA,NA,NA,NA,NA,NA,sub131
audio-button-response,4,8989,0.0-4.0,TRUE,TRUE,FALSE,TRUE,"""event"",""trial"",""time""
""fullscreenenter"",""5"",""15129""
","
","
","""event"",""trial"",""time""
""fullscreenenter"",""5"",""15129""
","
",NaN,audio/tiger.mp3,NA,4,NA,NA,NA,NA,NA,NA,NA,NA,NA,NA,NA,NA,NA,NA,NA,NA,NA,NA,sub131
fullscreen,5,15510,0.0-5.0,TRUE,TRUE,FALSE,TRUE,"""event"",""trial"",""time""
""fullscreenenter"",""5"",""15129""
","
","
","""event"",""trial"",""time""
""fullscreenenter"",""5"",""15129""
","
",NA,NA,NA,NA,TRUE,NA,NA,NA,NA,NA,NA,NA,NA,NA,NA,NA,NA,NA,NA,NA,NA,NA,sub131
d3-instructions,6,25511,0.0-6.0,TRUE,TRUE,FALSE,TRUE,"""event"",""trial"",""time""
""fullscreenenter"",""5"",""15129""
","
","
","""event"",""trial"",""time""
""fullscreenenter"",""5"",""15129""
","
",NA,NA,NA,NA,NA,NA,NA,NA,NA,NA,NA,NA,NA,NA,NA,NA,NA,NA,NA,NA,NA,NA,sub131
d3-instructions,7,36287,0.0-7.0,TRUE,TRUE,FALSE,TRUE,"""event"",""trial"",""time""
""fullscreenenter"",""5"",""15129""
","
","
","""event"",""trial"",""time""
""fullscreenenter"",""5"",""15129""
","
",NA,NA,NA,NA,NA,NA,NA,NA,NA,NA,NA,NA,NA,NA,NA,NA,NA,NA,NA,NA,NA,NA,sub131
d3-instructions,8,42760,0.0-8.0,TRUE,TRUE,FALSE,TRUE,"""event"",""trial"",""time""
""fullscreenenter"",""5"",""15129""
","
","
","""event"",""trial"",""time""
""fullscreenenter"",""5"",""15129""
","
",NA,NA,NA,NA,NA,NA,NA,NA,NA,NA,NA,NA,NA,NA,NA,NA,NA,NA,NA,NA,NA,NA,sub131
d3-instructions,9,53329,0.0-9.0,TRUE,TRUE,FALSE,TRUE,"""event"",""trial"",""time""
""fullscreenenter"",""5"",""15129""
","
","
","""event"",""trial"",""time""
""fullscreenenter"",""5"",""15129""
","
",NA,NA,NA,NA,NA,NA,NA,NA,NA,NA,NA,NA,NA,NA,NA,NA,NA,NA,NA,NA,NA,NA,sub131
d3-instructions,10,67950,0.0-10.0,TRUE,TRUE,FALSE,TRUE,"""event"",""trial"",""time""
""fullscreenenter"",""5"",""15129""
","
","
","""event"",""trial"",""time""
""fullscreenenter"",""5"",""15129""
","
",NA,NA,NA,NA,NA,NA,NA,NA,NA,NA,NA,NA,NA,NA,NA,NA,NA,NA,NA,NA,NA,NA,sub131
d3-animate-choice,11,70996,0.0-11.0,TRUE,TRUE,FALSE,TRUE,"""event"",""trial"",""time""
""fullscreenenter"",""5"",""15129""
","
","
","""event"",""trial"",""time""
""fullscreenenter"",""5"",""15129""
","
",1041.2650000071153,NA,49,NA,NA,3000,1,"2157.69000002183,2744.460000016261",4848,images/tutgreenplanet.jpg,images/tutalien1,images/tutalien2,null,images/tutalien2,NA,NA,practice,null,NA,NA,NA,NA,sub131
d3-animate-choice,12,73127,0.0-12.0,TRUE,TRUE,FALSE,TRUE,"""event"",""trial"",""time""
""fullscreenenter"",""5"",""15129""
","
","
","""event"",""trial"",""time""
""fullscreenenter"",""5"",""15129""
","
",127.09500000346452,NA,49,NA,NA,3000,1,"1122.7050000452437,1682.9000000143424",4948,images/tutgreenplanet.jpg,images/tutalien1,images/tutalien2,null,images/tutalien2,NA,NA,practice,null,NA,NA,NA,NA,sub131
d3-animate-choice,13,75873,0.0-13.0,TRUE,TRUE,FALSE,TRUE,"""event"",""trial"",""time""
""fullscreenenter"",""5"",""15129""
","
","
","""event"",""trial"",""time""
""fullscreenenter"",""5"",""15129""
","
",740.5549999675713,NA,48,NA,NA,3000,1,1628.2099999953061,48,images/tutgreenplanet.jpg,images/tutalien1,images/tutalien2,null,images/tutalien1,NA,NA,practice,null,NA,NA,NA,NA,sub131
d3-animate-choice,14,78631,0.0-14.0,TRUE,TRUE,FALSE,TRUE,"""event"",""trial"",""time""
""fullscreenenter"",""5"",""15129""
","
","
","""event"",""trial"",""time""
""fullscreenenter"",""5"",""15129""
","
",750.1500000362284,NA,49,NA,NA,3000,1,NA,NA,images/tutgreenplanet.jpg,images/tutalien1,images/tutalien2,null,images/tutalien2,NA,NA,practice,null,NA,NA,NA,NA,sub131
d3-instructions,15,83961,0.0-15.0,TRUE,TRUE,FALSE,TRUE,"""event"",""trial"",""time""
""fullscreenenter"",""5"",""15129""
","
","
","""event"",""trial"",""time""
""fullscreenenter"",""5"",""15129""
","
",NA,NA,NA,NA,NA,NA,NA,NA,NA,NA,NA,NA,NA,NA,NA,NA,NA,NA,NA,NA,NA,NA,sub131
d3-instructions,16,87329,0.0-16.0,TRUE,TRUE,FALSE,TRUE,"""event"",""trial"",""time""
""fullscreenenter"",""5"",""15129""
","
","
","""event"",""trial"",""time""
""fullscreenenter"",""5"",""15129""
","
",NA,NA,NA,NA,NA,NA,NA,NA,NA,NA,NA,NA,NA,NA,NA,NA,NA,NA,NA,NA,NA,NA,sub131
d3-instructions,17,93738,0.0-17.0,TRUE,TRUE,FALSE,TRUE,"""event"",""trial"",""time""
""fullscreenenter"",""5"",""15129""
","
","
","""event"",""trial"",""time""
""fullscreenenter"",""5"",""15129""
","
",NA,NA,NA,NA,NA,NA,NA,NA,NA,NA,NA,NA,NA,NA,NA,NA,NA,NA,NA,NA,NA,NA,sub131
d3-instructions,18,105845,0.0-18.0,TRUE,TRUE,FALSE,TRUE,"""event"",""trial"",""time""
""fullscreenenter"",""5"",""15129""
","
","
","""event"",""trial"",""time""
""fullscreenenter"",""5"",""15129""
","
",NA,NA,NA,NA,NA,NA,NA,NA,NA,NA,NA,NA,NA,NA,NA,NA,NA,NA,NA,NA,NA,NA,sub131
d3-instructions,19,114888,0.0-19.0,TRUE,TRUE,FALSE,TRUE,"""event"",""trial"",""time""
""fullscreenenter"",""5"",""15129""
","
","
","""event"",""trial"",""time""
""fullscreenenter"",""5"",""15129""
","
",NA,NA,NA,NA,NA,NA,NA,NA,NA,NA,NA,NA,NA,NA,NA,NA,NA,NA,NA,NA,NA,NA,sub131
d3-animate-choice,20,117815,0.0-20.0,TRUE,TRUE,FALSE,TRUE,"""event"",""trial"",""time""
""fullscreenenter"",""5"",""15129""
","
","
","""event"",""trial"",""time""
""fullscreenenter"",""5"",""15129""
","
",923.0250000255182,NA,49,NA,NA,3000,1,"1338.549999985844,1777.8650000109337,2135.424999985844,2638.135000015609",49494949,images/tutyellowplanet.jpg,null,images/tutalien3,null,images/tutalien3,images/t.png,NA,practice,null,NA,NA,NA,NA,sub131
d3-animate-choice,21,120300,0.0-21.0,TRUE,TRUE,FALSE,TRUE,"""event"",""trial"",""time""
""fullscreenenter"",""5"",""15129""
","
","
","""event"",""trial"",""time""
""fullscreenenter"",""5"",""15129""
","
",479.79000001214445,NA,49,NA,NA,3000,1,"803.2900000107475,1292.7849999978207,1960.2650000015274",494949,images/tutyellowplanet.jpg,null,images/tutalien3,null,images/tutalien3,images/t.png,NA,practice,null,NA,NA,NA,NA,sub131
d3-animate-choice,22,122686,0.0-22.0,TRUE,TRUE,FALSE,TRUE,"""event"",""trial"",""time""
""fullscreenenter"",""5"",""15129""
","
","
","""event"",""trial"",""time""
""fullscreenenter"",""5"",""15129""
","
",379.1600000113249,NA,49,NA,NA,3000,1,1907.1550000226125,49,images/tutyellowplanet.jpg,null,images/tutalien3,null,images/tutalien3,images/t.png,NA,practice,null,NA,NA,NA,NA,sub131
d3-animate-choice,23,124857,0.0-23.0,TRUE,TRUE,FALSE,TRUE,"""event"",""trial"",""time""
""fullscreenenter"",""5"",""15129""
","
","
","""event"",""trial"",""time""
""fullscreenenter"",""5"",""15129""
","
",168.6850000405684,NA,49,NA,NA,3000,1,NA,NA,images/tutyellowplanet.jpg,null,images/tutalien3,null,images/tutalien3,images/t.png,NA,practice,null,NA,NA,NA,NA,sub131
d3-animate-choice,24,127229,0.0-24.0,TRUE,TRUE,FALSE,TRUE,"""event"",""trial"",""time""
""fullscreenenter"",""5"",""15129""
","
","
","""event"",""trial"",""time""
""fullscreenenter"",""5"",""15129""
","
",369.5150000276044,NA,49,NA,NA,3000,1,NA,NA,images/tutyellowplanet.jpg,null,images/tutalien3,null,images/tutalien3,images/t.png,NA,practice,null,NA,NA,NA,NA,sub131
d3-animate-choice,25,129548,0.0-25.0,TRUE,TRUE,FALSE,TRUE,"""event"",""trial"",""time""
""fullscreenenter"",""5"",""15129""
","
","
","""event"",""trial"",""time""
""fullscreenenter"",""5"",""15129""
","
",312.2800000128336,NA,49,NA,NA,3000,1,NA,NA,images/tutyellowplanet.jpg,null,images/tutalien3,null,images/tutalien3,images/t.png,NA,practice,null,NA,NA,NA,NA,sub131
d3-animate-choice,26,131881,0.0-26.0,TRUE,TRUE,FALSE,TRUE,"""event"",""trial"",""time""
""fullscreenenter"",""5"",""15129""
","
","
","""event"",""trial"",""time""
""fullscreenenter"",""5"",""15129""
","
",327.70500000333413,NA,49,NA,NA,3000,1,NA,NA,images/tutyellowplanet.jpg,null,images/tutalien3,null,images/tutalien3,images/t.png,NA,practice,null,NA,NA,NA,NA,sub131
d3-animate-choice,27,133995,0.0-27.0,TRUE,TRUE,FALSE,TRUE,"""event"",""trial"",""time""
""fullscreenenter"",""5"",""15129""
","
","
","""event"",""trial"",""time""
""fullscreenenter"",""5"",""15129""
","
",109.92000001715496,NA,49,NA,NA,3000,1,NA,NA,images/tutyellowplanet.jpg,null,images/tutalien3,null,images/tutalien3,images/t.png,NA,practice,null,NA,NA,NA,NA,sub131
d3-animate-choice,28,136345,0.0-28.0,TRUE,TRUE,FALSE,TRUE,"""event"",""trial"",""time""
""fullscreenenter"",""5"",""15129""
","
","
","""event"",""trial"",""time""
""fullscreenenter"",""5"",""15129""
","
",347.93500002706423,NA,49,NA,NA,3000,1,NA,NA,images/tutyellowplanet.jpg,null,images/tutalien3,null,images/tutalien3,images/t.png,NA,practice,null,NA,NA,NA,NA,sub131
d3-animate-choice,29,138425,0.0-29.0,TRUE,TRUE,FALSE,TRUE,"""event"",""trial"",""time""
""fullscreenenter"",""5"",""15129""
","
","
","""event"",""trial"",""time""
""fullscreenenter"",""5"",""15129""
","
",77.44000002276152,NA,49,NA,NA,3000,1,NA,NA,images/tutyellowplanet.jpg,null,images/tutalien3,null,images/tutalien3,images/t.png,NA,practice,null,NA,NA,NA,NA,sub131
d3-instructions,30,141912,0.0-30.0,TRUE,TRUE,FALSE,TRUE,"""event"",""trial"",""time""
""fullscreenenter"",""5"",""15129""
","
","
","""event"",""trial"",""time""
""fullscreenenter"",""5"",""15129""
","
",NA,NA,NA,NA,NA,NA,NA,NA,NA,NA,NA,NA,NA,NA,NA,NA,NA,NA,NA,NA,NA,NA,sub131
d3-instructions,31,146024,0.0-31.0,TRUE,TRUE,FALSE,TRUE,"""event"",""trial"",""time""
""fullscreenenter"",""5"",""15129""
","
","
","""event"",""trial"",""time""
""fullscreenenter"",""5"",""15129""
","
",NA,NA,NA,NA,NA,NA,NA,NA,NA,NA,NA,NA,NA,NA,NA,NA,NA,NA,NA,NA,NA,NA,sub131
d3-instructions,32,150330,0.0-32.0,TRUE,TRUE,FALSE,TRUE,"""event"",""trial"",""time""
""fullscreenenter"",""5"",""15129""
","
","
","""event"",""trial"",""time""
""fullscreenenter"",""5"",""15129""
","
",NA,NA,NA,NA,NA,NA,NA,NA,NA,NA,NA,NA,NA,NA,NA,NA,NA,NA,NA,NA,NA,NA,sub131
d3-instructions,33,153820,0.0-33.0,TRUE,TRUE,FALSE,TRUE,"""event"",""trial"",""time""
""fullscreenenter"",""5"",""15129""
","
","
","""event"",""trial"",""time""
""fullscreenenter"",""5"",""15129""
","
",NA,NA,NA,NA,NA,NA,NA,NA,NA,NA,NA,NA,NA,NA,NA,NA,NA,NA,NA,NA,NA,NA,sub131
d3-animate-choice,34,156629,0.0-34.0,TRUE,TRUE,FALSE,TRUE,"""event"",""trial"",""time""
""fullscreenenter"",""5"",""15129""
","
","
","""event"",""trial"",""time""
""fullscreenenter"",""5"",""15129""
","
",802.9349999851547,NA,48,NA,NA,3000,1,NA,NA,images/tutgreenplanet.jpg,images/tutalien1,images/tutalien2,null,images/tutalien1,images/nothing.png,NA,practice,null,NA,NA,NA,NA,sub131
d3-animate-choice,35,159166,0.0-35.0,TRUE,TRUE,FALSE,TRUE,"""event"",""trial"",""time""
""fullscreenenter"",""5"",""15129""
","
","
","""event"",""trial"",""time""
""fullscreenenter"",""5"",""15129""
","
",534.1900000348687,NA,48,NA,NA,3000,1,NA,NA,images/tutgreenplanet.jpg,images/tutalien1,images/tutalien2,null,images/tutalien1,images/nothing.png,NA,practice,null,NA,NA,NA,NA,sub131
d3-animate-choice,36,161476,0.0-36.0,TRUE,TRUE,FALSE,TRUE,"""event"",""trial"",""time""
""fullscreenenter"",""5"",""15129""
","
","
","""event"",""trial"",""time""
""fullscreenenter"",""5"",""15129""
","
",304.9999999930151,NA,49,NA,NA,3000,1,NA,NA,images/tutgreenplanet.jpg,images/tutalien1,images/tutalien2,null,images/tutalien2,images/t.png,NA,practice,null,NA,NA,NA,NA,sub131
d3-animate-choice,37,163885,0.0-37.0,TRUE,TRUE,FALSE,TRUE,"""event"",""trial"",""time""
""fullscreenenter"",""5"",""15129""
","
","
","""event"",""trial"",""time""
""fullscreenenter"",""5"",""15129""
","
",404.16500001447275,NA,49,NA,NA,3000,1,NA,NA,images/tutgreenplanet.jpg,images/tutalien1,images/tutalien2,null,images/tutalien2,images/t.png,NA,practice,null,NA,NA,NA,NA,sub131
d3-animate-choice,38,166306,0.0-38.0,TRUE,TRUE,FALSE,TRUE,"""event"",""trial"",""time""
""fullscreenenter"",""5"",""15129""
","
","
","""event"",""trial"",""time""
""fullscreenenter"",""5"",""15129""
","
",417.3249999876134,NA,49,NA,NA,3000,1,NA,NA,images/tutgreenplanet.jpg,images/tutalien1,images/tutalien2,null,images/tutalien2,images/t.png,NA,practice,null,NA,NA,NA,NA,sub131
d3-animate-choice,39,168680,0.0-39.0,TRUE,TRUE,FALSE,TRUE,"""event"",""trial"",""time""
""fullscreenenter"",""5"",""15129""
","
","
","""event"",""trial"",""time""
""fullscreenenter"",""5"",""15129""
","
",368.3549999841489,NA,49,NA,NA,3000,1,NA,NA,images/tutgreenplanet.jpg,images/tutalien1,images/tutalien2,null,images/tutalien2,images/t.png,NA,practice,null,NA,NA,NA,NA,sub131
d3-animate-choice,40,171066,0.0-40.0,TRUE,TRUE,FALSE,TRUE,"""event"",""trial"",""time""
""fullscreenenter"",""5"",""15129""
","
","
","""event"",""trial"",""time""
""fullscreenenter"",""5"",""15129""
","
",382.66500004101545,NA,49,NA,NA,3000,1,NA,NA,images/tutgreenplanet.jpg,images/tutalien1,images/tutalien2,null,images/tutalien2,images/t.png,NA,practice,null,NA,NA,NA,NA,sub131
d3-animate-choice,41,173464,0.0-41.0,TRUE,TRUE,FALSE,TRUE,"""event"",""trial"",""time""
""fullscreenenter"",""5"",""15129""
","
","
","""event"",""trial"",""time""
""fullscreenenter"",""5"",""15129""
","
",395.9150000009686,NA,49,NA,NA,3000,1,NA,NA,images/tutgreenplanet.jpg,images/tutalien1,images/tutalien2,null,images/tutalien2,images/t.png,NA,practice,null,NA,NA,NA,NA,sub131
d3-animate-choice,42,175827,0.0-42.0,TRUE,TRUE,FALSE,TRUE,"""event"",""trial"",""time""
""fullscreenenter"",""5"",""15129""
","
","
","""event"",""trial"",""time""
""fullscreenenter"",""5"",""15129""
","
",359.08500000368804,NA,49,NA,NA,3000,1,NA,NA,images/tutgreenplanet.jpg,images/tutalien1,images/tutalien2,null,images/tutalien2,images/t.png,NA,practice,null,NA,NA,NA,NA,sub131
d3-animate-choice,43,178188,0.0-43.0,TRUE,TRUE,FALSE,TRUE,"""event"",""trial"",""time""
""fullscreenenter"",""5"",""15129""
","
","
","""event"",""trial"",""time""
""fullscreenenter"",""5"",""15129""
","
",356.03500000433996,NA,49,NA,NA,3000,1,NA,NA,images/tutgreenplanet.jpg,images/tutalien1,images/tutalien2,null,images/tutalien2,images/t.png,NA,practice,null,NA,NA,NA,NA,sub131
d3-instructions,44,188252,0.0-44.0,TRUE,TRUE,FALSE,TRUE,"""event"",""trial"",""time""
""fullscreenenter"",""5"",""15129""
","
","
","""event"",""trial"",""time""
""fullscreenenter"",""5"",""15129""
","
",NA,NA,NA,NA,NA,NA,NA,NA,NA,NA,NA,NA,NA,NA,NA,NA,NA,NA,NA,NA,NA,NA,sub131
d3-instructions,45,191299,0.0-45.0,TRUE,TRUE,FALSE,TRUE,"""event"",""trial"",""time""
""fullscreenenter"",""5"",""15129""
","
","
","""event"",""trial"",""time""
""fullscreenenter"",""5"",""15129""
","
",NA,NA,NA,NA,NA,NA,NA,NA,NA,NA,NA,NA,NA,NA,NA,NA,NA,NA,NA,NA,NA,NA,sub131
d3-instructions,46,195800,0.0-46.0,TRUE,TRUE,FALSE,TRUE,"""event"",""trial"",""time""
""fullscreenenter"",""5"",""15129""
","
","
","""event"",""trial"",""time""
""fullscreenenter"",""5"",""15129""
","
",NA,NA,NA,NA,NA,NA,NA,NA,NA,NA,NA,NA,NA,NA,NA,NA,NA,NA,NA,NA,NA,NA,sub131
d3-instructions,47,205911,0.0-47.0,TRUE,TRUE,FALSE,TRUE,"""event"",""trial"",""time""
""fullscreenenter"",""5"",""15129""
","
","
","""event"",""trial"",""time""
""fullscreenenter"",""5"",""15129""
","
",NA,NA,NA,NA,NA,NA,NA,NA,NA,NA,NA,NA,NA,NA,NA,NA,NA,NA,NA,NA,NA,NA,sub131
d3-instructions,48,210579,0.0-48.0,TRUE,TRUE,FALSE,TRUE,"""event"",""trial"",""time""
""fullscreenenter"",""5"",""15129""
","
","
","""event"",""trial"",""time""
""fullscreenenter"",""5"",""15129""
","
",NA,NA,NA,NA,NA,NA,NA,NA,NA,NA,NA,NA,NA,NA,NA,NA,NA,NA,NA,NA,NA,NA,sub131
d3-instructions,49,217007,0.0-49.0,TRUE,TRUE,FALSE,TRUE,"""event"",""trial"",""time""
""fullscreenenter"",""5"",""15129""
","
","
","""event"",""trial"",""time""
""fullscreenenter"",""5"",""15129""
","
",NA,NA,NA,NA,NA,NA,NA,NA,NA,NA,NA,NA,NA,NA,NA,NA,NA,NA,NA,NA,NA,NA,sub131
d3-instructions,50,221823,0.0-50.0,TRUE,TRUE,FALSE,TRUE,"""event"",""trial"",""time""
""fullscreenenter"",""5"",""15129""
","
","
","""event"",""trial"",""time""
""fullscreenenter"",""5"",""15129""
","
",NA,NA,NA,NA,NA,NA,NA,NA,NA,NA,NA,NA,NA,NA,NA,NA,NA,NA,NA,NA,NA,NA,sub131
d3-instructions,51,226120,0.0-51.0,TRUE,TRUE,FALSE,TRUE,"""event"",""trial"",""time""
""fullscreenenter"",""5"",""15129""
","
","
","""event"",""trial"",""time""
""fullscreenenter"",""5"",""15129""
","
",NA,NA,NA,NA,NA,NA,NA,NA,NA,NA,NA,NA,NA,NA,NA,NA,NA,NA,NA,NA,NA,NA,sub131
d3-instructions,52,227979,0.0-52.0,TRUE,TRUE,FALSE,TRUE,"""event"",""trial"",""time""
""fullscreenenter"",""5"",""15129""
","
","
","""event"",""trial"",""time""
""fullscreenenter"",""5"",""15129""
","
",NA,NA,NA,NA,NA,NA,NA,NA,NA,NA,NA,NA,NA,NA,NA,NA,NA,NA,NA,NA,NA,NA,sub131
d3-instructions,53,235516,0.0-53.0,TRUE,TRUE,FALSE,TRUE,"""event"",""trial"",""time""
""fullscreenenter"",""5"",""15129""
","
","
","""event"",""trial"",""time""
""fullscreenenter"",""5"",""15129""
","
",NA,NA,NA,NA,NA,NA,NA,NA,NA,NA,NA,NA,NA,NA,NA,NA,NA,NA,NA,NA,NA,NA,sub131
d3-instructions,54,249291,0.0-54.0,TRUE,TRUE,FALSE,TRUE,"""event"",""trial"",""time""
""fullscreenenter"",""5"",""15129""
","
","
","""event"",""trial"",""time""
""fullscreenenter"",""5"",""15129""
","
",NA,NA,NA,NA,NA,NA,NA,NA,NA,NA,NA,NA,NA,NA,NA,NA,NA,NA,NA,NA,NA,NA,sub131
d3-instructions,55,254367,0.0-55.0,TRUE,TRUE,FALSE,TRUE,"""event"",""trial"",""time""
""fullscreenenter"",""5"",""15129""
","
","
","""event"",""trial"",""time""
""fullscreenenter"",""5"",""15129""
","
",NA,NA,NA,NA,NA,NA,NA,NA,NA,NA,NA,NA,NA,NA,NA,NA,NA,NA,NA,NA,NA,NA,sub131
d3-instructions,56,261963,0.0-56.0,TRUE,TRUE,FALSE,TRUE,"""event"",""trial"",""time""
""fullscreenenter"",""5"",""15129""
","
","
","""event"",""trial"",""time""
""fullscreenenter"",""5"",""15129""
","
",NA,NA,NA,NA,NA,NA,NA,NA,NA,NA,NA,NA,NA,NA,NA,NA,NA,NA,NA,NA,NA,NA,sub131
d3-instructions,57,269775,0.0-57.0,TRUE,TRUE,FALSE,TRUE,"""event"",""trial"",""time""
""fullscreenenter"",""5"",""15129""
","
","
","""event"",""trial"",""time""
""fullscreenenter"",""5"",""15129""
","
",NA,NA,NA,NA,NA,NA,NA,NA,NA,NA,NA,NA,NA,NA,NA,NA,NA,NA,NA,NA,NA,NA,sub131
d3-instructions,58,275275,0.0-58.0,TRUE,TRUE,FALSE,TRUE,"""event"",""trial"",""time""
""fullscreenenter"",""5"",""15129""
","
","
","""event"",""trial"",""time""
""fullscreenenter"",""5"",""15129""
","
",NA,NA,NA,NA,NA,NA,NA,NA,NA,NA,NA,NA,NA,NA,NA,NA,NA,NA,NA,NA,NA,NA,sub131
d3-instructions,59,279007,0.0-59.0,TRUE,TRUE,FALSE,TRUE,"""event"",""trial"",""time""
""fullscreenenter"",""5"",""15129""
","
","
","""event"",""trial"",""time""
""fullscreenenter"",""5"",""15129""
","
",NA,NA,NA,NA,NA,NA,NA,NA,NA,NA,NA,NA,NA,NA,NA,NA,NA,NA,NA,NA,NA,NA,sub131
d3-instructions,60,283319,0.0-60.0,TRUE,TRUE,FALSE,TRUE,"""event"",""trial"",""time""
""fullscreenenter"",""5"",""15129""
","
","
","""event"",""trial"",""time""
""fullscreenenter"",""5"",""15129""
","
",NA,NA,NA,NA,NA,NA,NA,NA,NA,NA,NA,NA,NA,NA,NA,NA,NA,NA,NA,NA,NA,NA,sub131
d3-animate-choice,61,286236,0.0-61.0-0.0,TRUE,TRUE,FALSE,TRUE,"""event"",""trial"",""time""
""fullscreenenter"",""5"",""15129""
","
","
","""event"",""trial"",""time""
""fullscreenenter"",""5"",""15129""
","
",913.5949999908917,NA,49,NA,NA,3000,1,NA,NA,images/earth.jpg,images/tutrocket1,images/tutrocket2,null,images/tutrocket2,NA,1,practice,null,1,NA,NA,NA,sub131
d3-animate-choice,62,289156,0.0-61.0-1.0,TRUE,TRUE,FALSE,TRUE,"""event"",""trial"",""time""
""fullscreenenter"",""5"",""15129""
","
","
","""event"",""trial"",""time""
""fullscreenenter"",""5"",""15129""
","
",913.5799999930896,NA,49,NA,NA,3000,1,2813.190000015311,48,images/tutgreenplanet.jpg,images/tutalien2,images/tutalien1,images/tutrocket2,images/tutalien1,images/nothing.png,2,practice,false,1,rare,0,2020-06-20T14:35:28Z,sub131
two-step-fixation,63,290163,0.0-61.0-2.0,TRUE,TRUE,FALSE,TRUE,"""event"",""trial"",""time""
""fullscreenenter"",""5"",""15129""
","
","
","""event"",""trial"",""time""
""fullscreenenter"",""5"",""15129""
","
",NA,images/earth.jpg,NA,NA,NA,NA,NA,NA,NA,NA,NA,NA,NA,NA,NA,fixation,NA,NA,NA,NA,NA,NA,sub131
d3-animate-choice,64,292665,0.0-61.0-0.1,TRUE,TRUE,FALSE,TRUE,"""event"",""trial"",""time""
""fullscreenenter"",""5"",""15129""
","
","
","""event"",""trial"",""time""
""fullscreenenter"",""5"",""15129""
","
",497.60000000242144,NA,48,NA,NA,3000,1,NA,NA,images/earth.jpg,images/tutrocket1,images/tutrocket2,null,images/tutrocket1,NA,1,practice,null,2,NA,NA,NA,sub131
d3-animate-choice,65,295117,0.0-61.0-1.1,TRUE,TRUE,FALSE,TRUE,"""event"",""trial"",""time""
""fullscreenenter"",""5"",""15129""
","
","
","""event"",""trial"",""time""
""fullscreenenter"",""5"",""15129""
","
",448.755000019446,NA,48,NA,NA,3000,1,NA,NA,images/tutgreenplanet.jpg,images/tutalien2,images/tutalien1,images/tutrocket1,images/tutalien2,images/nothing.png,2,practice,true,2,common,0,2020-06-20T14:35:34Z,sub131
two-step-fixation,66,296122,0.0-61.0-2.1,TRUE,TRUE,FALSE,TRUE,"""event"",""trial"",""time""
""fullscreenenter"",""5"",""15129""
","
","
","""event"",""trial"",""time""
""fullscreenenter"",""5"",""15129""
","
",NA,images/earth.jpg,NA,NA,NA,NA,NA,NA,NA,NA,NA,NA,NA,NA,NA,fixation,NA,NA,NA,NA,NA,NA,sub131
d3-animate-choice,67,298630,0.0-61.0-0.2,TRUE,TRUE,FALSE,TRUE,"""event"",""trial"",""time""
""fullscreenenter"",""5"",""15129""
","
","
","""event"",""trial"",""time""
""fullscreenenter"",""5"",""15129""
","
",500,NA,48,NA,NA,3000,1,NA,NA,images/earth.jpg,images/tutrocket1,images/tutrocket2,null,images/tutrocket1,NA,1,practice,null,2,NA,NA,NA,sub131
d3-animate-choice,68,300992,0.0-61.0-1.2,TRUE,TRUE,FALSE,TRUE,"""event"",""trial"",""time""
""fullscreenenter"",""5"",""15129""
","
","
","""event"",""trial"",""time""
""fullscreenenter"",""5"",""15129""
","
",359.9800000083633,NA,49,NA,NA,3000,1,NA,NA,images/tutgreenplanet.jpg,images/tutalien2,images/tutalien1,images/tutrocket1,images/tutalien1,images/nothing.png,2,practice,true,1,common,0,2020-06-20T14:35:40Z,sub131
two-step-fixation,69,301994,0.0-61.0-2.2,TRUE,TRUE,FALSE,TRUE,"""event"",""trial"",""time""
""fullscreenenter"",""5"",""15129""
","
","
","""event"",""trial"",""time""
""fullscreenenter"",""5"",""15129""
","
",NA,images/earth.jpg,NA,NA,NA,NA,NA,NA,NA,NA,NA,NA,NA,NA,NA,fixation,NA,NA,NA,NA,NA,NA,sub131
d3-animate-choice,70,304388,0.0-61.0-0.3,TRUE,TRUE,FALSE,TRUE,"""event"",""trial"",""time""
""fullscreenenter"",""5"",""15129""
","
","
","""event"",""trial"",""time""
""fullscreenenter"",""5"",""15129""
","
",390.45000000623986,NA,48,NA,NA,3000,1,NA,NA,images/earth.jpg,images/tutrocket1,images/tutrocket2,null,images/tutrocket1,NA,1,practice,null,2,NA,NA,NA,sub131
d3-animate-choice,71,306856,0.0-61.0-1.3,TRUE,TRUE,FALSE,TRUE,"""event"",""trial"",""time""
""fullscreenenter"",""5"",""15129""
","
","
","""event"",""trial"",""time""
""fullscreenenter"",""5"",""15129""
","
",460.5100000044331,NA,49,NA,NA,3000,1,NA,NA,images/tutgreenplanet.jpg,images/tutalien2,images/tutalien1,images/tutrocket1,images/tutalien1,images/t.png,2,practice,true,1,common,1,2020-06-20T14:35:46Z,sub131
two-step-fixation,72,307861,0.0-61.0-2.3,TRUE,TRUE,FALSE,TRUE,"""event"",""trial"",""time""
""fullscreenenter"",""5"",""15129""
","
","
","""event"",""trial"",""time""
""fullscreenenter"",""5"",""15129""
","
",NA,images/earth.jpg,NA,NA,NA,NA,NA,NA,NA,NA,NA,NA,NA,NA,NA,fixation,NA,NA,NA,NA,NA,NA,sub131
d3-animate-choice,73,310252,0.0-61.0-0.4,TRUE,TRUE,FALSE,TRUE,"""event"",""trial"",""time""
""fullscreenenter"",""5"",""15129""
","
","
","""event"",""trial"",""time""
""fullscreenenter"",""5"",""15129""
","
",383.5749999852851,NA,49,NA,NA,3000,1,NA,NA,images/earth.jpg,images/tutrocket1,images/tutrocket2,null,images/tutrocket2,NA,1,practice,null,1,NA,NA,NA,sub131
d3-animate-choice,74,312793,0.0-61.0-1.4,TRUE,TRUE,FALSE,TRUE,"""event"",""trial"",""time""
""fullscreenenter"",""5"",""15129""
","
","
","""event"",""trial"",""time""
""fullscreenenter"",""5"",""15129""
","
",538.9750000322238,NA,48,NA,NA,3000,1,NA,NA,images/tutyellowplanet.jpg,images/tutalien4,images/tutalien3,images/tutrocket2,images/tutalien4,images/nothing.png,2,practice,true,2,common,0,2020-06-20T14:35:52Z,sub131
two-step-fixation,75,313798,0.0-61.0-2.4,TRUE,TRUE,FALSE,TRUE,"""event"",""trial"",""time""
""fullscreenenter"",""5"",""15129""
","
","
","""event"",""trial"",""time""
""fullscreenenter"",""5"",""15129""
","
",NA,images/earth.jpg,NA,NA,NA,NA,NA,NA,NA,NA,NA,NA,NA,NA,NA,fixation,NA,NA,NA,NA,NA,NA,sub131
d3-animate-choice,76,316267,0.0-61.0-0.5,TRUE,TRUE,FALSE,TRUE,"""event"",""trial"",""time""
""fullscreenenter"",""5"",""15129""
","
","
","""event"",""trial"",""time""
""fullscreenenter"",""5"",""15129""
","
",462.6200000056997,NA,49,NA,NA,3000,1,NA,NA,images/earth.jpg,images/tutrocket1,images/tutrocket2,null,images/tutrocket2,NA,1,practice,null,1,NA,NA,NA,sub131
d3-animate-choice,77,318716,0.0-61.0-1.5,TRUE,TRUE,FALSE,TRUE,"""event"",""trial"",""time""
""fullscreenenter"",""5"",""15129""
","
","
","""event"",""trial"",""time""
""fullscreenenter"",""5"",""15129""
","
",440.6550000421703,NA,48,NA,NA,3000,1,NA,NA,images/tutyellowplanet.jpg,images/tutalien4,images/tutalien3,images/tutrocket2,images/tutalien4,images/t.png,2,practice,true,2,common,1,2020-06-20T14:35:57Z,sub131
two-step-fixation,78,319722,0.0-61.0-2.5,TRUE,TRUE,FALSE,TRUE,"""event"",""trial"",""time""
""fullscreenenter"",""5"",""15129""
","
","
","""event"",""trial"",""time""
""fullscreenenter"",""5"",""15129""
","
",NA,images/earth.jpg,NA,NA,NA,NA,NA,NA,NA,NA,NA,NA,NA,NA,NA,fixation,NA,NA,NA,NA,NA,NA,sub131
d3-animate-choice,79,322121,0.0-61.0-0.6,TRUE,TRUE,FALSE,TRUE,"""event"",""trial"",""time""
""fullscreenenter"",""5"",""15129""
","
","
","""event"",""trial"",""time""
""fullscreenenter"",""5"",""15129""
","
",394.4350000238046,NA,49,NA,NA,3000,1,NA,NA,images/earth.jpg,images/tutrocket1,images/tutrocket2,null,images/tutrocket2,NA,1,practice,null,1,NA,NA,NA,sub131
d3-animate-choice,80,324517,0.0-61.0-1.6,TRUE,TRUE,FALSE,TRUE,"""event"",""trial"",""time""
""fullscreenenter"",""5"",""15129""
","
","
","""event"",""trial"",""time""
""fullscreenenter"",""5"",""15129""
","
",388.33000004524365,NA,48,NA,NA,3000,1,NA,NA,images/tutyellowplanet.jpg,images/tutalien4,images/tutalien3,images/tutrocket2,images/tutalien4,images/nothing.png,2,practice,true,2,common,0,2020-06-20T14:36:03Z,sub131
two-step-fixation,81,325523,0.0-61.0-2.6,TRUE,TRUE,FALSE,TRUE,"""event"",""trial"",""time""
""fullscreenenter"",""5"",""15129""
","
","
","""event"",""trial"",""time""
""fullscreenenter"",""5"",""15129""
","
",NA,images/earth.jpg,NA,NA,NA,NA,NA,NA,NA,NA,NA,NA,NA,NA,NA,fixation,NA,NA,NA,NA,NA,NA,sub131
d3-animate-choice,82,327881,0.0-61.0-0.7,TRUE,TRUE,FALSE,TRUE,"""event"",""trial"",""time""
""fullscreenenter"",""5"",""15129""
","
","
","""event"",""trial"",""time""
""fullscreenenter"",""5"",""15129""
","
",349.5049999910407,NA,49,NA,NA,3000,1,NA,NA,images/earth.jpg,images/tutrocket1,images/tutrocket2,null,images/tutrocket2,NA,1,practice,null,1,NA,NA,NA,sub131
d3-animate-choice,83,330276,0.0-61.0-1.7,TRUE,TRUE,FALSE,TRUE,"""event"",""trial"",""time""
""fullscreenenter"",""5"",""15129""
","
","
","""event"",""trial"",""time""
""fullscreenenter"",""5"",""15129""
","
",391.33999997284263,NA,48,NA,NA,3000,1,NA,NA,images/tutgreenplanet.jpg,images/tutalien2,images/tutalien1,images/tutrocket2,images/tutalien2,images/t.png,2,practice,false,2,rare,1,2020-06-20T14:36:09Z,sub131
two-step-fixation,84,331279,0.0-61.0-2.7,TRUE,TRUE,FALSE,TRUE,"""event"",""trial"",""time""
""fullscreenenter"",""5"",""15129""
","
","
","""event"",""trial"",""time""
""fullscreenenter"",""5"",""15129""
","
",NA,images/earth.jpg,NA,NA,NA,NA,NA,NA,NA,NA,NA,NA,NA,NA,NA,fixation,NA,NA,NA,NA,NA,NA,sub131
d3-animate-choice,85,333694,0.0-61.0-0.8,TRUE,TRUE,FALSE,TRUE,"""event"",""trial"",""time""
""fullscreenenter"",""5"",""15129""
","
","
","""event"",""trial"",""time""
""fullscreenenter"",""5"",""15129""
","
",409.83499999856576,NA,49,NA,NA,3000,1,NA,NA,images/earth.jpg,images/tutrocket1,images/tutrocket2,null,images/tutrocket2,NA,1,practice,null,1,NA,NA,NA,sub131
d3-animate-choice,86,336075,0.0-61.0-1.8,TRUE,TRUE,FALSE,TRUE,"""event"",""trial"",""time""
""fullscreenenter"",""5"",""15129""
","
","
","""event"",""trial"",""time""
""fullscreenenter"",""5"",""15129""
","
",375.36499998532236,NA,48,NA,NA,3000,1,NA,NA,images/tutgreenplanet.jpg,images/tutalien2,images/tutalien1,images/tutrocket2,images/tutalien2,images/t.png,2,practice,false,2,rare,1,2020-06-20T14:36:15Z,sub131
two-step-fixation,87,337079,0.0-61.0-2.8,TRUE,TRUE,FALSE,TRUE,"""event"",""trial"",""time""
""fullscreenenter"",""5"",""15129""
","
","
","""event"",""trial"",""time""
""fullscreenenter"",""5"",""15129""
","
",NA,images/earth.jpg,NA,NA,NA,NA,NA,NA,NA,NA,NA,NA,NA,NA,NA,fixation,NA,NA,NA,NA,NA,NA,sub131
d3-animate-choice,88,339991,0.0-61.0-0.9,TRUE,TRUE,FALSE,TRUE,"""event"",""trial"",""time""
""fullscreenenter"",""5"",""15129""
","
","
","""event"",""trial"",""time""
""fullscreenenter"",""5"",""15129""
","
",905.6800000253133,NA,49,NA,NA,3000,1,NA,NA,images/earth.jpg,images/tutrocket1,images/tutrocket2,null,images/tutrocket2,NA,1,practice,null,1,NA,NA,NA,sub131
d3-animate-choice,89,342387,0.0-61.0-1.9,TRUE,TRUE,FALSE,TRUE,"""event"",""trial"",""time""
""fullscreenenter"",""5"",""15129""
","
","
","""event"",""trial"",""time""
""fullscreenenter"",""5"",""15129""
","
",388.9700000290759,NA,48,NA,NA,3000,1,NA,NA,images/tutyellowplanet.jpg,images/tutalien4,images/tutalien3,images/tutrocket2,images/tutalien4,images/t.png,2,practice,true,2,common,1,2020-06-20T14:36:21Z,sub131
two-step-fixation,90,343394,0.0-61.0-2.9,TRUE,TRUE,FALSE,TRUE,"""event"",""trial"",""time""
""fullscreenenter"",""5"",""15129""
","
","
","""event"",""trial"",""time""
""fullscreenenter"",""5"",""15129""
","
",NA,images/earth.jpg,NA,NA,NA,NA,NA,NA,NA,NA,NA,NA,NA,NA,NA,fixation,NA,NA,NA,NA,NA,NA,sub131
d3-animate-choice,91,345788,0.0-61.0-0.10,TRUE,TRUE,FALSE,TRUE,"""event"",""trial"",""time""
""fullscreenenter"",""5"",""15129""
","
","
","""event"",""trial"",""time""
""fullscreenenter"",""5"",""15129""
","
",389.99500003410503,NA,49,NA,NA,3000,1,NA,NA,images/earth.jpg,images/tutrocket1,images/tutrocket2,null,images/tutrocket2,NA,1,practice,null,1,NA,NA,NA,sub131
d3-animate-choice,92,348170,0.0-61.0-1.10,TRUE,TRUE,FALSE,TRUE,"""event"",""trial"",""time""
""fullscreenenter"",""5"",""15129""
","
","
","""event"",""trial"",""time""
""fullscreenenter"",""5"",""15129""
","
",378.26999998651445,NA,48,NA,NA,3000,1,NA,NA,images/tutyellowplanet.jpg,images/tutalien4,images/tutalien3,images/tutrocket2,images/tutalien4,images/t.png,2,practice,true,2,common,1,2020-06-20T14:36:27Z,sub131
two-step-fixation,93,349173,0.0-61.0-2.10,TRUE,TRUE,FALSE,TRUE,"""event"",""trial"",""time""
""fullscreenenter"",""5"",""15129""
","
","
","""event"",""trial"",""time""
""fullscreenenter"",""5"",""15129""
","
",NA,images/earth.jpg,NA,NA,NA,NA,NA,NA,NA,NA,NA,NA,NA,NA,NA,fixation,NA,NA,NA,NA,NA,NA,sub131
d3-animate-choice,94,351649,0.0-61.0-0.11,TRUE,TRUE,FALSE,TRUE,"""event"",""trial"",""time""
""fullscreenenter"",""5"",""15129""
","
","
","""event"",""trial"",""time""
""fullscreenenter"",""5"",""15129""
","
",470.9599999478087,NA,49,NA,NA,3000,1,NA,NA,images/earth.jpg,images/tutrocket1,images/tutrocket2,null,images/tutrocket2,NA,1,practice,null,1,NA,NA,NA,sub131
d3-animate-choice,95,354159,0.0-61.0-1.11,TRUE,TRUE,FALSE,TRUE,"""event"",""trial"",""time""
""fullscreenenter"",""5"",""15129""
","
","
","""event"",""trial"",""time""
""fullscreenenter"",""5"",""15129""
","
",502.5949999690056,NA,48,NA,NA,3000,1,NA,NA,images/tutyellowplanet.jpg,images/tutalien4,images/tutalien3,images/tutrocket2,images/tutalien4,images/t.png,2,practice,true,2,common,1,2020-06-20T14:36:33Z,sub131
two-step-fixation,96,355167,0.0-61.0-2.11,TRUE,TRUE,FALSE,TRUE,"""event"",""trial"",""time""
""fullscreenenter"",""5"",""15129""
","
","
","""event"",""trial"",""time""
""fullscreenenter"",""5"",""15129""
","
",NA,images/earth.jpg,NA,NA,NA,NA,NA,NA,NA,NA,NA,NA,NA,NA,NA,fixation,NA,NA,NA,NA,NA,NA,sub131
d3-animate-choice,97,357465,0.0-61.0-0.12,TRUE,TRUE,FALSE,TRUE,"""event"",""trial"",""time""
""fullscreenenter"",""5"",""15129""
","
","
","""event"",""trial"",""time""
""fullscreenenter"",""5"",""15129""
","
",292.09499998250976,NA,49,NA,NA,3000,1,NA,NA,images/earth.jpg,images/tutrocket1,images/tutrocket2,null,images/tutrocket2,NA,1,practice,null,1,NA,NA,NA,sub131
d3-animate-choice,98,359865,0.0-61.0-1.12,TRUE,TRUE,FALSE,TRUE,"""event"",""trial"",""time""
""fullscreenenter"",""5"",""15129""
","
","
","""event"",""trial"",""time""
""fullscreenenter"",""5"",""15129""
","
",392.96000002650544,NA,48,NA,NA,3000,1,NA,NA,images/tutyellowplanet.jpg,images/tutalien4,images/tutalien3,images/tutrocket2,images/tutalien4,images/t.png,2,practice,true,2,common,1,2020-06-20T14:36:39Z,sub131
two-step-fixation,99,360869,0.0-61.0-2.12,TRUE,TRUE,FALSE,TRUE,"""event"",""trial"",""time""
""fullscreenenter"",""5"",""15129""
","
","
","""event"",""trial"",""time""
""fullscreenenter"",""5"",""15129""
","
",NA,images/earth.jpg,NA,NA,NA,NA,NA,NA,NA,NA,NA,NA,NA,NA,NA,fixation,NA,NA,NA,NA,NA,NA,sub131
d3-animate-choice,100,363249,0.0-61.0-0.13,TRUE,TRUE,FALSE,TRUE,"""event"",""trial"",""time""
""fullscreenenter"",""5"",""15129""
","
","
","""event"",""trial"",""time""
""fullscreenenter"",""5"",""15129""
","
",374.87500003771856,NA,49,NA,NA,3000,1,NA,NA,images/earth.jpg,images/tutrocket1,images/tutrocket2,null,images/tutrocket2,NA,1,practice,null,1,NA,NA,NA,sub131
d3-animate-choice,101,365626,0.0-61.0-1.13,TRUE,TRUE,FALSE,TRUE,"""event"",""trial"",""time""
""fullscreenenter"",""5"",""15129""
","
","
","""event"",""trial"",""time""
""fullscreenenter"",""5"",""15129""
","
",370.5099999788217,NA,48,NA,NA,3000,1,NA,NA,images/tutgreenplanet.jpg,images/tutalien2,images/tutalien1,images/tutrocket2,images/tutalien2,images/nothing.png,2,practice,false,2,rare,0,2020-06-20T14:36:44Z,sub131
two-step-fixation,102,366633,0.0-61.0-2.13,TRUE,TRUE,FALSE,TRUE,"""event"",""trial"",""time""
""fullscreenenter"",""5"",""15129""
","
","
","""event"",""trial"",""time""
""fullscreenenter"",""5"",""15129""
","
",NA,images/earth.jpg,NA,NA,NA,NA,NA,NA,NA,NA,NA,NA,NA,NA,NA,fixation,NA,NA,NA,NA,NA,NA,sub131
d3-animate-choice,103,369039,0.0-61.0-0.14,TRUE,TRUE,FALSE,TRUE,"""event"",""trial"",""time""
""fullscreenenter"",""5"",""15129""
","
","
","""event"",""trial"",""time""
""fullscreenenter"",""5"",""15129""
","
",398.8450000179,NA,48,NA,NA,3000,1,NA,NA,images/earth.jpg,images/tutrocket1,images/tutrocket2,null,images/tutrocket1,NA,1,practice,null,2,NA,NA,NA,sub131
d3-animate-choice,104,371530,0.0-61.0-1.14,TRUE,TRUE,FALSE,TRUE,"""event"",""trial"",""time""
""fullscreenenter"",""5"",""15129""
","
","
","""event"",""trial"",""time""
""fullscreenenter"",""5"",""15129""
","
",486.0050000133924,NA,49,NA,NA,3000,1,NA,NA,images/tutyellowplanet.jpg,images/tutalien4,images/tutalien3,images/tutrocket1,images/tutalien3,images/nothing.png,2,practice,false,1,rare,0,2020-06-20T14:36:50Z,sub131
two-step-fixation,105,372533,0.0-61.0-2.14,TRUE,TRUE,FALSE,TRUE,"""event"",""trial"",""time""
""fullscreenenter"",""5"",""15129""
","
","
","""event"",""trial"",""time""
""fullscreenenter"",""5"",""15129""
","
",NA,images/earth.jpg,NA,NA,NA,NA,NA,NA,NA,NA,NA,NA,NA,NA,NA,fixation,NA,NA,NA,NA,NA,NA,sub131
d3-animate-choice,106,374973,0.0-61.0-0.15,TRUE,TRUE,FALSE,TRUE,"""event"",""trial"",""time""
""fullscreenenter"",""5"",""15129""
","
","
","""event"",""trial"",""time""
""fullscreenenter"",""5"",""15129""
","
",434.5900000189431,NA,48,NA,NA,3000,1,NA,NA,images/earth.jpg,images/tutrocket1,images/tutrocket2,null,images/tutrocket1,NA,1,practice,null,2,NA,NA,NA,sub131
d3-animate-choice,107,377371,0.0-61.0-1.15,TRUE,TRUE,FALSE,TRUE,"""event"",""trial"",""time""
""fullscreenenter"",""5"",""15129""
","
","
","""event"",""trial"",""time""
""fullscreenenter"",""5"",""15129""
","
",390.7650000182912,NA,48,NA,NA,3000,1,NA,NA,images/tutgreenplanet.jpg,images/tutalien2,images/tutalien1,images/tutrocket1,images/tutalien2,images/t.png,2,practice,true,2,common,1,2020-06-20T14:36:56Z,sub131
two-step-fixation,108,378377,0.0-61.0-2.15,TRUE,TRUE,FALSE,TRUE,"""event"",""trial"",""time""
""fullscreenenter"",""5"",""15129""
","
","
","""event"",""trial"",""time""
""fullscreenenter"",""5"",""15129""
","
",NA,images/earth.jpg,NA,NA,NA,NA,NA,NA,NA,NA,NA,NA,NA,NA,NA,fixation,NA,NA,NA,NA,NA,NA,sub131
d3-animate-choice,109,380763,0.0-61.0-0.16,TRUE,TRUE,FALSE,TRUE,"""event"",""trial"",""time""
""fullscreenenter"",""5"",""15129""
","
","
","""event"",""trial"",""time""
""fullscreenenter"",""5"",""15129""
","
",378.34499997552484,NA,48,NA,NA,3000,1,NA,NA,images/earth.jpg,images/tutrocket1,images/tutrocket2,null,images/tutrocket1,NA,1,practice,null,2,NA,NA,NA,sub131
d3-animate-choice,110,383169,0.0-61.0-1.16,TRUE,TRUE,FALSE,TRUE,"""event"",""trial"",""time""
""fullscreenenter"",""5"",""15129""
","
","
","""event"",""trial"",""time""
""fullscreenenter"",""5"",""15129""
","
",398.7199999974109,NA,48,NA,NA,3000,1,NA,NA,images/tutgreenplanet.jpg,images/tutalien2,images/tutalien1,images/tutrocket1,images/tutalien2,images/nothing.png,2,practice,true,2,common,0,2020-06-20T14:37:02Z,sub131
two-step-fixation,111,384173,0.0-61.0-2.16,TRUE,TRUE,FALSE,TRUE,"""event"",""trial"",""time""
""fullscreenenter"",""5"",""15129""
","
","
","""event"",""trial"",""time""
""fullscreenenter"",""5"",""15129""
","
",NA,images/earth.jpg,NA,NA,NA,NA,NA,NA,NA,NA,NA,NA,NA,NA,NA,fixation,NA,NA,NA,NA,NA,NA,sub131
d3-animate-choice,112,386569,0.0-61.0-0.17,TRUE,TRUE,FALSE,TRUE,"""event"",""trial"",""time""
""fullscreenenter"",""5"",""15129""
","
","
","""event"",""trial"",""time""
""fullscreenenter"",""5"",""15129""
","
",390.5599999707192,NA,48,NA,NA,3000,1,NA,NA,images/earth.jpg,images/tutrocket1,images/tutrocket2,null,images/tutrocket1,NA,1,practice,null,2,NA,NA,NA,sub131
d3-animate-choice,113,388933,0.0-61.0-1.17,TRUE,TRUE,FALSE,TRUE,"""event"",""trial"",""time""
""fullscreenenter"",""5"",""15129""
","
","
","""event"",""trial"",""time""
""fullscreenenter"",""5"",""15129""
","
",359.25500001758337,NA,48,NA,NA,3000,1,NA,NA,images/tutgreenplanet.jpg,images/tutalien2,images/tutalien1,images/tutrocket1,images/tutalien2,images/nothing.png,2,practice,true,2,common,0,2020-06-20T14:37:08Z,sub131
two-step-fixation,114,389936,0.0-61.0-2.17,TRUE,TRUE,FALSE,TRUE,"""event"",""trial"",""time""
""fullscreenenter"",""5"",""15129""
","
","
","""event"",""trial"",""time""
""fullscreenenter"",""5"",""15129""
","
",NA,images/earth.jpg,NA,NA,NA,NA,NA,NA,NA,NA,NA,NA,NA,NA,NA,fixation,NA,NA,NA,NA,NA,NA,sub131
d3-animate-choice,115,392348,0.0-61.0-0.18,TRUE,TRUE,FALSE,TRUE,"""event"",""trial"",""time""
""fullscreenenter"",""5"",""15129""
","
","
","""event"",""trial"",""time""
""fullscreenenter"",""5"",""15129""
","
",407.2950000409037,NA,49,NA,NA,3000,1,NA,NA,images/earth.jpg,images/tutrocket1,images/tutrocket2,null,images/tutrocket2,NA,1,practice,null,1,NA,NA,NA,sub131
d3-animate-choice,116,394802,0.0-61.0-1.18,TRUE,TRUE,FALSE,TRUE,"""event"",""trial"",""time""
""fullscreenenter"",""5"",""15129""
","
","
","""event"",""trial"",""time""
""fullscreenenter"",""5"",""15129""
","
",449.6150000486523,NA,49,NA,NA,3000,1,NA,NA,images/tutyellowplanet.jpg,images/tutalien4,images/tutalien3,images/tutrocket2,images/tutalien3,images/nothing.png,2,practice,true,1,common,0,2020-06-20T14:37:14Z,sub131
two-step-fixation,117,395807,0.0-61.0-2.18,TRUE,TRUE,FALSE,TRUE,"""event"",""trial"",""time""
""fullscreenenter"",""5"",""15129""
","
","
","""event"",""trial"",""time""
""fullscreenenter"",""5"",""15129""
","
",NA,images/earth.jpg,NA,NA,NA,NA,NA,NA,NA,NA,NA,NA,NA,NA,NA,fixation,NA,NA,NA,NA,NA,NA,sub131
d3-animate-choice,118,398189,0.0-61.0-0.19,TRUE,TRUE,FALSE,TRUE,"""event"",""trial"",""time""
""fullscreenenter"",""5"",""15129""
","
","
","""event"",""trial"",""time""
""fullscreenenter"",""5"",""15129""
","
",376.8749999580905,NA,48,NA,NA,3000,1,NA,NA,images/earth.jpg,images/tutrocket1,images/tutrocket2,null,images/tutrocket1,NA,1,practice,null,2,NA,NA,NA,sub131
d3-animate-choice,119,400877,0.0-61.0-1.19,TRUE,TRUE,FALSE,TRUE,"""event"",""trial"",""time""
""fullscreenenter"",""5"",""15129""
","
","
","""event"",""trial"",""time""
""fullscreenenter"",""5"",""15129""
","
",682.790000049863,NA,49,NA,NA,3000,1,NA,NA,images/tutgreenplanet.jpg,images/tutalien2,images/tutalien1,images/tutrocket1,images/tutalien1,images/t.png,2,practice,true,1,common,1,2020-06-20T14:37:20Z,sub131
two-step-fixation,120,401883,0.0-61.0-2.19,TRUE,TRUE,FALSE,TRUE,"""event"",""trial"",""time""
""fullscreenenter"",""5"",""15129""
","
","
","""event"",""trial"",""time""
""fullscreenenter"",""5"",""15129""
","
",NA,images/earth.jpg,NA,NA,NA,NA,NA,NA,NA,NA,NA,NA,NA,NA,NA,fixation,NA,NA,NA,NA,NA,NA,sub131
d3-instructions,121,405098,0.0-62.0,TRUE,TRUE,FALSE,TRUE,"""event"",""trial"",""time""
""fullscreenenter"",""5"",""15129""
","
","
","""event"",""trial"",""time""
""fullscreenenter"",""5"",""15129""
","
",NA,NA,NA,NA,NA,NA,NA,NA,NA,NA,NA,NA,NA,NA,NA,NA,NA,NA,NA,NA,NA,NA,sub131
audio-keyboard-response,122,408117,0.0-63.0,TRUE,TRUE,FALSE,TRUE,"""event"",""trial"",""time""
""fullscreenenter"",""5"",""15129""
","
","
","""event"",""trial"",""time""
""fullscreenenter"",""5"",""15129""
","
",3019,audio/instructions/treasure_feedback.wav,32,NA,NA,NA,NA,NA,NA,NA,NA,NA,NA,NA,NA,NA,NA,NA,NA,NA,NA,NA,sub131
d3-instructions,123,415261,0.0-64.0,TRUE,TRUE,FALSE,TRUE,"""event"",""trial"",""time""
""fullscreenenter"",""5"",""15129""
","
","
","""event"",""trial"",""time""
""fullscreenenter"",""5"",""15129""
","
",NA,NA,NA,NA,NA,NA,NA,NA,NA,NA,NA,NA,NA,NA,NA,NA,NA,NA,NA,NA,NA,NA,sub131
d3-instructions,124,425805,0.0-65.0,TRUE,TRUE,FALSE,TRUE,"""event"",""trial"",""time""
""fullscreenenter"",""5"",""15129""
","
","
","""event"",""trial"",""time""
""fullscreenenter"",""5"",""15129""
","
",NA,NA,NA,NA,NA,NA,NA,NA,NA,NA,NA,NA,NA,NA,NA,NA,NA,NA,NA,NA,NA,NA,sub131
d3-instructions,125,438613,0.0-66.0,TRUE,TRUE,FALSE,TRUE,"""event"",""trial"",""time""
""fullscreenenter"",""5"",""15129""
","
","
","""event"",""trial"",""time""
""fullscreenenter"",""5"",""15129""
","
",NA,NA,NA,NA,NA,NA,NA,NA,NA,NA,NA,NA,NA,NA,NA,NA,NA,NA,NA,NA,NA,NA,sub131
d3-instructions,126,448697,0.0-67.0,TRUE,TRUE,FALSE,TRUE,"""event"",""trial"",""time""
""fullscreenenter"",""5"",""15129""
","
","
","""event"",""trial"",""time""
""fullscreenenter"",""5"",""15129""
","
",NA,NA,NA,NA,NA,NA,NA,NA,NA,NA,NA,NA,NA,NA,NA,NA,NA,NA,NA,NA,NA,NA,sub131
d3-instructions,127,452141,0.0-68.0,TRUE,TRUE,FALSE,TRUE,"""event"",""trial"",""time""
""fullscreenenter"",""5"",""15129""
","
","
","""event"",""trial"",""time""
""fullscreenenter"",""5"",""15129""
","
",NA,NA,NA,NA,NA,NA,NA,NA,NA,NA,NA,NA,NA,NA,NA,NA,NA,NA,NA,NA,NA,NA,sub131
instructions-quiz,128,455048,0.0-69.0,TRUE,TRUE,FALSE,TRUE,"""event"",""trial"",""time""
""fullscreenenter"",""5"",""15129""
","
","
","""event"",""trial"",""time""
""fullscreenenter"",""5"",""15129""
","
",2904.9050000030547,audio/quiz/Q1_Prompt.wav,NA,1,NA,NA,NA,NA,NA,NA,NA,NA,NA,NA,NA,NA,NA,NA,NA,NA,NA,NA,sub131
audio-keyboard-response,129,456237,0.0-70.0,TRUE,TRUE,FALSE,TRUE,"""event"",""trial"",""time""
""fullscreenenter"",""5"",""15129""
","
","
","""event"",""trial"",""time""
""fullscreenenter"",""5"",""15129""
","
",1184,audio/quiz/Q1_Correct.wav,32,NA,NA,NA,NA,NA,NA,NA,NA,NA,NA,NA,NA,NA,NA,NA,NA,NA,NA,NA,sub131
instructions-quiz,130,459706,0.0-71.0,TRUE,TRUE,FALSE,TRUE,"""event"",""trial"",""time""
""fullscreenenter"",""5"",""15129""
","
","
","""event"",""trial"",""time""
""fullscreenenter"",""5"",""15129""
","
",3467.975000035949,audio/quiz/Q2_Prompt.wav,NA,0,NA,NA,NA,NA,NA,NA,NA,NA,NA,NA,NA,NA,NA,NA,NA,NA,NA,NA,sub131
audio-keyboard-response,131,460465,0.0-72.0,TRUE,TRUE,FALSE,TRUE,"""event"",""trial"",""time""
""fullscreenenter"",""5"",""15129""
","
","
","""event"",""trial"",""time""
""fullscreenenter"",""5"",""15129""
","
",760,audio/quiz/Q2_Correct.wav,32,NA,NA,NA,NA,NA,NA,NA,NA,NA,NA,NA,NA,NA,NA,NA,NA,NA,NA,NA,sub131
instructions-quiz,132,463371,0.0-73.0,TRUE,TRUE,FALSE,TRUE,"""event"",""trial"",""time""
""fullscreenenter"",""5"",""15129""
","
","
","""event"",""trial"",""time""
""fullscreenenter"",""5"",""15129""
","
",2904.3950000195764,audio/quiz/Q3_Prompt.wav,NA,1,NA,NA,NA,NA,NA,NA,NA,NA,NA,NA,NA,NA,NA,NA,NA,NA,NA,NA,sub131
audio-keyboard-response,133,463969,0.0-74.0,TRUE,TRUE,FALSE,TRUE,"""event"",""trial"",""time""
""fullscreenenter"",""5"",""15129""
","
","
","""event"",""trial"",""time""
""fullscreenenter"",""5"",""15129""
","
",598,audio/quiz/Q3_Correct.wav,32,NA,NA,NA,NA,NA,NA,NA,NA,NA,NA,NA,NA,NA,NA,NA,NA,NA,NA,NA,sub131
d3-instructions,134,467046,0.0-75.0,TRUE,TRUE,FALSE,TRUE,"""event"",""trial"",""time""
""fullscreenenter"",""5"",""15129""
","
","
","""event"",""trial"",""time""
""fullscreenenter"",""5"",""15129""
","
",NA,NA,NA,NA,NA,NA,NA,NA,NA,NA,NA,NA,NA,NA,NA,NA,NA,NA,NA,NA,NA,NA,sub131
d3-animate-choice,135,470508,0.0-76.0-0.0,TRUE,TRUE,FALSE,TRUE,"""event"",""trial"",""time""
""fullscreenenter"",""5"",""15129""
","
","
","""event"",""trial"",""time""
""fullscreenenter"",""5"",""15129""
","
",1458.3349999738857,NA,48,NA,NA,3000,1,NA,NA,images/earth.jpg,images/rocket2,images/rocket1,null,images/rocket2,NA,1,real,null,2,NA,NA,NA,sub131
d3-animate-choice,136,473103,0.0-76.0-1.0,TRUE,TRUE,FALSE,TRUE,"""event"",""trial"",""time""
""fullscreenenter"",""5"",""15129""
","
","
","""event"",""trial"",""time""
""fullscreenenter"",""5"",""15129""
","
",591.7699999990873,NA,48,NA,NA,3000,1,NA,NA,images/purpleplanet.jpg,images/alien4,images/alien3,images/rocket2,images/alien4,images/nothing.png,2,real,true,2,common,0,2020-06-20T14:38:32Z,sub131
two-step-fixation,137,474105,0.0-76.0-2.0,TRUE,TRUE,FALSE,TRUE,"""event"",""trial"",""time""
""fullscreenenter"",""5"",""15129""
","
","
","""event"",""trial"",""time""
""fullscreenenter"",""5"",""15129""
","
",NA,images/earth.jpg,NA,NA,NA,NA,NA,NA,NA,NA,NA,NA,NA,NA,NA,fixation,NA,NA,NA,NA,NA,NA,sub131
d3-animate-choice,138,476714,0.0-76.0-0.1,TRUE,TRUE,FALSE,TRUE,"""event"",""trial"",""time""
""fullscreenenter"",""5"",""15129""
","
","
","""event"",""trial"",""time""
""fullscreenenter"",""5"",""15129""
","
",601.7449999926612,NA,48,NA,NA,3000,1,NA,NA,images/earth.jpg,images/rocket2,images/rocket1,null,images/rocket2,NA,1,real,null,2,NA,NA,NA,sub131
d3-animate-choice,139,479110,0.0-76.0-1.1,TRUE,TRUE,FALSE,TRUE,"""event"",""trial"",""time""
""fullscreenenter"",""5"",""15129""
","
","
","""event"",""trial"",""time""
""fullscreenenter"",""5"",""15129""
","
",392.2049999819137,NA,49,NA,NA,3000,1,NA,NA,images/redplanet1.jpg,images/alien2,images/alien1,images/rocket2,images/alien1,images/nothing.png,2,real,false,1,rare,0,2020-06-20T14:38:38Z,sub131
two-step-fixation,140,480113,0.0-76.0-2.1,TRUE,TRUE,FALSE,TRUE,"""event"",""trial"",""time""
""fullscreenenter"",""5"",""15129""
","
","
","""event"",""trial"",""time""
""fullscreenenter"",""5"",""15129""
","
",NA,images/earth.jpg,NA,NA,NA,NA,NA,NA,NA,NA,NA,NA,NA,NA,NA,fixation,NA,NA,NA,NA,NA,NA,sub131
d3-animate-choice,141,482513,0.0-76.0-0.2,TRUE,TRUE,FALSE,TRUE,"""event"",""trial"",""time""
""fullscreenenter"",""5"",""15129""
","
","
","""event"",""trial"",""time""
""fullscreenenter"",""5"",""15129""
","
",394.510000012815,NA,48,NA,NA,3000,1,NA,NA,images/earth.jpg,images/rocket2,images/rocket1,null,images/rocket2,NA,1,real,null,2,NA,NA,NA,sub131
d3-animate-choice,142,485280,0.0-76.0-1.2,TRUE,TRUE,FALSE,TRUE,"""event"",""trial"",""time""
""fullscreenenter"",""5"",""15129""
","
","
","""event"",""trial"",""time""
""fullscreenenter"",""5"",""15129""
","
",764.3549999920651,NA,48,NA,NA,3000,1,NA,NA,images/purpleplanet.jpg,images/alien4,images/alien3,images/rocket2,images/alien4,images/t.png,2,real,true,2,common,1,2020-06-20T14:38:44Z,sub131
two-step-fixation,143,486284,0.0-76.0-2.2,TRUE,TRUE,FALSE,TRUE,"""event"",""trial"",""time""
""fullscreenenter"",""5"",""15129""
","
","
","""event"",""trial"",""time""
""fullscreenenter"",""5"",""15129""
","
",NA,images/earth.jpg,NA,NA,NA,NA,NA,NA,NA,NA,NA,NA,NA,NA,NA,fixation,NA,NA,NA,NA,NA,NA,sub131
d3-animate-choice,144,489191,0.0-76.0-0.3,TRUE,TRUE,FALSE,TRUE,"""event"",""trial"",""time""
""fullscreenenter"",""5"",""15129""
","
","
","""event"",""trial"",""time""
""fullscreenenter"",""5"",""15129""
","
",902.6750000193715,NA,49,NA,NA,3000,1,NA,NA,images/earth.jpg,images/rocket2,images/rocket1,null,images/rocket1,NA,1,real,null,1,NA,NA,NA,sub131
d3-animate-choice,145,492596,0.0-76.0-1.3,TRUE,TRUE,FALSE,TRUE,"""event"",""trial"",""time""
""fullscreenenter"",""5"",""15129""
","
","
","""event"",""trial"",""time""
""fullscreenenter"",""5"",""15129""
","
",1402.5799999944866,NA,48,NA,NA,3000,1,NA,NA,images/redplanet1.jpg,images/alien2,images/alien1,images/rocket1,images/alien2,images/t.png,2,real,true,2,common,1,2020-06-20T14:38:51Z,sub131
two-step-fixation,146,493600,0.0-76.0-2.3,TRUE,TRUE,FALSE,TRUE,"""event"",""trial"",""time""
""fullscreenenter"",""5"",""15129""
","
","
","""event"",""trial"",""time""
""fullscreenenter"",""5"",""15129""
","
",NA,images/earth.jpg,NA,NA,NA,NA,NA,NA,NA,NA,NA,NA,NA,NA,NA,fixation,NA,NA,NA,NA,NA,NA,sub131
d3-animate-choice,147,496010,0.0-76.0-0.4,TRUE,TRUE,FALSE,TRUE,"""event"",""trial"",""time""
""fullscreenenter"",""5"",""15129""
","
","
","""event"",""trial"",""time""
""fullscreenenter"",""5"",""15129""
","
",405.57499998249114,NA,48,NA,NA,3000,1,NA,NA,images/earth.jpg,images/rocket2,images/rocket1,null,images/rocket2,NA,1,real,null,2,NA,NA,NA,sub131
d3-animate-choice,148,498895,0.0-76.0-1.4,TRUE,TRUE,FALSE,TRUE,"""event"",""trial"",""time""
""fullscreenenter"",""5"",""15129""
","
","
","""event"",""trial"",""time""
""fullscreenenter"",""5"",""15129""
","
",882.6450000051409,NA,48,NA,NA,3000,1,NA,NA,images/redplanet1.jpg,images/alien2,images/alien1,images/rocket2,images/alien2,images/nothing.png,2,real,false,2,rare,0,2020-06-20T14:38:58Z,sub131
two-step-fixation,149,499899,0.0-76.0-2.4,TRUE,TRUE,FALSE,TRUE,"""event"",""trial"",""time""
""fullscreenenter"",""5"",""15129""
","
","
","""event"",""trial"",""time""
""fullscreenenter"",""5"",""15129""
","
",NA,images/earth.jpg,NA,NA,NA,NA,NA,NA,NA,NA,NA,NA,NA,NA,NA,fixation,NA,NA,NA,NA,NA,NA,sub131
d3-animate-choice,150,502554,0.0-76.0-0.5,TRUE,TRUE,FALSE,TRUE,"""event"",""trial"",""time""
""fullscreenenter"",""5"",""15129""
","
","
","""event"",""trial"",""time""
""fullscreenenter"",""5"",""15129""
","
",649.4449999881908,NA,48,NA,NA,3000,1,NA,NA,images/earth.jpg,images/rocket2,images/rocket1,null,images/rocket2,NA,1,real,null,2,NA,NA,NA,sub131
d3-animate-choice,151,505047,0.0-76.0-1.5,TRUE,TRUE,FALSE,TRUE,"""event"",""trial"",""time""
""fullscreenenter"",""5"",""15129""
","
","
","""event"",""trial"",""time""
""fullscreenenter"",""5"",""15129""
","
",487.17000003671274,NA,48,NA,NA,3000,1,NA,NA,images/purpleplanet.jpg,images/alien4,images/alien3,images/rocket2,images/alien4,images/nothing.png,2,real,true,2,common,0,2020-06-20T14:39:04Z,sub131
two-step-fixation,152,506055,0.0-76.0-2.5,TRUE,TRUE,FALSE,TRUE,"""event"",""trial"",""time""
""fullscreenenter"",""5"",""15129""
","
","
","""event"",""trial"",""time""
""fullscreenenter"",""5"",""15129""
","
",NA,images/earth.jpg,NA,NA,NA,NA,NA,NA,NA,NA,NA,NA,NA,NA,NA,fixation,NA,NA,NA,NA,NA,NA,sub131
d3-animate-choice,153,508557,0.0-76.0-0.6,TRUE,TRUE,FALSE,TRUE,"""event"",""trial"",""time""
""fullscreenenter"",""5"",""15129""
","
","
","""event"",""trial"",""time""
""fullscreenenter"",""5"",""15129""
","
",495.2499999781139,NA,48,NA,NA,3000,1,NA,NA,images/earth.jpg,images/rocket2,images/rocket1,null,images/rocket2,NA,1,real,null,2,NA,NA,NA,sub131
d3-animate-choice,154,511084,0.0-76.0-1.6,TRUE,TRUE,FALSE,TRUE,"""event"",""trial"",""time""
""fullscreenenter"",""5"",""15129""
","
","
","""event"",""trial"",""time""
""fullscreenenter"",""5"",""15129""
","
",523.7549999728799,NA,49,NA,NA,3000,1,NA,NA,images/purpleplanet.jpg,images/alien4,images/alien3,images/rocket2,images/alien3,images/nothing.png,2,real,true,1,common,0,2020-06-20T14:39:10Z,sub131
two-step-fixation,155,512087,0.0-76.0-2.6,TRUE,TRUE,FALSE,TRUE,"""event"",""trial"",""time""
""fullscreenenter"",""5"",""15129""
","
","
","""event"",""trial"",""time""
""fullscreenenter"",""5"",""15129""
","
",NA,images/earth.jpg,NA,NA,NA,NA,NA,NA,NA,NA,NA,NA,NA,NA,NA,fixation,NA,NA,NA,NA,NA,NA,sub131
d3-animate-choice,156,514488,0.0-76.0-0.7,TRUE,TRUE,FALSE,TRUE,"""event"",""trial"",""time""
""fullscreenenter"",""5"",""15129""
","
","
","""event"",""trial"",""time""
""fullscreenenter"",""5"",""15129""
","
",397.7450000238605,NA,49,NA,NA,3000,1,NA,NA,images/earth.jpg,images/rocket2,images/rocket1,null,images/rocket1,NA,1,real,null,1,NA,NA,NA,sub131
d3-animate-choice,157,517005,0.0-76.0-1.7,TRUE,TRUE,FALSE,TRUE,"""event"",""trial"",""time""
""fullscreenenter"",""5"",""15129""
","
","
","""event"",""trial"",""time""
""fullscreenenter"",""5"",""15129""
","
",512.4150000046939,NA,48,NA,NA,3000,1,NA,NA,images/redplanet1.jpg,images/alien2,images/alien1,images/rocket1,images/alien2,images/nothing.png,2,real,true,2,common,0,2020-06-20T14:39:16Z,sub131
two-step-fixation,158,518011,0.0-76.0-2.7,TRUE,TRUE,FALSE,TRUE,"""event"",""trial"",""time""
""fullscreenenter"",""5"",""15129""
","
","
","""event"",""trial"",""time""
""fullscreenenter"",""5"",""15129""
","
",NA,images/earth.jpg,NA,NA,NA,NA,NA,NA,NA,NA,NA,NA,NA,NA,NA,fixation,NA,NA,NA,NA,NA,NA,sub131
d3-animate-choice,159,520383,0.0-76.0-0.8,TRUE,TRUE,FALSE,TRUE,"""event"",""trial"",""time""
""fullscreenenter"",""5"",""15129""
","
","
","""event"",""trial"",""time""
""fullscreenenter"",""5"",""15129""
","
",366.0800000070594,NA,49,NA,NA,3000,1,NA,NA,images/earth.jpg,images/rocket2,images/rocket1,null,images/rocket1,NA,1,real,null,1,NA,NA,NA,sub131
d3-animate-choice,160,523678,0.0-76.0-1.8,TRUE,TRUE,FALSE,TRUE,"""event"",""trial"",""time""
""fullscreenenter"",""5"",""15129""
","
","
","""event"",""trial"",""time""
""fullscreenenter"",""5"",""15129""
","
",1288.974999974016,NA,49,NA,NA,3000,1,NA,NA,images/redplanet1.jpg,images/alien2,images/alien1,images/rocket1,images/alien1,images/nothing.png,2,real,true,1,common,0,2020-06-20T14:39:22Z,sub131
two-step-fixation,161,524684,0.0-76.0-2.8,TRUE,TRUE,FALSE,TRUE,"""event"",""trial"",""time""
""fullscreenenter"",""5"",""15129""
","
","
","""event"",""trial"",""time""
""fullscreenenter"",""5"",""15129""
","
",NA,images/earth.jpg,NA,NA,NA,NA,NA,NA,NA,NA,NA,NA,NA,NA,NA,fixation,NA,NA,NA,NA,NA,NA,sub131
d3-animate-choice,162,527449,0.0-76.0-0.9,TRUE,TRUE,FALSE,TRUE,"""event"",""trial"",""time""
""fullscreenenter"",""5"",""15129""
","
","
","""event"",""trial"",""time""
""fullscreenenter"",""5"",""15129""
","
",760.840000002645,NA,49,NA,NA,3000,1,NA,NA,images/earth.jpg,images/rocket2,images/rocket1,null,images/rocket1,NA,1,real,null,1,NA,NA,NA,sub131
d3-animate-choice,163,530216,0.0-76.0-1.9,TRUE,TRUE,FALSE,TRUE,"""event"",""trial"",""time""
""fullscreenenter"",""5"",""15129""
","
","
","""event"",""trial"",""time""
""fullscreenenter"",""5"",""15129""
","
",763.5800000280142,NA,49,NA,NA,3000,1,NA,NA,images/redplanet1.jpg,images/alien2,images/alien1,images/rocket1,images/alien1,images/t.png,2,real,true,1,common,1,2020-06-20T14:39:29Z,sub131
two-step-fixation,164,531222,0.0-76.0-2.9,TRUE,TRUE,FALSE,TRUE,"""event"",""trial"",""time""
""fullscreenenter"",""5"",""15129""
","
","
","""event"",""trial"",""time""
""fullscreenenter"",""5"",""15129""
","
",NA,images/earth.jpg,NA,NA,NA,NA,NA,NA,NA,NA,NA,NA,NA,NA,NA,fixation,NA,NA,NA,NA,NA,NA,sub131
d3-animate-choice,165,533631,0.0-76.0-0.10,TRUE,TRUE,FALSE,TRUE,"""event"",""trial"",""time""
""fullscreenenter"",""5"",""15129""
","
","
","""event"",""trial"",""time""
""fullscreenenter"",""5"",""15129""
","
",404.0249999961816,NA,49,NA,NA,3000,1,NA,NA,images/earth.jpg,images/rocket2,images/rocket1,null,images/rocket1,NA,1,real,null,1,NA,NA,NA,sub131
d3-animate-choice,166,536400,0.0-76.0-1.10,TRUE,TRUE,FALSE,TRUE,"""event"",""trial"",""time""
""fullscreenenter"",""5"",""15129""
","
","
","""event"",""trial"",""time""
""fullscreenenter"",""5"",""15129""
","
",764.9600000004284,NA,48,NA,NA,3000,1,NA,NA,images/purpleplanet.jpg,images/alien4,images/alien3,images/rocket1,images/alien4,images/t.png,2,real,false,2,rare,1,2020-06-20T14:39:35Z,sub131
two-step-fixation,167,537403,0.0-76.0-2.10,TRUE,TRUE,FALSE,TRUE,"""event"",""trial"",""time""
""fullscreenenter"",""5"",""15129""
","
","
","""event"",""trial"",""time""
""fullscreenenter"",""5"",""15129""
","
",NA,images/earth.jpg,NA,NA,NA,NA,NA,NA,NA,NA,NA,NA,NA,NA,NA,fixation,NA,NA,NA,NA,NA,NA,sub131
d3-animate-choice,168,539789,0.0-76.0-0.11,TRUE,TRUE,FALSE,TRUE,"""event"",""trial"",""time""
""fullscreenenter"",""5"",""15129""
","
","
","""event"",""trial"",""time""
""fullscreenenter"",""5"",""15129""
","
",380.4799999925308,NA,49,NA,NA,3000,1,NA,NA,images/earth.jpg,images/rocket2,images/rocket1,null,images/rocket1,NA,1,real,null,1,NA,NA,NA,sub131
d3-animate-choice,169,542635,0.0-76.0-1.11,TRUE,TRUE,FALSE,TRUE,"""event"",""trial"",""time""
""fullscreenenter"",""5"",""15129""
","
","
","""event"",""trial"",""time""
""fullscreenenter"",""5"",""15129""
","
",839.6500000380911,NA,49,NA,NA,3000,1,NA,NA,images/redplanet1.jpg,images/alien2,images/alien1,images/rocket1,images/alien1,images/nothing.png,2,real,true,1,common,0,2020-06-20T14:39:41Z,sub131
two-step-fixation,170,543638,0.0-76.0-2.11,TRUE,TRUE,FALSE,TRUE,"""event"",""trial"",""time""
""fullscreenenter"",""5"",""15129""
","
","
","""event"",""trial"",""time""
""fullscreenenter"",""5"",""15129""
","
",NA,images/earth.jpg,NA,NA,NA,NA,NA,NA,NA,NA,NA,NA,NA,NA,NA,fixation,NA,NA,NA,NA,NA,NA,sub131
d3-animate-choice,171,546134,0.0-76.0-0.12,TRUE,TRUE,FALSE,TRUE,"""event"",""trial"",""time""
""fullscreenenter"",""5"",""15129""
","
","
","""event"",""trial"",""time""
""fullscreenenter"",""5"",""15129""
","
",489.3799999845214,NA,49,NA,NA,3000,1,NA,NA,images/earth.jpg,images/rocket2,images/rocket1,null,images/rocket1,NA,1,real,null,1,NA,NA,NA,sub131
d3-animate-choice,172,548849,0.0-76.0-1.12,TRUE,TRUE,FALSE,TRUE,"""event"",""trial"",""time""
""fullscreenenter"",""5"",""15129""
","
","
","""event"",""trial"",""time""
""fullscreenenter"",""5"",""15129""
","
",710.4500000132248,NA,49,NA,NA,3000,1,NA,NA,images/redplanet1.jpg,images/alien2,images/alien1,images/rocket1,images/alien1,images/t.png,2,real,true,1,common,1,2020-06-20T14:39:48Z,sub131
two-step-fixation,173,549856,0.0-76.0-2.12,TRUE,TRUE,FALSE,TRUE,"""event"",""trial"",""time""
""fullscreenenter"",""5"",""15129""
","
","
","""event"",""trial"",""time""
""fullscreenenter"",""5"",""15129""
","
",NA,images/earth.jpg,NA,NA,NA,NA,NA,NA,NA,NA,NA,NA,NA,NA,NA,fixation,NA,NA,NA,NA,NA,NA,sub131
d3-animate-choice,174,552269,0.0-76.0-0.13,TRUE,TRUE,FALSE,TRUE,"""event"",""trial"",""time""
""fullscreenenter"",""5"",""15129""
","
","
","""event"",""trial"",""time""
""fullscreenenter"",""5"",""15129""
","
",408.2449999987148,NA,49,NA,NA,3000,1,NA,NA,images/earth.jpg,images/rocket2,images/rocket1,null,images/rocket1,NA,1,real,null,1,NA,NA,NA,sub131
d3-animate-choice,175,555057,0.0-76.0-1.13,TRUE,TRUE,FALSE,TRUE,"""event"",""trial"",""time""
""fullscreenenter"",""5"",""15129""
","
","
","""event"",""trial"",""time""
""fullscreenenter"",""5"",""15129""
","
",782.950000022538,NA,49,NA,NA,3000,1,NA,NA,images/redplanet1.jpg,images/alien2,images/alien1,images/rocket1,images/alien1,images/t.png,2,real,true,1,common,1,2020-06-20T14:39:54Z,sub131
two-step-fixation,176,556061,0.0-76.0-2.13,TRUE,TRUE,FALSE,TRUE,"""event"",""trial"",""time""
""fullscreenenter"",""5"",""15129""
","
","
","""event"",""trial"",""time""
""fullscreenenter"",""5"",""15129""
","
",NA,images/earth.jpg,NA,NA,NA,NA,NA,NA,NA,NA,NA,NA,NA,NA,NA,fixation,NA,NA,NA,NA,NA,NA,sub131
d3-animate-choice,177,558516,0.0-76.0-0.14,TRUE,TRUE,FALSE,TRUE,"""event"",""trial"",""time""
""fullscreenenter"",""5"",""15129""
","
","
","""event"",""trial"",""time""
""fullscreenenter"",""5"",""15129""
","
",449.3800000054762,NA,49,NA,NA,3000,1,NA,NA,images/earth.jpg,images/rocket2,images/rocket1,null,images/rocket1,NA,1,real,null,1,NA,NA,NA,sub131
d3-animate-choice,178,561018,0.0-76.0-1.14,TRUE,TRUE,FALSE,TRUE,"""event"",""trial"",""time""
""fullscreenenter"",""5"",""15129""
","
","
","""event"",""trial"",""time""
""fullscreenenter"",""5"",""15129""
","
",495.8950000000186,NA,49,NA,NA,3000,1,NA,NA,images/redplanet1.jpg,images/alien2,images/alien1,images/rocket1,images/alien1,images/nothing.png,2,real,true,1,common,0,2020-06-20T14:40:00Z,sub131
two-step-fixation,179,562023,0.0-76.0-2.14,TRUE,TRUE,FALSE,TRUE,"""event"",""trial"",""time""
""fullscreenenter"",""5"",""15129""
","
","
","""event"",""trial"",""time""
""fullscreenenter"",""5"",""15129""
","
",NA,images/earth.jpg,NA,NA,NA,NA,NA,NA,NA,NA,NA,NA,NA,NA,NA,fixation,NA,NA,NA,NA,NA,NA,sub131
d3-animate-choice,180,564421,0.0-76.0-0.15,TRUE,TRUE,FALSE,TRUE,"""event"",""trial"",""time""
""fullscreenenter"",""5"",""15129""
","
","
","""event"",""trial"",""time""
""fullscreenenter"",""5"",""15129""
","
",393.0699999909848,NA,49,NA,NA,3000,1,NA,NA,images/earth.jpg,images/rocket2,images/rocket1,null,images/rocket1,NA,1,real,null,1,NA,NA,NA,sub131
d3-animate-choice,181,567008,0.0-76.0-1.15,TRUE,TRUE,FALSE,TRUE,"""event"",""trial"",""time""
""fullscreenenter"",""5"",""15129""
","
","
","""event"",""trial"",""time""
""fullscreenenter"",""5"",""15129""
","
",582.8449999680743,NA,49,NA,NA,3000,1,NA,NA,images/redplanet1.jpg,images/alien2,images/alien1,images/rocket1,images/alien1,images/nothing.png,2,real,true,1,common,0,2020-06-20T14:40:06Z,sub131
two-step-fixation,182,568012,0.0-76.0-2.15,TRUE,TRUE,FALSE,TRUE,"""event"",""trial"",""time""
""fullscreenenter"",""5"",""15129""
","
","
","""event"",""trial"",""time""
""fullscreenenter"",""5"",""15129""
","
",NA,images/earth.jpg,NA,NA,NA,NA,NA,NA,NA,NA,NA,NA,NA,NA,NA,fixation,NA,NA,NA,NA,NA,NA,sub131
d3-animate-choice,183,570496,0.0-76.0-0.16,TRUE,TRUE,FALSE,TRUE,"""event"",""trial"",""time""
""fullscreenenter"",""5"",""15129""
","
","
","""event"",""trial"",""time""
""fullscreenenter"",""5"",""15129""
","
",479.45500002242625,NA,49,NA,NA,3000,1,NA,NA,images/earth.jpg,images/rocket2,images/rocket1,null,images/rocket1,NA,1,real,null,1,NA,NA,NA,sub131
d3-animate-choice,184,573076,0.0-76.0-1.16,TRUE,TRUE,FALSE,TRUE,"""event"",""trial"",""time""
""fullscreenenter"",""5"",""15129""
","
","
","""event"",""trial"",""time""
""fullscreenenter"",""5"",""15129""
","
",571.8350000097416,NA,48,NA,NA,3000,1,NA,NA,images/redplanet1.jpg,images/alien2,images/alien1,images/rocket1,images/alien2,images/nothing.png,2,real,true,2,common,0,2020-06-20T14:40:12Z,sub131
two-step-fixation,185,574079,0.0-76.0-2.16,TRUE,TRUE,FALSE,TRUE,"""event"",""trial"",""time""
""fullscreenenter"",""5"",""15129""
","
","
","""event"",""trial"",""time""
""fullscreenenter"",""5"",""15129""
","
",NA,images/earth.jpg,NA,NA,NA,NA,NA,NA,NA,NA,NA,NA,NA,NA,NA,fixation,NA,NA,NA,NA,NA,NA,sub131
d3-animate-choice,186,576448,0.0-76.0-0.17,TRUE,TRUE,FALSE,TRUE,"""event"",""trial"",""time""
""fullscreenenter"",""5"",""15129""
","
","
","""event"",""trial"",""time""
""fullscreenenter"",""5"",""15129""
","
",364.41500001819804,NA,48,NA,NA,3000,1,NA,NA,images/earth.jpg,images/rocket2,images/rocket1,null,images/rocket2,NA,1,real,null,2,NA,NA,NA,sub131
d3-animate-choice,187,578892,0.0-76.0-1.17,TRUE,TRUE,FALSE,TRUE,"""event"",""trial"",""time""
""fullscreenenter"",""5"",""15129""
","
","
","""event"",""trial"",""time""
""fullscreenenter"",""5"",""15129""
","
",439.4699999829754,NA,48,NA,NA,3000,1,NA,NA,images/purpleplanet.jpg,images/alien4,images/alien3,images/rocket2,images/alien4,images/t.png,2,real,true,2,common,1,2020-06-20T14:40:18Z,sub131
two-step-fixation,188,579896,0.0-76.0-2.17,TRUE,TRUE,FALSE,TRUE,"""event"",""trial"",""time""
""fullscreenenter"",""5"",""15129""
","
","
","""event"",""trial"",""time""
""fullscreenenter"",""5"",""15129""
","
",NA,images/earth.jpg,NA,NA,NA,NA,NA,NA,NA,NA,NA,NA,NA,NA,NA,fixation,NA,NA,NA,NA,NA,NA,sub131
d3-animate-choice,189,582307,0.0-76.0-0.18,TRUE,TRUE,FALSE,TRUE,"""event"",""trial"",""time""
""fullscreenenter"",""5"",""15129""
","
","
","""event"",""trial"",""time""
""fullscreenenter"",""5"",""15129""
","
",404.9549999763258,NA,48,NA,NA,3000,1,NA,NA,images/earth.jpg,images/rocket2,images/rocket1,null,images/rocket2,NA,1,real,null,2,NA,NA,NA,sub131
d3-animate-choice,190,584849,0.0-76.0-1.18,TRUE,TRUE,FALSE,TRUE,"""event"",""trial"",""time""
""fullscreenenter"",""5"",""15129""
","
","
","""event"",""trial"",""time""
""fullscreenenter"",""5"",""15129""
","
",536.1399999819696,NA,48,NA,NA,3000,1,NA,NA,images/purpleplanet.jpg,images/alien4,images/alien3,images/rocket2,images/alien4,images/t.png,2,real,true,2,common,1,2020-06-20T14:40:24Z,sub131
two-step-fixation,191,585854,0.0-76.0-2.18,TRUE,TRUE,FALSE,TRUE,"""event"",""trial"",""time""
""fullscreenenter"",""5"",""15129""
","
","
","""event"",""trial"",""time""
""fullscreenenter"",""5"",""15129""
","
",NA,images/earth.jpg,NA,NA,NA,NA,NA,NA,NA,NA,NA,NA,NA,NA,NA,fixation,NA,NA,NA,NA,NA,NA,sub131
d3-animate-choice,192,588244,0.0-76.0-0.19,TRUE,TRUE,FALSE,TRUE,"""event"",""trial"",""time""
""fullscreenenter"",""5"",""15129""
","
","
","""event"",""trial"",""time""
""fullscreenenter"",""5"",""15129""
","
",386.144999996759,NA,48,NA,NA,3000,1,NA,NA,images/earth.jpg,images/rocket2,images/rocket1,null,images/rocket2,NA,1,real,null,2,NA,NA,NA,sub131
d3-animate-choice,193,590659,0.0-76.0-1.19,TRUE,TRUE,FALSE,TRUE,"""event"",""trial"",""time""
""fullscreenenter"",""5"",""15129""
","
","
","""event"",""trial"",""time""
""fullscreenenter"",""5"",""15129""
","
",411.0649999929592,NA,48,NA,NA,3000,1,NA,NA,images/purpleplanet.jpg,images/alien4,images/alien3,images/rocket2,images/alien4,images/t.png,2,real,true,2,common,1,2020-06-20T14:40:29Z,sub131
two-step-fixation,194,591664,0.0-76.0-2.19,TRUE,TRUE,FALSE,TRUE,"""event"",""trial"",""time""
""fullscreenenter"",""5"",""15129""
","
","
","""event"",""trial"",""time""
""fullscreenenter"",""5"",""15129""
","
",NA,images/earth.jpg,NA,NA,NA,NA,NA,NA,NA,NA,NA,NA,NA,NA,NA,fixation,NA,NA,NA,NA,NA,NA,sub131
d3-animate-choice,195,594003,0.0-76.0-0.20,TRUE,TRUE,FALSE,TRUE,"""event"",""trial"",""time""
""fullscreenenter"",""5"",""15129""
","
","
","""event"",""trial"",""time""
""fullscreenenter"",""5"",""15129""
","
",333.95500003825873,NA,48,NA,NA,3000,1,NA,NA,images/earth.jpg,images/rocket2,images/rocket1,null,images/rocket2,NA,1,real,null,2,NA,NA,NA,sub131
d3-animate-choice,196,596555,0.0-76.0-1.20,TRUE,TRUE,FALSE,TRUE,"""event"",""trial"",""time""
""fullscreenenter"",""5"",""15129""
","
","
","""event"",""trial"",""time""
""fullscreenenter"",""5"",""15129""
","
",548.5800000024028,NA,49,NA,NA,3000,1,NA,NA,images/redplanet1.jpg,images/alien2,images/alien1,images/rocket2,images/alien1,images/nothing.png,2,real,false,1,rare,0,2020-06-20T14:40:35Z,sub131
two-step-fixation,197,597561,0.0-76.0-2.20,TRUE,TRUE,FALSE,TRUE,"""event"",""trial"",""time""
""fullscreenenter"",""5"",""15129""
","
","
","""event"",""trial"",""time""
""fullscreenenter"",""5"",""15129""
","
",NA,images/earth.jpg,NA,NA,NA,NA,NA,NA,NA,NA,NA,NA,NA,NA,NA,fixation,NA,NA,NA,NA,NA,NA,sub131
d3-animate-choice,198,599940,0.0-76.0-0.21,TRUE,TRUE,FALSE,TRUE,"""event"",""trial"",""time""
""fullscreenenter"",""5"",""15129""
","
","
","""event"",""trial"",""time""
""fullscreenenter"",""5"",""15129""
","
",373.8650000304915,NA,48,NA,NA,3000,1,NA,NA,images/earth.jpg,images/rocket2,images/rocket1,null,images/rocket2,NA,1,real,null,2,NA,NA,NA,sub131
d3-animate-choice,199,602403,0.0-76.0-1.21,TRUE,TRUE,FALSE,TRUE,"""event"",""trial"",""time""
""fullscreenenter"",""5"",""15129""
","
","
","""event"",""trial"",""time""
""fullscreenenter"",""5"",""15129""
","
",458.76000000862405,NA,48,NA,NA,3000,1,NA,NA,images/purpleplanet.jpg,images/alien4,images/alien3,images/rocket2,images/alien4,images/nothing.png,2,real,true,2,common,0,2020-06-20T14:40:41Z,sub131
two-step-fixation,200,603406,0.0-76.0-2.21,TRUE,TRUE,FALSE,TRUE,"""event"",""trial"",""time""
""fullscreenenter"",""5"",""15129""
","
","
","""event"",""trial"",""time""
""fullscreenenter"",""5"",""15129""
","
",NA,images/earth.jpg,NA,NA,NA,NA,NA,NA,NA,NA,NA,NA,NA,NA,NA,fixation,NA,NA,NA,NA,NA,NA,sub131
d3-animate-choice,201,605952,0.0-76.0-0.22,TRUE,TRUE,FALSE,TRUE,"""event"",""trial"",""time""
""fullscreenenter"",""5"",""15129""
","
","
","""event"",""trial"",""time""
""fullscreenenter"",""5"",""15129""
","
",541.1600000225008,NA,48,NA,NA,3000,1,NA,NA,images/earth.jpg,images/rocket2,images/rocket1,null,images/rocket2,NA,1,real,null,2,NA,NA,NA,sub131
d3-animate-choice,202,608865,0.0-76.0-1.22,TRUE,TRUE,FALSE,TRUE,"""event"",""trial"",""time""
""fullscreenenter"",""5"",""15129""
","
","
","""event"",""trial"",""time""
""fullscreenenter"",""5"",""15129""
","
",907.3899999493733,NA,49,NA,NA,3000,1,NA,NA,images/redplanet1.jpg,images/alien2,images/alien1,images/rocket2,images/alien1,images/nothing.png,2,real,false,1,rare,0,2020-06-20T14:40:48Z,sub131
two-step-fixation,203,609868,0.0-76.0-2.22,TRUE,TRUE,FALSE,TRUE,"""event"",""trial"",""time""
""fullscreenenter"",""5"",""15129""
","
","
","""event"",""trial"",""time""
""fullscreenenter"",""5"",""15129""
","
",NA,images/earth.jpg,NA,NA,NA,NA,NA,NA,NA,NA,NA,NA,NA,NA,NA,fixation,NA,NA,NA,NA,NA,NA,sub131
d3-animate-choice,204,612259,0.0-76.0-0.23,TRUE,TRUE,FALSE,TRUE,"""event"",""trial"",""time""
""fullscreenenter"",""5"",""15129""
","
","
","""event"",""trial"",""time""
""fullscreenenter"",""5"",""15129""
","
",387.1000000508502,NA,48,NA,NA,3000,1,NA,NA,images/earth.jpg,images/rocket2,images/rocket1,null,images/rocket2,NA,1,real,null,2,NA,NA,NA,sub131
d3-animate-choice,205,614728,0.0-76.0-1.23,TRUE,TRUE,FALSE,TRUE,"""event"",""trial"",""time""
""fullscreenenter"",""5"",""15129""
","
","
","""event"",""trial"",""time""
""fullscreenenter"",""5"",""15129""
","
",460.4350000154227,NA,48,NA,NA,3000,1,NA,NA,images/purpleplanet.jpg,images/alien4,images/alien3,images/rocket2,images/alien4,images/t.png,2,real,true,2,common,1,2020-06-20T14:40:53Z,sub131
two-step-fixation,206,615733,0.0-76.0-2.23,TRUE,TRUE,FALSE,TRUE,"""event"",""trial"",""time""
""fullscreenenter"",""5"",""15129""
","
","
","""event"",""trial"",""time""
""fullscreenenter"",""5"",""15129""
","
",NA,images/earth.jpg,NA,NA,NA,NA,NA,NA,NA,NA,NA,NA,NA,NA,NA,fixation,NA,NA,NA,NA,NA,NA,sub131
d3-animate-choice,207,618147,0.0-76.0-0.24,TRUE,TRUE,FALSE,TRUE,"""event"",""trial"",""time""
""fullscreenenter"",""5"",""15129""
","
","
","""event"",""trial"",""time""
""fullscreenenter"",""5"",""15129""
","
",408.3499999833293,NA,48,NA,NA,3000,1,NA,NA,images/earth.jpg,images/rocket2,images/rocket1,null,images/rocket2,NA,1,real,null,2,NA,NA,NA,sub131
d3-animate-choice,208,620620,0.0-76.0-1.24,TRUE,TRUE,FALSE,TRUE,"""event"",""trial"",""time""
""fullscreenenter"",""5"",""15129""
","
","
","""event"",""trial"",""time""
""fullscreenenter"",""5"",""15129""
","
",468.92999997362494,NA,48,NA,NA,3000,1,NA,NA,images/purpleplanet.jpg,images/alien4,images/alien3,images/rocket2,images/alien4,images/nothing.png,2,real,true,2,common,0,2020-06-20T14:40:59Z,sub131
two-step-fixation,209,621624,0.0-76.0-2.24,TRUE,TRUE,FALSE,TRUE,"""event"",""trial"",""time""
""fullscreenenter"",""5"",""15129""
","
","
","""event"",""trial"",""time""
""fullscreenenter"",""5"",""15129""
","
",NA,images/earth.jpg,NA,NA,NA,NA,NA,NA,NA,NA,NA,NA,NA,NA,NA,fixation,NA,NA,NA,NA,NA,NA,sub131
d3-animate-choice,210,625166,0.0-76.0-0.25,TRUE,TRUE,FALSE,TRUE,"""event"",""trial"",""time""
""fullscreenenter"",""5"",""15129""
","
","
","""event"",""trial"",""time""
""fullscreenenter"",""5"",""15129""
","
",1535.2699999930337,NA,48,NA,NA,3000,1,NA,NA,images/earth.jpg,images/rocket2,images/rocket1,null,images/rocket2,NA,1,real,null,2,NA,NA,NA,sub131
d3-animate-choice,211,627680,0.0-76.0-1.25,TRUE,TRUE,FALSE,TRUE,"""event"",""trial"",""time""
""fullscreenenter"",""5"",""15129""
","
","
","""event"",""trial"",""time""
""fullscreenenter"",""5"",""15129""
","
",509.00499999988824,NA,49,NA,NA,3000,1,NA,NA,images/redplanet1.jpg,images/alien2,images/alien1,images/rocket2,images/alien1,images/t.png,2,real,false,1,rare,1,2020-06-20T14:41:06Z,sub131
two-step-fixation,212,628683,0.0-76.0-2.25,TRUE,TRUE,FALSE,TRUE,"""event"",""trial"",""time""
""fullscreenenter"",""5"",""15129""
","
","
","""event"",""trial"",""time""
""fullscreenenter"",""5"",""15129""
","
",NA,images/earth.jpg,NA,NA,NA,NA,NA,NA,NA,NA,NA,NA,NA,NA,NA,fixation,NA,NA,NA,NA,NA,NA,sub131
d3-animate-choice,213,631086,0.0-76.0-0.26,TRUE,TRUE,FALSE,TRUE,"""event"",""trial"",""time""
""fullscreenenter"",""5"",""15129""
","
","
","""event"",""trial"",""time""
""fullscreenenter"",""5"",""15129""
","
",398.1599999824539,NA,48,NA,NA,3000,1,NA,NA,images/earth.jpg,images/rocket2,images/rocket1,null,images/rocket2,NA,1,real,null,2,NA,NA,NA,sub131
d3-animate-choice,214,633751,0.0-76.0-1.26,TRUE,TRUE,FALSE,TRUE,"""event"",""trial"",""time""
""fullscreenenter"",""5"",""15129""
","
","
","""event"",""trial"",""time""
""fullscreenenter"",""5"",""15129""
","
",661.4700000500306,NA,49,NA,NA,3000,1,NA,NA,images/redplanet1.jpg,images/alien2,images/alien1,images/rocket2,images/alien1,images/nothing.png,2,real,false,1,rare,0,2020-06-20T14:41:12Z,sub131
two-step-fixation,215,634754,0.0-76.0-2.26,TRUE,TRUE,FALSE,TRUE,"""event"",""trial"",""time""
""fullscreenenter"",""5"",""15129""
","
","
","""event"",""trial"",""time""
""fullscreenenter"",""5"",""15129""
","
",NA,images/earth.jpg,NA,NA,NA,NA,NA,NA,NA,NA,NA,NA,NA,NA,NA,fixation,NA,NA,NA,NA,NA,NA,sub131
d3-animate-choice,216,637773,0.0-76.0-0.27,TRUE,TRUE,FALSE,TRUE,"""event"",""trial"",""time""
""fullscreenenter"",""5"",""15129""
","
","
","""event"",""trial"",""time""
""fullscreenenter"",""5"",""15129""
","
",1013.2999999914318,NA,48,NA,NA,3000,1,NA,NA,images/earth.jpg,images/rocket2,images/rocket1,null,images/rocket2,NA,1,real,null,2,NA,NA,NA,sub131
d3-animate-choice,217,640361,0.0-76.0-1.27,TRUE,TRUE,FALSE,TRUE,"""event"",""trial"",""time""
""fullscreenenter"",""5"",""15129""
","
","
","""event"",""trial"",""time""
""fullscreenenter"",""5"",""15129""
","
",582.3300000047311,NA,48,NA,NA,3000,1,NA,NA,images/purpleplanet.jpg,images/alien4,images/alien3,images/rocket2,images/alien4,images/t.png,2,real,true,2,common,1,2020-06-20T14:41:19Z,sub131
two-step-fixation,218,641365,0.0-76.0-2.27,TRUE,TRUE,FALSE,TRUE,"""event"",""trial"",""time""
""fullscreenenter"",""5"",""15129""
","
","
","""event"",""trial"",""time""
""fullscreenenter"",""5"",""15129""
","
",NA,images/earth.jpg,NA,NA,NA,NA,NA,NA,NA,NA,NA,NA,NA,NA,NA,fixation,NA,NA,NA,NA,NA,NA,sub131
d3-animate-choice,219,643753,0.0-76.0-0.28,TRUE,TRUE,FALSE,TRUE,"""event"",""trial"",""time""
""fullscreenenter"",""5"",""15129""
","
","
","""event"",""trial"",""time""
""fullscreenenter"",""5"",""15129""
","
",384.0499999932945,NA,48,NA,NA,3000,1,NA,NA,images/earth.jpg,images/rocket2,images/rocket1,null,images/rocket2,NA,1,real,null,2,NA,NA,NA,sub131
d3-animate-choice,220,646447,0.0-76.0-1.28,TRUE,TRUE,FALSE,TRUE,"""event"",""trial"",""time""
""fullscreenenter"",""5"",""15129""
","
","
","""event"",""trial"",""time""
""fullscreenenter"",""5"",""15129""
","
",690.3649999876507,NA,48,NA,NA,3000,1,NA,NA,images/purpleplanet.jpg,images/alien4,images/alien3,images/rocket2,images/alien4,images/t.png,2,real,true,2,common,1,2020-06-20T14:41:25Z,sub131
two-step-fixation,221,647451,0.0-76.0-2.28,TRUE,TRUE,FALSE,TRUE,"""event"",""trial"",""time""
""fullscreenenter"",""5"",""15129""
","
","
","""event"",""trial"",""time""
""fullscreenenter"",""5"",""15129""
","
",NA,images/earth.jpg,NA,NA,NA,NA,NA,NA,NA,NA,NA,NA,NA,NA,NA,fixation,NA,NA,NA,NA,NA,NA,sub131
d3-animate-choice,222,649829,0.0-76.0-0.29,TRUE,TRUE,FALSE,TRUE,"""event"",""trial"",""time""
""fullscreenenter"",""5"",""15129""
","
","
","""event"",""trial"",""time""
""fullscreenenter"",""5"",""15129""
","
",371.820000000298,NA,48,NA,NA,3000,1,NA,NA,images/earth.jpg,images/rocket2,images/rocket1,null,images/rocket2,NA,1,real,null,2,NA,NA,NA,sub131
d3-animate-choice,223,652580,0.0-76.0-1.29,TRUE,TRUE,FALSE,TRUE,"""event"",""trial"",""time""
""fullscreenenter"",""5"",""15129""
","
","
","""event"",""trial"",""time""
""fullscreenenter"",""5"",""15129""
","
",745.7749999593943,NA,49,NA,NA,3000,1,NA,NA,images/redplanet1.jpg,images/alien2,images/alien1,images/rocket2,images/alien1,images/t.png,2,real,false,1,rare,1,2020-06-20T14:41:31Z,sub131
two-step-fixation,224,653584,0.0-76.0-2.29,TRUE,TRUE,FALSE,TRUE,"""event"",""trial"",""time""
""fullscreenenter"",""5"",""15129""
","
","
","""event"",""trial"",""time""
""fullscreenenter"",""5"",""15129""
","
",NA,images/earth.jpg,NA,NA,NA,NA,NA,NA,NA,NA,NA,NA,NA,NA,NA,fixation,NA,NA,NA,NA,NA,NA,sub131
d3-animate-choice,225,656058,0.0-76.0-0.30,TRUE,TRUE,FALSE,TRUE,"""event"",""trial"",""time""
""fullscreenenter"",""5"",""15129""
","
","
","""event"",""trial"",""time""
""fullscreenenter"",""5"",""15129""
","
",469.0200000186451,NA,48,NA,NA,3000,1,NA,NA,images/earth.jpg,images/rocket2,images/rocket1,null,images/rocket2,NA,1,real,null,2,NA,NA,NA,sub131
d3-animate-choice,226,658848,0.0-76.0-1.30,TRUE,TRUE,FALSE,TRUE,"""event"",""trial"",""time""
""fullscreenenter"",""5"",""15129""
","
","
","""event"",""trial"",""time""
""fullscreenenter"",""5"",""15129""
","
",781.3350000069477,NA,49,NA,NA,3000,1,NA,NA,images/redplanet1.jpg,images/alien2,images/alien1,images/rocket2,images/alien1,images/nothing.png,2,real,false,1,rare,0,2020-06-20T14:41:38Z,sub131
two-step-fixation,227,659854,0.0-76.0-2.30,TRUE,TRUE,FALSE,TRUE,"""event"",""trial"",""time""
""fullscreenenter"",""5"",""15129""
","
","
","""event"",""trial"",""time""
""fullscreenenter"",""5"",""15129""
","
",NA,images/earth.jpg,NA,NA,NA,NA,NA,NA,NA,NA,NA,NA,NA,NA,NA,fixation,NA,NA,NA,NA,NA,NA,sub131
d3-animate-choice,228,662290,0.0-76.0-0.31,TRUE,TRUE,FALSE,TRUE,"""event"",""trial"",""time""
""fullscreenenter"",""5"",""15129""
","
","
","""event"",""trial"",""time""
""fullscreenenter"",""5"",""15129""
","
",431.80500000016764,NA,48,NA,NA,3000,1,NA,NA,images/earth.jpg,images/rocket2,images/rocket1,null,images/rocket2,NA,1,real,null,2,NA,NA,NA,sub131
d3-animate-choice,229,664867,0.0-76.0-1.31,TRUE,TRUE,FALSE,TRUE,"""event"",""trial"",""time""
""fullscreenenter"",""5"",""15129""
","
","
","""event"",""trial"",""time""
""fullscreenenter"",""5"",""15129""
","
",574.0149999619462,NA,48,NA,NA,3000,1,NA,NA,images/purpleplanet.jpg,images/alien4,images/alien3,images/rocket2,images/alien4,images/t.png,2,real,true,2,common,1,2020-06-20T14:41:44Z,sub131
two-step-fixation,230,665874,0.0-76.0-2.31,TRUE,TRUE,FALSE,TRUE,"""event"",""trial"",""time""
""fullscreenenter"",""5"",""15129""
","
","
","""event"",""trial"",""time""
""fullscreenenter"",""5"",""15129""
","
",NA,images/earth.jpg,NA,NA,NA,NA,NA,NA,NA,NA,NA,NA,NA,NA,NA,fixation,NA,NA,NA,NA,NA,NA,sub131
d3-animate-choice,231,668241,0.0-76.0-0.32,TRUE,TRUE,FALSE,TRUE,"""event"",""trial"",""time""
""fullscreenenter"",""5"",""15129""
","
","
","""event"",""trial"",""time""
""fullscreenenter"",""5"",""15129""
","
",362.44499997701496,NA,48,NA,NA,3000,1,NA,NA,images/earth.jpg,images/rocket2,images/rocket1,null,images/rocket2,NA,1,real,null,2,NA,NA,NA,sub131
d3-animate-choice,232,670852,0.0-76.0-1.32,TRUE,TRUE,FALSE,TRUE,"""event"",""trial"",""time""
""fullscreenenter"",""5"",""15129""
","
","
","""event"",""trial"",""time""
""fullscreenenter"",""5"",""15129""
","
",602.2249999805354,NA,48,NA,NA,3000,1,NA,NA,images/purpleplanet.jpg,images/alien4,images/alien3,images/rocket2,images/alien4,images/t.png,2,real,true,2,common,1,2020-06-20T14:41:50Z,sub131
two-step-fixation,233,671856,0.0-76.0-2.32,TRUE,TRUE,FALSE,TRUE,"""event"",""trial"",""time""
""fullscreenenter"",""5"",""15129""
","
","
","""event"",""trial"",""time""
""fullscreenenter"",""5"",""15129""
","
",NA,images/earth.jpg,NA,NA,NA,NA,NA,NA,NA,NA,NA,NA,NA,NA,NA,fixation,NA,NA,NA,NA,NA,NA,sub131
d3-animate-choice,234,674473,0.0-76.0-0.33,TRUE,TRUE,FALSE,TRUE,"""event"",""trial"",""time""
""fullscreenenter"",""5"",""15129""
","
","
","""event"",""trial"",""time""
""fullscreenenter"",""5"",""15129""
","
",610.5350000434555,NA,48,NA,NA,3000,1,NA,NA,images/earth.jpg,images/rocket2,images/rocket1,null,images/rocket2,NA,1,real,null,2,NA,NA,NA,sub131
d3-animate-choice,235,676979,0.0-76.0-1.33,TRUE,TRUE,FALSE,TRUE,"""event"",""trial"",""time""
""fullscreenenter"",""5"",""15129""
","
","
","""event"",""trial"",""time""
""fullscreenenter"",""5"",""15129""
","
",501.7600000137463,NA,48,NA,NA,3000,1,NA,NA,images/purpleplanet.jpg,images/alien4,images/alien3,images/rocket2,images/alien4,images/nothing.png,2,real,true,2,common,0,2020-06-20T14:41:56Z,sub131
two-step-fixation,236,677983,0.0-76.0-2.33,TRUE,TRUE,FALSE,TRUE,"""event"",""trial"",""time""
""fullscreenenter"",""5"",""15129""
","
","
","""event"",""trial"",""time""
""fullscreenenter"",""5"",""15129""
","
",NA,images/earth.jpg,NA,NA,NA,NA,NA,NA,NA,NA,NA,NA,NA,NA,NA,fixation,NA,NA,NA,NA,NA,NA,sub131
d3-animate-choice,237,680365,0.0-76.0-0.34,TRUE,TRUE,FALSE,TRUE,"""event"",""trial"",""time""
""fullscreenenter"",""5"",""15129""
","
","
","""event"",""trial"",""time""
""fullscreenenter"",""5"",""15129""
","
",376.845000020694,NA,49,NA,NA,3000,1,NA,NA,images/earth.jpg,images/rocket2,images/rocket1,null,images/rocket1,NA,1,real,null,1,NA,NA,NA,sub131
d3-animate-choice,238,682996,0.0-76.0-1.34,TRUE,TRUE,FALSE,TRUE,"""event"",""trial"",""time""
""fullscreenenter"",""5"",""15129""
","
","
","""event"",""trial"",""time""
""fullscreenenter"",""5"",""15129""
","
",625.9050000226125,NA,49,NA,NA,3000,1,NA,NA,images/redplanet1.jpg,images/alien2,images/alien1,images/rocket1,images/alien1,images/nothing.png,2,real,true,1,common,0,2020-06-20T14:42:02Z,sub131
two-step-fixation,239,684000,0.0-76.0-2.34,TRUE,TRUE,FALSE,TRUE,"""event"",""trial"",""time""
""fullscreenenter"",""5"",""15129""
","
","
","""event"",""trial"",""time""
""fullscreenenter"",""5"",""15129""
","
",NA,images/earth.jpg,NA,NA,NA,NA,NA,NA,NA,NA,NA,NA,NA,NA,NA,fixation,NA,NA,NA,NA,NA,NA,sub131
d3-animate-choice,240,686415,0.0-76.0-0.35,TRUE,TRUE,FALSE,TRUE,"""event"",""trial"",""time""
""fullscreenenter"",""5"",""15129""
","
","
","""event"",""trial"",""time""
""fullscreenenter"",""5"",""15129""
","
",410.98499996587634,NA,49,NA,NA,3000,1,NA,NA,images/earth.jpg,images/rocket2,images/rocket1,null,images/rocket1,NA,1,real,null,1,NA,NA,NA,sub131
d3-animate-choice,241,688916,0.0-76.0-1.35,TRUE,TRUE,FALSE,TRUE,"""event"",""trial"",""time""
""fullscreenenter"",""5"",""15129""
","
","
","""event"",""trial"",""time""
""fullscreenenter"",""5"",""15129""
","
",495.9099999978207,NA,48,NA,NA,3000,1,NA,NA,images/redplanet1.jpg,images/alien2,images/alien1,images/rocket1,images/alien2,images/nothing.png,2,real,true,2,common,0,2020-06-20T14:42:08Z,sub131
two-step-fixation,242,689922,0.0-76.0-2.35,TRUE,TRUE,FALSE,TRUE,"""event"",""trial"",""time""
""fullscreenenter"",""5"",""15129""
","
","
","""event"",""trial"",""time""
""fullscreenenter"",""5"",""15129""
","
",NA,images/earth.jpg,NA,NA,NA,NA,NA,NA,NA,NA,NA,NA,NA,NA,NA,fixation,NA,NA,NA,NA,NA,NA,sub131
d3-animate-choice,243,692339,0.0-76.0-0.36,TRUE,TRUE,FALSE,TRUE,"""event"",""trial"",""time""
""fullscreenenter"",""5"",""15129""
","
","
","""event"",""trial"",""time""
""fullscreenenter"",""5"",""15129""
","
",409.64999998686835,NA,49,NA,NA,3000,1,NA,NA,images/earth.jpg,images/rocket2,images/rocket1,null,images/rocket1,NA,1,real,null,1,NA,NA,NA,sub131
d3-animate-choice,244,694857,0.0-76.0-1.36,TRUE,TRUE,FALSE,TRUE,"""event"",""trial"",""time""
""fullscreenenter"",""5"",""15129""
","
","
","""event"",""trial"",""time""
""fullscreenenter"",""5"",""15129""
","
",511.5499999956228,NA,49,NA,NA,3000,1,NA,NA,images/purpleplanet.jpg,images/alien4,images/alien3,images/rocket1,images/alien3,images/nothing.png,2,real,false,1,rare,0,2020-06-20T14:42:14Z,sub131
two-step-fixation,245,695866,0.0-76.0-2.36,TRUE,TRUE,FALSE,TRUE,"""event"",""trial"",""time""
""fullscreenenter"",""5"",""15129""
","
","
","""event"",""trial"",""time""
""fullscreenenter"",""5"",""15129""
","
",NA,images/earth.jpg,NA,NA,NA,NA,NA,NA,NA,NA,NA,NA,NA,NA,NA,fixation,NA,NA,NA,NA,NA,NA,sub131
d3-animate-choice,246,698252,0.0-76.0-0.37,TRUE,TRUE,FALSE,TRUE,"""event"",""trial"",""time""
""fullscreenenter"",""5"",""15129""
","
","
","""event"",""trial"",""time""
""fullscreenenter"",""5"",""15129""
","
",381.00000005215406,NA,49,NA,NA,3000,1,NA,NA,images/earth.jpg,images/rocket2,images/rocket1,null,images/rocket1,NA,1,real,null,1,NA,NA,NA,sub131
d3-animate-choice,247,700686,0.0-76.0-1.37,TRUE,TRUE,FALSE,TRUE,"""event"",""trial"",""time""
""fullscreenenter"",""5"",""15129""
","
","
","""event"",""trial"",""time""
""fullscreenenter"",""5"",""15129""
","
",430.7299999636598,NA,48,NA,NA,3000,1,NA,NA,images/redplanet1.jpg,images/alien2,images/alien1,images/rocket1,images/alien2,images/nothing.png,2,real,true,2,common,0,2020-06-20T14:42:19Z,sub131
two-step-fixation,248,701688,0.0-76.0-2.37,TRUE,TRUE,FALSE,TRUE,"""event"",""trial"",""time""
""fullscreenenter"",""5"",""15129""
","
","
","""event"",""trial"",""time""
""fullscreenenter"",""5"",""15129""
","
",NA,images/earth.jpg,NA,NA,NA,NA,NA,NA,NA,NA,NA,NA,NA,NA,NA,fixation,NA,NA,NA,NA,NA,NA,sub131
d3-animate-choice,249,704162,0.0-76.0-0.38,TRUE,TRUE,FALSE,TRUE,"""event"",""trial"",""time""
""fullscreenenter"",""5"",""15129""
","
","
","""event"",""trial"",""time""
""fullscreenenter"",""5"",""15129""
","
",466.5099999983795,NA,48,NA,NA,3000,1,NA,NA,images/earth.jpg,images/rocket2,images/rocket1,null,images/rocket2,NA,1,real,null,2,NA,NA,NA,sub131
d3-animate-choice,250,706663,0.0-76.0-1.38,TRUE,TRUE,FALSE,TRUE,"""event"",""trial"",""time""
""fullscreenenter"",""5"",""15129""
","
","
","""event"",""trial"",""time""
""fullscreenenter"",""5"",""15129""
","
",496.4050000417046,NA,48,NA,NA,3000,1,NA,NA,images/purpleplanet.jpg,images/alien4,images/alien3,images/rocket2,images/alien4,images/t.png,2,real,true,2,common,1,2020-06-20T14:42:25Z,sub131
two-step-fixation,251,707669,0.0-76.0-2.38,TRUE,TRUE,FALSE,TRUE,"""event"",""trial"",""time""
""fullscreenenter"",""5"",""15129""
","
","
","""event"",""trial"",""time""
""fullscreenenter"",""5"",""15129""
","
",NA,images/earth.jpg,NA,NA,NA,NA,NA,NA,NA,NA,NA,NA,NA,NA,NA,fixation,NA,NA,NA,NA,NA,NA,sub131
d3-animate-choice,252,710053,0.0-76.0-0.39,TRUE,TRUE,FALSE,TRUE,"""event"",""trial"",""time""
""fullscreenenter"",""5"",""15129""
","
","
","""event"",""trial"",""time""
""fullscreenenter"",""5"",""15129""
","
",377.0549999899231,NA,48,NA,NA,3000,1,NA,NA,images/earth.jpg,images/rocket2,images/rocket1,null,images/rocket2,NA,1,real,null,2,NA,NA,NA,sub131
d3-animate-choice,253,712555,0.0-76.0-1.39,TRUE,TRUE,FALSE,TRUE,"""event"",""trial"",""time""
""fullscreenenter"",""5"",""15129""
","
","
","""event"",""trial"",""time""
""fullscreenenter"",""5"",""15129""
","
",497.670000011567,NA,48,NA,NA,3000,1,NA,NA,images/purpleplanet.jpg,images/alien4,images/alien3,images/rocket2,images/alien4,images/t.png,2,real,true,2,common,1,2020-06-20T14:42:31Z,sub131
two-step-fixation,254,713558,0.0-76.0-2.39,TRUE,TRUE,FALSE,TRUE,"""event"",""trial"",""time""
""fullscreenenter"",""5"",""15129""
","
","
","""event"",""trial"",""time""
""fullscreenenter"",""5"",""15129""
","
",NA,images/earth.jpg,NA,NA,NA,NA,NA,NA,NA,NA,NA,NA,NA,NA,NA,fixation,NA,NA,NA,NA,NA,NA,sub131
d3-animate-choice,255,716000,0.0-76.0-0.40,TRUE,TRUE,FALSE,TRUE,"""event"",""trial"",""time""
""fullscreenenter"",""5"",""15129""
","
","
","""event"",""trial"",""time""
""fullscreenenter"",""5"",""15129""
","
",437.3849999974482,NA,48,NA,NA,3000,1,NA,NA,images/earth.jpg,images/rocket2,images/rocket1,null,images/rocket2,NA,1,real,null,2,NA,NA,NA,sub131
d3-animate-choice,256,718396,0.0-76.0-1.40,TRUE,TRUE,FALSE,TRUE,"""event"",""trial"",""time""
""fullscreenenter"",""5"",""15129""
","
","
","""event"",""trial"",""time""
""fullscreenenter"",""5"",""15129""
","
",389.0450000180863,NA,48,NA,NA,3000,1,NA,NA,images/redplanet1.jpg,images/alien2,images/alien1,images/rocket2,images/alien2,images/nothing.png,2,real,false,2,rare,0,2020-06-20T14:42:37Z,sub131
two-step-fixation,257,719404,0.0-76.0-2.40,TRUE,TRUE,FALSE,TRUE,"""event"",""trial"",""time""
""fullscreenenter"",""5"",""15129""
","
","
","""event"",""trial"",""time""
""fullscreenenter"",""5"",""15129""
","
",NA,images/earth.jpg,NA,NA,NA,NA,NA,NA,NA,NA,NA,NA,NA,NA,NA,fixation,NA,NA,NA,NA,NA,NA,sub131
d3-animate-choice,258,721793,0.0-76.0-0.41,TRUE,TRUE,FALSE,TRUE,"""event"",""trial"",""time""
""fullscreenenter"",""5"",""15129""
","
","
","""event"",""trial"",""time""
""fullscreenenter"",""5"",""15129""
","
",382.6149999513291,NA,48,NA,NA,3000,1,NA,NA,images/earth.jpg,images/rocket2,images/rocket1,null,images/rocket2,NA,1,real,null,2,NA,NA,NA,sub131
d3-animate-choice,259,724460,0.0-76.0-1.41,TRUE,TRUE,FALSE,TRUE,"""event"",""trial"",""time""
""fullscreenenter"",""5"",""15129""
","
","
","""event"",""trial"",""time""
""fullscreenenter"",""5"",""15129""
","
",661.5950000123121,NA,48,NA,NA,3000,1,NA,NA,images/redplanet1.jpg,images/alien2,images/alien1,images/rocket2,images/alien2,images/t.png,2,real,false,2,rare,1,2020-06-20T14:42:43Z,sub131
two-step-fixation,260,725465,0.0-76.0-2.41,TRUE,TRUE,FALSE,TRUE,"""event"",""trial"",""time""
""fullscreenenter"",""5"",""15129""
","
","
","""event"",""trial"",""time""
""fullscreenenter"",""5"",""15129""
","
",NA,images/earth.jpg,NA,NA,NA,NA,NA,NA,NA,NA,NA,NA,NA,NA,NA,fixation,NA,NA,NA,NA,NA,NA,sub131
d3-animate-choice,261,727900,0.0-76.0-0.42,TRUE,TRUE,FALSE,TRUE,"""event"",""trial"",""time""
""fullscreenenter"",""5"",""15129""
","
","
","""event"",""trial"",""time""
""fullscreenenter"",""5"",""15129""
","
",430.7999999728054,NA,48,NA,NA,3000,1,NA,NA,images/earth.jpg,images/rocket2,images/rocket1,null,images/rocket2,NA,1,real,null,2,NA,NA,NA,sub131
d3-animate-choice,262,730386,0.0-76.0-1.42,TRUE,TRUE,FALSE,TRUE,"""event"",""trial"",""time""
""fullscreenenter"",""5"",""15129""
","
","
","""event"",""trial"",""time""
""fullscreenenter"",""5"",""15129""
","
",479.6850000275299,NA,48,NA,NA,3000,1,NA,NA,images/redplanet1.jpg,images/alien2,images/alien1,images/rocket2,images/alien2,images/t.png,2,real,false,2,rare,1,2020-06-20T14:42:49Z,sub131
two-step-fixation,263,731390,0.0-76.0-2.42,TRUE,TRUE,FALSE,TRUE,"""event"",""trial"",""time""
""fullscreenenter"",""5"",""15129""
","
","
","""event"",""trial"",""time""
""fullscreenenter"",""5"",""15129""
","
",NA,images/earth.jpg,NA,NA,NA,NA,NA,NA,NA,NA,NA,NA,NA,NA,NA,fixation,NA,NA,NA,NA,NA,NA,sub131
d3-animate-choice,264,733755,0.0-76.0-0.43,TRUE,TRUE,FALSE,TRUE,"""event"",""trial"",""time""
""fullscreenenter"",""5"",""15129""
","
","
","""event"",""trial"",""time""
""fullscreenenter"",""5"",""15129""
","
",360.2800000226125,NA,48,NA,NA,3000,1,NA,NA,images/earth.jpg,images/rocket2,images/rocket1,null,images/rocket2,NA,1,real,null,2,NA,NA,NA,sub131
d3-animate-choice,265,736223,0.0-76.0-1.43,TRUE,TRUE,FALSE,TRUE,"""event"",""trial"",""time""
""fullscreenenter"",""5"",""15129""
","
","
","""event"",""trial"",""time""
""fullscreenenter"",""5"",""15129""
","
",463.2800000254065,NA,48,NA,NA,3000,1,NA,NA,images/redplanet1.jpg,images/alien2,images/alien1,images/rocket2,images/alien2,images/t.png,2,real,false,2,rare,1,2020-06-20T14:42:55Z,sub131
two-step-fixation,266,737227,0.0-76.0-2.43,TRUE,TRUE,FALSE,TRUE,"""event"",""trial"",""time""
""fullscreenenter"",""5"",""15129""
","
","
","""event"",""trial"",""time""
""fullscreenenter"",""5"",""15129""
","
",NA,images/earth.jpg,NA,NA,NA,NA,NA,NA,NA,NA,NA,NA,NA,NA,NA,fixation,NA,NA,NA,NA,NA,NA,sub131
d3-animate-choice,267,739597,0.0-76.0-0.44,TRUE,TRUE,FALSE,TRUE,"""event"",""trial"",""time""
""fullscreenenter"",""5"",""15129""
","
","
","""event"",""trial"",""time""
""fullscreenenter"",""5"",""15129""
","
",364.87500002840534,NA,48,NA,NA,3000,1,NA,NA,images/earth.jpg,images/rocket2,images/rocket1,null,images/rocket2,NA,1,real,null,2,NA,NA,NA,sub131
d3-animate-choice,268,742088,0.0-76.0-1.44,TRUE,TRUE,FALSE,TRUE,"""event"",""trial"",""time""
""fullscreenenter"",""5"",""15129""
","
","
","""event"",""trial"",""time""
""fullscreenenter"",""5"",""15129""
","
",486.0249999910593,NA,48,NA,NA,3000,1,NA,NA,images/purpleplanet.jpg,images/alien4,images/alien3,images/rocket2,images/alien4,images/t.png,2,real,true,2,common,1,2020-06-20T14:43:01Z,sub131
two-step-fixation,269,743091,0.0-76.0-2.44,TRUE,TRUE,FALSE,TRUE,"""event"",""trial"",""time""
""fullscreenenter"",""5"",""15129""
","
","
","""event"",""trial"",""time""
""fullscreenenter"",""5"",""15129""
","
",NA,images/earth.jpg,NA,NA,NA,NA,NA,NA,NA,NA,NA,NA,NA,NA,NA,fixation,NA,NA,NA,NA,NA,NA,sub131
d3-animate-choice,270,745511,0.0-76.0-0.45,TRUE,TRUE,FALSE,TRUE,"""event"",""trial"",""time""
""fullscreenenter"",""5"",""15129""
","
","
","""event"",""trial"",""time""
""fullscreenenter"",""5"",""15129""
","
",415.6150000053458,NA,48,NA,NA,3000,1,NA,NA,images/earth.jpg,images/rocket2,images/rocket1,null,images/rocket2,NA,1,real,null,2,NA,NA,NA,sub131
d3-animate-choice,271,748072,0.0-76.0-1.45,TRUE,TRUE,FALSE,TRUE,"""event"",""trial"",""time""
""fullscreenenter"",""5"",""15129""
","
","
","""event"",""trial"",""time""
""fullscreenenter"",""5"",""15129""
","
",554.8200000193901,NA,48,NA,NA,3000,1,NA,NA,images/purpleplanet.jpg,images/alien4,images/alien3,images/rocket2,images/alien4,images/t.png,2,real,true,2,common,1,2020-06-20T14:43:07Z,sub131
two-step-fixation,272,749075,0.0-76.0-2.45,TRUE,TRUE,FALSE,TRUE,"""event"",""trial"",""time""
""fullscreenenter"",""5"",""15129""
","
","
","""event"",""trial"",""time""
""fullscreenenter"",""5"",""15129""
","
",NA,images/earth.jpg,NA,NA,NA,NA,NA,NA,NA,NA,NA,NA,NA,NA,NA,fixation,NA,NA,NA,NA,NA,NA,sub131
d3-animate-choice,273,751451,0.0-76.0-0.46,TRUE,TRUE,FALSE,TRUE,"""event"",""trial"",""time""
""fullscreenenter"",""5"",""15129""
","
","
","""event"",""trial"",""time""
""fullscreenenter"",""5"",""15129""
","
",372.3799999570474,NA,48,NA,NA,3000,1,NA,NA,images/earth.jpg,images/rocket2,images/rocket1,null,images/rocket2,NA,1,real,null,2,NA,NA,NA,sub131
d3-animate-choice,274,753969,0.0-76.0-1.46,TRUE,TRUE,FALSE,TRUE,"""event"",""trial"",""time""
""fullscreenenter"",""5"",""15129""
","
","
","""event"",""trial"",""time""
""fullscreenenter"",""5"",""15129""
","
",511.1200000392273,NA,48,NA,NA,3000,1,NA,NA,images/purpleplanet.jpg,images/alien4,images/alien3,images/rocket2,images/alien4,images/nothing.png,2,real,true,2,common,0,2020-06-20T14:43:13Z,sub131
two-step-fixation,275,754972,0.0-76.0-2.46,TRUE,TRUE,FALSE,TRUE,"""event"",""trial"",""time""
""fullscreenenter"",""5"",""15129""
","
","
","""event"",""trial"",""time""
""fullscreenenter"",""5"",""15129""
","
",NA,images/earth.jpg,NA,NA,NA,NA,NA,NA,NA,NA,NA,NA,NA,NA,NA,fixation,NA,NA,NA,NA,NA,NA,sub131
d3-animate-choice,276,757364,0.0-76.0-0.47,TRUE,TRUE,FALSE,TRUE,"""event"",""trial"",""time""
""fullscreenenter"",""5"",""15129""
","
","
","""event"",""trial"",""time""
""fullscreenenter"",""5"",""15129""
","
",386.0800000256859,NA,48,NA,NA,3000,1,NA,NA,images/earth.jpg,images/rocket2,images/rocket1,null,images/rocket2,NA,1,real,null,2,NA,NA,NA,sub131
d3-animate-choice,277,759875,0.0-76.0-1.47,TRUE,TRUE,FALSE,TRUE,"""event"",""trial"",""time""
""fullscreenenter"",""5"",""15129""
","
","
","""event"",""trial"",""time""
""fullscreenenter"",""5"",""15129""
","
",506.0550000052899,NA,49,NA,NA,3000,1,NA,NA,images/redplanet1.jpg,images/alien2,images/alien1,images/rocket2,images/alien1,images/t.png,2,real,false,1,rare,1,2020-06-20T14:43:19Z,sub131
two-step-fixation,278,760879,0.0-76.0-2.47,TRUE,TRUE,FALSE,TRUE,"""event"",""trial"",""time""
""fullscreenenter"",""5"",""15129""
","
","
","""event"",""trial"",""time""
""fullscreenenter"",""5"",""15129""
","
",NA,images/earth.jpg,NA,NA,NA,NA,NA,NA,NA,NA,NA,NA,NA,NA,NA,fixation,NA,NA,NA,NA,NA,NA,sub131
d3-animate-choice,279,763359,0.0-76.0-0.48,TRUE,TRUE,FALSE,TRUE,"""event"",""trial"",""time""
""fullscreenenter"",""5"",""15129""
","
","
","""event"",""trial"",""time""
""fullscreenenter"",""5"",""15129""
","
",476.49000003002584,NA,48,NA,NA,3000,1,NA,NA,images/earth.jpg,images/rocket2,images/rocket1,null,images/rocket2,NA,1,real,null,2,NA,NA,NA,sub131
d3-animate-choice,280,765970,0.0-76.0-1.48,TRUE,TRUE,FALSE,TRUE,"""event"",""trial"",""time""
""fullscreenenter"",""5"",""15129""
","
","
","""event"",""trial"",""time""
""fullscreenenter"",""5"",""15129""
","
",606.2749999691732,NA,49,NA,NA,3000,1,NA,NA,images/redplanet1.jpg,images/alien2,images/alien1,images/rocket2,images/alien1,images/nothing.png,2,real,false,1,rare,0,2020-06-20T14:43:25Z,sub131
two-step-fixation,281,766974,0.0-76.0-2.48,TRUE,TRUE,FALSE,TRUE,"""event"",""trial"",""time""
""fullscreenenter"",""5"",""15129""
","
","
","""event"",""trial"",""time""
""fullscreenenter"",""5"",""15129""
","
",NA,images/earth.jpg,NA,NA,NA,NA,NA,NA,NA,NA,NA,NA,NA,NA,NA,fixation,NA,NA,NA,NA,NA,NA,sub131
d3-animate-choice,282,769372,0.0-76.0-0.49,TRUE,TRUE,FALSE,TRUE,"""event"",""trial"",""time""
""fullscreenenter"",""5"",""15129""
","
","
","""event"",""trial"",""time""
""fullscreenenter"",""5"",""15129""
","
",392.1350000309758,NA,48,NA,NA,3000,1,NA,NA,images/earth.jpg,images/rocket2,images/rocket1,null,images/rocket2,NA,1,real,null,2,NA,NA,NA,sub131
d3-animate-choice,283,771787,0.0-76.0-1.49,TRUE,TRUE,FALSE,TRUE,"""event"",""trial"",""time""
""fullscreenenter"",""5"",""15129""
","
","
","""event"",""trial"",""time""
