trial_type,trial_index,time_elapsed,internal_node_id,rocket_sides,red_planet_first_rocket,red_display_order,purple_display_order,interactions,blur_events,focus_events,fullscreenenter_events,fullscreenexit_events,rt,stimulus,key_press,button_pressed,success,duration,valid_pressed,rts,keys,planet_text,right_text,left_text,center_text,chosen_text,reward_text,trial_stage,practice_trial,transition_type,choice,transition,reward,timestamp,subject_id
pavlovia,0,5,0.0-0.0,TRUE,TRUE,FALSE,TRUE,"""event"",""trial"",""time""
""focus"",""0"",""0""
""blur"",""0"",""0""
""focus"",""1"",""15398""
","""event"",""trial"",""time""
""blur"",""0"",""0""
","""event"",""trial"",""time""
""focus"",""0"",""0""
""focus"",""1"",""15398""
","
","
",NA,NA,NA,NA,NA,NA,NA,NA,NA,NA,NA,NA,NA,NA,NA,NA,NA,NA,NA,NA,NA,NA,sub34
html-keyboard-response,1,18023,0.0-1.0,TRUE,TRUE,FALSE,TRUE,"""event"",""trial"",""time""
""focus"",""0"",""0""
""blur"",""0"",""0""
""focus"",""1"",""15398""
","""event"",""trial"",""time""
""blur"",""0"",""0""
","""event"",""trial"",""time""
""focus"",""0"",""0""
""focus"",""1"",""15398""
","
","
",18016.890000002604,Welcome! Press the space bar to begin.,32,NA,NA,NA,NA,NA,NA,NA,NA,NA,NA,NA,NA,NA,NA,NA,NA,NA,NA,NA,sub34
audio-keyboard-response,2,20636,0.0-2.0,TRUE,TRUE,FALSE,TRUE,"""event"",""trial"",""time""
""focus"",""0"",""0""
""blur"",""0"",""0""
""focus"",""1"",""15398""
","""event"",""trial"",""time""
""blur"",""0"",""0""
","""event"",""trial"",""time""
""focus"",""0"",""0""
""focus"",""1"",""15398""
","
","
",2581,audio/beep_loop.wav,32,NA,NA,NA,NA,NA,NA,NA,NA,NA,NA,NA,NA,NA,NA,NA,NA,NA,NA,NA,sub34
audio-button-response,3,23055,0.0-3.0,TRUE,TRUE,FALSE,TRUE,"""event"",""trial"",""time""
""focus"",""0"",""0""
""blur"",""0"",""0""
""focus"",""1"",""15398""
","""event"",""trial"",""time""
""blur"",""0"",""0""
","""event"",""trial"",""time""
""focus"",""0"",""0""
""focus"",""1"",""15398""
","
","
",NaN,audio/fish.mp3,NA,1,NA,NA,NA,NA,NA,NA,NA,NA,NA,NA,NA,NA,NA,NA,NA,NA,NA,NA,sub34
audio-button-response,4,25920,0.0-4.0,TRUE,TRUE,FALSE,TRUE,"""event"",""trial"",""time""
""focus"",""0"",""0""
""blur"",""0"",""0""
""focus"",""1"",""15398""
""fullscreenenter"",""5"",""30663""
","""event"",""trial"",""time""
""blur"",""0"",""0""
","""event"",""trial"",""time""
""focus"",""0"",""0""
""focus"",""1"",""15398""
","""event"",""trial"",""time""
""fullscreenenter"",""5"",""30663""
","
",NaN,audio/tiger.mp3,NA,4,NA,NA,NA,NA,NA,NA,NA,NA,NA,NA,NA,NA,NA,NA,NA,NA,NA,NA,sub34
fullscreen,5,31649,0.0-5.0,TRUE,TRUE,FALSE,TRUE,"""event"",""trial"",""time""
""focus"",""0"",""0""
""blur"",""0"",""0""
""focus"",""1"",""15398""
""fullscreenenter"",""5"",""30663""
","""event"",""trial"",""time""
""blur"",""0"",""0""
","""event"",""trial"",""time""
""focus"",""0"",""0""
""focus"",""1"",""15398""
","""event"",""trial"",""time""
""fullscreenenter"",""5"",""30663""
","
",NA,NA,NA,NA,TRUE,NA,NA,NA,NA,NA,NA,NA,NA,NA,NA,NA,NA,NA,NA,NA,NA,NA,sub34
d3-instructions,6,46529,0.0-6.0,TRUE,TRUE,FALSE,TRUE,"""event"",""trial"",""time""
""focus"",""0"",""0""
""blur"",""0"",""0""
""focus"",""1"",""15398""
""fullscreenenter"",""5"",""30663""
","""event"",""trial"",""time""
""blur"",""0"",""0""
","""event"",""trial"",""time""
""focus"",""0"",""0""
""focus"",""1"",""15398""
","""event"",""trial"",""time""
""fullscreenenter"",""5"",""30663""
","
",NA,NA,NA,NA,NA,NA,NA,NA,NA,NA,NA,NA,NA,NA,NA,NA,NA,NA,NA,NA,NA,NA,sub34
d3-instructions,7,56993,0.0-7.0,TRUE,TRUE,FALSE,TRUE,"""event"",""trial"",""time""
""focus"",""0"",""0""
""blur"",""0"",""0""
""focus"",""1"",""15398""
""fullscreenenter"",""5"",""30663""
","""event"",""trial"",""time""
""blur"",""0"",""0""
","""event"",""trial"",""time""
""focus"",""0"",""0""
""focus"",""1"",""15398""
","""event"",""trial"",""time""
""fullscreenenter"",""5"",""30663""
","
",NA,NA,NA,NA,NA,NA,NA,NA,NA,NA,NA,NA,NA,NA,NA,NA,NA,NA,NA,NA,NA,NA,sub34
d3-instructions,8,64518,0.0-8.0,TRUE,TRUE,FALSE,TRUE,"""event"",""trial"",""time""
""focus"",""0"",""0""
""blur"",""0"",""0""
""focus"",""1"",""15398""
""fullscreenenter"",""5"",""30663""
","""event"",""trial"",""time""
""blur"",""0"",""0""
","""event"",""trial"",""time""
""focus"",""0"",""0""
""focus"",""1"",""15398""
","""event"",""trial"",""time""
""fullscreenenter"",""5"",""30663""
","
",NA,NA,NA,NA,NA,NA,NA,NA,NA,NA,NA,NA,NA,NA,NA,NA,NA,NA,NA,NA,NA,NA,sub34
d3-instructions,9,75638,0.0-9.0,TRUE,TRUE,FALSE,TRUE,"""event"",""trial"",""time""
""focus"",""0"",""0""
""blur"",""0"",""0""
""focus"",""1"",""15398""
""fullscreenenter"",""5"",""30663""
","""event"",""trial"",""time""
""blur"",""0"",""0""
","""event"",""trial"",""time""
""focus"",""0"",""0""
""focus"",""1"",""15398""
","""event"",""trial"",""time""
""fullscreenenter"",""5"",""30663""
","
",NA,NA,NA,NA,NA,NA,NA,NA,NA,NA,NA,NA,NA,NA,NA,NA,NA,NA,NA,NA,NA,NA,sub34
d3-instructions,10,97535,0.0-10.0,TRUE,TRUE,FALSE,TRUE,"""event"",""trial"",""time""
""focus"",""0"",""0""
""blur"",""0"",""0""
""focus"",""1"",""15398""
""fullscreenenter"",""5"",""30663""
","""event"",""trial"",""time""
""blur"",""0"",""0""
","""event"",""trial"",""time""
""focus"",""0"",""0""
""focus"",""1"",""15398""
","""event"",""trial"",""time""
""fullscreenenter"",""5"",""30663""
","
",NA,NA,NA,NA,NA,NA,NA,NA,NA,NA,NA,NA,NA,NA,NA,NA,NA,NA,NA,NA,NA,NA,sub34
d3-animate-choice,11,100421,0.0-11.0,TRUE,TRUE,FALSE,TRUE,"""event"",""trial"",""time""
""focus"",""0"",""0""
""blur"",""0"",""0""
""focus"",""1"",""15398""
""fullscreenenter"",""5"",""30663""
","""event"",""trial"",""time""
""blur"",""0"",""0""
","""event"",""trial"",""time""
""focus"",""0"",""0""
""focus"",""1"",""15398""
","""event"",""trial"",""time""
""fullscreenenter"",""5"",""30663""
","
",872.73500000083,NA,49,NA,NA,3000,1,NA,NA,images/tutgreenplanet.jpg,images/tutalien1,images/tutalien2,null,images/tutalien2,NA,NA,practice,null,NA,NA,NA,NA,sub34
d3-animate-choice,12,103930,0.0-12.0,TRUE,TRUE,FALSE,TRUE,"""event"",""trial"",""time""
""focus"",""0"",""0""
""blur"",""0"",""0""
""focus"",""1"",""15398""
""fullscreenenter"",""5"",""30663""
","""event"",""trial"",""time""
""blur"",""0"",""0""
","""event"",""trial"",""time""
""focus"",""0"",""0""
""focus"",""1"",""15398""
","""event"",""trial"",""time""
""fullscreenenter"",""5"",""30663""
","
",1504.3149999983143,NA,48,NA,NA,3000,1,NA,NA,images/tutgreenplanet.jpg,images/tutalien1,images/tutalien2,null,images/tutalien1,NA,NA,practice,null,NA,NA,NA,NA,sub34
d3-animate-choice,13,106596,0.0-13.0,TRUE,TRUE,FALSE,TRUE,"""event"",""trial"",""time""
""focus"",""0"",""0""
""blur"",""0"",""0""
""focus"",""1"",""15398""
""fullscreenenter"",""5"",""30663""
","""event"",""trial"",""time""
""blur"",""0"",""0""
","""event"",""trial"",""time""
""focus"",""0"",""0""
""focus"",""1"",""15398""
","""event"",""trial"",""time""
""fullscreenenter"",""5"",""30663""
","
",654.210000000603,NA,49,NA,NA,3000,1,2023.0200000005425,48,images/tutgreenplanet.jpg,images/tutalien1,images/tutalien2,null,images/tutalien2,NA,NA,practice,null,NA,NA,NA,NA,sub34
d3-animate-choice,14,108866,0.0-14.0,TRUE,TRUE,FALSE,TRUE,"""event"",""trial"",""time""
""focus"",""0"",""0""
""blur"",""0"",""0""
""focus"",""1"",""15398""
""fullscreenenter"",""5"",""30663""
","""event"",""trial"",""time""
""blur"",""0"",""0""
","""event"",""trial"",""time""
""focus"",""0"",""0""
""focus"",""1"",""15398""
","""event"",""trial"",""time""
""fullscreenenter"",""5"",""30663""
","
",265.5699999995704,NA,48,NA,NA,3000,1,NA,NA,images/tutgreenplanet.jpg,images/tutalien1,images/tutalien2,null,images/tutalien1,NA,NA,practice,null,NA,NA,NA,NA,sub34
d3-instructions,15,116635,0.0-15.0,TRUE,TRUE,FALSE,TRUE,"""event"",""trial"",""time""
""focus"",""0"",""0""
""blur"",""0"",""0""
""focus"",""1"",""15398""
""fullscreenenter"",""5"",""30663""
","""event"",""trial"",""time""
""blur"",""0"",""0""
","""event"",""trial"",""time""
""focus"",""0"",""0""
""focus"",""1"",""15398""
","""event"",""trial"",""time""
""fullscreenenter"",""5"",""30663""
","
",NA,NA,NA,NA,NA,NA,NA,NA,NA,NA,NA,NA,NA,NA,NA,NA,NA,NA,NA,NA,NA,NA,sub34
d3-instructions,16,123462,0.0-16.0,TRUE,TRUE,FALSE,TRUE,"""event"",""trial"",""time""
""focus"",""0"",""0""
""blur"",""0"",""0""
""focus"",""1"",""15398""
""fullscreenenter"",""5"",""30663""
","""event"",""trial"",""time""
""blur"",""0"",""0""
","""event"",""trial"",""time""
""focus"",""0"",""0""
""focus"",""1"",""15398""
","""event"",""trial"",""time""
""fullscreenenter"",""5"",""30663""
","
",NA,NA,NA,NA,NA,NA,NA,NA,NA,NA,NA,NA,NA,NA,NA,NA,NA,NA,NA,NA,NA,NA,sub34
d3-instructions,17,131389,0.0-17.0,TRUE,TRUE,FALSE,TRUE,"""event"",""trial"",""time""
""focus"",""0"",""0""
""blur"",""0"",""0""
""focus"",""1"",""15398""
""fullscreenenter"",""5"",""30663""
","""event"",""trial"",""time""
""blur"",""0"",""0""
","""event"",""trial"",""time""
""focus"",""0"",""0""
""focus"",""1"",""15398""
","""event"",""trial"",""time""
""fullscreenenter"",""5"",""30663""
","
",NA,NA,NA,NA,NA,NA,NA,NA,NA,NA,NA,NA,NA,NA,NA,NA,NA,NA,NA,NA,NA,NA,sub34
d3-instructions,18,144483,0.0-18.0,TRUE,TRUE,FALSE,TRUE,"""event"",""trial"",""time""
""focus"",""0"",""0""
""blur"",""0"",""0""
""focus"",""1"",""15398""
""fullscreenenter"",""5"",""30663""
","""event"",""trial"",""time""
""blur"",""0"",""0""
","""event"",""trial"",""time""
""focus"",""0"",""0""
""focus"",""1"",""15398""
","""event"",""trial"",""time""
""fullscreenenter"",""5"",""30663""
","
",NA,NA,NA,NA,NA,NA,NA,NA,NA,NA,NA,NA,NA,NA,NA,NA,NA,NA,NA,NA,NA,NA,sub34
d3-instructions,19,158593,0.0-19.0,TRUE,TRUE,FALSE,TRUE,"""event"",""trial"",""time""
""focus"",""0"",""0""
""blur"",""0"",""0""
""focus"",""1"",""15398""
""fullscreenenter"",""5"",""30663""
","""event"",""trial"",""time""
""blur"",""0"",""0""
","""event"",""trial"",""time""
""focus"",""0"",""0""
""focus"",""1"",""15398""
","""event"",""trial"",""time""
""fullscreenenter"",""5"",""30663""
","
",NA,NA,NA,NA,NA,NA,NA,NA,NA,NA,NA,NA,NA,NA,NA,NA,NA,NA,NA,NA,NA,NA,sub34
d3-animate-choice,20,161589,0.0-20.0,TRUE,TRUE,FALSE,TRUE,"""event"",""trial"",""time""
""focus"",""0"",""0""
""blur"",""0"",""0""
""focus"",""1"",""15398""
""fullscreenenter"",""5"",""30663""
","""event"",""trial"",""time""
""blur"",""0"",""0""
","""event"",""trial"",""time""
""focus"",""0"",""0""
""focus"",""1"",""15398""
","""event"",""trial"",""time""
""fullscreenenter"",""5"",""30663""
","
",993.1500000020606,NA,49,NA,NA,3000,1,NA,NA,images/tutyellowplanet.jpg,null,images/tutalien3,null,images/tutalien3,images/t.png,NA,practice,null,NA,NA,NA,NA,sub34
d3-animate-choice,21,163949,0.0-21.0,TRUE,TRUE,FALSE,TRUE,"""event"",""trial"",""time""
""focus"",""0"",""0""
""blur"",""0"",""0""
""focus"",""1"",""15398""
""fullscreenenter"",""5"",""30663""
","""event"",""trial"",""time""
""blur"",""0"",""0""
","""event"",""trial"",""time""
""focus"",""0"",""0""
""focus"",""1"",""15398""
","""event"",""trial"",""time""
""fullscreenenter"",""5"",""30663""
","
",355.7599999985541,NA,49,NA,NA,3000,1,NA,NA,images/tutyellowplanet.jpg,null,images/tutalien3,null,images/tutalien3,images/t.png,NA,practice,null,NA,NA,NA,NA,sub34
d3-animate-choice,22,166187,0.0-22.0,TRUE,TRUE,FALSE,TRUE,"""event"",""trial"",""time""
""focus"",""0"",""0""
""blur"",""0"",""0""
""focus"",""1"",""15398""
""fullscreenenter"",""5"",""30663""
","""event"",""trial"",""time""
""blur"",""0"",""0""
","""event"",""trial"",""time""
""focus"",""0"",""0""
""focus"",""1"",""15398""
","""event"",""trial"",""time""
""fullscreenenter"",""5"",""30663""
","
",235.18500000136555,NA,49,NA,NA,3000,1,NA,NA,images/tutyellowplanet.jpg,null,images/tutalien3,null,images/tutalien3,images/t.png,NA,practice,null,NA,NA,NA,NA,sub34
d3-animate-choice,23,168527,0.0-23.0,TRUE,TRUE,FALSE,TRUE,"""event"",""trial"",""time""
""focus"",""0"",""0""
""blur"",""0"",""0""
""focus"",""1"",""15398""
""fullscreenenter"",""5"",""30663""
","""event"",""trial"",""time""
""blur"",""0"",""0""
","""event"",""trial"",""time""
""focus"",""0"",""0""
""focus"",""1"",""15398""
","""event"",""trial"",""time""
""fullscreenenter"",""5"",""30663""
","
",318.4400000027381,NA,49,NA,NA,3000,1,640.5650000015157,49,images/tutyellowplanet.jpg,null,images/tutalien3,null,images/tutalien3,images/t.png,NA,practice,null,NA,NA,NA,NA,sub34
d3-animate-choice,24,170842,0.0-24.0,TRUE,TRUE,FALSE,TRUE,"""event"",""trial"",""time""
""focus"",""0"",""0""
""blur"",""0"",""0""
""focus"",""1"",""15398""
""fullscreenenter"",""5"",""30663""
","""event"",""trial"",""time""
""blur"",""0"",""0""
","""event"",""trial"",""time""
""focus"",""0"",""0""
""focus"",""1"",""15398""
","""event"",""trial"",""time""
""fullscreenenter"",""5"",""30663""
","
",309.9350000011327,NA,49,NA,NA,3000,1,1872.0849999990605,49,images/tutyellowplanet.jpg,null,images/tutalien3,null,images/tutalien3,images/t.png,NA,practice,null,NA,NA,NA,NA,sub34
d3-animate-choice,25,173167,0.0-25.0,TRUE,TRUE,FALSE,TRUE,"""event"",""trial"",""time""
""focus"",""0"",""0""
""blur"",""0"",""0""
""focus"",""1"",""15398""
""fullscreenenter"",""5"",""30663""
","""event"",""trial"",""time""
""blur"",""0"",""0""
","""event"",""trial"",""time""
""focus"",""0"",""0""
""focus"",""1"",""15398""
","""event"",""trial"",""time""
""fullscreenenter"",""5"",""30663""
","
",304.2349999996077,NA,49,NA,NA,3000,1,NA,NA,images/tutyellowplanet.jpg,null,images/tutalien3,null,images/tutalien3,images/t.png,NA,practice,null,NA,NA,NA,NA,sub34
d3-animate-choice,26,175481,0.0-26.0,TRUE,TRUE,FALSE,TRUE,"""event"",""trial"",""time""
""focus"",""0"",""0""
""blur"",""0"",""0""
""focus"",""1"",""15398""
""fullscreenenter"",""5"",""30663""
","""event"",""trial"",""time""
""blur"",""0"",""0""
","""event"",""trial"",""time""
""focus"",""0"",""0""
""focus"",""1"",""15398""
","""event"",""trial"",""time""
""fullscreenenter"",""5"",""30663""
","
",303.3399999985704,NA,49,NA,NA,3000,1,NA,NA,images/tutyellowplanet.jpg,null,images/tutalien3,null,images/tutalien3,images/t.png,NA,practice,null,NA,NA,NA,NA,sub34
d3-animate-choice,27,177796,0.0-27.0,TRUE,TRUE,FALSE,TRUE,"""event"",""trial"",""time""
""focus"",""0"",""0""
""blur"",""0"",""0""
""focus"",""1"",""15398""
""fullscreenenter"",""5"",""30663""
","""event"",""trial"",""time""
""blur"",""0"",""0""
","""event"",""trial"",""time""
""focus"",""0"",""0""
""focus"",""1"",""15398""
","""event"",""trial"",""time""
""fullscreenenter"",""5"",""30663""
","
",306.27999999705935,NA,49,NA,NA,3000,1,NA,NA,images/tutyellowplanet.jpg,null,images/tutalien3,null,images/tutalien3,images/t.png,NA,practice,null,NA,NA,NA,NA,sub34
d3-animate-choice,28,180038,0.0-28.0,TRUE,TRUE,FALSE,TRUE,"""event"",""trial"",""time""
""focus"",""0"",""0""
""blur"",""0"",""0""
""focus"",""1"",""15398""
""fullscreenenter"",""5"",""30663""
","""event"",""trial"",""time""
""blur"",""0"",""0""
","""event"",""trial"",""time""
""focus"",""0"",""0""
""focus"",""1"",""15398""
","""event"",""trial"",""time""
""fullscreenenter"",""5"",""30663""
","
",237.68999999811058,NA,49,NA,NA,3000,1,NA,NA,images/tutyellowplanet.jpg,null,images/tutalien3,null,images/tutalien3,images/nothing.png,NA,practice,null,NA,NA,NA,NA,sub34
d3-animate-choice,29,182660,0.0-29.0,TRUE,TRUE,FALSE,TRUE,"""event"",""trial"",""time""
""focus"",""0"",""0""
""blur"",""0"",""0""
""focus"",""1"",""15398""
""fullscreenenter"",""5"",""30663""
","""event"",""trial"",""time""
""blur"",""0"",""0""
","""event"",""trial"",""time""
""focus"",""0"",""0""
""focus"",""1"",""15398""
","""event"",""trial"",""time""
""fullscreenenter"",""5"",""30663""
","
",620.3150000001187,NA,49,NA,NA,3000,1,NA,NA,images/tutyellowplanet.jpg,null,images/tutalien3,null,images/tutalien3,images/t.png,NA,practice,null,NA,NA,NA,NA,sub34
d3-instructions,30,188859,0.0-30.0,TRUE,TRUE,FALSE,TRUE,"""event"",""trial"",""time""
""focus"",""0"",""0""
""blur"",""0"",""0""
""focus"",""1"",""15398""
""fullscreenenter"",""5"",""30663""
","""event"",""trial"",""time""
""blur"",""0"",""0""
","""event"",""trial"",""time""
""focus"",""0"",""0""
""focus"",""1"",""15398""
","""event"",""trial"",""time""
""fullscreenenter"",""5"",""30663""
","
",NA,NA,NA,NA,NA,NA,NA,NA,NA,NA,NA,NA,NA,NA,NA,NA,NA,NA,NA,NA,NA,NA,sub34
d3-instructions,31,198769,0.0-31.0,TRUE,TRUE,FALSE,TRUE,"""event"",""trial"",""time""
""focus"",""0"",""0""
""blur"",""0"",""0""
""focus"",""1"",""15398""
""fullscreenenter"",""5"",""30663""
","""event"",""trial"",""time""
""blur"",""0"",""0""
","""event"",""trial"",""time""
""focus"",""0"",""0""
""focus"",""1"",""15398""
","""event"",""trial"",""time""
""fullscreenenter"",""5"",""30663""
","
",NA,NA,NA,NA,NA,NA,NA,NA,NA,NA,NA,NA,NA,NA,NA,NA,NA,NA,NA,NA,NA,NA,sub34
d3-instructions,32,207521,0.0-32.0,TRUE,TRUE,FALSE,TRUE,"""event"",""trial"",""time""
""focus"",""0"",""0""
""blur"",""0"",""0""
""focus"",""1"",""15398""
""fullscreenenter"",""5"",""30663""
","""event"",""trial"",""time""
""blur"",""0"",""0""
","""event"",""trial"",""time""
""focus"",""0"",""0""
""focus"",""1"",""15398""
","""event"",""trial"",""time""
""fullscreenenter"",""5"",""30663""
","
",NA,NA,NA,NA,NA,NA,NA,NA,NA,NA,NA,NA,NA,NA,NA,NA,NA,NA,NA,NA,NA,NA,sub34
d3-instructions,33,218437,0.0-33.0,TRUE,TRUE,FALSE,TRUE,"""event"",""trial"",""time""
""focus"",""0"",""0""
""blur"",""0"",""0""
""focus"",""1"",""15398""
""fullscreenenter"",""5"",""30663""
","""event"",""trial"",""time""
""blur"",""0"",""0""
","""event"",""trial"",""time""
""focus"",""0"",""0""
""focus"",""1"",""15398""
","""event"",""trial"",""time""
""fullscreenenter"",""5"",""30663""
","
",NA,NA,NA,NA,NA,NA,NA,NA,NA,NA,NA,NA,NA,NA,NA,NA,NA,NA,NA,NA,NA,NA,sub34
d3-animate-choice,34,221423,0.0-34.0,TRUE,TRUE,FALSE,TRUE,"""event"",""trial"",""time""
""focus"",""0"",""0""
""blur"",""0"",""0""
""focus"",""1"",""15398""
""fullscreenenter"",""5"",""30663""
","""event"",""trial"",""time""
""blur"",""0"",""0""
","""event"",""trial"",""time""
""focus"",""0"",""0""
""focus"",""1"",""15398""
","""event"",""trial"",""time""
""fullscreenenter"",""5"",""30663""
","
",982.3649999998452,NA,49,NA,NA,3000,1,NA,NA,images/tutgreenplanet.jpg,images/tutalien1,images/tutalien2,null,images/tutalien2,images/t.png,NA,practice,null,NA,NA,NA,NA,sub34
d3-animate-choice,35,225135,0.0-35.0,TRUE,TRUE,FALSE,TRUE,"""event"",""trial"",""time""
""focus"",""0"",""0""
""blur"",""0"",""0""
""focus"",""1"",""15398""
""fullscreenenter"",""5"",""30663""
","""event"",""trial"",""time""
""blur"",""0"",""0""
","""event"",""trial"",""time""
""focus"",""0"",""0""
""focus"",""1"",""15398""
","""event"",""trial"",""time""
""fullscreenenter"",""5"",""30663""
","
",1687.100000002829,NA,48,NA,NA,3000,1,NA,NA,images/tutgreenplanet.jpg,images/tutalien1,images/tutalien2,null,images/tutalien1,images/nothing.png,NA,practice,null,NA,NA,NA,NA,sub34
d3-animate-choice,36,227692,0.0-36.0,TRUE,TRUE,FALSE,TRUE,"""event"",""trial"",""time""
""focus"",""0"",""0""
""blur"",""0"",""0""
""focus"",""1"",""15398""
""fullscreenenter"",""5"",""30663""
","""event"",""trial"",""time""
""blur"",""0"",""0""
","""event"",""trial"",""time""
""focus"",""0"",""0""
""focus"",""1"",""15398""
","""event"",""trial"",""time""
""fullscreenenter"",""5"",""30663""
","
",553.4350000016275,NA,49,NA,NA,3000,1,NA,NA,images/tutgreenplanet.jpg,images/tutalien1,images/tutalien2,null,images/tutalien2,images/t.png,NA,practice,null,NA,NA,NA,NA,sub34
d3-animate-choice,37,230299,0.0-37.0,TRUE,TRUE,FALSE,TRUE,"""event"",""trial"",""time""
""focus"",""0"",""0""
""blur"",""0"",""0""
""focus"",""1"",""15398""
""fullscreenenter"",""5"",""30663""
","""event"",""trial"",""time""
""blur"",""0"",""0""
","""event"",""trial"",""time""
""focus"",""0"",""0""
""focus"",""1"",""15398""
","""event"",""trial"",""time""
""fullscreenenter"",""5"",""30663""
","
",603.2200000009034,NA,49,NA,NA,3000,1,NA,NA,images/tutgreenplanet.jpg,images/tutalien1,images/tutalien2,null,images/tutalien2,images/t.png,NA,practice,null,NA,NA,NA,NA,sub34
d3-animate-choice,38,232858,0.0-38.0,TRUE,TRUE,FALSE,TRUE,"""event"",""trial"",""time""
""focus"",""0"",""0""
""blur"",""0"",""0""
""focus"",""1"",""15398""
""fullscreenenter"",""5"",""30663""
","""event"",""trial"",""time""
""blur"",""0"",""0""
","""event"",""trial"",""time""
""focus"",""0"",""0""
""focus"",""1"",""15398""
","""event"",""trial"",""time""
""fullscreenenter"",""5"",""30663""
","
",541.2900000009686,NA,49,NA,NA,3000,1,NA,NA,images/tutgreenplanet.jpg,images/tutalien1,images/tutalien2,null,images/tutalien2,images/t.png,NA,practice,null,NA,NA,NA,NA,sub34
d3-animate-choice,39,235140,0.0-39.0,TRUE,TRUE,FALSE,TRUE,"""event"",""trial"",""time""
""focus"",""0"",""0""
""blur"",""0"",""0""
""focus"",""1"",""15398""
""fullscreenenter"",""5"",""30663""
","""event"",""trial"",""time""
""blur"",""0"",""0""
","""event"",""trial"",""time""
""focus"",""0"",""0""
""focus"",""1"",""15398""
","""event"",""trial"",""time""
""fullscreenenter"",""5"",""30663""
","
",274.04999999998836,NA,48,NA,NA,3000,1,NA,NA,images/tutgreenplanet.jpg,images/tutalien1,images/tutalien2,null,images/tutalien1,images/t.png,NA,practice,null,NA,NA,NA,NA,sub34
d3-animate-choice,40,237615,0.0-40.0,TRUE,TRUE,FALSE,TRUE,"""event"",""trial"",""time""
""focus"",""0"",""0""
""blur"",""0"",""0""
""focus"",""1"",""15398""
""fullscreenenter"",""5"",""30663""
","""event"",""trial"",""time""
""blur"",""0"",""0""
","""event"",""trial"",""time""
""focus"",""0"",""0""
""focus"",""1"",""15398""
","""event"",""trial"",""time""
""fullscreenenter"",""5"",""30663""
","
",456.61500000278465,NA,48,NA,NA,3000,1,NA,NA,images/tutgreenplanet.jpg,images/tutalien1,images/tutalien2,null,images/tutalien1,images/nothing.png,NA,practice,null,NA,NA,NA,NA,sub34
d3-animate-choice,41,240032,0.0-41.0,TRUE,TRUE,FALSE,TRUE,"""event"",""trial"",""time""
""focus"",""0"",""0""
""blur"",""0"",""0""
""focus"",""1"",""15398""
""fullscreenenter"",""5"",""30663""
","""event"",""trial"",""time""
""blur"",""0"",""0""
","""event"",""trial"",""time""
""focus"",""0"",""0""
""focus"",""1"",""15398""
","""event"",""trial"",""time""
""fullscreenenter"",""5"",""30663""
","
",413.48999999900116,NA,48,NA,NA,3000,1,NA,NA,images/tutgreenplanet.jpg,images/tutalien1,images/tutalien2,null,images/tutalien1,images/t.png,NA,practice,null,NA,NA,NA,NA,sub34
d3-animate-choice,42,242465,0.0-42.0,TRUE,TRUE,FALSE,TRUE,"""event"",""trial"",""time""
""focus"",""0"",""0""
""blur"",""0"",""0""
""focus"",""1"",""15398""
""fullscreenenter"",""5"",""30663""
","""event"",""trial"",""time""
""blur"",""0"",""0""
","""event"",""trial"",""time""
""focus"",""0"",""0""
""focus"",""1"",""15398""
","""event"",""trial"",""time""
""fullscreenenter"",""5"",""30663""
","
",428.4350000016857,NA,49,NA,NA,3000,1,NA,NA,images/tutgreenplanet.jpg,images/tutalien1,images/tutalien2,null,images/tutalien2,images/nothing.png,NA,practice,null,NA,NA,NA,NA,sub34
d3-animate-choice,43,244858,0.0-43.0,TRUE,TRUE,FALSE,TRUE,"""event"",""trial"",""time""
""focus"",""0"",""0""
""blur"",""0"",""0""
""focus"",""1"",""15398""
""fullscreenenter"",""5"",""30663""
","""event"",""trial"",""time""
""blur"",""0"",""0""
","""event"",""trial"",""time""
""focus"",""0"",""0""
""focus"",""1"",""15398""
","""event"",""trial"",""time""
""fullscreenenter"",""5"",""30663""
","
",376.25500000285683,NA,49,NA,NA,3000,1,NA,NA,images/tutgreenplanet.jpg,images/tutalien1,images/tutalien2,null,images/tutalien2,images/t.png,NA,practice,null,NA,NA,NA,NA,sub34
d3-instructions,44,256710,0.0-44.0,TRUE,TRUE,FALSE,TRUE,"""event"",""trial"",""time""
""focus"",""0"",""0""
""blur"",""0"",""0""
""focus"",""1"",""15398""
""fullscreenenter"",""5"",""30663""
","""event"",""trial"",""time""
""blur"",""0"",""0""
","""event"",""trial"",""time""
""focus"",""0"",""0""
""focus"",""1"",""15398""
","""event"",""trial"",""time""
""fullscreenenter"",""5"",""30663""
","
",NA,NA,NA,NA,NA,NA,NA,NA,NA,NA,NA,NA,NA,NA,NA,NA,NA,NA,NA,NA,NA,NA,sub34
d3-instructions,45,262069,0.0-45.0,TRUE,TRUE,FALSE,TRUE,"""event"",""trial"",""time""
""focus"",""0"",""0""
""blur"",""0"",""0""
""focus"",""1"",""15398""
""fullscreenenter"",""5"",""30663""
","""event"",""trial"",""time""
""blur"",""0"",""0""
","""event"",""trial"",""time""
""focus"",""0"",""0""
""focus"",""1"",""15398""
","""event"",""trial"",""time""
""fullscreenenter"",""5"",""30663""
","
",NA,NA,NA,NA,NA,NA,NA,NA,NA,NA,NA,NA,NA,NA,NA,NA,NA,NA,NA,NA,NA,NA,sub34
d3-instructions,46,268024,0.0-46.0,TRUE,TRUE,FALSE,TRUE,"""event"",""trial"",""time""
""focus"",""0"",""0""
""blur"",""0"",""0""
""focus"",""1"",""15398""
""fullscreenenter"",""5"",""30663""
","""event"",""trial"",""time""
""blur"",""0"",""0""
","""event"",""trial"",""time""
""focus"",""0"",""0""
""focus"",""1"",""15398""
","""event"",""trial"",""time""
""fullscreenenter"",""5"",""30663""
","
",NA,NA,NA,NA,NA,NA,NA,NA,NA,NA,NA,NA,NA,NA,NA,NA,NA,NA,NA,NA,NA,NA,sub34
d3-instructions,47,284398,0.0-47.0,TRUE,TRUE,FALSE,TRUE,"""event"",""trial"",""time""
""focus"",""0"",""0""
""blur"",""0"",""0""
""focus"",""1"",""15398""
""fullscreenenter"",""5"",""30663""
","""event"",""trial"",""time""
""blur"",""0"",""0""
","""event"",""trial"",""time""
""focus"",""0"",""0""
""focus"",""1"",""15398""
","""event"",""trial"",""time""
""fullscreenenter"",""5"",""30663""
","
",NA,NA,NA,NA,NA,NA,NA,NA,NA,NA,NA,NA,NA,NA,NA,NA,NA,NA,NA,NA,NA,NA,sub34
d3-instructions,48,290806,0.0-48.0,TRUE,TRUE,FALSE,TRUE,"""event"",""trial"",""time""
""focus"",""0"",""0""
""blur"",""0"",""0""
""focus"",""1"",""15398""
""fullscreenenter"",""5"",""30663""
","""event"",""trial"",""time""
""blur"",""0"",""0""
","""event"",""trial"",""time""
""focus"",""0"",""0""
""focus"",""1"",""15398""
","""event"",""trial"",""time""
""fullscreenenter"",""5"",""30663""
","
",NA,NA,NA,NA,NA,NA,NA,NA,NA,NA,NA,NA,NA,NA,NA,NA,NA,NA,NA,NA,NA,NA,sub34
d3-instructions,49,301439,0.0-49.0,TRUE,TRUE,FALSE,TRUE,"""event"",""trial"",""time""
""focus"",""0"",""0""
""blur"",""0"",""0""
""focus"",""1"",""15398""
""fullscreenenter"",""5"",""30663""
","""event"",""trial"",""time""
""blur"",""0"",""0""
","""event"",""trial"",""time""
""focus"",""0"",""0""
""focus"",""1"",""15398""
","""event"",""trial"",""time""
""fullscreenenter"",""5"",""30663""
","
",NA,NA,NA,NA,NA,NA,NA,NA,NA,NA,NA,NA,NA,NA,NA,NA,NA,NA,NA,NA,NA,NA,sub34
d3-instructions,50,310212,0.0-50.0,TRUE,TRUE,FALSE,TRUE,"""event"",""trial"",""time""
""focus"",""0"",""0""
""blur"",""0"",""0""
""focus"",""1"",""15398""
""fullscreenenter"",""5"",""30663""
","""event"",""trial"",""time""
""blur"",""0"",""0""
","""event"",""trial"",""time""
""focus"",""0"",""0""
""focus"",""1"",""15398""
","""event"",""trial"",""time""
""fullscreenenter"",""5"",""30663""
","
",NA,NA,NA,NA,NA,NA,NA,NA,NA,NA,NA,NA,NA,NA,NA,NA,NA,NA,NA,NA,NA,NA,sub34
d3-instructions,51,312718,0.0-51.0,TRUE,TRUE,FALSE,TRUE,"""event"",""trial"",""time""
""focus"",""0"",""0""
""blur"",""0"",""0""
""focus"",""1"",""15398""
""fullscreenenter"",""5"",""30663""
","""event"",""trial"",""time""
""blur"",""0"",""0""
","""event"",""trial"",""time""
""focus"",""0"",""0""
""focus"",""1"",""15398""
","""event"",""trial"",""time""
""fullscreenenter"",""5"",""30663""
","
",NA,NA,NA,NA,NA,NA,NA,NA,NA,NA,NA,NA,NA,NA,NA,NA,NA,NA,NA,NA,NA,NA,sub34
d3-instructions,52,314883,0.0-52.0,TRUE,TRUE,FALSE,TRUE,"""event"",""trial"",""time""
""focus"",""0"",""0""
""blur"",""0"",""0""
""focus"",""1"",""15398""
""fullscreenenter"",""5"",""30663""
","""event"",""trial"",""time""
""blur"",""0"",""0""
","""event"",""trial"",""time""
""focus"",""0"",""0""
""focus"",""1"",""15398""
","""event"",""trial"",""time""
""fullscreenenter"",""5"",""30663""
","
",NA,NA,NA,NA,NA,NA,NA,NA,NA,NA,NA,NA,NA,NA,NA,NA,NA,NA,NA,NA,NA,NA,sub34
d3-instructions,53,326083,0.0-53.0,TRUE,TRUE,FALSE,TRUE,"""event"",""trial"",""time""
""focus"",""0"",""0""
""blur"",""0"",""0""
""focus"",""1"",""15398""
""fullscreenenter"",""5"",""30663""
","""event"",""trial"",""time""
""blur"",""0"",""0""
","""event"",""trial"",""time""
""focus"",""0"",""0""
""focus"",""1"",""15398""
","""event"",""trial"",""time""
""fullscreenenter"",""5"",""30663""
","
",NA,NA,NA,NA,NA,NA,NA,NA,NA,NA,NA,NA,NA,NA,NA,NA,NA,NA,NA,NA,NA,NA,sub34
d3-instructions,54,337667,0.0-54.0,TRUE,TRUE,FALSE,TRUE,"""event"",""trial"",""time""
""focus"",""0"",""0""
""blur"",""0"",""0""
""focus"",""1"",""15398""
""fullscreenenter"",""5"",""30663""
","""event"",""trial"",""time""
""blur"",""0"",""0""
","""event"",""trial"",""time""
""focus"",""0"",""0""
""focus"",""1"",""15398""
","""event"",""trial"",""time""
""fullscreenenter"",""5"",""30663""
","
",NA,NA,NA,NA,NA,NA,NA,NA,NA,NA,NA,NA,NA,NA,NA,NA,NA,NA,NA,NA,NA,NA,sub34
d3-instructions,55,347713,0.0-55.0,TRUE,TRUE,FALSE,TRUE,"""event"",""trial"",""time""
""focus"",""0"",""0""
""blur"",""0"",""0""
""focus"",""1"",""15398""
""fullscreenenter"",""5"",""30663""
","""event"",""trial"",""time""
""blur"",""0"",""0""
","""event"",""trial"",""time""
""focus"",""0"",""0""
""focus"",""1"",""15398""
","""event"",""trial"",""time""
""fullscreenenter"",""5"",""30663""
","
",NA,NA,NA,NA,NA,NA,NA,NA,NA,NA,NA,NA,NA,NA,NA,NA,NA,NA,NA,NA,NA,NA,sub34
d3-instructions,56,356239,0.0-56.0,TRUE,TRUE,FALSE,TRUE,"""event"",""trial"",""time""
""focus"",""0"",""0""
""blur"",""0"",""0""
""focus"",""1"",""15398""
""fullscreenenter"",""5"",""30663""
","""event"",""trial"",""time""
""blur"",""0"",""0""
","""event"",""trial"",""time""
""focus"",""0"",""0""
""focus"",""1"",""15398""
","""event"",""trial"",""time""
""fullscreenenter"",""5"",""30663""
","
",NA,NA,NA,NA,NA,NA,NA,NA,NA,NA,NA,NA,NA,NA,NA,NA,NA,NA,NA,NA,NA,NA,sub34
d3-instructions,57,365612,0.0-57.0,TRUE,TRUE,FALSE,TRUE,"""event"",""trial"",""time""
""focus"",""0"",""0""
""blur"",""0"",""0""
""focus"",""1"",""15398""
""fullscreenenter"",""5"",""30663""
","""event"",""trial"",""time""
""blur"",""0"",""0""
","""event"",""trial"",""time""
""focus"",""0"",""0""
""focus"",""1"",""15398""
","""event"",""trial"",""time""
""fullscreenenter"",""5"",""30663""
","
",NA,NA,NA,NA,NA,NA,NA,NA,NA,NA,NA,NA,NA,NA,NA,NA,NA,NA,NA,NA,NA,NA,sub34
d3-instructions,58,375026,0.0-58.0,TRUE,TRUE,FALSE,TRUE,"""event"",""trial"",""time""
""focus"",""0"",""0""
""blur"",""0"",""0""
""focus"",""1"",""15398""
""fullscreenenter"",""5"",""30663""
","""event"",""trial"",""time""
""blur"",""0"",""0""
","""event"",""trial"",""time""
""focus"",""0"",""0""
""focus"",""1"",""15398""
","""event"",""trial"",""time""
""fullscreenenter"",""5"",""30663""
","
",NA,NA,NA,NA,NA,NA,NA,NA,NA,NA,NA,NA,NA,NA,NA,NA,NA,NA,NA,NA,NA,NA,sub34
d3-instructions,59,379141,0.0-59.0,TRUE,TRUE,FALSE,TRUE,"""event"",""trial"",""time""
""focus"",""0"",""0""
""blur"",""0"",""0""
""focus"",""1"",""15398""
""fullscreenenter"",""5"",""30663""
","""event"",""trial"",""time""
""blur"",""0"",""0""
","""event"",""trial"",""time""
""focus"",""0"",""0""
""focus"",""1"",""15398""
","""event"",""trial"",""time""
""fullscreenenter"",""5"",""30663""
","
",NA,NA,NA,NA,NA,NA,NA,NA,NA,NA,NA,NA,NA,NA,NA,NA,NA,NA,NA,NA,NA,NA,sub34
d3-instructions,60,385164,0.0-60.0,TRUE,TRUE,FALSE,TRUE,"""event"",""trial"",""time""
""focus"",""0"",""0""
""blur"",""0"",""0""
""focus"",""1"",""15398""
""fullscreenenter"",""5"",""30663""
","""event"",""trial"",""time""
""blur"",""0"",""0""
","""event"",""trial"",""time""
""focus"",""0"",""0""
""focus"",""1"",""15398""
","""event"",""trial"",""time""
""fullscreenenter"",""5"",""30663""
","
",NA,NA,NA,NA,NA,NA,NA,NA,NA,NA,NA,NA,NA,NA,NA,NA,NA,NA,NA,NA,NA,NA,sub34
d3-animate-choice,61,388072,0.0-61.0-0.0,TRUE,TRUE,FALSE,TRUE,"""event"",""trial"",""time""
""focus"",""0"",""0""
""blur"",""0"",""0""
""focus"",""1"",""15398""
""fullscreenenter"",""5"",""30663""
","""event"",""trial"",""time""
""blur"",""0"",""0""
","""event"",""trial"",""time""
""focus"",""0"",""0""
""focus"",""1"",""15398""
","""event"",""trial"",""time""
""fullscreenenter"",""5"",""30663""
","
",890.4399999992456,NA,49,NA,NA,3000,1,NA,NA,images/earth.jpg,images/tutrocket1,images/tutrocket2,null,images/tutrocket2,NA,1,practice,null,1,NA,NA,NA,sub34
d3-animate-choice,62,391364,0.0-61.0-1.0,TRUE,TRUE,FALSE,TRUE,"""event"",""trial"",""time""
""focus"",""0"",""0""
""blur"",""0"",""0""
""focus"",""1"",""15398""
""fullscreenenter"",""5"",""30663""
","""event"",""trial"",""time""
""blur"",""0"",""0""
","""event"",""trial"",""time""
""focus"",""0"",""0""
""focus"",""1"",""15398""
","""event"",""trial"",""time""
""fullscreenenter"",""5"",""30663""
","
",1269.4249999985914,NA,49,NA,NA,3000,1,NA,NA,images/tutyellowplanet.jpg,images/tutalien4,images/tutalien3,images/tutrocket2,images/tutalien3,images/t.png,2,practice,true,1,common,1,2020-06-10T21:14:43Z,sub34
two-step-fixation,63,392388,0.0-61.0-2.0,TRUE,TRUE,FALSE,TRUE,"""event"",""trial"",""time""
""focus"",""0"",""0""
""blur"",""0"",""0""
""focus"",""1"",""15398""
""fullscreenenter"",""5"",""30663""
","""event"",""trial"",""time""
""blur"",""0"",""0""
","""event"",""trial"",""time""
""focus"",""0"",""0""
""focus"",""1"",""15398""
","""event"",""trial"",""time""
""fullscreenenter"",""5"",""30663""
","
",NA,images/earth.jpg,NA,NA,NA,NA,NA,NA,NA,NA,NA,NA,NA,NA,NA,fixation,NA,NA,NA,NA,NA,NA,sub34
d3-animate-choice,64,395503,0.0-61.0-0.1,TRUE,TRUE,FALSE,TRUE,"""event"",""trial"",""time""
""focus"",""0"",""0""
""blur"",""0"",""0""
""focus"",""1"",""15398""
""fullscreenenter"",""5"",""30663""
","""event"",""trial"",""time""
""blur"",""0"",""0""
","""event"",""trial"",""time""
""focus"",""0"",""0""
""focus"",""1"",""15398""
","""event"",""trial"",""time""
""fullscreenenter"",""5"",""30663""
","
",1093.8050000004005,NA,49,NA,NA,3000,1,NA,NA,images/earth.jpg,images/tutrocket1,images/tutrocket2,null,images/tutrocket2,NA,1,practice,null,1,NA,NA,NA,sub34
d3-animate-choice,65,398487,0.0-61.0-1.1,TRUE,TRUE,FALSE,TRUE,"""event"",""trial"",""time""
""focus"",""0"",""0""
""blur"",""0"",""0""
""focus"",""1"",""15398""
""fullscreenenter"",""5"",""30663""
","""event"",""trial"",""time""
""blur"",""0"",""0""
","""event"",""trial"",""time""
""focus"",""0"",""0""
""focus"",""1"",""15398""
","""event"",""trial"",""time""
""fullscreenenter"",""5"",""30663""
","
",965.2300000016112,NA,49,NA,NA,3000,1,NA,NA,images/tutyellowplanet.jpg,images/tutalien4,images/tutalien3,images/tutrocket2,images/tutalien3,images/nothing.png,2,practice,true,1,common,0,2020-06-10T21:14:50Z,sub34
two-step-fixation,66,399492,0.0-61.0-2.1,TRUE,TRUE,FALSE,TRUE,"""event"",""trial"",""time""
""focus"",""0"",""0""
""blur"",""0"",""0""
""focus"",""1"",""15398""
""fullscreenenter"",""5"",""30663""
","""event"",""trial"",""time""
""blur"",""0"",""0""
","""event"",""trial"",""time""
""focus"",""0"",""0""
""focus"",""1"",""15398""
","""event"",""trial"",""time""
""fullscreenenter"",""5"",""30663""
","
",NA,images/earth.jpg,NA,NA,NA,NA,NA,NA,NA,NA,NA,NA,NA,NA,NA,fixation,NA,NA,NA,NA,NA,NA,sub34
d3-animate-choice,67,402222,0.0-61.0-0.2,TRUE,TRUE,FALSE,TRUE,"""event"",""trial"",""time""
""focus"",""0"",""0""
""blur"",""0"",""0""
""focus"",""1"",""15398""
""fullscreenenter"",""5"",""30663""
","""event"",""trial"",""time""
""blur"",""0"",""0""
","""event"",""trial"",""time""
""focus"",""0"",""0""
""focus"",""1"",""15398""
","""event"",""trial"",""time""
""fullscreenenter"",""5"",""30663""
","
",706.0100000016973,NA,49,NA,NA,3000,1,NA,NA,images/earth.jpg,images/tutrocket1,images/tutrocket2,null,images/tutrocket2,NA,1,practice,null,1,NA,NA,NA,sub34
d3-animate-choice,68,406226,0.0-61.0-1.2,TRUE,TRUE,FALSE,TRUE,"""event"",""trial"",""time""
""focus"",""0"",""0""
""blur"",""0"",""0""
""focus"",""1"",""15398""
""fullscreenenter"",""5"",""30663""
","""event"",""trial"",""time""
""blur"",""0"",""0""
","""event"",""trial"",""time""
""focus"",""0"",""0""
""focus"",""1"",""15398""
","""event"",""trial"",""time""
""fullscreenenter"",""5"",""30663""
","
",2395.0299999996787,NA,48,NA,NA,3000,1,NA,NA,images/tutgreenplanet.jpg,images/tutalien2,images/tutalien1,images/tutrocket2,images/tutalien2,images/nothing.png,2,practice,false,2,rare,0,2020-06-10T21:14:58Z,sub34
two-step-fixation,69,407230,0.0-61.0-2.2,TRUE,TRUE,FALSE,TRUE,"""event"",""trial"",""time""
""focus"",""0"",""0""
""blur"",""0"",""0""
""focus"",""1"",""15398""
""fullscreenenter"",""5"",""30663""
","""event"",""trial"",""time""
""blur"",""0"",""0""
","""event"",""trial"",""time""
""focus"",""0"",""0""
""focus"",""1"",""15398""
","""event"",""trial"",""time""
""fullscreenenter"",""5"",""30663""
","
",NA,images/earth.jpg,NA,NA,NA,NA,NA,NA,NA,NA,NA,NA,NA,NA,NA,fixation,NA,NA,NA,NA,NA,NA,sub34
d3-animate-choice,70,410574,0.0-61.0-0.3,TRUE,TRUE,FALSE,TRUE,"""event"",""trial"",""time""
""focus"",""0"",""0""
""blur"",""0"",""0""
""focus"",""1"",""15398""
""fullscreenenter"",""5"",""30663""
","""event"",""trial"",""time""
""blur"",""0"",""0""
","""event"",""trial"",""time""
""focus"",""0"",""0""
""focus"",""1"",""15398""
","""event"",""trial"",""time""
""fullscreenenter"",""5"",""30663""
","
",1318.830000000191,NA,48,NA,NA,3000,1,NA,NA,images/earth.jpg,images/tutrocket1,images/tutrocket2,null,images/tutrocket1,NA,1,practice,null,2,NA,NA,NA,sub34
d3-animate-choice,71,413762,0.0-61.0-1.3,TRUE,TRUE,FALSE,TRUE,"""event"",""trial"",""time""
""focus"",""0"",""0""
""blur"",""0"",""0""
""focus"",""1"",""15398""
""fullscreenenter"",""5"",""30663""
","""event"",""trial"",""time""
""blur"",""0"",""0""
","""event"",""trial"",""time""
""focus"",""0"",""0""
""focus"",""1"",""15398""
","""event"",""trial"",""time""
""fullscreenenter"",""5"",""30663""
","
",1183.7499999965075,NA,49,NA,NA,3000,1,NA,NA,images/tutyellowplanet.jpg,images/tutalien4,images/tutalien3,images/tutrocket1,images/tutalien3,images/nothing.png,2,practice,false,1,rare,0,2020-06-10T21:15:05Z,sub34
two-step-fixation,72,414767,0.0-61.0-2.3,TRUE,TRUE,FALSE,TRUE,"""event"",""trial"",""time""
""focus"",""0"",""0""
""blur"",""0"",""0""
""focus"",""1"",""15398""
""fullscreenenter"",""5"",""30663""
","""event"",""trial"",""time""
""blur"",""0"",""0""
","""event"",""trial"",""time""
""focus"",""0"",""0""
""focus"",""1"",""15398""
","""event"",""trial"",""time""
""fullscreenenter"",""5"",""30663""
","
",NA,images/earth.jpg,NA,NA,NA,NA,NA,NA,NA,NA,NA,NA,NA,NA,NA,fixation,NA,NA,NA,NA,NA,NA,sub34
d3-animate-choice,73,417851,0.0-61.0-0.4,TRUE,TRUE,FALSE,TRUE,"""event"",""trial"",""time""
""focus"",""0"",""0""
""blur"",""0"",""0""
""focus"",""1"",""15398""
""fullscreenenter"",""5"",""30663""
","""event"",""trial"",""time""
""blur"",""0"",""0""
","""event"",""trial"",""time""
""focus"",""0"",""0""
""focus"",""1"",""15398""
","""event"",""trial"",""time""
""fullscreenenter"",""5"",""30663""
","
",1080.8199999992503,NA,49,NA,NA,3000,1,NA,NA,images/earth.jpg,images/tutrocket1,images/tutrocket2,null,images/tutrocket2,NA,1,practice,null,1,NA,NA,NA,sub34
d3-animate-choice,74,420771,0.0-61.0-1.4,TRUE,TRUE,FALSE,TRUE,"""event"",""trial"",""time""
""focus"",""0"",""0""
""blur"",""0"",""0""
""focus"",""1"",""15398""
""fullscreenenter"",""5"",""30663""
","""event"",""trial"",""time""
""blur"",""0"",""0""
","""event"",""trial"",""time""
""focus"",""0"",""0""
""focus"",""1"",""15398""
","""event"",""trial"",""time""
""fullscreenenter"",""5"",""30663""
","
",914.725000002305,NA,48,NA,NA,3000,1,NA,NA,images/tutyellowplanet.jpg,images/tutalien4,images/tutalien3,images/tutrocket2,images/tutalien4,images/t.png,2,practice,true,2,common,1,2020-06-10T21:15:12Z,sub34
two-step-fixation,75,421776,0.0-61.0-2.4,TRUE,TRUE,FALSE,TRUE,"""event"",""trial"",""time""
""focus"",""0"",""0""
""blur"",""0"",""0""
""focus"",""1"",""15398""
""fullscreenenter"",""5"",""30663""
","""event"",""trial"",""time""
""blur"",""0"",""0""
","""event"",""trial"",""time""
""focus"",""0"",""0""
""focus"",""1"",""15398""
","""event"",""trial"",""time""
""fullscreenenter"",""5"",""30663""
","
",NA,images/earth.jpg,NA,NA,NA,NA,NA,NA,NA,NA,NA,NA,NA,NA,NA,fixation,NA,NA,NA,NA,NA,NA,sub34
d3-animate-choice,76,424901,0.0-61.0-0.5,TRUE,TRUE,FALSE,TRUE,"""event"",""trial"",""time""
""focus"",""0"",""0""
""blur"",""0"",""0""
""focus"",""1"",""15398""
""fullscreenenter"",""5"",""30663""
","""event"",""trial"",""time""
""blur"",""0"",""0""
","""event"",""trial"",""time""
""focus"",""0"",""0""
""focus"",""1"",""15398""
","""event"",""trial"",""time""
""fullscreenenter"",""5"",""30663""
","
",1122.2600000000675,NA,48,NA,NA,3000,1,NA,NA,images/earth.jpg,images/tutrocket1,images/tutrocket2,null,images/tutrocket1,NA,1,practice,null,2,NA,NA,NA,sub34
d3-animate-choice,77,428608,0.0-61.0-1.5,TRUE,TRUE,FALSE,TRUE,"""event"",""trial"",""time""
""focus"",""0"",""0""
""blur"",""0"",""0""
""focus"",""1"",""15398""
""fullscreenenter"",""5"",""30663""
","""event"",""trial"",""time""
""blur"",""0"",""0""
","""event"",""trial"",""time""
""focus"",""0"",""0""
""focus"",""1"",""15398""
","""event"",""trial"",""time""
""fullscreenenter"",""5"",""30663""
","
",1702.399999998277,NA,49,NA,NA,3000,1,NA,NA,images/tutgreenplanet.jpg,images/tutalien2,images/tutalien1,images/tutrocket1,images/tutalien1,images/nothing.png,2,practice,true,1,common,0,2020-06-10T21:15:20Z,sub34
two-step-fixation,78,429612,0.0-61.0-2.5,TRUE,TRUE,FALSE,TRUE,"""event"",""trial"",""time""
""focus"",""0"",""0""
""blur"",""0"",""0""
""focus"",""1"",""15398""
""fullscreenenter"",""5"",""30663""
","""event"",""trial"",""time""
""blur"",""0"",""0""
","""event"",""trial"",""time""
""focus"",""0"",""0""
""focus"",""1"",""15398""
","""event"",""trial"",""time""
""fullscreenenter"",""5"",""30663""
","
",NA,images/earth.jpg,NA,NA,NA,NA,NA,NA,NA,NA,NA,NA,NA,NA,NA,fixation,NA,NA,NA,NA,NA,NA,sub34
d3-animate-choice,79,432442,0.0-61.0-0.6,TRUE,TRUE,FALSE,TRUE,"""event"",""trial"",""time""
""focus"",""0"",""0""
""blur"",""0"",""0""
""focus"",""1"",""15398""
""fullscreenenter"",""5"",""30663""
","""event"",""trial"",""time""
""blur"",""0"",""0""
","""event"",""trial"",""time""
""focus"",""0"",""0""
""focus"",""1"",""15398""
","""event"",""trial"",""time""
""fullscreenenter"",""5"",""30663""
","
",826.2199999990407,NA,48,NA,NA,3000,1,NA,NA,images/earth.jpg,images/tutrocket1,images/tutrocket2,null,images/tutrocket1,NA,1,practice,null,2,NA,NA,NA,sub34
d3-animate-choice,80,435454,0.0-61.0-1.6,TRUE,TRUE,FALSE,TRUE,"""event"",""trial"",""time""
""focus"",""0"",""0""
""blur"",""0"",""0""
""focus"",""1"",""15398""
""fullscreenenter"",""5"",""30663""
","""event"",""trial"",""time""
""blur"",""0"",""0""
","""event"",""trial"",""time""
""focus"",""0"",""0""
""focus"",""1"",""15398""
","""event"",""trial"",""time""
""fullscreenenter"",""5"",""30663""
","
",1007.9450000012293,NA,48,NA,NA,3000,1,NA,NA,images/tutyellowplanet.jpg,images/tutalien4,images/tutalien3,images/tutrocket1,images/tutalien4,images/nothing.png,2,practice,false,2,rare,0,2020-06-10T21:15:27Z,sub34
two-step-fixation,81,436458,0.0-61.0-2.6,TRUE,TRUE,FALSE,TRUE,"""event"",""trial"",""time""
""focus"",""0"",""0""
""blur"",""0"",""0""
""focus"",""1"",""15398""
""fullscreenenter"",""5"",""30663""
","""event"",""trial"",""time""
""blur"",""0"",""0""
","""event"",""trial"",""time""
""focus"",""0"",""0""
""focus"",""1"",""15398""
","""event"",""trial"",""time""
""fullscreenenter"",""5"",""30663""
","
",NA,images/earth.jpg,NA,NA,NA,NA,NA,NA,NA,NA,NA,NA,NA,NA,NA,fixation,NA,NA,NA,NA,NA,NA,sub34
d3-animate-choice,82,439296,0.0-61.0-0.7,TRUE,TRUE,FALSE,TRUE,"""event"",""trial"",""time""
""focus"",""0"",""0""
""blur"",""0"",""0""
""focus"",""1"",""15398""
""fullscreenenter"",""5"",""30663""
","""event"",""trial"",""time""
""blur"",""0"",""0""
","""event"",""trial"",""time""
""focus"",""0"",""0""
""focus"",""1"",""15398""
","""event"",""trial"",""time""
""fullscreenenter"",""5"",""30663""
","
",832.6150000030175,NA,48,NA,NA,3000,1,NA,NA,images/earth.jpg,images/tutrocket1,images/tutrocket2,null,images/tutrocket1,NA,1,practice,null,2,NA,NA,NA,sub34
d3-animate-choice,83,442129,0.0-61.0-1.7,TRUE,TRUE,FALSE,TRUE,"""event"",""trial"",""time""
""focus"",""0"",""0""
""blur"",""0"",""0""
""focus"",""1"",""15398""
""fullscreenenter"",""5"",""30663""
","""event"",""trial"",""time""
""blur"",""0"",""0""
","""event"",""trial"",""time""
""focus"",""0"",""0""
""focus"",""1"",""15398""
","""event"",""trial"",""time""
""fullscreenenter"",""5"",""30663""
","
",829.8799999975599,NA,48,NA,NA,3000,1,NA,NA,images/tutgreenplanet.jpg,images/tutalien2,images/tutalien1,images/tutrocket1,images/tutalien2,images/t.png,2,practice,true,2,common,1,2020-06-10T21:15:34Z,sub34
two-step-fixation,84,443134,0.0-61.0-2.7,TRUE,TRUE,FALSE,TRUE,"""event"",""trial"",""time""
""focus"",""0"",""0""
""blur"",""0"",""0""
""focus"",""1"",""15398""
""fullscreenenter"",""5"",""30663""
","""event"",""trial"",""time""
""blur"",""0"",""0""
","""event"",""trial"",""time""
""focus"",""0"",""0""
""focus"",""1"",""15398""
","""event"",""trial"",""time""
""fullscreenenter"",""5"",""30663""
","
",NA,images/earth.jpg,NA,NA,NA,NA,NA,NA,NA,NA,NA,NA,NA,NA,NA,fixation,NA,NA,NA,NA,NA,NA,sub34
d3-animate-choice,85,445742,0.0-61.0-0.8,TRUE,TRUE,FALSE,TRUE,"""event"",""trial"",""time""
""focus"",""0"",""0""
""blur"",""0"",""0""
""focus"",""1"",""15398""
""fullscreenenter"",""5"",""30663""
","""event"",""trial"",""time""
""blur"",""0"",""0""
","""event"",""trial"",""time""
""focus"",""0"",""0""
""focus"",""1"",""15398""
","""event"",""trial"",""time""
""fullscreenenter"",""5"",""30663""
","
",602.4950000028475,NA,48,NA,NA,3000,1,NA,NA,images/earth.jpg,images/tutrocket1,images/tutrocket2,null,images/tutrocket1,NA,1,practice,null,2,NA,NA,NA,sub34
d3-animate-choice,86,448516,0.0-61.0-1.8,TRUE,TRUE,FALSE,TRUE,"""event"",""trial"",""time""
""focus"",""0"",""0""
""blur"",""0"",""0""
""focus"",""1"",""15398""
""fullscreenenter"",""5"",""30663""
","""event"",""trial"",""time""
""blur"",""0"",""0""
","""event"",""trial"",""time""
""focus"",""0"",""0""
""focus"",""1"",""15398""
","""event"",""trial"",""time""
""fullscreenenter"",""5"",""30663""
","
",770.5900000000838,NA,48,NA,NA,3000,1,NA,NA,images/tutgreenplanet.jpg,images/tutalien2,images/tutalien1,images/tutrocket1,images/tutalien2,images/t.png,2,practice,true,2,common,1,2020-06-10T21:15:40Z,sub34
two-step-fixation,87,449521,0.0-61.0-2.8,TRUE,TRUE,FALSE,TRUE,"""event"",""trial"",""time""
""focus"",""0"",""0""
""blur"",""0"",""0""
""focus"",""1"",""15398""
""fullscreenenter"",""5"",""30663""
","""event"",""trial"",""time""
""blur"",""0"",""0""
","""event"",""trial"",""time""
""focus"",""0"",""0""
""focus"",""1"",""15398""
","""event"",""trial"",""time""
""fullscreenenter"",""5"",""30663""
","
",NA,images/earth.jpg,NA,NA,NA,NA,NA,NA,NA,NA,NA,NA,NA,NA,NA,fixation,NA,NA,NA,NA,NA,NA,sub34
d3-animate-choice,88,452238,0.0-61.0-0.9,TRUE,TRUE,FALSE,TRUE,"""event"",""trial"",""time""
""focus"",""0"",""0""
""blur"",""0"",""0""
""focus"",""1"",""15398""
""fullscreenenter"",""5"",""30663""
","""event"",""trial"",""time""
""blur"",""0"",""0""
","""event"",""trial"",""time""
""focus"",""0"",""0""
""focus"",""1"",""15398""
","""event"",""trial"",""time""
""fullscreenenter"",""5"",""30663""
","
",711.8499999997439,NA,48,NA,NA,3000,1,NA,NA,images/earth.jpg,images/tutrocket1,images/tutrocket2,null,images/tutrocket1,NA,1,practice,null,2,NA,NA,NA,sub34
d3-animate-choice,89,455633,0.0-61.0-1.9,TRUE,TRUE,FALSE,TRUE,"""event"",""trial"",""time""
""focus"",""0"",""0""
""blur"",""0"",""0""
""focus"",""1"",""15398""
""fullscreenenter"",""5"",""30663""
","""event"",""trial"",""time""
""blur"",""0"",""0""
","""event"",""trial"",""time""
""focus"",""0"",""0""
""focus"",""1"",""15398""
","""event"",""trial"",""time""
""fullscreenenter"",""5"",""30663""
","
",1391.4800000020768,NA,48,NA,NA,3000,1,NA,NA,images/tutyellowplanet.jpg,images/tutalien4,images/tutalien3,images/tutrocket1,images/tutalien4,images/nothing.png,2,practice,false,2,rare,0,2020-06-10T21:15:47Z,sub34
two-step-fixation,90,456636,0.0-61.0-2.9,TRUE,TRUE,FALSE,TRUE,"""event"",""trial"",""time""
""focus"",""0"",""0""
""blur"",""0"",""0""
""focus"",""1"",""15398""
""fullscreenenter"",""5"",""30663""
","""event"",""trial"",""time""
""blur"",""0"",""0""
","""event"",""trial"",""time""
""focus"",""0"",""0""
""focus"",""1"",""15398""
","""event"",""trial"",""time""
""fullscreenenter"",""5"",""30663""
","
",NA,images/earth.jpg,NA,NA,NA,NA,NA,NA,NA,NA,NA,NA,NA,NA,NA,fixation,NA,NA,NA,NA,NA,NA,sub34
d3-animate-choice,91,459864,0.0-61.0-0.10,TRUE,TRUE,FALSE,TRUE,"""event"",""trial"",""time""
""focus"",""0"",""0""
""blur"",""0"",""0""
""focus"",""1"",""15398""
""fullscreenenter"",""5"",""30663""
","""event"",""trial"",""time""
""blur"",""0"",""0""
","""event"",""trial"",""time""
""focus"",""0"",""0""
""focus"",""1"",""15398""
","""event"",""trial"",""time""
""fullscreenenter"",""5"",""30663""
","
",1222.9449999977369,NA,49,NA,NA,3000,1,NA,NA,images/earth.jpg,images/tutrocket1,images/tutrocket2,null,images/tutrocket2,NA,1,practice,null,1,NA,NA,NA,sub34
d3-animate-choice,92,462803,0.0-61.0-1.10,TRUE,TRUE,FALSE,TRUE,"""event"",""trial"",""time""
""focus"",""0"",""0""
""blur"",""0"",""0""
""focus"",""1"",""15398""
""fullscreenenter"",""5"",""30663""
","""event"",""trial"",""time""
""blur"",""0"",""0""
","""event"",""trial"",""time""
""focus"",""0"",""0""
""focus"",""1"",""15398""
","""event"",""trial"",""time""
""fullscreenenter"",""5"",""30663""
","
",935.4600000005448,NA,49,NA,NA,3000,1,NA,NA,images/tutyellowplanet.jpg,images/tutalien4,images/tutalien3,images/tutrocket2,images/tutalien3,images/nothing.png,2,practice,true,1,common,0,2020-06-10T21:15:54Z,sub34
two-step-fixation,93,463809,0.0-61.0-2.10,TRUE,TRUE,FALSE,TRUE,"""event"",""trial"",""time""
""focus"",""0"",""0""
""blur"",""0"",""0""
""focus"",""1"",""15398""
""fullscreenenter"",""5"",""30663""
","""event"",""trial"",""time""
""blur"",""0"",""0""
","""event"",""trial"",""time""
""focus"",""0"",""0""
""focus"",""1"",""15398""
","""event"",""trial"",""time""
""fullscreenenter"",""5"",""30663""
","
",NA,images/earth.jpg,NA,NA,NA,NA,NA,NA,NA,NA,NA,NA,NA,NA,NA,fixation,NA,NA,NA,NA,NA,NA,sub34
d3-animate-choice,94,466557,0.0-61.0-0.11,TRUE,TRUE,FALSE,TRUE,"""event"",""trial"",""time""
""focus"",""0"",""0""
""blur"",""0"",""0""
""focus"",""1"",""15398""
""fullscreenenter"",""5"",""30663""
","""event"",""trial"",""time""
""blur"",""0"",""0""
","""event"",""trial"",""time""
""focus"",""0"",""0""
""focus"",""1"",""15398""
","""event"",""trial"",""time""
""fullscreenenter"",""5"",""30663""
","
",744.6950000012293,NA,49,NA,NA,3000,1,NA,NA,images/earth.jpg,images/tutrocket1,images/tutrocket2,null,images/tutrocket2,NA,1,practice,null,1,NA,NA,NA,sub34
d3-animate-choice,95,469792,0.0-61.0-1.11,TRUE,TRUE,FALSE,TRUE,"""event"",""trial"",""time""
""focus"",""0"",""0""
""blur"",""0"",""0""
""focus"",""1"",""15398""
""fullscreenenter"",""5"",""30663""
","""event"",""trial"",""time""
""blur"",""0"",""0""
","""event"",""trial"",""time""
""focus"",""0"",""0""
""focus"",""1"",""15398""
","""event"",""trial"",""time""
""fullscreenenter"",""5"",""30663""
","
",1231.1200000003446,NA,48,NA,NA,3000,1,NA,NA,images/tutgreenplanet.jpg,images/tutalien2,images/tutalien1,images/tutrocket2,images/tutalien2,images/nothing.png,2,practice,false,2,rare,0,2020-06-10T21:16:01Z,sub34
two-step-fixation,96,470798,0.0-61.0-2.11,TRUE,TRUE,FALSE,TRUE,"""event"",""trial"",""time""
""focus"",""0"",""0""
""blur"",""0"",""0""
""focus"",""1"",""15398""
""fullscreenenter"",""5"",""30663""
","""event"",""trial"",""time""
""blur"",""0"",""0""
","""event"",""trial"",""time""
""focus"",""0"",""0""
""focus"",""1"",""15398""
","""event"",""trial"",""time""
""fullscreenenter"",""5"",""30663""
","
",NA,images/earth.jpg,NA,NA,NA,NA,NA,NA,NA,NA,NA,NA,NA,NA,NA,fixation,NA,NA,NA,NA,NA,NA,sub34
d3-animate-choice,97,473259,0.0-61.0-0.12,TRUE,TRUE,FALSE,TRUE,"""event"",""trial"",""time""
""focus"",""0"",""0""
""blur"",""0"",""0""
""focus"",""1"",""15398""
""fullscreenenter"",""5"",""30663""
","""event"",""trial"",""time""
""blur"",""0"",""0""
","""event"",""trial"",""time""
""focus"",""0"",""0""
""focus"",""1"",""15398""
","""event"",""trial"",""time""
""fullscreenenter"",""5"",""30663""
","
",455.70999999833293,NA,49,NA,NA,3000,1,NA,NA,images/earth.jpg,images/tutrocket1,images/tutrocket2,null,images/tutrocket2,NA,1,practice,null,1,NA,NA,NA,sub34
d3-animate-choice,98,475901,0.0-61.0-1.12,TRUE,TRUE,FALSE,TRUE,"""event"",""trial"",""time""
""focus"",""0"",""0""
""blur"",""0"",""0""
""focus"",""1"",""15398""
""fullscreenenter"",""5"",""30663""
","""event"",""trial"",""time""
""blur"",""0"",""0""
","""event"",""trial"",""time""
""focus"",""0"",""0""
""focus"",""1"",""15398""
","""event"",""trial"",""time""
""fullscreenenter"",""5"",""30663""
","
",638.2350000021397,NA,49,NA,NA,3000,1,NA,NA,images/tutgreenplanet.jpg,images/tutalien2,images/tutalien1,images/tutrocket2,images/tutalien1,images/t.png,2,practice,false,1,rare,1,2020-06-10T21:16:08Z,sub34
two-step-fixation,99,476903,0.0-61.0-2.12,TRUE,TRUE,FALSE,TRUE,"""event"",""trial"",""time""
""focus"",""0"",""0""
""blur"",""0"",""0""
""focus"",""1"",""15398""
""fullscreenenter"",""5"",""30663""
","""event"",""trial"",""time""
""blur"",""0"",""0""
","""event"",""trial"",""time""
""focus"",""0"",""0""
""focus"",""1"",""15398""
","""event"",""trial"",""time""
""fullscreenenter"",""5"",""30663""
","
",NA,images/earth.jpg,NA,NA,NA,NA,NA,NA,NA,NA,NA,NA,NA,NA,NA,fixation,NA,NA,NA,NA,NA,NA,sub34
d3-animate-choice,100,479604,0.0-61.0-0.13,TRUE,TRUE,FALSE,TRUE,"""event"",""trial"",""time""
""focus"",""0"",""0""
""blur"",""0"",""0""
""focus"",""1"",""15398""
""fullscreenenter"",""5"",""30663""
","""event"",""trial"",""time""
""blur"",""0"",""0""
","""event"",""trial"",""time""
""focus"",""0"",""0""
""focus"",""1"",""15398""
","""event"",""trial"",""time""
""fullscreenenter"",""5"",""30663""
","
",696.3700000015087,NA,48,NA,NA,3000,1,NA,NA,images/earth.jpg,images/tutrocket1,images/tutrocket2,null,images/tutrocket1,NA,1,practice,null,2,NA,NA,NA,sub34
d3-animate-choice,101,483178,0.0-61.0-1.13,TRUE,TRUE,FALSE,TRUE,"""event"",""trial"",""time""
""focus"",""0"",""0""
""blur"",""0"",""0""
""focus"",""1"",""15398""
""fullscreenenter"",""5"",""30663""
","""event"",""trial"",""time""
""blur"",""0"",""0""
","""event"",""trial"",""time""
""focus"",""0"",""0""
""focus"",""1"",""15398""
","""event"",""trial"",""time""
""fullscreenenter"",""5"",""30663""
","
",1570.0849999993807,NA,49,NA,NA,3000,1,NA,NA,images/tutgreenplanet.jpg,images/tutalien2,images/tutalien1,images/tutrocket1,images/tutalien1,images/nothing.png,2,practice,true,1,common,0,2020-06-10T21:16:15Z,sub34
two-step-fixation,102,484183,0.0-61.0-2.13,TRUE,TRUE,FALSE,TRUE,"""event"",""trial"",""time""
""focus"",""0"",""0""
""blur"",""0"",""0""
""focus"",""1"",""15398""
""fullscreenenter"",""5"",""30663""
","""event"",""trial"",""time""
""blur"",""0"",""0""
","""event"",""trial"",""time""
""focus"",""0"",""0""
""focus"",""1"",""15398""
","""event"",""trial"",""time""
""fullscreenenter"",""5"",""30663""
","
",NA,images/earth.jpg,NA,NA,NA,NA,NA,NA,NA,NA,NA,NA,NA,NA,NA,fixation,NA,NA,NA,NA,NA,NA,sub34
d3-animate-choice,103,486829,0.0-61.0-0.14,TRUE,TRUE,FALSE,TRUE,"""event"",""trial"",""time""
""focus"",""0"",""0""
""blur"",""0"",""0""
""focus"",""1"",""15398""
""fullscreenenter"",""5"",""30663""
","""event"",""trial"",""time""
""blur"",""0"",""0""
","""event"",""trial"",""time""
""focus"",""0"",""0""
""focus"",""1"",""15398""
","""event"",""trial"",""time""
""fullscreenenter"",""5"",""30663""
","
",641.0900000010151,NA,48,NA,NA,3000,1,NA,NA,images/earth.jpg,images/tutrocket1,images/tutrocket2,null,images/tutrocket1,NA,1,practice,null,2,NA,NA,NA,sub34
d3-animate-choice,104,490108,0.0-61.0-1.14,TRUE,TRUE,FALSE,TRUE,"""event"",""trial"",""time""
""focus"",""0"",""0""
""blur"",""0"",""0""
""focus"",""1"",""15398""
""fullscreenenter"",""5"",""30663""
","""event"",""trial"",""time""
""blur"",""0"",""0""
","""event"",""trial"",""time""
""focus"",""0"",""0""
""focus"",""1"",""15398""
","""event"",""trial"",""time""
""fullscreenenter"",""5"",""30663""
","
",1275.1050000006799,NA,49,NA,NA,3000,1,NA,NA,images/tutyellowplanet.jpg,images/tutalien4,images/tutalien3,images/tutrocket1,images/tutalien3,images/nothing.png,2,practice,false,1,rare,0,2020-06-10T21:16:22Z,sub34
two-step-fixation,105,491113,0.0-61.0-2.14,TRUE,TRUE,FALSE,TRUE,"""event"",""trial"",""time""
""focus"",""0"",""0""
""blur"",""0"",""0""
""focus"",""1"",""15398""
""fullscreenenter"",""5"",""30663""
","""event"",""trial"",""time""
""blur"",""0"",""0""
","""event"",""trial"",""time""
""focus"",""0"",""0""
""focus"",""1"",""15398""
","""event"",""trial"",""time""
""fullscreenenter"",""5"",""30663""
","
",NA,images/earth.jpg,NA,NA,NA,NA,NA,NA,NA,NA,NA,NA,NA,NA,NA,fixation,NA,NA,NA,NA,NA,NA,sub34
d3-animate-choice,106,493820,0.0-61.0-0.15,TRUE,TRUE,FALSE,TRUE,"""event"",""trial"",""time""
""focus"",""0"",""0""
""blur"",""0"",""0""
""focus"",""1"",""15398""
""fullscreenenter"",""5"",""30663""
","""event"",""trial"",""time""
""blur"",""0"",""0""
","""event"",""trial"",""time""
""focus"",""0"",""0""
""focus"",""1"",""15398""
","""event"",""trial"",""time""
""fullscreenenter"",""5"",""30663""
","
",703.3300000003073,NA,49,NA,NA,3000,1,NA,NA,images/earth.jpg,images/tutrocket1,images/tutrocket2,null,images/tutrocket2,NA,1,practice,null,1,NA,NA,NA,sub34
d3-animate-choice,107,497264,0.0-61.0-1.15,TRUE,TRUE,FALSE,TRUE,"""event"",""trial"",""time""
""focus"",""0"",""0""
""blur"",""0"",""0""
""focus"",""1"",""15398""
""fullscreenenter"",""5"",""30663""
","""event"",""trial"",""time""
""blur"",""0"",""0""
","""event"",""trial"",""time""
""focus"",""0"",""0""
""focus"",""1"",""15398""
","""event"",""trial"",""time""
""fullscreenenter"",""5"",""30663""
","
",1439.9799999991665,NA,48,NA,NA,3000,1,NA,NA,images/tutgreenplanet.jpg,images/tutalien2,images/tutalien1,images/tutrocket2,images/tutalien2,images/nothing.png,2,practice,false,2,rare,0,2020-06-10T21:16:29Z,sub34
two-step-fixation,108,498268,0.0-61.0-2.15,TRUE,TRUE,FALSE,TRUE,"""event"",""trial"",""time""
""focus"",""0"",""0""
""blur"",""0"",""0""
""focus"",""1"",""15398""
""fullscreenenter"",""5"",""30663""
","""event"",""trial"",""time""
""blur"",""0"",""0""
","""event"",""trial"",""time""
""focus"",""0"",""0""
""focus"",""1"",""15398""
","""event"",""trial"",""time""
""fullscreenenter"",""5"",""30663""
","
",NA,images/earth.jpg,NA,NA,NA,NA,NA,NA,NA,NA,NA,NA,NA,NA,NA,fixation,NA,NA,NA,NA,NA,NA,sub34
d3-animate-choice,109,501025,0.0-61.0-0.16,TRUE,TRUE,FALSE,TRUE,"""event"",""trial"",""time""
""focus"",""0"",""0""
""blur"",""0"",""0""
""focus"",""1"",""15398""
""fullscreenenter"",""5"",""30663""
","""event"",""trial"",""time""
""blur"",""0"",""0""
","""event"",""trial"",""time""
""focus"",""0"",""0""
""focus"",""1"",""15398""
","""event"",""trial"",""time""
""fullscreenenter"",""5"",""30663""
","
",751.714999998454,NA,49,NA,NA,3000,1,NA,NA,images/earth.jpg,images/tutrocket1,images/tutrocket2,null,images/tutrocket2,NA,1,practice,null,1,NA,NA,NA,sub34
d3-animate-choice,110,504268,0.0-61.0-1.16,TRUE,TRUE,FALSE,TRUE,"""event"",""trial"",""time""
""focus"",""0"",""0""
""blur"",""0"",""0""
""focus"",""1"",""15398""
""fullscreenenter"",""5"",""30663""
","""event"",""trial"",""time""
""blur"",""0"",""0""
","""event"",""trial"",""time""
""focus"",""0"",""0""
""focus"",""1"",""15398""
","""event"",""trial"",""time""
""fullscreenenter"",""5"",""30663""
","
",1238.320000000298,NA,49,NA,NA,3000,1,NA,NA,images/tutgreenplanet.jpg,images/tutalien2,images/tutalien1,images/tutrocket2,images/tutalien1,images/t.png,2,practice,false,1,rare,1,2020-06-10T21:16:36Z,sub34
two-step-fixation,111,505273,0.0-61.0-2.16,TRUE,TRUE,FALSE,TRUE,"""event"",""trial"",""time""
""focus"",""0"",""0""
""blur"",""0"",""0""
""focus"",""1"",""15398""
""fullscreenenter"",""5"",""30663""
","""event"",""trial"",""time""
""blur"",""0"",""0""
","""event"",""trial"",""time""
""focus"",""0"",""0""
""focus"",""1"",""15398""
","""event"",""trial"",""time""
""fullscreenenter"",""5"",""30663""
","
",NA,images/earth.jpg,NA,NA,NA,NA,NA,NA,NA,NA,NA,NA,NA,NA,NA,fixation,NA,NA,NA,NA,NA,NA,sub34
d3-animate-choice,112,507970,0.0-61.0-0.17,TRUE,TRUE,FALSE,TRUE,"""event"",""trial"",""time""
""focus"",""0"",""0""
""blur"",""0"",""0""
""focus"",""1"",""15398""
""fullscreenenter"",""5"",""30663""
","""event"",""trial"",""time""
""blur"",""0"",""0""
","""event"",""trial"",""time""
""focus"",""0"",""0""
""focus"",""1"",""15398""
","""event"",""trial"",""time""
""fullscreenenter"",""5"",""30663""
","
",692.7450000003446,NA,49,NA,NA,3000,1,NA,NA,images/earth.jpg,images/tutrocket1,images/tutrocket2,null,images/tutrocket2,NA,1,practice,null,1,NA,NA,NA,sub34
d3-animate-choice,113,511004,0.0-61.0-1.17,TRUE,TRUE,FALSE,TRUE,"""event"",""trial"",""time""
""focus"",""0"",""0""
""blur"",""0"",""0""
""focus"",""1"",""15398""
""fullscreenenter"",""5"",""30663""
","""event"",""trial"",""time""
""blur"",""0"",""0""
","""event"",""trial"",""time""
""focus"",""0"",""0""
""focus"",""1"",""15398""
","""event"",""trial"",""time""
""fullscreenenter"",""5"",""30663""
","
",1030.380000000121,NA,49,NA,NA,3000,1,NA,NA,images/tutyellowplanet.jpg,images/tutalien4,images/tutalien3,images/tutrocket2,images/tutalien3,images/t.png,2,practice,true,1,common,1,2020-06-10T21:16:43Z,sub34
two-step-fixation,114,512007,0.0-61.0-2.17,TRUE,TRUE,FALSE,TRUE,"""event"",""trial"",""time""
""focus"",""0"",""0""
""blur"",""0"",""0""
""focus"",""1"",""15398""
""fullscreenenter"",""5"",""30663""
","""event"",""trial"",""time""
""blur"",""0"",""0""
","""event"",""trial"",""time""
""focus"",""0"",""0""
""focus"",""1"",""15398""
","""event"",""trial"",""time""
""fullscreenenter"",""5"",""30663""
","
",NA,images/earth.jpg,NA,NA,NA,NA,NA,NA,NA,NA,NA,NA,NA,NA,NA,fixation,NA,NA,NA,NA,NA,NA,sub34
d3-animate-choice,115,514785,0.0-61.0-0.18,TRUE,TRUE,FALSE,TRUE,"""event"",""trial"",""time""
""focus"",""0"",""0""
""blur"",""0"",""0""
""focus"",""1"",""15398""
""fullscreenenter"",""5"",""30663""
","""event"",""trial"",""time""
""blur"",""0"",""0""
","""event"",""trial"",""time""
""focus"",""0"",""0""
""focus"",""1"",""15398""
","""event"",""trial"",""time""
""fullscreenenter"",""5"",""30663""
","
",771.9700000016019,NA,49,NA,NA,3000,1,NA,NA,images/earth.jpg,images/tutrocket1,images/tutrocket2,null,images/tutrocket2,NA,1,practice,null,1,NA,NA,NA,sub34
d3-animate-choice,116,517560,0.0-61.0-1.18,TRUE,TRUE,FALSE,TRUE,"""event"",""trial"",""time""
""focus"",""0"",""0""
""blur"",""0"",""0""
""focus"",""1"",""15398""
""fullscreenenter"",""5"",""30663""
","""event"",""trial"",""time""
""blur"",""0"",""0""
","""event"",""trial"",""time""
""focus"",""0"",""0""
""focus"",""1"",""15398""
","""event"",""trial"",""time""
""fullscreenenter"",""5"",""30663""
","
",770.4350000022678,NA,48,NA,NA,3000,1,NA,NA,images/tutyellowplanet.jpg,images/tutalien4,images/tutalien3,images/tutrocket2,images/tutalien4,images/nothing.png,2,practice,true,2,common,0,2020-06-10T21:16:49Z,sub34
two-step-fixation,117,518564,0.0-61.0-2.18,TRUE,TRUE,FALSE,TRUE,"""event"",""trial"",""time""
""focus"",""0"",""0""
""blur"",""0"",""0""
""focus"",""1"",""15398""
""fullscreenenter"",""5"",""30663""
","""event"",""trial"",""time""
""blur"",""0"",""0""
","""event"",""trial"",""time""
""focus"",""0"",""0""
""focus"",""1"",""15398""
","""event"",""trial"",""time""
""fullscreenenter"",""5"",""30663""
","
",NA,images/earth.jpg,NA,NA,NA,NA,NA,NA,NA,NA,NA,NA,NA,NA,NA,fixation,NA,NA,NA,NA,NA,NA,sub34
d3-animate-choice,118,521178,0.0-61.0-0.19,TRUE,TRUE,FALSE,TRUE,"""event"",""trial"",""time""
""focus"",""0"",""0""
""blur"",""0"",""0""
""focus"",""1"",""15398""
""fullscreenenter"",""5"",""30663""
","""event"",""trial"",""time""
""blur"",""0"",""0""
","""event"",""trial"",""time""
""focus"",""0"",""0""
""focus"",""1"",""15398""
","""event"",""trial"",""time""
""fullscreenenter"",""5"",""30663""
","
",610.7699999993201,NA,48,NA,NA,3000,1,NA,NA,images/earth.jpg,images/tutrocket1,images/tutrocket2,null,images/tutrocket1,NA,1,practice,null,2,NA,NA,NA,sub34
d3-animate-choice,119,523793,0.0-61.0-1.19,TRUE,TRUE,FALSE,TRUE,"""event"",""trial"",""time""
""focus"",""0"",""0""
""blur"",""0"",""0""
""focus"",""1"",""15398""
""fullscreenenter"",""5"",""30663""
","""event"",""trial"",""time""
""blur"",""0"",""0""
","""event"",""trial"",""time""
""focus"",""0"",""0""
""focus"",""1"",""15398""
","""event"",""trial"",""time""
""fullscreenenter"",""5"",""30663""
","
",611.9099999996834,NA,48,NA,NA,3000,1,NA,NA,images/tutgreenplanet.jpg,images/tutalien2,images/tutalien1,images/tutrocket1,images/tutalien2,images/t.png,2,practice,true,2,common,1,2020-06-10T21:16:55Z,sub34
two-step-fixation,120,524796,0.0-61.0-2.19,TRUE,TRUE,FALSE,TRUE,"""event"",""trial"",""time""
""focus"",""0"",""0""
""blur"",""0"",""0""
""focus"",""1"",""15398""
""fullscreenenter"",""5"",""30663""
","""event"",""trial"",""time""
""blur"",""0"",""0""
","""event"",""trial"",""time""
""focus"",""0"",""0""
""focus"",""1"",""15398""
","""event"",""trial"",""time""
""fullscreenenter"",""5"",""30663""
","
",NA,images/earth.jpg,NA,NA,NA,NA,NA,NA,NA,NA,NA,NA,NA,NA,NA,fixation,NA,NA,NA,NA,NA,NA,sub34
d3-instructions,121,531500,0.0-62.0,TRUE,TRUE,FALSE,TRUE,"""event"",""trial"",""time""
""focus"",""0"",""0""
""blur"",""0"",""0""
""focus"",""1"",""15398""
""fullscreenenter"",""5"",""30663""
","""event"",""trial"",""time""
""blur"",""0"",""0""
","""event"",""trial"",""time""
""focus"",""0"",""0""
""focus"",""1"",""15398""
","""event"",""trial"",""time""
""fullscreenenter"",""5"",""30663""
","
",NA,NA,NA,NA,NA,NA,NA,NA,NA,NA,NA,NA,NA,NA,NA,NA,NA,NA,NA,NA,NA,NA,sub34
audio-keyboard-response,122,536284,0.0-63.0,TRUE,TRUE,FALSE,TRUE,"""event"",""trial"",""time""
""focus"",""0"",""0""
""blur"",""0"",""0""
""focus"",""1"",""15398""
""fullscreenenter"",""5"",""30663""
","""event"",""trial"",""time""
""blur"",""0"",""0""
","""event"",""trial"",""time""
""focus"",""0"",""0""
""focus"",""1"",""15398""
","""event"",""trial"",""time""
""fullscreenenter"",""5"",""30663""
","
",4779,audio/instructions/treasure_feedback.wav,32,NA,NA,NA,NA,NA,NA,NA,NA,NA,NA,NA,NA,NA,NA,NA,NA,NA,NA,NA,sub34
d3-instructions,123,555401,0.0-64.0,TRUE,TRUE,FALSE,TRUE,"""event"",""trial"",""time""
""focus"",""0"",""0""
""blur"",""0"",""0""
""focus"",""1"",""15398""
""fullscreenenter"",""5"",""30663""
","""event"",""trial"",""time""
""blur"",""0"",""0""
","""event"",""trial"",""time""
""focus"",""0"",""0""
""focus"",""1"",""15398""
","""event"",""trial"",""time""
""fullscreenenter"",""5"",""30663""
","
",NA,NA,NA,NA,NA,NA,NA,NA,NA,NA,NA,NA,NA,NA,NA,NA,NA,NA,NA,NA,NA,NA,sub34
d3-instructions,124,569566,0.0-65.0,TRUE,TRUE,FALSE,TRUE,"""event"",""trial"",""time""
""focus"",""0"",""0""
""blur"",""0"",""0""
""focus"",""1"",""15398""
""fullscreenenter"",""5"",""30663""
","""event"",""trial"",""time""
""blur"",""0"",""0""
","""event"",""trial"",""time""
""focus"",""0"",""0""
""focus"",""1"",""15398""
","""event"",""trial"",""time""
""fullscreenenter"",""5"",""30663""
","
",NA,NA,NA,NA,NA,NA,NA,NA,NA,NA,NA,NA,NA,NA,NA,NA,NA,NA,NA,NA,NA,NA,sub34
d3-instructions,125,595908,0.0-66.0,TRUE,TRUE,FALSE,TRUE,"""event"",""trial"",""time""
""focus"",""0"",""0""
""blur"",""0"",""0""
""focus"",""1"",""15398""
""fullscreenenter"",""5"",""30663""
","""event"",""trial"",""time""
""blur"",""0"",""0""
","""event"",""trial"",""time""
""focus"",""0"",""0""
""focus"",""1"",""15398""
","""event"",""trial"",""time""
""fullscreenenter"",""5"",""30663""
","
",NA,NA,NA,NA,NA,NA,NA,NA,NA,NA,NA,NA,NA,NA,NA,NA,NA,NA,NA,NA,NA,NA,sub34
d3-instructions,126,616510,0.0-67.0,TRUE,TRUE,FALSE,TRUE,"""event"",""trial"",""time""
""focus"",""0"",""0""
""blur"",""0"",""0""
""focus"",""1"",""15398""
""fullscreenenter"",""5"",""30663""
","""event"",""trial"",""time""
""blur"",""0"",""0""
","""event"",""trial"",""time""
""focus"",""0"",""0""
""focus"",""1"",""15398""
","""event"",""trial"",""time""
""fullscreenenter"",""5"",""30663""
","
",NA,NA,NA,NA,NA,NA,NA,NA,NA,NA,NA,NA,NA,NA,NA,NA,NA,NA,NA,NA,NA,NA,sub34
d3-instructions,127,624632,0.0-68.0,TRUE,TRUE,FALSE,TRUE,"""event"",""trial"",""time""
""focus"",""0"",""0""
""blur"",""0"",""0""
""focus"",""1"",""15398""
""fullscreenenter"",""5"",""30663""
","""event"",""trial"",""time""
""blur"",""0"",""0""
","""event"",""trial"",""time""
""focus"",""0"",""0""
""focus"",""1"",""15398""
","""event"",""trial"",""time""
""fullscreenenter"",""5"",""30663""
","
",NA,NA,NA,NA,NA,NA,NA,NA,NA,NA,NA,NA,NA,NA,NA,NA,NA,NA,NA,NA,NA,NA,sub34
instructions-quiz,128,628997,0.0-69.0,TRUE,TRUE,FALSE,TRUE,"""event"",""trial"",""time""
""focus"",""0"",""0""
""blur"",""0"",""0""
""focus"",""1"",""15398""
""fullscreenenter"",""5"",""30663""
","""event"",""trial"",""time""
""blur"",""0"",""0""
","""event"",""trial"",""time""
""focus"",""0"",""0""
""focus"",""1"",""15398""
","""event"",""trial"",""time""
""fullscreenenter"",""5"",""30663""
","
",4364.039999996661,audio/quiz/Q1_Prompt.wav,NA,1,NA,NA,NA,NA,NA,NA,NA,NA,NA,NA,NA,NA,NA,NA,NA,NA,NA,NA,sub34
audio-keyboard-response,129,632070,0.0-70.0,TRUE,TRUE,FALSE,TRUE,"""event"",""trial"",""time""
""focus"",""0"",""0""
""blur"",""0"",""0""
""focus"",""1"",""15398""
""fullscreenenter"",""5"",""30663""
","""event"",""trial"",""time""
""blur"",""0"",""0""
","""event"",""trial"",""time""
""focus"",""0"",""0""
""focus"",""1"",""15398""
","""event"",""trial"",""time""
""fullscreenenter"",""5"",""30663""
","
",3072,audio/quiz/Q1_Correct.wav,32,NA,NA,NA,NA,NA,NA,NA,NA,NA,NA,NA,NA,NA,NA,NA,NA,NA,NA,NA,sub34
instructions-quiz,130,638647,0.0-71.0,TRUE,TRUE,FALSE,TRUE,"""event"",""trial"",""time""
""focus"",""0"",""0""
""blur"",""0"",""0""
""focus"",""1"",""15398""
""fullscreenenter"",""5"",""30663""
","""event"",""trial"",""time""
""blur"",""0"",""0""
","""event"",""trial"",""time""
""focus"",""0"",""0""
""focus"",""1"",""15398""
","""event"",""trial"",""time""
""fullscreenenter"",""5"",""30663""
","
",6575.349999999162,audio/quiz/Q2_Prompt.wav,NA,0,NA,NA,NA,NA,NA,NA,NA,NA,NA,NA,NA,NA,NA,NA,NA,NA,NA,NA,sub34
audio-keyboard-response,131,639579,0.0-72.0,TRUE,TRUE,FALSE,TRUE,"""event"",""trial"",""time""
""focus"",""0"",""0""
""blur"",""0"",""0""
""focus"",""1"",""15398""
""fullscreenenter"",""5"",""30663""
","""event"",""trial"",""time""
""blur"",""0"",""0""
","""event"",""trial"",""time""
""focus"",""0"",""0""
""focus"",""1"",""15398""
","""event"",""trial"",""time""
""fullscreenenter"",""5"",""30663""
","
",928,audio/quiz/Q2_Correct.wav,32,NA,NA,NA,NA,NA,NA,NA,NA,NA,NA,NA,NA,NA,NA,NA,NA,NA,NA,NA,sub34
instructions-quiz,132,643428,0.0-73.0,TRUE,TRUE,FALSE,TRUE,"""event"",""trial"",""time""
""focus"",""0"",""0""
""blur"",""0"",""0""
""focus"",""1"",""15398""
""fullscreenenter"",""5"",""30663""
","""event"",""trial"",""time""
""blur"",""0"",""0""
","""event"",""trial"",""time""
""focus"",""0"",""0""
""focus"",""1"",""15398""
","""event"",""trial"",""time""
""fullscreenenter"",""5"",""30663""
","
",3846.8150000008754,audio/quiz/Q3_Prompt.wav,NA,1,NA,NA,NA,NA,NA,NA,NA,NA,NA,NA,NA,NA,NA,NA,NA,NA,NA,NA,sub34
audio-keyboard-response,133,643619,0.0-74.0,TRUE,TRUE,FALSE,TRUE,"""event"",""trial"",""time""
""focus"",""0"",""0""
""blur"",""0"",""0""
""focus"",""1"",""15398""
""fullscreenenter"",""5"",""30663""
","""event"",""trial"",""time""
""blur"",""0"",""0""
","""event"",""trial"",""time""
""focus"",""0"",""0""
""focus"",""1"",""15398""
","""event"",""trial"",""time""
""fullscreenenter"",""5"",""30663""
","
",192,audio/quiz/Q3_Correct.wav,32,NA,NA,NA,NA,NA,NA,NA,NA,NA,NA,NA,NA,NA,NA,NA,NA,NA,NA,NA,sub34
d3-instructions,134,665338,0.0-75.0,TRUE,TRUE,FALSE,TRUE,"""event"",""trial"",""time""
""focus"",""0"",""0""
""blur"",""0"",""0""
""focus"",""1"",""15398""
""fullscreenenter"",""5"",""30663""
","""event"",""trial"",""time""
""blur"",""0"",""0""
","""event"",""trial"",""time""
""focus"",""0"",""0""
""focus"",""1"",""15398""
","""event"",""trial"",""time""
""fullscreenenter"",""5"",""30663""
","
",NA,NA,NA,NA,NA,NA,NA,NA,NA,NA,NA,NA,NA,NA,NA,NA,NA,NA,NA,NA,NA,NA,sub34
d3-animate-choice,135,669343,0.0-76.0-0.0,TRUE,TRUE,FALSE,TRUE,"""event"",""trial"",""time""
""focus"",""0"",""0""
""blur"",""0"",""0""
""focus"",""1"",""15398""
""fullscreenenter"",""5"",""30663""
","""event"",""trial"",""time""
""blur"",""0"",""0""
","""event"",""trial"",""time""
""focus"",""0"",""0""
""focus"",""1"",""15398""
","""event"",""trial"",""time""
""fullscreenenter"",""5"",""30663""
","
",null,NA,null,NA,NA,3000,0,NA,NA,images/earth.jpg,images/rocket2,images/rocket1,null,NA,NA,1,real,null,NA,NA,NA,NA,sub34
d3-animate-choice,136,670346,0.0-76.0-1.0,TRUE,TRUE,FALSE,TRUE,"""event"",""trial"",""time""
""focus"",""0"",""0""
""blur"",""0"",""0""
""focus"",""1"",""15398""
""fullscreenenter"",""5"",""30663""
","""event"",""trial"",""time""
""blur"",""0"",""0""
","""event"",""trial"",""time""
""focus"",""0"",""0""
""focus"",""1"",""15398""
","""event"",""trial"",""time""
""fullscreenenter"",""5"",""30663""
","
",null,NA,null,NA,NA,0,0,NA,NA,images/earth.jpg,images/rocket2,images/rocket1,null,NA,NA,2,real,null,NA,NA,0,2020-06-10T21:19:22Z,sub34
two-step-fixation,137,671348,0.0-76.0-2.0,TRUE,TRUE,FALSE,TRUE,"""event"",""trial"",""time""
""focus"",""0"",""0""
""blur"",""0"",""0""
""focus"",""1"",""15398""
""fullscreenenter"",""5"",""30663""
","""event"",""trial"",""time""
""blur"",""0"",""0""
","""event"",""trial"",""time""
""focus"",""0"",""0""
""focus"",""1"",""15398""
","""event"",""trial"",""time""
""fullscreenenter"",""5"",""30663""
","
",NA,images/earth.jpg,NA,NA,NA,NA,NA,NA,NA,NA,NA,NA,NA,NA,NA,fixation,NA,NA,NA,NA,NA,NA,sub34
d3-animate-choice,138,674031,0.0-76.0-0.1,TRUE,TRUE,FALSE,TRUE,"""event"",""trial"",""time""
""focus"",""0"",""0""
""blur"",""0"",""0""
""focus"",""1"",""15398""
""fullscreenenter"",""5"",""30663""
","""event"",""trial"",""time""
""blur"",""0"",""0""
","""event"",""trial"",""time""
""focus"",""0"",""0""
""focus"",""1"",""15398""
","""event"",""trial"",""time""
""fullscreenenter"",""5"",""30663""
","
",677.5149999994319,NA,48,NA,NA,3000,1,NA,NA,images/earth.jpg,images/rocket2,images/rocket1,null,images/rocket2,NA,1,real,null,2,NA,NA,NA,sub34
d3-animate-choice,139,677939,0.0-76.0-1.1,TRUE,TRUE,FALSE,TRUE,"""event"",""trial"",""time""
""focus"",""0"",""0""
""blur"",""0"",""0""
""focus"",""1"",""15398""
""fullscreenenter"",""5"",""30663""
","""event"",""trial"",""time""
""blur"",""0"",""0""
","""event"",""trial"",""time""
""focus"",""0"",""0""
""focus"",""1"",""15398""
","""event"",""trial"",""time""
""fullscreenenter"",""5"",""30663""
","
",1097.4649999989197,NA,50,NA,NA,3000,1,1904.1599999982864,49,images/purpleplanet.jpg,images/alien4,images/alien3,images/rocket2,images/alien3,images/nothing.png,2,real,true,NA,common,0,2020-06-10T21:19:30Z,sub34
two-step-fixation,140,678943,0.0-76.0-2.1,TRUE,TRUE,FALSE,TRUE,"""event"",""trial"",""time""
""focus"",""0"",""0""
""blur"",""0"",""0""
""focus"",""1"",""15398""
""fullscreenenter"",""5"",""30663""
","""event"",""trial"",""time""
""blur"",""0"",""0""
","""event"",""trial"",""time""
""focus"",""0"",""0""
""focus"",""1"",""15398""
","""event"",""trial"",""time""
""fullscreenenter"",""5"",""30663""
","
",NA,images/earth.jpg,NA,NA,NA,NA,NA,NA,NA,NA,NA,NA,NA,NA,NA,fixation,NA,NA,NA,NA,NA,NA,sub34
d3-animate-choice,141,681819,0.0-76.0-0.2,TRUE,TRUE,FALSE,TRUE,"""event"",""trial"",""time""
""focus"",""0"",""0""
""blur"",""0"",""0""
""focus"",""1"",""15398""
""fullscreenenter"",""5"",""30663""
","""event"",""trial"",""time""
""blur"",""0"",""0""
","""event"",""trial"",""time""
""focus"",""0"",""0""
""focus"",""1"",""15398""
","""event"",""trial"",""time""
""fullscreenenter"",""5"",""30663""
","
",874.020000002929,NA,49,NA,NA,3000,1,NA,NA,images/earth.jpg,images/rocket2,images/rocket1,null,images/rocket1,NA,1,real,null,1,NA,NA,NA,sub34
d3-animate-choice,142,684617,0.0-76.0-1.2,TRUE,TRUE,FALSE,TRUE,"""event"",""trial"",""time""
""focus"",""0"",""0""
""blur"",""0"",""0""
""focus"",""1"",""15398""
""fullscreenenter"",""5"",""30663""
","""event"",""trial"",""time""
""blur"",""0"",""0""
","""event"",""trial"",""time""
""focus"",""0"",""0""
""focus"",""1"",""15398""
","""event"",""trial"",""time""
""fullscreenenter"",""5"",""30663""
","
",792.864999999525,NA,49,NA,NA,3000,1,NA,NA,images/redplanet1.jpg,images/alien2,images/alien1,images/rocket1,images/alien1,images/nothing.png,2,real,true,1,common,0,2020-06-10T21:19:36Z,sub34
two-step-fixation,143,685620,0.0-76.0-2.2,TRUE,TRUE,FALSE,TRUE,"""event"",""trial"",""time""
""focus"",""0"",""0""
""blur"",""0"",""0""
""focus"",""1"",""15398""
""fullscreenenter"",""5"",""30663""
","""event"",""trial"",""time""
""blur"",""0"",""0""
","""event"",""trial"",""time""
""focus"",""0"",""0""
""focus"",""1"",""15398""
","""event"",""trial"",""time""
""fullscreenenter"",""5"",""30663""
","
",NA,images/earth.jpg,NA,NA,NA,NA,NA,NA,NA,NA,NA,NA,NA,NA,NA,fixation,NA,NA,NA,NA,NA,NA,sub34
d3-animate-choice,144,688338,0.0-76.0-0.3,TRUE,TRUE,FALSE,TRUE,"""event"",""trial"",""time""
""focus"",""0"",""0""
""blur"",""0"",""0""
""focus"",""1"",""15398""
""fullscreenenter"",""5"",""30663""
","""event"",""trial"",""time""
""blur"",""0"",""0""
","""event"",""trial"",""time""
""focus"",""0"",""0""
""focus"",""1"",""15398""
","""event"",""trial"",""time""
""fullscreenenter"",""5"",""30663""
","
",715.1649999978254,NA,49,NA,NA,3000,1,NA,NA,images/earth.jpg,images/rocket2,images/rocket1,null,images/rocket1,NA,1,real,null,1,NA,NA,NA,sub34
d3-animate-choice,145,691400,0.0-76.0-1.3,TRUE,TRUE,FALSE,TRUE,"""event"",""trial"",""time""
""focus"",""0"",""0""
""blur"",""0"",""0""
""focus"",""1"",""15398""
""fullscreenenter"",""5"",""30663""
","""event"",""trial"",""time""
""blur"",""0"",""0""
","""event"",""trial"",""time""
""focus"",""0"",""0""
""focus"",""1"",""15398""
","""event"",""trial"",""time""
""fullscreenenter"",""5"",""30663""
","
",1057.890000000014,NA,48,NA,NA,3000,1,NA,NA,images/redplanet1.jpg,images/alien2,images/alien1,images/rocket1,images/alien2,images/t.png,2,real,true,2,common,1,2020-06-10T21:19:43Z,sub34
two-step-fixation,146,692403,0.0-76.0-2.3,TRUE,TRUE,FALSE,TRUE,"""event"",""trial"",""time""
""focus"",""0"",""0""
""blur"",""0"",""0""
""focus"",""1"",""15398""
""fullscreenenter"",""5"",""30663""
","""event"",""trial"",""time""
""blur"",""0"",""0""
","""event"",""trial"",""time""
""focus"",""0"",""0""
""focus"",""1"",""15398""
","""event"",""trial"",""time""
""fullscreenenter"",""5"",""30663""
","
",NA,images/earth.jpg,NA,NA,NA,NA,NA,NA,NA,NA,NA,NA,NA,NA,NA,fixation,NA,NA,NA,NA,NA,NA,sub34
d3-animate-choice,147,695472,0.0-76.0-0.4,TRUE,TRUE,FALSE,TRUE,"""event"",""trial"",""time""
""focus"",""0"",""0""
""blur"",""0"",""0""
""focus"",""1"",""15398""
""fullscreenenter"",""5"",""30663""
","""event"",""trial"",""time""
""blur"",""0"",""0""
","""event"",""trial"",""time""
""focus"",""0"",""0""
""focus"",""1"",""15398""
","""event"",""trial"",""time""
""fullscreenenter"",""5"",""30663""
","
",1064.1950000026263,NA,48,NA,NA,3000,1,NA,NA,images/earth.jpg,images/rocket2,images/rocket1,null,images/rocket2,NA,1,real,null,2,NA,NA,NA,sub34
d3-animate-choice,148,698685,0.0-76.0-1.4,TRUE,TRUE,FALSE,TRUE,"""event"",""trial"",""time""
""focus"",""0"",""0""
""blur"",""0"",""0""
""focus"",""1"",""15398""
""fullscreenenter"",""5"",""30663""
","""event"",""trial"",""time""
""blur"",""0"",""0""
","""event"",""trial"",""time""
""focus"",""0"",""0""
""focus"",""1"",""15398""
","""event"",""trial"",""time""
""fullscreenenter"",""5"",""30663""
","
",1208.694999997504,NA,48,NA,NA,3000,1,NA,NA,images/redplanet1.jpg,images/alien2,images/alien1,images/rocket2,images/alien2,images/t.png,2,real,false,2,rare,1,2020-06-10T21:19:50Z,sub34
two-step-fixation,149,699689,0.0-76.0-2.4,TRUE,TRUE,FALSE,TRUE,"""event"",""trial"",""time""
""focus"",""0"",""0""
""blur"",""0"",""0""
""focus"",""1"",""15398""
""fullscreenenter"",""5"",""30663""
","""event"",""trial"",""time""
""blur"",""0"",""0""
","""event"",""trial"",""time""
""focus"",""0"",""0""
""focus"",""1"",""15398""
","""event"",""trial"",""time""
""fullscreenenter"",""5"",""30663""
","
",NA,images/earth.jpg,NA,NA,NA,NA,NA,NA,NA,NA,NA,NA,NA,NA,NA,fixation,NA,NA,NA,NA,NA,NA,sub34
d3-animate-choice,150,702600,0.0-76.0-0.5,TRUE,TRUE,FALSE,TRUE,"""event"",""trial"",""time""
""focus"",""0"",""0""
""blur"",""0"",""0""
""focus"",""1"",""15398""
""fullscreenenter"",""5"",""30663""
","""event"",""trial"",""time""
""blur"",""0"",""0""
","""event"",""trial"",""time""
""focus"",""0"",""0""
""focus"",""1"",""15398""
","""event"",""trial"",""time""
""fullscreenenter"",""5"",""30663""
","
",906.3800000003539,NA,48,NA,NA,3000,1,NA,NA,images/earth.jpg,images/rocket2,images/rocket1,null,images/rocket2,NA,1,real,null,2,NA,NA,NA,sub34
d3-animate-choice,151,705630,0.0-76.0-1.5,TRUE,TRUE,FALSE,TRUE,"""event"",""trial"",""time""
""focus"",""0"",""0""
""blur"",""0"",""0""
""focus"",""1"",""15398""
""fullscreenenter"",""5"",""30663""
","""event"",""trial"",""time""
""blur"",""0"",""0""
","""event"",""trial"",""time""
""focus"",""0"",""0""
""focus"",""1"",""15398""
","""event"",""trial"",""time""
""fullscreenenter"",""5"",""30663""
","
",1025.4549999991432,NA,48,NA,NA,3000,1,NA,NA,images/purpleplanet.jpg,images/alien4,images/alien3,images/rocket2,images/alien4,images/t.png,2,real,true,2,common,1,2020-06-10T21:19:57Z,sub34
two-step-fixation,152,706634,0.0-76.0-2.5,TRUE,TRUE,FALSE,TRUE,"""event"",""trial"",""time""
""focus"",""0"",""0""
""blur"",""0"",""0""
""focus"",""1"",""15398""
""fullscreenenter"",""5"",""30663""
","""event"",""trial"",""time""
""blur"",""0"",""0""
","""event"",""trial"",""time""
""focus"",""0"",""0""
""focus"",""1"",""15398""
","""event"",""trial"",""time""
""fullscreenenter"",""5"",""30663""
","
",NA,images/earth.jpg,NA,NA,NA,NA,NA,NA,NA,NA,NA,NA,NA,NA,NA,fixation,NA,NA,NA,NA,NA,NA,sub34
d3-animate-choice,153,709427,0.0-76.0-0.6,TRUE,TRUE,FALSE,TRUE,"""event"",""trial"",""time""
""focus"",""0"",""0""
""blur"",""0"",""0""
""focus"",""1"",""15398""
""fullscreenenter"",""5"",""30663""
","""event"",""trial"",""time""
""blur"",""0"",""0""
","""event"",""trial"",""time""
""focus"",""0"",""0""
""focus"",""1"",""15398""
","""event"",""trial"",""time""
""fullscreenenter"",""5"",""30663""
","
",789.5649999991292,NA,49,NA,NA,3000,1,NA,NA,images/earth.jpg,images/rocket2,images/rocket1,null,images/rocket1,NA,1,real,null,1,NA,NA,NA,sub34
d3-animate-choice,154,712042,0.0-76.0-1.6,TRUE,TRUE,FALSE,TRUE,"""event"",""trial"",""time""
""focus"",""0"",""0""
""blur"",""0"",""0""
""focus"",""1"",""15398""
""fullscreenenter"",""5"",""30663""
","""event"",""trial"",""time""
""blur"",""0"",""0""
","""event"",""trial"",""time""
""focus"",""0"",""0""
""focus"",""1"",""15398""
","""event"",""trial"",""time""
""fullscreenenter"",""5"",""30663""
","
",611.3850000001257,NA,48,NA,NA,3000,1,NA,NA,images/redplanet1.jpg,images/alien2,images/alien1,images/rocket1,images/alien2,images/nothing.png,2,real,true,2,common,0,2020-06-10T21:20:04Z,sub34
two-step-fixation,155,713045,0.0-76.0-2.6,TRUE,TRUE,FALSE,TRUE,"""event"",""trial"",""time""
""focus"",""0"",""0""
""blur"",""0"",""0""
""focus"",""1"",""15398""
""fullscreenenter"",""5"",""30663""
","""event"",""trial"",""time""
""blur"",""0"",""0""
","""event"",""trial"",""time""
""focus"",""0"",""0""
""focus"",""1"",""15398""
","""event"",""trial"",""time""
""fullscreenenter"",""5"",""30663""
","
",NA,images/earth.jpg,NA,NA,NA,NA,NA,NA,NA,NA,NA,NA,NA,NA,NA,fixation,NA,NA,NA,NA,NA,NA,sub34
d3-animate-choice,156,715609,0.0-76.0-0.7,TRUE,TRUE,FALSE,TRUE,"""event"",""trial"",""time""
""focus"",""0"",""0""
""blur"",""0"",""0""
""focus"",""1"",""15398""
""fullscreenenter"",""5"",""30663""
","""event"",""trial"",""time""
""blur"",""0"",""0""
","""event"",""trial"",""time""
""focus"",""0"",""0""
""focus"",""1"",""15398""
","""event"",""trial"",""time""
""fullscreenenter"",""5"",""30663""
","
",559.1050000003306,NA,49,NA,NA,3000,1,NA,NA,images/earth.jpg,images/rocket2,images/rocket1,null,images/rocket1,NA,1,real,null,1,NA,NA,NA,sub34
d3-animate-choice,157,719226,0.0-76.0-1.7,TRUE,TRUE,FALSE,TRUE,"""event"",""trial"",""time""
""focus"",""0"",""0""
""blur"",""0"",""0""
""focus"",""1"",""15398""
""fullscreenenter"",""5"",""30663""
","""event"",""trial"",""time""
""blur"",""0"",""0""
","""event"",""trial"",""time""
""focus"",""0"",""0""
""focus"",""1"",""15398""
","""event"",""trial"",""time""
""fullscreenenter"",""5"",""30663""
","
",1613.765000001993,NA,48,NA,NA,3000,1,NA,NA,images/purpleplanet.jpg,images/alien4,images/alien3,images/rocket1,images/alien4,images/nothing.png,2,real,false,2,rare,0,2020-06-10T21:20:11Z,sub34
two-step-fixation,158,720231,0.0-76.0-2.7,TRUE,TRUE,FALSE,TRUE,"""event"",""trial"",""time""
""focus"",""0"",""0""
""blur"",""0"",""0""
""focus"",""1"",""15398""
""fullscreenenter"",""5"",""30663""
","""event"",""trial"",""time""
""blur"",""0"",""0""
","""event"",""trial"",""time""
""focus"",""0"",""0""
""focus"",""1"",""15398""
","""event"",""trial"",""time""
""fullscreenenter"",""5"",""30663""
","
",NA,images/earth.jpg,NA,NA,NA,NA,NA,NA,NA,NA,NA,NA,NA,NA,NA,fixation,NA,NA,NA,NA,NA,NA,sub34
d3-animate-choice,159,723472,0.0-76.0-0.8,TRUE,TRUE,FALSE,TRUE,"""event"",""trial"",""time""
""focus"",""0"",""0""
""blur"",""0"",""0""
""focus"",""1"",""15398""
""fullscreenenter"",""5"",""30663""
","""event"",""trial"",""time""
""blur"",""0"",""0""
","""event"",""trial"",""time""
""focus"",""0"",""0""
""focus"",""1"",""15398""
","""event"",""trial"",""time""
""fullscreenenter"",""5"",""30663""
","
",1237.235000000568,NA,48,NA,NA,3000,1,NA,NA,images/earth.jpg,images/rocket2,images/rocket1,null,images/rocket2,NA,1,real,null,2,NA,NA,NA,sub34
d3-animate-choice,160,726838,0.0-76.0-1.8,TRUE,TRUE,FALSE,TRUE,"""event"",""trial"",""time""
""focus"",""0"",""0""
""blur"",""0"",""0""
""focus"",""1"",""15398""
""fullscreenenter"",""5"",""30663""
","""event"",""trial"",""time""
""blur"",""0"",""0""
","""event"",""trial"",""time""
""focus"",""0"",""0""
""focus"",""1"",""15398""
","""event"",""trial"",""time""
""fullscreenenter"",""5"",""30663""
","
",1361.1350000028033,NA,48,NA,NA,3000,1,NA,NA,images/redplanet1.jpg,images/alien2,images/alien1,images/rocket2,images/alien2,images/t.png,2,real,false,2,rare,1,2020-06-10T21:20:18Z,sub34
two-step-fixation,161,727843,0.0-76.0-2.8,TRUE,TRUE,FALSE,TRUE,"""event"",""trial"",""time""
""focus"",""0"",""0""
""blur"",""0"",""0""
""focus"",""1"",""15398""
""fullscreenenter"",""5"",""30663""
","""event"",""trial"",""time""
""blur"",""0"",""0""
","""event"",""trial"",""time""
""focus"",""0"",""0""
""focus"",""1"",""15398""
","""event"",""trial"",""time""
""fullscreenenter"",""5"",""30663""
","
",NA,images/earth.jpg,NA,NA,NA,NA,NA,NA,NA,NA,NA,NA,NA,NA,NA,fixation,NA,NA,NA,NA,NA,NA,sub34
d3-animate-choice,162,731207,0.0-76.0-0.9,TRUE,TRUE,FALSE,TRUE,"""event"",""trial"",""time""
""focus"",""0"",""0""
""blur"",""0"",""0""
""focus"",""1"",""15398""
""fullscreenenter"",""5"",""30663""
","""event"",""trial"",""time""
""blur"",""0"",""0""
","""event"",""trial"",""time""
""focus"",""0"",""0""
""focus"",""1"",""15398""
","""event"",""trial"",""time""
""fullscreenenter"",""5"",""30663""
","
",1359.2749999988591,NA,49,NA,NA,3000,1,NA,NA,images/earth.jpg,images/rocket2,images/rocket1,null,images/rocket1,NA,1,real,null,1,NA,NA,NA,sub34
d3-animate-choice,163,734327,0.0-76.0-1.9,TRUE,TRUE,FALSE,TRUE,"""event"",""trial"",""time""
""focus"",""0"",""0""
""blur"",""0"",""0""
""focus"",""1"",""15398""
""fullscreenenter"",""5"",""30663""
","""event"",""trial"",""time""
""blur"",""0"",""0""
","""event"",""trial"",""time""
""focus"",""0"",""0""
""focus"",""1"",""15398""
","""event"",""trial"",""time""
""fullscreenenter"",""5"",""30663""
","
",1116.4500000013504,NA,48,NA,NA,3000,1,NA,NA,images/redplanet1.jpg,images/alien2,images/alien1,images/rocket1,images/alien2,images/nothing.png,2,real,true,2,common,0,2020-06-10T21:20:26Z,sub34
two-step-fixation,164,735331,0.0-76.0-2.9,TRUE,TRUE,FALSE,TRUE,"""event"",""trial"",""time""
""focus"",""0"",""0""
""blur"",""0"",""0""
""focus"",""1"",""15398""
""fullscreenenter"",""5"",""30663""
","""event"",""trial"",""time""
""blur"",""0"",""0""
","""event"",""trial"",""time""
""focus"",""0"",""0""
""focus"",""1"",""15398""
","""event"",""trial"",""time""
""fullscreenenter"",""5"",""30663""
","
",NA,images/earth.jpg,NA,NA,NA,NA,NA,NA,NA,NA,NA,NA,NA,NA,NA,fixation,NA,NA,NA,NA,NA,NA,sub34
d3-animate-choice,165,737619,0.0-76.0-0.10,TRUE,TRUE,FALSE,TRUE,"""event"",""trial"",""time""
""focus"",""0"",""0""
""blur"",""0"",""0""
""focus"",""1"",""15398""
""fullscreenenter"",""5"",""30663""
","""event"",""trial"",""time""
""blur"",""0"",""0""
","""event"",""trial"",""time""
""focus"",""0"",""0""
""focus"",""1"",""15398""
","""event"",""trial"",""time""
""fullscreenenter"",""5"",""30663""
","
",283.8450000018347,NA,49,NA,NA,3000,1,NA,NA,images/earth.jpg,images/rocket2,images/rocket1,null,images/rocket1,NA,1,real,null,1,NA,NA,NA,sub34
d3-animate-choice,166,741125,0.0-76.0-1.10,TRUE,TRUE,FALSE,TRUE,"""event"",""trial"",""time""
""focus"",""0"",""0""
""blur"",""0"",""0""
""focus"",""1"",""15398""
""fullscreenenter"",""5"",""30663""
","""event"",""trial"",""time""
""blur"",""0"",""0""
","""event"",""trial"",""time""
""focus"",""0"",""0""
""focus"",""1"",""15398""
","""event"",""trial"",""time""
""fullscreenenter"",""5"",""30663""
","
",1502.3099999999395,NA,48,NA,NA,3000,1,NA,NA,images/redplanet1.jpg,images/alien2,images/alien1,images/rocket1,images/alien2,images/t.png,2,real,true,2,common,1,2020-06-10T21:20:33Z,sub34
two-step-fixation,167,742128,0.0-76.0-2.10,TRUE,TRUE,FALSE,TRUE,"""event"",""trial"",""time""
""focus"",""0"",""0""
""blur"",""0"",""0""
""focus"",""1"",""15398""
""fullscreenenter"",""5"",""30663""
","""event"",""trial"",""time""
""blur"",""0"",""0""
","""event"",""trial"",""time""
""focus"",""0"",""0""
""focus"",""1"",""15398""
","""event"",""trial"",""time""
""fullscreenenter"",""5"",""30663""
","
",NA,images/earth.jpg,NA,NA,NA,NA,NA,NA,NA,NA,NA,NA,NA,NA,NA,fixation,NA,NA,NA,NA,NA,NA,sub34
d3-animate-choice,168,744779,0.0-76.0-0.11,TRUE,TRUE,FALSE,TRUE,"""event"",""trial"",""time""
""focus"",""0"",""0""
""blur"",""0"",""0""
""focus"",""1"",""15398""
""fullscreenenter"",""5"",""30663""
","""event"",""trial"",""time""
""blur"",""0"",""0""
","""event"",""trial"",""time""
""focus"",""0"",""0""
""focus"",""1"",""15398""
","""event"",""trial"",""time""
""fullscreenenter"",""5"",""30663""
","
",647.3799999984913,NA,48,NA,NA,3000,1,NA,NA,images/earth.jpg,images/rocket2,images/rocket1,null,images/rocket2,NA,1,real,null,2,NA,NA,NA,sub34
d3-animate-choice,169,747804,0.0-76.0-1.11,TRUE,TRUE,FALSE,TRUE,"""event"",""trial"",""time""
""focus"",""0"",""0""
""blur"",""0"",""0""
""focus"",""1"",""15398""
""fullscreenenter"",""5"",""30663""
","""event"",""trial"",""time""
""blur"",""0"",""0""
","""event"",""trial"",""time""
""focus"",""0"",""0""
""focus"",""1"",""15398""
","""event"",""trial"",""time""
""fullscreenenter"",""5"",""30663""
","
",1020.0850000000792,NA,48,NA,NA,3000,1,NA,NA,images/purpleplanet.jpg,images/alien4,images/alien3,images/rocket2,images/alien4,images/nothing.png,2,real,true,2,common,0,2020-06-10T21:20:39Z,sub34
two-step-fixation,170,748807,0.0-76.0-2.11,TRUE,TRUE,FALSE,TRUE,"""event"",""trial"",""time""
""focus"",""0"",""0""
""blur"",""0"",""0""
""focus"",""1"",""15398""
""fullscreenenter"",""5"",""30663""
","""event"",""trial"",""time""
""blur"",""0"",""0""
","""event"",""trial"",""time""
""focus"",""0"",""0""
""focus"",""1"",""15398""
","""event"",""trial"",""time""
""fullscreenenter"",""5"",""30663""
","
",NA,images/earth.jpg,NA,NA,NA,NA,NA,NA,NA,NA,NA,NA,NA,NA,NA,fixation,NA,NA,NA,NA,NA,NA,sub34
d3-animate-choice,171,752382,0.0-76.0-0.12,TRUE,TRUE,FALSE,TRUE,"""event"",""trial"",""time""
""focus"",""0"",""0""
""blur"",""0"",""0""
""focus"",""1"",""15398""
""fullscreenenter"",""5"",""30663""
","""event"",""trial"",""time""
""blur"",""0"",""0""
","""event"",""trial"",""time""
""focus"",""0"",""0""
""focus"",""1"",""15398""
","""event"",""trial"",""time""
""fullscreenenter"",""5"",""30663""
","
",1570.1399999997811,NA,48,NA,NA,3000,1,NA,NA,images/earth.jpg,images/rocket2,images/rocket1,null,images/rocket2,NA,1,real,null,2,NA,NA,NA,sub34
d3-animate-choice,172,754866,0.0-76.0-1.12,TRUE,TRUE,FALSE,TRUE,"""event"",""trial"",""time""
""focus"",""0"",""0""
""blur"",""0"",""0""
""focus"",""1"",""15398""
""fullscreenenter"",""5"",""30663""
","""event"",""trial"",""time""
""blur"",""0"",""0""
","""event"",""trial"",""time""
""focus"",""0"",""0""
""focus"",""1"",""15398""
","""event"",""trial"",""time""
""fullscreenenter"",""5"",""30663""
","
",479.8799999989569,NA,49,NA,NA,3000,1,NA,NA,images/purpleplanet.jpg,images/alien4,images/alien3,images/rocket2,images/alien3,images/t.png,2,real,true,1,common,1,2020-06-10T21:20:47Z,sub34
two-step-fixation,173,755871,0.0-76.0-2.12,TRUE,TRUE,FALSE,TRUE,"""event"",""trial"",""time""
""focus"",""0"",""0""
""blur"",""0"",""0""
""focus"",""1"",""15398""
""fullscreenenter"",""5"",""30663""
","""event"",""trial"",""time""
""blur"",""0"",""0""
","""event"",""trial"",""time""
""focus"",""0"",""0""
""focus"",""1"",""15398""
","""event"",""trial"",""time""
""fullscreenenter"",""5"",""30663""
","
",NA,images/earth.jpg,NA,NA,NA,NA,NA,NA,NA,NA,NA,NA,NA,NA,NA,fixation,NA,NA,NA,NA,NA,NA,sub34
d3-animate-choice,174,758585,0.0-76.0-0.13,TRUE,TRUE,FALSE,TRUE,"""event"",""trial"",""time""
""focus"",""0"",""0""
""blur"",""0"",""0""
""focus"",""1"",""15398""
""fullscreenenter"",""5"",""30663""
","""event"",""trial"",""time""
""blur"",""0"",""0""
","""event"",""trial"",""time""
""focus"",""0"",""0""
""focus"",""1"",""15398""
","""event"",""trial"",""time""
""fullscreenenter"",""5"",""30663""
","
",709.9950000010431,NA,49,NA,NA,3000,1,NA,NA,images/earth.jpg,images/rocket2,images/rocket1,null,images/rocket1,NA,1,real,null,1,NA,NA,NA,sub34
d3-animate-choice,175,761923,0.0-76.0-1.13,TRUE,TRUE,FALSE,TRUE,"""event"",""trial"",""time""
""focus"",""0"",""0""
""blur"",""0"",""0""
""focus"",""1"",""15398""
""fullscreenenter"",""5"",""30663""
","""event"",""trial"",""time""
""blur"",""0"",""0""
","""event"",""trial"",""time""
""focus"",""0"",""0""
""focus"",""1"",""15398""
","""event"",""trial"",""time""
""fullscreenenter"",""5"",""30663""
","
",1333.7849999988684,NA,48,NA,NA,3000,1,NA,NA,images/redplanet1.jpg,images/alien2,images/alien1,images/rocket1,images/alien2,images/nothing.png,2,real,true,2,common,0,2020-06-10T21:20:54Z,sub34
two-step-fixation,176,762926,0.0-76.0-2.13,TRUE,TRUE,FALSE,TRUE,"""event"",""trial"",""time""
""focus"",""0"",""0""
""blur"",""0"",""0""
""focus"",""1"",""15398""
""fullscreenenter"",""5"",""30663""
","""event"",""trial"",""time""
""blur"",""0"",""0""
","""event"",""trial"",""time""
""focus"",""0"",""0""
""focus"",""1"",""15398""
","""event"",""trial"",""time""
""fullscreenenter"",""5"",""30663""
","
",NA,images/earth.jpg,NA,NA,NA,NA,NA,NA,NA,NA,NA,NA,NA,NA,NA,fixation,NA,NA,NA,NA,NA,NA,sub34
d3-animate-choice,177,765831,0.0-76.0-0.14,TRUE,TRUE,FALSE,TRUE,"""event"",""trial"",""time""
""focus"",""0"",""0""
""blur"",""0"",""0""
""focus"",""1"",""15398""
""fullscreenenter"",""5"",""30663""
","""event"",""trial"",""time""
""blur"",""0"",""0""
","""event"",""trial"",""time""
""focus"",""0"",""0""
""focus"",""1"",""15398""
","""event"",""trial"",""time""
""fullscreenenter"",""5"",""30663""
","
",899.6150000020862,NA,49,NA,NA,3000,1,NA,NA,images/earth.jpg,images/rocket2,images/rocket1,null,images/rocket1,NA,1,real,null,1,NA,NA,NA,sub34
d3-animate-choice,178,768320,0.0-76.0-1.14,TRUE,TRUE,FALSE,TRUE,"""event"",""trial"",""time""
""focus"",""0"",""0""
""blur"",""0"",""0""
""focus"",""1"",""15398""
""fullscreenenter"",""5"",""30663""
","""event"",""trial"",""time""
""blur"",""0"",""0""
","""event"",""trial"",""time""
""focus"",""0"",""0""
""focus"",""1"",""15398""
","""event"",""trial"",""time""
""fullscreenenter"",""5"",""30663""
","
",484.27000000083353,NA,48,NA,NA,3000,1,NA,NA,images/redplanet1.jpg,images/alien2,images/alien1,images/rocket1,images/alien2,images/t.png,2,real,true,2,common,1,2020-06-10T21:21:00Z,sub34
two-step-fixation,179,769324,0.0-76.0-2.14,TRUE,TRUE,FALSE,TRUE,"""event"",""trial"",""time""
""focus"",""0"",""0""
""blur"",""0"",""0""
""focus"",""1"",""15398""
""fullscreenenter"",""5"",""30663""
","""event"",""trial"",""time""
""blur"",""0"",""0""
","""event"",""trial"",""time""
""focus"",""0"",""0""
""focus"",""1"",""15398""
","""event"",""trial"",""time""
""fullscreenenter"",""5"",""30663""
","
",NA,images/earth.jpg,NA,NA,NA,NA,NA,NA,NA,NA,NA,NA,NA,NA,NA,fixation,NA,NA,NA,NA,NA,NA,sub34
d3-animate-choice,180,772476,0.0-76.0-0.15,TRUE,TRUE,FALSE,TRUE,"""event"",""trial"",""time""
""focus"",""0"",""0""
""blur"",""0"",""0""
""focus"",""1"",""15398""
""fullscreenenter"",""5"",""30663""
","""event"",""trial"",""time""
""blur"",""0"",""0""
","""event"",""trial"",""time""
""focus"",""0"",""0""
""focus"",""1"",""15398""
","""event"",""trial"",""time""
""fullscreenenter"",""5"",""30663""
","
",1148.8949999983888,NA,48,NA,NA,3000,1,NA,NA,images/earth.jpg,images/rocket2,images/rocket1,null,images/rocket2,NA,1,real,null,2,NA,NA,NA,sub34
d3-animate-choice,181,774975,0.0-76.0-1.15,TRUE,TRUE,FALSE,TRUE,"""event"",""trial"",""time""
""focus"",""0"",""0""
""blur"",""0"",""0""
""focus"",""1"",""15398""
""fullscreenenter"",""5"",""30663""
","""event"",""trial"",""time""
""blur"",""0"",""0""
","""event"",""trial"",""time""
""focus"",""0"",""0""
""focus"",""1"",""15398""
","""event"",""trial"",""time""
""fullscreenenter"",""5"",""30663""
","
",494.8949999997858,NA,49,NA,NA,3000,1,NA,NA,images/purpleplanet.jpg,images/alien4,images/alien3,images/rocket2,images/alien3,images/t.png,2,real,true,1,common,1,2020-06-10T21:21:07Z,sub34
two-step-fixation,182,775979,0.0-76.0-2.15,TRUE,TRUE,FALSE,TRUE,"""event"",""trial"",""time""
""focus"",""0"",""0""
""blur"",""0"",""0""
""focus"",""1"",""15398""
""fullscreenenter"",""5"",""30663""
","""event"",""trial"",""time""
""blur"",""0"",""0""
","""event"",""trial"",""time""
""focus"",""0"",""0""
""focus"",""1"",""15398""
","""event"",""trial"",""time""
""fullscreenenter"",""5"",""30663""
","
