trial_type,trial_index,time_elapsed,internal_node_id,rocket_sides,red_planet_first_rocket,red_display_order,purple_display_order,interactions,blur_events,focus_events,fullscreenenter_events,fullscreenexit_events,rt,stimulus,key_press,button_pressed,success,duration,valid_pressed,rts,keys,planet_text,right_text,left_text,center_text,chosen_text,reward_text,trial_stage,practice_trial,transition_type,choice,transition,reward,timestamp,subject_id
pavlovia,0,4,0.0-0.0,TRUE,TRUE,TRUE,FALSE,"""event"",""trial"",""time""
""blur"",""0"",""0""
""focus"",""1"",""28678""
","""event"",""trial"",""time""
""blur"",""0"",""0""
","""event"",""trial"",""time""
""focus"",""1"",""28678""
","
","
",NA,NA,NA,NA,NA,NA,NA,NA,NA,NA,NA,NA,NA,NA,NA,NA,NA,NA,NA,NA,NA,NA,sub6
html-keyboard-response,1,30603,0.0-1.0,TRUE,TRUE,TRUE,FALSE,"""event"",""trial"",""time""
""blur"",""0"",""0""
""focus"",""1"",""28678""
","""event"",""trial"",""time""
""blur"",""0"",""0""
","""event"",""trial"",""time""
""focus"",""1"",""28678""
","
","
",30597.435000003316,Welcome! Press the space bar to begin.,32,NA,NA,NA,NA,NA,NA,NA,NA,NA,NA,NA,NA,NA,NA,NA,NA,NA,NA,NA,sub6
audio-keyboard-response,2,33993,0.0-2.0,TRUE,TRUE,TRUE,FALSE,"""event"",""trial"",""time""
""blur"",""0"",""0""
""focus"",""1"",""28678""
","""event"",""trial"",""time""
""blur"",""0"",""0""
","""event"",""trial"",""time""
""focus"",""1"",""28678""
","
","
",3341,audio/beep_loop.wav,32,NA,NA,NA,NA,NA,NA,NA,NA,NA,NA,NA,NA,NA,NA,NA,NA,NA,NA,NA,sub6
audio-button-response,3,37857,0.0-3.0,TRUE,TRUE,TRUE,FALSE,"""event"",""trial"",""time""
""blur"",""0"",""0""
""focus"",""1"",""28678""
","""event"",""trial"",""time""
""blur"",""0"",""0""
","""event"",""trial"",""time""
""focus"",""1"",""28678""
","
","
",NaN,audio/fish.mp3,NA,1,NA,NA,NA,NA,NA,NA,NA,NA,NA,NA,NA,NA,NA,NA,NA,NA,NA,NA,sub6
audio-button-response,4,40439,0.0-4.0,TRUE,TRUE,TRUE,FALSE,"""event"",""trial"",""time""
""blur"",""0"",""0""
""focus"",""1"",""28678""
""fullscreenenter"",""5"",""47102""
","""event"",""trial"",""time""
""blur"",""0"",""0""
","""event"",""trial"",""time""
""focus"",""1"",""28678""
","""event"",""trial"",""time""
""fullscreenenter"",""5"",""47102""
","
",NaN,audio/tiger.mp3,NA,4,NA,NA,NA,NA,NA,NA,NA,NA,NA,NA,NA,NA,NA,NA,NA,NA,NA,NA,sub6
fullscreen,5,48084,0.0-5.0,TRUE,TRUE,TRUE,FALSE,"""event"",""trial"",""time""
""blur"",""0"",""0""
""focus"",""1"",""28678""
""fullscreenenter"",""5"",""47102""
","""event"",""trial"",""time""
""blur"",""0"",""0""
","""event"",""trial"",""time""
""focus"",""1"",""28678""
","""event"",""trial"",""time""
""fullscreenenter"",""5"",""47102""
","
",NA,NA,NA,NA,TRUE,NA,NA,NA,NA,NA,NA,NA,NA,NA,NA,NA,NA,NA,NA,NA,NA,NA,sub6
d3-instructions,6,63145,0.0-6.0,TRUE,TRUE,TRUE,FALSE,"""event"",""trial"",""time""
""blur"",""0"",""0""
""focus"",""1"",""28678""
""fullscreenenter"",""5"",""47102""
","""event"",""trial"",""time""
""blur"",""0"",""0""
","""event"",""trial"",""time""
""focus"",""1"",""28678""
","""event"",""trial"",""time""
""fullscreenenter"",""5"",""47102""
","
",NA,NA,NA,NA,NA,NA,NA,NA,NA,NA,NA,NA,NA,NA,NA,NA,NA,NA,NA,NA,NA,NA,sub6
d3-instructions,7,73120,0.0-7.0,TRUE,TRUE,TRUE,FALSE,"""event"",""trial"",""time""
""blur"",""0"",""0""
""focus"",""1"",""28678""
""fullscreenenter"",""5"",""47102""
","""event"",""trial"",""time""
""blur"",""0"",""0""
","""event"",""trial"",""time""
""focus"",""1"",""28678""
","""event"",""trial"",""time""
""fullscreenenter"",""5"",""47102""
","
",NA,NA,NA,NA,NA,NA,NA,NA,NA,NA,NA,NA,NA,NA,NA,NA,NA,NA,NA,NA,NA,NA,sub6
d3-instructions,8,82176,0.0-8.0,TRUE,TRUE,TRUE,FALSE,"""event"",""trial"",""time""
""blur"",""0"",""0""
""focus"",""1"",""28678""
""fullscreenenter"",""5"",""47102""
","""event"",""trial"",""time""
""blur"",""0"",""0""
","""event"",""trial"",""time""
""focus"",""1"",""28678""
","""event"",""trial"",""time""
""fullscreenenter"",""5"",""47102""
","
",NA,NA,NA,NA,NA,NA,NA,NA,NA,NA,NA,NA,NA,NA,NA,NA,NA,NA,NA,NA,NA,NA,sub6
d3-instructions,9,93815,0.0-9.0,TRUE,TRUE,TRUE,FALSE,"""event"",""trial"",""time""
""blur"",""0"",""0""
""focus"",""1"",""28678""
""fullscreenenter"",""5"",""47102""
","""event"",""trial"",""time""
""blur"",""0"",""0""
","""event"",""trial"",""time""
""focus"",""1"",""28678""
","""event"",""trial"",""time""
""fullscreenenter"",""5"",""47102""
","
",NA,NA,NA,NA,NA,NA,NA,NA,NA,NA,NA,NA,NA,NA,NA,NA,NA,NA,NA,NA,NA,NA,sub6
d3-instructions,10,113801,0.0-10.0,TRUE,TRUE,TRUE,FALSE,"""event"",""trial"",""time""
""blur"",""0"",""0""
""focus"",""1"",""28678""
""fullscreenenter"",""5"",""47102""
","""event"",""trial"",""time""
""blur"",""0"",""0""
","""event"",""trial"",""time""
""focus"",""1"",""28678""
","""event"",""trial"",""time""
""fullscreenenter"",""5"",""47102""
","
",NA,NA,NA,NA,NA,NA,NA,NA,NA,NA,NA,NA,NA,NA,NA,NA,NA,NA,NA,NA,NA,NA,sub6
d3-animate-choice,11,118500,0.0-11.0,TRUE,TRUE,TRUE,FALSE,"""event"",""trial"",""time""
""blur"",""0"",""0""
""focus"",""1"",""28678""
""fullscreenenter"",""5"",""47102""
","""event"",""trial"",""time""
""blur"",""0"",""0""
","""event"",""trial"",""time""
""focus"",""1"",""28678""
","""event"",""trial"",""time""
""fullscreenenter"",""5"",""47102""
","
",2686.6900000022724,NA,49,NA,NA,3000,1,4062.035000009928,48,images/tutgreenplanet.jpg,images/tutalien1,images/tutalien2,null,images/tutalien2,NA,NA,practice,null,NA,NA,NA,NA,sub6
d3-animate-choice,12,121218,0.0-12.0,TRUE,TRUE,TRUE,FALSE,"""event"",""trial"",""time""
""blur"",""0"",""0""
""focus"",""1"",""28678""
""fullscreenenter"",""5"",""47102""
","""event"",""trial"",""time""
""blur"",""0"",""0""
","""event"",""trial"",""time""
""focus"",""1"",""28678""
","""event"",""trial"",""time""
""fullscreenenter"",""5"",""47102""
","
",715.2599999972153,NA,48,NA,NA,3000,1,NA,NA,images/tutgreenplanet.jpg,images/tutalien1,images/tutalien2,null,images/tutalien1,NA,NA,practice,null,NA,NA,NA,NA,sub6
d3-animate-choice,13,123490,0.0-13.0,TRUE,TRUE,TRUE,FALSE,"""event"",""trial"",""time""
""blur"",""0"",""0""
""focus"",""1"",""28678""
""fullscreenenter"",""5"",""47102""
","""event"",""trial"",""time""
""blur"",""0"",""0""
","""event"",""trial"",""time""
""focus"",""1"",""28678""
","""event"",""trial"",""time""
""fullscreenenter"",""5"",""47102""
","
",269.6699999796692,NA,49,NA,NA,3000,1,NA,NA,images/tutgreenplanet.jpg,images/tutalien1,images/tutalien2,null,images/tutalien2,NA,NA,practice,null,NA,NA,NA,NA,sub6
d3-animate-choice,14,135242,0.0-14.0,TRUE,TRUE,TRUE,FALSE,"""event"",""trial"",""time""
""blur"",""0"",""0""
""focus"",""1"",""28678""
""fullscreenenter"",""5"",""47102""
","""event"",""trial"",""time""
""blur"",""0"",""0""
","""event"",""trial"",""time""
""focus"",""1"",""28678""
","""event"",""trial"",""time""
""fullscreenenter"",""5"",""47102""
","
",9749.775000003865,NA,49,NA,NA,3000,1,NA,NA,images/tutgreenplanet.jpg,images/tutalien1,images/tutalien2,null,images/tutalien2,NA,NA,practice,null,NA,NA,NA,NA,sub6
d3-instructions,15,143072,0.0-15.0,TRUE,TRUE,TRUE,FALSE,"""event"",""trial"",""time""
""blur"",""0"",""0""
""focus"",""1"",""28678""
""fullscreenenter"",""5"",""47102""
","""event"",""trial"",""time""
""blur"",""0"",""0""
","""event"",""trial"",""time""
""focus"",""1"",""28678""
","""event"",""trial"",""time""
""fullscreenenter"",""5"",""47102""
","
",NA,NA,NA,NA,NA,NA,NA,NA,NA,NA,NA,NA,NA,NA,NA,NA,NA,NA,NA,NA,NA,NA,sub6
d3-instructions,16,151639,0.0-16.0,TRUE,TRUE,TRUE,FALSE,"""event"",""trial"",""time""
""blur"",""0"",""0""
""focus"",""1"",""28678""
""fullscreenenter"",""5"",""47102""
","""event"",""trial"",""time""
""blur"",""0"",""0""
","""event"",""trial"",""time""
""focus"",""1"",""28678""
","""event"",""trial"",""time""
""fullscreenenter"",""5"",""47102""
","
",NA,NA,NA,NA,NA,NA,NA,NA,NA,NA,NA,NA,NA,NA,NA,NA,NA,NA,NA,NA,NA,NA,sub6
d3-instructions,17,162670,0.0-17.0,TRUE,TRUE,TRUE,FALSE,"""event"",""trial"",""time""
""blur"",""0"",""0""
""focus"",""1"",""28678""
""fullscreenenter"",""5"",""47102""
","""event"",""trial"",""time""
""blur"",""0"",""0""
","""event"",""trial"",""time""
""focus"",""1"",""28678""
","""event"",""trial"",""time""
""fullscreenenter"",""5"",""47102""
","
",NA,NA,NA,NA,NA,NA,NA,NA,NA,NA,NA,NA,NA,NA,NA,NA,NA,NA,NA,NA,NA,NA,sub6
d3-instructions,18,178370,0.0-18.0,TRUE,TRUE,TRUE,FALSE,"""event"",""trial"",""time""
""blur"",""0"",""0""
""focus"",""1"",""28678""
""fullscreenenter"",""5"",""47102""
","""event"",""trial"",""time""
""blur"",""0"",""0""
","""event"",""trial"",""time""
""focus"",""1"",""28678""
","""event"",""trial"",""time""
""fullscreenenter"",""5"",""47102""
","
",NA,NA,NA,NA,NA,NA,NA,NA,NA,NA,NA,NA,NA,NA,NA,NA,NA,NA,NA,NA,NA,NA,sub6
d3-instructions,19,192512,0.0-19.0,TRUE,TRUE,TRUE,FALSE,"""event"",""trial"",""time""
""blur"",""0"",""0""
""focus"",""1"",""28678""
""fullscreenenter"",""5"",""47102""
","""event"",""trial"",""time""
""blur"",""0"",""0""
","""event"",""trial"",""time""
""focus"",""1"",""28678""
","""event"",""trial"",""time""
""fullscreenenter"",""5"",""47102""
","
",NA,NA,NA,NA,NA,NA,NA,NA,NA,NA,NA,NA,NA,NA,NA,NA,NA,NA,NA,NA,NA,NA,sub6
d3-animate-choice,20,196603,0.0-20.0,TRUE,TRUE,TRUE,FALSE,"""event"",""trial"",""time""
""blur"",""0"",""0""
""focus"",""1"",""28678""
""fullscreenenter"",""5"",""47102""
","""event"",""trial"",""time""
""blur"",""0"",""0""
","""event"",""trial"",""time""
""focus"",""1"",""28678""
","""event"",""trial"",""time""
""fullscreenenter"",""5"",""47102""
","
",2085.674999980256,NA,49,NA,NA,3000,1,"2765.704999997979,3045.209999982035,3917.6949999819044",494949,images/tutyellowplanet.jpg,null,images/tutalien3,null,images/tutalien3,images/t.png,NA,practice,null,NA,NA,NA,NA,sub6
d3-animate-choice,21,198962,0.0-21.0,TRUE,TRUE,TRUE,FALSE,"""event"",""trial"",""time""
""blur"",""0"",""0""
""focus"",""1"",""28678""
""fullscreenenter"",""5"",""47102""
","""event"",""trial"",""time""
""blur"",""0"",""0""
","""event"",""trial"",""time""
""focus"",""1"",""28678""
","""event"",""trial"",""time""
""fullscreenenter"",""5"",""47102""
","
",355.56999998516403,NA,49,NA,NA,3000,1,1739.4249999779277,49,images/tutyellowplanet.jpg,null,images/tutalien3,null,images/tutalien3,images/nothing.png,NA,practice,null,NA,NA,NA,NA,sub6
d3-animate-choice,22,201626,0.0-22.0,TRUE,TRUE,TRUE,FALSE,"""event"",""trial"",""time""
""blur"",""0"",""0""
""focus"",""1"",""28678""
""fullscreenenter"",""5"",""47102""
","""event"",""trial"",""time""
""blur"",""0"",""0""
","""event"",""trial"",""time""
""focus"",""1"",""28678""
","""event"",""trial"",""time""
""fullscreenenter"",""5"",""47102""
","
",659.205000003567,NA,49,NA,NA,3000,1,2394.4100000080653,49,images/tutyellowplanet.jpg,null,images/tutalien3,null,images/tutalien3,images/t.png,NA,practice,null,NA,NA,NA,NA,sub6
d3-animate-choice,23,203993,0.0-23.0,TRUE,TRUE,TRUE,FALSE,"""event"",""trial"",""time""
""blur"",""0"",""0""
""focus"",""1"",""28678""
""fullscreenenter"",""5"",""47102""
","""event"",""trial"",""time""
""blur"",""0"",""0""
","""event"",""trial"",""time""
""focus"",""1"",""28678""
","""event"",""trial"",""time""
""fullscreenenter"",""5"",""47102""
","
",364.6149999985937,NA,49,NA,NA,3000,1,1983.15499999444,49,images/tutyellowplanet.jpg,null,images/tutalien3,null,images/tutalien3,images/t.png,NA,practice,null,NA,NA,NA,NA,sub6
d3-animate-choice,24,206521,0.0-24.0,TRUE,TRUE,TRUE,FALSE,"""event"",""trial"",""time""
""blur"",""0"",""0""
""focus"",""1"",""28678""
""fullscreenenter"",""5"",""47102""
","""event"",""trial"",""time""
""blur"",""0"",""0""
","""event"",""trial"",""time""
""focus"",""1"",""28678""
","""event"",""trial"",""time""
""fullscreenenter"",""5"",""47102""
","
",523.3850000076927,NA,49,NA,NA,3000,1,2195.2499999897555,49,images/tutyellowplanet.jpg,null,images/tutalien3,null,images/tutalien3,images/t.png,NA,practice,null,NA,NA,NA,NA,sub6
d3-animate-choice,25,208833,0.0-25.0,TRUE,TRUE,TRUE,FALSE,"""event"",""trial"",""time""
""blur"",""0"",""0""
""focus"",""1"",""28678""
""fullscreenenter"",""5"",""47102""
","""event"",""trial"",""time""
""blur"",""0"",""0""
","""event"",""trial"",""time""
""focus"",""1"",""28678""
","""event"",""trial"",""time""
""fullscreenenter"",""5"",""47102""
","
",309.3349999981001,NA,49,NA,NA,3000,1,NA,NA,images/tutyellowplanet.jpg,null,images/tutalien3,null,images/tutalien3,images/t.png,NA,practice,null,NA,NA,NA,NA,sub6
d3-animate-choice,26,211186,0.0-26.0,TRUE,TRUE,TRUE,FALSE,"""event"",""trial"",""time""
""blur"",""0"",""0""
""focus"",""1"",""28678""
""fullscreenenter"",""5"",""47102""
","""event"",""trial"",""time""
""blur"",""0"",""0""
","""event"",""trial"",""time""
""focus"",""1"",""28678""
","""event"",""trial"",""time""
""fullscreenenter"",""5"",""47102""
","
",347.5849999813363,NA,49,NA,NA,3000,1,NA,NA,images/tutyellowplanet.jpg,null,images/tutalien3,null,images/tutalien3,images/t.png,NA,practice,null,NA,NA,NA,NA,sub6
d3-animate-choice,27,213736,0.0-27.0,TRUE,TRUE,TRUE,FALSE,"""event"",""trial"",""time""
""blur"",""0"",""0""
""focus"",""1"",""28678""
""fullscreenenter"",""5"",""47102""
","""event"",""trial"",""time""
""blur"",""0"",""0""
","""event"",""trial"",""time""
""focus"",""1"",""28678""
","""event"",""trial"",""time""
""fullscreenenter"",""5"",""47102""
","
",547.1249999827705,NA,49,NA,NA,3000,1,NA,NA,images/tutyellowplanet.jpg,null,images/tutalien3,null,images/tutalien3,images/t.png,NA,practice,null,NA,NA,NA,NA,sub6
d3-animate-choice,28,216416,0.0-28.0,TRUE,TRUE,TRUE,FALSE,"""event"",""trial"",""time""
""blur"",""0"",""0""
""focus"",""1"",""28678""
""fullscreenenter"",""5"",""47102""
","""event"",""trial"",""time""
""blur"",""0"",""0""
","""event"",""trial"",""time""
""focus"",""1"",""28678""
","""event"",""trial"",""time""
""fullscreenenter"",""5"",""47102""
","
",678.5549999913201,NA,49,NA,NA,3000,1,NA,NA,images/tutyellowplanet.jpg,null,images/tutalien3,null,images/tutalien3,images/t.png,NA,practice,null,NA,NA,NA,NA,sub6
d3-animate-choice,29,219369,0.0-29.0,TRUE,TRUE,TRUE,FALSE,"""event"",""trial"",""time""
""blur"",""0"",""0""
""focus"",""1"",""28678""
""fullscreenenter"",""5"",""47102""
","""event"",""trial"",""time""
""blur"",""0"",""0""
","""event"",""trial"",""time""
""focus"",""1"",""28678""
","""event"",""trial"",""time""
""fullscreenenter"",""5"",""47102""
","
",950.3749999857973,NA,49,NA,NA,3000,1,NA,NA,images/tutyellowplanet.jpg,null,images/tutalien3,null,images/tutalien3,images/nothing.png,NA,practice,null,NA,NA,NA,NA,sub6
d3-instructions,30,229894,0.0-30.0,TRUE,TRUE,TRUE,FALSE,"""event"",""trial"",""time""
""blur"",""0"",""0""
""focus"",""1"",""28678""
""fullscreenenter"",""5"",""47102""
","""event"",""trial"",""time""
""blur"",""0"",""0""
","""event"",""trial"",""time""
""focus"",""1"",""28678""
","""event"",""trial"",""time""
""fullscreenenter"",""5"",""47102""
","
",NA,NA,NA,NA,NA,NA,NA,NA,NA,NA,NA,NA,NA,NA,NA,NA,NA,NA,NA,NA,NA,NA,sub6
d3-instructions,31,241921,0.0-31.0,TRUE,TRUE,TRUE,FALSE,"""event"",""trial"",""time""
""blur"",""0"",""0""
""focus"",""1"",""28678""
""fullscreenenter"",""5"",""47102""
","""event"",""trial"",""time""
""blur"",""0"",""0""
","""event"",""trial"",""time""
""focus"",""1"",""28678""
","""event"",""trial"",""time""
""fullscreenenter"",""5"",""47102""
","
",NA,NA,NA,NA,NA,NA,NA,NA,NA,NA,NA,NA,NA,NA,NA,NA,NA,NA,NA,NA,NA,NA,sub6
d3-instructions,32,250641,0.0-32.0,TRUE,TRUE,TRUE,FALSE,"""event"",""trial"",""time""
""blur"",""0"",""0""
""focus"",""1"",""28678""
""fullscreenenter"",""5"",""47102""
","""event"",""trial"",""time""
""blur"",""0"",""0""
","""event"",""trial"",""time""
""focus"",""1"",""28678""
","""event"",""trial"",""time""
""fullscreenenter"",""5"",""47102""
","
",NA,NA,NA,NA,NA,NA,NA,NA,NA,NA,NA,NA,NA,NA,NA,NA,NA,NA,NA,NA,NA,NA,sub6
d3-instructions,33,261376,0.0-33.0,TRUE,TRUE,TRUE,FALSE,"""event"",""trial"",""time""
""blur"",""0"",""0""
""focus"",""1"",""28678""
""fullscreenenter"",""5"",""47102""
","""event"",""trial"",""time""
""blur"",""0"",""0""
","""event"",""trial"",""time""
""focus"",""1"",""28678""
","""event"",""trial"",""time""
""fullscreenenter"",""5"",""47102""
","
",NA,NA,NA,NA,NA,NA,NA,NA,NA,NA,NA,NA,NA,NA,NA,NA,NA,NA,NA,NA,NA,NA,sub6
d3-animate-choice,34,264337,0.0-34.0,TRUE,TRUE,TRUE,FALSE,"""event"",""trial"",""time""
""blur"",""0"",""0""
""focus"",""1"",""28678""
""fullscreenenter"",""5"",""47102""
","""event"",""trial"",""time""
""blur"",""0"",""0""
","""event"",""trial"",""time""
""focus"",""1"",""28678""
","""event"",""trial"",""time""
""fullscreenenter"",""5"",""47102""
","
",958.5749999969266,NA,49,NA,NA,3000,1,NA,NA,images/tutgreenplanet.jpg,images/tutalien1,images/tutalien2,null,images/tutalien2,images/t.png,NA,practice,null,NA,NA,NA,NA,sub6
d3-animate-choice,35,266729,0.0-35.0,TRUE,TRUE,TRUE,FALSE,"""event"",""trial"",""time""
""blur"",""0"",""0""
""focus"",""1"",""28678""
""fullscreenenter"",""5"",""47102""
","""event"",""trial"",""time""
""blur"",""0"",""0""
","""event"",""trial"",""time""
""focus"",""1"",""28678""
","""event"",""trial"",""time""
""fullscreenenter"",""5"",""47102""
","
",384.8500000021886,NA,49,NA,NA,3000,1,NA,NA,images/tutgreenplanet.jpg,images/tutalien1,images/tutalien2,null,images/tutalien2,images/t.png,NA,practice,null,NA,NA,NA,NA,sub6
d3-animate-choice,36,269097,0.0-36.0,TRUE,TRUE,TRUE,FALSE,"""event"",""trial"",""time""
""blur"",""0"",""0""
""focus"",""1"",""28678""
""fullscreenenter"",""5"",""47102""
","""event"",""trial"",""time""
""blur"",""0"",""0""
","""event"",""trial"",""time""
""focus"",""1"",""28678""
","""event"",""trial"",""time""
""fullscreenenter"",""5"",""47102""
","
",366.039999993518,NA,49,NA,NA,3000,1,NA,NA,images/tutgreenplanet.jpg,images/tutalien1,images/tutalien2,null,images/tutalien2,images/t.png,NA,practice,null,NA,NA,NA,NA,sub6
d3-animate-choice,37,271345,0.0-37.0,TRUE,TRUE,TRUE,FALSE,"""event"",""trial"",""time""
""blur"",""0"",""0""
""focus"",""1"",""28678""
""fullscreenenter"",""5"",""47102""
","""event"",""trial"",""time""
""blur"",""0"",""0""
","""event"",""trial"",""time""
""focus"",""1"",""28678""
","""event"",""trial"",""time""
""fullscreenenter"",""5"",""47102""
","
",245.79499999526888,NA,49,NA,NA,3000,1,NA,NA,images/tutgreenplanet.jpg,images/tutalien1,images/tutalien2,null,images/tutalien2,images/t.png,NA,practice,null,NA,NA,NA,NA,sub6
d3-animate-choice,38,273908,0.0-38.0,TRUE,TRUE,TRUE,FALSE,"""event"",""trial"",""time""
""blur"",""0"",""0""
""focus"",""1"",""28678""
""fullscreenenter"",""5"",""47102""
","""event"",""trial"",""time""
""blur"",""0"",""0""
","""event"",""trial"",""time""
""focus"",""1"",""28678""
","""event"",""trial"",""time""
""fullscreenenter"",""5"",""47102""
","
",557.6000000000931,NA,49,NA,NA,3000,1,NA,NA,images/tutgreenplanet.jpg,images/tutalien1,images/tutalien2,null,images/tutalien2,images/t.png,NA,practice,null,NA,NA,NA,NA,sub6
d3-animate-choice,39,276194,0.0-39.0,TRUE,TRUE,TRUE,FALSE,"""event"",""trial"",""time""
""blur"",""0"",""0""
""focus"",""1"",""28678""
""fullscreenenter"",""5"",""47102""
","""event"",""trial"",""time""
""blur"",""0"",""0""
","""event"",""trial"",""time""
""focus"",""1"",""28678""
","""event"",""trial"",""time""
""fullscreenenter"",""5"",""47102""
","
",280.85499998996966,NA,49,NA,NA,3000,1,NA,NA,images/tutgreenplanet.jpg,images/tutalien1,images/tutalien2,null,images/tutalien2,images/t.png,NA,practice,null,NA,NA,NA,NA,sub6
d3-animate-choice,40,278578,0.0-40.0,TRUE,TRUE,TRUE,FALSE,"""event"",""trial"",""time""
""blur"",""0"",""0""
""focus"",""1"",""28678""
""fullscreenenter"",""5"",""47102""
","""event"",""trial"",""time""
""blur"",""0"",""0""
","""event"",""trial"",""time""
""focus"",""1"",""28678""
","""event"",""trial"",""time""
""fullscreenenter"",""5"",""47102""
","
",378.5399999760557,NA,49,NA,NA,3000,1,2066.4749999996275,49,images/tutgreenplanet.jpg,images/tutalien1,images/tutalien2,null,images/tutalien2,images/t.png,NA,practice,null,NA,NA,NA,NA,sub6
d3-animate-choice,41,280922,0.0-41.0,TRUE,TRUE,TRUE,FALSE,"""event"",""trial"",""time""
""blur"",""0"",""0""
""focus"",""1"",""28678""
""fullscreenenter"",""5"",""47102""
","""event"",""trial"",""time""
""blur"",""0"",""0""
","""event"",""trial"",""time""
""focus"",""1"",""28678""
","""event"",""trial"",""time""
""fullscreenenter"",""5"",""47102""
","
",340.24499999941327,NA,49,NA,NA,3000,1,NA,NA,images/tutgreenplanet.jpg,images/tutalien1,images/tutalien2,null,images/tutalien2,images/t.png,NA,practice,null,NA,NA,NA,NA,sub6
d3-animate-choice,42,283266,0.0-42.0,TRUE,TRUE,TRUE,FALSE,"""event"",""trial"",""time""
""blur"",""0"",""0""
""focus"",""1"",""28678""
""fullscreenenter"",""5"",""47102""
","""event"",""trial"",""time""
""blur"",""0"",""0""
","""event"",""trial"",""time""
""focus"",""1"",""28678""
","""event"",""trial"",""time""
""fullscreenenter"",""5"",""47102""
","
",338.499999983469,NA,49,NA,NA,3000,1,NA,NA,images/tutgreenplanet.jpg,images/tutalien1,images/tutalien2,null,images/tutalien2,images/t.png,NA,practice,null,NA,NA,NA,NA,sub6
d3-animate-choice,43,285811,0.0-43.0,TRUE,TRUE,TRUE,FALSE,"""event"",""trial"",""time""
""blur"",""0"",""0""
""focus"",""1"",""28678""
""fullscreenenter"",""5"",""47102""
","""event"",""trial"",""time""
""blur"",""0"",""0""
","""event"",""trial"",""time""
""focus"",""1"",""28678""
","""event"",""trial"",""time""
""fullscreenenter"",""5"",""47102""
","
",539.7649999940768,NA,49,NA,NA,3000,1,NA,NA,images/tutgreenplanet.jpg,images/tutalien1,images/tutalien2,null,images/tutalien2,images/t.png,NA,practice,null,NA,NA,NA,NA,sub6
d3-instructions,44,299914,0.0-44.0,TRUE,TRUE,TRUE,FALSE,"""event"",""trial"",""time""
""blur"",""0"",""0""
""focus"",""1"",""28678""
""fullscreenenter"",""5"",""47102""
","""event"",""trial"",""time""
""blur"",""0"",""0""
","""event"",""trial"",""time""
""focus"",""1"",""28678""
","""event"",""trial"",""time""
""fullscreenenter"",""5"",""47102""
","
",NA,NA,NA,NA,NA,NA,NA,NA,NA,NA,NA,NA,NA,NA,NA,NA,NA,NA,NA,NA,NA,NA,sub6
d3-instructions,45,308314,0.0-45.0,TRUE,TRUE,TRUE,FALSE,"""event"",""trial"",""time""
""blur"",""0"",""0""
""focus"",""1"",""28678""
""fullscreenenter"",""5"",""47102""
","""event"",""trial"",""time""
""blur"",""0"",""0""
","""event"",""trial"",""time""
""focus"",""1"",""28678""
","""event"",""trial"",""time""
""fullscreenenter"",""5"",""47102""
","
",NA,NA,NA,NA,NA,NA,NA,NA,NA,NA,NA,NA,NA,NA,NA,NA,NA,NA,NA,NA,NA,NA,sub6
d3-instructions,46,316017,0.0-46.0,TRUE,TRUE,TRUE,FALSE,"""event"",""trial"",""time""
""blur"",""0"",""0""
""focus"",""1"",""28678""
""fullscreenenter"",""5"",""47102""
","""event"",""trial"",""time""
""blur"",""0"",""0""
","""event"",""trial"",""time""
""focus"",""1"",""28678""
","""event"",""trial"",""time""
""fullscreenenter"",""5"",""47102""
","
",NA,NA,NA,NA,NA,NA,NA,NA,NA,NA,NA,NA,NA,NA,NA,NA,NA,NA,NA,NA,NA,NA,sub6
d3-instructions,47,334679,0.0-47.0,TRUE,TRUE,TRUE,FALSE,"""event"",""trial"",""time""
""blur"",""0"",""0""
""focus"",""1"",""28678""
""fullscreenenter"",""5"",""47102""
","""event"",""trial"",""time""
""blur"",""0"",""0""
","""event"",""trial"",""time""
""focus"",""1"",""28678""
","""event"",""trial"",""time""
""fullscreenenter"",""5"",""47102""
","
",NA,NA,NA,NA,NA,NA,NA,NA,NA,NA,NA,NA,NA,NA,NA,NA,NA,NA,NA,NA,NA,NA,sub6
d3-instructions,48,341392,0.0-48.0,TRUE,TRUE,TRUE,FALSE,"""event"",""trial"",""time""
""blur"",""0"",""0""
""focus"",""1"",""28678""
""fullscreenenter"",""5"",""47102""
","""event"",""trial"",""time""
""blur"",""0"",""0""
","""event"",""trial"",""time""
""focus"",""1"",""28678""
","""event"",""trial"",""time""
""fullscreenenter"",""5"",""47102""
","
",NA,NA,NA,NA,NA,NA,NA,NA,NA,NA,NA,NA,NA,NA,NA,NA,NA,NA,NA,NA,NA,NA,sub6
d3-instructions,49,352647,0.0-49.0,TRUE,TRUE,TRUE,FALSE,"""event"",""trial"",""time""
""blur"",""0"",""0""
""focus"",""1"",""28678""
""fullscreenenter"",""5"",""47102""
","""event"",""trial"",""time""
""blur"",""0"",""0""
","""event"",""trial"",""time""
""focus"",""1"",""28678""
","""event"",""trial"",""time""
""fullscreenenter"",""5"",""47102""
","
",NA,NA,NA,NA,NA,NA,NA,NA,NA,NA,NA,NA,NA,NA,NA,NA,NA,NA,NA,NA,NA,NA,sub6
d3-instructions,50,361802,0.0-50.0,TRUE,TRUE,TRUE,FALSE,"""event"",""trial"",""time""
""blur"",""0"",""0""
""focus"",""1"",""28678""
""fullscreenenter"",""5"",""47102""
","""event"",""trial"",""time""
""blur"",""0"",""0""
","""event"",""trial"",""time""
""focus"",""1"",""28678""
","""event"",""trial"",""time""
""fullscreenenter"",""5"",""47102""
","
",NA,NA,NA,NA,NA,NA,NA,NA,NA,NA,NA,NA,NA,NA,NA,NA,NA,NA,NA,NA,NA,NA,sub6
d3-instructions,51,364826,0.0-51.0,TRUE,TRUE,TRUE,FALSE,"""event"",""trial"",""time""
""blur"",""0"",""0""
""focus"",""1"",""28678""
""fullscreenenter"",""5"",""47102""
","""event"",""trial"",""time""
""blur"",""0"",""0""
","""event"",""trial"",""time""
""focus"",""1"",""28678""
","""event"",""trial"",""time""
""fullscreenenter"",""5"",""47102""
","
",NA,NA,NA,NA,NA,NA,NA,NA,NA,NA,NA,NA,NA,NA,NA,NA,NA,NA,NA,NA,NA,NA,sub6
d3-instructions,52,367769,0.0-52.0,TRUE,TRUE,TRUE,FALSE,"""event"",""trial"",""time""
""blur"",""0"",""0""
""focus"",""1"",""28678""
""fullscreenenter"",""5"",""47102""
","""event"",""trial"",""time""
""blur"",""0"",""0""
","""event"",""trial"",""time""
""focus"",""1"",""28678""
","""event"",""trial"",""time""
""fullscreenenter"",""5"",""47102""
","
",NA,NA,NA,NA,NA,NA,NA,NA,NA,NA,NA,NA,NA,NA,NA,NA,NA,NA,NA,NA,NA,NA,sub6
d3-instructions,53,381137,0.0-53.0,TRUE,TRUE,TRUE,FALSE,"""event"",""trial"",""time""
""blur"",""0"",""0""
""focus"",""1"",""28678""
""fullscreenenter"",""5"",""47102""
","""event"",""trial"",""time""
""blur"",""0"",""0""
","""event"",""trial"",""time""
""focus"",""1"",""28678""
","""event"",""trial"",""time""
""fullscreenenter"",""5"",""47102""
","
",NA,NA,NA,NA,NA,NA,NA,NA,NA,NA,NA,NA,NA,NA,NA,NA,NA,NA,NA,NA,NA,NA,sub6
d3-instructions,54,399008,0.0-54.0,TRUE,TRUE,TRUE,FALSE,"""event"",""trial"",""time""
""blur"",""0"",""0""
""focus"",""1"",""28678""
""fullscreenenter"",""5"",""47102""
","""event"",""trial"",""time""
""blur"",""0"",""0""
","""event"",""trial"",""time""
""focus"",""1"",""28678""
","""event"",""trial"",""time""
""fullscreenenter"",""5"",""47102""
","
",NA,NA,NA,NA,NA,NA,NA,NA,NA,NA,NA,NA,NA,NA,NA,NA,NA,NA,NA,NA,NA,NA,sub6
d3-instructions,55,410759,0.0-55.0,TRUE,TRUE,TRUE,FALSE,"""event"",""trial"",""time""
""blur"",""0"",""0""
""focus"",""1"",""28678""
""fullscreenenter"",""5"",""47102""
","""event"",""trial"",""time""
""blur"",""0"",""0""
","""event"",""trial"",""time""
""focus"",""1"",""28678""
","""event"",""trial"",""time""
""fullscreenenter"",""5"",""47102""
","
",NA,NA,NA,NA,NA,NA,NA,NA,NA,NA,NA,NA,NA,NA,NA,NA,NA,NA,NA,NA,NA,NA,sub6
d3-instructions,56,419458,0.0-56.0,TRUE,TRUE,TRUE,FALSE,"""event"",""trial"",""time""
""blur"",""0"",""0""
""focus"",""1"",""28678""
""fullscreenenter"",""5"",""47102""
","""event"",""trial"",""time""
""blur"",""0"",""0""
","""event"",""trial"",""time""
""focus"",""1"",""28678""
","""event"",""trial"",""time""
""fullscreenenter"",""5"",""47102""
","
",NA,NA,NA,NA,NA,NA,NA,NA,NA,NA,NA,NA,NA,NA,NA,NA,NA,NA,NA,NA,NA,NA,sub6
d3-instructions,57,430481,0.0-57.0,TRUE,TRUE,TRUE,FALSE,"""event"",""trial"",""time""
""blur"",""0"",""0""
""focus"",""1"",""28678""
""fullscreenenter"",""5"",""47102""
","""event"",""trial"",""time""
""blur"",""0"",""0""
","""event"",""trial"",""time""
""focus"",""1"",""28678""
","""event"",""trial"",""time""
""fullscreenenter"",""5"",""47102""
","
",NA,NA,NA,NA,NA,NA,NA,NA,NA,NA,NA,NA,NA,NA,NA,NA,NA,NA,NA,NA,NA,NA,sub6
d3-instructions,58,442697,0.0-58.0,TRUE,TRUE,TRUE,FALSE,"""event"",""trial"",""time""
""blur"",""0"",""0""
""focus"",""1"",""28678""
""fullscreenenter"",""5"",""47102""
","""event"",""trial"",""time""
""blur"",""0"",""0""
","""event"",""trial"",""time""
""focus"",""1"",""28678""
","""event"",""trial"",""time""
""fullscreenenter"",""5"",""47102""
","
",NA,NA,NA,NA,NA,NA,NA,NA,NA,NA,NA,NA,NA,NA,NA,NA,NA,NA,NA,NA,NA,NA,sub6
d3-instructions,59,448521,0.0-59.0,TRUE,TRUE,TRUE,FALSE,"""event"",""trial"",""time""
""blur"",""0"",""0""
""focus"",""1"",""28678""
""fullscreenenter"",""5"",""47102""
","""event"",""trial"",""time""
""blur"",""0"",""0""
","""event"",""trial"",""time""
""focus"",""1"",""28678""
","""event"",""trial"",""time""
""fullscreenenter"",""5"",""47102""
","
",NA,NA,NA,NA,NA,NA,NA,NA,NA,NA,NA,NA,NA,NA,NA,NA,NA,NA,NA,NA,NA,NA,sub6
d3-instructions,60,459728,0.0-60.0,TRUE,TRUE,TRUE,FALSE,"""event"",""trial"",""time""
""blur"",""0"",""0""
""focus"",""1"",""28678""
""fullscreenenter"",""5"",""47102""
","""event"",""trial"",""time""
""blur"",""0"",""0""
","""event"",""trial"",""time""
""focus"",""1"",""28678""
","""event"",""trial"",""time""
""fullscreenenter"",""5"",""47102""
","
",NA,NA,NA,NA,NA,NA,NA,NA,NA,NA,NA,NA,NA,NA,NA,NA,NA,NA,NA,NA,NA,NA,sub6
d3-animate-choice,61,462242,0.0-61.0-0.0,TRUE,TRUE,TRUE,FALSE,"""event"",""trial"",""time""
""blur"",""0"",""0""
""focus"",""1"",""28678""
""fullscreenenter"",""5"",""47102""
","""event"",""trial"",""time""
""blur"",""0"",""0""
","""event"",""trial"",""time""
""focus"",""1"",""28678""
","""event"",""trial"",""time""
""fullscreenenter"",""5"",""47102""
","
",505.87500000256114,NA,49,NA,NA,3000,1,NA,NA,images/earth.jpg,images/tutrocket2,images/tutrocket1,null,images/tutrocket1,NA,1,practice,null,1,NA,NA,NA,sub6
d3-animate-choice,62,466245,0.0-61.0-1.0,TRUE,TRUE,TRUE,FALSE,"""event"",""trial"",""time""
""blur"",""0"",""0""
""focus"",""1"",""28678""
""fullscreenenter"",""5"",""47102""
","""event"",""trial"",""time""
""blur"",""0"",""0""
","""event"",""trial"",""time""
""focus"",""1"",""28678""
","""event"",""trial"",""time""
""fullscreenenter"",""5"",""47102""
","
",2698.9549999998417,NA,49,NA,NA,3000,1,NA,NA,images/tutgreenplanet.jpg,images/tutalien2,images/tutalien1,images/tutrocket1,images/tutalien1,NA,2,practice,true,1,common,0,2020-06-24T13:19:18Z,sub6
two-step-fixation,63,467247,0.0-61.0-2.0,TRUE,TRUE,TRUE,FALSE,"""event"",""trial"",""time""
""blur"",""0"",""0""
""focus"",""1"",""28678""
""fullscreenenter"",""5"",""47102""
","""event"",""trial"",""time""
""blur"",""0"",""0""
","""event"",""trial"",""time""
""focus"",""1"",""28678""
","""event"",""trial"",""time""
""fullscreenenter"",""5"",""47102""
","
",NA,images/earth.jpg,NA,NA,NA,NA,NA,NA,NA,NA,NA,NA,NA,NA,NA,fixation,NA,NA,NA,NA,NA,NA,sub6
d3-animate-choice,64,470738,0.0-61.0-0.1,TRUE,TRUE,TRUE,FALSE,"""event"",""trial"",""time""
""blur"",""0"",""0""
""focus"",""1"",""28678""
""fullscreenenter"",""5"",""47102""
","""event"",""trial"",""time""
""blur"",""0"",""0""
","""event"",""trial"",""time""
""focus"",""1"",""28678""
","""event"",""trial"",""time""
""fullscreenenter"",""5"",""47102""
","
",1485.1849999977276,NA,49,NA,NA,3000,1,NA,NA,images/earth.jpg,images/tutrocket2,images/tutrocket1,null,images/tutrocket1,NA,1,practice,null,1,NA,NA,NA,sub6
d3-animate-choice,65,474741,0.0-61.0-1.1,TRUE,TRUE,TRUE,FALSE,"""event"",""trial"",""time""
""blur"",""0"",""0""
""focus"",""1"",""28678""
""fullscreenenter"",""5"",""47102""
","""event"",""trial"",""time""
""blur"",""0"",""0""
","""event"",""trial"",""time""
""focus"",""1"",""28678""
","""event"",""trial"",""time""
""fullscreenenter"",""5"",""47102""
","
",2202.915000001667,NA,192,NA,NA,3000,1,"2866.855000000214,3266.8399999965914,3539.3850000109524",19249192,images/tutgreenplanet.jpg,images/tutalien2,images/tutalien1,images/tutrocket1,images/tutalien1,NA,2,practice,true,NA,common,0,2020-06-24T13:19:26Z,sub6
two-step-fixation,66,475743,0.0-61.0-2.1,TRUE,TRUE,TRUE,FALSE,"""event"",""trial"",""time""
""blur"",""0"",""0""
""focus"",""1"",""28678""
""fullscreenenter"",""5"",""47102""
","""event"",""trial"",""time""
""blur"",""0"",""0""
","""event"",""trial"",""time""
""focus"",""1"",""28678""
","""event"",""trial"",""time""
""fullscreenenter"",""5"",""47102""
","
",NA,images/earth.jpg,NA,NA,NA,NA,NA,NA,NA,NA,NA,NA,NA,NA,NA,fixation,NA,NA,NA,NA,NA,NA,sub6
d3-animate-choice,67,479749,0.0-61.0-0.2,TRUE,TRUE,TRUE,FALSE,"""event"",""trial"",""time""
""blur"",""0"",""0""
""focus"",""1"",""28678""
""fullscreenenter"",""5"",""47102""
","""event"",""trial"",""time""
""blur"",""0"",""0""
","""event"",""trial"",""time""
""focus"",""1"",""28678""
","""event"",""trial"",""time""
""fullscreenenter"",""5"",""47102""
","
",2725.7450000033714,NA,48,NA,NA,3000,1,NA,NA,images/earth.jpg,images/tutrocket2,images/tutrocket1,null,images/tutrocket2,NA,1,practice,null,2,NA,NA,NA,sub6
d3-animate-choice,68,482914,0.0-61.0-1.2,TRUE,TRUE,TRUE,FALSE,"""event"",""trial"",""time""
""blur"",""0"",""0""
""focus"",""1"",""28678""
""fullscreenenter"",""5"",""47102""
","""event"",""trial"",""time""
""blur"",""0"",""0""
","""event"",""trial"",""time""
""focus"",""1"",""28678""
","""event"",""trial"",""time""
""fullscreenenter"",""5"",""47102""
","
",1162.834999995539,NA,48,NA,NA,3000,1,NA,NA,images/tutyellowplanet.jpg,images/tutalien4,images/tutalien3,images/tutrocket2,images/tutalien4,images/nothing.png,2,practice,true,2,common,0,2020-06-24T13:19:34Z,sub6
two-step-fixation,69,483916,0.0-61.0-2.2,TRUE,TRUE,TRUE,FALSE,"""event"",""trial"",""time""
""blur"",""0"",""0""
""focus"",""1"",""28678""
""fullscreenenter"",""5"",""47102""
","""event"",""trial"",""time""
""blur"",""0"",""0""
","""event"",""trial"",""time""
""focus"",""1"",""28678""
","""event"",""trial"",""time""
""fullscreenenter"",""5"",""47102""
","
",NA,images/earth.jpg,NA,NA,NA,NA,NA,NA,NA,NA,NA,NA,NA,NA,NA,fixation,NA,NA,NA,NA,NA,NA,sub6
d3-animate-choice,70,487212,0.0-61.0-0.3,TRUE,TRUE,TRUE,FALSE,"""event"",""trial"",""time""
""blur"",""0"",""0""
""focus"",""1"",""28678""
""fullscreenenter"",""5"",""47102""
","""event"",""trial"",""time""
""blur"",""0"",""0""
","""event"",""trial"",""time""
""focus"",""1"",""28678""
","""event"",""trial"",""time""
""fullscreenenter"",""5"",""47102""
","
",1291.2400000204798,NA,48,NA,NA,3000,1,NA,NA,images/earth.jpg,images/tutrocket2,images/tutrocket1,null,images/tutrocket2,NA,1,practice,null,2,NA,NA,NA,sub6
d3-animate-choice,71,489692,0.0-61.0-1.3,TRUE,TRUE,TRUE,FALSE,"""event"",""trial"",""time""
""blur"",""0"",""0""
""focus"",""1"",""28678""
""fullscreenenter"",""5"",""47102""
","""event"",""trial"",""time""
""blur"",""0"",""0""
","""event"",""trial"",""time""
""focus"",""1"",""28678""
","""event"",""trial"",""time""
""fullscreenenter"",""5"",""47102""
","
",473.3199999900535,NA,49,NA,NA,3000,1,NA,NA,images/tutgreenplanet.jpg,images/tutalien2,images/tutalien1,images/tutrocket2,images/tutalien1,images/nothing.png,2,practice,false,1,rare,0,2020-06-24T13:19:41Z,sub6
two-step-fixation,72,490698,0.0-61.0-2.3,TRUE,TRUE,TRUE,FALSE,"""event"",""trial"",""time""
""blur"",""0"",""0""
""focus"",""1"",""28678""
""fullscreenenter"",""5"",""47102""
","""event"",""trial"",""time""
""blur"",""0"",""0""
","""event"",""trial"",""time""
""focus"",""1"",""28678""
","""event"",""trial"",""time""
""fullscreenenter"",""5"",""47102""
","
",NA,images/earth.jpg,NA,NA,NA,NA,NA,NA,NA,NA,NA,NA,NA,NA,NA,fixation,NA,NA,NA,NA,NA,NA,sub6
d3-animate-choice,73,493189,0.0-61.0-0.4,TRUE,TRUE,TRUE,FALSE,"""event"",""trial"",""time""
""blur"",""0"",""0""
""focus"",""1"",""28678""
""fullscreenenter"",""5"",""47102""
","""event"",""trial"",""time""
""blur"",""0"",""0""
","""event"",""trial"",""time""
""focus"",""1"",""28678""
","""event"",""trial"",""time""
""fullscreenenter"",""5"",""47102""
","
",484.30999999982305,NA,48,NA,NA,3000,1,NA,NA,images/earth.jpg,images/tutrocket2,images/tutrocket1,null,images/tutrocket2,NA,1,practice,null,2,NA,NA,NA,sub6
d3-animate-choice,74,496939,0.0-61.0-1.4,TRUE,TRUE,TRUE,FALSE,"""event"",""trial"",""time""
""blur"",""0"",""0""
""focus"",""1"",""28678""
""fullscreenenter"",""5"",""47102""
","""event"",""trial"",""time""
""blur"",""0"",""0""
","""event"",""trial"",""time""
""focus"",""1"",""28678""
","""event"",""trial"",""time""
""fullscreenenter"",""5"",""47102""
","
",1744.2100000043865,NA,49,NA,NA,3000,1,NA,NA,images/tutyellowplanet.jpg,images/tutalien4,images/tutalien3,images/tutrocket2,images/tutalien3,images/nothing.png,2,practice,true,1,common,0,2020-06-24T13:19:48Z,sub6
two-step-fixation,75,497945,0.0-61.0-2.4,TRUE,TRUE,TRUE,FALSE,"""event"",""trial"",""time""
""blur"",""0"",""0""
""focus"",""1"",""28678""
""fullscreenenter"",""5"",""47102""
","""event"",""trial"",""time""
""blur"",""0"",""0""
","""event"",""trial"",""time""
""focus"",""1"",""28678""
","""event"",""trial"",""time""
""fullscreenenter"",""5"",""47102""
","
",NA,images/earth.jpg,NA,NA,NA,NA,NA,NA,NA,NA,NA,NA,NA,NA,NA,fixation,NA,NA,NA,NA,NA,NA,sub6
d3-animate-choice,76,500251,0.0-61.0-0.5,TRUE,TRUE,TRUE,FALSE,"""event"",""trial"",""time""
""blur"",""0"",""0""
""focus"",""1"",""28678""
""fullscreenenter"",""5"",""47102""
","""event"",""trial"",""time""
""blur"",""0"",""0""
","""event"",""trial"",""time""
""focus"",""1"",""28678""
","""event"",""trial"",""time""
""fullscreenenter"",""5"",""47102""
","
",299.8150000057649,NA,49,NA,NA,3000,1,NA,NA,images/earth.jpg,images/tutrocket2,images/tutrocket1,null,images/tutrocket1,NA,1,practice,null,1,NA,NA,NA,sub6
d3-animate-choice,77,503051,0.0-61.0-1.5,TRUE,TRUE,TRUE,FALSE,"""event"",""trial"",""time""
""blur"",""0"",""0""
""focus"",""1"",""28678""
""fullscreenenter"",""5"",""47102""
","""event"",""trial"",""time""
""blur"",""0"",""0""
","""event"",""trial"",""time""
""focus"",""1"",""28678""
","""event"",""trial"",""time""
""fullscreenenter"",""5"",""47102""
","
",793.6099999933504,NA,48,NA,NA,3000,1,NA,NA,images/tutgreenplanet.jpg,images/tutalien2,images/tutalien1,images/tutrocket1,images/tutalien2,images/nothing.png,2,practice,true,2,common,0,2020-06-24T13:19:54Z,sub6
two-step-fixation,78,504057,0.0-61.0-2.5,TRUE,TRUE,TRUE,FALSE,"""event"",""trial"",""time""
""blur"",""0"",""0""
""focus"",""1"",""28678""
""fullscreenenter"",""5"",""47102""
","""event"",""trial"",""time""
""blur"",""0"",""0""
","""event"",""trial"",""time""
""focus"",""1"",""28678""
","""event"",""trial"",""time""
""fullscreenenter"",""5"",""47102""
","
",NA,images/earth.jpg,NA,NA,NA,NA,NA,NA,NA,NA,NA,NA,NA,NA,NA,fixation,NA,NA,NA,NA,NA,NA,sub6
d3-animate-choice,79,507997,0.0-61.0-0.6,TRUE,TRUE,TRUE,FALSE,"""event"",""trial"",""time""
""blur"",""0"",""0""
""focus"",""1"",""28678""
""fullscreenenter"",""5"",""47102""
","""event"",""trial"",""time""
""blur"",""0"",""0""
","""event"",""trial"",""time""
""focus"",""1"",""28678""
","""event"",""trial"",""time""
""fullscreenenter"",""5"",""47102""
","
",1933.0100000079256,NA,49,NA,NA,3000,1,NA,NA,images/earth.jpg,images/tutrocket2,images/tutrocket1,null,images/tutrocket1,NA,1,practice,null,1,NA,NA,NA,sub6
d3-animate-choice,80,511227,0.0-61.0-1.6,TRUE,TRUE,TRUE,FALSE,"""event"",""trial"",""time""
""blur"",""0"",""0""
""focus"",""1"",""28678""
""fullscreenenter"",""5"",""47102""
","""event"",""trial"",""time""
""blur"",""0"",""0""
","""event"",""trial"",""time""
""focus"",""1"",""28678""
","""event"",""trial"",""time""
""fullscreenenter"",""5"",""47102""
","
",1223.3050000213552,NA,48,NA,NA,3000,1,NA,NA,images/tutgreenplanet.jpg,images/tutalien2,images/tutalien1,images/tutrocket1,images/tutalien2,images/t.png,2,practice,true,2,common,1,2020-06-24T13:20:03Z,sub6
two-step-fixation,81,512233,0.0-61.0-2.6,TRUE,TRUE,TRUE,FALSE,"""event"",""trial"",""time""
""blur"",""0"",""0""
""focus"",""1"",""28678""
""fullscreenenter"",""5"",""47102""
","""event"",""trial"",""time""
""blur"",""0"",""0""
","""event"",""trial"",""time""
""focus"",""1"",""28678""
","""event"",""trial"",""time""
""fullscreenenter"",""5"",""47102""
","
",NA,images/earth.jpg,NA,NA,NA,NA,NA,NA,NA,NA,NA,NA,NA,NA,NA,fixation,NA,NA,NA,NA,NA,NA,sub6
d3-animate-choice,82,515059,0.0-61.0-0.7,TRUE,TRUE,TRUE,FALSE,"""event"",""trial"",""time""
""blur"",""0"",""0""
""focus"",""1"",""28678""
""fullscreenenter"",""5"",""47102""
","""event"",""trial"",""time""
""blur"",""0"",""0""
","""event"",""trial"",""time""
""focus"",""1"",""28678""
","""event"",""trial"",""time""
""fullscreenenter"",""5"",""47102""
","
",819.3049999827053,NA,48,NA,NA,3000,1,NA,NA,images/earth.jpg,images/tutrocket2,images/tutrocket1,null,images/tutrocket2,NA,1,practice,null,2,NA,NA,NA,sub6
d3-animate-choice,83,517730,0.0-61.0-1.7,TRUE,TRUE,TRUE,FALSE,"""event"",""trial"",""time""
""blur"",""0"",""0""
""focus"",""1"",""28678""
""fullscreenenter"",""5"",""47102""
","""event"",""trial"",""time""
""blur"",""0"",""0""
","""event"",""trial"",""time""
""focus"",""1"",""28678""
","""event"",""trial"",""time""
""fullscreenenter"",""5"",""47102""
","
",664.9199999810662,NA,48,NA,NA,3000,1,NA,NA,images/tutyellowplanet.jpg,images/tutalien4,images/tutalien3,images/tutrocket2,images/tutalien4,images/t.png,2,practice,true,2,common,1,2020-06-24T13:20:09Z,sub6
two-step-fixation,84,518736,0.0-61.0-2.7,TRUE,TRUE,TRUE,FALSE,"""event"",""trial"",""time""
""blur"",""0"",""0""
""focus"",""1"",""28678""
""fullscreenenter"",""5"",""47102""
","""event"",""trial"",""time""
""blur"",""0"",""0""
","""event"",""trial"",""time""
""focus"",""1"",""28678""
","""event"",""trial"",""time""
""fullscreenenter"",""5"",""47102""
","
",NA,images/earth.jpg,NA,NA,NA,NA,NA,NA,NA,NA,NA,NA,NA,NA,NA,fixation,NA,NA,NA,NA,NA,NA,sub6
d3-animate-choice,85,521396,0.0-61.0-0.8,TRUE,TRUE,TRUE,FALSE,"""event"",""trial"",""time""
""blur"",""0"",""0""
""focus"",""1"",""28678""
""fullscreenenter"",""5"",""47102""
","""event"",""trial"",""time""
""blur"",""0"",""0""
","""event"",""trial"",""time""
""focus"",""1"",""28678""
","""event"",""trial"",""time""
""fullscreenenter"",""5"",""47102""
","
",652.9849999933504,NA,48,NA,NA,3000,1,NA,NA,images/earth.jpg,images/tutrocket2,images/tutrocket1,null,images/tutrocket2,NA,1,practice,null,2,NA,NA,NA,sub6
d3-animate-choice,86,524938,0.0-61.0-1.8,TRUE,TRUE,TRUE,FALSE,"""event"",""trial"",""time""
""blur"",""0"",""0""
""focus"",""1"",""28678""
""fullscreenenter"",""5"",""47102""
","""event"",""trial"",""time""
""blur"",""0"",""0""
","""event"",""trial"",""time""
""focus"",""1"",""28678""
","""event"",""trial"",""time""
""fullscreenenter"",""5"",""47102""
","
",1535.7549999898765,NA,48,NA,NA,3000,1,NA,NA,images/tutgreenplanet.jpg,images/tutalien2,images/tutalien1,images/tutrocket2,images/tutalien2,images/nothing.png,2,practice,false,2,rare,0,2020-06-24T13:20:16Z,sub6
two-step-fixation,87,525944,0.0-61.0-2.8,TRUE,TRUE,TRUE,FALSE,"""event"",""trial"",""time""
""blur"",""0"",""0""
""focus"",""1"",""28678""
""fullscreenenter"",""5"",""47102""
","""event"",""trial"",""time""
""blur"",""0"",""0""
","""event"",""trial"",""time""
""focus"",""1"",""28678""
","""event"",""trial"",""time""
""fullscreenenter"",""5"",""47102""
","
",NA,images/earth.jpg,NA,NA,NA,NA,NA,NA,NA,NA,NA,NA,NA,NA,NA,fixation,NA,NA,NA,NA,NA,NA,sub6
d3-animate-choice,88,528282,0.0-61.0-0.9,TRUE,TRUE,TRUE,FALSE,"""event"",""trial"",""time""
""blur"",""0"",""0""
""focus"",""1"",""28678""
""fullscreenenter"",""5"",""47102""
","""event"",""trial"",""time""
""blur"",""0"",""0""
","""event"",""trial"",""time""
""focus"",""1"",""28678""
","""event"",""trial"",""time""
""fullscreenenter"",""5"",""47102""
","
",331.37499997974373,NA,48,NA,NA,3000,1,NA,NA,images/earth.jpg,images/tutrocket2,images/tutrocket1,null,images/tutrocket2,NA,1,practice,null,2,NA,NA,NA,sub6
d3-animate-choice,89,530874,0.0-61.0-1.9,TRUE,TRUE,TRUE,FALSE,"""event"",""trial"",""time""
""blur"",""0"",""0""
""focus"",""1"",""28678""
""fullscreenenter"",""5"",""47102""
","""event"",""trial"",""time""
""blur"",""0"",""0""
","""event"",""trial"",""time""
""focus"",""1"",""28678""
","""event"",""trial"",""time""
""fullscreenenter"",""5"",""47102""
","
",585.3800000040792,NA,48,NA,NA,3000,1,NA,NA,images/tutyellowplanet.jpg,images/tutalien4,images/tutalien3,images/tutrocket2,images/tutalien4,images/t.png,2,practice,true,2,common,1,2020-06-24T13:20:22Z,sub6
two-step-fixation,90,531877,0.0-61.0-2.9,TRUE,TRUE,TRUE,FALSE,"""event"",""trial"",""time""
""blur"",""0"",""0""
""focus"",""1"",""28678""
""fullscreenenter"",""5"",""47102""
","""event"",""trial"",""time""
""blur"",""0"",""0""
","""event"",""trial"",""time""
""focus"",""1"",""28678""
","""event"",""trial"",""time""
""fullscreenenter"",""5"",""47102""
","
",NA,images/earth.jpg,NA,NA,NA,NA,NA,NA,NA,NA,NA,NA,NA,NA,NA,fixation,NA,NA,NA,NA,NA,NA,sub6
d3-animate-choice,91,535880,0.0-61.0-0.10,TRUE,TRUE,TRUE,FALSE,"""event"",""trial"",""time""
""blur"",""0"",""0""
""focus"",""1"",""28678""
""fullscreenenter"",""5"",""47102""
","""event"",""trial"",""time""
""blur"",""0"",""0""
","""event"",""trial"",""time""
""focus"",""1"",""28678""
","""event"",""trial"",""time""
""fullscreenenter"",""5"",""47102""
","
",2023.9850000070874,NA,48,NA,NA,3000,1,NA,NA,images/earth.jpg,images/tutrocket2,images/tutrocket1,null,images/tutrocket2,NA,1,practice,null,2,NA,NA,NA,sub6
d3-animate-choice,92,539323,0.0-61.0-1.10,TRUE,TRUE,TRUE,FALSE,"""event"",""trial"",""time""
""blur"",""0"",""0""
""focus"",""1"",""28678""
""fullscreenenter"",""5"",""47102""
","""event"",""trial"",""time""
""blur"",""0"",""0""
","""event"",""trial"",""time""
""focus"",""1"",""28678""
","""event"",""trial"",""time""
""fullscreenenter"",""5"",""47102""
","
",1436.149999994086,NA,49,NA,NA,3000,1,NA,NA,images/tutgreenplanet.jpg,images/tutalien2,images/tutalien1,images/tutrocket2,images/tutalien1,images/nothing.png,2,practice,false,1,rare,0,2020-06-24T13:20:31Z,sub6
two-step-fixation,93,540325,0.0-61.0-2.10,TRUE,TRUE,TRUE,FALSE,"""event"",""trial"",""time""
""blur"",""0"",""0""
""focus"",""1"",""28678""
""fullscreenenter"",""5"",""47102""
","""event"",""trial"",""time""
""blur"",""0"",""0""
","""event"",""trial"",""time""
""focus"",""1"",""28678""
","""event"",""trial"",""time""
""fullscreenenter"",""5"",""47102""
","
",NA,images/earth.jpg,NA,NA,NA,NA,NA,NA,NA,NA,NA,NA,NA,NA,NA,fixation,NA,NA,NA,NA,NA,NA,sub6
d3-animate-choice,94,543098,0.0-61.0-0.11,TRUE,TRUE,TRUE,FALSE,"""event"",""trial"",""time""
""blur"",""0"",""0""
""focus"",""1"",""28678""
""fullscreenenter"",""5"",""47102""
","""event"",""trial"",""time""
""blur"",""0"",""0""
","""event"",""trial"",""time""
""focus"",""1"",""28678""
","""event"",""trial"",""time""
""fullscreenenter"",""5"",""47102""
","
",770.4599999997299,NA,49,NA,NA,3000,1,NA,NA,images/earth.jpg,images/tutrocket2,images/tutrocket1,null,images/tutrocket1,NA,1,practice,null,1,NA,NA,NA,sub6
d3-animate-choice,95,545890,0.0-61.0-1.11,TRUE,TRUE,TRUE,FALSE,"""event"",""trial"",""time""
""blur"",""0"",""0""
""focus"",""1"",""28678""
""fullscreenenter"",""5"",""47102""
","""event"",""trial"",""time""
""blur"",""0"",""0""
","""event"",""trial"",""time""
""focus"",""1"",""28678""
","""event"",""trial"",""time""
""fullscreenenter"",""5"",""47102""
","
",790.0050000171177,NA,48,NA,NA,3000,1,NA,NA,images/tutyellowplanet.jpg,images/tutalien4,images/tutalien3,images/tutrocket1,images/tutalien4,images/t.png,2,practice,false,2,rare,1,2020-06-24T13:20:37Z,sub6
two-step-fixation,96,546892,0.0-61.0-2.11,TRUE,TRUE,TRUE,FALSE,"""event"",""trial"",""time""
""blur"",""0"",""0""
""focus"",""1"",""28678""
""fullscreenenter"",""5"",""47102""
","""event"",""trial"",""time""
""blur"",""0"",""0""
","""event"",""trial"",""time""
""focus"",""1"",""28678""
","""event"",""trial"",""time""
""fullscreenenter"",""5"",""47102""
","
",NA,images/earth.jpg,NA,NA,NA,NA,NA,NA,NA,NA,NA,NA,NA,NA,NA,fixation,NA,NA,NA,NA,NA,NA,sub6
d3-animate-choice,97,550499,0.0-61.0-0.12,TRUE,TRUE,TRUE,FALSE,"""event"",""trial"",""time""
""blur"",""0"",""0""
""focus"",""1"",""28678""
""fullscreenenter"",""5"",""47102""
","""event"",""trial"",""time""
""blur"",""0"",""0""
","""event"",""trial"",""time""
""focus"",""1"",""28678""
","""event"",""trial"",""time""
""fullscreenenter"",""5"",""47102""
","
",1604.4150000088848,NA,49,NA,NA,3000,1,NA,NA,images/earth.jpg,images/tutrocket2,images/tutrocket1,null,images/tutrocket1,NA,1,practice,null,1,NA,NA,NA,sub6
d3-animate-choice,98,553171,0.0-61.0-1.12,TRUE,TRUE,TRUE,FALSE,"""event"",""trial"",""time""
""blur"",""0"",""0""
""focus"",""1"",""28678""
""fullscreenenter"",""5"",""47102""
","""event"",""trial"",""time""
""blur"",""0"",""0""
","""event"",""trial"",""time""
""focus"",""1"",""28678""
","""event"",""trial"",""time""
""fullscreenenter"",""5"",""47102""
","
",666.0899999842513,NA,48,NA,NA,3000,1,NA,NA,images/tutyellowplanet.jpg,images/tutalien4,images/tutalien3,images/tutrocket1,images/tutalien4,images/t.png,2,practice,false,2,rare,1,2020-06-24T13:20:45Z,sub6
two-step-fixation,99,554177,0.0-61.0-2.12,TRUE,TRUE,TRUE,FALSE,"""event"",""trial"",""time""
""blur"",""0"",""0""
""focus"",""1"",""28678""
""fullscreenenter"",""5"",""47102""
","""event"",""trial"",""time""
""blur"",""0"",""0""
","""event"",""trial"",""time""
""focus"",""1"",""28678""
","""event"",""trial"",""time""
""fullscreenenter"",""5"",""47102""
","
",NA,images/earth.jpg,NA,NA,NA,NA,NA,NA,NA,NA,NA,NA,NA,NA,NA,fixation,NA,NA,NA,NA,NA,NA,sub6
d3-animate-choice,100,556979,0.0-61.0-0.13,TRUE,TRUE,TRUE,FALSE,"""event"",""trial"",""time""
""blur"",""0"",""0""
""focus"",""1"",""28678""
""fullscreenenter"",""5"",""47102""
","""event"",""trial"",""time""
""blur"",""0"",""0""
","""event"",""trial"",""time""
""focus"",""1"",""28678""
","""event"",""trial"",""time""
""fullscreenenter"",""5"",""47102""
","
",795.6350000167731,NA,48,NA,NA,3000,1,NA,NA,images/earth.jpg,images/tutrocket2,images/tutrocket1,null,images/tutrocket2,NA,1,practice,null,2,NA,NA,NA,sub6
d3-animate-choice,101,559819,0.0-61.0-1.13,TRUE,TRUE,TRUE,FALSE,"""event"",""trial"",""time""
""blur"",""0"",""0""
""focus"",""1"",""28678""
""fullscreenenter"",""5"",""47102""
","""event"",""trial"",""time""
""blur"",""0"",""0""
","""event"",""trial"",""time""
""focus"",""1"",""28678""
","""event"",""trial"",""time""
""fullscreenenter"",""5"",""47102""
","
",833.5500000102911,NA,49,NA,NA,3000,1,NA,NA,images/tutyellowplanet.jpg,images/tutalien4,images/tutalien3,images/tutrocket2,images/tutalien3,images/nothing.png,2,practice,true,1,common,0,2020-06-24T13:20:51Z,sub6
two-step-fixation,102,560825,0.0-61.0-2.13,TRUE,TRUE,TRUE,FALSE,"""event"",""trial"",""time""
""blur"",""0"",""0""
""focus"",""1"",""28678""
""fullscreenenter"",""5"",""47102""
","""event"",""trial"",""time""
""blur"",""0"",""0""
","""event"",""trial"",""time""
""focus"",""1"",""28678""
","""event"",""trial"",""time""
""fullscreenenter"",""5"",""47102""
","
",NA,images/earth.jpg,NA,NA,NA,NA,NA,NA,NA,NA,NA,NA,NA,NA,NA,fixation,NA,NA,NA,NA,NA,NA,sub6
d3-animate-choice,103,563997,0.0-61.0-0.14,TRUE,TRUE,TRUE,FALSE,"""event"",""trial"",""time""
""blur"",""0"",""0""
""focus"",""1"",""28678""
""fullscreenenter"",""5"",""47102""
","""event"",""trial"",""time""
""blur"",""0"",""0""
","""event"",""trial"",""time""
""focus"",""1"",""28678""
","""event"",""trial"",""time""
""fullscreenenter"",""5"",""47102""
","
",1164.9350000079721,NA,49,NA,NA,3000,1,NA,NA,images/earth.jpg,images/tutrocket2,images/tutrocket1,null,images/tutrocket1,NA,1,practice,null,1,NA,NA,NA,sub6
d3-animate-choice,104,566330,0.0-61.0-1.14,TRUE,TRUE,TRUE,FALSE,"""event"",""trial"",""time""
""blur"",""0"",""0""
""focus"",""1"",""28678""
""fullscreenenter"",""5"",""47102""
","""event"",""trial"",""time""
""blur"",""0"",""0""
","""event"",""trial"",""time""
""focus"",""1"",""28678""
","""event"",""trial"",""time""
""fullscreenenter"",""5"",""47102""
","
",327.0900000061374,NA,48,NA,NA,3000,1,NA,NA,images/tutgreenplanet.jpg,images/tutalien2,images/tutalien1,images/tutrocket1,images/tutalien2,images/nothing.png,2,practice,true,2,common,0,2020-06-24T13:20:58Z,sub6
two-step-fixation,105,567336,0.0-61.0-2.14,TRUE,TRUE,TRUE,FALSE,"""event"",""trial"",""time""
""blur"",""0"",""0""
""focus"",""1"",""28678""
""fullscreenenter"",""5"",""47102""
","""event"",""trial"",""time""
""blur"",""0"",""0""
","""event"",""trial"",""time""
""focus"",""1"",""28678""
","""event"",""trial"",""time""
""fullscreenenter"",""5"",""47102""
","
",NA,images/earth.jpg,NA,NA,NA,NA,NA,NA,NA,NA,NA,NA,NA,NA,NA,fixation,NA,NA,NA,NA,NA,NA,sub6
d3-animate-choice,106,570195,0.0-61.0-0.15,TRUE,TRUE,TRUE,FALSE,"""event"",""trial"",""time""
""blur"",""0"",""0""
""focus"",""1"",""28678""
""fullscreenenter"",""5"",""47102""
","""event"",""trial"",""time""
""blur"",""0"",""0""
","""event"",""trial"",""time""
""focus"",""1"",""28678""
","""event"",""trial"",""time""
""fullscreenenter"",""5"",""47102""
","
",851.8749999930151,NA,49,NA,NA,3000,1,NA,NA,images/earth.jpg,images/tutrocket2,images/tutrocket1,null,images/tutrocket1,NA,1,practice,null,1,NA,NA,NA,sub6
d3-animate-choice,107,573722,0.0-61.0-1.15,TRUE,TRUE,TRUE,FALSE,"""event"",""trial"",""time""
""blur"",""0"",""0""
""focus"",""1"",""28678""
""fullscreenenter"",""5"",""47102""
","""event"",""trial"",""time""
""blur"",""0"",""0""
","""event"",""trial"",""time""
""focus"",""1"",""28678""
","""event"",""trial"",""time""
""fullscreenenter"",""5"",""47102""
","
",1520.7850000006147,NA,49,NA,NA,3000,1,NA,NA,images/tutgreenplanet.jpg,images/tutalien2,images/tutalien1,images/tutrocket1,images/tutalien1,images/nothing.png,2,practice,true,1,common,0,2020-06-24T13:21:05Z,sub6
two-step-fixation,108,574728,0.0-61.0-2.15,TRUE,TRUE,TRUE,FALSE,"""event"",""trial"",""time""
""blur"",""0"",""0""
""focus"",""1"",""28678""
""fullscreenenter"",""5"",""47102""
","""event"",""trial"",""time""
""blur"",""0"",""0""
","""event"",""trial"",""time""
""focus"",""1"",""28678""
","""event"",""trial"",""time""
""fullscreenenter"",""5"",""47102""
","
",NA,images/earth.jpg,NA,NA,NA,NA,NA,NA,NA,NA,NA,NA,NA,NA,NA,fixation,NA,NA,NA,NA,NA,NA,sub6
d3-animate-choice,109,577220,0.0-61.0-0.16,TRUE,TRUE,TRUE,FALSE,"""event"",""trial"",""time""
""blur"",""0"",""0""
""focus"",""1"",""28678""
""fullscreenenter"",""5"",""47102""
","""event"",""trial"",""time""
""blur"",""0"",""0""
","""event"",""trial"",""time""
""focus"",""1"",""28678""
","""event"",""trial"",""time""
""fullscreenenter"",""5"",""47102""
","
",485.0600000063423,NA,48,NA,NA,3000,1,NA,NA,images/earth.jpg,images/tutrocket2,images/tutrocket1,null,images/tutrocket2,NA,1,practice,null,2,NA,NA,NA,sub6
d3-animate-choice,110,579778,0.0-61.0-1.16,TRUE,TRUE,TRUE,FALSE,"""event"",""trial"",""time""
""blur"",""0"",""0""
""focus"",""1"",""28678""
""fullscreenenter"",""5"",""47102""
","""event"",""trial"",""time""
""blur"",""0"",""0""
","""event"",""trial"",""time""
""focus"",""1"",""28678""
","""event"",""trial"",""time""
""fullscreenenter"",""5"",""47102""
","
",551.3700000010431,NA,48,NA,NA,3000,1,NA,NA,images/tutyellowplanet.jpg,images/tutalien4,images/tutalien3,images/tutrocket2,images/tutalien4,images/t.png,2,practice,true,2,common,1,2020-06-24T13:21:11Z,sub6
two-step-fixation,111,580784,0.0-61.0-2.16,TRUE,TRUE,TRUE,FALSE,"""event"",""trial"",""time""
""blur"",""0"",""0""
""focus"",""1"",""28678""
""fullscreenenter"",""5"",""47102""
","""event"",""trial"",""time""
""blur"",""0"",""0""
","""event"",""trial"",""time""
""focus"",""1"",""28678""
","""event"",""trial"",""time""
""fullscreenenter"",""5"",""47102""
","
",NA,images/earth.jpg,NA,NA,NA,NA,NA,NA,NA,NA,NA,NA,NA,NA,NA,fixation,NA,NA,NA,NA,NA,NA,sub6
d3-animate-choice,112,583626,0.0-61.0-0.17,TRUE,TRUE,TRUE,FALSE,"""event"",""trial"",""time""
""blur"",""0"",""0""
""focus"",""1"",""28678""
""fullscreenenter"",""5"",""47102""
","""event"",""trial"",""time""
""blur"",""0"",""0""
","""event"",""trial"",""time""
""focus"",""1"",""28678""
","""event"",""trial"",""time""
""fullscreenenter"",""5"",""47102""
","
",835.1799999945797,NA,48,NA,NA,3000,1,NA,NA,images/earth.jpg,images/tutrocket2,images/tutrocket1,null,images/tutrocket2,NA,1,practice,null,2,NA,NA,NA,sub6
d3-animate-choice,113,585962,0.0-61.0-1.17,TRUE,TRUE,TRUE,FALSE,"""event"",""trial"",""time""
""blur"",""0"",""0""
""focus"",""1"",""28678""
""fullscreenenter"",""5"",""47102""
","""event"",""trial"",""time""
""blur"",""0"",""0""
","""event"",""trial"",""time""
""focus"",""1"",""28678""
","""event"",""trial"",""time""
""fullscreenenter"",""5"",""47102""
","
",329.9049999914132,NA,48,NA,NA,3000,1,NA,NA,images/tutyellowplanet.jpg,images/tutalien4,images/tutalien3,images/tutrocket2,images/tutalien4,images/nothing.png,2,practice,true,2,common,0,2020-06-24T13:21:17Z,sub6
two-step-fixation,114,586968,0.0-61.0-2.17,TRUE,TRUE,TRUE,FALSE,"""event"",""trial"",""time""
""blur"",""0"",""0""
""focus"",""1"",""28678""
""fullscreenenter"",""5"",""47102""
","""event"",""trial"",""time""
""blur"",""0"",""0""
","""event"",""trial"",""time""
""focus"",""1"",""28678""
","""event"",""trial"",""time""
""fullscreenenter"",""5"",""47102""
","
",NA,images/earth.jpg,NA,NA,NA,NA,NA,NA,NA,NA,NA,NA,NA,NA,NA,fixation,NA,NA,NA,NA,NA,NA,sub6
d3-animate-choice,115,590123,0.0-61.0-0.18,TRUE,TRUE,TRUE,FALSE,"""event"",""trial"",""time""
""blur"",""0"",""0""
""focus"",""1"",""28678""
""fullscreenenter"",""5"",""47102""
","""event"",""trial"",""time""
""blur"",""0"",""0""
","""event"",""trial"",""time""
""focus"",""1"",""28678""
","""event"",""trial"",""time""
""fullscreenenter"",""5"",""47102""
","
",1148.3350000053179,NA,48,NA,NA,3000,1,NA,NA,images/earth.jpg,images/tutrocket2,images/tutrocket1,null,images/tutrocket2,NA,1,practice,null,2,NA,NA,NA,sub6
d3-animate-choice,116,592513,0.0-61.0-1.18,TRUE,TRUE,TRUE,FALSE,"""event"",""trial"",""time""
""blur"",""0"",""0""
""focus"",""1"",""28678""
""fullscreenenter"",""5"",""47102""
","""event"",""trial"",""time""
""blur"",""0"",""0""
","""event"",""trial"",""time""
""focus"",""1"",""28678""
","""event"",""trial"",""time""
""fullscreenenter"",""5"",""47102""
","
",384.0499999932945,NA,48,NA,NA,3000,1,NA,NA,images/tutyellowplanet.jpg,images/tutalien4,images/tutalien3,images/tutrocket2,images/tutalien4,images/t.png,2,practice,true,2,common,1,2020-06-24T13:21:24Z,sub6
two-step-fixation,117,593519,0.0-61.0-2.18,TRUE,TRUE,TRUE,FALSE,"""event"",""trial"",""time""
""blur"",""0"",""0""
""focus"",""1"",""28678""
""fullscreenenter"",""5"",""47102""
","""event"",""trial"",""time""
""blur"",""0"",""0""
","""event"",""trial"",""time""
""focus"",""1"",""28678""
","""event"",""trial"",""time""
""fullscreenenter"",""5"",""47102""
","
",NA,images/earth.jpg,NA,NA,NA,NA,NA,NA,NA,NA,NA,NA,NA,NA,NA,fixation,NA,NA,NA,NA,NA,NA,sub6
d3-animate-choice,118,596009,0.0-61.0-0.19,TRUE,TRUE,TRUE,FALSE,"""event"",""trial"",""time""
""blur"",""0"",""0""
""focus"",""1"",""28678""
""fullscreenenter"",""5"",""47102""
","""event"",""trial"",""time""
""blur"",""0"",""0""
","""event"",""trial"",""time""
""focus"",""1"",""28678""
","""event"",""trial"",""time""
""fullscreenenter"",""5"",""47102""
","
",483.330000017304,NA,48,NA,NA,3000,1,NA,NA,images/earth.jpg,images/tutrocket2,images/tutrocket1,null,images/tutrocket2,NA,1,practice,null,2,NA,NA,NA,sub6
d3-animate-choice,119,598460,0.0-61.0-1.19,TRUE,TRUE,TRUE,FALSE,"""event"",""trial"",""time""
""blur"",""0"",""0""
""focus"",""1"",""28678""
""fullscreenenter"",""5"",""47102""
","""event"",""trial"",""time""
""blur"",""0"",""0""
","""event"",""trial"",""time""
""focus"",""1"",""28678""
","""event"",""trial"",""time""
""fullscreenenter"",""5"",""47102""
","
",441.80999998934567,NA,48,NA,NA,3000,1,NA,NA,images/tutyellowplanet.jpg,images/tutalien4,images/tutalien3,images/tutrocket2,images/tutalien4,images/t.png,2,practice,true,2,common,1,2020-06-24T13:21:30Z,sub6
two-step-fixation,120,599466,0.0-61.0-2.19,TRUE,TRUE,TRUE,FALSE,"""event"",""trial"",""time""
""blur"",""0"",""0""
""focus"",""1"",""28678""
""fullscreenenter"",""5"",""47102""
","""event"",""trial"",""time""
""blur"",""0"",""0""
","""event"",""trial"",""time""
""focus"",""1"",""28678""
","""event"",""trial"",""time""
""fullscreenenter"",""5"",""47102""
","
",NA,images/earth.jpg,NA,NA,NA,NA,NA,NA,NA,NA,NA,NA,NA,NA,NA,fixation,NA,NA,NA,NA,NA,NA,sub6
d3-instructions,121,606394,0.0-62.0,TRUE,TRUE,TRUE,FALSE,"""event"",""trial"",""time""
""blur"",""0"",""0""
""focus"",""1"",""28678""
""fullscreenenter"",""5"",""47102""
","""event"",""trial"",""time""
""blur"",""0"",""0""
","""event"",""trial"",""time""
""focus"",""1"",""28678""
","""event"",""trial"",""time""
""fullscreenenter"",""5"",""47102""
","
",NA,NA,NA,NA,NA,NA,NA,NA,NA,NA,NA,NA,NA,NA,NA,NA,NA,NA,NA,NA,NA,NA,sub6
audio-keyboard-response,122,610306,0.0-63.0,TRUE,TRUE,TRUE,FALSE,"""event"",""trial"",""time""
""blur"",""0"",""0""
""focus"",""1"",""28678""
""fullscreenenter"",""5"",""47102""
","""event"",""trial"",""time""
""blur"",""0"",""0""
","""event"",""trial"",""time""
""focus"",""1"",""28678""
","""event"",""trial"",""time""
""fullscreenenter"",""5"",""47102""
","
",3909,audio/instructions/treasure_feedback.wav,32,NA,NA,NA,NA,NA,NA,NA,NA,NA,NA,NA,NA,NA,NA,NA,NA,NA,NA,NA,sub6
d3-instructions,123,632425,0.0-64.0,TRUE,TRUE,TRUE,FALSE,"""event"",""trial"",""time""
""blur"",""0"",""0""
""focus"",""1"",""28678""
""fullscreenenter"",""5"",""47102""
","""event"",""trial"",""time""
""blur"",""0"",""0""
","""event"",""trial"",""time""
""focus"",""1"",""28678""
","""event"",""trial"",""time""
""fullscreenenter"",""5"",""47102""
","
",NA,NA,NA,NA,NA,NA,NA,NA,NA,NA,NA,NA,NA,NA,NA,NA,NA,NA,NA,NA,NA,NA,sub6
d3-instructions,124,646496,0.0-65.0,TRUE,TRUE,TRUE,FALSE,"""event"",""trial"",""time""
""blur"",""0"",""0""
""focus"",""1"",""28678""
""fullscreenenter"",""5"",""47102""
","""event"",""trial"",""time""
""blur"",""0"",""0""
","""event"",""trial"",""time""
""focus"",""1"",""28678""
","""event"",""trial"",""time""
""fullscreenenter"",""5"",""47102""
","
",NA,NA,NA,NA,NA,NA,NA,NA,NA,NA,NA,NA,NA,NA,NA,NA,NA,NA,NA,NA,NA,NA,sub6
d3-instructions,125,671754,0.0-66.0,TRUE,TRUE,TRUE,FALSE,"""event"",""trial"",""time""
""blur"",""0"",""0""
""focus"",""1"",""28678""
""fullscreenenter"",""5"",""47102""
","""event"",""trial"",""time""
""blur"",""0"",""0""
","""event"",""trial"",""time""
""focus"",""1"",""28678""
","""event"",""trial"",""time""
""fullscreenenter"",""5"",""47102""
","
",NA,NA,NA,NA,NA,NA,NA,NA,NA,NA,NA,NA,NA,NA,NA,NA,NA,NA,NA,NA,NA,NA,sub6
d3-instructions,126,688297,0.0-67.0,TRUE,TRUE,TRUE,FALSE,"""event"",""trial"",""time""
""blur"",""0"",""0""
""focus"",""1"",""28678""
""fullscreenenter"",""5"",""47102""
","""event"",""trial"",""time""
""blur"",""0"",""0""
","""event"",""trial"",""time""
""focus"",""1"",""28678""
","""event"",""trial"",""time""
""fullscreenenter"",""5"",""47102""
","
",NA,NA,NA,NA,NA,NA,NA,NA,NA,NA,NA,NA,NA,NA,NA,NA,NA,NA,NA,NA,NA,NA,sub6
d3-instructions,127,697393,0.0-68.0,TRUE,TRUE,TRUE,FALSE,"""event"",""trial"",""time""
""blur"",""0"",""0""
""focus"",""1"",""28678""
""fullscreenenter"",""5"",""47102""
","""event"",""trial"",""time""
""blur"",""0"",""0""
","""event"",""trial"",""time""
""focus"",""1"",""28678""
","""event"",""trial"",""time""
""fullscreenenter"",""5"",""47102""
","
",NA,NA,NA,NA,NA,NA,NA,NA,NA,NA,NA,NA,NA,NA,NA,NA,NA,NA,NA,NA,NA,NA,sub6
instructions-quiz,128,702345,0.0-69.0,TRUE,TRUE,TRUE,FALSE,"""event"",""trial"",""time""
""blur"",""0"",""0""
""focus"",""1"",""28678""
""fullscreenenter"",""5"",""47102""
","""event"",""trial"",""time""
""blur"",""0"",""0""
","""event"",""trial"",""time""
""focus"",""1"",""28678""
","""event"",""trial"",""time""
""fullscreenenter"",""5"",""47102""
","
",4948.579999996582,audio/quiz/Q1_Prompt.wav,NA,1,NA,NA,NA,NA,NA,NA,NA,NA,NA,NA,NA,NA,NA,NA,NA,NA,NA,NA,sub6
audio-keyboard-response,129,711510,0.0-70.0,TRUE,TRUE,TRUE,FALSE,"""event"",""trial"",""time""
""blur"",""0"",""0""
""focus"",""1"",""28678""
""fullscreenenter"",""5"",""47102""
","""event"",""trial"",""time""
""blur"",""0"",""0""
","""event"",""trial"",""time""
""focus"",""1"",""28678""
","""event"",""trial"",""time""
""fullscreenenter"",""5"",""47102""
","
",null,audio/quiz/Q1_Correct.wav,null,NA,NA,NA,NA,NA,NA,NA,NA,NA,NA,NA,NA,NA,NA,NA,NA,NA,NA,NA,sub6
instructions-quiz,130,718235,0.0-71.0,TRUE,TRUE,TRUE,FALSE,"""event"",""trial"",""time""
""blur"",""0"",""0""
""focus"",""1"",""28678""
""fullscreenenter"",""5"",""47102""
","""event"",""trial"",""time""
""blur"",""0"",""0""
","""event"",""trial"",""time""
""focus"",""1"",""28678""
","""event"",""trial"",""time""
""fullscreenenter"",""5"",""47102""
","
",6718.759999988833,audio/quiz/Q2_Prompt.wav,NA,0,NA,NA,NA,NA,NA,NA,NA,NA,NA,NA,NA,NA,NA,NA,NA,NA,NA,NA,sub6
audio-keyboard-response,131,731102,0.0-72.0,TRUE,TRUE,TRUE,FALSE,"""event"",""trial"",""time""
""blur"",""0"",""0""
""focus"",""1"",""28678""
""fullscreenenter"",""5"",""47102""
","""event"",""trial"",""time""
""blur"",""0"",""0""
","""event"",""trial"",""time""
""focus"",""1"",""28678""
","""event"",""trial"",""time""
""fullscreenenter"",""5"",""47102""
","
",null,audio/quiz/Q2_Correct.wav,null,NA,NA,NA,NA,NA,NA,NA,NA,NA,NA,NA,NA,NA,NA,NA,NA,NA,NA,NA,sub6
instructions-quiz,132,735403,0.0-73.0,TRUE,TRUE,TRUE,FALSE,"""event"",""trial"",""time""
""blur"",""0"",""0""
""focus"",""1"",""28678""
""fullscreenenter"",""5"",""47102""
","""event"",""trial"",""time""
""blur"",""0"",""0""
","""event"",""trial"",""time""
""focus"",""1"",""28678""
","""event"",""trial"",""time""
""fullscreenenter"",""5"",""47102""
","
",4297.5900000019465,audio/quiz/Q3_Prompt.wav,NA,1,NA,NA,NA,NA,NA,NA,NA,NA,NA,NA,NA,NA,NA,NA,NA,NA,NA,NA,sub6
audio-keyboard-response,133,741202,0.0-74.0,TRUE,TRUE,TRUE,FALSE,"""event"",""trial"",""time""
""blur"",""0"",""0""
""focus"",""1"",""28678""
""fullscreenenter"",""5"",""47102""
","""event"",""trial"",""time""
""blur"",""0"",""0""
","""event"",""trial"",""time""
""focus"",""1"",""28678""
","""event"",""trial"",""time""
""fullscreenenter"",""5"",""47102""
","
",null,audio/quiz/Q3_Correct.wav,null,NA,NA,NA,NA,NA,NA,NA,NA,NA,NA,NA,NA,NA,NA,NA,NA,NA,NA,NA,sub6
d3-instructions,134,755905,0.0-75.0,TRUE,TRUE,TRUE,FALSE,"""event"",""trial"",""time""
""blur"",""0"",""0""
""focus"",""1"",""28678""
""fullscreenenter"",""5"",""47102""
","""event"",""trial"",""time""
""blur"",""0"",""0""
","""event"",""trial"",""time""
""focus"",""1"",""28678""
","""event"",""trial"",""time""
""fullscreenenter"",""5"",""47102""
","
",NA,NA,NA,NA,NA,NA,NA,NA,NA,NA,NA,NA,NA,NA,NA,NA,NA,NA,NA,NA,NA,NA,sub6
d3-animate-choice,135,759155,0.0-76.0-0.0,TRUE,TRUE,TRUE,FALSE,"""event"",""trial"",""time""
""blur"",""0"",""0""
""focus"",""1"",""28678""
""fullscreenenter"",""5"",""47102""
","""event"",""trial"",""time""
""blur"",""0"",""0""
","""event"",""trial"",""time""
""focus"",""1"",""28678""
","""event"",""trial"",""time""
""fullscreenenter"",""5"",""47102""
","
",1242.354999994859,NA,48,NA,NA,3000,1,NA,NA,images/earth.jpg,images/rocket2,images/rocket1,null,images/rocket2,NA,1,real,null,2,NA,NA,NA,sub6
d3-animate-choice,136,761698,0.0-76.0-1.0,TRUE,TRUE,TRUE,FALSE,"""event"",""trial"",""time""
""blur"",""0"",""0""
""focus"",""1"",""28678""
""fullscreenenter"",""5"",""47102""
","""event"",""trial"",""time""
""blur"",""0"",""0""
","""event"",""trial"",""time""
""focus"",""1"",""28678""
","""event"",""trial"",""time""
""fullscreenenter"",""5"",""47102""
","
",536.8749999906868,NA,48,NA,NA,3000,1,NA,NA,images/purpleplanet.jpg,images/alien4,images/alien3,images/rocket2,images/alien4,images/t.png,2,real,true,2,common,1,2020-06-24T13:24:13Z,sub6
two-step-fixation,137,762705,0.0-76.0-2.0,TRUE,TRUE,TRUE,FALSE,"""event"",""trial"",""time""
""blur"",""0"",""0""
""focus"",""1"",""28678""
""fullscreenenter"",""5"",""47102""
","""event"",""trial"",""time""
""blur"",""0"",""0""
","""event"",""trial"",""time""
""focus"",""1"",""28678""
","""event"",""trial"",""time""
""fullscreenenter"",""5"",""47102""
","
",NA,images/earth.jpg,NA,NA,NA,NA,NA,NA,NA,NA,NA,NA,NA,NA,NA,fixation,NA,NA,NA,NA,NA,NA,sub6
d3-animate-choice,138,766113,0.0-76.0-0.1,TRUE,TRUE,TRUE,FALSE,"""event"",""trial"",""time""
""blur"",""0"",""0""
""focus"",""1"",""28678""
""fullscreenenter"",""5"",""47102""
","""event"",""trial"",""time""
""blur"",""0"",""0""
","""event"",""trial"",""time""
""focus"",""1"",""28678""
","""event"",""trial"",""time""
""fullscreenenter"",""5"",""47102""
","
",1402.4499999941327,NA,48,NA,NA,3000,1,NA,NA,images/earth.jpg,images/rocket2,images/rocket1,null,images/rocket2,NA,1,real,null,2,NA,NA,NA,sub6
d3-animate-choice,139,768524,0.0-76.0-1.1,TRUE,TRUE,TRUE,FALSE,"""event"",""trial"",""time""
""blur"",""0"",""0""
""focus"",""1"",""28678""
""fullscreenenter"",""5"",""47102""
","""event"",""trial"",""time""
""blur"",""0"",""0""
","""event"",""trial"",""time""
""focus"",""1"",""28678""
","""event"",""trial"",""time""
""fullscreenenter"",""5"",""47102""
","
",403.8050000090152,NA,48,NA,NA,3000,1,NA,NA,images/purpleplanet.jpg,images/alien4,images/alien3,images/rocket2,images/alien4,images/t.png,2,real,true,2,common,1,2020-06-24T13:24:20Z,sub6
two-step-fixation,140,769530,0.0-76.0-2.1,TRUE,TRUE,TRUE,FALSE,"""event"",""trial"",""time""
""blur"",""0"",""0""
""focus"",""1"",""28678""
""fullscreenenter"",""5"",""47102""
","""event"",""trial"",""time""
""blur"",""0"",""0""
","""event"",""trial"",""time""
""focus"",""1"",""28678""
","""event"",""trial"",""time""
""fullscreenenter"",""5"",""47102""
","
",NA,images/earth.jpg,NA,NA,NA,NA,NA,NA,NA,NA,NA,NA,NA,NA,NA,fixation,NA,NA,NA,NA,NA,NA,sub6
d3-animate-choice,141,771986,0.0-76.0-0.2,TRUE,TRUE,TRUE,FALSE,"""event"",""trial"",""time""
""blur"",""0"",""0""
""focus"",""1"",""28678""
""fullscreenenter"",""5"",""47102""
","""event"",""trial"",""time""
""blur"",""0"",""0""
","""event"",""trial"",""time""
""focus"",""1"",""28678""
","""event"",""trial"",""time""
""fullscreenenter"",""5"",""47102""
","
",449.69499998842366,NA,48,NA,NA,3000,1,NA,NA,images/earth.jpg,images/rocket2,images/rocket1,null,images/rocket2,NA,1,real,null,2,NA,NA,NA,sub6
d3-animate-choice,142,774426,0.0-76.0-1.2,TRUE,TRUE,TRUE,FALSE,"""event"",""trial"",""time""
""blur"",""0"",""0""
""focus"",""1"",""28678""
""fullscreenenter"",""5"",""47102""
","""event"",""trial"",""time""
""blur"",""0"",""0""
","""event"",""trial"",""time""
""focus"",""1"",""28678""
","""event"",""trial"",""time""
""fullscreenenter"",""5"",""47102""
","
",433.4650000091642,NA,48,NA,NA,3000,1,NA,NA,images/purpleplanet.jpg,images/alien4,images/alien3,images/rocket2,images/alien4,images/nothing.png,2,real,true,2,common,0,2020-06-24T13:24:26Z,sub6
two-step-fixation,143,775432,0.0-76.0-2.2,TRUE,TRUE,TRUE,FALSE,"""event"",""trial"",""time""
""blur"",""0"",""0""
""focus"",""1"",""28678""
""fullscreenenter"",""5"",""47102""
","""event"",""trial"",""time""
""blur"",""0"",""0""
","""event"",""trial"",""time""
""focus"",""1"",""28678""
","""event"",""trial"",""time""
""fullscreenenter"",""5"",""47102""
","
",NA,images/earth.jpg,NA,NA,NA,NA,NA,NA,NA,NA,NA,NA,NA,NA,NA,fixation,NA,NA,NA,NA,NA,NA,sub6
d3-animate-choice,144,778076,0.0-76.0-0.3,TRUE,TRUE,TRUE,FALSE,"""event"",""trial"",""time""
""blur"",""0"",""0""
""focus"",""1"",""28678""
""fullscreenenter"",""5"",""47102""
","""event"",""trial"",""time""
""blur"",""0"",""0""
","""event"",""trial"",""time""
""focus"",""1"",""28678""
","""event"",""trial"",""time""
""fullscreenenter"",""5"",""47102""
","
",635.5800000019372,NA,48,NA,NA,3000,1,NA,NA,images/earth.jpg,images/rocket2,images/rocket1,null,images/rocket2,NA,1,real,null,2,NA,NA,NA,sub6
d3-animate-choice,145,780469,0.0-76.0-1.3,TRUE,TRUE,TRUE,FALSE,"""event"",""trial"",""time""
""blur"",""0"",""0""
""focus"",""1"",""28678""
""fullscreenenter"",""5"",""47102""
","""event"",""trial"",""time""
""blur"",""0"",""0""
","""event"",""trial"",""time""
""focus"",""1"",""28678""
","""event"",""trial"",""time""
""fullscreenenter"",""5"",""47102""
","
",386.6449999914039,NA,48,NA,NA,3000,1,NA,NA,images/purpleplanet.jpg,images/alien4,images/alien3,images/rocket2,images/alien4,images/t.png,2,real,true,2,common,1,2020-06-24T13:24:32Z,sub6
two-step-fixation,146,781478,0.0-76.0-2.3,TRUE,TRUE,TRUE,FALSE,"""event"",""trial"",""time""
""blur"",""0"",""0""
""focus"",""1"",""28678""
""fullscreenenter"",""5"",""47102""
","""event"",""trial"",""time""
""blur"",""0"",""0""
","""event"",""trial"",""time""
""focus"",""1"",""28678""
","""event"",""trial"",""time""
""fullscreenenter"",""5"",""47102""
","
",NA,images/earth.jpg,NA,NA,NA,NA,NA,NA,NA,NA,NA,NA,NA,NA,NA,fixation,NA,NA,NA,NA,NA,NA,sub6
d3-animate-choice,147,783947,0.0-76.0-0.4,TRUE,TRUE,TRUE,FALSE,"""event"",""trial"",""time""
""blur"",""0"",""0""
""focus"",""1"",""28678""
""fullscreenenter"",""5"",""47102""
","""event"",""trial"",""time""
""blur"",""0"",""0""
","""event"",""trial"",""time""
""focus"",""1"",""28678""
","""event"",""trial"",""time""
""fullscreenenter"",""5"",""47102""
","
",462.85000001080334,NA,48,NA,NA,3000,1,NA,NA,images/earth.jpg,images/rocket2,images/rocket1,null,images/rocket2,NA,1,real,null,2,NA,NA,NA,sub6
d3-animate-choice,148,786243,0.0-76.0-1.4,TRUE,TRUE,TRUE,FALSE,"""event"",""trial"",""time""
""blur"",""0"",""0""
""focus"",""1"",""28678""
""fullscreenenter"",""5"",""47102""
","""event"",""trial"",""time""
""blur"",""0"",""0""
","""event"",""trial"",""time""
""focus"",""1"",""28678""
","""event"",""trial"",""time""
""fullscreenenter"",""5"",""47102""
","
",289.9799999722745,NA,48,NA,NA,3000,1,NA,NA,images/purpleplanet.jpg,images/alien4,images/alien3,images/rocket2,images/alien4,images/t.png,2,real,true,2,common,1,2020-06-24T13:24:38Z,sub6
two-step-fixation,149,787249,0.0-76.0-2.4,TRUE,TRUE,TRUE,FALSE,"""event"",""trial"",""time""
""blur"",""0"",""0""
""focus"",""1"",""28678""
""fullscreenenter"",""5"",""47102""
","""event"",""trial"",""time""
""blur"",""0"",""0""
","""event"",""trial"",""time""
""focus"",""1"",""28678""
","""event"",""trial"",""time""
""fullscreenenter"",""5"",""47102""
","
",NA,images/earth.jpg,NA,NA,NA,NA,NA,NA,NA,NA,NA,NA,NA,NA,NA,fixation,NA,NA,NA,NA,NA,NA,sub6
d3-animate-choice,150,789611,0.0-76.0-0.5,TRUE,TRUE,TRUE,FALSE,"""event"",""trial"",""time""
""blur"",""0"",""0""
""focus"",""1"",""28678""
""fullscreenenter"",""5"",""47102""
","""event"",""trial"",""time""
""blur"",""0"",""0""
","""event"",""trial"",""time""
""focus"",""1"",""28678""
","""event"",""trial"",""time""
""fullscreenenter"",""5"",""47102""
","
",356.0250000155065,NA,48,NA,NA,3000,1,NA,NA,images/earth.jpg,images/rocket2,images/rocket1,null,images/rocket2,NA,1,real,null,2,NA,NA,NA,sub6
d3-animate-choice,151,792029,0.0-76.0-1.5,TRUE,TRUE,TRUE,FALSE,"""event"",""trial"",""time""
""blur"",""0"",""0""
""focus"",""1"",""28678""
""fullscreenenter"",""5"",""47102""
","""event"",""trial"",""time""
""blur"",""0"",""0""
","""event"",""trial"",""time""
""focus"",""1"",""28678""
","""event"",""trial"",""time""
""fullscreenenter"",""5"",""47102""
","
",411.27500002039596,NA,48,NA,NA,3000,1,NA,NA,images/purpleplanet.jpg,images/alien4,images/alien3,images/rocket2,images/alien4,images/t.png,2,real,true,2,common,1,2020-06-24T13:24:43Z,sub6
two-step-fixation,152,793035,0.0-76.0-2.5,TRUE,TRUE,TRUE,FALSE,"""event"",""trial"",""time""
""blur"",""0"",""0""
""focus"",""1"",""28678""
""fullscreenenter"",""5"",""47102""
","""event"",""trial"",""time""
""blur"",""0"",""0""
","""event"",""trial"",""time""
""focus"",""1"",""28678""
","""event"",""trial"",""time""
""fullscreenenter"",""5"",""47102""
","
",NA,images/earth.jpg,NA,NA,NA,NA,NA,NA,NA,NA,NA,NA,NA,NA,NA,fixation,NA,NA,NA,NA,NA,NA,sub6
d3-animate-choice,153,795315,0.0-76.0-0.6,TRUE,TRUE,TRUE,FALSE,"""event"",""trial"",""time""
""blur"",""0"",""0""
""focus"",""1"",""28678""
""fullscreenenter"",""5"",""47102""
","""event"",""trial"",""time""
""blur"",""0"",""0""
","""event"",""trial"",""time""
""focus"",""1"",""28678""
","""event"",""trial"",""time""
""fullscreenenter"",""5"",""47102""
","
",273.24499998940155,NA,48,NA,NA,3000,1,NA,NA,images/earth.jpg,images/rocket2,images/rocket1,null,images/rocket2,NA,1,real,null,2,NA,NA,NA,sub6
d3-animate-choice,154,797779,0.0-76.0-1.6,TRUE,TRUE,TRUE,FALSE,"""event"",""trial"",""time""
""blur"",""0"",""0""
""focus"",""1"",""28678""
""fullscreenenter"",""5"",""47102""
","""event"",""trial"",""time""
""blur"",""0"",""0""
","""event"",""trial"",""time""
""focus"",""1"",""28678""
","""event"",""trial"",""time""
""fullscreenenter"",""5"",""47102""
","
",457.2950000001583,NA,48,NA,NA,3000,1,NA,NA,images/purpleplanet.jpg,images/alien4,images/alien3,images/rocket2,images/alien4,images/t.png,2,real,true,2,common,1,2020-06-24T13:24:49Z,sub6
two-step-fixation,155,798785,0.0-76.0-2.6,TRUE,TRUE,TRUE,FALSE,"""event"",""trial"",""time""
""blur"",""0"",""0""
""focus"",""1"",""28678""
""fullscreenenter"",""5"",""47102""
","""event"",""trial"",""time""
""blur"",""0"",""0""
","""event"",""trial"",""time""
""focus"",""1"",""28678""
","""event"",""trial"",""time""
""fullscreenenter"",""5"",""47102""
","
",NA,images/earth.jpg,NA,NA,NA,NA,NA,NA,NA,NA,NA,NA,NA,NA,NA,fixation,NA,NA,NA,NA,NA,NA,sub6
d3-animate-choice,156,801106,0.0-76.0-0.7,TRUE,TRUE,TRUE,FALSE,"""event"",""trial"",""time""
""blur"",""0"",""0""
""focus"",""1"",""28678""
""fullscreenenter"",""5"",""47102""
","""event"",""trial"",""time""
""blur"",""0"",""0""
","""event"",""trial"",""time""
""focus"",""1"",""28678""
","""event"",""trial"",""time""
""fullscreenenter"",""5"",""47102""
","
",314.78000001516193,NA,48,NA,NA,3000,1,NA,NA,images/earth.jpg,images/rocket2,images/rocket1,null,images/rocket2,NA,1,real,null,2,NA,NA,NA,sub6
d3-animate-choice,157,803460,0.0-76.0-1.7,TRUE,TRUE,TRUE,FALSE,"""event"",""trial"",""time""
""blur"",""0"",""0""
""focus"",""1"",""28678""
""fullscreenenter"",""5"",""47102""
","""event"",""trial"",""time""
""blur"",""0"",""0""
","""event"",""trial"",""time""
""focus"",""1"",""28678""
","""event"",""trial"",""time""
""fullscreenenter"",""5"",""47102""
","
",347.6000000082422,NA,48,NA,NA,3000,1,2217.6200000103563,48,images/purpleplanet.jpg,images/alien4,images/alien3,images/rocket2,images/alien4,images/t.png,2,real,true,2,common,1,2020-06-24T13:24:55Z,sub6
two-step-fixation,158,804466,0.0-76.0-2.7,TRUE,TRUE,TRUE,FALSE,"""event"",""trial"",""time""
""blur"",""0"",""0""
""focus"",""1"",""28678""
""fullscreenenter"",""5"",""47102""
","""event"",""trial"",""time""
""blur"",""0"",""0""
","""event"",""trial"",""time""
""focus"",""1"",""28678""
","""event"",""trial"",""time""
""fullscreenenter"",""5"",""47102""
","
",NA,images/earth.jpg,NA,NA,NA,NA,NA,NA,NA,NA,NA,NA,NA,NA,NA,fixation,NA,NA,NA,NA,NA,NA,sub6
d3-animate-choice,159,806754,0.0-76.0-0.8,TRUE,TRUE,TRUE,FALSE,"""event"",""trial"",""time""
""blur"",""0"",""0""
""focus"",""1"",""28678""
""fullscreenenter"",""5"",""47102""
","""event"",""trial"",""time""
""blur"",""0"",""0""
","""event"",""trial"",""time""
""focus"",""1"",""28678""
","""event"",""trial"",""time""
""fullscreenenter"",""5"",""47102""
","
",281.27999999560416,NA,48,NA,NA,3000,1,NA,NA,images/earth.jpg,images/rocket2,images/rocket1,null,images/rocket2,NA,1,real,null,2,NA,NA,NA,sub6
d3-animate-choice,160,810760,0.0-76.0-1.8,TRUE,TRUE,TRUE,FALSE,"""event"",""trial"",""time""
""blur"",""0"",""0""
""focus"",""1"",""28678""
""fullscreenenter"",""5"",""47102""
","""event"",""trial"",""time""
""blur"",""0"",""0""
","""event"",""trial"",""time""
""focus"",""1"",""28678""
","""event"",""trial"",""time""
""fullscreenenter"",""5"",""47102""
","
",2297.694999986561,NA,49,NA,NA,3000,1,NA,NA,images/redplanet1.jpg,images/alien2,images/alien1,images/rocket2,images/alien1,images/t.png,2,real,false,1,rare,1,2020-06-24T13:25:02Z,sub6
two-step-fixation,161,811766,0.0-76.0-2.8,TRUE,TRUE,TRUE,FALSE,"""event"",""trial"",""time""
""blur"",""0"",""0""
""focus"",""1"",""28678""
""fullscreenenter"",""5"",""47102""
","""event"",""trial"",""time""
""blur"",""0"",""0""
","""event"",""trial"",""time""
""focus"",""1"",""28678""
","""event"",""trial"",""time""
""fullscreenenter"",""5"",""47102""
","
",NA,images/earth.jpg,NA,NA,NA,NA,NA,NA,NA,NA,NA,NA,NA,NA,NA,fixation,NA,NA,NA,NA,NA,NA,sub6
d3-animate-choice,162,814187,0.0-76.0-0.9,TRUE,TRUE,TRUE,FALSE,"""event"",""trial"",""time""
""blur"",""0"",""0""
""focus"",""1"",""28678""
""fullscreenenter"",""5"",""47102""
","""event"",""trial"",""time""
""blur"",""0"",""0""
","""event"",""trial"",""time""
""focus"",""1"",""28678""
","""event"",""trial"",""time""
""fullscreenenter"",""5"",""47102""
","
",414.584999991348,NA,48,NA,NA,3000,1,NA,NA,images/earth.jpg,images/rocket2,images/rocket1,null,images/rocket2,NA,1,real,null,2,NA,NA,NA,sub6
d3-animate-choice,163,816785,0.0-76.0-1.9,TRUE,TRUE,TRUE,FALSE,"""event"",""trial"",""time""
""blur"",""0"",""0""
""focus"",""1"",""28678""
""fullscreenenter"",""5"",""47102""
","""event"",""trial"",""time""
""blur"",""0"",""0""
","""event"",""trial"",""time""
""focus"",""1"",""28678""
","""event"",""trial"",""time""
""fullscreenenter"",""5"",""47102""
","
",592.1450000023469,NA,48,NA,NA,3000,1,NA,NA,images/purpleplanet.jpg,images/alien4,images/alien3,images/rocket2,images/alien4,images/t.png,2,real,true,2,common,1,2020-06-24T13:25:08Z,sub6
two-step-fixation,164,817791,0.0-76.0-2.9,TRUE,TRUE,TRUE,FALSE,"""event"",""trial"",""time""
""blur"",""0"",""0""
""focus"",""1"",""28678""
""fullscreenenter"",""5"",""47102""
","""event"",""trial"",""time""
""blur"",""0"",""0""
","""event"",""trial"",""time""
""focus"",""1"",""28678""
","""event"",""trial"",""time""
""fullscreenenter"",""5"",""47102""
","
",NA,images/earth.jpg,NA,NA,NA,NA,NA,NA,NA,NA,NA,NA,NA,NA,NA,fixation,NA,NA,NA,NA,NA,NA,sub6
d3-animate-choice,165,820129,0.0-76.0-0.10,TRUE,TRUE,TRUE,FALSE,"""event"",""trial"",""time""
""blur"",""0"",""0""
""focus"",""1"",""28678""
""fullscreenenter"",""5"",""47102""
","""event"",""trial"",""time""
""blur"",""0"",""0""
","""event"",""trial"",""time""
""focus"",""1"",""28678""
","""event"",""trial"",""time""
""fullscreenenter"",""5"",""47102""
","
",332.1750000177417,NA,48,NA,NA,3000,1,NA,NA,images/earth.jpg,images/rocket2,images/rocket1,null,images/rocket2,NA,1,real,null,2,NA,NA,NA,sub6
d3-animate-choice,166,822649,0.0-76.0-1.10,TRUE,TRUE,TRUE,FALSE,"""event"",""trial"",""time""
""blur"",""0"",""0""
""focus"",""1"",""28678""
""fullscreenenter"",""5"",""47102""
","""event"",""trial"",""time""
""blur"",""0"",""0""
","""event"",""trial"",""time""
""focus"",""1"",""28678""
","""event"",""trial"",""time""
""fullscreenenter"",""5"",""47102""
","
",513.4900000120979,NA,48,NA,NA,3000,1,NA,NA,images/purpleplanet.jpg,images/alien4,images/alien3,images/rocket2,images/alien4,images/t.png,2,real,true,2,common,1,2020-06-24T13:25:14Z,sub6
two-step-fixation,167,823655,0.0-76.0-2.10,TRUE,TRUE,TRUE,FALSE,"""event"",""trial"",""time""
""blur"",""0"",""0""
""focus"",""1"",""28678""
""fullscreenenter"",""5"",""47102""
","""event"",""trial"",""time""
""blur"",""0"",""0""
","""event"",""trial"",""time""
""focus"",""1"",""28678""
","""event"",""trial"",""time""
""fullscreenenter"",""5"",""47102""
","
",NA,images/earth.jpg,NA,NA,NA,NA,NA,NA,NA,NA,NA,NA,NA,NA,NA,fixation,NA,NA,NA,NA,NA,NA,sub6
d3-animate-choice,168,826315,0.0-76.0-0.11,TRUE,TRUE,TRUE,FALSE,"""event"",""trial"",""time""
""blur"",""0"",""0""
""focus"",""1"",""28678""
""fullscreenenter"",""5"",""47102""
","""event"",""trial"",""time""
""blur"",""0"",""0""
","""event"",""trial"",""time""
""focus"",""1"",""28678""
","""event"",""trial"",""time""
""fullscreenenter"",""5"",""47102""
","
",655.9200000192504,NA,48,NA,NA,3000,1,NA,NA,images/earth.jpg,images/rocket2,images/rocket1,null,images/rocket2,NA,1,real,null,2,NA,NA,NA,sub6
d3-animate-choice,169,828761,0.0-76.0-1.11,TRUE,TRUE,TRUE,FALSE,"""event"",""trial"",""time""
""blur"",""0"",""0""
""focus"",""1"",""28678""
""fullscreenenter"",""5"",""47102""
","""event"",""trial"",""time""
""blur"",""0"",""0""
","""event"",""trial"",""time""
""focus"",""1"",""28678""
","""event"",""trial"",""time""
""fullscreenenter"",""5"",""47102""
","
",439.4800000009127,NA,48,NA,NA,3000,1,NA,NA,images/purpleplanet.jpg,images/alien4,images/alien3,images/rocket2,images/alien4,images/nothing.png,2,real,true,2,common,0,2020-06-24T13:25:20Z,sub6
two-step-fixation,170,829767,0.0-76.0-2.11,TRUE,TRUE,TRUE,FALSE,"""event"",""trial"",""time""
""blur"",""0"",""0""
""focus"",""1"",""28678""
""fullscreenenter"",""5"",""47102""
","""event"",""trial"",""time""
""blur"",""0"",""0""
","""event"",""trial"",""time""
""focus"",""1"",""28678""
","""event"",""trial"",""time""
""fullscreenenter"",""5"",""47102""
","
",NA,images/earth.jpg,NA,NA,NA,NA,NA,NA,NA,NA,NA,NA,NA,NA,NA,fixation,NA,NA,NA,NA,NA,NA,sub6
d3-animate-choice,171,832121,0.0-76.0-0.12,TRUE,TRUE,TRUE,FALSE,"""event"",""trial"",""time""
""blur"",""0"",""0""
""focus"",""1"",""28678""
""fullscreenenter"",""5"",""47102""
","""event"",""trial"",""time""
""blur"",""0"",""0""
","""event"",""trial"",""time""
""focus"",""1"",""28678""
","""event"",""trial"",""time""
""fullscreenenter"",""5"",""47102""
","
",347.6550000195857,NA,48,NA,NA,3000,1,NA,NA,images/earth.jpg,images/rocket2,images/rocket1,null,images/rocket2,NA,1,real,null,2,NA,NA,NA,sub6
d3-animate-choice,172,834600,0.0-76.0-1.12,TRUE,TRUE,TRUE,FALSE,"""event"",""trial"",""time""
""blur"",""0"",""0""
""focus"",""1"",""28678""
""fullscreenenter"",""5"",""47102""
","""event"",""trial"",""time""
""blur"",""0"",""0""
","""event"",""trial"",""time""
""focus"",""1"",""28678""
","""event"",""trial"",""time""
""fullscreenenter"",""5"",""47102""
","
",472.83499999321066,NA,48,NA,NA,3000,1,NA,NA,images/redplanet1.jpg,images/alien2,images/alien1,images/rocket2,images/alien2,images/nothing.png,2,real,false,2,rare,0,2020-06-24T13:25:26Z,sub6
two-step-fixation,173,835606,0.0-76.0-2.12,TRUE,TRUE,TRUE,FALSE,"""event"",""trial"",""time""
""blur"",""0"",""0""
""focus"",""1"",""28678""
""fullscreenenter"",""5"",""47102""
","""event"",""trial"",""time""
""blur"",""0"",""0""
","""event"",""trial"",""time""
""focus"",""1"",""28678""
","""event"",""trial"",""time""
""fullscreenenter"",""5"",""47102""
","
",NA,images/earth.jpg,NA,NA,NA,NA,NA,NA,NA,NA,NA,NA,NA,NA,NA,fixation,NA,NA,NA,NA,NA,NA,sub6
d3-animate-choice,174,838102,0.0-76.0-0.13,TRUE,TRUE,TRUE,FALSE,"""event"",""trial"",""time""
""blur"",""0"",""0""
""focus"",""1"",""28678""
""fullscreenenter"",""5"",""47102""
","""event"",""trial"",""time""
""blur"",""0"",""0""
","""event"",""trial"",""time""
""focus"",""1"",""28678""
","""event"",""trial"",""time""
""fullscreenenter"",""5"",""47102""
","
",485.58999999659136,NA,48,NA,NA,3000,1,NA,NA,images/earth.jpg,images/rocket2,images/rocket1,null,images/rocket2,NA,1,real,null,2,NA,NA,NA,sub6
d3-animate-choice,175,840524,0.0-76.0-1.13,TRUE,TRUE,TRUE,FALSE,"""event"",""trial"",""time""
""blur"",""0"",""0""
""focus"",""1"",""28678""
""fullscreenenter"",""5"",""47102""
","""event"",""trial"",""time""
""blur"",""0"",""0""
","""event"",""trial"",""time""
""focus"",""1"",""28678""
","""event"",""trial"",""time""
""fullscreenenter"",""5"",""47102""
","
",415.64500000094995,NA,48,NA,NA,3000,1,NA,NA,images/purpleplanet.jpg,images/alien4,images/alien3,images/rocket2,images/alien4,images/t.png,2,real,true,2,common,1,2020-06-24T13:25:32Z,sub6
two-step-fixation,176,841531,0.0-76.0-2.13,TRUE,TRUE,TRUE,FALSE,"""event"",""trial"",""time""
""blur"",""0"",""0""
""focus"",""1"",""28678""
""fullscreenenter"",""5"",""47102""
","""event"",""trial"",""time""
""blur"",""0"",""0""
","""event"",""trial"",""time""
""focus"",""1"",""28678""
","""event"",""trial"",""time""
""fullscreenenter"",""5"",""47102""
","
",NA,images/earth.jpg,NA,NA,NA,NA,NA,NA,NA,NA,NA,NA,NA,NA,NA,fixation,NA,NA,NA,NA,NA,NA,sub6
d3-animate-choice,177,844196,0.0-76.0-0.14,TRUE,TRUE,TRUE,FALSE,"""event"",""trial"",""time""
""blur"",""0"",""0""
""focus"",""1"",""28678""
""fullscreenenter"",""5"",""47102""
","""event"",""trial"",""time""
""blur"",""0"",""0""
","""event"",""trial"",""time""
""focus"",""1"",""28678""
","""event"",""trial"",""time""
""fullscreenenter"",""5"",""47102""
","
",658.7449999933597,NA,49,NA,NA,3000,1,NA,NA,images/earth.jpg,images/rocket2,images/rocket1,null,images/rocket1,NA,1,real,null,1,NA,NA,NA,sub6
d3-animate-choice,178,846675,0.0-76.0-1.14,TRUE,TRUE,TRUE,FALSE,"""event"",""trial"",""time""
""blur"",""0"",""0""
""focus"",""1"",""28678""
""fullscreenenter"",""5"",""47102""
","""event"",""trial"",""time""
""blur"",""0"",""0""
","""event"",""trial"",""time""
""focus"",""1"",""28678""
","""event"",""trial"",""time""
""fullscreenenter"",""5"",""47102""
","
",473.40499999700114,NA,49,NA,NA,3000,1,NA,NA,images/purpleplanet.jpg,images/alien4,images/alien3,images/rocket1,images/alien3,images/t.png,2,real,false,1,rare,1,2020-06-24T13:25:38Z,sub6
two-step-fixation,179,847681,0.0-76.0-2.14,TRUE,TRUE,TRUE,FALSE,"""event"",""trial"",""time""
""blur"",""0"",""0""
""focus"",""1"",""28678""
""fullscreenenter"",""5"",""47102""
","""event"",""trial"",""time""
""blur"",""0"",""0""
","""event"",""trial"",""time""
""focus"",""1"",""28678""
","""event"",""trial"",""time""
""fullscreenenter"",""5"",""47102""
","
",NA,images/earth.jpg,NA,NA,NA,NA,NA,NA,NA,NA,NA,NA,NA,NA,NA,fixation,NA,NA,NA,NA,NA,NA,sub6
d3-animate-choice,180,849981,0.0-76.0-0.15,TRUE,TRUE,TRUE,FALSE,"""event"",""trial"",""time""
""blur"",""0"",""0""
""focus"",""1"",""28678""
""fullscreenenter"",""5"",""47102""
","""event"",""trial"",""time""
""blur"",""0"",""0""
","""event"",""trial"",""time""
""focus"",""1"",""28678""
","""event"",""trial"",""time""
""fullscreenenter"",""5"",""47102""
","
",293.75000001164153,NA,49,NA,NA,3000,1,NA,NA,images/earth.jpg,images/rocket2,images/rocket1,null,images/rocket1,NA,1,real,null,1,NA,NA,NA,sub6
d3-animate-choice,181,852627,0.0-76.0-1.15,TRUE,TRUE,TRUE,FALSE,"""event"",""trial"",""time""
""blur"",""0"",""0""
""focus"",""1"",""28678""
""fullscreenenter"",""5"",""47102""
","""event"",""trial"",""time""
""blur"",""0"",""0""
","""event"",""trial"",""time""
""focus"",""1"",""28678""
","""event"",""trial"",""time""
""fullscreenenter"",""5"",""47102""
","
",639.8350000090431,NA,49,NA,NA,3000,1,NA,NA,images/redplanet1.jpg,images/alien2,images/alien1,images/rocket1,images/alien1,images/t.png,2,real,true,1,common,1,2020-06-24T13:25:44Z,sub6
two-step-fixation,182,853633,0.0-76.0-2.15,TRUE,TRUE,TRUE,FALSE,"""event"",""trial"",""time""
""blur"",""0"",""0""
""focus"",""1"",""28678""
""fullscreenenter"",""5"",""47102""
","""event"",""trial"",""time""
""blur"",""0"",""0""
","""event"",""trial"",""time""
""focus"",""1"",""28678""
","""event"",""trial"",""time""
""fullscreenenter"",""5"",""47102""
","
",NA,images/earth.jpg,NA,NA,NA,NA,NA,NA,NA,NA,NA,NA,NA,NA,NA,fixation,NA,NA,NA,NA,NA,NA,sub6
d3-animate-choice,183,855947,0.0-76.0-0.16,TRUE,TRUE,TRUE,FALSE,"""event"",""trial"",""time""
""blur"",""0"",""0""
""focus"",""1"",""28678""
""fullscreenenter"",""5"",""47102""
","""event"",""trial"",""time""
""blur"",""0"",""0""
","""event"",""trial"",""time""
""focus"",""1"",""28678""
","""event"",""trial"",""time""
""fullscreenenter"",""5"",""47102""
","
",307.10000000544824,NA,49,NA,NA,3000,1,NA,NA,images/earth.jpg,images/rocket2,images/rocket1,null,images/rocket1,NA,1,real,null,1,NA,NA,NA,sub6
d3-animate-choice,184,858595,0.0-76.0-1.16,TRUE,TRUE,TRUE,FALSE,"""event"",""trial"",""time""
""blur"",""0"",""0""
""focus"",""1"",""28678""
""fullscreenenter"",""5"",""47102""
","""event"",""trial"",""time""
""blur"",""0"",""0""
","""event"",""trial"",""time""
""focus"",""1"",""28678""
","""event"",""trial"",""time""
""fullscreenenter"",""5"",""47102""
","
",641.5749999869149,NA,49,NA,NA,3000,1,NA,NA,images/redplanet1.jpg,images/alien2,images/alien1,images/rocket1,images/alien1,images/nothing.png,2,real,true,1,common,0,2020-06-24T13:25:50Z,sub6
two-step-fixation,185,859601,0.0-76.0-2.16,TRUE,TRUE,TRUE,FALSE,"""event"",""trial"",""time""
""blur"",""0"",""0""
""focus"",""1"",""28678""
""fullscreenenter"",""5"",""47102""
","""event"",""trial"",""time""
""blur"",""0"",""0""
","""event"",""trial"",""time""
""focus"",""1"",""28678""
","""event"",""trial"",""time""
""fullscreenenter"",""5"",""47102""
","
",NA,images/earth.jpg,NA,NA,NA,NA,NA,NA,NA,NA,NA,NA,NA,NA,NA,fixation,NA,NA,NA,NA,NA,NA,sub6
d3-animate-choice,186,862061,0.0-76.0-0.17,TRUE,TRUE,TRUE,FALSE,"""event"",""trial"",""time""
""blur"",""0"",""0""
""focus"",""1"",""28678""
""fullscreenenter"",""5"",""47102""
","""event"",""trial"",""time""
""blur"",""0"",""0""
","""event"",""trial"",""time""
""focus"",""1"",""28678""
","""event"",""trial"",""time""
""fullscreenenter"",""5"",""47102""
","
",453.0899999954272,NA,48,NA,NA,3000,1,NA,NA,images/earth.jpg,images/rocket2,images/rocket1,null,images/rocket2,NA,1,real,null,2,NA,NA,NA,sub6
d3-animate-choice,187,864371,0.0-76.0-1.17,TRUE,TRUE,TRUE,FALSE,"""event"",""trial"",""time""
""blur"",""0"",""0""
""focus"",""1"",""28678""
""fullscreenenter"",""5"",""47102""
","""event"",""trial"",""time""
""blur"",""0"",""0""
","""event"",""trial"",""time""
""focus"",""1"",""28678""
","""event"",""trial"",""time""
""fullscreenenter"",""5"",""47102""
","
",302.7849999780301,NA,48,NA,NA,3000,1,NA,NA,images/purpleplanet.jpg,images/alien4,images/alien3,images/rocket2,images/alien4,images/nothing.png,2,real,true,2,common,0,2020-06-24T13:25:56Z,sub6
two-step-fixation,188,865377,0.0-76.0-2.17,TRUE,TRUE,TRUE,FALSE,"""event"",""trial"",""time""
""blur"",""0"",""0""
""focus"",""1"",""28678""
""fullscreenenter"",""5"",""47102""
","""event"",""trial"",""time""
""blur"",""0"",""0""
","""event"",""trial"",""time""
""focus"",""1"",""28678""
","""event"",""trial"",""time""
""fullscreenenter"",""5"",""47102""
","
",NA,images/earth.jpg,NA,NA,NA,NA,NA,NA,NA,NA,NA,NA,NA,NA,NA,fixation,NA,NA,NA,NA,NA,NA,sub6
d3-animate-choice,189,867515,0.0-76.0-0.18,TRUE,TRUE,TRUE,FALSE,"""event"",""trial"",""time""
""blur"",""0"",""0""
""focus"",""1"",""28678""
""fullscreenenter"",""5"",""47102""
","""event"",""trial"",""time""
""blur"",""0"",""0""
","""event"",""trial"",""time""
""focus"",""1"",""28678""
","""event"",""trial"",""time""
""fullscreenenter"",""5"",""47102""
","
",131.1099999875296,NA,49,NA,NA,3000,1,NA,NA,images/earth.jpg,images/rocket2,images/rocket1,null,images/rocket1,NA,1,real,null,1,NA,NA,NA,sub6
d3-animate-choice,190,870098,0.0-76.0-1.18,TRUE,TRUE,TRUE,FALSE,"""event"",""trial"",""time""
""blur"",""0"",""0""
""focus"",""1"",""28678""
""fullscreenenter"",""5"",""47102""
","""event"",""trial"",""time""
""blur"",""0"",""0""
","""event"",""trial"",""time""
""focus"",""1"",""28678""
","""event"",""trial"",""time""
""fullscreenenter"",""5"",""47102""
","
",577.3049999843352,NA,49,NA,NA,3000,1,NA,NA,images/redplanet1.jpg,images/alien2,images/alien1,images/rocket1,images/alien1,images/t.png,2,real,true,1,common,1,2020-06-24T13:26:02Z,sub6
two-step-fixation,191,871104,0.0-76.0-2.18,TRUE,TRUE,TRUE,FALSE,"""event"",""trial"",""time""
""blur"",""0"",""0""
""focus"",""1"",""28678""
""fullscreenenter"",""5"",""47102""
","""event"",""trial"",""time""
""blur"",""0"",""0""
","""event"",""trial"",""time""
""focus"",""1"",""28678""
","""event"",""trial"",""time""
""fullscreenenter"",""5"",""47102""
","
",NA,images/earth.jpg,NA,NA,NA,NA,NA,NA,NA,NA,NA,NA,NA,NA,NA,fixation,NA,NA,NA,NA,NA,NA,sub6
d3-animate-choice,192,873484,0.0-76.0-0.19,TRUE,TRUE,TRUE,FALSE,"""event"",""trial"",""time""
""blur"",""0"",""0""
""focus"",""1"",""28678""
""fullscreenenter"",""5"",""47102""
","""event"",""trial"",""time""
""blur"",""0"",""0""
","""event"",""trial"",""time""
""focus"",""1"",""28678""
","""event"",""trial"",""time""
""fullscreenenter"",""5"",""47102""
","
",373.34499999997206,NA,49,NA,NA,3000,1,NA,NA,images/earth.jpg,images/rocket2,images/rocket1,null,images/rocket1,NA,1,real,null,1,NA,NA,NA,sub6
d3-animate-choice,193,875890,0.0-76.0-1.19,TRUE,TRUE,TRUE,FALSE,"""event"",""trial"",""time""
""blur"",""0"",""0""
""focus"",""1"",""28678""
""fullscreenenter"",""5"",""47102""
","""event"",""trial"",""time""
""blur"",""0"",""0""
","""event"",""trial"",""time""
""focus"",""1"",""28678""
","""event"",""trial"",""time""
""fullscreenenter"",""5"",""47102""
","
",399.9049999983981,NA,49,NA,NA,3000,1,NA,NA,images/redplanet1.jpg,images/alien2,images/alien1,images/rocket1,images/alien1,images/nothing.png,2,real,true,1,common,0,2020-06-24T13:26:07Z,sub6
two-step-fixation,194,876896,0.0-76.0-2.19,TRUE,TRUE,TRUE,FALSE,"""event"",""trial"",""time""
""blur"",""0"",""0""
""focus"",""1"",""28678""
""fullscreenenter"",""5"",""47102""
","""event"",""trial"",""time""
""blur"",""0"",""0""
","""event"",""trial"",""time""
""focus"",""1"",""28678""
","""event"",""trial"",""time""
""fullscreenenter"",""5"",""47102""
","
",NA,images/earth.jpg,NA,NA,NA,NA,NA,NA,NA,NA,NA,NA,NA,NA,NA,fixation,NA,NA,NA,NA,NA,NA,sub6
d3-animate-choice,195,879794,0.0-76.0-0.20,TRUE,TRUE,TRUE,FALSE,"""event"",""trial"",""time""
""blur"",""0"",""0""
""focus"",""1"",""28678""
""fullscreenenter"",""5"",""47102""
","""event"",""trial"",""time""
""blur"",""0"",""0""
","""event"",""trial"",""time""
""focus"",""1"",""28678""
","""event"",""trial"",""time""
""fullscreenenter"",""5"",""47102""
","
",891.0699999833014,NA,49,NA,NA,3000,1,NA,NA,images/earth.jpg,images/rocket2,images/rocket1,null,images/rocket1,NA,1,real,null,1,NA,NA,NA,sub6
d3-animate-choice,196,882186,0.0-76.0-1.20,TRUE,TRUE,TRUE,FALSE,"""event"",""trial"",""time""
""blur"",""0"",""0""
""focus"",""1"",""28678""
""fullscreenenter"",""5"",""47102""
","""event"",""trial"",""time""
""blur"",""0"",""0""
","""event"",""trial"",""time""
""focus"",""1"",""28678""
","""event"",""trial"",""time""
""fullscreenenter"",""5"",""47102""
","
",385.54499999736436,NA,49,NA,NA,3000,1,NA,NA,images/redplanet1.jpg,images/alien2,images/alien1,images/rocket1,images/alien1,images/t.png,2,real,true,1,common,1,2020-06-24T13:26:14Z,sub6
two-step-fixation,197,883192,0.0-76.0-2.20,TRUE,TRUE,TRUE,FALSE,"""event"",""trial"",""time""
""blur"",""0"",""0""
""focus"",""1"",""28678""
""fullscreenenter"",""5"",""47102""
","""event"",""trial"",""time""
""blur"",""0"",""0""
","""event"",""trial"",""time""
""focus"",""1"",""28678""
","""event"",""trial"",""time""
""fullscreenenter"",""5"",""47102""
","
",NA,images/earth.jpg,NA,NA,NA,NA,NA,NA,NA,NA,NA,NA,NA,NA,NA,fixation,NA,NA,NA,NA,NA,NA,sub6
d3-animate-choice,198,885523,0.0-76.0-0.21,TRUE,TRUE,TRUE,FALSE,"""event"",""trial"",""time""
""blur"",""0"",""0""
""focus"",""1"",""28678""
""fullscreenenter"",""5"",""47102""
","""event"",""trial"",""time""
""blur"",""0"",""0""
","""event"",""trial"",""time""
""focus"",""1"",""28678""
","""event"",""trial"",""time""
""fullscreenenter"",""5"",""47102""
","
",322.93500000378117,NA,49,NA,NA,3000,1,NA,NA,images/earth.jpg,images/rocket2,images/rocket1,null,images/rocket1,NA,1,real,null,1,NA,NA,NA,sub6
d3-animate-choice,199,887801,0.0-76.0-1.21,TRUE,TRUE,TRUE,FALSE,"""event"",""trial"",""time""
""blur"",""0"",""0""
""focus"",""1"",""28678""
""fullscreenenter"",""5"",""47102""
