trial_type,trial_index,time_elapsed,internal_node_id,rocket_sides,red_planet_first_rocket,red_display_order,purple_display_order,interactions,blur_events,focus_events,fullscreenenter_events,fullscreenexit_events,rt,stimulus,key_press,button_pressed,success,duration,valid_pressed,rts,keys,planet_text,right_text,left_text,center_text,chosen_text,reward_text,trial_stage,practice_trial,transition_type,reward,timestamp,choice,transition,subject_id
pavlovia,0,4,0.0-0.0,FALSE,FALSE,TRUE,FALSE,"
","
","
","
","
",NA,NA,NA,NA,NA,NA,NA,NA,NA,NA,NA,NA,NA,NA,NA,NA,NA,NA,NA,NA,NA,NA,sub20
html-keyboard-response,1,3987,0.0-1.0,FALSE,FALSE,TRUE,FALSE,"
","
","
","
","
",3981.420000000071,Welcome! Press the space bar to begin.,32,NA,NA,NA,NA,NA,NA,NA,NA,NA,NA,NA,NA,NA,NA,NA,NA,NA,NA,NA,sub20
audio-keyboard-response,2,13068,0.0-2.0,FALSE,FALSE,TRUE,FALSE,"
","
","
","
","
",9061,audio/beep_loop.wav,32,NA,NA,NA,NA,NA,NA,NA,NA,NA,NA,NA,NA,NA,NA,NA,NA,NA,NA,NA,sub20
audio-button-response,3,18992,0.0-3.0,FALSE,FALSE,TRUE,FALSE,"
","
","
","
","
",NaN,audio/fish.mp3,NA,1,NA,NA,NA,NA,NA,NA,NA,NA,NA,NA,NA,NA,NA,NA,NA,NA,NA,NA,sub20
audio-button-response,4,22522,0.0-4.0,FALSE,FALSE,TRUE,FALSE,"""event"",""trial"",""time""
""fullscreenenter"",""5"",""30765""
","
","
","""event"",""trial"",""time""
""fullscreenenter"",""5"",""30765""
","
",NaN,audio/tiger.mp3,NA,4,NA,NA,NA,NA,NA,NA,NA,NA,NA,NA,NA,NA,NA,NA,NA,NA,NA,NA,sub20
fullscreen,5,31720,0.0-5.0,FALSE,FALSE,TRUE,FALSE,"""event"",""trial"",""time""
""fullscreenenter"",""5"",""30765""
","
","
","""event"",""trial"",""time""
""fullscreenenter"",""5"",""30765""
","
",NA,NA,NA,NA,TRUE,NA,NA,NA,NA,NA,NA,NA,NA,NA,NA,NA,NA,NA,NA,NA,NA,NA,sub20
d3-instructions,6,45496,0.0-6.0,FALSE,FALSE,TRUE,FALSE,"""event"",""trial"",""time""
""fullscreenenter"",""5"",""30765""
","
","
","""event"",""trial"",""time""
""fullscreenenter"",""5"",""30765""
","
",NA,NA,NA,NA,NA,NA,NA,NA,NA,NA,NA,NA,NA,NA,NA,NA,NA,NA,NA,NA,NA,NA,sub20
d3-instructions,7,51645,0.0-7.0,FALSE,FALSE,TRUE,FALSE,"""event"",""trial"",""time""
""fullscreenenter"",""5"",""30765""
","
","
","""event"",""trial"",""time""
""fullscreenenter"",""5"",""30765""
","
",NA,NA,NA,NA,NA,NA,NA,NA,NA,NA,NA,NA,NA,NA,NA,NA,NA,NA,NA,NA,NA,NA,sub20
d3-instructions,8,57261,0.0-8.0,FALSE,FALSE,TRUE,FALSE,"""event"",""trial"",""time""
""fullscreenenter"",""5"",""30765""
","
","
","""event"",""trial"",""time""
""fullscreenenter"",""5"",""30765""
","
",NA,NA,NA,NA,NA,NA,NA,NA,NA,NA,NA,NA,NA,NA,NA,NA,NA,NA,NA,NA,NA,NA,sub20
d3-instructions,9,67448,0.0-9.0,FALSE,FALSE,TRUE,FALSE,"""event"",""trial"",""time""
""fullscreenenter"",""5"",""30765""
","
","
","""event"",""trial"",""time""
""fullscreenenter"",""5"",""30765""
","
",NA,NA,NA,NA,NA,NA,NA,NA,NA,NA,NA,NA,NA,NA,NA,NA,NA,NA,NA,NA,NA,NA,sub20
d3-instructions,10,86056,0.0-10.0,FALSE,FALSE,TRUE,FALSE,"""event"",""trial"",""time""
""fullscreenenter"",""5"",""30765""
","
","
","""event"",""trial"",""time""
""fullscreenenter"",""5"",""30765""
","
",NA,NA,NA,NA,NA,NA,NA,NA,NA,NA,NA,NA,NA,NA,NA,NA,NA,NA,NA,NA,NA,NA,sub20
d3-animate-choice,11,104962,0.0-11.0,FALSE,FALSE,TRUE,FALSE,"""event"",""trial"",""time""
""fullscreenenter"",""5"",""30765""
","
","
","""event"",""trial"",""time""
""fullscreenenter"",""5"",""30765""
","
",4959.2000000002445,NA,97,NA,NA,3000,1,"5412.895000000397,6214.165000000328,7667.384999999747,8080.519999999524,13381.594999999827,13803.439999999682,14414.754999999786,16899.12000000004,18161.925000000338",979697969797974800,images/tutgreenplanet.jpg,images/tutalien1,images/tutalien2,null,images/tutalien2,NA,NA,practice,null,NA,NA,NA,NA,sub20
d3-animate-choice,12,111297,0.0-12.0,FALSE,FALSE,TRUE,FALSE,"""event"",""trial"",""time""
""fullscreenenter"",""5"",""30765""
","
","
","""event"",""trial"",""time""
""fullscreenenter"",""5"",""30765""
","
",2100.029999999606,NA,79,NA,NA,3000,1,4331.500000000233,48,images/tutgreenplanet.jpg,images/tutalien1,images/tutalien2,null,images/tutalien1,NA,NA,practice,null,NA,NA,NA,NA,sub20
d3-animate-choice,13,114846,0.0-13.0,FALSE,FALSE,TRUE,FALSE,"""event"",""trial"",""time""
""fullscreenenter"",""5"",""30765""
","
","
","""event"",""trial"",""time""
""fullscreenenter"",""5"",""30765""
","
",1545.0750000000116,NA,49,NA,NA,3000,1,"2389.970000000176,3002.8499999998603",4848,images/tutgreenplanet.jpg,images/tutalien1,images/tutalien2,null,images/tutalien2,NA,NA,practice,null,NA,NA,NA,NA,sub20
d3-animate-choice,14,118369,0.0-14.0,FALSE,FALSE,TRUE,FALSE,"""event"",""trial"",""time""
""fullscreenenter"",""5"",""30765""
","
","
","""event"",""trial"",""time""
""fullscreenenter"",""5"",""30765""
","
",1519.5100000000966,NA,48,NA,NA,3000,1,"1857.4150000004156,2141.499999999738,2381.784999999596,2436.114999999525,2653.140000000334,2684.3300000000454,2865.420000000071,2893.4600000002247,3052.1749999998137,3102.4950000000827,3268.7299999997776,3492.0949999995937",4948494849484948e8,images/tutgreenplanet.jpg,images/tutalien1,images/tutalien2,null,images/tutalien1,NA,NA,practice,null,NA,NA,NA,NA,sub20
d3-instructions,15,125578,0.0-15.0,FALSE,FALSE,TRUE,FALSE,"""event"",""trial"",""time""
""fullscreenenter"",""5"",""30765""
","
","
","""event"",""trial"",""time""
""fullscreenenter"",""5"",""30765""
","
",NA,NA,NA,NA,NA,NA,NA,NA,NA,NA,NA,NA,NA,NA,NA,NA,NA,NA,NA,NA,NA,NA,sub20
d3-instructions,16,132791,0.0-16.0,FALSE,FALSE,TRUE,FALSE,"""event"",""trial"",""time""
""fullscreenenter"",""5"",""30765""
","
","
","""event"",""trial"",""time""
""fullscreenenter"",""5"",""30765""
","
",NA,NA,NA,NA,NA,NA,NA,NA,NA,NA,NA,NA,NA,NA,NA,NA,NA,NA,NA,NA,NA,NA,sub20
d3-instructions,17,134868,0.0-17.0,FALSE,FALSE,TRUE,FALSE,"""event"",""trial"",""time""
""fullscreenenter"",""5"",""30765""
","
","
","""event"",""trial"",""time""
""fullscreenenter"",""5"",""30765""
","
",NA,NA,NA,NA,NA,NA,NA,NA,NA,NA,NA,NA,NA,NA,NA,NA,NA,NA,NA,NA,NA,NA,sub20
d3-instructions,18,140085,0.0-18.0,FALSE,FALSE,TRUE,FALSE,"""event"",""trial"",""time""
""fullscreenenter"",""5"",""30765""
","
","
","""event"",""trial"",""time""
""fullscreenenter"",""5"",""30765""
","
",NA,NA,NA,NA,NA,NA,NA,NA,NA,NA,NA,NA,NA,NA,NA,NA,NA,NA,NA,NA,NA,NA,sub20
d3-instructions,19,153773,0.0-19.0,FALSE,FALSE,TRUE,FALSE,"""event"",""trial"",""time""
""fullscreenenter"",""5"",""30765""
","
","
","""event"",""trial"",""time""
""fullscreenenter"",""5"",""30765""
","
",NA,NA,NA,NA,NA,NA,NA,NA,NA,NA,NA,NA,NA,NA,NA,NA,NA,NA,NA,NA,NA,NA,sub20
d3-animate-choice,20,157143,0.0-20.0,FALSE,FALSE,TRUE,FALSE,"""event"",""trial"",""time""
""fullscreenenter"",""5"",""30765""
","
","
","""event"",""trial"",""time""
""fullscreenenter"",""5"",""30765""
","
",1365.9649999999383,NA,49,NA,NA,3000,1,"1702.0950000005541,2041.7100000003993,2298.6950000003853,3012.0800000004238,3357.0350000000035",4949494949,images/tutyellowplanet.jpg,null,images/tutalien3,null,images/tutalien3,images/t.png,NA,practice,null,NA,NA,NA,NA,sub20
d3-animate-choice,21,159412,0.0-21.0,FALSE,FALSE,TRUE,FALSE,"""event"",""trial"",""time""
""fullscreenenter"",""5"",""30765""
","
","
","""event"",""trial"",""time""
""fullscreenenter"",""5"",""30765""
","
",266.5049999995972,NA,49,NA,NA,3000,1,"540.4950000001991,805.9599999996717,1015.5799999993178,1290.7500000001164,1840.104999999312,2135.8449999997974",494949494949,images/tutyellowplanet.jpg,null,images/tutalien3,null,images/tutalien3,images/t.png,NA,practice,null,NA,NA,NA,NA,sub20
d3-animate-choice,22,161490,0.0-22.0,FALSE,FALSE,TRUE,FALSE,"""event"",""trial"",""time""
""fullscreenenter"",""5"",""30765""
","
","
","""event"",""trial"",""time""
""fullscreenenter"",""5"",""30765""
","
",75.20999999999185,NA,49,NA,NA,3000,1,"287.70499999975436,470.93999999924563,663.2199999994773,908.3149999996822,1081.0749999991676,1301.7399999999034,1480.6049999997485,1691.8499999992782,1902.8899999994028",494949494949494900,images/tutyellowplanet.jpg,null,images/tutalien3,null,images/tutalien3,images/t.png,NA,practice,null,NA,NA,NA,NA,sub20
d3-animate-choice,23,163541,0.0-23.0,FALSE,FALSE,TRUE,FALSE,"""event"",""trial"",""time""
""fullscreenenter"",""5"",""30765""
","
","
","""event"",""trial"",""time""
""fullscreenenter"",""5"",""30765""
","
",48.4900000001071,NA,49,NA,NA,3000,1,"274.3499999996857,473.1799999999348,662.1850000001141,866.1499999998196,1064.9750000002095,1276.2999999995227,1514.8300000000745,1703.8999999994994,1835.4849999995786",494949494949494900,images/tutyellowplanet.jpg,null,images/tutalien3,null,images/tutalien3,images/t.png,NA,practice,null,NA,NA,NA,NA,sub20
d3-animate-choice,24,165630,0.0-24.0,FALSE,FALSE,TRUE,FALSE,"""event"",""trial"",""time""
""fullscreenenter"",""5"",""30765""
","
","
","""event"",""trial"",""time""
""fullscreenenter"",""5"",""30765""
","
",85.68499999999767,NA,49,NA,NA,3000,1,"497.66499999986263,713.109999999695,929.6299999996263,1148.5599999996484,1459.3850000001257,1662.83000000022,1873.300000000192,2061.2549999996263",4949494949494949,images/tutyellowplanet.jpg,null,images/tutalien3,null,images/tutalien3,images/t.png,NA,practice,null,NA,NA,NA,NA,sub20
d3-animate-choice,25,167815,0.0-25.0,FALSE,FALSE,TRUE,FALSE,"""event"",""trial"",""time""
""fullscreenenter"",""5"",""30765""
","
","
","""event"",""trial"",""time""
""fullscreenenter"",""5"",""30765""
","
",182.6799999998766,NA,49,NA,NA,3000,1,"369.539999999688,560.7449999997625,784.6449999997276,986.0200000002806,1192.2549999999173,1393.245000000199,1596.9549999999872,1863.0050000001502,2069.285000000469",494949494949494900,images/tutyellowplanet.jpg,null,images/tutalien3,null,images/tutalien3,images/t.png,NA,practice,null,NA,NA,NA,NA,sub20
d3-animate-choice,26,169937,0.0-26.0,FALSE,FALSE,TRUE,FALSE,"""event"",""trial"",""time""
""fullscreenenter"",""5"",""30765""
","
","
","""event"",""trial"",""time""
""fullscreenenter"",""5"",""30765""
","
",118.18499999935739,NA,49,NA,NA,3000,1,"358.4649999993562,628.0999999999185,837.9450000002398,1060.5049999994808,1286.6399999993737,1507.679999999702,1743.3000000001048,1969.9649999993271",4949494949494949,images/tutyellowplanet.jpg,null,images/tutalien3,null,images/tutalien3,images/t.png,NA,practice,null,NA,NA,NA,NA,sub20
d3-animate-choice,27,172122,0.0-27.0,FALSE,FALSE,TRUE,FALSE,"""event"",""trial"",""time""
""fullscreenenter"",""5"",""30765""
","
","
","""event"",""trial"",""time""
""fullscreenenter"",""5"",""30765""
","
",181.9900000000489,NA,49,NA,NA,3000,1,"366.0099999997183,572.3149999994203,1582.1900000000896",494949,images/tutyellowplanet.jpg,null,images/tutalien3,null,images/tutalien3,images/t.png,NA,practice,null,NA,NA,NA,NA,sub20
d3-animate-choice,28,174248,0.0-28.0,FALSE,FALSE,TRUE,FALSE,"""event"",""trial"",""time""
""fullscreenenter"",""5"",""30765""
","
","
","""event"",""trial"",""time""
""fullscreenenter"",""5"",""30765""
","
",123.04500000027474,NA,49,NA,NA,3000,1,NA,NA,images/tutyellowplanet.jpg,null,images/tutalien3,null,images/tutalien3,images/t.png,NA,practice,null,NA,NA,NA,NA,sub20
d3-animate-choice,29,176364,0.0-29.0,FALSE,FALSE,TRUE,FALSE,"""event"",""trial"",""time""
""fullscreenenter"",""5"",""30765""
","
","
","""event"",""trial"",""time""
""fullscreenenter"",""5"",""30765""
","
",113.0300000004354,NA,49,NA,NA,3000,1,NA,NA,images/tutyellowplanet.jpg,null,images/tutalien3,null,images/tutalien3,images/t.png,NA,practice,null,NA,NA,NA,NA,sub20
d3-instructions,30,183829,0.0-30.0,FALSE,FALSE,TRUE,FALSE,"""event"",""trial"",""time""
""fullscreenenter"",""5"",""30765""
","
","
","""event"",""trial"",""time""
""fullscreenenter"",""5"",""30765""
","
",NA,NA,NA,NA,NA,NA,NA,NA,NA,NA,NA,NA,NA,NA,NA,NA,NA,NA,NA,NA,NA,NA,sub20
d3-instructions,31,194190,0.0-31.0,FALSE,FALSE,TRUE,FALSE,"""event"",""trial"",""time""
""fullscreenenter"",""5"",""30765""
","
","
","""event"",""trial"",""time""
""fullscreenenter"",""5"",""30765""
","
",NA,NA,NA,NA,NA,NA,NA,NA,NA,NA,NA,NA,NA,NA,NA,NA,NA,NA,NA,NA,NA,NA,sub20
d3-instructions,32,201368,0.0-32.0,FALSE,FALSE,TRUE,FALSE,"""event"",""trial"",""time""
""fullscreenenter"",""5"",""30765""
","
","
","""event"",""trial"",""time""
""fullscreenenter"",""5"",""30765""
","
",NA,NA,NA,NA,NA,NA,NA,NA,NA,NA,NA,NA,NA,NA,NA,NA,NA,NA,NA,NA,NA,NA,sub20
d3-instructions,33,213406,0.0-33.0,FALSE,FALSE,TRUE,FALSE,"""event"",""trial"",""time""
""fullscreenenter"",""5"",""30765""
","
","
","""event"",""trial"",""time""
""fullscreenenter"",""5"",""30765""
","
",NA,NA,NA,NA,NA,NA,NA,NA,NA,NA,NA,NA,NA,NA,NA,NA,NA,NA,NA,NA,NA,NA,sub20
d3-animate-choice,34,221313,0.0-34.0,FALSE,FALSE,TRUE,FALSE,"""event"",""trial"",""time""
""fullscreenenter"",""5"",""30765""
","
","
","""event"",""trial"",""time""
""fullscreenenter"",""5"",""30765""
","
",5904.590000000084,NA,48,NA,NA,3000,1,NA,NA,images/tutgreenplanet.jpg,images/tutalien1,images/tutalien2,null,images/tutalien1,images/t.png,NA,practice,null,NA,NA,NA,NA,sub20
d3-animate-choice,35,224673,0.0-35.0,FALSE,FALSE,TRUE,FALSE,"""event"",""trial"",""time""
""fullscreenenter"",""5"",""30765""
","
","
","""event"",""trial"",""time""
""fullscreenenter"",""5"",""30765""
","
",1358.8650000001653,NA,48,NA,NA,3000,1,NA,NA,images/tutgreenplanet.jpg,images/tutalien1,images/tutalien2,null,images/tutalien1,images/nothing.png,NA,practice,null,NA,NA,NA,NA,sub20
d3-animate-choice,36,228097,0.0-36.0,FALSE,FALSE,TRUE,FALSE,"""event"",""trial"",""time""
""fullscreenenter"",""5"",""30765""
","
","
","""event"",""trial"",""time""
""fullscreenenter"",""5"",""30765""
","
",1420.3649999999616,NA,48,NA,NA,3000,1,NA,NA,images/tutgreenplanet.jpg,images/tutalien1,images/tutalien2,null,images/tutalien1,images/nothing.png,NA,practice,null,NA,NA,NA,NA,sub20
d3-animate-choice,37,231072,0.0-37.0,FALSE,FALSE,TRUE,FALSE,"""event"",""trial"",""time""
""fullscreenenter"",""5"",""30765""
","
","
","""event"",""trial"",""time""
""fullscreenenter"",""5"",""30765""
","
",972.3400000002584,NA,48,NA,NA,3000,1,NA,NA,images/tutgreenplanet.jpg,images/tutalien1,images/tutalien2,null,images/tutalien1,images/nothing.png,NA,practice,null,NA,NA,NA,NA,sub20
d3-animate-choice,38,233401,0.0-38.0,FALSE,FALSE,TRUE,FALSE,"""event"",""trial"",""time""
""fullscreenenter"",""5"",""30765""
","
","
","""event"",""trial"",""time""
""fullscreenenter"",""5"",""30765""
","
",325.4449999994831,NA,49,NA,NA,3000,1,NA,NA,images/tutgreenplanet.jpg,images/tutalien1,images/tutalien2,null,images/tutalien2,images/t.png,NA,practice,null,NA,NA,NA,NA,sub20
d3-animate-choice,39,236302,0.0-39.0,FALSE,FALSE,TRUE,FALSE,"""event"",""trial"",""time""
""fullscreenenter"",""5"",""30765""
","
","
","""event"",""trial"",""time""
""fullscreenenter"",""5"",""30765""
","
",898.0449999998964,NA,48,NA,NA,3000,1,NA,NA,images/tutgreenplanet.jpg,images/tutalien1,images/tutalien2,null,images/tutalien1,images/nothing.png,NA,practice,null,NA,NA,NA,NA,sub20
d3-animate-choice,40,238788,0.0-40.0,FALSE,FALSE,TRUE,FALSE,"""event"",""trial"",""time""
""fullscreenenter"",""5"",""30765""
","
","
","""event"",""trial"",""time""
""fullscreenenter"",""5"",""30765""
","
",482.404999999766,NA,49,NA,NA,3000,1,NA,NA,images/tutgreenplanet.jpg,images/tutalien1,images/tutalien2,null,images/tutalien2,images/t.png,NA,practice,null,NA,NA,NA,NA,sub20
d3-animate-choice,41,241134,0.0-41.0,FALSE,FALSE,TRUE,FALSE,"""event"",""trial"",""time""
""fullscreenenter"",""5"",""30765""
","
","
","""event"",""trial"",""time""
""fullscreenenter"",""5"",""30765""
","
",342.8100000001141,NA,49,NA,NA,3000,1,2000.694999999716,48,images/tutgreenplanet.jpg,images/tutalien1,images/tutalien2,null,images/tutalien2,images/nothing.png,NA,practice,null,NA,NA,NA,NA,sub20
d3-animate-choice,42,243457,0.0-42.0,FALSE,FALSE,TRUE,FALSE,"""event"",""trial"",""time""
""fullscreenenter"",""5"",""30765""
","
","
","""event"",""trial"",""time""
""fullscreenenter"",""5"",""30765""
","
",320.82999999966705,NA,48,NA,NA,3000,1,NA,NA,images/tutgreenplanet.jpg,images/tutalien1,images/tutalien2,null,images/tutalien1,images/nothing.png,NA,practice,null,NA,NA,NA,NA,sub20
d3-animate-choice,43,246035,0.0-43.0,FALSE,FALSE,TRUE,FALSE,"""event"",""trial"",""time""
""fullscreenenter"",""5"",""30765""
","
","
","""event"",""trial"",""time""
""fullscreenenter"",""5"",""30765""
","
",573.5999999997148,NA,48,NA,NA,3000,1,"591.6299999998882,2119.3949999997276,2478.060000000376",494949,images/tutgreenplanet.jpg,images/tutalien1,images/tutalien2,null,images/tutalien1,images/nothing.png,NA,practice,null,NA,NA,NA,NA,sub20
d3-instructions,44,260984,0.0-44.0,FALSE,FALSE,TRUE,FALSE,"""event"",""trial"",""time""
""fullscreenenter"",""5"",""30765""
","
","
","""event"",""trial"",""time""
""fullscreenenter"",""5"",""30765""
","
",NA,NA,NA,NA,NA,NA,NA,NA,NA,NA,NA,NA,NA,NA,NA,NA,NA,NA,NA,NA,NA,NA,sub20
d3-instructions,45,266285,0.0-45.0,FALSE,FALSE,TRUE,FALSE,"""event"",""trial"",""time""
""fullscreenenter"",""5"",""30765""
","
","
","""event"",""trial"",""time""
""fullscreenenter"",""5"",""30765""
","
",NA,NA,NA,NA,NA,NA,NA,NA,NA,NA,NA,NA,NA,NA,NA,NA,NA,NA,NA,NA,NA,NA,sub20
d3-instructions,46,271020,0.0-46.0,FALSE,FALSE,TRUE,FALSE,"""event"",""trial"",""time""
""fullscreenenter"",""5"",""30765""
","
","
","""event"",""trial"",""time""
""fullscreenenter"",""5"",""30765""
","
",NA,NA,NA,NA,NA,NA,NA,NA,NA,NA,NA,NA,NA,NA,NA,NA,NA,NA,NA,NA,NA,NA,sub20
d3-instructions,47,276729,0.0-47.0,FALSE,FALSE,TRUE,FALSE,"""event"",""trial"",""time""
""fullscreenenter"",""5"",""30765""
","
","
","""event"",""trial"",""time""
""fullscreenenter"",""5"",""30765""
","
",NA,NA,NA,NA,NA,NA,NA,NA,NA,NA,NA,NA,NA,NA,NA,NA,NA,NA,NA,NA,NA,NA,sub20
d3-instructions,48,283130,0.0-48.0,FALSE,FALSE,TRUE,FALSE,"""event"",""trial"",""time""
""fullscreenenter"",""5"",""30765""
","
","
","""event"",""trial"",""time""
""fullscreenenter"",""5"",""30765""
","
",NA,NA,NA,NA,NA,NA,NA,NA,NA,NA,NA,NA,NA,NA,NA,NA,NA,NA,NA,NA,NA,NA,sub20
d3-instructions,49,297028,0.0-49.0,FALSE,FALSE,TRUE,FALSE,"""event"",""trial"",""time""
""fullscreenenter"",""5"",""30765""
","
","
","""event"",""trial"",""time""
""fullscreenenter"",""5"",""30765""
","
",NA,NA,NA,NA,NA,NA,NA,NA,NA,NA,NA,NA,NA,NA,NA,NA,NA,NA,NA,NA,NA,NA,sub20
d3-instructions,50,302085,0.0-50.0,FALSE,FALSE,TRUE,FALSE,"""event"",""trial"",""time""
""fullscreenenter"",""5"",""30765""
","
","
","""event"",""trial"",""time""
""fullscreenenter"",""5"",""30765""
","
",NA,NA,NA,NA,NA,NA,NA,NA,NA,NA,NA,NA,NA,NA,NA,NA,NA,NA,NA,NA,NA,NA,sub20
d3-instructions,51,305205,0.0-51.0,FALSE,FALSE,TRUE,FALSE,"""event"",""trial"",""time""
""fullscreenenter"",""5"",""30765""
","
","
","""event"",""trial"",""time""
""fullscreenenter"",""5"",""30765""
","
",NA,NA,NA,NA,NA,NA,NA,NA,NA,NA,NA,NA,NA,NA,NA,NA,NA,NA,NA,NA,NA,NA,sub20
d3-instructions,52,308088,0.0-52.0,FALSE,FALSE,TRUE,FALSE,"""event"",""trial"",""time""
""fullscreenenter"",""5"",""30765""
","
","
","""event"",""trial"",""time""
""fullscreenenter"",""5"",""30765""
","
",NA,NA,NA,NA,NA,NA,NA,NA,NA,NA,NA,NA,NA,NA,NA,NA,NA,NA,NA,NA,NA,NA,sub20
d3-instructions,53,310705,0.0-53.0,FALSE,FALSE,TRUE,FALSE,"""event"",""trial"",""time""
""fullscreenenter"",""5"",""30765""
","
","
","""event"",""trial"",""time""
""fullscreenenter"",""5"",""30765""
","
",NA,NA,NA,NA,NA,NA,NA,NA,NA,NA,NA,NA,NA,NA,NA,NA,NA,NA,NA,NA,NA,NA,sub20
d3-instructions,54,312399,0.0-54.0,FALSE,FALSE,TRUE,FALSE,"""event"",""trial"",""time""
""fullscreenenter"",""5"",""30765""
","
","
","""event"",""trial"",""time""
""fullscreenenter"",""5"",""30765""
","
",NA,NA,NA,NA,NA,NA,NA,NA,NA,NA,NA,NA,NA,NA,NA,NA,NA,NA,NA,NA,NA,NA,sub20
d3-instructions,55,314146,0.0-55.0,FALSE,FALSE,TRUE,FALSE,"""event"",""trial"",""time""
""fullscreenenter"",""5"",""30765""
","
","
","""event"",""trial"",""time""
""fullscreenenter"",""5"",""30765""
","
",NA,NA,NA,NA,NA,NA,NA,NA,NA,NA,NA,NA,NA,NA,NA,NA,NA,NA,NA,NA,NA,NA,sub20
d3-instructions,56,321751,0.0-56.0,FALSE,FALSE,TRUE,FALSE,"""event"",""trial"",""time""
""fullscreenenter"",""5"",""30765""
","
","
","""event"",""trial"",""time""
""fullscreenenter"",""5"",""30765""
","
",NA,NA,NA,NA,NA,NA,NA,NA,NA,NA,NA,NA,NA,NA,NA,NA,NA,NA,NA,NA,NA,NA,sub20
d3-instructions,57,329590,0.0-57.0,FALSE,FALSE,TRUE,FALSE,"""event"",""trial"",""time""
""fullscreenenter"",""5"",""30765""
","
","
","""event"",""trial"",""time""
""fullscreenenter"",""5"",""30765""
","
",NA,NA,NA,NA,NA,NA,NA,NA,NA,NA,NA,NA,NA,NA,NA,NA,NA,NA,NA,NA,NA,NA,sub20
d3-instructions,58,342160,0.0-58.0,FALSE,FALSE,TRUE,FALSE,"""event"",""trial"",""time""
""fullscreenenter"",""5"",""30765""
","
","
","""event"",""trial"",""time""
""fullscreenenter"",""5"",""30765""
","
",NA,NA,NA,NA,NA,NA,NA,NA,NA,NA,NA,NA,NA,NA,NA,NA,NA,NA,NA,NA,NA,NA,sub20
d3-instructions,59,351572,0.0-59.0,FALSE,FALSE,TRUE,FALSE,"""event"",""trial"",""time""
""fullscreenenter"",""5"",""30765""
","
","
","""event"",""trial"",""time""
""fullscreenenter"",""5"",""30765""
","
",NA,NA,NA,NA,NA,NA,NA,NA,NA,NA,NA,NA,NA,NA,NA,NA,NA,NA,NA,NA,NA,NA,sub20
d3-instructions,60,357130,0.0-60.0,FALSE,FALSE,TRUE,FALSE,"""event"",""trial"",""time""
""fullscreenenter"",""5"",""30765""
","
","
","""event"",""trial"",""time""
""fullscreenenter"",""5"",""30765""
","
",NA,NA,NA,NA,NA,NA,NA,NA,NA,NA,NA,NA,NA,NA,NA,NA,NA,NA,NA,NA,NA,NA,sub20
d3-animate-choice,61,361136,0.0-61.0-0.0,FALSE,FALSE,TRUE,FALSE,"""event"",""trial"",""time""
""fullscreenenter"",""5"",""30765""
","
","
","""event"",""trial"",""time""
""fullscreenenter"",""5"",""30765""
","
",null,NA,null,NA,NA,3000,0,NA,NA,images/earth.jpg,images/tutrocket2,images/tutrocket1,null,NA,NA,1,practice,null,NA,NA,NA,NA,sub20
d3-animate-choice,62,362141,0.0-61.0-1.0,FALSE,FALSE,TRUE,FALSE,"""event"",""trial"",""time""
""fullscreenenter"",""5"",""30765""
","
","
","""event"",""trial"",""time""
""fullscreenenter"",""5"",""30765""
","
",null,NA,null,NA,NA,0,0,NA,NA,images/earth.jpg,images/tutrocket2,images/tutrocket1,null,NA,NA,2,practice,null,0,2020-06-12T01:58:04Z,NA,NA,sub20
two-step-fixation,63,363145,0.0-61.0-2.0,FALSE,FALSE,TRUE,FALSE,"""event"",""trial"",""time""
""fullscreenenter"",""5"",""30765""
","
","
","""event"",""trial"",""time""
""fullscreenenter"",""5"",""30765""
","
",NA,images/earth.jpg,NA,NA,NA,NA,NA,NA,NA,NA,NA,NA,NA,NA,NA,fixation,NA,NA,NA,NA,NA,NA,sub20
d3-animate-choice,64,366902,0.0-61.0-0.1,FALSE,FALSE,TRUE,FALSE,"""event"",""trial"",""time""
""fullscreenenter"",""5"",""30765""
","
","
","""event"",""trial"",""time""
""fullscreenenter"",""5"",""30765""
","
",1753.6149999996414,NA,48,NA,NA,3000,1,NA,NA,images/earth.jpg,images/tutrocket2,images/tutrocket1,null,images/tutrocket2,NA,1,practice,null,NA,NA,2,NA,sub20
d3-animate-choice,65,370907,0.0-61.0-1.1,FALSE,FALSE,TRUE,FALSE,"""event"",""trial"",""time""
""fullscreenenter"",""5"",""30765""
","
","
","""event"",""trial"",""time""
""fullscreenenter"",""5"",""30765""
","
",2145.054999999935,NA,48,NA,NA,3000,1,NA,NA,images/tutgreenplanet.jpg,images/tutalien2,images/tutalien1,images/tutrocket2,images/tutalien2,images/nothing.png,2,practice,true,0,2020-06-12T01:58:13Z,2,common,sub20
two-step-fixation,66,371908,0.0-61.0-2.1,FALSE,FALSE,TRUE,FALSE,"""event"",""trial"",""time""
""fullscreenenter"",""5"",""30765""
","
","
","""event"",""trial"",""time""
""fullscreenenter"",""5"",""30765""
","
",NA,images/earth.jpg,NA,NA,NA,NA,NA,NA,NA,NA,NA,NA,NA,NA,NA,fixation,NA,NA,NA,NA,NA,NA,sub20
d3-animate-choice,67,374544,0.0-61.0-0.2,FALSE,FALSE,TRUE,FALSE,"""event"",""trial"",""time""
""fullscreenenter"",""5"",""30765""
","
","
","""event"",""trial"",""time""
""fullscreenenter"",""5"",""30765""
","
",632.3700000002864,NA,49,NA,NA,3000,1,NA,NA,images/earth.jpg,images/tutrocket2,images/tutrocket1,null,images/tutrocket1,NA,1,practice,null,NA,NA,1,NA,sub20
d3-animate-choice,68,376905,0.0-61.0-1.2,FALSE,FALSE,TRUE,FALSE,"""event"",""trial"",""time""
""fullscreenenter"",""5"",""30765""
","
","
","""event"",""trial"",""time""
""fullscreenenter"",""5"",""30765""
","
",356.8799999993644,NA,49,NA,NA,3000,1,NA,NA,images/tutyellowplanet.jpg,images/tutalien4,images/tutalien3,images/tutrocket1,images/tutalien3,images/nothing.png,2,practice,true,0,2020-06-12T01:58:19Z,1,common,sub20
two-step-fixation,69,377907,0.0-61.0-2.2,FALSE,FALSE,TRUE,FALSE,"""event"",""trial"",""time""
""fullscreenenter"",""5"",""30765""
","
","
","""event"",""trial"",""time""
""fullscreenenter"",""5"",""30765""
","
",NA,images/earth.jpg,NA,NA,NA,NA,NA,NA,NA,NA,NA,NA,NA,NA,NA,fixation,NA,NA,NA,NA,NA,NA,sub20
d3-animate-choice,70,380742,0.0-61.0-0.3,FALSE,FALSE,TRUE,FALSE,"""event"",""trial"",""time""
""fullscreenenter"",""5"",""30765""
","
","
","""event"",""trial"",""time""
""fullscreenenter"",""5"",""30765""
","
",831.2699999996694,NA,48,NA,NA,3000,1,NA,NA,images/earth.jpg,images/tutrocket2,images/tutrocket1,null,images/tutrocket2,NA,1,practice,null,NA,NA,2,NA,sub20
d3-animate-choice,71,383239,0.0-61.0-1.3,FALSE,FALSE,TRUE,FALSE,"""event"",""trial"",""time""
""fullscreenenter"",""5"",""30765""
","
","
","""event"",""trial"",""time""
""fullscreenenter"",""5"",""30765""
","
",492.58499999996275,NA,49,NA,NA,3000,1,NA,NA,images/tutgreenplanet.jpg,images/tutalien2,images/tutalien1,images/tutrocket2,images/tutalien1,images/nothing.png,2,practice,true,0,2020-06-12T01:58:25Z,1,common,sub20
two-step-fixation,72,384242,0.0-61.0-2.3,FALSE,FALSE,TRUE,FALSE,"""event"",""trial"",""time""
""fullscreenenter"",""5"",""30765""
","
","
","""event"",""trial"",""time""
""fullscreenenter"",""5"",""30765""
","
",NA,images/earth.jpg,NA,NA,NA,NA,NA,NA,NA,NA,NA,NA,NA,NA,NA,fixation,NA,NA,NA,NA,NA,NA,sub20
d3-animate-choice,73,386643,0.0-61.0-0.4,FALSE,FALSE,TRUE,FALSE,"""event"",""trial"",""time""
""fullscreenenter"",""5"",""30765""
","
","
","""event"",""trial"",""time""
""fullscreenenter"",""5"",""30765""
","
",397.5200000004843,NA,49,NA,NA,3000,1,NA,NA,images/earth.jpg,images/tutrocket2,images/tutrocket1,null,images/tutrocket1,NA,1,practice,null,NA,NA,1,NA,sub20
d3-animate-choice,74,390120,0.0-61.0-1.4,FALSE,FALSE,TRUE,FALSE,"""event"",""trial"",""time""
""fullscreenenter"",""5"",""30765""
","
","
","""event"",""trial"",""time""
""fullscreenenter"",""5"",""30765""
","
",1189.3450000007288,NA,189,NA,NA,3000,1,1473.5850000006612,48,images/tutyellowplanet.jpg,images/tutalien4,images/tutalien3,images/tutrocket1,images/tutalien4,images/t.png,2,practice,true,1,2020-06-12T01:58:32Z,NA,common,sub20
two-step-fixation,75,391123,0.0-61.0-2.4,FALSE,FALSE,TRUE,FALSE,"""event"",""trial"",""time""
""fullscreenenter"",""5"",""30765""
","
","
","""event"",""trial"",""time""
""fullscreenenter"",""5"",""30765""
","
",NA,images/earth.jpg,NA,NA,NA,NA,NA,NA,NA,NA,NA,NA,NA,NA,NA,fixation,NA,NA,NA,NA,NA,NA,sub20
d3-animate-choice,76,394035,0.0-61.0-0.5,FALSE,FALSE,TRUE,FALSE,"""event"",""trial"",""time""
""fullscreenenter"",""5"",""30765""
","
","
","""event"",""trial"",""time""
""fullscreenenter"",""5"",""30765""
","
",908.7099999996717,NA,49,NA,NA,3000,1,2721.4450000001234,48,images/earth.jpg,images/tutrocket2,images/tutrocket1,null,images/tutrocket1,NA,1,practice,null,NA,NA,1,NA,sub20
d3-animate-choice,77,396342,0.0-61.0-1.5,FALSE,FALSE,TRUE,FALSE,"""event"",""trial"",""time""
""fullscreenenter"",""5"",""30765""
","
","
","""event"",""trial"",""time""
""fullscreenenter"",""5"",""30765""
","
",304.1450000000186,NA,48,NA,NA,3000,1,NA,NA,images/tutgreenplanet.jpg,images/tutalien2,images/tutalien1,images/tutrocket1,images/tutalien2,images/nothing.png,2,practice,false,0,2020-06-12T01:58:38Z,2,rare,sub20
two-step-fixation,78,397346,0.0-61.0-2.5,FALSE,FALSE,TRUE,FALSE,"""event"",""trial"",""time""
""fullscreenenter"",""5"",""30765""
","
","
","""event"",""trial"",""time""
""fullscreenenter"",""5"",""30765""
","
",NA,images/earth.jpg,NA,NA,NA,NA,NA,NA,NA,NA,NA,NA,NA,NA,NA,fixation,NA,NA,NA,NA,NA,NA,sub20
d3-animate-choice,79,399639,0.0-61.0-0.6,FALSE,FALSE,TRUE,FALSE,"""event"",""trial"",""time""
""fullscreenenter"",""5"",""30765""
","
","
","""event"",""trial"",""time""
""fullscreenenter"",""5"",""30765""
","
",289.3800000001793,NA,49,NA,NA,3000,1,NA,NA,images/earth.jpg,images/tutrocket2,images/tutrocket1,null,images/tutrocket1,NA,1,practice,null,NA,NA,1,NA,sub20
d3-animate-choice,80,402139,0.0-61.0-1.6,FALSE,FALSE,TRUE,FALSE,"""event"",""trial"",""time""
""fullscreenenter"",""5"",""30765""
","
","
","""event"",""trial"",""time""
""fullscreenenter"",""5"",""30765""
","
",496.3550000002142,NA,49,NA,NA,3000,1,NA,NA,images/tutyellowplanet.jpg,images/tutalien4,images/tutalien3,images/tutrocket1,images/tutalien3,images/t.png,2,practice,true,1,2020-06-12T01:58:44Z,1,common,sub20
two-step-fixation,81,403143,0.0-61.0-2.6,FALSE,FALSE,TRUE,FALSE,"""event"",""trial"",""time""
""fullscreenenter"",""5"",""30765""
","
","
","""event"",""trial"",""time""
""fullscreenenter"",""5"",""30765""
","
",NA,images/earth.jpg,NA,NA,NA,NA,NA,NA,NA,NA,NA,NA,NA,NA,NA,fixation,NA,NA,NA,NA,NA,NA,sub20
d3-animate-choice,82,405553,0.0-61.0-0.7,FALSE,FALSE,TRUE,FALSE,"""event"",""trial"",""time""
""fullscreenenter"",""5"",""30765""
","
","
","""event"",""trial"",""time""
""fullscreenenter"",""5"",""30765""
","
",407.3300000000163,NA,49,NA,NA,3000,1,NA,NA,images/earth.jpg,images/tutrocket2,images/tutrocket1,null,images/tutrocket1,NA,1,practice,null,NA,NA,1,NA,sub20
d3-animate-choice,83,408081,0.0-61.0-1.7,FALSE,FALSE,TRUE,FALSE,"""event"",""trial"",""time""
""fullscreenenter"",""5"",""30765""
","
","
","""event"",""trial"",""time""
""fullscreenenter"",""5"",""30765""
","
",524.8550000005635,NA,48,NA,NA,3000,1,NA,NA,images/tutgreenplanet.jpg,images/tutalien2,images/tutalien1,images/tutrocket1,images/tutalien2,images/nothing.png,2,practice,false,0,2020-06-12T01:58:50Z,2,rare,sub20
two-step-fixation,84,409084,0.0-61.0-2.7,FALSE,FALSE,TRUE,FALSE,"""event"",""trial"",""time""
""fullscreenenter"",""5"",""30765""
","
","
","""event"",""trial"",""time""
""fullscreenenter"",""5"",""30765""
","
",NA,images/earth.jpg,NA,NA,NA,NA,NA,NA,NA,NA,NA,NA,NA,NA,NA,fixation,NA,NA,NA,NA,NA,NA,sub20
d3-animate-choice,85,411477,0.0-61.0-0.8,FALSE,FALSE,TRUE,FALSE,"""event"",""trial"",""time""
""fullscreenenter"",""5"",""30765""
","
","
","""event"",""trial"",""time""
""fullscreenenter"",""5"",""30765""
","
",390.2450000005192,NA,49,NA,NA,3000,1,788.7200000004959,49,images/earth.jpg,images/tutrocket2,images/tutrocket1,null,images/tutrocket1,NA,1,practice,null,NA,NA,1,NA,sub20
d3-animate-choice,86,414031,0.0-61.0-1.8,FALSE,FALSE,TRUE,FALSE,"""event"",""trial"",""time""
""fullscreenenter"",""5"",""30765""
","
","
","""event"",""trial"",""time""
""fullscreenenter"",""5"",""30765""
","
",550.2750000005472,NA,49,NA,NA,3000,1,NA,NA,images/tutyellowplanet.jpg,images/tutalien4,images/tutalien3,images/tutrocket1,images/tutalien3,images/nothing.png,2,practice,true,0,2020-06-12T01:58:56Z,1,common,sub20
two-step-fixation,87,415035,0.0-61.0-2.8,FALSE,FALSE,TRUE,FALSE,"""event"",""trial"",""time""
""fullscreenenter"",""5"",""30765""
","
","
","""event"",""trial"",""time""
""fullscreenenter"",""5"",""30765""
","
",NA,images/earth.jpg,NA,NA,NA,NA,NA,NA,NA,NA,NA,NA,NA,NA,NA,fixation,NA,NA,NA,NA,NA,NA,sub20
d3-animate-choice,88,417606,0.0-61.0-0.9,FALSE,FALSE,TRUE,FALSE,"""event"",""trial"",""time""
""fullscreenenter"",""5"",""30765""
","
","
","""event"",""trial"",""time""
""fullscreenenter"",""5"",""30765""
","
",565.9450000002398,NA,48,NA,NA,3000,1,NA,NA,images/earth.jpg,images/tutrocket2,images/tutrocket1,null,images/tutrocket2,NA,1,practice,null,NA,NA,2,NA,sub20
d3-animate-choice,89,420935,0.0-61.0-1.9,FALSE,FALSE,TRUE,FALSE,"""event"",""trial"",""time""
""fullscreenenter"",""5"",""30765""
","
","
","""event"",""trial"",""time""
""fullscreenenter"",""5"",""30765""
","
",1325.7249999996857,NA,49,NA,NA,3000,1,NA,NA,images/tutyellowplanet.jpg,images/tutalien4,images/tutalien3,images/tutrocket2,images/tutalien3,images/nothing.png,2,practice,false,0,2020-06-12T01:59:03Z,1,rare,sub20
two-step-fixation,90,421939,0.0-61.0-2.9,FALSE,FALSE,TRUE,FALSE,"""event"",""trial"",""time""
""fullscreenenter"",""5"",""30765""
","
","
","""event"",""trial"",""time""
""fullscreenenter"",""5"",""30765""
","
",NA,images/earth.jpg,NA,NA,NA,NA,NA,NA,NA,NA,NA,NA,NA,NA,NA,fixation,NA,NA,NA,NA,NA,NA,sub20
d3-animate-choice,91,424293,0.0-61.0-0.10,FALSE,FALSE,TRUE,FALSE,"""event"",""trial"",""time""
""fullscreenenter"",""5"",""30765""
","
","
","""event"",""trial"",""time""
""fullscreenenter"",""5"",""30765""
","
",351.8800000001211,NA,49,NA,NA,3000,1,NA,NA,images/earth.jpg,images/tutrocket2,images/tutrocket1,null,images/tutrocket1,NA,1,practice,null,NA,NA,1,NA,sub20
d3-animate-choice,92,427042,0.0-61.0-1.10,FALSE,FALSE,TRUE,FALSE,"""event"",""trial"",""time""
""fullscreenenter"",""5"",""30765""
","
","
","""event"",""trial"",""time""
""fullscreenenter"",""5"",""30765""
","
",745.0050000007031,NA,48,NA,NA,3000,1,NA,NA,images/tutyellowplanet.jpg,images/tutalien4,images/tutalien3,images/tutrocket1,images/tutalien4,images/nothing.png,2,practice,true,0,2020-06-12T01:59:09Z,2,common,sub20
two-step-fixation,93,428045,0.0-61.0-2.10,FALSE,FALSE,TRUE,FALSE,"""event"",""trial"",""time""
""fullscreenenter"",""5"",""30765""
","
","
","""event"",""trial"",""time""
""fullscreenenter"",""5"",""30765""
","
",NA,images/earth.jpg,NA,NA,NA,NA,NA,NA,NA,NA,NA,NA,NA,NA,NA,fixation,NA,NA,NA,NA,NA,NA,sub20
d3-animate-choice,94,430633,0.0-61.0-0.11,FALSE,FALSE,TRUE,FALSE,"""event"",""trial"",""time""
""fullscreenenter"",""5"",""30765""
","
","
","""event"",""trial"",""time""
""fullscreenenter"",""5"",""30765""
","
",585.3200000001816,NA,48,NA,NA,3000,1,NA,NA,images/earth.jpg,images/tutrocket2,images/tutrocket1,null,images/tutrocket2,NA,1,practice,null,NA,NA,2,NA,sub20
d3-animate-choice,95,433473,0.0-61.0-1.11,FALSE,FALSE,TRUE,FALSE,"""event"",""trial"",""time""
""fullscreenenter"",""5"",""30765""
","
","
","""event"",""trial"",""time""
""fullscreenenter"",""5"",""30765""
","
",836.7250000000931,NA,49,NA,NA,3000,1,NA,NA,images/tutgreenplanet.jpg,images/tutalien2,images/tutalien1,images/tutrocket2,images/tutalien1,images/nothing.png,2,practice,true,0,2020-06-12T01:59:15Z,1,common,sub20
two-step-fixation,96,434477,0.0-61.0-2.11,FALSE,FALSE,TRUE,FALSE,"""event"",""trial"",""time""
""fullscreenenter"",""5"",""30765""
","
","
","""event"",""trial"",""time""
""fullscreenenter"",""5"",""30765""
","
",NA,images/earth.jpg,NA,NA,NA,NA,NA,NA,NA,NA,NA,NA,NA,NA,NA,fixation,NA,NA,NA,NA,NA,NA,sub20
d3-animate-choice,97,436951,0.0-61.0-0.12,FALSE,FALSE,TRUE,FALSE,"""event"",""trial"",""time""
""fullscreenenter"",""5"",""30765""
","
","
","""event"",""trial"",""time""
""fullscreenenter"",""5"",""30765""
","
",469.82500000012806,NA,49,NA,NA,3000,1,NA,NA,images/earth.jpg,images/tutrocket2,images/tutrocket1,null,images/tutrocket1,NA,1,practice,null,NA,NA,1,NA,sub20
d3-animate-choice,98,440439,0.0-61.0-1.12,FALSE,FALSE,TRUE,FALSE,"""event"",""trial"",""time""
""fullscreenenter"",""5"",""30765""
","
","
","""event"",""trial"",""time""
""fullscreenenter"",""5"",""30765""
","
",441.91000000044005,NA,57,NA,NA,3000,1,1484.3200000004726,48,images/tutyellowplanet.jpg,images/tutalien4,images/tutalien3,images/tutrocket1,images/tutalien4,images/nothing.png,2,practice,true,0,2020-06-12T01:59:22Z,NA,common,sub20
two-step-fixation,99,441443,0.0-61.0-2.12,FALSE,FALSE,TRUE,FALSE,"""event"",""trial"",""time""
""fullscreenenter"",""5"",""30765""
","
","
","""event"",""trial"",""time""
""fullscreenenter"",""5"",""30765""
","
",NA,images/earth.jpg,NA,NA,NA,NA,NA,NA,NA,NA,NA,NA,NA,NA,NA,fixation,NA,NA,NA,NA,NA,NA,sub20
d3-animate-choice,100,443990,0.0-61.0-0.13,FALSE,FALSE,TRUE,FALSE,"""event"",""trial"",""time""
""fullscreenenter"",""5"",""30765""
","
","
","""event"",""trial"",""time""
""fullscreenenter"",""5"",""30765""
","
",544.4399999996531,NA,49,NA,NA,3000,1,NA,NA,images/earth.jpg,images/tutrocket2,images/tutrocket1,null,images/tutrocket1,NA,1,practice,null,NA,NA,1,NA,sub20
d3-animate-choice,101,446557,0.0-61.0-1.13,FALSE,FALSE,TRUE,FALSE,"""event"",""trial"",""time""
""fullscreenenter"",""5"",""30765""
","
","
","""event"",""trial"",""time""
""fullscreenenter"",""5"",""30765""
","
",563.729999999865,NA,48,NA,NA,3000,1,NA,NA,images/tutgreenplanet.jpg,images/tutalien2,images/tutalien1,images/tutrocket1,images/tutalien2,images/t.png,2,practice,false,1,2020-06-12T01:59:28Z,2,rare,sub20
two-step-fixation,102,447560,0.0-61.0-2.13,FALSE,FALSE,TRUE,FALSE,"""event"",""trial"",""time""
""fullscreenenter"",""5"",""30765""
","
","
","""event"",""trial"",""time""
""fullscreenenter"",""5"",""30765""
","
",NA,images/earth.jpg,NA,NA,NA,NA,NA,NA,NA,NA,NA,NA,NA,NA,NA,fixation,NA,NA,NA,NA,NA,NA,sub20
d3-animate-choice,103,451564,0.0-61.0-0.14,FALSE,FALSE,TRUE,FALSE,"""event"",""trial"",""time""
""fullscreenenter"",""5"",""30765""
","
","
","""event"",""trial"",""time""
""fullscreenenter"",""5"",""30765""
","
",2067.135000000184,NA,48,NA,NA,3000,1,NA,NA,images/earth.jpg,images/tutrocket2,images/tutrocket1,null,images/tutrocket2,NA,1,practice,null,NA,NA,2,NA,sub20
d3-animate-choice,104,454055,0.0-61.0-1.14,FALSE,FALSE,TRUE,FALSE,"""event"",""trial"",""time""
""fullscreenenter"",""5"",""30765""
","
","
","""event"",""trial"",""time""
""fullscreenenter"",""5"",""30765""
","
",487.8749999998254,NA,49,NA,NA,3000,1,NA,NA,images/tutgreenplanet.jpg,images/tutalien2,images/tutalien1,images/tutrocket2,images/tutalien1,images/nothing.png,2,practice,true,0,2020-06-12T01:59:36Z,1,common,sub20
two-step-fixation,105,455061,0.0-61.0-2.14,FALSE,FALSE,TRUE,FALSE,"""event"",""trial"",""time""
""fullscreenenter"",""5"",""30765""
","
","
","""event"",""trial"",""time""
""fullscreenenter"",""5"",""30765""
","
",NA,images/earth.jpg,NA,NA,NA,NA,NA,NA,NA,NA,NA,NA,NA,NA,NA,fixation,NA,NA,NA,NA,NA,NA,sub20
d3-animate-choice,106,459064,0.0-61.0-0.15,FALSE,FALSE,TRUE,FALSE,"""event"",""trial"",""time""
""fullscreenenter"",""5"",""30765""
","
","
","""event"",""trial"",""time""
""fullscreenenter"",""5"",""30765""
","
",2850.7449999997625,NA,48,NA,NA,3000,1,NA,NA,images/earth.jpg,images/tutrocket2,images/tutrocket1,null,images/tutrocket2,NA,1,practice,null,NA,NA,2,NA,sub20
d3-animate-choice,107,463067,0.0-61.0-1.15,FALSE,FALSE,TRUE,FALSE,"""event"",""trial"",""time""
""fullscreenenter"",""5"",""30765""
","
","
","""event"",""trial"",""time""
""fullscreenenter"",""5"",""30765""
","
",2187.0550000003423,NA,49,NA,NA,3000,1,NA,NA,images/tutyellowplanet.jpg,images/tutalien4,images/tutalien3,images/tutrocket2,images/tutalien3,images/nothing.png,2,practice,false,0,2020-06-12T01:59:45Z,1,rare,sub20
two-step-fixation,108,464070,0.0-61.0-2.15,FALSE,FALSE,TRUE,FALSE,"""event"",""trial"",""time""
""fullscreenenter"",""5"",""30765""
","
","
","""event"",""trial"",""time""
""fullscreenenter"",""5"",""30765""
","
",NA,images/earth.jpg,NA,NA,NA,NA,NA,NA,NA,NA,NA,NA,NA,NA,NA,fixation,NA,NA,NA,NA,NA,NA,sub20
d3-animate-choice,109,466888,0.0-61.0-0.16,FALSE,FALSE,TRUE,FALSE,"""event"",""trial"",""time""
""fullscreenenter"",""5"",""30765""
","
","
","""event"",""trial"",""time""
""fullscreenenter"",""5"",""30765""
","
",814.7950000002165,NA,49,NA,NA,3000,1,"1622.6750000005122,1870.810000000347,2062.9350000008126,2266.5350000006147,2536.955000000482,2733.6950000007637,2778.0800000000163",49494949484948,images/earth.jpg,images/tutrocket2,images/tutrocket1,null,images/tutrocket1,NA,1,practice,null,NA,NA,1,NA,sub20
d3-animate-choice,110,469024,0.0-61.0-1.16,FALSE,FALSE,TRUE,FALSE,"""event"",""trial"",""time""
""fullscreenenter"",""5"",""30765""
","
","
","""event"",""trial"",""time""
""fullscreenenter"",""5"",""30765""
","
",133.57000000000698,NA,49,NA,NA,3000,1,"138.28999999992084,284.1249999992433,301.72499999939464,401.80499999952735,470.39499999937834,674.8649999999907,681.7299999993411,832.0349999994505,868.9149999991059,1015.3349999991478,1050.0399999992223,1219.2799999993877,1222.6599999994505,1373.5999999999185,1462.8949999996694,1522.519999999553,1925.524999999674,2042.3499999997439",484849484949485e21,images/tutyellowplanet.jpg,images/tutalien4,images/tutalien3,images/tutrocket1,images/tutalien3,images/nothing.png,2,practice,true,0,2020-06-12T01:59:51Z,1,common,sub20
two-step-fixation,111,470027,0.0-61.0-2.16,FALSE,FALSE,TRUE,FALSE,"""event"",""trial"",""time""
""fullscreenenter"",""5"",""30765""
","
","
","""event"",""trial"",""time""
""fullscreenenter"",""5"",""30765""
","
",NA,images/earth.jpg,NA,NA,NA,NA,NA,NA,NA,NA,NA,NA,NA,NA,NA,fixation,NA,NA,NA,NA,NA,NA,sub20
d3-animate-choice,112,472628,0.0-61.0-0.17,FALSE,FALSE,TRUE,FALSE,"""event"",""trial"",""time""
""fullscreenenter"",""5"",""30765""
","
","
","""event"",""trial"",""time""
""fullscreenenter"",""5"",""30765""
","
",597.2400000000489,NA,48,NA,NA,3000,1,653.2000000006519,49,images/earth.jpg,images/tutrocket2,images/tutrocket1,null,images/tutrocket2,NA,1,practice,null,NA,NA,2,NA,sub20
d3-animate-choice,113,475040,0.0-61.0-1.17,FALSE,FALSE,TRUE,FALSE,"""event"",""trial"",""time""
""fullscreenenter"",""5"",""30765""
","
","
","""event"",""trial"",""time""
""fullscreenenter"",""5"",""30765""
","
",407.9700000002049,NA,49,NA,NA,3000,1,462.83499999932246,48,images/tutgreenplanet.jpg,images/tutalien2,images/tutalien1,images/tutrocket2,images/tutalien1,images/nothing.png,2,practice,true,0,2020-06-12T01:59:57Z,1,common,sub20
two-step-fixation,114,476043,0.0-61.0-2.17,FALSE,FALSE,TRUE,FALSE,"""event"",""trial"",""time""
""fullscreenenter"",""5"",""30765""
","
","
","""event"",""trial"",""time""
""fullscreenenter"",""5"",""30765""
","
",NA,images/earth.jpg,NA,NA,NA,NA,NA,NA,NA,NA,NA,NA,NA,NA,NA,fixation,NA,NA,NA,NA,NA,NA,sub20
d3-animate-choice,115,478215,0.0-61.0-0.18,FALSE,FALSE,TRUE,FALSE,"""event"",""trial"",""time""
""fullscreenenter"",""5"",""30765""
","
","
","""event"",""trial"",""time""
""fullscreenenter"",""5"",""30765""
","
",167.3749999999418,NA,49,NA,NA,3000,1,191.53000000002794,48,images/earth.jpg,images/tutrocket2,images/tutrocket1,null,images/tutrocket1,NA,1,practice,null,NA,NA,1,NA,sub20
d3-animate-choice,116,480568,0.0-61.0-1.18,FALSE,FALSE,TRUE,FALSE,"""event"",""trial"",""time""
""fullscreenenter"",""5"",""30765""
","
","
","""event"",""trial"",""time""
""fullscreenenter"",""5"",""30765""
","
",349.16999999951804,NA,49,NA,NA,3000,1,352.570000000007,48,images/tutyellowplanet.jpg,images/tutalien4,images/tutalien3,images/tutrocket1,images/tutalien3,images/t.png,2,practice,true,1,2020-06-12T02:00:02Z,1,common,sub20
two-step-fixation,117,481571,0.0-61.0-2.18,FALSE,FALSE,TRUE,FALSE,"""event"",""trial"",""time""
""fullscreenenter"",""5"",""30765""
","
","
","""event"",""trial"",""time""
""fullscreenenter"",""5"",""30765""
","
",NA,images/earth.jpg,NA,NA,NA,NA,NA,NA,NA,NA,NA,NA,NA,NA,NA,fixation,NA,NA,NA,NA,NA,NA,sub20
d3-animate-choice,118,483841,0.0-61.0-0.19,FALSE,FALSE,TRUE,FALSE,"""event"",""trial"",""time""
""fullscreenenter"",""5"",""30765""
","
","
","""event"",""trial"",""time""
""fullscreenenter"",""5"",""30765""
","
",266.6699999999255,NA,49,NA,NA,3000,1,301.89499999955297,48,images/earth.jpg,images/tutrocket2,images/tutrocket1,null,images/tutrocket1,NA,1,practice,null,NA,NA,1,NA,sub20
d3-animate-choice,119,486189,0.0-61.0-1.19,FALSE,FALSE,TRUE,FALSE,"""event"",""trial"",""time""
""fullscreenenter"",""5"",""30765""
","
","
","""event"",""trial"",""time""
""fullscreenenter"",""5"",""30765""
","
",344.9749999999767,NA,49,NA,NA,3000,1,391.5000000006403,48,images/tutyellowplanet.jpg,images/tutalien4,images/tutalien3,images/tutrocket1,images/tutalien3,images/nothing.png,2,practice,true,0,2020-06-12T02:00:08Z,1,common,sub20
two-step-fixation,120,487192,0.0-61.0-2.19,FALSE,FALSE,TRUE,FALSE,"""event"",""trial"",""time""
""fullscreenenter"",""5"",""30765""
","
","
","""event"",""trial"",""time""
""fullscreenenter"",""5"",""30765""
","
",NA,images/earth.jpg,NA,NA,NA,NA,NA,NA,NA,NA,NA,NA,NA,NA,NA,fixation,NA,NA,NA,NA,NA,NA,sub20
d3-instructions,121,493827,0.0-62.0,FALSE,FALSE,TRUE,FALSE,"""event"",""trial"",""time""
""fullscreenenter"",""5"",""30765""
","
","
","""event"",""trial"",""time""
""fullscreenenter"",""5"",""30765""
","
",NA,NA,NA,NA,NA,NA,NA,NA,NA,NA,NA,NA,NA,NA,NA,NA,NA,NA,NA,NA,NA,NA,sub20
audio-keyboard-response,122,497130,0.0-63.0,FALSE,FALSE,TRUE,FALSE,"""event"",""trial"",""time""
""fullscreenenter"",""5"",""30765""
","
","
","""event"",""trial"",""time""
""fullscreenenter"",""5"",""30765""
","
",3312,audio/instructions/treasure_feedback.wav,66,NA,NA,NA,NA,NA,NA,NA,NA,NA,NA,NA,NA,NA,NA,NA,NA,NA,NA,NA,sub20
d3-instructions,123,509246,0.0-64.0,FALSE,FALSE,TRUE,FALSE,"""event"",""trial"",""time""
""fullscreenenter"",""5"",""30765""
","
","
","""event"",""trial"",""time""
""fullscreenenter"",""5"",""30765""
","
",NA,NA,NA,NA,NA,NA,NA,NA,NA,NA,NA,NA,NA,NA,NA,NA,NA,NA,NA,NA,NA,NA,sub20
d3-instructions,124,524430,0.0-65.0,FALSE,FALSE,TRUE,FALSE,"""event"",""trial"",""time""
""fullscreenenter"",""5"",""30765""
","
","
","""event"",""trial"",""time""
""fullscreenenter"",""5"",""30765""
","
",NA,NA,NA,NA,NA,NA,NA,NA,NA,NA,NA,NA,NA,NA,NA,NA,NA,NA,NA,NA,NA,NA,sub20
d3-instructions,125,547015,0.0-66.0,FALSE,FALSE,TRUE,FALSE,"""event"",""trial"",""time""
""fullscreenenter"",""5"",""30765""
","
","
","""event"",""trial"",""time""
""fullscreenenter"",""5"",""30765""
","
",NA,NA,NA,NA,NA,NA,NA,NA,NA,NA,NA,NA,NA,NA,NA,NA,NA,NA,NA,NA,NA,NA,sub20
d3-instructions,126,555612,0.0-67.0,FALSE,FALSE,TRUE,FALSE,"""event"",""trial"",""time""
""fullscreenenter"",""5"",""30765""
","
","
","""event"",""trial"",""time""
""fullscreenenter"",""5"",""30765""
","
",NA,NA,NA,NA,NA,NA,NA,NA,NA,NA,NA,NA,NA,NA,NA,NA,NA,NA,NA,NA,NA,NA,sub20
d3-instructions,127,561637,0.0-68.0,FALSE,FALSE,TRUE,FALSE,"""event"",""trial"",""time""
""fullscreenenter"",""5"",""30765""
","
","
","""event"",""trial"",""time""
""fullscreenenter"",""5"",""30765""
","
",NA,NA,NA,NA,NA,NA,NA,NA,NA,NA,NA,NA,NA,NA,NA,NA,NA,NA,NA,NA,NA,NA,sub20
instructions-quiz,128,568656,0.0-69.0,FALSE,FALSE,TRUE,FALSE,"""event"",""trial"",""time""
""fullscreenenter"",""5"",""30765""
","
","
","""event"",""trial"",""time""
""fullscreenenter"",""5"",""30765""
","
",7017.3800000002375,audio/quiz/Q1_Prompt.wav,NA,1,NA,NA,NA,NA,NA,NA,NA,NA,NA,NA,NA,NA,NA,NA,NA,NA,NA,NA,sub20
audio-keyboard-response,129,577819,0.0-70.0,FALSE,FALSE,TRUE,FALSE,"""event"",""trial"",""time""
""fullscreenenter"",""5"",""30765""
","
","
","""event"",""trial"",""time""
""fullscreenenter"",""5"",""30765""
","
",null,audio/quiz/Q1_Correct.wav,null,NA,NA,NA,NA,NA,NA,NA,NA,NA,NA,NA,NA,NA,NA,NA,NA,NA,NA,NA,sub20
instructions-quiz,130,583735,0.0-71.0,FALSE,FALSE,TRUE,FALSE,"""event"",""trial"",""time""
""fullscreenenter"",""5"",""30765""
","
","
","""event"",""trial"",""time""
""fullscreenenter"",""5"",""30765""
","
",5914.36999999953,audio/quiz/Q2_Prompt.wav,NA,0,NA,NA,NA,NA,NA,NA,NA,NA,NA,NA,NA,NA,NA,NA,NA,NA,NA,NA,sub20
audio-keyboard-response,131,596599,0.0-72.0,FALSE,FALSE,TRUE,FALSE,"""event"",""trial"",""time""
""fullscreenenter"",""5"",""30765""
","
","
","""event"",""trial"",""time""
""fullscreenenter"",""5"",""30765""
","
",null,audio/quiz/Q2_Correct.wav,null,NA,NA,NA,NA,NA,NA,NA,NA,NA,NA,NA,NA,NA,NA,NA,NA,NA,NA,NA,sub20
instructions-quiz,132,606467,0.0-73.0,FALSE,FALSE,TRUE,FALSE,"""event"",""trial"",""time""
""fullscreenenter"",""5"",""30765""
","
","
","""event"",""trial"",""time""
""fullscreenenter"",""5"",""30765""
","
",9866.555000000633,audio/quiz/Q3_Prompt.wav,NA,1,NA,NA,NA,NA,NA,NA,NA,NA,NA,NA,NA,NA,NA,NA,NA,NA,NA,NA,sub20
audio-keyboard-response,133,612259,0.0-74.0,FALSE,FALSE,TRUE,FALSE,"""event"",""trial"",""time""
""fullscreenenter"",""5"",""30765""
","
","
","""event"",""trial"",""time""
""fullscreenenter"",""5"",""30765""
","
",null,audio/quiz/Q3_Correct.wav,null,NA,NA,NA,NA,NA,NA,NA,NA,NA,NA,NA,NA,NA,NA,NA,NA,NA,NA,NA,sub20
d3-instructions,134,621259,0.0-75.0,FALSE,FALSE,TRUE,FALSE,"""event"",""trial"",""time""
""fullscreenenter"",""5"",""30765""
","
","
","""event"",""trial"",""time""
""fullscreenenter"",""5"",""30765""
","
",NA,NA,NA,NA,NA,NA,NA,NA,NA,NA,NA,NA,NA,NA,NA,NA,NA,NA,NA,NA,NA,NA,sub20
d3-animate-choice,135,624470,0.0-76.0-0.0,FALSE,FALSE,TRUE,FALSE,"""event"",""trial"",""time""
""fullscreenenter"",""5"",""30765""
","
","
","""event"",""trial"",""time""
""fullscreenenter"",""5"",""30765""
","
",1207.9350000004051,NA,49,NA,NA,3000,1,1216.265000000014,189,images/earth.jpg,images/rocket1,images/rocket2,null,images/rocket2,NA,1,real,null,NA,NA,1,NA,sub20
d3-animate-choice,136,626909,0.0-76.0-1.0,FALSE,FALSE,TRUE,FALSE,"""event"",""trial"",""time""
""fullscreenenter"",""5"",""30765""
","
","
","""event"",""trial"",""time""
""fullscreenenter"",""5"",""30765""
","
",435.52499999979045,NA,48,NA,NA,3000,1,574.6599999992177,48,images/purpleplanet.jpg,images/alien4,images/alien3,images/rocket2,images/alien4,images/nothing.png,2,real,false,0,2020-06-12T02:02:29Z,2,rare,sub20
two-step-fixation,137,627911,0.0-76.0-2.0,FALSE,FALSE,TRUE,FALSE,"""event"",""trial"",""time""
""fullscreenenter"",""5"",""30765""
","
","
","""event"",""trial"",""time""
""fullscreenenter"",""5"",""30765""
","
",NA,images/earth.jpg,NA,NA,NA,NA,NA,NA,NA,NA,NA,NA,NA,NA,NA,fixation,NA,NA,NA,NA,NA,NA,sub20
d3-animate-choice,138,630440,0.0-76.0-0.1,FALSE,FALSE,TRUE,FALSE,"""event"",""trial"",""time""
""fullscreenenter"",""5"",""30765""
","
","
","""event"",""trial"",""time""
""fullscreenenter"",""5"",""30765""
","
",525.439999999362,NA,48,NA,NA,3000,1,NA,NA,images/earth.jpg,images/rocket1,images/rocket2,null,images/rocket1,NA,1,real,null,NA,NA,2,NA,sub20
d3-animate-choice,139,632727,0.0-76.0-1.1,FALSE,FALSE,TRUE,FALSE,"""event"",""trial"",""time""
""fullscreenenter"",""5"",""30765""
","
","
","""event"",""trial"",""time""
""fullscreenenter"",""5"",""30765""
","
",283.3799999997718,NA,49,NA,NA,3000,1,NA,NA,images/purpleplanet.jpg,images/alien4,images/alien3,images/rocket1,images/alien3,images/nothing.png,2,real,true,0,2020-06-12T02:02:35Z,1,common,sub20
two-step-fixation,140,633730,0.0-76.0-2.1,FALSE,FALSE,TRUE,FALSE,"""event"",""trial"",""time""
""fullscreenenter"",""5"",""30765""
","
","
","""event"",""trial"",""time""
""fullscreenenter"",""5"",""30765""
","
",NA,images/earth.jpg,NA,NA,NA,NA,NA,NA,NA,NA,NA,NA,NA,NA,NA,fixation,NA,NA,NA,NA,NA,NA,sub20
d3-animate-choice,141,636216,0.0-76.0-0.2,FALSE,FALSE,TRUE,FALSE,"""event"",""trial"",""time""
""fullscreenenter"",""5"",""30765""
","
","
","""event"",""trial"",""time""
""fullscreenenter"",""5"",""30765""
","
",483.29999999993015,NA,48,NA,NA,3000,1,NA,NA,images/earth.jpg,images/rocket1,images/rocket2,null,images/rocket1,NA,1,real,null,NA,NA,2,NA,sub20
d3-animate-choice,142,638562,0.0-76.0-1.2,FALSE,FALSE,TRUE,FALSE,"""event"",""trial"",""time""
""fullscreenenter"",""5"",""30765""
","
","
","""event"",""trial"",""time""
""fullscreenenter"",""5"",""30765""
","
",343.4200000001583,NA,49,NA,NA,3000,1,NA,NA,images/redplanet1.jpg,images/alien2,images/alien1,images/rocket1,images/alien1,images/nothing.png,2,real,false,0,2020-06-12T02:02:40Z,1,rare,sub20
two-step-fixation,143,639565,0.0-76.0-2.2,FALSE,FALSE,TRUE,FALSE,"""event"",""trial"",""time""
""fullscreenenter"",""5"",""30765""
","
","
","""event"",""trial"",""time""
""fullscreenenter"",""5"",""30765""
","
",NA,images/earth.jpg,NA,NA,NA,NA,NA,NA,NA,NA,NA,NA,NA,NA,NA,fixation,NA,NA,NA,NA,NA,NA,sub20
d3-animate-choice,144,641820,0.0-76.0-0.3,FALSE,FALSE,TRUE,FALSE,"""event"",""trial"",""time""
""fullscreenenter"",""5"",""30765""
","
","
","""event"",""trial"",""time""
""fullscreenenter"",""5"",""30765""
","
",250.64500000013504,NA,48,NA,NA,3000,1,"267.62499999953434,456.9799999999814,488.5299999996787,1307.2699999993201,1322.2749999995576,1481.1949999993667,1523.8799999997718,1628.4500000001863,1797.4450000001816,1976.9499999993714,2029.410000000149,2170.259999999893",4948494849484948e8,images/earth.jpg,images/rocket1,images/rocket2,null,images/rocket1,NA,1,real,null,NA,NA,2,NA,sub20
d3-animate-choice,145,644021,0.0-76.0-1.3,FALSE,FALSE,TRUE,FALSE,"""event"",""trial"",""time""
""fullscreenenter"",""5"",""30765""
","
","
","""event"",""trial"",""time""
""fullscreenenter"",""5"",""30765""
","
",197.28000000026077,NA,48,NA,NA,3000,1,"318.69000000006054,363.8849999997765,523.0149999997811,531.7249999997439,656.9600000001956,689.2050000005402,811.5450000005076,820.1699999999255,974.820000000298,1020.7950000003912,1139.8550000003306,1206.9749999999767,1294.1000000000931,1378.714999999851,1434.9750000000931,1572.8300000000745,1594.645000000135,1726.7300000003306,1749.1099999997532,1897.3850000002421,1911.200000000419,2079.990000000107,2092.3300000004238",494848494849485e31,images/purpleplanet.jpg,images/alien4,images/alien3,images/rocket1,images/alien4,images/t.png,2,real,true,1,2020-06-12T02:02:46Z,2,common,sub20
two-step-fixation,146,645025,0.0-76.0-2.3,FALSE,FALSE,TRUE,FALSE,"""event"",""trial"",""time""
""fullscreenenter"",""5"",""30765""
","
","
","""event"",""trial"",""time""
""fullscreenenter"",""5"",""30765""
","
",NA,images/earth.jpg,NA,NA,NA,NA,NA,NA,NA,NA,NA,NA,NA,NA,NA,fixation,NA,NA,NA,NA,NA,NA,sub20
d3-animate-choice,147,647064,0.0-76.0-0.4,FALSE,FALSE,TRUE,FALSE,"""event"",""trial"",""time""
""fullscreenenter"",""5"",""30765""
","
","
","""event"",""trial"",""time""
""fullscreenenter"",""5"",""30765""
","
",36.32000000018161,NA,49,NA,NA,3000,1,"123.87000000034459,233.47999999986496,297.4199999999255,409.6700000000419,465.1400000002468,586.3699999999953,640.2299999999814,783.6699999998091,792.5100000002421,972.5650000000605,989.945000000298,1129.4399999997113,1197.6949999998324,1293.8199999998324,1388.1049999999814,1435.5599999999395,1572.7049999996088,1594.3399999996182,1732.8200000001816,1739.880000000121,1890.3700000001118,1905.1899999994785,2036.5949999996228",4849484948494848e30,images/earth.jpg,images/rocket1,images/rocket2,null,images/rocket2,NA,1,real,null,NA,NA,1,NA,sub20
d3-animate-choice,148,649079,0.0-76.0-1.4,FALSE,FALSE,TRUE,FALSE,"""event"",""trial"",""time""
""fullscreenenter"",""5"",""30765""
","
","
","""event"",""trial"",""time""
""fullscreenenter"",""5"",""30765""
","
",12.080000000423752,NA,49,NA,NA,3000,1,"163.71999999962281,324.1349999998929,453.9199999999255,493.40000000037253,627.8100000000559,650.2149999997346,772.4500000004191,841.7499999996508,933.7500000002328,1047.6399999997811,1107.6149999999907,1301.910000000149,1310.5050000004703,1455.895000000135,1478.7999999999302,1650.1449999996694,1691.925000000163,1849.2699999997858,1881.690000000177,2006.7300000000978",484848494849485e25,images/redplanet1.jpg,images/alien2,images/alien1,images/rocket2,images/alien1,images/nothing.png,2,real,true,0,2020-06-12T02:02:51Z,1,common,sub20
two-step-fixation,149,650082,0.0-76.0-2.4,FALSE,FALSE,TRUE,FALSE,"""event"",""trial"",""time""
""fullscreenenter"",""5"",""30765""
","
","
","""event"",""trial"",""time""
""fullscreenenter"",""5"",""30765""
","
",NA,images/earth.jpg,NA,NA,NA,NA,NA,NA,NA,NA,NA,NA,NA,NA,NA,fixation,NA,NA,NA,NA,NA,NA,sub20
d3-animate-choice,150,652194,0.0-76.0-0.5,FALSE,FALSE,TRUE,FALSE,"""event"",""trial"",""time""
""fullscreenenter"",""5"",""30765""
","
","
","""event"",""trial"",""time""
""fullscreenenter"",""5"",""30765""
","
",108.72500000009313,NA,48,NA,NA,3000,1,"116.70500000042375,297.84000000020023,457.88000000000466,484.2650000001304,620.9650000000838,690.429999999702,812.850000000326,914.7000000003027,993.9300000006333,1148.6500000001397,1193.8799999998882,1343.0850000004284,1369.8599999998696,1546.330000000191,1570.0600000000559,1740.1799999998184,1782.6199999999953,1921.2950000001583,2030.9649999999674",494848494849485e23,images/earth.jpg,images/rocket1,images/rocket2,null,images/rocket1,NA,1,real,null,NA,NA,2,NA,sub20
d3-animate-choice,151,654204,0.0-76.0-1.5,FALSE,FALSE,TRUE,FALSE,"""event"",""trial"",""time""
""fullscreenenter"",""5"",""30765""
","
","
","""event"",""trial"",""time""
""fullscreenenter"",""5"",""30765""
","
",6.755000000237487,NA,48,NA,NA,3000,1,"191.04500000039116,194.46000000054482,414.3250000005355,524.3300000001909,541.3450000005541,684.3550000003306,726.0700000005309,854.7600000001257,932.7350000002189,1036.2450000002282,1146.7500000006985,1223.3500000002095,1397.2100000000792,1405.8150000000605,1571.1300000002375,1650.7600000003586,1772.8999999999069,1864.575000000419,1989.4700000004377",4948494849484948e22,images/purpleplanet.jpg,images/alien4,images/alien3,images/rocket1,images/alien4,images/t.png,2,real,true,1,2020-06-12T02:02:56Z,2,common,sub20
two-step-fixation,152,655206,0.0-76.0-2.5,FALSE,FALSE,TRUE,FALSE,"""event"",""trial"",""time""
""fullscreenenter"",""5"",""30765""
","
","
","""event"",""trial"",""time""
""fullscreenenter"",""5"",""30765""
","
",NA,images/earth.jpg,NA,NA,NA,NA,NA,NA,NA,NA,NA,NA,NA,NA,NA,fixation,NA,NA,NA,NA,NA,NA,sub20
d3-animate-choice,153,657313,0.0-76.0-0.6,FALSE,FALSE,TRUE,FALSE,"""event"",""trial"",""time""
""fullscreenenter"",""5"",""30765""
","
","
","""event"",""trial"",""time""
""fullscreenenter"",""5"",""30765""
","
",103.65499999991152,NA,48,NA,NA,3000,1,"278.7799999996787,298.85000000009313,402.54999999981374,492.78999999933876,634.7699999996694,689.1150000001071,850.9349999994738,893.2649999996647,1070.2000000001863,1291.4199999995762,1298.104999999865,1487.889999999432,1524.579999999376,1662.2600000001257,1742.6249999998836,1862.0499999996973,1963.039999999688,2052.644999999786",49484948494849485e19,images/earth.jpg,images/rocket1,images/rocket2,null,images/rocket1,NA,1,real,null,NA,NA,2,NA,sub20
d3-animate-choice,154,659393,0.0-76.0-1.6,FALSE,FALSE,TRUE,FALSE,"""event"",""trial"",""time""
""fullscreenenter"",""5"",""30765""
","
","
","""event"",""trial"",""time""
""fullscreenenter"",""5"",""30765""
","
",77.01000000000931,NA,49,NA,NA,3000,1,"164.2400000001071,338.9150000002701,342.13000000000466,522.2199999998556,531.4050000007264,736.1799999999348,743.6200000002282,986.7700000004843,1134.125000000582,1219.285000000149,1318.4500000007683,1469.259999999893,1531.840000000666,1732.9900000004563,1773.145000000135,1947.5849999999627,2002.2850000004983",48494849484849467e17,images/purpleplanet.jpg,images/alien4,images/alien3,images/rocket1,images/alien3,images/nothing.png,2,real,true,0,2020-06-12T02:03:01Z,1,common,sub20
two-step-fixation,155,660395,0.0-76.0-2.6,FALSE,FALSE,TRUE,FALSE,"""event"",""trial"",""time""
""fullscreenenter"",""5"",""30765""
","
","
","""event"",""trial"",""time""
""fullscreenenter"",""5"",""30765""
","
",NA,images/earth.jpg,NA,NA,NA,NA,NA,NA,NA,NA,NA,NA,NA,NA,NA,fixation,NA,NA,NA,NA,NA,NA,sub20
d3-animate-choice,156,663839,0.0-76.0-0.7,FALSE,FALSE,TRUE,FALSE,"""event"",""trial"",""time""
""fullscreenenter"",""5"",""30765""
","
","
","""event"",""trial"",""time""
""fullscreenenter"",""5"",""30765""
","
",1440.4899999998743,NA,49,NA,NA,3000,1,NA,NA,images/earth.jpg,images/rocket1,images/rocket2,null,images/rocket2,NA,1,real,null,NA,NA,1,NA,sub20
d3-animate-choice,157,666238,0.0-76.0-1.7,FALSE,FALSE,TRUE,FALSE,"""event"",""trial"",""time""
""fullscreenenter"",""5"",""30765""
","
","
","""event"",""trial"",""time""
""fullscreenenter"",""5"",""30765""
","
",396.004999999539,NA,48,NA,NA,3000,1,NA,NA,images/redplanet1.jpg,images/alien2,images/alien1,images/rocket2,images/alien2,images/t.png,2,real,true,1,2020-06-12T02:03:08Z,2,common,sub20
two-step-fixation,158,667240,0.0-76.0-2.7,FALSE,FALSE,TRUE,FALSE,"""event"",""trial"",""time""
""fullscreenenter"",""5"",""30765""
","
","
","""event"",""trial"",""time""
""fullscreenenter"",""5"",""30765""
","
",NA,images/earth.jpg,NA,NA,NA,NA,NA,NA,NA,NA,NA,NA,NA,NA,NA,fixation,NA,NA,NA,NA,NA,NA,sub20
d3-animate-choice,159,669711,0.0-76.0-0.8,FALSE,FALSE,TRUE,FALSE,"""event"",""trial"",""time""
""fullscreenenter"",""5"",""30765""
","
","
","""event"",""trial"",""time""
""fullscreenenter"",""5"",""30765""
","
",467.4550000000745,NA,48,NA,NA,3000,1,NA,NA,images/earth.jpg,images/rocket1,images/rocket2,null,images/rocket1,NA,1,real,null,NA,NA,2,NA,sub20
d3-animate-choice,160,672114,0.0-76.0-1.8,FALSE,FALSE,TRUE,FALSE,"""event"",""trial"",""time""
""fullscreenenter"",""5"",""30765""
","
","
","""event"",""trial"",""time""
""fullscreenenter"",""5"",""30765""
","
",400.5250000000233,NA,49,NA,NA,3000,1,NA,NA,images/purpleplanet.jpg,images/alien4,images/alien3,images/rocket1,images/alien3,images/t.png,2,real,true,1,2020-06-12T02:03:14Z,1,common,sub20
two-step-fixation,161,673118,0.0-76.0-2.8,FALSE,FALSE,TRUE,FALSE,"""event"",""trial"",""time""
""fullscreenenter"",""5"",""30765""
","
","
","""event"",""trial"",""time""
""fullscreenenter"",""5"",""30765""
","
",NA,images/earth.jpg,NA,NA,NA,NA,NA,NA,NA,NA,NA,NA,NA,NA,NA,fixation,NA,NA,NA,NA,NA,NA,sub20
d3-animate-choice,162,675511,0.0-76.0-0.9,FALSE,FALSE,TRUE,FALSE,"""event"",""trial"",""time""
""fullscreenenter"",""5"",""30765""
","
","
","""event"",""trial"",""time""
""fullscreenenter"",""5"",""30765""
","
",389.5799999999581,NA,49,NA,NA,3000,1,NA,NA,images/earth.jpg,images/rocket1,images/rocket2,null,images/rocket2,NA,1,real,null,NA,NA,1,NA,sub20
d3-animate-choice,163,677792,0.0-76.0-1.9,FALSE,FALSE,TRUE,FALSE,"""event"",""trial"",""time""
""fullscreenenter"",""5"",""30765""
","
","
","""event"",""trial"",""time""
""fullscreenenter"",""5"",""30765""
","
",278.1400000003632,NA,49,NA,NA,3000,1,NA,NA,images/purpleplanet.jpg,images/alien4,images/alien3,images/rocket2,images/alien3,images/t.png,2,real,false,1,2020-06-12T02:03:20Z,1,rare,sub20
two-step-fixation,164,678795,0.0-76.0-2.9,FALSE,FALSE,TRUE,FALSE,"""event"",""trial"",""time""
""fullscreenenter"",""5"",""30765""
","
","
","""event"",""trial"",""time""
""fullscreenenter"",""5"",""30765""
","
",NA,images/earth.jpg,NA,NA,NA,NA,NA,NA,NA,NA,NA,NA,NA,NA,NA,fixation,NA,NA,NA,NA,NA,NA,sub20
d3-animate-choice,165,681560,0.0-76.0-0.10,FALSE,FALSE,TRUE,FALSE,"""event"",""trial"",""time""
""fullscreenenter"",""5"",""30765""
","
","
","""event"",""trial"",""time""
""fullscreenenter"",""5"",""30765""
","
",762.6900000005262,NA,48,NA,NA,3000,1,NA,NA,images/earth.jpg,images/rocket1,images/rocket2,null,images/rocket1,NA,1,real,null,NA,NA,2,NA,sub20
d3-animate-choice,166,683918,0.0-76.0-1.10,FALSE,FALSE,TRUE,FALSE,"""event"",""trial"",""time""
""fullscreenenter"",""5"",""30765""
","
","
","""event"",""trial"",""time""
""fullscreenenter"",""5"",""30765""
","
",354.55999999982305,NA,48,NA,NA,3000,1,NA,NA,images/redplanet1.jpg,images/alien2,images/alien1,images/rocket1,images/alien2,images/t.png,2,real,false,1,2020-06-12T02:03:26Z,2,rare,sub20
two-step-fixation,167,684921,0.0-76.0-2.10,FALSE,FALSE,TRUE,FALSE,"""event"",""trial"",""time""
""fullscreenenter"",""5"",""30765""
","
","
","""event"",""trial"",""time""
""fullscreenenter"",""5"",""30765""
","
",NA,images/earth.jpg,NA,NA,NA,NA,NA,NA,NA,NA,NA,NA,NA,NA,NA,fixation,NA,NA,NA,NA,NA,NA,sub20
d3-animate-choice,168,687662,0.0-76.0-0.11,FALSE,FALSE,TRUE,FALSE,"""event"",""trial"",""time""
""fullscreenenter"",""5"",""30765""
","
","
","""event"",""trial"",""time""
""fullscreenenter"",""5"",""30765""
","
",738.1900000000605,NA,48,NA,NA,3000,1,NA,NA,images/earth.jpg,images/rocket1,images/rocket2,null,images/rocket1,NA,1,real,null,NA,NA,2,NA,sub20
d3-animate-choice,169,689950,0.0-76.0-1.11,FALSE,FALSE,TRUE,FALSE,"""event"",""trial"",""time""
""fullscreenenter"",""5"",""30765""
","
","
","""event"",""trial"",""time""
""fullscreenenter"",""5"",""30765""
","
",284.45999999984633,NA,48,NA,NA,3000,1,NA,NA,images/purpleplanet.jpg,images/alien4,images/alien3,images/rocket1,images/alien4,images/nothing.png,2,real,true,0,2020-06-12T02:03:32Z,2,common,sub20
two-step-fixation,170,690952,0.0-76.0-2.11,FALSE,FALSE,TRUE,FALSE,"""event"",""trial"",""time""
""fullscreenenter"",""5"",""30765""
","
","
","""event"",""trial"",""time""
""fullscreenenter"",""5"",""30765""
","
",NA,images/earth.jpg,NA,NA,NA,NA,NA,NA,NA,NA,NA,NA,NA,NA,NA,fixation,NA,NA,NA,NA,NA,NA,sub20
d3-animate-choice,171,693321,0.0-76.0-0.12,FALSE,FALSE,TRUE,FALSE,"""event"",""trial"",""time""
""fullscreenenter"",""5"",""30765""
","
","
","""event"",""trial"",""time""
""fullscreenenter"",""5"",""30765""
","
",365.80499999946915,NA,49,NA,NA,3000,1,NA,NA,images/earth.jpg,images/rocket1,images/rocket2,null,images/rocket2,NA,1,real,null,NA,NA,1,NA,sub20
d3-animate-choice,172,695830,0.0-76.0-1.12,FALSE,FALSE,TRUE,FALSE,"""event"",""trial"",""time""
""fullscreenenter"",""5"",""30765""
","
","
","""event"",""trial"",""time""
""fullscreenenter"",""5"",""30765""
","
",505.5899999997346,NA,49,NA,NA,3000,1,NA,NA,images/redplanet1.jpg,images/alien2,images/alien1,images/rocket2,images/alien1,images/t.png,2,real,true,1,2020-06-12T02:03:38Z,1,common,sub20
two-step-fixation,173,696833,0.0-76.0-2.12,FALSE,FALSE,TRUE,FALSE,"""event"",""trial"",""time""
""fullscreenenter"",""5"",""30765""
","
","
","""event"",""trial"",""time""
""fullscreenenter"",""5"",""30765""
","
",NA,images/earth.jpg,NA,NA,NA,NA,NA,NA,NA,NA,NA,NA,NA,NA,NA,fixation,NA,NA,NA,NA,NA,NA,sub20
d3-animate-choice,174,699026,0.0-76.0-0.13,FALSE,FALSE,TRUE,FALSE,"""event"",""trial"",""time""
""fullscreenenter"",""5"",""30765""
","
","
","""event"",""trial"",""time""
""fullscreenenter"",""5"",""30765""
","
",189.2550000002375,NA,49,NA,NA,3000,1,"1566.3299999996088,2068.999999999418",4848,images/earth.jpg,images/rocket1,images/rocket2,null,images/rocket2,NA,1,real,null,NA,NA,1,NA,sub20
d3-animate-choice,175,701112,0.0-76.0-1.13,FALSE,FALSE,TRUE,FALSE,"""event"",""trial"",""time""
""fullscreenenter"",""5"",""30765""
","
","
","""event"",""trial"",""time""
""fullscreenenter"",""5"",""30765""
","
",81.89499999932013,NA,48,NA,NA,3000,1,NA,NA,images/redplanet1.jpg,images/alien2,images/alien1,images/rocket2,images/alien2,images/nothing.png,2,real,true,0,2020-06-12T02:03:43Z,2,common,sub20
two-step-fixation,176,702116,0.0-76.0-2.13,FALSE,FALSE,TRUE,FALSE,"""event"",""trial"",""time""
""fullscreenenter"",""5"",""30765""
","
","
","""event"",""trial"",""time""
""fullscreenenter"",""5"",""30765""
","
",NA,images/earth.jpg,NA,NA,NA,NA,NA,NA,NA,NA,NA,NA,NA,NA,NA,fixation,NA,NA,NA,NA,NA,NA,sub20
d3-animate-choice,177,704838,0.0-76.0-0.14,FALSE,FALSE,TRUE,FALSE,"""event"",""trial"",""time""
""fullscreenenter"",""5"",""30765""
","
","
","""event"",""trial"",""time""
""fullscreenenter"",""5"",""30765""
","
",718.934999999823,NA,48,NA,NA,3000,1,NA,NA,images/earth.jpg,images/rocket1,images/rocket2,null,images/rocket1,NA,1,real,null,NA,NA,2,NA,sub20
d3-animate-choice,178,707731,0.0-76.0-1.14,FALSE,FALSE,TRUE,FALSE,"""event"",""trial"",""time""
""fullscreenenter"",""5"",""30765""
","
","
","""event"",""trial"",""time""
""fullscreenenter"",""5"",""30765""
","
",890.135000000475,NA,48,NA,NA,3000,1,NA,NA,images/purpleplanet.jpg,images/alien4,images/alien3,images/rocket1,images/alien4,images/t.png,2,real,true,1,2020-06-12T02:03:50Z,2,common,sub20
two-step-fixation,179,708734,0.0-76.0-2.14,FALSE,FALSE,TRUE,FALSE,"""event"",""trial"",""time""
""fullscreenenter"",""5"",""30765""
","
","
","""event"",""trial"",""time""
""fullscreenenter"",""5"",""30765""
","
",NA,images/earth.jpg,NA,NA,NA,NA,NA,NA,NA,NA,NA,NA,NA,NA,NA,fixation,NA,NA,NA,NA,NA,NA,sub20
d3-animate-choice,180,711063,0.0-76.0-0.15,FALSE,FALSE,TRUE,FALSE,"""event"",""trial"",""time""
""fullscreenenter"",""5"",""30765""
","
","
","""event"",""trial"",""time""
""fullscreenenter"",""5"",""30765""
","
",325.94499999959953,NA,49,NA,NA,3000,1,1159.029999999795,48,images/earth.jpg,images/rocket1,images/rocket2,null,images/rocket2,NA,1,real,null,NA,NA,1,NA,sub20
d3-animate-choice,181,713389,0.0-76.0-1.15,FALSE,FALSE,TRUE,FALSE,"""event"",""trial"",""time""
""fullscreenenter"",""5"",""30765""
","
","
","""event"",""trial"",""time""
""fullscreenenter"",""5"",""30765""
","
",322.9000000001397,NA,48,NA,NA,3000,1,NA,NA,images/redplanet1.jpg,images/alien2,images/alien1,images/rocket2,images/alien2,images/nothing.png,2,real,true,0,2020-06-12T02:03:55Z,2,common,sub20
two-step-fixation,182,714392,0.0-76.0-2.15,FALSE,FALSE,TRUE,FALSE,"""event"",""trial"",""time""
""fullscreenenter"",""5"",""30765""
","
","
","""event"",""trial"",""time""
""fullscreenenter"",""5"",""30765""
","
",NA,images/earth.jpg,NA,NA,NA,NA,NA,NA,NA,NA,NA,NA,NA,NA,NA,fixation,NA,NA,NA,NA,NA,NA,sub20
d3-animate-choice,183,716489,0.0-76.0-0.16,FALSE,FALSE,TRUE,FALSE,"""event"",""trial"",""time""
""fullscreenenter"",""5"",""30765""
","
","
","""event"",""trial"",""time""
""fullscreenenter"",""5"",""30765""
","
",92.8599999997532,NA,49,NA,NA,3000,1,"393.47999999974854,634.7500000002328,868.3950000004843,1100.5949999998556,1320.824999999837,1492.0000000002328,1771.555000000284,1989.029999999795",4949494949494949,images/earth.jpg,images/rocket1,images/rocket2,null,images/rocket2,NA,1,real,null,NA,NA,1,NA,sub20
d3-animate-choice,184,718593,0.0-76.0-1.16,FALSE,FALSE,TRUE,FALSE,"""event"",""trial"",""time""
""fullscreenenter"",""5"",""30765""
","
","
","""event"",""trial"",""time""
""fullscreenenter"",""5"",""30765""
","
",101.48500000010245,NA,49,NA,NA,3000,1,"309.74000000057276,514.6949999998324,741.2000000004191,1071.5,2014.570000000298",4949494948,images/redplanet1.jpg,images/alien2,images/alien1,images/rocket2,images/alien1,images/t.png,2,real,true,1,2020-06-12T02:04:00Z,1,common,sub20
two-step-fixation,185,719596,0.0-76.0-2.16,FALSE,FALSE,TRUE,FALSE,"""event"",""trial"",""time""
""fullscreenenter"",""5"",""30765""
","
","
","""event"",""trial"",""time""
""fullscreenenter"",""5"",""30765""
","
",NA,images/earth.jpg,NA,NA,NA,NA,NA,NA,NA,NA,NA,NA,NA,NA,NA,fixation,NA,NA,NA,NA,NA,NA,sub20
d3-animate-choice,186,721849,0.0-76.0-0.17,FALSE,FALSE,TRUE,FALSE,"""event"",""trial"",""time""
""fullscreenenter"",""5"",""30765""
","
","
","""event"",""trial"",""time""
""fullscreenenter"",""5"",""30765""
","
",248.77000000013504,NA,48,NA,NA,3000,1,"417.88999999978114,1530.2849999997998",4849,images/earth.jpg,images/rocket1,images/rocket2,null,images/rocket1,NA,1,real,null,NA,NA,2,NA,sub20
d3-animate-choice,187,724526,0.0-76.0-1.17,FALSE,FALSE,TRUE,FALSE,"""event"",""trial"",""time""
""fullscreenenter"",""5"",""30765""
","
","
","""event"",""trial"",""time""
""fullscreenenter"",""5"",""30765""
","
",673.1900000005262,NA,49,NA,NA,3000,1,751.5000000003492,48,images/purpleplanet.jpg,images/alien4,images/alien3,images/rocket1,images/alien3,images/t.png,2,real,true,1,2020-06-12T02:04:06Z,1,common,sub20
two-step-fixation,188,725529,0.0-76.0-2.17,FALSE,FALSE,TRUE,FALSE,"""event"",""trial"",""time""
""fullscreenenter"",""5"",""30765""
","
","
","""event"",""trial"",""time""
""fullscreenenter"",""5"",""30765""
","
",NA,images/earth.jpg,NA,NA,NA,NA,NA,NA,NA,NA,NA,NA,NA,NA,NA,fixation,NA,NA,NA,NA,NA,NA,sub20
d3-animate-choice,189,728436,0.0-76.0-0.18,FALSE,FALSE,TRUE,FALSE,"""event"",""trial"",""time""
""fullscreenenter"",""5"",""30765""
","
","
","""event"",""trial"",""time""
""fullscreenenter"",""5"",""30765""
","
",903.6500000001397,NA,49,NA,NA,3000,1,NA,NA,images/earth.jpg,images/rocket1,images/rocket2,null,images/rocket2,NA,1,real,null,NA,NA,1,NA,sub20
d3-animate-choice,190,731511,0.0-76.0-1.18,FALSE,FALSE,TRUE,FALSE,"""event"",""trial"",""time""
""fullscreenenter"",""5"",""30765""
","
","
","""event"",""trial"",""time""
""fullscreenenter"",""5"",""30765""
","
",1072.3150000002934,NA,48,NA,NA,3000,1,NA,NA,images/purpleplanet.jpg,images/alien4,images/alien3,images/rocket2,images/alien4,images/t.png,2,real,false,1,2020-06-12T02:04:13Z,2,rare,sub20
two-step-fixation,191,732513,0.0-76.0-2.18,FALSE,FALSE,TRUE,FALSE,"""event"",""trial"",""time""
""fullscreenenter"",""5"",""30765""
","
","
","""event"",""trial"",""time""
""fullscreenenter"",""5"",""30765""
","
",NA,images/earth.jpg,NA,NA,NA,NA,NA,NA,NA,NA,NA,NA,NA,NA,NA,fixation,NA,NA,NA,NA,NA,NA,sub20
d3-animate-choice,192,735315,0.0-76.0-0.19,FALSE,FALSE,TRUE,FALSE,"""event"",""trial"",""time""
""fullscreenenter"",""5"",""30765""
","
","
","""event"",""trial"",""time""
""fullscreenenter"",""5"",""30765""
","
",799.6450000000186,NA,49,NA,NA,3000,1,NA,NA,images/earth.jpg,images/rocket1,images/rocket2,null,images/rocket2,NA,1,real,null,NA,NA,1,NA,sub20
d3-animate-choice,193,738321,0.0-76.0-1.19,FALSE,FALSE,TRUE,FALSE,"""event"",""trial"",""time""
""fullscreenenter"",""5"",""30765""
","
","
","""event"",""trial"",""time""
""fullscreenenter"",""5"",""30765""
","
",1002.6750000006286,NA,49,NA,NA,3000,1,NA,NA,images/redplanet1.jpg,images/alien2,images/alien1,images/rocket2,images/alien1,images/t.png,2,real,true,1,2020-06-12T02:04:20Z,1,common,sub20
two-step-fixation,194,739324,0.0-76.0-2.19,FALSE,FALSE,TRUE,FALSE,"""event"",""trial"",""time""
""fullscreenenter"",""5"",""30765""
","
","
","""event"",""trial"",""time""
""fullscreenenter"",""5"",""30765""
","
",NA,images/earth.jpg,NA,NA,NA,NA,NA,NA,NA,NA,NA,NA,NA,NA,NA,fixation,NA,NA,NA,NA,NA,NA,sub20
d3-animate-choice,195,741856,0.0-76.0-0.20,FALSE,FALSE,TRUE,FALSE,"""event"",""trial"",""time""
""fullscreenenter"",""5"",""30765""
","
","
","""event"",""trial"",""time""
""fullscreenenter"",""5"",""30765""
","
",528.765000000014,NA,48,NA,NA,3000,1,1457.5100000002421,49,images/earth.jpg,images/rocket1,images/rocket2,null,images/rocket1,NA,1,real,null,NA,NA,2,NA,sub20
d3-animate-choice,196,744222,0.0-76.0-1.20,FALSE,FALSE,TRUE,FALSE,"""event"",""trial"",""time""
""fullscreenenter"",""5"",""30765""
","
","
","""event"",""trial"",""time""
""fullscreenenter"",""5"",""30765""
","
",364.32999999949243,NA,49,NA,NA,3000,1,NA,NA,images/purpleplanet.jpg,images/alien4,images/alien3,images/rocket1,images/alien3,images/nothing.png,2,real,true,0,2020-06-12T02:04:26Z,1,common,sub20
two-step-fixation,197,745226,0.0-76.0-2.20,FALSE,FALSE,TRUE,FALSE,"""event"",""trial"",""time""
""fullscreenenter"",""5"",""30765""
","
","
","""event"",""trial"",""time""
""fullscreenenter"",""5"",""30765""
","
",NA,images/earth.jpg,NA,NA,NA,NA,NA,NA,NA,NA,NA,NA,NA,NA,NA,fixation,NA,NA,NA,NA,NA,NA,sub20
d3-animate-choice,198,748118,0.0-76.0-0.21,FALSE,FALSE,TRUE,FALSE,"""event"",""trial"",""time""
""fullscreenenter"",""5"",""30765""
","
","
","""event"",""trial"",""time""
""fullscreenenter"",""5"",""30765""
","
",889.1350000003586,NA,48,NA,NA,3000,1,NA,NA,images/earth.jpg,images/rocket1,images/rocket2,null,images/rocket1,NA,1,real,null,NA,NA,2,NA,sub20
d3-animate-choice,199,750779,0.0-76.0-1.21,FALSE,FALSE,TRUE,FALSE,"""event"",""trial"",""time""
""fullscreenenter"",""5"",""30765""
","
","
","""event"",""trial"",""time""
""fullscreenenter"",""5"",""30765""
","
",658.1349999996601,NA,48,NA,NA,3000,1,NA,NA,images/redplanet1.jpg,images/alien2,images/alien1,images/rocket1,images/alien2,images/nothing.png,2,real,false,0,2020-06-12T02:04:33Z,2,rare,sub20
two-step-fixation,200,751782,0.0-76.0-2.21,FALSE,FALSE,TRUE,FALSE,"""event"",""trial"",""time""
""fullscreenenter"",""5"",""30765""
","
","
","""event"",""trial"",""time""
""fullscreenenter"",""5"",""30765""
","
",NA,images/earth.jpg,NA,NA,NA,NA,NA,NA,NA,NA,NA,NA,NA,NA,NA,fixation,NA,NA,NA,NA,NA,NA,sub20
d3-animate-choice,201,754456,0.0-76.0-0.22,FALSE,FALSE,TRUE,FALSE,"""event"",""trial"",""time""
""fullscreenenter"",""5"",""30765""
","
","
","""event"",""trial"",""time""
""fullscreenenter"",""5"",""30765""
","
",670.4349999999395,NA,49,NA,NA,3000,1,1504.34499999939,49,images/earth.jpg,images/rocket1,images/rocket2,null,images/rocket2,NA,1,real,null,NA,NA,1,NA,sub20
d3-animate-choice,202,756876,0.0-76.0-1.22,FALSE,FALSE,TRUE,FALSE,"""event"",""trial"",""time""
""fullscreenenter"",""5"",""30765""
","
","
","""event"",""trial"",""time""
""fullscreenenter"",""5"",""30765""
","
",414.89000000001397,NA,48,NA,NA,3000,1,1911.4700000000885,13,images/redplanet1.jpg,images/alien2,images/alien1,images/rocket2,images/alien2,images/t.png,2,real,true,1,2020-06-12T02:04:39Z,2,common,sub20
two-step-fixation,203,757880,0.0-76.0-2.22,FALSE,FALSE,TRUE,FALSE,"""event"",""trial"",""time""
""fullscreenenter"",""5"",""30765""
","
","
","""event"",""trial"",""time""
""fullscreenenter"",""5"",""30765""
","
",NA,images/earth.jpg,NA,NA,NA,NA,NA,NA,NA,NA,NA,NA,NA,NA,NA,fixation,NA,NA,NA,NA,NA,NA,sub20
d3-animate-choice,204,760787,0.0-76.0-0.23,FALSE,FALSE,TRUE,FALSE,"""event"",""trial"",""time""
""fullscreenenter"",""5"",""30765""
","
","
","""event"",""trial"",""time""
""fullscreenenter"",""5"",""30765""
","
",904.1850000002887,NA,48,NA,NA,3000,1,NA,NA,images/earth.jpg,images/rocket1,images/rocket2,null,images/rocket1,NA,1,real,null,NA,NA,2,NA,sub20
d3-animate-choice,205,763515,0.0-76.0-1.23,FALSE,FALSE,TRUE,FALSE,"""event"",""trial"",""time""
""fullscreenenter"",""5"",""30765""
","
","
","""event"",""trial"",""time""
""fullscreenenter"",""5"",""30765""
","
",725.0000000003492,NA,49,NA,NA,3000,1,NA,NA,images/purpleplanet.jpg,images/alien4,images/alien3,images/rocket1,images/alien3,images/nothing.png,2,real,true,0,2020-06-12T02:04:45Z,1,common,sub20
two-step-fixation,206,764518,0.0-76.0-2.23,FALSE,FALSE,TRUE,FALSE,"""event"",""trial"",""time""
""fullscreenenter"",""5"",""30765""
","
","
","""event"",""trial"",""time""
""fullscreenenter"",""5"",""30765""
","
",NA,images/earth.jpg,NA,NA,NA,NA,NA,NA,NA,NA,NA,NA,NA,NA,NA,fixation,NA,NA,NA,NA,NA,NA,sub20
d3-animate-choice,207,767417,0.0-76.0-0.24,FALSE,FALSE,TRUE,FALSE,"""event"",""trial"",""time""
""fullscreenenter"",""5"",""30765""
","
","
","""event"",""trial"",""time""
""fullscreenenter"",""5"",""30765""
","
",894.8799999997718,NA,48,NA,NA,3000,1,NA,NA,images/earth.jpg,images/rocket1,images/rocket2,null,images/rocket1,NA,1,real,null,NA,NA,2,NA,sub20
d3-animate-choice,208,770168,0.0-76.0-1.24,FALSE,FALSE,TRUE,FALSE,"""event"",""trial"",""time""
""fullscreenenter"",""5"",""30765""
","
","
","""event"",""trial"",""time""
""fullscreenenter"",""5"",""30765""
","
",748.7300000002142,NA,48,NA,NA,3000,1,NA,NA,images/redplanet1.jpg,images/alien2,images/alien1,images/rocket1,images/alien2,images/t.png,2,real,false,1,2020-06-12T02:04:52Z,2,rare,sub20
two-step-fixation,209,771171,0.0-76.0-2.24,FALSE,FALSE,TRUE,FALSE,"""event"",""trial"",""time""
""fullscreenenter"",""5"",""30765""
","
","
","""event"",""trial"",""time""
""fullscreenenter"",""5"",""30765""
","
",NA,images/earth.jpg,NA,NA,NA,NA,NA,NA,NA,NA,NA,NA,NA,NA,NA,fixation,NA,NA,NA,NA,NA,NA,sub20
d3-animate-choice,210,773989,0.0-76.0-0.25,FALSE,FALSE,TRUE,FALSE,"""event"",""trial"",""time""
""fullscreenenter"",""5"",""30765""
","
","
","""event"",""trial"",""time""
""fullscreenenter"",""5"",""30765""
","
",815.0200000000186,NA,48,NA,NA,3000,1,NA,NA,images/earth.jpg,images/rocket1,images/rocket2,null,images/rocket1,NA,1,real,null,NA,NA,2,NA,sub20
d3-animate-choice,211,776529,0.0-76.0-1.25,FALSE,FALSE,TRUE,FALSE,"""event"",""trial"",""time""
""fullscreenenter"",""5"",""30765""
","
","
","""event"",""trial"",""time""
""fullscreenenter"",""5"",""30765""
","
",536.0000000001164,NA,49,NA,NA,3000,1,NA,NA,images/redplanet1.jpg,images/alien2,images/alien1,images/rocket1,images/alien1,images/nothing.png,2,real,false,0,2020-06-12T02:04:58Z,1,rare,sub20
two-step-fixation,212,777532,0.0-76.0-2.25,FALSE,FALSE,TRUE,FALSE,"""event"",""trial"",""time""
""fullscreenenter"",""5"",""30765""
","
","
","""event"",""trial"",""time""
""fullscreenenter"",""5"",""30765""
","
",NA,images/earth.jpg,NA,NA,NA,NA,NA,NA,NA,NA,NA,NA,NA,NA,NA,fixation,NA,NA,NA,NA,NA,NA,sub20
d3-animate-choice,213,780029,0.0-76.0-0.26,FALSE,FALSE,TRUE,FALSE,"""event"",""trial"",""time""
""fullscreenenter"",""5"",""30765""
","
","
","""event"",""trial"",""time""
""fullscreenenter"",""5"",""30765""
","
",492.85500000044703,NA,48,NA,NA,3000,1,NA,NA,images/earth.jpg,images/rocket1,images/rocket2,null,images/rocket1,NA,1,real,null,NA,NA,2,NA,sub20
d3-animate-choice,214,782567,0.0-76.0-1.26,FALSE,FALSE,TRUE,FALSE,"""event"",""trial"",""time""
""fullscreenenter"",""5"",""30765""
","
","
","""event"",""trial"",""time""
""fullscreenenter"",""5"",""30765""
","
",533.3049999999348,NA,49,NA,NA,3000,1,564.9249999996973,48,images/purpleplanet.jpg,images/alien4,images/alien3,images/rocket1,images/alien3,images/nothing.png,2,real,true,0,2020-06-12T02:05:04Z,1,common,sub20
two-step-fixation,215,783570,0.0-76.0-2.26,FALSE,FALSE,TRUE,FALSE,"""event"",""trial"",""time""
""fullscreenenter"",""5"",""30765""
","
","
","""event"",""trial"",""time""
""fullscreenenter"",""5"",""30765""
","
",NA,images/earth.jpg,NA,NA,NA,NA,NA,NA,NA,NA,NA,NA,NA,NA,NA,fixation,NA,NA,NA,NA,NA,NA,sub20
d3-animate-choice,216,786029,0.0-76.0-0.27,FALSE,FALSE,TRUE,FALSE,"""event"",""trial"",""time""
""fullscreenenter"",""5"",""30765""
","
","
","""event"",""trial"",""time""
""fullscreenenter"",""5"",""30765""
","
",454.8100000002887,NA,48,NA,NA,3000,1,NA,NA,images/earth.jpg,images/rocket1,images/rocket2,null,images/rocket1,NA,1,real,null,NA,NA,2,NA,sub20
d3-animate-choice,217,788725,0.0-76.0-1.27,FALSE,FALSE,TRUE,FALSE,"""event"",""trial"",""time""
""fullscreenenter"",""5"",""30765""
","
","
","""event"",""trial"",""time""
""fullscreenenter"",""5"",""30765""
","
",693.1999999997206,NA,48,NA,NA,3000,1,NA,NA,images/purpleplanet.jpg,images/alien4,images/alien3,images/rocket1,images/alien4,images/t.png,2,real,true,1,2020-06-12T02:05:11Z,2,common,sub20
two-step-fixation,218,789729,0.0-76.0-2.27,FALSE,FALSE,TRUE,FALSE,"""event"",""trial"",""time""
""fullscreenenter"",""5"",""30765""
","
","
","""event"",""trial"",""time""
""fullscreenenter"",""5"",""30765""
","
",NA,images/earth.jpg,NA,NA,NA,NA,NA,NA,NA,NA,NA,NA,NA,NA,NA,fixation,NA,NA,NA,NA,NA,NA,sub20
d3-animate-choice,219,792870,0.0-76.0-0.28,FALSE,FALSE,TRUE,FALSE,"""event"",""trial"",""time""
""fullscreenenter"",""5"",""30765""
","
","
","""event"",""trial"",""time""
""fullscreenenter"",""5"",""30765""
","
",1138.2149999999674,NA,48,NA,NA,3000,1,NA,NA,images/earth.jpg,images/rocket1,images/rocket2,null,images/rocket1,NA,1,real,null,NA,NA,2,NA,sub20
d3-animate-choice,220,795985,0.0-76.0-1.28,FALSE,FALSE,TRUE,FALSE,"""event"",""trial"",""time""
""fullscreenenter"",""5"",""30765""
","
","
","""event"",""trial"",""time""
""fullscreenenter"",""5"",""30765""
","
",1112.2349999996368,NA,49,NA,NA,3000,1,NA,NA,images/redplanet1.jpg,images/alien2,images/alien1,images/rocket1,images/alien1,images/nothing.png,2,real,false,0,2020-06-12T02:05:18Z,1,rare,sub20
two-step-fixation,221,796987,0.0-76.0-2.28,FALSE,FALSE,TRUE,FALSE,"""event"",""trial"",""time""
""fullscreenenter"",""5"",""30765""
","
","
","""event"",""trial"",""time""
""fullscreenenter"",""5"",""30765""
","
",NA,images/earth.jpg,NA,NA,NA,NA,NA,NA,NA,NA,NA,NA,NA,NA,NA,fixation,NA,NA,NA,NA,NA,NA,sub20
d3-animate-choice,222,799550,0.0-76.0-0.29,FALSE,FALSE,TRUE,FALSE,"""event"",""trial"",""time""
""fullscreenenter"",""5"",""30765""
","
","
","""event"",""trial"",""time""
""fullscreenenter"",""5"",""30765""
","
",559.5949999997392,NA,48,NA,NA,3000,1,NA,NA,images/earth.jpg,images/rocket1,images/rocket2,null,images/rocket1,NA,1,real,null,NA,NA,2,NA,sub20
d3-animate-choice,223,802148,0.0-76.0-1.29,FALSE,FALSE,TRUE,FALSE,"""event"",""trial"",""time""
""fullscreenenter"",""5"",""30765""
","
","
","""event"",""trial"",""time""
""fullscreenenter"",""5"",""30765""
","
",595.5400000002701,NA,48,NA,NA,3000,1,NA,NA,images/purpleplanet.jpg,images/alien4,images/alien3,images/rocket1,images/alien4,images/nothing.png,2,real,true,0,2020-06-12T02:05:24Z,2,common,sub20
two-step-fixation,224,803151,0.0-76.0-2.29,FALSE,FALSE,TRUE,FALSE,"""event"",""trial"",""time""
""fullscreenenter"",""5"",""30765""
","
","
","""event"",""trial"",""time""
""fullscreenenter"",""5"",""30765""
","
",NA,images/earth.jpg,NA,NA,NA,NA,NA,NA,NA,NA,NA,NA,NA,NA,NA,fixation,NA,NA,NA,NA,NA,NA,sub20
d3-animate-choice,225,805725,0.0-76.0-0.30,FALSE,FALSE,TRUE,FALSE,"""event"",""trial"",""time""
""fullscreenenter"",""5"",""30765""
","
","
","""event"",""trial"",""time""
""fullscreenenter"",""5"",""30765""
","
",572.064999999362,NA,48,NA,NA,3000,1,1554.7900000001537,49,images/earth.jpg,images/rocket1,images/rocket2,null,images/rocket1,NA,1,real,null,NA,NA,2,NA,sub20
d3-animate-choice,226,809014,0.0-76.0-1.30,FALSE,FALSE,TRUE,FALSE,"""event"",""trial"",""time""
""fullscreenenter"",""5"",""30765""
","
","
","""event"",""trial"",""time""
""fullscreenenter"",""5"",""30765""
","
",728.3249999999534,NA,192,NA,NA,3000,1,1285.4449999994831,48,images/purpleplanet.jpg,images/alien4,images/alien3,images/rocket1,images/alien4,images/t.png,2,real,true,1,2020-06-12T02:05:31Z,NA,common,sub20
two-step-fixation,227,810017,0.0-76.0-2.30,FALSE,FALSE,TRUE,FALSE,"""event"",""trial"",""time""
""fullscreenenter"",""5"",""30765""
","
","
","""event"",""trial"",""time""
""fullscreenenter"",""5"",""30765""
","
",NA,images/earth.jpg,NA,NA,NA,NA,NA,NA,NA,NA,NA,NA,NA,NA,NA,fixation,NA,NA,NA,NA,NA,NA,sub20
d3-animate-choice,228,812417,0.0-76.0-0.31,FALSE,FALSE,TRUE,FALSE,"""event"",""trial"",""time""
""fullscreenenter"",""5"",""30765""
","
","
","""event"",""trial"",""time""
""fullscreenenter"",""5"",""30765""
","
",396.11999999941327,NA,49,NA,NA,3000,1,833.4899999999907,48,images/earth.jpg,images/rocket1,images/rocket2,null,images/rocket2,NA,1,real,null,NA,NA,1,NA,sub20
d3-animate-choice,229,814903,0.0-76.0-1.31,FALSE,FALSE,TRUE,FALSE,"""event"",""trial"",""time""
""fullscreenenter"",""5"",""30765""
","
","
","""event"",""trial"",""time""
""fullscreenenter"",""5"",""30765""
","
",483.8299999991432,NA,49,NA,NA,3000,1,NA,NA,images/redplanet1.jpg,images/alien2,images/alien1,images/rocket2,images/alien1,images/nothing.png,2,real,true,0,2020-06-12T02:05:37Z,1,common,sub20
two-step-fixation,230,815906,0.0-76.0-2.31,FALSE,FALSE,TRUE,FALSE,"""event"",""trial"",""time""
""fullscreenenter"",""5"",""30765""
","
","
","""event"",""trial"",""time""
""fullscreenenter"",""5"",""30765""
","
",NA,images/earth.jpg,NA,NA,NA,NA,NA,NA,NA,NA,NA,NA,NA,NA,NA,fixation,NA,NA,NA,NA,NA,NA,sub20
d3-animate-choice,231,818022,0.0-76.0-0.32,FALSE,FALSE,TRUE,FALSE,"""event"",""trial"",""time""
""fullscreenenter"",""5"",""30765""
","
","
","""event"",""trial"",""time""
""fullscreenenter"",""5"",""30765""
","
",112.5449999999255,NA,48,NA,NA,3000,1,403.39500000025146,49,images/earth.jpg,images/rocket1,images/rocket2,null,images/rocket1,NA,1,real,null,NA,NA,2,NA,sub20
d3-animate-choice,232,820675,0.0-76.0-1.32,FALSE,FALSE,TRUE,FALSE,"""event"",""trial"",""time""
""fullscreenenter"",""5"",""30765""
","
","
","""event"",""trial"",""time""
""fullscreenenter"",""5"",""30765""
","
",649.0599999997066,NA,48,NA,NA,3000,1,NA,NA,images/purpleplanet.jpg,images/alien4,images/alien3,images/rocket1,images/alien4,images/t.png,2,real,true,1,2020-06-12T02:05:43Z,2,common,sub20
two-step-fixation,233,821677,0.0-76.0-2.32,FALSE,FALSE,TRUE,FALSE,"""event"",""trial"",""time""
""fullscreenenter"",""5"",""30765""
","
","
","""event"",""trial"",""time""
""fullscreenenter"",""5"",""30765""
","
",NA,images/earth.jpg,NA,NA,NA,NA,NA,NA,NA,NA,NA,NA,NA,NA,NA,fixation,NA,NA,NA,NA,NA,NA,sub20
d3-animate-choice,234,824265,0.0-76.0-0.33,FALSE,FALSE,TRUE,FALSE,"""event"",""trial"",""time""
""fullscreenenter"",""5"",""30765""
","
","
","""event"",""trial"",""time""
""fullscreenenter"",""5"",""30765""
","
",585.0549999995856,NA,49,NA,NA,3000,1,NA,NA,images/earth.jpg,images/rocket1,images/rocket2,null,images/rocket2,NA,1,real,null,NA,NA,1,NA,sub20
d3-animate-choice,235,827106,0.0-76.0-1.33,FALSE,FALSE,TRUE,FALSE,"""event"",""trial"",""time""
""fullscreenenter"",""5"",""30765""
","
","
","""event"",""trial"",""time""
""fullscreenenter"",""5"",""30765""
","
",837.7300000002142,NA,48,NA,NA,3000,1,NA,NA,images/redplanet1.jpg,images/alien2,images/alien1,images/rocket2,images/alien2,images/t.png,2,real,true,1,2020-06-12T02:05:49Z,2,common,sub20
two-step-fixation,236,828110,0.0-76.0-2.33,FALSE,FALSE,TRUE,FALSE,"""event"",""trial"",""time""
""fullscreenenter"",""5"",""30765""
","
","
","""event"",""trial"",""time""
""fullscreenenter"",""5"",""30765""
","
",NA,images/earth.jpg,NA,NA,NA,NA,NA,NA,NA,NA,NA,NA,NA,NA,NA,fixation,NA,NA,NA,NA,NA,NA,sub20
d3-animate-choice,237,830665,0.0-76.0-0.34,FALSE,FALSE,TRUE,FALSE,"""event"",""trial"",""time""
""fullscreenenter"",""5"",""30765""
","
","
","""event"",""trial"",""time""
""fullscreenenter"",""5"",""30765""
","
",551.2249999992782,NA,49,NA,NA,3000,1,NA,NA,images/earth.jpg,images/rocket1,images/rocket2,null,images/rocket2,NA,1,real,null,NA,NA,1,NA,sub20
d3-animate-choice,238,833571,0.0-76.0-1.34,FALSE,FALSE,TRUE,FALSE,"""event"",""trial"",""time""
""fullscreenenter"",""5"",""30765""
","
","
","""event"",""trial"",""time""
""fullscreenenter"",""5"",""30765""
","
",902.3449999995064,NA,48,NA,NA,3000,1,NA,NA,images/purpleplanet.jpg,images/alien4,images/alien3,images/rocket2,images/alien4,images/t.png,2,real,false,1,2020-06-12T02:05:55Z,2,rare,sub20
two-step-fixation,239,834573,0.0-76.0-2.34,FALSE,FALSE,TRUE,FALSE,"""event"",""trial"",""time""
""fullscreenenter"",""5"",""30765""
","
","
","""event"",""trial"",""time""
""fullscreenenter"",""5"",""30765""
","
",NA,images/earth.jpg,NA,NA,NA,NA,NA,NA,NA,NA,NA,NA,NA,NA,NA,fixation,NA,NA,NA,NA,NA,NA,sub20
d3-animate-choice,240,837439,0.0-76.0-0.35,FALSE,FALSE,TRUE,FALSE,"""event"",""trial"",""time""
""fullscreenenter"",""5"",""30765""
","
","
","""event"",""trial"",""time""
""fullscreenenter"",""5"",""30765""
","
",863.1100000002189,NA,49,NA,NA,3000,1,2222.445000000298,48,images/earth.jpg,images/rocket1,images/rocket2,null,images/rocket2,NA,1,real,null,NA,NA,1,NA,sub20
d3-animate-choice,241,839923,0.0-76.0-1.35,FALSE,FALSE,TRUE,FALSE,"""event"",""trial"",""time""
""fullscreenenter"",""5"",""30765""
","
","
","""event"",""trial"",""time""
""fullscreenenter"",""5"",""30765""
","
",481.3350000004284,NA,48,NA,NA,3000,1,NA,NA,images/redplanet1.jpg,images/alien2,images/alien1,images/rocket2,images/alien2,images/t.png,2,real,true,1,2020-06-12T02:06:02Z,2,common,sub20
two-step-fixation,242,840926,0.0-76.0-2.35,FALSE,FALSE,TRUE,FALSE,"""event"",""trial"",""time""
""fullscreenenter"",""5"",""30765""
""blur"",""243"",""840996""
","""event"",""trial"",""time""
""blur"",""243"",""840996""
","
","""event"",""trial"",""time""
""fullscreenenter"",""5"",""30765""
","
",NA,images/earth.jpg,NA,NA,NA,NA,NA,NA,NA,NA,NA,NA,NA,NA,NA,fixation,NA,NA,NA,NA,NA,NA,sub20
d3-animate-choice,243,844933,0.0-76.0-0.36,FALSE,FALSE,TRUE,FALSE,"""event"",""trial"",""time""
""fullscreenenter"",""5"",""30765""
""blur"",""243"",""840996""
","""event"",""trial"",""time""
""blur"",""243"",""840996""
","
","""event"",""trial"",""time""
""fullscreenenter"",""5"",""30765""
","
",null,NA,null,NA,NA,3000,0,NA,NA,images/earth.jpg,images/rocket1,images/rocket2,null,NA,NA,1,real,null,NA,NA,NA,NA,sub20
d3-animate-choice,244,845942,0.0-76.0-1.36,FALSE,FALSE,TRUE,FALSE,"""event"",""trial"",""time""
""fullscreenenter"",""5"",""30765""
""blur"",""243"",""840996""
","""event"",""trial"",""time""
""blur"",""243"",""840996""
","
","""event"",""trial"",""time""
""fullscreenenter"",""5"",""30765""
","
",null,NA,null,NA,NA,0,0,NA,NA,images/earth.jpg,images/rocket1,images/rocket2,null,NA,NA,2,real,null,0,2020-06-12T02:06:08Z,NA,NA,sub20
two-step-fixation,245,846947,0.0-76.0-2.36,FALSE,FALSE,TRUE,FALSE,"""event"",""trial"",""time""
""fullscreenenter"",""5"",""30765""
""blur"",""243"",""840996""
","""event"",""trial"",""time""
""blur"",""243"",""840996""
","
","""event"",""trial"",""time""
""fullscreenenter"",""5"",""30765""
","
",NA,images/earth.jpg,NA,NA,NA,NA,NA,NA,NA,NA,NA,NA,NA,NA,NA,fixation,NA,NA,NA,NA,NA,NA,sub20
d3-animate-choice,246,850951,0.0-76.0-0.37,FALSE,FALSE,TRUE,FALSE,"""event"",""trial"",""time""
""fullscreenenter"",""5"",""30765""
""blur"",""243"",""840996""
","""event"",""trial"",""time""
""blur"",""243"",""840996""
","
","""event"",""trial"",""time""
""fullscreenenter"",""5"",""30765""
","
",null,NA,null,NA,NA,3000,0,NA,NA,images/earth.jpg,images/rocket1,images/rocket2,null,NA,NA,1,real,null,NA,NA,NA,NA,sub20
d3-animate-choice,247,851974,0.0-76.0-1.37,FALSE,FALSE,TRUE,FALSE,"""event"",""trial"",""time""
""fullscreenenter"",""5"",""30765""
""blur"",""243"",""840996""
","""event"",""trial"",""time""
""blur"",""243"",""840996""
","
","""event"",""trial"",""time""
""fullscreenenter"",""5"",""30765""
","
",null,NA,null,NA,NA,0,0,NA,NA,images/earth.jpg,images/rocket1,images/rocket2,null,NA,NA,2,real,null,0,2020-06-12T02:06:14Z,NA,NA,sub20
two-step-fixation,248,852979,0.0-76.0-2.37,FALSE,FALSE,TRUE,FALSE,"""event"",""trial"",""time""
""fullscreenenter"",""5"",""30765""
""blur"",""243"",""840996""
""focus"",""249"",""854498""
","""event"",""trial"",""time""
""blur"",""243"",""840996""
","""event"",""trial"",""time""
""focus"",""249"",""854498""
","""event"",""trial"",""time""
""fullscreenenter"",""5"",""30765""
","
",NA,images/earth.jpg,NA,NA,NA,NA,NA,NA,NA,NA,NA,NA,NA,NA,NA,fixation,NA,NA,NA,NA,NA,NA,sub20
d3-animate-choice,249,856983,0.0-76.0-0.38,FALSE,FALSE,TRUE,FALSE,"""event"",""trial"",""time""
""fullscreenenter"",""5"",""30765""
""blur"",""243"",""840996""
""focus"",""249"",""854498""
","""event"",""trial"",""time""
""blur"",""243"",""840996""
","""event"",""trial"",""time""
""focus"",""249"",""854498""
","""event"",""trial"",""time""
""fullscreenenter"",""5"",""30765""
","
",2581.344999999623,NA,49,NA,NA,3000,1,NA,NA,images/earth.jpg,images/rocket1,images/rocket2,null,images/rocket2,NA,1,real,null,NA,NA,1,NA,sub20
d3-animate-choice,250,859539,0.0-76.0-1.38,FALSE,FALSE,TRUE,FALSE,"""event"",""trial"",""time""
""fullscreenenter"",""5"",""30765""
""blur"",""243"",""840996""
""focus"",""249"",""854498""
","""event"",""trial"",""time""
""blur"",""243"",""840996""
","""event"",""trial"",""time""
""focus"",""249"",""854498""
","""event"",""trial"",""time""
""fullscreenenter"",""5"",""30765""
","
",552.8599999997532,NA,48,NA,NA,3000,1,NA,NA,images/purpleplanet.jpg,images/alien4,images/alien3,images/rocket2,images/alien4,images/nothing.png,2,real,false,0,2020-06-12T02:06:21Z,2,rare,sub20
two-step-fixation,251,860542,0.0-76.0-2.38,FALSE,FALSE,TRUE,FALSE,"""event"",""trial"",""time""
""fullscreenenter"",""5"",""30765""
""blur"",""243"",""840996""
""focus"",""249"",""854498""
","""event"",""trial"",""time""
""blur"",""243"",""840996""
","""event"",""trial"",""time""
""focus"",""249"",""854498""
","""event"",""trial"",""time""
""fullscreenenter"",""5"",""30765""
","
",NA,images/earth.jpg,NA,NA,NA,NA,NA,NA,NA,NA,NA,NA,NA,NA,NA,fixation,NA,NA,NA,NA,NA,NA,sub20
d3-animate-choice,252,863220,0.0-76.0-0.39,FALSE,FALSE,TRUE,FALSE,"""event"",""trial"",""time""
""fullscreenenter"",""5"",""30765""
""blur"",""243"",""840996""
""focus"",""249"",""854498""
","""event"",""trial"",""time""
""blur"",""243"",""840996""
","""event"",""trial"",""time""
""focus"",""249"",""854498""
","""event"",""trial"",""time""
""fullscreenenter"",""5"",""30765""
","
",675.6900000000605,NA,49,NA,NA,3000,1,2190.894999999786,48,images/earth.jpg,images/rocket1,images/rocket2,null,images/rocket2,NA,1,real,null,NA,NA,1,NA,sub20
d3-animate-choice,253,865670,0.0-76.0-1.39,FALSE,FALSE,TRUE,FALSE,"""event"",""trial"",""time""
""fullscreenenter"",""5"",""30765""
""blur"",""243"",""840996""
""focus"",""249"",""854498""
","""event"",""trial"",""time""
""blur"",""243"",""840996""
","""event"",""trial"",""time""
""focus"",""249"",""854498""
","""event"",""trial"",""time""
""fullscreenenter"",""5"",""30765""
","
",446.34000000043306,NA,48,NA,NA,3000,1,NA,NA,images/redplanet1.jpg,images/alien2,images/alien1,images/rocket2,images/alien2,images/nothing.png,2,real,true,0,2020-06-12T02:06:27Z,2,common,sub20
two-step-fixation,254,866673,0.0-76.0-2.39,FALSE,FALSE,TRUE,FALSE,"""event"",""trial"",""time""
""fullscreenenter"",""5"",""30765""
""blur"",""243"",""840996""
""focus"",""249"",""854498""
","""event"",""trial"",""time""
""blur"",""243"",""840996""
","""event"",""trial"",""time""
""focus"",""249"",""854498""
","""event"",""trial"",""time""
""fullscreenenter"",""5"",""30765""
","
",NA,images/earth.jpg,NA,NA,NA,NA,NA,NA,NA,NA,NA,NA,NA,NA,NA,fixation,NA,NA,NA,NA,NA,NA,sub20
d3-animate-choice,255,869448,0.0-76.0-0.40,FALSE,FALSE,TRUE,FALSE,"""event"",""trial"",""time""
""fullscreenenter"",""5"",""30765""
""blur"",""243"",""840996""
""focus"",""249"",""854498""
","""event"",""trial"",""time""
""blur"",""243"",""840996""
","""event"",""trial"",""time""
""focus"",""249"",""854498""
","""event"",""trial"",""time""
""fullscreenenter"",""5"",""30765""
","
",772.8049999995856,NA,49,NA,NA,3000,1,NA,NA,images/earth.jpg,images/rocket1,images/rocket2,null,images/rocket2,NA,1,real,null,NA,NA,1,NA,sub20
d3-animate-choice,256,873452,0.0-76.0-1.40,FALSE,FALSE,TRUE,FALSE,"""event"",""trial"",""time""
""fullscreenenter"",""5"",""30765""
""blur"",""243"",""840996""
""focus"",""249"",""854498""
","""event"",""trial"",""time""
""blur"",""243"",""840996""
","""event"",""trial"",""time""
""focus"",""249"",""854498""
","""event"",""trial"",""time""
""fullscreenenter"",""5"",""30765""
","
",2337.205000000773,NA,49,NA,NA,3000,1,NA,NA,images/redplanet1.jpg,images/alien2,images/alien1,images/rocket2,images/alien1,images/t.png,2,real,true,1,2020-06-12T02:06:35Z,1,common,sub20
two-step-fixation,257,874456,0.0-76.0-2.40,FALSE,FALSE,TRUE,FALSE,"""event"",""trial"",""time""
""fullscreenenter"",""5"",""30765""
""blur"",""243"",""840996""
""focus"",""249"",""854498""
","""event"",""trial"",""time""
""blur"",""243"",""840996""
","""event"",""trial"",""time""
""focus"",""249"",""854498""
","""event"",""trial"",""time""
""fullscreenenter"",""5"",""30765""
","
",NA,images/earth.jpg,NA,NA,NA,NA,NA,NA,NA,NA,NA,NA,NA,NA,NA,fixation,NA,NA,NA,NA,NA,NA,sub20
d3-animate-choice,258,876695,0.0-76.0-0.41,FALSE,FALSE,TRUE,FALSE,"""event"",""trial"",""time""
""fullscreenenter"",""5"",""30765""
""blur"",""243"",""840996""
""focus"",""249"",""854498""
","""event"",""trial"",""time""
""blur"",""243"",""840996""
","""event"",""trial"",""time""
""focus"",""249"",""854498""
","""event"",""trial"",""time""
""fullscreenenter"",""5"",""30765""
","
",235.8349999994971,NA,49,NA,NA,3000,1,"407.61999999999534,526.6099999998696,664.9049999996787,764.8799999997718,897.6700000002747,1006.9499999999534,1113.3499999996275,1259.404999999795,1449.6250000002328,1519.0400000001537,1640.5999999997439,1864.8149999999441,1891.3750000002328,2061.19000000041,2191.0250000001397",48494849484948475e13,images/earth.jpg,images/rocket1,images/rocket2,null,images/rocket2,NA,1,real,null,NA,NA,1,NA,sub20
d3-animate-choice,259,878729,0.0-76.0-1.41,FALSE,FALSE,TRUE,FALSE,"""event"",""trial"",""time""
""fullscreenenter"",""5"",""30765""
""blur"",""243"",""840996""
""focus"",""249"",""854498""
","""event"",""trial"",""time""
""blur"",""243"",""840996""
","""event"",""trial"",""time""
""focus"",""249"",""854498""
","""event"",""trial"",""time""
""fullscreenenter"",""5"",""30765""
","
