trial_type,trial_index,time_elapsed,internal_node_id,rocket_sides,red_planet_first_rocket,red_display_order,purple_display_order,interactions,blur_events,focus_events,fullscreenenter_events,fullscreenexit_events,rt,stimulus,key_press,button_pressed,success,duration,valid_pressed,rts,keys,planet_text,right_text,left_text,center_text,chosen_text,reward_text,trial_stage,practice_trial,transition_type,choice,transition,reward,timestamp,subject_id
pavlovia,0,19,0.0-0.0,FALSE,TRUE,FALSE,TRUE,"
","
","
","
","
",NA,NA,NA,NA,NA,NA,NA,NA,NA,NA,NA,NA,NA,NA,NA,NA,NA,NA,NA,NA,NA,NA,sub117
html-keyboard-response,1,1954,0.0-1.0,FALSE,TRUE,FALSE,TRUE,"
","
","
","
","
",1928.0349999899045,Welcome! Press the space bar to begin.,32,NA,NA,NA,NA,NA,NA,NA,NA,NA,NA,NA,NA,NA,NA,NA,NA,NA,NA,NA,sub117
audio-keyboard-response,2,5013,0.0-2.0,FALSE,TRUE,FALSE,TRUE,"
","
","
","
","
",2520,audio/beep_loop.wav,32,NA,NA,NA,NA,NA,NA,NA,NA,NA,NA,NA,NA,NA,NA,NA,NA,NA,NA,NA,sub117
audio-button-response,3,8023,0.0-3.0,FALSE,TRUE,FALSE,TRUE,"
","
","
","
","
",NaN,audio/fish.mp3,NA,1,NA,NA,NA,NA,NA,NA,NA,NA,NA,NA,NA,NA,NA,NA,NA,NA,NA,NA,sub117
audio-button-response,4,10787,0.0-4.0,FALSE,TRUE,FALSE,TRUE,"""event"",""trial"",""time""
""fullscreenenter"",""5"",""14818""
","
","
","""event"",""trial"",""time""
""fullscreenenter"",""5"",""14818""
","
",NaN,audio/tiger.mp3,NA,4,NA,NA,NA,NA,NA,NA,NA,NA,NA,NA,NA,NA,NA,NA,NA,NA,NA,NA,sub117
fullscreen,5,15768,0.0-5.0,FALSE,TRUE,FALSE,TRUE,"""event"",""trial"",""time""
""fullscreenenter"",""5"",""14818""
","
","
","""event"",""trial"",""time""
""fullscreenenter"",""5"",""14818""
","
",NA,NA,NA,NA,TRUE,NA,NA,NA,NA,NA,NA,NA,NA,NA,NA,NA,NA,NA,NA,NA,NA,NA,sub117
d3-instructions,6,27961,0.0-6.0,FALSE,TRUE,FALSE,TRUE,"""event"",""trial"",""time""
""fullscreenenter"",""5"",""14818""
","
","
","""event"",""trial"",""time""
""fullscreenenter"",""5"",""14818""
","
",NA,NA,NA,NA,NA,NA,NA,NA,NA,NA,NA,NA,NA,NA,NA,NA,NA,NA,NA,NA,NA,NA,sub117
d3-instructions,7,35730,0.0-7.0,FALSE,TRUE,FALSE,TRUE,"""event"",""trial"",""time""
""fullscreenenter"",""5"",""14818""
","
","
","""event"",""trial"",""time""
""fullscreenenter"",""5"",""14818""
","
",NA,NA,NA,NA,NA,NA,NA,NA,NA,NA,NA,NA,NA,NA,NA,NA,NA,NA,NA,NA,NA,NA,sub117
d3-instructions,8,42068,0.0-8.0,FALSE,TRUE,FALSE,TRUE,"""event"",""trial"",""time""
""fullscreenenter"",""5"",""14818""
","
","
","""event"",""trial"",""time""
""fullscreenenter"",""5"",""14818""
","
",NA,NA,NA,NA,NA,NA,NA,NA,NA,NA,NA,NA,NA,NA,NA,NA,NA,NA,NA,NA,NA,NA,sub117
d3-instructions,9,52748,0.0-9.0,FALSE,TRUE,FALSE,TRUE,"""event"",""trial"",""time""
""fullscreenenter"",""5"",""14818""
","
","
","""event"",""trial"",""time""
""fullscreenenter"",""5"",""14818""
","
",NA,NA,NA,NA,NA,NA,NA,NA,NA,NA,NA,NA,NA,NA,NA,NA,NA,NA,NA,NA,NA,NA,sub117
d3-instructions,10,68833,0.0-10.0,FALSE,TRUE,FALSE,TRUE,"""event"",""trial"",""time""
""fullscreenenter"",""5"",""14818""
","
","
","""event"",""trial"",""time""
""fullscreenenter"",""5"",""14818""
","
",NA,NA,NA,NA,NA,NA,NA,NA,NA,NA,NA,NA,NA,NA,NA,NA,NA,NA,NA,NA,NA,NA,sub117
d3-animate-choice,11,71747,0.0-11.0,FALSE,TRUE,FALSE,TRUE,"""event"",""trial"",""time""
""fullscreenenter"",""5"",""14818""
","
","
","""event"",""trial"",""time""
""fullscreenenter"",""5"",""14818""
","
",867.119999951683,NA,49,NA,NA,3000,1,"1679.2749998858199,2869.994999957271",4848,images/tutgreenplanet.jpg,images/tutalien1,images/tutalien2,null,images/tutalien2,NA,NA,practice,null,NA,NA,NA,NA,sub117
d3-animate-choice,12,74744,0.0-12.0,FALSE,TRUE,FALSE,TRUE,"""event"",""trial"",""time""
""fullscreenenter"",""5"",""14818""
","
","
","""event"",""trial"",""time""
""fullscreenenter"",""5"",""14818""
","
",966.8199999723583,NA,48,NA,NA,3000,1,NA,NA,images/tutgreenplanet.jpg,images/tutalien1,images/tutalien2,null,images/tutalien1,NA,NA,practice,null,NA,NA,NA,NA,sub117
d3-animate-choice,13,77431,0.0-13.0,FALSE,TRUE,FALSE,TRUE,"""event"",""trial"",""time""
""fullscreenenter"",""5"",""14818""
","
","
","""event"",""trial"",""time""
""fullscreenenter"",""5"",""14818""
","
",663.1599999964237,NA,49,NA,NA,3000,1,NA,NA,images/tutgreenplanet.jpg,images/tutalien1,images/tutalien2,null,images/tutalien2,NA,NA,practice,null,NA,NA,NA,NA,sub117
d3-animate-choice,14,79839,0.0-14.0,FALSE,TRUE,FALSE,TRUE,"""event"",""trial"",""time""
""fullscreenenter"",""5"",""14818""
","
","
","""event"",""trial"",""time""
""fullscreenenter"",""5"",""14818""
","
",394.6250000735745,NA,48,NA,NA,3000,1,NA,NA,images/tutgreenplanet.jpg,images/tutalien1,images/tutalien2,null,images/tutalien1,NA,NA,practice,null,NA,NA,NA,NA,sub117
d3-instructions,15,86781,0.0-15.0,FALSE,TRUE,FALSE,TRUE,"""event"",""trial"",""time""
""fullscreenenter"",""5"",""14818""
","
","
","""event"",""trial"",""time""
""fullscreenenter"",""5"",""14818""
","
",NA,NA,NA,NA,NA,NA,NA,NA,NA,NA,NA,NA,NA,NA,NA,NA,NA,NA,NA,NA,NA,NA,sub117
d3-instructions,16,91222,0.0-16.0,FALSE,TRUE,FALSE,TRUE,"""event"",""trial"",""time""
""fullscreenenter"",""5"",""14818""
","
","
","""event"",""trial"",""time""
""fullscreenenter"",""5"",""14818""
","
",NA,NA,NA,NA,NA,NA,NA,NA,NA,NA,NA,NA,NA,NA,NA,NA,NA,NA,NA,NA,NA,NA,sub117
d3-instructions,17,98722,0.0-17.0,FALSE,TRUE,FALSE,TRUE,"""event"",""trial"",""time""
""fullscreenenter"",""5"",""14818""
","
","
","""event"",""trial"",""time""
""fullscreenenter"",""5"",""14818""
","
",NA,NA,NA,NA,NA,NA,NA,NA,NA,NA,NA,NA,NA,NA,NA,NA,NA,NA,NA,NA,NA,NA,sub117
d3-instructions,18,111175,0.0-18.0,FALSE,TRUE,FALSE,TRUE,"""event"",""trial"",""time""
""fullscreenenter"",""5"",""14818""
","
","
","""event"",""trial"",""time""
""fullscreenenter"",""5"",""14818""
","
",NA,NA,NA,NA,NA,NA,NA,NA,NA,NA,NA,NA,NA,NA,NA,NA,NA,NA,NA,NA,NA,NA,sub117
d3-instructions,19,122310,0.0-19.0,FALSE,TRUE,FALSE,TRUE,"""event"",""trial"",""time""
""fullscreenenter"",""5"",""14818""
","
","
","""event"",""trial"",""time""
""fullscreenenter"",""5"",""14818""
","
",NA,NA,NA,NA,NA,NA,NA,NA,NA,NA,NA,NA,NA,NA,NA,NA,NA,NA,NA,NA,NA,NA,sub117
d3-animate-choice,20,124943,0.0-20.0,FALSE,TRUE,FALSE,TRUE,"""event"",""trial"",""time""
""fullscreenenter"",""5"",""14818""
","
","
","""event"",""trial"",""time""
""fullscreenenter"",""5"",""14818""
","
",609.8999999230728,NA,49,NA,NA,3000,1,NA,NA,images/tutyellowplanet.jpg,null,images/tutalien3,null,images/tutalien3,images/nothing.png,NA,practice,null,NA,NA,NA,NA,sub117
d3-animate-choice,21,127248,0.0-21.0,FALSE,TRUE,FALSE,TRUE,"""event"",""trial"",""time""
""fullscreenenter"",""5"",""14818""
","
","
","""event"",""trial"",""time""
""fullscreenenter"",""5"",""14818""
","
",297.9950000299141,NA,49,NA,NA,3000,1,NA,NA,images/tutyellowplanet.jpg,null,images/tutalien3,null,images/tutalien3,images/t.png,NA,practice,null,NA,NA,NA,NA,sub117
d3-animate-choice,22,129524,0.0-22.0,FALSE,TRUE,FALSE,TRUE,"""event"",""trial"",""time""
""fullscreenenter"",""5"",""14818""
","
","
","""event"",""trial"",""time""
""fullscreenenter"",""5"",""14818""
","
",263.7999999569729,NA,49,NA,NA,3000,1,NA,NA,images/tutyellowplanet.jpg,null,images/tutalien3,null,images/tutalien3,images/t.png,NA,practice,null,NA,NA,NA,NA,sub117
d3-animate-choice,23,131706,0.0-23.0,FALSE,TRUE,FALSE,TRUE,"""event"",""trial"",""time""
""fullscreenenter"",""5"",""14818""
","
","
","""event"",""trial"",""time""
""fullscreenenter"",""5"",""14818""
","
",173.63999993540347,NA,49,NA,NA,3000,1,NA,NA,images/tutyellowplanet.jpg,null,images/tutalien3,null,images/tutalien3,images/t.png,NA,practice,null,NA,NA,NA,NA,sub117
d3-animate-choice,24,133881,0.0-24.0,FALSE,TRUE,FALSE,TRUE,"""event"",""trial"",""time""
""fullscreenenter"",""5"",""14818""
","
","
","""event"",""trial"",""time""
""fullscreenenter"",""5"",""14818""
","
",156.13500005565584,NA,49,NA,NA,3000,1,NA,NA,images/tutyellowplanet.jpg,null,images/tutalien3,null,images/tutalien3,images/t.png,NA,practice,null,NA,NA,NA,NA,sub117
d3-animate-choice,25,136118,0.0-25.0,FALSE,TRUE,FALSE,TRUE,"""event"",""trial"",""time""
""fullscreenenter"",""5"",""14818""
","
","
","""event"",""trial"",""time""
""fullscreenenter"",""5"",""14818""
","
",221.92500007804483,NA,49,NA,NA,3000,1,NA,NA,images/tutyellowplanet.jpg,null,images/tutalien3,null,images/tutalien3,images/t.png,NA,practice,null,NA,NA,NA,NA,sub117
d3-animate-choice,26,138404,0.0-26.0,FALSE,TRUE,FALSE,TRUE,"""event"",""trial"",""time""
""fullscreenenter"",""5"",""14818""
","
","
","""event"",""trial"",""time""
""fullscreenenter"",""5"",""14818""
","
",273.96999998018146,NA,49,NA,NA,3000,1,1673.560000024736,49,images/tutyellowplanet.jpg,null,images/tutalien3,null,images/tutalien3,images/t.png,NA,practice,null,NA,NA,NA,NA,sub117
d3-animate-choice,27,140712,0.0-27.0,FALSE,TRUE,FALSE,TRUE,"""event"",""trial"",""time""
""fullscreenenter"",""5"",""14818""
","
","
","""event"",""trial"",""time""
""fullscreenenter"",""5"",""14818""
","
",293.40500000398606,NA,49,NA,NA,3000,1,NA,NA,images/tutyellowplanet.jpg,null,images/tutalien3,null,images/tutalien3,images/t.png,NA,practice,null,NA,NA,NA,NA,sub117
d3-animate-choice,28,143006,0.0-28.0,FALSE,TRUE,FALSE,TRUE,"""event"",""trial"",""time""
""fullscreenenter"",""5"",""14818""
","
","
","""event"",""trial"",""time""
""fullscreenenter"",""5"",""14818""
","
",276.149999932386,NA,49,NA,NA,3000,1,NA,NA,images/tutyellowplanet.jpg,null,images/tutalien3,null,images/tutalien3,images/t.png,NA,practice,null,NA,NA,NA,NA,sub117
d3-animate-choice,29,145145,0.0-29.0,FALSE,TRUE,FALSE,TRUE,"""event"",""trial"",""time""
""fullscreenenter"",""5"",""14818""
","
","
","""event"",""trial"",""time""
""fullscreenenter"",""5"",""14818""
","
",126.4400000218302,NA,49,NA,NA,3000,1,NA,NA,images/tutyellowplanet.jpg,null,images/tutalien3,null,images/tutalien3,images/nothing.png,NA,practice,null,NA,NA,NA,NA,sub117
d3-instructions,30,149087,0.0-30.0,FALSE,TRUE,FALSE,TRUE,"""event"",""trial"",""time""
""fullscreenenter"",""5"",""14818""
","
","
","""event"",""trial"",""time""
""fullscreenenter"",""5"",""14818""
","
",NA,NA,NA,NA,NA,NA,NA,NA,NA,NA,NA,NA,NA,NA,NA,NA,NA,NA,NA,NA,NA,NA,sub117
d3-instructions,31,156508,0.0-31.0,FALSE,TRUE,FALSE,TRUE,"""event"",""trial"",""time""
""fullscreenenter"",""5"",""14818""
","
","
","""event"",""trial"",""time""
""fullscreenenter"",""5"",""14818""
","
",NA,NA,NA,NA,NA,NA,NA,NA,NA,NA,NA,NA,NA,NA,NA,NA,NA,NA,NA,NA,NA,NA,sub117
d3-instructions,32,160901,0.0-32.0,FALSE,TRUE,FALSE,TRUE,"""event"",""trial"",""time""
""fullscreenenter"",""5"",""14818""
","
","
","""event"",""trial"",""time""
""fullscreenenter"",""5"",""14818""
","
",NA,NA,NA,NA,NA,NA,NA,NA,NA,NA,NA,NA,NA,NA,NA,NA,NA,NA,NA,NA,NA,NA,sub117
d3-instructions,33,163169,0.0-33.0,FALSE,TRUE,FALSE,TRUE,"""event"",""trial"",""time""
""fullscreenenter"",""5"",""14818""
","
","
","""event"",""trial"",""time""
""fullscreenenter"",""5"",""14818""
","
",NA,NA,NA,NA,NA,NA,NA,NA,NA,NA,NA,NA,NA,NA,NA,NA,NA,NA,NA,NA,NA,NA,sub117
d3-animate-choice,34,166145,0.0-34.0,FALSE,TRUE,FALSE,TRUE,"""event"",""trial"",""time""
""fullscreenenter"",""5"",""14818""
","
","
","""event"",""trial"",""time""
""fullscreenenter"",""5"",""14818""
","
",955.2550000371411,NA,49,NA,NA,3000,1,NA,NA,images/tutgreenplanet.jpg,images/tutalien1,images/tutalien2,null,images/tutalien2,images/t.png,NA,practice,null,NA,NA,NA,NA,sub117
d3-animate-choice,35,168519,0.0-35.0,FALSE,TRUE,FALSE,TRUE,"""event"",""trial"",""time""
""fullscreenenter"",""5"",""14818""
","
","
","""event"",""trial"",""time""
""fullscreenenter"",""5"",""14818""
","
",355.3049999754876,NA,49,NA,NA,3000,1,NA,NA,images/tutgreenplanet.jpg,images/tutalien1,images/tutalien2,null,images/tutalien2,images/t.png,NA,practice,null,NA,NA,NA,NA,sub117
d3-animate-choice,36,170819,0.0-36.0,FALSE,TRUE,FALSE,TRUE,"""event"",""trial"",""time""
""fullscreenenter"",""5"",""14818""
","
","
","""event"",""trial"",""time""
""fullscreenenter"",""5"",""14818""
","
",288.4750000666827,NA,49,NA,NA,3000,1,NA,NA,images/tutgreenplanet.jpg,images/tutalien1,images/tutalien2,null,images/tutalien2,images/t.png,NA,practice,null,NA,NA,NA,NA,sub117
d3-animate-choice,37,173078,0.0-37.0,FALSE,TRUE,FALSE,TRUE,"""event"",""trial"",""time""
""fullscreenenter"",""5"",""14818""
","
","
","""event"",""trial"",""time""
""fullscreenenter"",""5"",""14818""
","
",246.93999998271465,NA,49,NA,NA,3000,1,NA,NA,images/tutgreenplanet.jpg,images/tutalien1,images/tutalien2,null,images/tutalien2,images/t.png,NA,practice,null,NA,NA,NA,NA,sub117
d3-animate-choice,38,175310,0.0-38.0,FALSE,TRUE,FALSE,TRUE,"""event"",""trial"",""time""
""fullscreenenter"",""5"",""14818""
","
","
","""event"",""trial"",""time""
""fullscreenenter"",""5"",""14818""
","
",219.0849999897182,NA,49,NA,NA,3000,1,NA,NA,images/tutgreenplanet.jpg,images/tutalien1,images/tutalien2,null,images/tutalien2,images/t.png,NA,practice,null,NA,NA,NA,NA,sub117
d3-animate-choice,39,177417,0.0-39.0,FALSE,TRUE,FALSE,TRUE,"""event"",""trial"",""time""
""fullscreenenter"",""5"",""14818""
","
","
","""event"",""trial"",""time""
""fullscreenenter"",""5"",""14818""
","
",85.61499998904765,NA,49,NA,NA,3000,1,NA,NA,images/tutgreenplanet.jpg,images/tutalien1,images/tutalien2,null,images/tutalien2,images/nothing.png,NA,practice,null,NA,NA,NA,NA,sub117
d3-animate-choice,40,179698,0.0-40.0,FALSE,TRUE,FALSE,TRUE,"""event"",""trial"",""time""
""fullscreenenter"",""5"",""14818""
","
","
","""event"",""trial"",""time""
""fullscreenenter"",""5"",""14818""
","
",257.17999995686114,NA,49,NA,NA,3000,1,NA,NA,images/tutgreenplanet.jpg,images/tutalien1,images/tutalien2,null,images/tutalien2,images/t.png,NA,practice,null,NA,NA,NA,NA,sub117
d3-animate-choice,41,181719,0.0-41.0,FALSE,TRUE,FALSE,TRUE,"""event"",""trial"",""time""
""fullscreenenter"",""5"",""14818""
","
","
","""event"",""trial"",""time""
""fullscreenenter"",""5"",""14818""
","
",3.554999944753945,NA,49,NA,NA,3000,1,NA,NA,images/tutgreenplanet.jpg,images/tutalien1,images/tutalien2,null,images/tutalien2,images/t.png,NA,practice,null,NA,NA,NA,NA,sub117
d3-animate-choice,42,184010,0.0-42.0,FALSE,TRUE,FALSE,TRUE,"""event"",""trial"",""time""
""fullscreenenter"",""5"",""14818""
","
","
","""event"",""trial"",""time""
""fullscreenenter"",""5"",""14818""
","
",278.20499998051673,NA,49,NA,NA,3000,1,NA,NA,images/tutgreenplanet.jpg,images/tutalien1,images/tutalien2,null,images/tutalien2,images/t.png,NA,practice,null,NA,NA,NA,NA,sub117
d3-animate-choice,43,186221,0.0-43.0,FALSE,TRUE,FALSE,TRUE,"""event"",""trial"",""time""
""fullscreenenter"",""5"",""14818""
","
","
","""event"",""trial"",""time""
""fullscreenenter"",""5"",""14818""
","
",192.88999994751066,NA,49,NA,NA,3000,1,NA,NA,images/tutgreenplanet.jpg,images/tutalien1,images/tutalien2,null,images/tutalien2,images/nothing.png,NA,practice,null,NA,NA,NA,NA,sub117
d3-instructions,44,192695,0.0-44.0,FALSE,TRUE,FALSE,TRUE,"""event"",""trial"",""time""
""fullscreenenter"",""5"",""14818""
","
","
","""event"",""trial"",""time""
""fullscreenenter"",""5"",""14818""
","
",NA,NA,NA,NA,NA,NA,NA,NA,NA,NA,NA,NA,NA,NA,NA,NA,NA,NA,NA,NA,NA,NA,sub117
d3-instructions,45,195443,0.0-45.0,FALSE,TRUE,FALSE,TRUE,"""event"",""trial"",""time""
""fullscreenenter"",""5"",""14818""
","
","
","""event"",""trial"",""time""
""fullscreenenter"",""5"",""14818""
","
",NA,NA,NA,NA,NA,NA,NA,NA,NA,NA,NA,NA,NA,NA,NA,NA,NA,NA,NA,NA,NA,NA,sub117
d3-instructions,46,199375,0.0-46.0,FALSE,TRUE,FALSE,TRUE,"""event"",""trial"",""time""
""fullscreenenter"",""5"",""14818""
","
","
","""event"",""trial"",""time""
""fullscreenenter"",""5"",""14818""
","
",NA,NA,NA,NA,NA,NA,NA,NA,NA,NA,NA,NA,NA,NA,NA,NA,NA,NA,NA,NA,NA,NA,sub117
d3-instructions,47,215471,0.0-47.0,FALSE,TRUE,FALSE,TRUE,"""event"",""trial"",""time""
""fullscreenenter"",""5"",""14818""
","
","
","""event"",""trial"",""time""
""fullscreenenter"",""5"",""14818""
","
",NA,NA,NA,NA,NA,NA,NA,NA,NA,NA,NA,NA,NA,NA,NA,NA,NA,NA,NA,NA,NA,NA,sub117
d3-instructions,48,222076,0.0-48.0,FALSE,TRUE,FALSE,TRUE,"""event"",""trial"",""time""
""fullscreenenter"",""5"",""14818""
","
","
","""event"",""trial"",""time""
""fullscreenenter"",""5"",""14818""
","
",NA,NA,NA,NA,NA,NA,NA,NA,NA,NA,NA,NA,NA,NA,NA,NA,NA,NA,NA,NA,NA,NA,sub117
d3-instructions,49,227376,0.0-49.0,FALSE,TRUE,FALSE,TRUE,"""event"",""trial"",""time""
""fullscreenenter"",""5"",""14818""
","
","
","""event"",""trial"",""time""
""fullscreenenter"",""5"",""14818""
","
",NA,NA,NA,NA,NA,NA,NA,NA,NA,NA,NA,NA,NA,NA,NA,NA,NA,NA,NA,NA,NA,NA,sub117
d3-instructions,50,232277,0.0-50.0,FALSE,TRUE,FALSE,TRUE,"""event"",""trial"",""time""
""fullscreenenter"",""5"",""14818""
","
","
","""event"",""trial"",""time""
""fullscreenenter"",""5"",""14818""
","
",NA,NA,NA,NA,NA,NA,NA,NA,NA,NA,NA,NA,NA,NA,NA,NA,NA,NA,NA,NA,NA,NA,sub117
d3-instructions,51,234875,0.0-51.0,FALSE,TRUE,FALSE,TRUE,"""event"",""trial"",""time""
""fullscreenenter"",""5"",""14818""
","
","
","""event"",""trial"",""time""
""fullscreenenter"",""5"",""14818""
","
",NA,NA,NA,NA,NA,NA,NA,NA,NA,NA,NA,NA,NA,NA,NA,NA,NA,NA,NA,NA,NA,NA,sub117
d3-instructions,52,237592,0.0-52.0,FALSE,TRUE,FALSE,TRUE,"""event"",""trial"",""time""
""fullscreenenter"",""5"",""14818""
","
","
","""event"",""trial"",""time""
""fullscreenenter"",""5"",""14818""
","
",NA,NA,NA,NA,NA,NA,NA,NA,NA,NA,NA,NA,NA,NA,NA,NA,NA,NA,NA,NA,NA,NA,sub117
d3-instructions,53,244084,0.0-53.0,FALSE,TRUE,FALSE,TRUE,"""event"",""trial"",""time""
""fullscreenenter"",""5"",""14818""
","
","
","""event"",""trial"",""time""
""fullscreenenter"",""5"",""14818""
","
",NA,NA,NA,NA,NA,NA,NA,NA,NA,NA,NA,NA,NA,NA,NA,NA,NA,NA,NA,NA,NA,NA,sub117
d3-instructions,54,256022,0.0-54.0,FALSE,TRUE,FALSE,TRUE,"""event"",""trial"",""time""
""fullscreenenter"",""5"",""14818""
","
","
","""event"",""trial"",""time""
""fullscreenenter"",""5"",""14818""
","
",NA,NA,NA,NA,NA,NA,NA,NA,NA,NA,NA,NA,NA,NA,NA,NA,NA,NA,NA,NA,NA,NA,sub117
d3-instructions,55,259245,0.0-55.0,FALSE,TRUE,FALSE,TRUE,"""event"",""trial"",""time""
""fullscreenenter"",""5"",""14818""
","
","
","""event"",""trial"",""time""
""fullscreenenter"",""5"",""14818""
","
",NA,NA,NA,NA,NA,NA,NA,NA,NA,NA,NA,NA,NA,NA,NA,NA,NA,NA,NA,NA,NA,NA,sub117
d3-instructions,56,264793,0.0-56.0,FALSE,TRUE,FALSE,TRUE,"""event"",""trial"",""time""
""fullscreenenter"",""5"",""14818""
","
","
","""event"",""trial"",""time""
""fullscreenenter"",""5"",""14818""
","
",NA,NA,NA,NA,NA,NA,NA,NA,NA,NA,NA,NA,NA,NA,NA,NA,NA,NA,NA,NA,NA,NA,sub117
d3-instructions,57,274548,0.0-57.0,FALSE,TRUE,FALSE,TRUE,"""event"",""trial"",""time""
""fullscreenenter"",""5"",""14818""
","
","
","""event"",""trial"",""time""
""fullscreenenter"",""5"",""14818""
","
",NA,NA,NA,NA,NA,NA,NA,NA,NA,NA,NA,NA,NA,NA,NA,NA,NA,NA,NA,NA,NA,NA,sub117
d3-instructions,58,281113,0.0-58.0,FALSE,TRUE,FALSE,TRUE,"""event"",""trial"",""time""
""fullscreenenter"",""5"",""14818""
","
","
","""event"",""trial"",""time""
""fullscreenenter"",""5"",""14818""
","
",NA,NA,NA,NA,NA,NA,NA,NA,NA,NA,NA,NA,NA,NA,NA,NA,NA,NA,NA,NA,NA,NA,sub117
d3-instructions,59,284449,0.0-59.0,FALSE,TRUE,FALSE,TRUE,"""event"",""trial"",""time""
""fullscreenenter"",""5"",""14818""
","
","
","""event"",""trial"",""time""
""fullscreenenter"",""5"",""14818""
","
",NA,NA,NA,NA,NA,NA,NA,NA,NA,NA,NA,NA,NA,NA,NA,NA,NA,NA,NA,NA,NA,NA,sub117
d3-instructions,60,287197,0.0-60.0,FALSE,TRUE,FALSE,TRUE,"""event"",""trial"",""time""
""fullscreenenter"",""5"",""14818""
","
","
","""event"",""trial"",""time""
""fullscreenenter"",""5"",""14818""
","
",NA,NA,NA,NA,NA,NA,NA,NA,NA,NA,NA,NA,NA,NA,NA,NA,NA,NA,NA,NA,NA,NA,sub117
d3-animate-choice,61,290210,0.0-61.0-0.0,FALSE,TRUE,FALSE,TRUE,"""event"",""trial"",""time""
""fullscreenenter"",""5"",""14818""
","
","
","""event"",""trial"",""time""
""fullscreenenter"",""5"",""14818""
","
",996.0799999535084,NA,49,NA,NA,3000,1,1716.9699999503791,49,images/earth.jpg,images/tutrocket2,images/tutrocket1,null,images/tutrocket1,NA,1,practice,null,1,NA,NA,NA,sub117
d3-animate-choice,62,294237,0.0-61.0-1.0,FALSE,TRUE,FALSE,TRUE,"""event"",""trial"",""time""
""fullscreenenter"",""5"",""14818""
","
","
","""event"",""trial"",""time""
""fullscreenenter"",""5"",""14818""
","
",3181.955000036396,NA,49,NA,NA,3000,0,NA,NA,images/tutgreenplanet.jpg,images/tutalien2,images/tutalien1,images/tutrocket1,NA,NA,2,practice,true,1,common,0,2020-06-20T18:36:27Z,sub117
two-step-fixation,63,295256,0.0-61.0-2.0,FALSE,TRUE,FALSE,TRUE,"""event"",""trial"",""time""
""fullscreenenter"",""5"",""14818""
","
","
","""event"",""trial"",""time""
""fullscreenenter"",""5"",""14818""
","
",NA,images/earth.jpg,NA,NA,NA,NA,NA,NA,NA,NA,NA,NA,NA,NA,NA,fixation,NA,NA,NA,NA,NA,NA,sub117
d3-animate-choice,64,298168,0.0-61.0-0.1,FALSE,TRUE,FALSE,TRUE,"""event"",""trial"",""time""
""fullscreenenter"",""5"",""14818""
","
","
","""event"",""trial"",""time""
""fullscreenenter"",""5"",""14818""
","
",897.8600000264123,NA,48,NA,NA,3000,1,NA,NA,images/earth.jpg,images/tutrocket2,images/tutrocket1,null,images/tutrocket2,NA,1,practice,null,2,NA,NA,NA,sub117
d3-animate-choice,65,300600,0.0-61.0-1.1,FALSE,TRUE,FALSE,TRUE,"""event"",""trial"",""time""
""fullscreenenter"",""5"",""14818""
","
","
","""event"",""trial"",""time""
""fullscreenenter"",""5"",""14818""
","
",401.7849999945611,NA,49,NA,NA,3000,1,NA,NA,images/tutgreenplanet.jpg,images/tutalien2,images/tutalien1,images/tutrocket2,images/tutalien1,images/nothing.png,2,practice,false,1,rare,0,2020-06-20T18:36:34Z,sub117
two-step-fixation,66,301612,0.0-61.0-2.1,FALSE,TRUE,FALSE,TRUE,"""event"",""trial"",""time""
""fullscreenenter"",""5"",""14818""
","
","
","""event"",""trial"",""time""
""fullscreenenter"",""5"",""14818""
","
",NA,images/earth.jpg,NA,NA,NA,NA,NA,NA,NA,NA,NA,NA,NA,NA,NA,fixation,NA,NA,NA,NA,NA,NA,sub117
d3-animate-choice,67,304097,0.0-61.0-0.2,FALSE,TRUE,FALSE,TRUE,"""event"",""trial"",""time""
""fullscreenenter"",""5"",""14818""
","
","
","""event"",""trial"",""time""
""fullscreenenter"",""5"",""14818""
","
",462.0350000914186,NA,48,NA,NA,3000,1,NA,NA,images/earth.jpg,images/tutrocket2,images/tutrocket1,null,images/tutrocket2,NA,1,practice,null,2,NA,NA,NA,sub117
d3-animate-choice,68,307002,0.0-61.0-1.2,FALSE,TRUE,FALSE,TRUE,"""event"",""trial"",""time""
""fullscreenenter"",""5"",""14818""
","
","
","""event"",""trial"",""time""
""fullscreenenter"",""5"",""14818""
","
",884.5750000327826,NA,48,NA,NA,3000,1,NA,NA,images/tutyellowplanet.jpg,images/tutalien4,images/tutalien3,images/tutrocket2,images/tutalien4,images/nothing.png,2,practice,true,2,common,0,2020-06-20T18:36:40Z,sub117
two-step-fixation,69,308024,0.0-61.0-2.2,FALSE,TRUE,FALSE,TRUE,"""event"",""trial"",""time""
""fullscreenenter"",""5"",""14818""
","
","
","""event"",""trial"",""time""
""fullscreenenter"",""5"",""14818""
","
",NA,images/earth.jpg,NA,NA,NA,NA,NA,NA,NA,NA,NA,NA,NA,NA,NA,fixation,NA,NA,NA,NA,NA,NA,sub117
d3-animate-choice,70,310415,0.0-61.0-0.3,FALSE,TRUE,FALSE,TRUE,"""event"",""trial"",""time""
""fullscreenenter"",""5"",""14818""
","
","
","""event"",""trial"",""time""
""fullscreenenter"",""5"",""14818""
","
",370.36499998066574,NA,48,NA,NA,3000,1,NA,NA,images/earth.jpg,images/tutrocket2,images/tutrocket1,null,images/tutrocket2,NA,1,practice,null,2,NA,NA,NA,sub117
d3-animate-choice,71,312988,0.0-61.0-1.3,FALSE,TRUE,FALSE,TRUE,"""event"",""trial"",""time""
""fullscreenenter"",""5"",""14818""
","
","
","""event"",""trial"",""time""
""fullscreenenter"",""5"",""14818""
","
",542.7749999798834,NA,48,NA,NA,3000,1,NA,NA,images/tutyellowplanet.jpg,images/tutalien4,images/tutalien3,images/tutrocket2,images/tutalien4,images/nothing.png,2,practice,true,2,common,0,2020-06-20T18:36:46Z,sub117
two-step-fixation,72,314006,0.0-61.0-2.3,FALSE,TRUE,FALSE,TRUE,"""event"",""trial"",""time""
""fullscreenenter"",""5"",""14818""
","
","
","""event"",""trial"",""time""
""fullscreenenter"",""5"",""14818""
","
",NA,images/earth.jpg,NA,NA,NA,NA,NA,NA,NA,NA,NA,NA,NA,NA,NA,fixation,NA,NA,NA,NA,NA,NA,sub117
d3-animate-choice,73,316360,0.0-61.0-0.4,FALSE,TRUE,FALSE,TRUE,"""event"",""trial"",""time""
""fullscreenenter"",""5"",""14818""
","
","
","""event"",""trial"",""time""
""fullscreenenter"",""5"",""14818""
","
",334.6950000850484,NA,48,NA,NA,3000,1,NA,NA,images/earth.jpg,images/tutrocket2,images/tutrocket1,null,images/tutrocket2,NA,1,practice,null,2,NA,NA,NA,sub117
d3-animate-choice,74,319065,0.0-61.0-1.4,FALSE,TRUE,FALSE,TRUE,"""event"",""trial"",""time""
""fullscreenenter"",""5"",""14818""
","
","
","""event"",""trial"",""time""
""fullscreenenter"",""5"",""14818""
","
",683.5650000721216,NA,49,NA,NA,3000,1,NA,NA,images/tutgreenplanet.jpg,images/tutalien2,images/tutalien1,images/tutrocket2,images/tutalien1,images/t.png,2,practice,false,1,rare,1,2020-06-20T18:36:52Z,sub117
two-step-fixation,75,320085,0.0-61.0-2.4,FALSE,TRUE,FALSE,TRUE,"""event"",""trial"",""time""
""fullscreenenter"",""5"",""14818""
","
","
","""event"",""trial"",""time""
""fullscreenenter"",""5"",""14818""
","
",NA,images/earth.jpg,NA,NA,NA,NA,NA,NA,NA,NA,NA,NA,NA,NA,NA,fixation,NA,NA,NA,NA,NA,NA,sub117
d3-animate-choice,76,322465,0.0-61.0-0.5,FALSE,TRUE,FALSE,TRUE,"""event"",""trial"",""time""
""fullscreenenter"",""5"",""14818""
","
","
","""event"",""trial"",""time""
""fullscreenenter"",""5"",""14818""
","
",357.2149999672547,NA,49,NA,NA,3000,1,NA,NA,images/earth.jpg,images/tutrocket2,images/tutrocket1,null,images/tutrocket1,NA,1,practice,null,1,NA,NA,NA,sub117
d3-animate-choice,77,324916,0.0-61.0-1.5,FALSE,TRUE,FALSE,TRUE,"""event"",""trial"",""time""
""fullscreenenter"",""5"",""14818""
","
","
","""event"",""trial"",""time""
""fullscreenenter"",""5"",""14818""
","
",428.6050000227988,NA,49,NA,NA,3000,1,NA,NA,images/tutgreenplanet.jpg,images/tutalien2,images/tutalien1,images/tutrocket1,images/tutalien1,images/t.png,2,practice,true,1,common,1,2020-06-20T18:36:58Z,sub117
two-step-fixation,78,325937,0.0-61.0-2.5,FALSE,TRUE,FALSE,TRUE,"""event"",""trial"",""time""
""fullscreenenter"",""5"",""14818""
","
","
","""event"",""trial"",""time""
""fullscreenenter"",""5"",""14818""
","
",NA,images/earth.jpg,NA,NA,NA,NA,NA,NA,NA,NA,NA,NA,NA,NA,NA,fixation,NA,NA,NA,NA,NA,NA,sub117
d3-animate-choice,79,328267,0.0-61.0-0.6,FALSE,TRUE,FALSE,TRUE,"""event"",""trial"",""time""
""fullscreenenter"",""5"",""14818""
","
","
","""event"",""trial"",""time""
""fullscreenenter"",""5"",""14818""
","
",306.67499999981374,NA,49,NA,NA,3000,1,NA,NA,images/earth.jpg,images/tutrocket2,images/tutrocket1,null,images/tutrocket1,NA,1,practice,null,1,NA,NA,NA,sub117
d3-animate-choice,80,331041,0.0-61.0-1.6,FALSE,TRUE,FALSE,TRUE,"""event"",""trial"",""time""
""fullscreenenter"",""5"",""14818""
","
","
","""event"",""trial"",""time""
""fullscreenenter"",""5"",""14818""
","
",751.7399999778718,NA,49,NA,NA,3000,1,NA,NA,images/tutgreenplanet.jpg,images/tutalien2,images/tutalien1,images/tutrocket1,images/tutalien1,images/t.png,2,practice,true,1,common,1,2020-06-20T18:37:04Z,sub117
two-step-fixation,81,332063,0.0-61.0-2.6,FALSE,TRUE,FALSE,TRUE,"""event"",""trial"",""time""
""fullscreenenter"",""5"",""14818""
","
","
","""event"",""trial"",""time""
""fullscreenenter"",""5"",""14818""
","
",NA,images/earth.jpg,NA,NA,NA,NA,NA,NA,NA,NA,NA,NA,NA,NA,NA,fixation,NA,NA,NA,NA,NA,NA,sub117
d3-animate-choice,82,334419,0.0-61.0-0.7,FALSE,TRUE,FALSE,TRUE,"""event"",""trial"",""time""
""fullscreenenter"",""5"",""14818""
","
","
","""event"",""trial"",""time""
""fullscreenenter"",""5"",""14818""
","
",333.48000003024936,NA,48,NA,NA,3000,1,NA,NA,images/earth.jpg,images/tutrocket2,images/tutrocket1,null,images/tutrocket2,NA,1,practice,null,2,NA,NA,NA,sub117
d3-animate-choice,83,336824,0.0-61.0-1.7,FALSE,TRUE,FALSE,TRUE,"""event"",""trial"",""time""
""fullscreenenter"",""5"",""14818""
","
","
","""event"",""trial"",""time""
""fullscreenenter"",""5"",""14818""
","
",379.96499997098,NA,48,NA,NA,3000,1,NA,NA,images/tutyellowplanet.jpg,images/tutalien4,images/tutalien3,images/tutrocket2,images/tutalien4,images/t.png,2,practice,true,2,common,1,2020-06-20T18:37:10Z,sub117
two-step-fixation,84,337844,0.0-61.0-2.7,FALSE,TRUE,FALSE,TRUE,"""event"",""trial"",""time""
""fullscreenenter"",""5"",""14818""
","
","
","""event"",""trial"",""time""
""fullscreenenter"",""5"",""14818""
","
",NA,images/earth.jpg,NA,NA,NA,NA,NA,NA,NA,NA,NA,NA,NA,NA,NA,fixation,NA,NA,NA,NA,NA,NA,sub117
d3-animate-choice,85,340178,0.0-61.0-0.8,FALSE,TRUE,FALSE,TRUE,"""event"",""trial"",""time""
""fullscreenenter"",""5"",""14818""
","
","
","""event"",""trial"",""time""
""fullscreenenter"",""5"",""14818""
","
",311.02000002283603,NA,48,NA,NA,3000,1,NA,NA,images/earth.jpg,images/tutrocket2,images/tutrocket1,null,images/tutrocket2,NA,1,practice,null,2,NA,NA,NA,sub117
d3-animate-choice,86,342593,0.0-61.0-1.8,FALSE,TRUE,FALSE,TRUE,"""event"",""trial"",""time""
""fullscreenenter"",""5"",""14818""
","
","
","""event"",""trial"",""time""
""fullscreenenter"",""5"",""14818""
","
",391.3600000087172,NA,48,NA,NA,3000,1,NA,NA,images/tutyellowplanet.jpg,images/tutalien4,images/tutalien3,images/tutrocket2,images/tutalien4,images/t.png,2,practice,true,2,common,1,2020-06-20T18:37:16Z,sub117
two-step-fixation,87,343613,0.0-61.0-2.8,FALSE,TRUE,FALSE,TRUE,"""event"",""trial"",""time""
""fullscreenenter"",""5"",""14818""
","
","
","""event"",""trial"",""time""
""fullscreenenter"",""5"",""14818""
","
",NA,images/earth.jpg,NA,NA,NA,NA,NA,NA,NA,NA,NA,NA,NA,NA,NA,fixation,NA,NA,NA,NA,NA,NA,sub117
d3-animate-choice,88,345959,0.0-61.0-0.9,FALSE,TRUE,FALSE,TRUE,"""event"",""trial"",""time""
""fullscreenenter"",""5"",""14818""
","
","
","""event"",""trial"",""time""
""fullscreenenter"",""5"",""14818""
","
",318.1750000221655,NA,48,NA,NA,3000,1,NA,NA,images/earth.jpg,images/tutrocket2,images/tutrocket1,null,images/tutrocket2,NA,1,practice,null,2,NA,NA,NA,sub117
d3-animate-choice,89,348324,0.0-61.0-1.9,FALSE,TRUE,FALSE,TRUE,"""event"",""trial"",""time""
""fullscreenenter"",""5"",""14818""
","
","
","""event"",""trial"",""time""
""fullscreenenter"",""5"",""14818""
","
",340.4650000156835,NA,48,NA,NA,3000,1,NA,NA,images/tutyellowplanet.jpg,images/tutalien4,images/tutalien3,images/tutrocket2,images/tutalien4,images/nothing.png,2,practice,true,2,common,0,2020-06-20T18:37:21Z,sub117
two-step-fixation,90,349343,0.0-61.0-2.9,FALSE,TRUE,FALSE,TRUE,"""event"",""trial"",""time""
""fullscreenenter"",""5"",""14818""
","
","
","""event"",""trial"",""time""
""fullscreenenter"",""5"",""14818""
","
",NA,images/earth.jpg,NA,NA,NA,NA,NA,NA,NA,NA,NA,NA,NA,NA,NA,fixation,NA,NA,NA,NA,NA,NA,sub117
d3-animate-choice,91,351712,0.0-61.0-0.10,FALSE,TRUE,FALSE,TRUE,"""event"",""trial"",""time""
""fullscreenenter"",""5"",""14818""
","
","
","""event"",""trial"",""time""
""fullscreenenter"",""5"",""14818""
","
",344.16500001680106,NA,48,NA,NA,3000,1,NA,NA,images/earth.jpg,images/tutrocket2,images/tutrocket1,null,images/tutrocket2,NA,1,practice,null,2,NA,NA,NA,sub117
d3-animate-choice,92,354202,0.0-61.0-1.10,FALSE,TRUE,FALSE,TRUE,"""event"",""trial"",""time""
""fullscreenenter"",""5"",""14818""
","
","
","""event"",""trial"",""time""
""fullscreenenter"",""5"",""14818""
","
",465.7850000075996,NA,48,NA,NA,3000,1,NA,NA,images/tutyellowplanet.jpg,images/tutalien4,images/tutalien3,images/tutrocket2,images/tutalien4,images/t.png,2,practice,true,2,common,1,2020-06-20T18:37:27Z,sub117
two-step-fixation,93,355224,0.0-61.0-2.10,FALSE,TRUE,FALSE,TRUE,"""event"",""trial"",""time""
""fullscreenenter"",""5"",""14818""
","
","
","""event"",""trial"",""time""
""fullscreenenter"",""5"",""14818""
","
",NA,images/earth.jpg,NA,NA,NA,NA,NA,NA,NA,NA,NA,NA,NA,NA,NA,fixation,NA,NA,NA,NA,NA,NA,sub117
d3-animate-choice,94,357579,0.0-61.0-0.11,FALSE,TRUE,FALSE,TRUE,"""event"",""trial"",""time""
""fullscreenenter"",""5"",""14818""
","
","
","""event"",""trial"",""time""
""fullscreenenter"",""5"",""14818""
","
",333.7449999526143,NA,48,NA,NA,3000,1,NA,NA,images/earth.jpg,images/tutrocket2,images/tutrocket1,null,images/tutrocket2,NA,1,practice,null,2,NA,NA,NA,sub117
d3-animate-choice,95,359993,0.0-61.0-1.11,FALSE,TRUE,FALSE,TRUE,"""event"",""trial"",""time""
""fullscreenenter"",""5"",""14818""
","
","
","""event"",""trial"",""time""
""fullscreenenter"",""5"",""14818""
","
",392.6199999405071,NA,48,NA,NA,3000,1,NA,NA,images/tutyellowplanet.jpg,images/tutalien4,images/tutalien3,images/tutrocket2,images/tutalien4,images/nothing.png,2,practice,true,2,common,0,2020-06-20T18:37:33Z,sub117
two-step-fixation,96,361013,0.0-61.0-2.11,FALSE,TRUE,FALSE,TRUE,"""event"",""trial"",""time""
""fullscreenenter"",""5"",""14818""
","
","
","""event"",""trial"",""time""
""fullscreenenter"",""5"",""14818""
","
",NA,images/earth.jpg,NA,NA,NA,NA,NA,NA,NA,NA,NA,NA,NA,NA,NA,fixation,NA,NA,NA,NA,NA,NA,sub117
d3-animate-choice,97,363323,0.0-61.0-0.12,FALSE,TRUE,FALSE,TRUE,"""event"",""trial"",""time""
""fullscreenenter"",""5"",""14818""
","
","
","""event"",""trial"",""time""
""fullscreenenter"",""5"",""14818""
","
",286.7350000888109,NA,49,NA,NA,3000,1,NA,NA,images/earth.jpg,images/tutrocket2,images/tutrocket1,null,images/tutrocket1,NA,1,practice,null,1,NA,NA,NA,sub117
d3-animate-choice,98,365673,0.0-61.0-1.12,FALSE,TRUE,FALSE,TRUE,"""event"",""trial"",""time""
""fullscreenenter"",""5"",""14818""
","
","
","""event"",""trial"",""time""
""fullscreenenter"",""5"",""14818""
","
",324.52999998349696,NA,49,NA,NA,3000,1,NA,NA,images/tutyellowplanet.jpg,images/tutalien4,images/tutalien3,images/tutrocket1,images/tutalien3,images/t.png,2,practice,false,1,rare,1,2020-06-20T18:37:39Z,sub117
two-step-fixation,99,366683,0.0-61.0-2.12,FALSE,TRUE,FALSE,TRUE,"""event"",""trial"",""time""
""fullscreenenter"",""5"",""14818""
","
","
","""event"",""trial"",""time""
""fullscreenenter"",""5"",""14818""
","
",NA,images/earth.jpg,NA,NA,NA,NA,NA,NA,NA,NA,NA,NA,NA,NA,NA,fixation,NA,NA,NA,NA,NA,NA,sub117
d3-animate-choice,100,369013,0.0-61.0-0.13,FALSE,TRUE,FALSE,TRUE,"""event"",""trial"",""time""
""fullscreenenter"",""5"",""14818""
","
","
","""event"",""trial"",""time""
""fullscreenenter"",""5"",""14818""
","
",318.68499994743615,NA,49,NA,NA,3000,1,NA,NA,images/earth.jpg,images/tutrocket2,images/tutrocket1,null,images/tutrocket1,NA,1,practice,null,1,NA,NA,NA,sub117
d3-animate-choice,101,371464,0.0-61.0-1.13,FALSE,TRUE,FALSE,TRUE,"""event"",""trial"",""time""
""fullscreenenter"",""5"",""14818""
","
","
","""event"",""trial"",""time""
""fullscreenenter"",""5"",""14818""
","
",440.8400000538677,NA,49,NA,NA,3000,1,NA,NA,images/tutyellowplanet.jpg,images/tutalien4,images/tutalien3,images/tutrocket1,images/tutalien3,images/nothing.png,2,practice,false,1,rare,0,2020-06-20T18:37:45Z,sub117
two-step-fixation,102,372481,0.0-61.0-2.13,FALSE,TRUE,FALSE,TRUE,"""event"",""trial"",""time""
""fullscreenenter"",""5"",""14818""
","
","
","""event"",""trial"",""time""
""fullscreenenter"",""5"",""14818""
","
",NA,images/earth.jpg,NA,NA,NA,NA,NA,NA,NA,NA,NA,NA,NA,NA,NA,fixation,NA,NA,NA,NA,NA,NA,sub117
d3-animate-choice,103,374767,0.0-61.0-0.14,FALSE,TRUE,FALSE,TRUE,"""event"",""trial"",""time""
""fullscreenenter"",""5"",""14818""
","
","
","""event"",""trial"",""time""
""fullscreenenter"",""5"",""14818""
","
",263.2900000317022,NA,49,NA,NA,3000,1,NA,NA,images/earth.jpg,images/tutrocket2,images/tutrocket1,null,images/tutrocket1,NA,1,practice,null,1,NA,NA,NA,sub117
d3-animate-choice,104,377266,0.0-61.0-1.14,FALSE,TRUE,FALSE,TRUE,"""event"",""trial"",""time""
""fullscreenenter"",""5"",""14818""
","
","
","""event"",""trial"",""time""
""fullscreenenter"",""5"",""14818""
","
",475.525000016205,NA,49,NA,NA,3000,1,NA,NA,images/tutgreenplanet.jpg,images/tutalien2,images/tutalien1,images/tutrocket1,images/tutalien1,images/nothing.png,2,practice,true,1,common,0,2020-06-20T18:37:50Z,sub117
two-step-fixation,105,378283,0.0-61.0-2.14,FALSE,TRUE,FALSE,TRUE,"""event"",""trial"",""time""
""fullscreenenter"",""5"",""14818""
","
","
","""event"",""trial"",""time""
""fullscreenenter"",""5"",""14818""
","
",NA,images/earth.jpg,NA,NA,NA,NA,NA,NA,NA,NA,NA,NA,NA,NA,NA,fixation,NA,NA,NA,NA,NA,NA,sub117
d3-animate-choice,106,380584,0.0-61.0-0.15,FALSE,TRUE,FALSE,TRUE,"""event"",""trial"",""time""
""fullscreenenter"",""5"",""14818""
","
","
","""event"",""trial"",""time""
""fullscreenenter"",""5"",""14818""
","
",276.9550000084564,NA,49,NA,NA,3000,1,NA,NA,images/earth.jpg,images/tutrocket2,images/tutrocket1,null,images/tutrocket1,NA,1,practice,null,1,NA,NA,NA,sub117
d3-animate-choice,107,382981,0.0-61.0-1.15,FALSE,TRUE,FALSE,TRUE,"""event"",""trial"",""time""
""fullscreenenter"",""5"",""14818""
","
","
","""event"",""trial"",""time""
""fullscreenenter"",""5"",""14818""
","
",372.9300000704825,NA,49,NA,NA,3000,1,NA,NA,images/tutgreenplanet.jpg,images/tutalien2,images/tutalien1,images/tutrocket1,images/tutalien1,images/nothing.png,2,practice,true,1,common,0,2020-06-20T18:37:56Z,sub117
two-step-fixation,108,384001,0.0-61.0-2.15,FALSE,TRUE,FALSE,TRUE,"""event"",""trial"",""time""
""fullscreenenter"",""5"",""14818""
","
","
","""event"",""trial"",""time""
""fullscreenenter"",""5"",""14818""
","
",NA,images/earth.jpg,NA,NA,NA,NA,NA,NA,NA,NA,NA,NA,NA,NA,NA,fixation,NA,NA,NA,NA,NA,NA,sub117
d3-animate-choice,109,386334,0.0-61.0-0.16,FALSE,TRUE,FALSE,TRUE,"""event"",""trial"",""time""
""fullscreenenter"",""5"",""14818""
","
","
","""event"",""trial"",""time""
""fullscreenenter"",""5"",""14818""
","
",307.21499992068857,NA,49,NA,NA,3000,1,NA,NA,images/earth.jpg,images/tutrocket2,images/tutrocket1,null,images/tutrocket1,NA,1,practice,null,1,NA,NA,NA,sub117
d3-animate-choice,110,388703,0.0-61.0-1.16,FALSE,TRUE,FALSE,TRUE,"""event"",""trial"",""time""
""fullscreenenter"",""5"",""14818""
","
","
","""event"",""trial"",""time""
""fullscreenenter"",""5"",""14818""
","
",343.95499993115664,NA,49,NA,NA,3000,1,NA,NA,images/tutgreenplanet.jpg,images/tutalien2,images/tutalien1,images/tutrocket1,images/tutalien1,images/nothing.png,2,practice,true,1,common,0,2020-06-20T18:38:02Z,sub117
two-step-fixation,111,389722,0.0-61.0-2.16,FALSE,TRUE,FALSE,TRUE,"""event"",""trial"",""time""
""fullscreenenter"",""5"",""14818""
","
","
","""event"",""trial"",""time""
""fullscreenenter"",""5"",""14818""
","
",NA,images/earth.jpg,NA,NA,NA,NA,NA,NA,NA,NA,NA,NA,NA,NA,NA,fixation,NA,NA,NA,NA,NA,NA,sub117
d3-animate-choice,112,392080,0.0-61.0-0.17,FALSE,TRUE,FALSE,TRUE,"""event"",""trial"",""time""
""fullscreenenter"",""5"",""14818""
","
","
","""event"",""trial"",""time""
""fullscreenenter"",""5"",""14818""
","
",334.9249999737367,NA,49,NA,NA,3000,1,NA,NA,images/earth.jpg,images/tutrocket2,images/tutrocket1,null,images/tutrocket1,NA,1,practice,null,1,NA,NA,NA,sub117
d3-animate-choice,113,394439,0.0-61.0-1.17,FALSE,TRUE,FALSE,TRUE,"""event"",""trial"",""time""
""fullscreenenter"",""5"",""14818""
","
","
","""event"",""trial"",""time""
""fullscreenenter"",""5"",""14818""
","
",338.6500000488013,NA,48,NA,NA,3000,1,NA,NA,images/tutgreenplanet.jpg,images/tutalien2,images/tutalien1,images/tutrocket1,images/tutalien2,images/t.png,2,practice,true,2,common,1,2020-06-20T18:38:08Z,sub117
two-step-fixation,114,395460,0.0-61.0-2.17,FALSE,TRUE,FALSE,TRUE,"""event"",""trial"",""time""
""fullscreenenter"",""5"",""14818""
","
","
","""event"",""trial"",""time""
""fullscreenenter"",""5"",""14818""
","
",NA,images/earth.jpg,NA,NA,NA,NA,NA,NA,NA,NA,NA,NA,NA,NA,NA,fixation,NA,NA,NA,NA,NA,NA,sub117
d3-animate-choice,115,397875,0.0-61.0-0.18,FALSE,TRUE,FALSE,TRUE,"""event"",""trial"",""time""
""fullscreenenter"",""5"",""14818""
","
","
","""event"",""trial"",""time""
""fullscreenenter"",""5"",""14818""
","
",394.29500000551343,NA,49,NA,NA,3000,1,NA,NA,images/earth.jpg,images/tutrocket2,images/tutrocket1,null,images/tutrocket1,NA,1,practice,null,1,NA,NA,NA,sub117
d3-animate-choice,116,400306,0.0-61.0-1.18,FALSE,TRUE,FALSE,TRUE,"""event"",""trial"",""time""
""fullscreenenter"",""5"",""14818""
","
","
","""event"",""trial"",""time""
""fullscreenenter"",""5"",""14818""
","
",409.3200000934303,NA,48,NA,NA,3000,1,NA,NA,images/tutgreenplanet.jpg,images/tutalien2,images/tutalien1,images/tutrocket1,images/tutalien2,images/nothing.png,2,practice,true,2,common,0,2020-06-20T18:38:13Z,sub117
two-step-fixation,117,401322,0.0-61.0-2.18,FALSE,TRUE,FALSE,TRUE,"""event"",""trial"",""time""
""fullscreenenter"",""5"",""14818""
","
","
","""event"",""trial"",""time""
""fullscreenenter"",""5"",""14818""
","
",NA,images/earth.jpg,NA,NA,NA,NA,NA,NA,NA,NA,NA,NA,NA,NA,NA,fixation,NA,NA,NA,NA,NA,NA,sub117
d3-animate-choice,118,403636,0.0-61.0-0.19,FALSE,TRUE,FALSE,TRUE,"""event"",""trial"",""time""
""fullscreenenter"",""5"",""14818""
","
","
","""event"",""trial"",""time""
""fullscreenenter"",""5"",""14818""
","
",290.43000005185604,NA,49,NA,NA,3000,1,NA,NA,images/earth.jpg,images/tutrocket2,images/tutrocket1,null,images/tutrocket1,NA,1,practice,null,1,NA,NA,NA,sub117
d3-animate-choice,119,406004,0.0-61.0-1.19,FALSE,TRUE,FALSE,TRUE,"""event"",""trial"",""time""
""fullscreenenter"",""5"",""14818""
","
","
","""event"",""trial"",""time""
""fullscreenenter"",""5"",""14818""
","
",342.8449999773875,NA,49,NA,NA,3000,1,NA,NA,images/tutgreenplanet.jpg,images/tutalien2,images/tutalien1,images/tutrocket1,images/tutalien1,images/t.png,2,practice,true,1,common,1,2020-06-20T18:38:19Z,sub117
two-step-fixation,120,407026,0.0-61.0-2.19,FALSE,TRUE,FALSE,TRUE,"""event"",""trial"",""time""
""fullscreenenter"",""5"",""14818""
","
","
","""event"",""trial"",""time""
""fullscreenenter"",""5"",""14818""
","
",NA,images/earth.jpg,NA,NA,NA,NA,NA,NA,NA,NA,NA,NA,NA,NA,NA,fixation,NA,NA,NA,NA,NA,NA,sub117
d3-instructions,121,410076,0.0-62.0,FALSE,TRUE,FALSE,TRUE,"""event"",""trial"",""time""
""fullscreenenter"",""5"",""14818""
","
","
","""event"",""trial"",""time""
""fullscreenenter"",""5"",""14818""
","
",NA,NA,NA,NA,NA,NA,NA,NA,NA,NA,NA,NA,NA,NA,NA,NA,NA,NA,NA,NA,NA,NA,sub117
audio-keyboard-response,122,411899,0.0-63.0,FALSE,TRUE,FALSE,TRUE,"""event"",""trial"",""time""
""fullscreenenter"",""5"",""14818""
","
","
","""event"",""trial"",""time""
""fullscreenenter"",""5"",""14818""
","
",1821,audio/instructions/treasure_feedback.wav,32,NA,NA,NA,NA,NA,NA,NA,NA,NA,NA,NA,NA,NA,NA,NA,NA,NA,NA,NA,sub117
d3-instructions,123,420801,0.0-64.0,FALSE,TRUE,FALSE,TRUE,"""event"",""trial"",""time""
""fullscreenenter"",""5"",""14818""
","
","
","""event"",""trial"",""time""
""fullscreenenter"",""5"",""14818""
","
",NA,NA,NA,NA,NA,NA,NA,NA,NA,NA,NA,NA,NA,NA,NA,NA,NA,NA,NA,NA,NA,NA,sub117
d3-instructions,124,433760,0.0-65.0,FALSE,TRUE,FALSE,TRUE,"""event"",""trial"",""time""
""fullscreenenter"",""5"",""14818""
","
","
","""event"",""trial"",""time""
""fullscreenenter"",""5"",""14818""
","
",NA,NA,NA,NA,NA,NA,NA,NA,NA,NA,NA,NA,NA,NA,NA,NA,NA,NA,NA,NA,NA,NA,sub117
d3-instructions,125,457613,0.0-66.0,FALSE,TRUE,FALSE,TRUE,"""event"",""trial"",""time""
""fullscreenenter"",""5"",""14818""
","
","
","""event"",""trial"",""time""
""fullscreenenter"",""5"",""14818""
","
",NA,NA,NA,NA,NA,NA,NA,NA,NA,NA,NA,NA,NA,NA,NA,NA,NA,NA,NA,NA,NA,NA,sub117
d3-instructions,126,469459,0.0-67.0,FALSE,TRUE,FALSE,TRUE,"""event"",""trial"",""time""
""fullscreenenter"",""5"",""14818""
","
","
","""event"",""trial"",""time""
""fullscreenenter"",""5"",""14818""
","
",NA,NA,NA,NA,NA,NA,NA,NA,NA,NA,NA,NA,NA,NA,NA,NA,NA,NA,NA,NA,NA,NA,sub117
d3-instructions,127,472631,0.0-68.0,FALSE,TRUE,FALSE,TRUE,"""event"",""trial"",""time""
""fullscreenenter"",""5"",""14818""
","
","
","""event"",""trial"",""time""
""fullscreenenter"",""5"",""14818""
","
",NA,NA,NA,NA,NA,NA,NA,NA,NA,NA,NA,NA,NA,NA,NA,NA,NA,NA,NA,NA,NA,NA,sub117
instructions-quiz,128,475552,0.0-69.0,FALSE,TRUE,FALSE,TRUE,"""event"",""trial"",""time""
""fullscreenenter"",""5"",""14818""
","
","
","""event"",""trial"",""time""
""fullscreenenter"",""5"",""14818""
","
",2909.5799999777228,audio/quiz/Q1_Prompt.wav,NA,1,NA,NA,NA,NA,NA,NA,NA,NA,NA,NA,NA,NA,NA,NA,NA,NA,NA,NA,sub117
audio-keyboard-response,129,484723,0.0-70.0,FALSE,TRUE,FALSE,TRUE,"""event"",""trial"",""time""
""fullscreenenter"",""5"",""14818""
","
","
","""event"",""trial"",""time""
""fullscreenenter"",""5"",""14818""
","
",null,audio/quiz/Q1_Correct.wav,null,NA,NA,NA,NA,NA,NA,NA,NA,NA,NA,NA,NA,NA,NA,NA,NA,NA,NA,NA,sub117
instructions-quiz,130,489135,0.0-71.0,FALSE,TRUE,FALSE,TRUE,"""event"",""trial"",""time""
""fullscreenenter"",""5"",""14818""
","
","
","""event"",""trial"",""time""
""fullscreenenter"",""5"",""14818""
","
",4404.424999956973,audio/quiz/Q2_Prompt.wav,NA,0,NA,NA,NA,NA,NA,NA,NA,NA,NA,NA,NA,NA,NA,NA,NA,NA,NA,NA,sub117
audio-keyboard-response,131,502012,0.0-72.0,FALSE,TRUE,FALSE,TRUE,"""event"",""trial"",""time""
""fullscreenenter"",""5"",""14818""
","
","
","""event"",""trial"",""time""
""fullscreenenter"",""5"",""14818""
","
",null,audio/quiz/Q2_Correct.wav,null,NA,NA,NA,NA,NA,NA,NA,NA,NA,NA,NA,NA,NA,NA,NA,NA,NA,NA,NA,sub117
instructions-quiz,132,504647,0.0-73.0,FALSE,TRUE,FALSE,TRUE,"""event"",""trial"",""time""
""fullscreenenter"",""5"",""14818""
","
","
","""event"",""trial"",""time""
""fullscreenenter"",""5"",""14818""
","
",2628.540000063367,audio/quiz/Q3_Prompt.wav,NA,1,NA,NA,NA,NA,NA,NA,NA,NA,NA,NA,NA,NA,NA,NA,NA,NA,NA,NA,sub117
audio-keyboard-response,133,510454,0.0-74.0,FALSE,TRUE,FALSE,TRUE,"""event"",""trial"",""time""
""fullscreenenter"",""5"",""14818""
","
","
","""event"",""trial"",""time""
""fullscreenenter"",""5"",""14818""
","
",null,audio/quiz/Q3_Correct.wav,null,NA,NA,NA,NA,NA,NA,NA,NA,NA,NA,NA,NA,NA,NA,NA,NA,NA,NA,NA,sub117
d3-instructions,134,515012,0.0-75.0,FALSE,TRUE,FALSE,TRUE,"""event"",""trial"",""time""
""fullscreenenter"",""5"",""14818""
","
","
","""event"",""trial"",""time""
""fullscreenenter"",""5"",""14818""
","
",NA,NA,NA,NA,NA,NA,NA,NA,NA,NA,NA,NA,NA,NA,NA,NA,NA,NA,NA,NA,NA,NA,sub117
d3-animate-choice,135,517784,0.0-76.0-0.0,FALSE,TRUE,FALSE,TRUE,"""event"",""trial"",""time""
""fullscreenenter"",""5"",""14818""
","
","
","""event"",""trial"",""time""
""fullscreenenter"",""5"",""14818""
","
",758.4550000028685,NA,48,NA,NA,3000,1,NA,NA,images/earth.jpg,images/rocket1,images/rocket2,null,images/rocket1,NA,1,real,null,2,NA,NA,NA,sub117
d3-animate-choice,136,520689,0.0-76.0-1.0,FALSE,TRUE,FALSE,TRUE,"""event"",""trial"",""time""
""fullscreenenter"",""5"",""14818""
","
","
","""event"",""trial"",""time""
""fullscreenenter"",""5"",""14818""
","
",881.1550000682473,NA,48,NA,NA,3000,1,NA,NA,images/redplanet1.jpg,images/alien2,images/alien1,images/rocket1,images/alien2,images/t.png,2,real,true,2,common,1,2020-06-20T18:40:14Z,sub117
two-step-fixation,137,521705,0.0-76.0-2.0,FALSE,TRUE,FALSE,TRUE,"""event"",""trial"",""time""
""fullscreenenter"",""5"",""14818""
","
","
","""event"",""trial"",""time""
""fullscreenenter"",""5"",""14818""
","
",NA,images/earth.jpg,NA,NA,NA,NA,NA,NA,NA,NA,NA,NA,NA,NA,NA,fixation,NA,NA,NA,NA,NA,NA,sub117
d3-animate-choice,138,523980,0.0-76.0-0.1,FALSE,TRUE,FALSE,TRUE,"""event"",""trial"",""time""
""fullscreenenter"",""5"",""14818""
","
","
","""event"",""trial"",""time""
""fullscreenenter"",""5"",""14818""
","
",249.02500002644956,NA,48,NA,NA,3000,1,NA,NA,images/earth.jpg,images/rocket1,images/rocket2,null,images/rocket1,NA,1,real,null,2,NA,NA,NA,sub117
d3-animate-choice,139,526291,0.0-76.0-1.1,FALSE,TRUE,FALSE,TRUE,"""event"",""trial"",""time""
""fullscreenenter"",""5"",""14818""
","
","
","""event"",""trial"",""time""
""fullscreenenter"",""5"",""14818""
","
",293.7600000295788,NA,48,NA,NA,3000,1,NA,NA,images/redplanet1.jpg,images/alien2,images/alien1,images/rocket1,images/alien2,images/t.png,2,real,true,2,common,1,2020-06-20T18:40:19Z,sub117
two-step-fixation,140,527312,0.0-76.0-2.1,FALSE,TRUE,FALSE,TRUE,"""event"",""trial"",""time""
""fullscreenenter"",""5"",""14818""
","
","
","""event"",""trial"",""time""
""fullscreenenter"",""5"",""14818""
","
",NA,images/earth.jpg,NA,NA,NA,NA,NA,NA,NA,NA,NA,NA,NA,NA,NA,fixation,NA,NA,NA,NA,NA,NA,sub117
d3-animate-choice,141,529900,0.0-76.0-0.2,FALSE,TRUE,FALSE,TRUE,"""event"",""trial"",""time""
""fullscreenenter"",""5"",""14818""
","
","
","""event"",""trial"",""time""
""fullscreenenter"",""5"",""14818""
","
",571.7949999962002,NA,48,NA,NA,3000,1,NA,NA,images/earth.jpg,images/rocket1,images/rocket2,null,images/rocket1,NA,1,real,null,2,NA,NA,NA,sub117
d3-animate-choice,142,532224,0.0-76.0-1.2,FALSE,TRUE,FALSE,TRUE,"""event"",""trial"",""time""
""fullscreenenter"",""5"",""14818""
","
","
","""event"",""trial"",""time""
""fullscreenenter"",""5"",""14818""
","
",302.7950000250712,NA,48,NA,NA,3000,1,NA,NA,images/redplanet1.jpg,images/alien2,images/alien1,images/rocket1,images/alien2,images/t.png,2,real,true,2,common,1,2020-06-20T18:40:25Z,sub117
two-step-fixation,143,533239,0.0-76.0-2.2,FALSE,TRUE,FALSE,TRUE,"""event"",""trial"",""time""
""fullscreenenter"",""5"",""14818""
","
","
","""event"",""trial"",""time""
""fullscreenenter"",""5"",""14818""
","
",NA,images/earth.jpg,NA,NA,NA,NA,NA,NA,NA,NA,NA,NA,NA,NA,NA,fixation,NA,NA,NA,NA,NA,NA,sub117
d3-animate-choice,144,535505,0.0-76.0-0.3,FALSE,TRUE,FALSE,TRUE,"""event"",""trial"",""time""
""fullscreenenter"",""5"",""14818""
","
","
","""event"",""trial"",""time""
""fullscreenenter"",""5"",""14818""
","
",255.49000001046807,NA,48,NA,NA,3000,1,NA,NA,images/earth.jpg,images/rocket1,images/rocket2,null,images/rocket1,NA,1,real,null,2,NA,NA,NA,sub117
d3-animate-choice,145,537848,0.0-76.0-1.3,FALSE,TRUE,FALSE,TRUE,"""event"",""trial"",""time""
""fullscreenenter"",""5"",""14818""
","
","
","""event"",""trial"",""time""
""fullscreenenter"",""5"",""14818""
","
",331.03500003926456,NA,48,NA,NA,3000,1,NA,NA,images/redplanet1.jpg,images/alien2,images/alien1,images/rocket1,images/alien2,images/t.png,2,real,true,2,common,1,2020-06-20T18:40:31Z,sub117
two-step-fixation,146,538856,0.0-76.0-2.3,FALSE,TRUE,FALSE,TRUE,"""event"",""trial"",""time""
""fullscreenenter"",""5"",""14818""
","
","
","""event"",""trial"",""time""
""fullscreenenter"",""5"",""14818""
","
",NA,images/earth.jpg,NA,NA,NA,NA,NA,NA,NA,NA,NA,NA,NA,NA,NA,fixation,NA,NA,NA,NA,NA,NA,sub117
d3-animate-choice,147,541150,0.0-76.0-0.4,FALSE,TRUE,FALSE,TRUE,"""event"",""trial"",""time""
""fullscreenenter"",""5"",""14818""
","
","
","""event"",""trial"",""time""
""fullscreenenter"",""5"",""14818""
","
",282.1299999486655,NA,48,NA,NA,3000,1,NA,NA,images/earth.jpg,images/rocket1,images/rocket2,null,images/rocket1,NA,1,real,null,2,NA,NA,NA,sub117
d3-animate-choice,148,543545,0.0-76.0-1.4,FALSE,TRUE,FALSE,TRUE,"""event"",""trial"",""time""
""fullscreenenter"",""5"",""14818""
","
","
","""event"",""trial"",""time""
""fullscreenenter"",""5"",""14818""
","
",384.2949999962002,NA,48,NA,NA,3000,1,NA,NA,images/redplanet1.jpg,images/alien2,images/alien1,images/rocket1,images/alien2,images/t.png,2,real,true,2,common,1,2020-06-20T18:40:37Z,sub117
two-step-fixation,149,544561,0.0-76.0-2.4,FALSE,TRUE,FALSE,TRUE,"""event"",""trial"",""time""
""fullscreenenter"",""5"",""14818""
","
","
","""event"",""trial"",""time""
""fullscreenenter"",""5"",""14818""
","
",NA,images/earth.jpg,NA,NA,NA,NA,NA,NA,NA,NA,NA,NA,NA,NA,NA,fixation,NA,NA,NA,NA,NA,NA,sub117
d3-animate-choice,150,546843,0.0-76.0-0.5,FALSE,TRUE,FALSE,TRUE,"""event"",""trial"",""time""
""fullscreenenter"",""5"",""14818""
","
","
","""event"",""trial"",""time""
""fullscreenenter"",""5"",""14818""
","
",259.0600000694394,NA,48,NA,NA,3000,1,NA,NA,images/earth.jpg,images/rocket1,images/rocket2,null,images/rocket1,NA,1,real,null,2,NA,NA,NA,sub117
d3-animate-choice,151,549289,0.0-76.0-1.5,FALSE,TRUE,FALSE,TRUE,"""event"",""trial"",""time""
""fullscreenenter"",""5"",""14818""
","
","
","""event"",""trial"",""time""
""fullscreenenter"",""5"",""14818""
","
",420.4100000206381,NA,48,NA,NA,3000,1,NA,NA,images/purpleplanet.jpg,images/alien4,images/alien3,images/rocket1,images/alien4,images/t.png,2,real,false,2,rare,1,2020-06-20T18:40:42Z,sub117
two-step-fixation,152,550307,0.0-76.0-2.5,FALSE,TRUE,FALSE,TRUE,"""event"",""trial"",""time""
""fullscreenenter"",""5"",""14818""
","
","
","""event"",""trial"",""time""
""fullscreenenter"",""5"",""14818""
","
",NA,images/earth.jpg,NA,NA,NA,NA,NA,NA,NA,NA,NA,NA,NA,NA,NA,fixation,NA,NA,NA,NA,NA,NA,sub117
d3-animate-choice,153,552620,0.0-76.0-0.6,FALSE,TRUE,FALSE,TRUE,"""event"",""trial"",""time""
""fullscreenenter"",""5"",""14818""
","
","
","""event"",""trial"",""time""
""fullscreenenter"",""5"",""14818""
","
",288.24500006157905,NA,48,NA,NA,3000,1,NA,NA,images/earth.jpg,images/rocket1,images/rocket2,null,images/rocket1,NA,1,real,null,2,NA,NA,NA,sub117
d3-animate-choice,154,555233,0.0-76.0-1.6,FALSE,TRUE,FALSE,TRUE,"""event"",""trial"",""time""
""fullscreenenter"",""5"",""14818""
","
","
","""event"",""trial"",""time""
""fullscreenenter"",""5"",""14818""
","
",590.849999920465,NA,49,NA,NA,3000,1,NA,NA,images/purpleplanet.jpg,images/alien4,images/alien3,images/rocket1,images/alien3,images/nothing.png,2,real,false,1,rare,0,2020-06-20T18:40:48Z,sub117
two-step-fixation,155,556252,0.0-76.0-2.6,FALSE,TRUE,FALSE,TRUE,"""event"",""trial"",""time""
""fullscreenenter"",""5"",""14818""
","
","
","""event"",""trial"",""time""
""fullscreenenter"",""5"",""14818""
","
",NA,images/earth.jpg,NA,NA,NA,NA,NA,NA,NA,NA,NA,NA,NA,NA,NA,fixation,NA,NA,NA,NA,NA,NA,sub117
d3-animate-choice,156,558561,0.0-76.0-0.7,FALSE,TRUE,FALSE,TRUE,"""event"",""trial"",""time""
""fullscreenenter"",""5"",""14818""
","
","
","""event"",""trial"",""time""
""fullscreenenter"",""5"",""14818""
","
",283.15500007010996,NA,48,NA,NA,3000,1,NA,NA,images/earth.jpg,images/rocket1,images/rocket2,null,images/rocket1,NA,1,real,null,2,NA,NA,NA,sub117
d3-animate-choice,157,561065,0.0-76.0-1.7,FALSE,TRUE,FALSE,TRUE,"""event"",""trial"",""time""
""fullscreenenter"",""5"",""14818""
","
","
","""event"",""trial"",""time""
""fullscreenenter"",""5"",""14818""
","
",488.38999995496124,NA,48,NA,NA,3000,1,NA,NA,images/redplanet1.jpg,images/alien2,images/alien1,images/rocket1,images/alien2,images/t.png,2,real,true,2,common,1,2020-06-20T18:40:54Z,sub117
two-step-fixation,158,562085,0.0-76.0-2.7,FALSE,TRUE,FALSE,TRUE,"""event"",""trial"",""time""
""fullscreenenter"",""5"",""14818""
","
","
","""event"",""trial"",""time""
""fullscreenenter"",""5"",""14818""
","
",NA,images/earth.jpg,NA,NA,NA,NA,NA,NA,NA,NA,NA,NA,NA,NA,NA,fixation,NA,NA,NA,NA,NA,NA,sub117
d3-animate-choice,159,564396,0.0-76.0-0.8,FALSE,TRUE,FALSE,TRUE,"""event"",""trial"",""time""
""fullscreenenter"",""5"",""14818""
","
","
","""event"",""trial"",""time""
""fullscreenenter"",""5"",""14818""
","
",287.4799999408424,NA,48,NA,NA,3000,1,NA,NA,images/earth.jpg,images/rocket1,images/rocket2,null,images/rocket1,NA,1,real,null,2,NA,NA,NA,sub117
d3-animate-choice,160,566881,0.0-76.0-1.8,FALSE,TRUE,FALSE,TRUE,"""event"",""trial"",""time""
""fullscreenenter"",""5"",""14818""
","
","
","""event"",""trial"",""time""
""fullscreenenter"",""5"",""14818""
","
",461.79500001017004,NA,48,NA,NA,3000,1,NA,NA,images/redplanet1.jpg,images/alien2,images/alien1,images/rocket1,images/alien2,images/t.png,2,real,true,2,common,1,2020-06-20T18:41:00Z,sub117
two-step-fixation,161,567902,0.0-76.0-2.8,FALSE,TRUE,FALSE,TRUE,"""event"",""trial"",""time""
""fullscreenenter"",""5"",""14818""
","
","
","""event"",""trial"",""time""
""fullscreenenter"",""5"",""14818""
","
",NA,images/earth.jpg,NA,NA,NA,NA,NA,NA,NA,NA,NA,NA,NA,NA,NA,fixation,NA,NA,NA,NA,NA,NA,sub117
d3-animate-choice,162,570219,0.0-76.0-0.9,FALSE,TRUE,FALSE,TRUE,"""event"",""trial"",""time""
""fullscreenenter"",""5"",""14818""
","
","
","""event"",""trial"",""time""
""fullscreenenter"",""5"",""14818""
","
",292.96999995131046,NA,48,NA,NA,3000,1,NA,NA,images/earth.jpg,images/rocket1,images/rocket2,null,images/rocket1,NA,1,real,null,2,NA,NA,NA,sub117
d3-animate-choice,163,572647,0.0-76.0-1.9,FALSE,TRUE,FALSE,TRUE,"""event"",""trial"",""time""
""fullscreenenter"",""5"",""14818""
","
","
","""event"",""trial"",""time""
""fullscreenenter"",""5"",""14818""
","
",404.05999997165054,NA,48,NA,NA,3000,1,NA,NA,images/purpleplanet.jpg,images/alien4,images/alien3,images/rocket1,images/alien4,images/t.png,2,real,false,2,rare,1,2020-06-20T18:41:06Z,sub117
two-step-fixation,164,573667,0.0-76.0-2.9,FALSE,TRUE,FALSE,TRUE,"""event"",""trial"",""time""
""fullscreenenter"",""5"",""14818""
","
","
","""event"",""trial"",""time""
""fullscreenenter"",""5"",""14818""
","
",NA,images/earth.jpg,NA,NA,NA,NA,NA,NA,NA,NA,NA,NA,NA,NA,NA,fixation,NA,NA,NA,NA,NA,NA,sub117
d3-animate-choice,165,575996,0.0-76.0-0.10,FALSE,TRUE,FALSE,TRUE,"""event"",""trial"",""time""
""fullscreenenter"",""5"",""14818""
","
","
","""event"",""trial"",""time""
""fullscreenenter"",""5"",""14818""
","
",306.235000025481,NA,48,NA,NA,3000,1,NA,NA,images/earth.jpg,images/rocket1,images/rocket2,null,images/rocket1,NA,1,real,null,2,NA,NA,NA,sub117
d3-animate-choice,166,578461,0.0-76.0-1.10,FALSE,TRUE,FALSE,TRUE,"""event"",""trial"",""time""
""fullscreenenter"",""5"",""14818""
","
","
","""event"",""trial"",""time""
""fullscreenenter"",""5"",""14818""
","
",441.2449999945238,NA,48,NA,NA,3000,1,NA,NA,images/redplanet1.jpg,images/alien2,images/alien1,images/rocket1,images/alien2,images/t.png,2,real,true,2,common,1,2020-06-20T18:41:12Z,sub117
two-step-fixation,167,579481,0.0-76.0-2.10,FALSE,TRUE,FALSE,TRUE,"""event"",""trial"",""time""
""fullscreenenter"",""5"",""14818""
","
","
","""event"",""trial"",""time""
""fullscreenenter"",""5"",""14818""
","
",NA,images/earth.jpg,NA,NA,NA,NA,NA,NA,NA,NA,NA,NA,NA,NA,NA,fixation,NA,NA,NA,NA,NA,NA,sub117
d3-animate-choice,168,581785,0.0-76.0-0.11,FALSE,TRUE,FALSE,TRUE,"""event"",""trial"",""time""
""fullscreenenter"",""5"",""14818""
","
","
","""event"",""trial"",""time""
""fullscreenenter"",""5"",""14818""
","
",278.78499997314066,NA,48,NA,NA,3000,1,NA,NA,images/earth.jpg,images/rocket1,images/rocket2,null,images/rocket1,NA,1,real,null,2,NA,NA,NA,sub117
d3-animate-choice,169,584200,0.0-76.0-1.11,FALSE,TRUE,FALSE,TRUE,"""event"",""trial"",""time""
""fullscreenenter"",""5"",""14818""
","
","
","""event"",""trial"",""time""
""fullscreenenter"",""5"",""14818""
","
",393.7150000128895,NA,48,NA,NA,3000,1,NA,NA,images/redplanet1.jpg,images/alien2,images/alien1,images/rocket1,images/alien2,images/nothing.png,2,real,true,2,common,0,2020-06-20T18:41:17Z,sub117
two-step-fixation,170,585219,0.0-76.0-2.11,FALSE,TRUE,FALSE,TRUE,"""event"",""trial"",""time""
""fullscreenenter"",""5"",""14818""
","
","
","""event"",""trial"",""time""
""fullscreenenter"",""5"",""14818""
","
",NA,images/earth.jpg,NA,NA,NA,NA,NA,NA,NA,NA,NA,NA,NA,NA,NA,fixation,NA,NA,NA,NA,NA,NA,sub117
d3-animate-choice,171,587582,0.0-76.0-0.12,FALSE,TRUE,FALSE,TRUE,"""event"",""trial"",""time""
""fullscreenenter"",""5"",""14818""
","
","
","""event"",""trial"",""time""
""fullscreenenter"",""5"",""14818""
","
",336.83000004384667,NA,48,NA,NA,3000,1,NA,NA,images/earth.jpg,images/rocket1,images/rocket2,null,images/rocket1,NA,1,real,null,2,NA,NA,NA,sub117
d3-animate-choice,172,589963,0.0-76.0-1.12,FALSE,TRUE,FALSE,TRUE,"""event"",""trial"",""time""
""fullscreenenter"",""5"",""14818""
","
","
","""event"",""trial"",""time""
""fullscreenenter"",""5"",""14818""
","
",356.8700000178069,NA,48,NA,NA,3000,1,NA,NA,images/redplanet1.jpg,images/alien2,images/alien1,images/rocket1,images/alien2,images/nothing.png,2,real,true,2,common,0,2020-06-20T18:41:23Z,sub117
two-step-fixation,173,590980,0.0-76.0-2.12,FALSE,TRUE,FALSE,TRUE,"""event"",""trial"",""time""
""fullscreenenter"",""5"",""14818""
","
","
","""event"",""trial"",""time""
""fullscreenenter"",""5"",""14818""
","
",NA,images/earth.jpg,NA,NA,NA,NA,NA,NA,NA,NA,NA,NA,NA,NA,NA,fixation,NA,NA,NA,NA,NA,NA,sub117
d3-animate-choice,174,593318,0.0-76.0-0.13,FALSE,TRUE,FALSE,TRUE,"""event"",""trial"",""time""
""fullscreenenter"",""5"",""14818""
","
","
","""event"",""trial"",""time""
""fullscreenenter"",""5"",""14818""
","
",318.39999998919666,NA,48,NA,NA,3000,1,NA,NA,images/earth.jpg,images/rocket1,images/rocket2,null,images/rocket1,NA,1,real,null,2,NA,NA,NA,sub117
d3-animate-choice,175,595875,0.0-76.0-1.13,FALSE,TRUE,FALSE,TRUE,"""event"",""trial"",""time""
""fullscreenenter"",""5"",""14818""
","
","
","""event"",""trial"",""time""
""fullscreenenter"",""5"",""14818""
","
",533.2199999829754,NA,48,NA,NA,3000,1,NA,NA,images/purpleplanet.jpg,images/alien4,images/alien3,images/rocket1,images/alien4,images/nothing.png,2,real,false,2,rare,0,2020-06-20T18:41:29Z,sub117
two-step-fixation,176,596896,0.0-76.0-2.13,FALSE,TRUE,FALSE,TRUE,"""event"",""trial"",""time""
""fullscreenenter"",""5"",""14818""
","
","
","""event"",""trial"",""time""
""fullscreenenter"",""5"",""14818""
","
",NA,images/earth.jpg,NA,NA,NA,NA,NA,NA,NA,NA,NA,NA,NA,NA,NA,fixation,NA,NA,NA,NA,NA,NA,sub117
d3-animate-choice,177,599216,0.0-76.0-0.14,FALSE,TRUE,FALSE,TRUE,"""event"",""trial"",""time""
""fullscreenenter"",""5"",""14818""
","
","
","""event"",""trial"",""time""
""fullscreenenter"",""5"",""14818""
","
",297.28000005707145,NA,49,NA,NA,3000,1,NA,NA,images/earth.jpg,images/rocket1,images/rocket2,null,images/rocket2,NA,1,real,null,1,NA,NA,NA,sub117
d3-animate-choice,178,601877,0.0-76.0-1.14,FALSE,TRUE,FALSE,TRUE,"""event"",""trial"",""time""
""fullscreenenter"",""5"",""14818""
","
","
","""event"",""trial"",""time""
""fullscreenenter"",""5"",""14818""
","
",634.5300000393763,NA,49,NA,NA,3000,1,NA,NA,images/redplanet1.jpg,images/alien2,images/alien1,images/rocket2,images/alien1,images/nothing.png,2,real,false,1,rare,0,2020-06-20T18:41:35Z,sub117
two-step-fixation,179,602897,0.0-76.0-2.14,FALSE,TRUE,FALSE,TRUE,"""event"",""trial"",""time""
""fullscreenenter"",""5"",""14818""
","
","
","""event"",""trial"",""time""
""fullscreenenter"",""5"",""14818""
","
",NA,images/earth.jpg,NA,NA,NA,NA,NA,NA,NA,NA,NA,NA,NA,NA,NA,fixation,NA,NA,NA,NA,NA,NA,sub117
d3-animate-choice,180,605223,0.0-76.0-0.15,FALSE,TRUE,FALSE,TRUE,"""event"",""trial"",""time""
""fullscreenenter"",""5"",""14818""
","
","
","""event"",""trial"",""time""
""fullscreenenter"",""5"",""14818""
","
",303.24499995913357,NA,49,NA,NA,3000,1,NA,NA,images/earth.jpg,images/rocket1,images/rocket2,null,images/rocket2,NA,1,real,null,1,NA,NA,NA,sub117
d3-animate-choice,181,607688,0.0-76.0-1.15,FALSE,TRUE,FALSE,TRUE,"""event"",""trial"",""time""
""fullscreenenter"",""5"",""14818""
","
","
","""event"",""trial"",""time""
""fullscreenenter"",""5"",""14818""
","
",439.89999999757856,NA,49,NA,NA,3000,1,NA,NA,images/purpleplanet.jpg,images/alien4,images/alien3,images/rocket2,images/alien3,images/nothing.png,2,real,true,1,common,0,2020-06-20T18:41:41Z,sub117
two-step-fixation,182,608708,0.0-76.0-2.15,FALSE,TRUE,FALSE,TRUE,"""event"",""trial"",""time""
""fullscreenenter"",""5"",""14818""
","
","
","""event"",""trial"",""time""
""fullscreenenter"",""5"",""14818""
","
",NA,images/earth.jpg,NA,NA,NA,NA,NA,NA,NA,NA,NA,NA,NA,NA,NA,fixation,NA,NA,NA,NA,NA,NA,sub117
d3-animate-choice,183,611032,0.0-76.0-0.16,FALSE,TRUE,FALSE,TRUE,"""event"",""trial"",""time""
""fullscreenenter"",""5"",""14818""
","
","
","""event"",""trial"",""time""
""fullscreenenter"",""5"",""14818""
","
",300.1249999506399,NA,48,NA,NA,3000,1,NA,NA,images/earth.jpg,images/rocket1,images/rocket2,null,images/rocket1,NA,1,real,null,2,NA,NA,NA,sub117
d3-animate-choice,184,613442,0.0-76.0-1.16,FALSE,TRUE,FALSE,TRUE,"""event"",""trial"",""time""
""fullscreenenter"",""5"",""14818""
","
","
","""event"",""trial"",""time""
""fullscreenenter"",""5"",""14818""
","
",386.82000001426786,NA,48,NA,NA,3000,1,NA,NA,images/redplanet1.jpg,images/alien2,images/alien1,images/rocket1,images/alien2,images/t.png,2,real,true,2,common,1,2020-06-20T18:41:47Z,sub117
two-step-fixation,185,614461,0.0-76.0-2.16,FALSE,TRUE,FALSE,TRUE,"""event"",""trial"",""time""
""fullscreenenter"",""5"",""14818""
","
","
","""event"",""trial"",""time""
""fullscreenenter"",""5"",""14818""
","
",NA,images/earth.jpg,NA,NA,NA,NA,NA,NA,NA,NA,NA,NA,NA,NA,NA,fixation,NA,NA,NA,NA,NA,NA,sub117
d3-animate-choice,186,616774,0.0-76.0-0.17,FALSE,TRUE,FALSE,TRUE,"""event"",""trial"",""time""
""fullscreenenter"",""5"",""14818""
","
","
","""event"",""trial"",""time""
""fullscreenenter"",""5"",""14818""
","
",289.89500005263835,NA,48,NA,NA,3000,1,NA,NA,images/earth.jpg,images/rocket1,images/rocket2,null,images/rocket1,NA,1,real,null,2,NA,NA,NA,sub117
d3-animate-choice,187,619204,0.0-76.0-1.17,FALSE,TRUE,FALSE,TRUE,"""event"",""trial"",""time""
""fullscreenenter"",""5"",""14818""
","
","
","""event"",""trial"",""time""
""fullscreenenter"",""5"",""14818""
","
",406.11000009812415,NA,48,NA,NA,3000,1,NA,NA,images/purpleplanet.jpg,images/alien4,images/alien3,images/rocket1,images/alien4,images/t.png,2,real,false,2,rare,1,2020-06-20T18:41:52Z,sub117
two-step-fixation,188,620226,0.0-76.0-2.17,FALSE,TRUE,FALSE,TRUE,"""event"",""trial"",""time""
""fullscreenenter"",""5"",""14818""
","
","
","""event"",""trial"",""time""
""fullscreenenter"",""5"",""14818""
","
",NA,images/earth.jpg,NA,NA,NA,NA,NA,NA,NA,NA,NA,NA,NA,NA,NA,fixation,NA,NA,NA,NA,NA,NA,sub117
d3-animate-choice,189,622555,0.0-76.0-0.18,FALSE,TRUE,FALSE,TRUE,"""event"",""trial"",""time""
""fullscreenenter"",""5"",""14818""
","
","
","""event"",""trial"",""time""
""fullscreenenter"",""5"",""14818""
","
",302.4750000331551,NA,48,NA,NA,3000,1,NA,NA,images/earth.jpg,images/rocket1,images/rocket2,null,images/rocket1,NA,1,real,null,2,NA,NA,NA,sub117
d3-animate-choice,190,624944,0.0-76.0-1.18,FALSE,TRUE,FALSE,TRUE,"""event"",""trial"",""time""
""fullscreenenter"",""5"",""14818""
","
","
","""event"",""trial"",""time""
""fullscreenenter"",""5"",""14818""
","
",364.2749999416992,NA,48,NA,NA,3000,1,NA,NA,images/redplanet1.jpg,images/alien2,images/alien1,images/rocket1,images/alien2,images/t.png,2,real,true,2,common,1,2020-06-20T18:41:58Z,sub117
two-step-fixation,191,625962,0.0-76.0-2.18,FALSE,TRUE,FALSE,TRUE,"""event"",""trial"",""time""
""fullscreenenter"",""5"",""14818""
","
","
","""event"",""trial"",""time""
""fullscreenenter"",""5"",""14818""
","
",NA,images/earth.jpg,NA,NA,NA,NA,NA,NA,NA,NA,NA,NA,NA,NA,NA,fixation,NA,NA,NA,NA,NA,NA,sub117
d3-animate-choice,192,628269,0.0-76.0-0.19,FALSE,TRUE,FALSE,TRUE,"""event"",""trial"",""time""
""fullscreenenter"",""5"",""14818""
","
","
","""event"",""trial"",""time""
""fullscreenenter"",""5"",""14818""
","
",284.8249999806285,NA,48,NA,NA,3000,1,NA,NA,images/earth.jpg,images/rocket1,images/rocket2,null,images/rocket1,NA,1,real,null,2,NA,NA,NA,sub117
d3-animate-choice,193,630721,0.0-76.0-1.19,FALSE,TRUE,FALSE,TRUE,"""event"",""trial"",""time""
""fullscreenenter"",""5"",""14818""
","
","
","""event"",""trial"",""time""
""fullscreenenter"",""5"",""14818""
","
",428.1200000550598,NA,48,NA,NA,3000,1,NA,NA,images/redplanet1.jpg,images/alien2,images/alien1,images/rocket1,images/alien2,images/t.png,2,real,true,2,common,1,2020-06-20T18:42:04Z,sub117
two-step-fixation,194,631741,0.0-76.0-2.19,FALSE,TRUE,FALSE,TRUE,"""event"",""trial"",""time""
""fullscreenenter"",""5"",""14818""
","
","
","""event"",""trial"",""time""
""fullscreenenter"",""5"",""14818""
","
",NA,images/earth.jpg,NA,NA,NA,NA,NA,NA,NA,NA,NA,NA,NA,NA,NA,fixation,NA,NA,NA,NA,NA,NA,sub117
d3-animate-choice,195,634070,0.0-76.0-0.20,FALSE,TRUE,FALSE,TRUE,"""event"",""trial"",""time""
""fullscreenenter"",""5"",""14818""
","
","
","""event"",""trial"",""time""
""fullscreenenter"",""5"",""14818""
","
",305.39500003214926,NA,48,NA,NA,3000,1,NA,NA,images/earth.jpg,images/rocket1,images/rocket2,null,images/rocket1,NA,1,real,null,2,NA,NA,NA,sub117
d3-animate-choice,196,636428,0.0-76.0-1.20,FALSE,TRUE,FALSE,TRUE,"""event"",""trial"",""time""
""fullscreenenter"",""5"",""14818""
","
","
","""event"",""trial"",""time""
""fullscreenenter"",""5"",""14818""
","
",340.9600000595674,NA,48,NA,NA,3000,1,NA,NA,images/redplanet1.jpg,images/alien2,images/alien1,images/rocket1,images/alien2,images/nothing.png,2,real,true,2,common,0,2020-06-20T18:42:10Z,sub117
two-step-fixation,197,637448,0.0-76.0-2.20,FALSE,TRUE,FALSE,TRUE,"""event"",""trial"",""time""
""fullscreenenter"",""5"",""14818""
","
","
","""event"",""trial"",""time""
""fullscreenenter"",""5"",""14818""
","
",NA,images/earth.jpg,NA,NA,NA,NA,NA,NA,NA,NA,NA,NA,NA,NA,NA,fixation,NA,NA,NA,NA,NA,NA,sub117
d3-animate-choice,198,639764,0.0-76.0-0.21,FALSE,TRUE,FALSE,TRUE,"""event"",""trial"",""time""
""fullscreenenter"",""5"",""14818""
","
","
","""event"",""trial"",""time""
""fullscreenenter"",""5"",""14818""
","
",287.67500002868474,NA,48,NA,NA,3000,1,NA,NA,images/earth.jpg,images/rocket1,images/rocket2,null,images/rocket1,NA,1,real,null,2,NA,NA,NA,sub117
d3-animate-choice,199,642203,0.0-76.0-1.21,FALSE,TRUE,FALSE,TRUE,"""event"",""trial"",""time""
""fullscreenenter"",""5"",""14818""
","
","
","""event"",""trial"",""time""
""fullscreenenter"",""5"",""14818""
","
",416.5300000458956,NA,49,NA,NA,3000,1,NA,NA,images/redplanet1.jpg,images/alien2,images/alien1,images/rocket1,images/alien1,images/t.png,2,real,true,1,common,1,2020-06-20T18:42:15Z,sub117
two-step-fixation,200,643217,0.0-76.0-2.21,FALSE,TRUE,FALSE,TRUE,"""event"",""trial"",""time""
""fullscreenenter"",""5"",""14818""
","
","
","""event"",""trial"",""time""
""fullscreenenter"",""5"",""14818""
","
",NA,images/earth.jpg,NA,NA,NA,NA,NA,NA,NA,NA,NA,NA,NA,NA,NA,fixation,NA,NA,NA,NA,NA,NA,sub117
d3-animate-choice,201,645560,0.0-76.0-0.22,FALSE,TRUE,FALSE,TRUE,"""event"",""trial"",""time""
""fullscreenenter"",""5"",""14818""
","
","
","""event"",""trial"",""time""
""fullscreenenter"",""5"",""14818""
","
",315.764999948442,NA,48,NA,NA,3000,1,NA,NA,images/earth.jpg,images/rocket1,images/rocket2,null,images/rocket1,NA,1,real,null,2,NA,NA,NA,sub117
d3-animate-choice,202,648006,0.0-76.0-1.22,FALSE,TRUE,FALSE,TRUE,"""event"",""trial"",""time""
""fullscreenenter"",""5"",""14818""
","
","
","""event"",""trial"",""time""
""fullscreenenter"",""5"",""14818""
","
",423.86500001884997,NA,49,NA,NA,3000,1,NA,NA,images/redplanet1.jpg,images/alien2,images/alien1,images/rocket1,images/alien1,images/nothing.png,2,real,true,1,common,0,2020-06-20T18:42:21Z,sub117
two-step-fixation,203,649028,0.0-76.0-2.22,FALSE,TRUE,FALSE,TRUE,"""event"",""trial"",""time""
""fullscreenenter"",""5"",""14818""
","
","
","""event"",""trial"",""time""
""fullscreenenter"",""5"",""14818""
","
",NA,images/earth.jpg,NA,NA,NA,NA,NA,NA,NA,NA,NA,NA,NA,NA,NA,fixation,NA,NA,NA,NA,NA,NA,sub117
d3-animate-choice,204,651358,0.0-76.0-0.23,FALSE,TRUE,FALSE,TRUE,"""event"",""trial"",""time""
""fullscreenenter"",""5"",""14818""
","
","
","""event"",""trial"",""time""
""fullscreenenter"",""5"",""14818""
","
",305.44499994721264,NA,48,NA,NA,3000,1,NA,NA,images/earth.jpg,images/rocket1,images/rocket2,null,images/rocket1,NA,1,real,null,2,NA,NA,NA,sub117
d3-animate-choice,205,653721,0.0-76.0-1.23,FALSE,TRUE,FALSE,TRUE,"""event"",""trial"",""time""
""fullscreenenter"",""5"",""14818""
","
","
","""event"",""trial"",""time""
""fullscreenenter"",""5"",""14818""
","
",333.7750000646338,NA,48,NA,NA,3000,1,NA,NA,images/redplanet1.jpg,images/alien2,images/alien1,images/rocket1,images/alien2,images/nothing.png,2,real,true,2,common,0,2020-06-20T18:42:27Z,sub117
two-step-fixation,206,654740,0.0-76.0-2.23,FALSE,TRUE,FALSE,TRUE,"""event"",""trial"",""time""
""fullscreenenter"",""5"",""14818""
","
","
","""event"",""trial"",""time""
""fullscreenenter"",""5"",""14818""
","
",NA,images/earth.jpg,NA,NA,NA,NA,NA,NA,NA,NA,NA,NA,NA,NA,NA,fixation,NA,NA,NA,NA,NA,NA,sub117
d3-animate-choice,207,657059,0.0-76.0-0.24,FALSE,TRUE,FALSE,TRUE,"""event"",""trial"",""time""
""fullscreenenter"",""5"",""14818""
","
","
","""event"",""trial"",""time""
""fullscreenenter"",""5"",""14818""
","
",295.6949999788776,NA,48,NA,NA,3000,1,NA,NA,images/earth.jpg,images/rocket1,images/rocket2,null,images/rocket1,NA,1,real,null,2,NA,NA,NA,sub117
d3-animate-choice,208,659685,0.0-76.0-1.24,FALSE,TRUE,FALSE,TRUE,"""event"",""trial"",""time""
""fullscreenenter"",""5"",""14818""
","
","
","""event"",""trial"",""time""
""fullscreenenter"",""5"",""14818""
","
",600.2650000154972,NA,48,NA,NA,3000,1,NA,NA,images/purpleplanet.jpg,images/alien4,images/alien3,images/rocket1,images/alien4,images/nothing.png,2,real,false,2,rare,0,2020-06-20T18:42:33Z,sub117
two-step-fixation,209,660707,0.0-76.0-2.24,FALSE,TRUE,FALSE,TRUE,"""event"",""trial"",""time""
""fullscreenenter"",""5"",""14818""
","
","
","""event"",""trial"",""time""
""fullscreenenter"",""5"",""14818""
","
",NA,images/earth.jpg,NA,NA,NA,NA,NA,NA,NA,NA,NA,NA,NA,NA,NA,fixation,NA,NA,NA,NA,NA,NA,sub117
d3-animate-choice,210,663032,0.0-76.0-0.25,FALSE,TRUE,FALSE,TRUE,"""event"",""trial"",""time""
""fullscreenenter"",""5"",""14818""
","
","
","""event"",""trial"",""time""
""fullscreenenter"",""5"",""14818""
","
",298.8099999492988,NA,48,NA,NA,3000,1,NA,NA,images/earth.jpg,images/rocket1,images/rocket2,null,images/rocket1,NA,1,real,null,2,NA,NA,NA,sub117
d3-animate-choice,211,665399,0.0-76.0-1.25,FALSE,TRUE,FALSE,TRUE,"""event"",""trial"",""time""
""fullscreenenter"",""5"",""14818""
","
","
","""event"",""trial"",""time""
""fullscreenenter"",""5"",""14818""
","
",343.6800000490621,NA,48,NA,NA,3000,1,NA,NA,images/redplanet1.jpg,images/alien2,images/alien1,images/rocket1,images/alien2,images/t.png,2,real,true,2,common,1,2020-06-20T18:42:39Z,sub117
two-step-fixation,212,666420,0.0-76.0-2.25,FALSE,TRUE,FALSE,TRUE,"""event"",""trial"",""time""
""fullscreenenter"",""5"",""14818""
","
","
","""event"",""trial"",""time""
""fullscreenenter"",""5"",""14818""
","
",NA,images/earth.jpg,NA,NA,NA,NA,NA,NA,NA,NA,NA,NA,NA,NA,NA,fixation,NA,NA,NA,NA,NA,NA,sub117
d3-animate-choice,213,668735,0.0-76.0-0.26,FALSE,TRUE,FALSE,TRUE,"""event"",""trial"",""time""
""fullscreenenter"",""5"",""14818""
","
","
","""event"",""trial"",""time""
""fullscreenenter"",""5"",""14818""
","
",291.91499995067716,NA,48,NA,NA,3000,1,NA,NA,images/earth.jpg,images/rocket1,images/rocket2,null,images/rocket1,NA,1,real,null,2,NA,NA,NA,sub117
d3-animate-choice,214,671187,0.0-76.0-1.26,FALSE,TRUE,FALSE,TRUE,"""event"",""trial"",""time""
""fullscreenenter"",""5"",""14818""
","
","
","""event"",""trial"",""time""
""fullscreenenter"",""5"",""14818""
","
",427.1149999694899,NA,48,NA,NA,3000,1,NA,NA,images/redplanet1.jpg,images/alien2,images/alien1,images/rocket1,images/alien2,images/t.png,2,real,true,2,common,1,2020-06-20T18:42:44Z,sub117
two-step-fixation,215,672208,0.0-76.0-2.26,FALSE,TRUE,FALSE,TRUE,"""event"",""trial"",""time""
""fullscreenenter"",""5"",""14818""
","
","
","""event"",""trial"",""time""
""fullscreenenter"",""5"",""14818""
","
",NA,images/earth.jpg,NA,NA,NA,NA,NA,NA,NA,NA,NA,NA,NA,NA,NA,fixation,NA,NA,NA,NA,NA,NA,sub117
d3-animate-choice,216,674493,0.0-76.0-0.27,FALSE,TRUE,FALSE,TRUE,"""event"",""trial"",""time""
""fullscreenenter"",""5"",""14818""
","
","
","""event"",""trial"",""time""
""fullscreenenter"",""5"",""14818""
","
",259.18000005185604,NA,48,NA,NA,3000,1,NA,NA,images/earth.jpg,images/rocket1,images/rocket2,null,images/rocket1,NA,1,real,null,2,NA,NA,NA,sub117
d3-animate-choice,217,676906,0.0-76.0-1.27,FALSE,TRUE,FALSE,TRUE,"""event"",""trial"",""time""
""fullscreenenter"",""5"",""14818""
","
","
","""event"",""trial"",""time""
""fullscreenenter"",""5"",""14818""
","
",386.83500001206994,NA,48,NA,NA,3000,1,NA,NA,images/purpleplanet.jpg,images/alien4,images/alien3,images/rocket1,images/alien4,images/t.png,2,real,false,2,rare,1,2020-06-20T18:42:50Z,sub117
two-step-fixation,218,677926,0.0-76.0-2.27,FALSE,TRUE,FALSE,TRUE,"""event"",""trial"",""time""
""fullscreenenter"",""5"",""14818""
","
","
","""event"",""trial"",""time""
""fullscreenenter"",""5"",""14818""
","
",NA,images/earth.jpg,NA,NA,NA,NA,NA,NA,NA,NA,NA,NA,NA,NA,NA,fixation,NA,NA,NA,NA,NA,NA,sub117
d3-animate-choice,219,680241,0.0-76.0-0.28,FALSE,TRUE,FALSE,TRUE,"""event"",""trial"",""time""
""fullscreenenter"",""5"",""14818""
","
","
","""event"",""trial"",""time""
""fullscreenenter"",""5"",""14818""
","
",286.809999961406,NA,48,NA,NA,3000,1,NA,NA,images/earth.jpg,images/rocket1,images/rocket2,null,images/rocket1,NA,1,real,null,2,NA,NA,NA,sub117
d3-animate-choice,220,682643,0.0-76.0-1.28,FALSE,TRUE,FALSE,TRUE,"""event"",""trial"",""time""
""fullscreenenter"",""5"",""14818""
","
","
","""event"",""trial"",""time""
""fullscreenenter"",""5"",""14818""
","
",379.9800000851974,NA,48,NA,NA,3000,1,NA,NA,images/purpleplanet.jpg,images/alien4,images/alien3,images/rocket1,images/alien4,images/t.png,2,real,false,2,rare,1,2020-06-20T18:42:56Z,sub117
two-step-fixation,221,683659,0.0-76.0-2.28,FALSE,TRUE,FALSE,TRUE,"""event"",""trial"",""time""
""fullscreenenter"",""5"",""14818""
","
","
","""event"",""trial"",""time""
""fullscreenenter"",""5"",""14818""
","
",NA,images/earth.jpg,NA,NA,NA,NA,NA,NA,NA,NA,NA,NA,NA,NA,NA,fixation,NA,NA,NA,NA,NA,NA,sub117
d3-animate-choice,222,686099,0.0-76.0-0.29,FALSE,TRUE,FALSE,TRUE,"""event"",""trial"",""time""
""fullscreenenter"",""5"",""14818""
","
","
","""event"",""trial"",""time""
""fullscreenenter"",""5"",""14818""
","
",417.2199999447912,NA,48,NA,NA,3000,1,NA,NA,images/earth.jpg,images/rocket1,images/rocket2,null,images/rocket1,NA,1,real,null,2,NA,NA,NA,sub117
d3-animate-choice,223,688426,0.0-76.0-1.29,FALSE,TRUE,FALSE,TRUE,"""event"",""trial"",""time""
""fullscreenenter"",""5"",""14818""
","
","
","""event"",""trial"",""time""
""fullscreenenter"",""5"",""14818""
","
",303.95500001031905,NA,48,NA,NA,3000,1,NA,NA,images/redplanet1.jpg,images/alien2,images/alien1,images/rocket1,images/alien2,images/t.png,2,real,true,2,common,1,2020-06-20T18:43:02Z,sub117
two-step-fixation,224,689449,0.0-76.0-2.29,FALSE,TRUE,FALSE,TRUE,"""event"",""trial"",""time""
""fullscreenenter"",""5"",""14818""
","
","
","""event"",""trial"",""time""
""fullscreenenter"",""5"",""14818""
","
",NA,images/earth.jpg,NA,NA,NA,NA,NA,NA,NA,NA,NA,NA,NA,NA,NA,fixation,NA,NA,NA,NA,NA,NA,sub117
d3-animate-choice,225,691785,0.0-76.0-0.30,FALSE,TRUE,FALSE,TRUE,"""event"",""trial"",""time""
""fullscreenenter"",""5"",""14818""
","
","
","""event"",""trial"",""time""
""fullscreenenter"",""5"",""14818""
","
",308.48499992862344,NA,48,NA,NA,3000,1,NA,NA,images/earth.jpg,images/rocket1,images/rocket2,null,images/rocket1,NA,1,real,null,2,NA,NA,NA,sub117
d3-animate-choice,226,694125,0.0-76.0-1.30,FALSE,TRUE,FALSE,TRUE,"""event"",""trial"",""time""
""fullscreenenter"",""5"",""14818""
","
","
","""event"",""trial"",""time""
""fullscreenenter"",""5"",""14818""
","
",316.9449999695644,NA,48,NA,NA,3000,1,NA,NA,images/redplanet1.jpg,images/alien2,images/alien1,images/rocket1,images/alien2,images/nothing.png,2,real,true,2,common,0,2020-06-20T18:43:07Z,sub117
two-step-fixation,227,695144,0.0-76.0-2.30,FALSE,TRUE,FALSE,TRUE,"""event"",""trial"",""time""
""fullscreenenter"",""5"",""14818""
","
","
","""event"",""trial"",""time""
""fullscreenenter"",""5"",""14818""
","
",NA,images/earth.jpg,NA,NA,NA,NA,NA,NA,NA,NA,NA,NA,NA,NA,NA,fixation,NA,NA,NA,NA,NA,NA,sub117
d3-animate-choice,228,697549,0.0-76.0-0.31,FALSE,TRUE,FALSE,TRUE,"""event"",""trial"",""time""
""fullscreenenter"",""5"",""14818""
","
","
","""event"",""trial"",""time""
""fullscreenenter"",""5"",""14818""
","
",382.7550000278279,NA,48,NA,NA,3000,1,NA,NA,images/earth.jpg,images/rocket1,images/rocket2,null,images/rocket1,NA,1,real,null,2,NA,NA,NA,sub117
d3-animate-choice,229,699997,0.0-76.0-1.31,FALSE,TRUE,FALSE,TRUE,"""event"",""trial"",""time""
""fullscreenenter"",""5"",""14818""
","
","
","""event"",""trial"",""time""
""fullscreenenter"",""5"",""14818""
","
",418.6850000405684,NA,48,NA,NA,3000,1,NA,NA,images/redplanet1.jpg,images/alien2,images/alien1,images/rocket1,images/alien2,images/nothing.png,2,real,true,2,common,0,2020-06-20T18:43:13Z,sub117
two-step-fixation,230,701018,0.0-76.0-2.31,FALSE,TRUE,FALSE,TRUE,"""event"",""trial"",""time""
""fullscreenenter"",""5"",""14818""
","
","
","""event"",""trial"",""time""
""fullscreenenter"",""5"",""14818""
","
",NA,images/earth.jpg,NA,NA,NA,NA,NA,NA,NA,NA,NA,NA,NA,NA,NA,fixation,NA,NA,NA,NA,NA,NA,sub117
d3-animate-choice,231,703333,0.0-76.0-0.32,FALSE,TRUE,FALSE,TRUE,"""event"",""trial"",""time""
""fullscreenenter"",""5"",""14818""
","
","
","""event"",""trial"",""time""
""fullscreenenter"",""5"",""14818""
","
",293.5699999798089,NA,49,NA,NA,3000,1,NA,NA,images/earth.jpg,images/rocket1,images/rocket2,null,images/rocket2,NA,1,real,null,1,NA,NA,NA,sub117
d3-animate-choice,232,705777,0.0-76.0-1.32,FALSE,TRUE,FALSE,TRUE,"""event"",""trial"",""time""
""fullscreenenter"",""5"",""14818""
","
","
","""event"",""trial"",""time""
""fullscreenenter"",""5"",""14818""
","
",419.82000006828457,NA,48,NA,NA,3000,1,NA,NA,images/purpleplanet.jpg,images/alien4,images/alien3,images/rocket2,images/alien4,images/t.png,2,real,true,2,common,1,2020-06-20T18:43:19Z,sub117
two-step-fixation,233,706794,0.0-76.0-2.32,FALSE,TRUE,FALSE,TRUE,"""event"",""trial"",""time""
""fullscreenenter"",""5"",""14818""
","
","
","""event"",""trial"",""time""
""fullscreenenter"",""5"",""14818""
","
",NA,images/earth.jpg,NA,NA,NA,NA,NA,NA,NA,NA,NA,NA,NA,NA,NA,fixation,NA,NA,NA,NA,NA,NA,sub117
d3-animate-choice,234,709125,0.0-76.0-0.33,FALSE,TRUE,FALSE,TRUE,"""event"",""trial"",""time""
""fullscreenenter"",""5"",""14818""
","
","
","""event"",""trial"",""time""
""fullscreenenter"",""5"",""14818""
","
",309.6349999541417,NA,49,NA,NA,3000,1,NA,NA,images/earth.jpg,images/rocket1,images/rocket2,null,images/rocket2,NA,1,real,null,1,NA,NA,NA,sub117
d3-animate-choice,235,711618,0.0-76.0-1.33,FALSE,TRUE,FALSE,TRUE,"""event"",""trial"",""time""
""fullscreenenter"",""5"",""14818""
","
","
","""event"",""trial"",""time""
""fullscreenenter"",""5"",""14818""
","
",469.6949999779463,NA,48,NA,NA,3000,1,NA,NA,images/redplanet1.jpg,images/alien2,images/alien1,images/rocket2,images/alien2,images/nothing.png,2,real,false,2,rare,0,2020-06-20T18:43:25Z,sub117
two-step-fixation,236,712644,0.0-76.0-2.33,FALSE,TRUE,FALSE,TRUE,"""event"",""trial"",""time""
""fullscreenenter"",""5"",""14818""
","
","
","""event"",""trial"",""time""
""fullscreenenter"",""5"",""14818""
","
",NA,images/earth.jpg,NA,NA,NA,NA,NA,NA,NA,NA,NA,NA,NA,NA,NA,fixation,NA,NA,NA,NA,NA,NA,sub117
d3-animate-choice,237,714954,0.0-76.0-0.34,FALSE,TRUE,FALSE,TRUE,"""event"",""trial"",""time""
""fullscreenenter"",""5"",""14818""
","
","
","""event"",""trial"",""time""
""fullscreenenter"",""5"",""14818""
","
",280.3950000088662,NA,49,NA,NA,3000,1,NA,NA,images/earth.jpg,images/rocket1,images/rocket2,null,images/rocket2,NA,1,real,null,1,NA,NA,NA,sub117
d3-animate-choice,238,717316,0.0-76.0-1.34,FALSE,TRUE,FALSE,TRUE,"""event"",""trial"",""time""
""fullscreenenter"",""5"",""14818""
","
","
","""event"",""trial"",""time""
""fullscreenenter"",""5"",""14818""
","
",336.5599999669939,NA,48,NA,NA,3000,1,NA,NA,images/purpleplanet.jpg,images/alien4,images/alien3,images/rocket2,images/alien4,images/nothing.png,2,real,true,2,common,0,2020-06-20T18:43:30Z,sub117
two-step-fixation,239,718336,0.0-76.0-2.34,FALSE,TRUE,FALSE,TRUE,"""event"",""trial"",""time""
""fullscreenenter"",""5"",""14818""
","
","
","""event"",""trial"",""time""
""fullscreenenter"",""5"",""14818""
","
",NA,images/earth.jpg,NA,NA,NA,NA,NA,NA,NA,NA,NA,NA,NA,NA,NA,fixation,NA,NA,NA,NA,NA,NA,sub117
d3-animate-choice,240,720638,0.0-76.0-0.35,FALSE,TRUE,FALSE,TRUE,"""event"",""trial"",""time""
""fullscreenenter"",""5"",""14818""
","
","
","""event"",""trial"",""time""
""fullscreenenter"",""5"",""14818""
","
",280.41000000666827,NA,48,NA,NA,3000,1,NA,NA,images/earth.jpg,images/rocket1,images/rocket2,null,images/rocket1,NA,1,real,null,2,NA,NA,NA,sub117
d3-animate-choice,241,723063,0.0-76.0-1.35,FALSE,TRUE,FALSE,TRUE,"""event"",""trial"",""time""
""fullscreenenter"",""5"",""14818""
","
","
","""event"",""trial"",""time""
""fullscreenenter"",""5"",""14818""
","
",398.99500005412847,NA,49,NA,NA,3000,1,NA,NA,images/purpleplanet.jpg,images/alien4,images/alien3,images/rocket1,images/alien3,images/nothing.png,2,real,false,1,rare,0,2020-06-20T18:43:36Z,sub117
two-step-fixation,242,724083,0.0-76.0-2.35,FALSE,TRUE,FALSE,TRUE,"""event"",""trial"",""time""
""fullscreenenter"",""5"",""14818""
","
","
","""event"",""trial"",""time""
""fullscreenenter"",""5"",""14818""
","
",NA,images/earth.jpg,NA,NA,NA,NA,NA,NA,NA,NA,NA,NA,NA,NA,NA,fixation,NA,NA,NA,NA,NA,NA,sub117
d3-animate-choice,243,726402,0.0-76.0-0.36,FALSE,TRUE,FALSE,TRUE,"""event"",""trial"",""time""
""fullscreenenter"",""5"",""14818""
","
","
","""event"",""trial"",""time""
""fullscreenenter"",""5"",""14818""
","
",296.1049999576062,NA,48,NA,NA,3000,1,NA,NA,images/earth.jpg,images/rocket1,images/rocket2,null,images/rocket1,NA,1,real,null,2,NA,NA,NA,sub117
d3-animate-choice,244,728781,0.0-76.0-1.36,FALSE,TRUE,FALSE,TRUE,"""event"",""trial"",""time""
""fullscreenenter"",""5"",""14818""
","
","
","""event"",""trial"",""time""
""fullscreenenter"",""5"",""14818""
","
",355.4200000362471,NA,48,NA,NA,3000,1,NA,NA,images/redplanet1.jpg,images/alien2,images/alien1,images/rocket1,images/alien2,images/nothing.png,2,real,true,2,common,0,2020-06-20T18:43:42Z,sub117
two-step-fixation,245,729803,0.0-76.0-2.36,FALSE,TRUE,FALSE,TRUE,"""event"",""trial"",""time""
""fullscreenenter"",""5"",""14818""
","
","
","""event"",""trial"",""time""
""fullscreenenter"",""5"",""14818""
","
",NA,images/earth.jpg,NA,NA,NA,NA,NA,NA,NA,NA,NA,NA,NA,NA,NA,fixation,NA,NA,NA,NA,NA,NA,sub117
d3-animate-choice,246,732106,0.0-76.0-0.37,FALSE,TRUE,FALSE,TRUE,"""event"",""trial"",""time""
""fullscreenenter"",""5"",""14818""
","
","
","""event"",""trial"",""time""
""fullscreenenter"",""5"",""14818""
","
",278.44000002369285,NA,48,NA,NA,3000,1,NA,NA,images/earth.jpg,images/rocket1,images/rocket2,null,images/rocket1,NA,1,real,null,2,NA,NA,NA,sub117
d3-animate-choice,247,734524,0.0-76.0-1.37,FALSE,TRUE,FALSE,TRUE,"""event"",""trial"",""time""
""fullscreenenter"",""5"",""14818""
","
","
","""event"",""trial"",""time""
""fullscreenenter"",""5"",""14818""
","
",395.4049999592826,NA,48,NA,NA,3000,1,NA,NA,images/redplanet1.jpg,images/alien2,images/alien1,images/rocket1,images/alien2,images/t.png,2,real,true,2,common,1,2020-06-20T18:43:48Z,sub117
two-step-fixation,248,735544,0.0-76.0-2.37,FALSE,TRUE,FALSE,TRUE,"""event"",""trial"",""time""
""fullscreenenter"",""5"",""14818""
","
","
","""event"",""trial"",""time""
""fullscreenenter"",""5"",""14818""
","
",NA,images/earth.jpg,NA,NA,NA,NA,NA,NA,NA,NA,NA,NA,NA,NA,NA,fixation,NA,NA,NA,NA,NA,NA,sub117
d3-animate-choice,249,737858,0.0-76.0-0.38,FALSE,TRUE,FALSE,TRUE,"""event"",""trial"",""time""
""fullscreenenter"",""5"",""14818""
","
","
","""event"",""trial"",""time""
""fullscreenenter"",""5"",""14818""
","
",287.8550000023097,NA,48,NA,NA,3000,1,NA,NA,images/earth.jpg,images/rocket1,images/rocket2,null,images/rocket1,NA,1,real,null,2,NA,NA,NA,sub117
d3-animate-choice,250,740255,0.0-76.0-1.38,FALSE,TRUE,FALSE,TRUE,"""event"",""trial"",""time""
""fullscreenenter"",""5"",""14818""
","
","
","""event"",""trial"",""time""
""fullscreenenter"",""5"",""14818""
","
",372.7450000587851,NA,48,NA,NA,3000,1,NA,NA,images/purpleplanet.jpg,images/alien4,images/alien3,images/rocket1,images/alien4,images/t.png,2,real,false,2,rare,1,2020-06-20T18:43:53Z,sub117
two-step-fixation,251,741277,0.0-76.0-2.38,FALSE,TRUE,FALSE,TRUE,"""event"",""trial"",""time""
""fullscreenenter"",""5"",""14818""
","
","
","""event"",""trial"",""time""
""fullscreenenter"",""5"",""14818""
","
",NA,images/earth.jpg,NA,NA,NA,NA,NA,NA,NA,NA,NA,NA,NA,NA,NA,fixation,NA,NA,NA,NA,NA,NA,sub117
d3-animate-choice,252,743591,0.0-76.0-0.39,FALSE,TRUE,FALSE,TRUE,"""event"",""trial"",""time""
""fullscreenenter"",""5"",""14818""
","
","
","""event"",""trial"",""time""
""fullscreenenter"",""5"",""14818""
","
",292.34000004362315,NA,48,NA,NA,3000,1,NA,NA,images/earth.jpg,images/rocket1,images/rocket2,null,images/rocket1,NA,1,real,null,2,NA,NA,NA,sub117
d3-animate-choice,253,745983,0.0-76.0-1.39,FALSE,TRUE,FALSE,TRUE,"""event"",""trial"",""time""
""fullscreenenter"",""5"",""14818""
","
","
","""event"",""trial"",""time""
""fullscreenenter"",""5"",""14818""
","
",365.9399999305606,NA,48,NA,NA,3000,1,NA,NA,images/redplanet1.jpg,images/alien2,images/alien1,images/rocket1,images/alien2,images/nothing.png,2,real,true,2,common,0,2020-06-20T18:43:59Z,sub117
two-step-fixation,254,747001,0.0-76.0-2.39,FALSE,TRUE,FALSE,TRUE,"""event"",""trial"",""time""
""fullscreenenter"",""5"",""14818""
","
","
","""event"",""trial"",""time""
""fullscreenenter"",""5"",""14818""
","
",NA,images/earth.jpg,NA,NA,NA,NA,NA,NA,NA,NA,NA,NA,NA,NA,NA,fixation,NA,NA,NA,NA,NA,NA,sub117
d3-animate-choice,255,749325,0.0-76.0-0.40,FALSE,TRUE,FALSE,TRUE,"""event"",""trial"",""time""
""fullscreenenter"",""5"",""14818""
","
","
","""event"",""trial"",""time""
""fullscreenenter"",""5"",""14818""
","
",300.50500005017966,NA,48,NA,NA,3000,1,NA,NA,images/earth.jpg,images/rocket1,images/rocket2,null,images/rocket1,NA,1,real,null,2,NA,NA,NA,sub117
d3-animate-choice,256,751740,0.0-76.0-1.40,FALSE,TRUE,FALSE,TRUE,"""event"",""trial"",""time""
""fullscreenenter"",""5"",""14818""
","
","
","""event"",""trial"",""time""
""fullscreenenter"",""5"",""14818""
","
",391.57500001601875,NA,48,NA,NA,3000,1,NA,NA,images/purpleplanet.jpg,images/alien4,images/alien3,images/rocket1,images/alien4,images/t.png,2,real,false,2,rare,1,2020-06-20T18:44:05Z,sub117
two-step-fixation,257,752762,0.0-76.0-2.40,FALSE,TRUE,FALSE,TRUE,"""event"",""trial"",""time""
""fullscreenenter"",""5"",""14818""
","
","
","""event"",""trial"",""time""
""fullscreenenter"",""5"",""14818""
","
",NA,images/earth.jpg,NA,NA,NA,NA,NA,NA,NA,NA,NA,NA,NA,NA,NA,fixation,NA,NA,NA,NA,NA,NA,sub117
d3-animate-choice,258,755118,0.0-76.0-0.41,FALSE,TRUE,FALSE,TRUE,"""event"",""trial"",""time""
""fullscreenenter"",""5"",""14818""
","
","
","""event"",""trial"",""time""
""fullscreenenter"",""5"",""14818""
","
",329.9850000767037,NA,49,NA,NA,3000,1,NA,NA,images/earth.jpg,images/rocket1,images/rocket2,null,images/rocket2,NA,1,real,null,1,NA,NA,NA,sub117
d3-animate-choice,259,757519,0.0-76.0-1.41,FALSE,TRUE,FALSE,TRUE,"""event"",""trial"",""time""
""fullscreenenter"",""5"",""14818""
","
","
","""event"",""trial"",""time""
""fullscreenenter"",""5"",""14818""
","
",375.8199999574572,NA,48,NA,NA,3000,1,NA,NA,images/purpleplanet.jpg,images/alien4,images/alien3,images/rocket2,images/alien4,images/nothing.png,2,real,true,2,common,0,2020-06-20T18:44:11Z,sub117
two-step-fixation,260,758538,0.0-76.0-2.41,FALSE,TRUE,FALSE,TRUE,"""event"",""trial"",""time""
""fullscreenenter"",""5"",""14818""
","
","
","""event"",""trial"",""time""
""fullscreenenter"",""5"",""14818""
","
",NA,images/earth.jpg,NA,NA,NA,NA,NA,NA,NA,NA,NA,NA,NA,NA,NA,fixation,NA,NA,NA,NA,NA,NA,sub117
d3-animate-choice,261,760873,0.0-76.0-0.42,FALSE,TRUE,FALSE,TRUE,"""event"",""trial"",""time""
""fullscreenenter"",""5"",""14818""
","
","
","""event"",""trial"",""time""
""fullscreenenter"",""5"",""14818""
","
",322.47000001370907,NA,48,NA,NA,3000,1,NA,NA,images/earth.jpg,images/rocket1,images/rocket2,null,images/rocket1,NA,1,real,null,2,NA,NA,NA,sub117
d3-animate-choice,262,763355,0.0-76.0-1.42,FALSE,TRUE,FALSE,TRUE,"""event"",""trial"",""time""
""fullscreenenter"",""5"",""14818""
","
","
","""event"",""trial"",""time""
""fullscreenenter"",""5"",""14818""
","
",456.3400000333786,NA,48,NA,NA,3000,1,NA,NA,images/redplanet1.jpg,images/alien2,images/alien1,images/rocket1,images/alien2,images/t.png,2,real,true,2,common,1,2020-06-20T18:44:17Z,sub117
two-step-fixation,263,764377,0.0-76.0-2.42,FALSE,TRUE,FALSE,TRUE,"""event"",""trial"",""time""
""fullscreenenter"",""5"",""14818""
","
","
","""event"",""trial"",""time""
""fullscreenenter"",""5"",""14818""
","
",NA,images/earth.jpg,NA,NA,NA,NA,NA,NA,NA,NA,NA,NA,NA,NA,NA,fixation,NA,NA,NA,NA,NA,NA,sub117
d3-animate-choice,264,766696,0.0-76.0-0.43,FALSE,TRUE,FALSE,TRUE,"""event"",""trial"",""time""
""fullscreenenter"",""5"",""14818""
","
","
","""event"",""trial"",""time""
""fullscreenenter"",""5"",""14818""
","
",297.31499997433275,NA,48,NA,NA,3000,1,NA,NA,images/earth.jpg,images/rocket1,images/rocket2,null,images/rocket1,NA,1,real,null,2,NA,NA,NA,sub117
d3-animate-choice,265,769108,0.0-76.0-1.43,FALSE,TRUE,FALSE,TRUE,"""event"",""trial"",""time""
""fullscreenenter"",""5"",""14818""
","
","
","""event"",""trial"",""time""
""fullscreenenter"",""5"",""14818""
","
",388.4550000075251,NA,48,NA,NA,3000,1,NA,NA,images/redplanet1.jpg,images/alien2,images/alien1,images/rocket1,images/alien2,images/nothing.png,2,real,true,2,common,0,2020-06-20T18:44:22Z,sub117
two-step-fixation,266,770122,0.0-76.0-2.43,FALSE,TRUE,FALSE,TRUE,"""event"",""trial"",""time""
""fullscreenenter"",""5"",""14818""
","
","
","""event"",""trial"",""time""
""fullscreenenter"",""5"",""14818""
","
",NA,images/earth.jpg,NA,NA,NA,NA,NA,NA,NA,NA,NA,NA,NA,NA,NA,fixation,NA,NA,NA,NA,NA,NA,sub117
d3-animate-choice,267,772511,0.0-76.0-0.44,FALSE,TRUE,FALSE,TRUE,"""event"",""trial"",""time""
""fullscreenenter"",""5"",""14818""
","
","
","""event"",""trial"",""time""
""fullscreenenter"",""5"",""14818""
","
",366.1599999759346,NA,48,NA,NA,3000,1,NA,NA,images/earth.jpg,images/rocket1,images/rocket2,null,images/rocket1,NA,1,real,null,2,NA,NA,NA,sub117
d3-animate-choice,268,774938,0.0-76.0-1.44,FALSE,TRUE,FALSE,TRUE,"""event"",""trial"",""time""
""fullscreenenter"",""5"",""14818""
","
","
","""event"",""trial"",""time""
""fullscreenenter"",""5"",""14818""
","
",417.0249999733642,NA,48,NA,NA,3000,1,NA,NA,images/redplanet1.jpg,images/alien2,images/alien1,images/rocket1,images/alien2,images/t.png,2,real,true,2,common,1,2020-06-20T18:44:28Z,sub117
two-step-fixation,269,775956,0.0-76.0-2.44,FALSE,TRUE,FALSE,TRUE,"""event"",""trial"",""time""
""fullscreenenter"",""5"",""14818""
","
","
","""event"",""trial"",""time""
""fullscreenenter"",""5"",""14818""
","
",NA,images/earth.jpg,NA,NA,NA,NA,NA,NA,NA,NA,NA,NA,NA,NA,NA,fixation,NA,NA,NA,NA,NA,NA,sub117
d3-animate-choice,270,778267,0.0-76.0-0.45,FALSE,TRUE,FALSE,TRUE,"""event"",""trial"",""time""
""fullscreenenter"",""5"",""14818""
","
","
","""event"",""trial"",""time""
""fullscreenenter"",""5"",""14818""
","
",285.3800000157207,NA,48,NA,NA,3000,1,NA,NA,images/earth.jpg,images/rocket1,images/rocket2,null,images/rocket1,NA,1,real,null,2,NA,NA,NA,sub117
d3-animate-choice,271,780612,0.0-76.0-1.45,FALSE,TRUE,FALSE,TRUE,"""event"",""trial"",""time""
""fullscreenenter"",""5"",""14818""
","
","
","""event"",""trial"",""time""
""fullscreenenter"",""5"",""14818""
","
",319.26999997813255,NA,48,NA,NA,3000,1,NA,NA,images/redplanet1.jpg,images/alien2,images/alien1,images/rocket1,images/alien2,images/t.png,2,real,true,2,common,1,2020-06-20T18:44:34Z,sub117
two-step-fixation,272,781632,0.0-76.0-2.45,FALSE,TRUE,FALSE,TRUE,"""event"",""trial"",""time""
""fullscreenenter"",""5"",""14818""
","
","
","""event"",""trial"",""time""
""fullscreenenter"",""5"",""14818""
","
",NA,images/earth.jpg,NA,NA,NA,NA,NA,NA,NA,NA,NA,NA,NA,NA,NA,fixation,NA,NA,NA,NA,NA,NA,sub117
d3-animate-choice,273,783934,0.0-76.0-0.46,FALSE,TRUE,FALSE,TRUE,"""event"",""trial"",""time""
""fullscreenenter"",""5"",""14818""
","
","
","""event"",""trial"",""time""
""fullscreenenter"",""5"",""14818""
","
",272.0550000667572,NA,48,NA,NA,3000,1,NA,NA,images/earth.jpg,images/rocket1,images/rocket2,null,images/rocket1,NA,1,real,null,2,NA,NA,NA,sub117
d3-animate-choice,274,786308,0.0-76.0-1.46,FALSE,TRUE,FALSE,TRUE,"""event"",""trial"",""time""
""fullscreenenter"",""5"",""14818""
","
","
","""event"",""trial"",""time""
""fullscreenenter"",""5"",""14818""
","
",351.45000007469207,NA,48,NA,NA,3000,1,2055.780000053346,48,images/purpleplanet.jpg,images/alien4,images/alien3,images/rocket1,images/alien4,images/t.png,2,real,false,2,rare,1,2020-06-20T18:44:39Z,sub117
two-step-fixation,275,787327,0.0-76.0-2.46,FALSE,TRUE,FALSE,TRUE,"""event"",""trial"",""time""
""fullscreenenter"",""5"",""14818""
","
","
","""event"",""trial"",""time""
""fullscreenenter"",""5"",""14818""
","
",NA,images/earth.jpg,NA,NA,NA,NA,NA,NA,NA,NA,NA,NA,NA,NA,NA,fixation,NA,NA,NA,NA,NA,NA,sub117
d3-animate-choice,276,789667,0.0-76.0-0.47,FALSE,TRUE,FALSE,TRUE,"""event"",""trial"",""time""
""fullscreenenter"",""5"",""14818""
","
","
","""event"",""trial"",""time""
""fullscreenenter"",""5"",""14818""
","
",318.5149999335408,NA,48,NA,NA,3000,1,NA,NA,images/earth.jpg,images/rocket1,images/rocket2,null,images/rocket1,NA,1,real,null,2,NA,NA,NA,sub117
d3-animate-choice,277,792082,0.0-76.0-1.47,FALSE,TRUE,FALSE,TRUE,"""event"",""trial"",""time""
""fullscreenenter"",""5"",""14818""
","
","
","""event"",""trial"",""time""
""fullscreenenter"",""5"",""14818""
","
",398.01500004250556,NA,48,NA,NA,3000,1,NA,NA,images/purpleplanet.jpg,images/alien4,images/alien3,images/rocket1,images/alien4,images/nothing.png,2,real,false,2,rare,0,2020-06-20T18:44:45Z,sub117
two-step-fixation,278,793104,0.0-76.0-2.47,FALSE,TRUE,FALSE,TRUE,"""event"",""trial"",""time""
""fullscreenenter"",""5"",""14818""
","
","
","""event"",""trial"",""time""
""fullscreenenter"",""5"",""14818""
","
",NA,images/earth.jpg,NA,NA,NA,NA,NA,NA,NA,NA,NA,NA,NA,NA,NA,fixation,NA,NA,NA,NA,NA,NA,sub117
d3-animate-choice,279,795428,0.0-76.0-0.48,FALSE,TRUE,FALSE,TRUE,"""event"",""trial"",""time""
""fullscreenenter"",""5"",""14818""
","
","
","""event"",""trial"",""time""
""fullscreenenter"",""5"",""14818""
","
",301.78500001784414,NA,48,NA,NA,3000,1,NA,NA,images/earth.jpg,images/rocket1,images/rocket2,null,images/rocket1,NA,1,real,null,2,NA,NA,NA,sub117
d3-animate-choice,280,797801,0.0-76.0-1.48,FALSE,TRUE,FALSE,TRUE,"""event"",""trial"",""time""
""fullscreenenter"",""5"",""14818""
","
","
","""event"",""trial"",""time""
""fullscreenenter"",""5"",""14818""
","
",346.9050000421703,NA,48,NA,NA,3000,1,NA,NA,images/redplanet1.jpg,images/alien2,images/alien1,images/rocket1,images/alien2,images/nothing.png,2,real,true,2,common,0,2020-06-20T18:44:51Z,sub117
two-step-fixation,281,798818,0.0-76.0-2.48,FALSE,TRUE,FALSE,TRUE,"""event"",""trial"",""time""
""fullscreenenter"",""5"",""14818""
","
","
","""event"",""trial"",""time""
""fullscreenenter"",""5"",""14818""
","
",NA,images/earth.jpg,NA,NA,NA,NA,NA,NA,NA,NA,NA,NA,NA,NA,NA,fixation,NA,NA,NA,NA,NA,NA,sub117
d3-animate-choice,282,801052,0.0-76.0-0.49,FALSE,TRUE,FALSE,TRUE,"""event"",""trial"",""time""
""fullscreenenter"",""5"",""14818""
","
","
","""event"",""trial"",""time""
""fullscreenenter"",""5"",""14818""
","
",212.8800000064075,NA,48,NA,NA,3000,1,NA,NA,images/earth.jpg,images/rocket1,images/rocket2,null,images/rocket1,NA,1,real,null,2,NA,NA,NA,sub117
d3-animate-choice,283,803482,0.0-76.0-1.49,FALSE,TRUE,FALSE,TRUE,"""event"",""trial"",""time""
