trial_type,trial_index,time_elapsed,internal_node_id,rocket_sides,red_planet_first_rocket,red_display_order,purple_display_order,interactions,blur_events,focus_events,fullscreenenter_events,fullscreenexit_events,rt,stimulus,key_press,button_pressed,success,duration,valid_pressed,rts,keys,planet_text,right_text,left_text,center_text,chosen_text,reward_text,trial_stage,practice_trial,transition_type,choice,transition,reward,timestamp,subject_id
pavlovia,0,6,0.0-0.0,FALSE,TRUE,TRUE,FALSE,"
","
","
","
","
",NA,NA,NA,NA,NA,NA,NA,NA,NA,NA,NA,NA,NA,NA,NA,NA,NA,NA,NA,NA,NA,NA,sub121
html-keyboard-response,1,149130,0.0-1.0,FALSE,TRUE,TRUE,FALSE,"
","
","
","
","
",149122.03000008594,Welcome! Press the space bar to begin.,32,NA,NA,NA,NA,NA,NA,NA,NA,NA,NA,NA,NA,NA,NA,NA,NA,NA,NA,NA,sub121
audio-keyboard-response,2,152209,0.0-2.0,FALSE,TRUE,TRUE,FALSE,"
","
","
","
","
",2520,audio/beep_loop.wav,32,NA,NA,NA,NA,NA,NA,NA,NA,NA,NA,NA,NA,NA,NA,NA,NA,NA,NA,NA,sub121
audio-button-response,3,155197,0.0-3.0,FALSE,TRUE,TRUE,FALSE,"""event"",""trial"",""time""
""blur"",""4"",""159803""
""focus"",""4"",""159804""
","""event"",""trial"",""time""
""blur"",""4"",""159803""
","""event"",""trial"",""time""
""focus"",""4"",""159804""
","
","
",NaN,audio/fish.mp3,NA,1,NA,NA,NA,NA,NA,NA,NA,NA,NA,NA,NA,NA,NA,NA,NA,NA,NA,NA,sub121
audio-button-response,4,160889,0.0-4.0,FALSE,TRUE,TRUE,FALSE,"""event"",""trial"",""time""
""blur"",""4"",""159803""
""focus"",""4"",""159804""
""fullscreenenter"",""5"",""166830""
","""event"",""trial"",""time""
""blur"",""4"",""159803""
","""event"",""trial"",""time""
""focus"",""4"",""159804""
","""event"",""trial"",""time""
""fullscreenenter"",""5"",""166830""
","
",NaN,audio/tiger.mp3,NA,4,NA,NA,NA,NA,NA,NA,NA,NA,NA,NA,NA,NA,NA,NA,NA,NA,NA,NA,sub121
fullscreen,5,167818,0.0-5.0,FALSE,TRUE,TRUE,FALSE,"""event"",""trial"",""time""
""blur"",""4"",""159803""
""focus"",""4"",""159804""
""fullscreenenter"",""5"",""166830""
","""event"",""trial"",""time""
""blur"",""4"",""159803""
","""event"",""trial"",""time""
""focus"",""4"",""159804""
","""event"",""trial"",""time""
""fullscreenenter"",""5"",""166830""
","
",NA,NA,NA,NA,TRUE,NA,NA,NA,NA,NA,NA,NA,NA,NA,NA,NA,NA,NA,NA,NA,NA,NA,sub121
d3-instructions,6,188065,0.0-6.0,FALSE,TRUE,TRUE,FALSE,"""event"",""trial"",""time""
""blur"",""4"",""159803""
""focus"",""4"",""159804""
""fullscreenenter"",""5"",""166830""
","""event"",""trial"",""time""
""blur"",""4"",""159803""
","""event"",""trial"",""time""
""focus"",""4"",""159804""
","""event"",""trial"",""time""
""fullscreenenter"",""5"",""166830""
","
",NA,NA,NA,NA,NA,NA,NA,NA,NA,NA,NA,NA,NA,NA,NA,NA,NA,NA,NA,NA,NA,NA,sub121
d3-instructions,7,196065,0.0-7.0,FALSE,TRUE,TRUE,FALSE,"""event"",""trial"",""time""
""blur"",""4"",""159803""
""focus"",""4"",""159804""
""fullscreenenter"",""5"",""166830""
","""event"",""trial"",""time""
""blur"",""4"",""159803""
","""event"",""trial"",""time""
""focus"",""4"",""159804""
","""event"",""trial"",""time""
""fullscreenenter"",""5"",""166830""
","
",NA,NA,NA,NA,NA,NA,NA,NA,NA,NA,NA,NA,NA,NA,NA,NA,NA,NA,NA,NA,NA,NA,sub121
d3-instructions,8,202145,0.0-8.0,FALSE,TRUE,TRUE,FALSE,"""event"",""trial"",""time""
""blur"",""4"",""159803""
""focus"",""4"",""159804""
""fullscreenenter"",""5"",""166830""
","""event"",""trial"",""time""
""blur"",""4"",""159803""
","""event"",""trial"",""time""
""focus"",""4"",""159804""
","""event"",""trial"",""time""
""fullscreenenter"",""5"",""166830""
","
",NA,NA,NA,NA,NA,NA,NA,NA,NA,NA,NA,NA,NA,NA,NA,NA,NA,NA,NA,NA,NA,NA,sub121
d3-instructions,9,212465,0.0-9.0,FALSE,TRUE,TRUE,FALSE,"""event"",""trial"",""time""
""blur"",""4"",""159803""
""focus"",""4"",""159804""
""fullscreenenter"",""5"",""166830""
","""event"",""trial"",""time""
""blur"",""4"",""159803""
","""event"",""trial"",""time""
""focus"",""4"",""159804""
","""event"",""trial"",""time""
""fullscreenenter"",""5"",""166830""
","
",NA,NA,NA,NA,NA,NA,NA,NA,NA,NA,NA,NA,NA,NA,NA,NA,NA,NA,NA,NA,NA,NA,sub121
d3-instructions,10,225362,0.0-10.0,FALSE,TRUE,TRUE,FALSE,"""event"",""trial"",""time""
""blur"",""4"",""159803""
""focus"",""4"",""159804""
""fullscreenenter"",""5"",""166830""
","""event"",""trial"",""time""
""blur"",""4"",""159803""
","""event"",""trial"",""time""
""focus"",""4"",""159804""
","""event"",""trial"",""time""
""fullscreenenter"",""5"",""166830""
","
",NA,NA,NA,NA,NA,NA,NA,NA,NA,NA,NA,NA,NA,NA,NA,NA,NA,NA,NA,NA,NA,NA,sub121
d3-animate-choice,11,231964,0.0-11.0,FALSE,TRUE,TRUE,FALSE,"""event"",""trial"",""time""
""blur"",""4"",""159803""
""focus"",""4"",""159804""
""fullscreenenter"",""5"",""166830""
","""event"",""trial"",""time""
""blur"",""4"",""159803""
","""event"",""trial"",""time""
""focus"",""4"",""159804""
","""event"",""trial"",""time""
""fullscreenenter"",""5"",""166830""
","
",1325.5350000690669,NA,97,NA,NA,3000,1,"2062.3900000937283,2388.6100000236183,2653.7500000558794,4597.80500002671,6005.3000000771135",9697964948,images/tutgreenplanet.jpg,images/tutalien1,images/tutalien2,null,images/tutalien2,NA,NA,practice,null,NA,NA,NA,NA,sub121
d3-animate-choice,12,234394,0.0-12.0,FALSE,TRUE,TRUE,FALSE,"""event"",""trial"",""time""
""blur"",""4"",""159803""
""focus"",""4"",""159804""
""fullscreenenter"",""5"",""166830""
","""event"",""trial"",""time""
""blur"",""4"",""159803""
","""event"",""trial"",""time""
""focus"",""4"",""159804""
","""event"",""trial"",""time""
""fullscreenenter"",""5"",""166830""
","
",426.42499995417893,NA,48,NA,NA,3000,1,NA,NA,images/tutgreenplanet.jpg,images/tutalien1,images/tutalien2,null,images/tutalien1,NA,NA,practice,null,NA,NA,NA,NA,sub121
d3-animate-choice,13,238419,0.0-13.0,FALSE,TRUE,TRUE,FALSE,"""event"",""trial"",""time""
""blur"",""4"",""159803""
""focus"",""4"",""159804""
""fullscreenenter"",""5"",""166830""
","""event"",""trial"",""time""
""blur"",""4"",""159803""
","""event"",""trial"",""time""
""focus"",""4"",""159804""
","""event"",""trial"",""time""
""fullscreenenter"",""5"",""166830""
","
",2021.9799999613315,NA,49,NA,NA,3000,1,"2796.6200000373647,3284.985000034794",4949,images/tutgreenplanet.jpg,images/tutalien1,images/tutalien2,null,images/tutalien2,NA,NA,practice,null,NA,NA,NA,NA,sub121
d3-animate-choice,14,240914,0.0-14.0,FALSE,TRUE,TRUE,FALSE,"""event"",""trial"",""time""
""blur"",""4"",""159803""
""focus"",""4"",""159804""
""fullscreenenter"",""5"",""166830""
","""event"",""trial"",""time""
""blur"",""4"",""159803""
","""event"",""trial"",""time""
""focus"",""4"",""159804""
","""event"",""trial"",""time""
""fullscreenenter"",""5"",""166830""
","
",491.79000000003725,NA,48,NA,NA,3000,1,NA,NA,images/tutgreenplanet.jpg,images/tutalien1,images/tutalien2,null,images/tutalien1,NA,NA,practice,null,NA,NA,NA,NA,sub121
d3-instructions,15,249249,0.0-15.0,FALSE,TRUE,TRUE,FALSE,"""event"",""trial"",""time""
""blur"",""4"",""159803""
""focus"",""4"",""159804""
""fullscreenenter"",""5"",""166830""
","""event"",""trial"",""time""
""blur"",""4"",""159803""
","""event"",""trial"",""time""
""focus"",""4"",""159804""
","""event"",""trial"",""time""
""fullscreenenter"",""5"",""166830""
","
",NA,NA,NA,NA,NA,NA,NA,NA,NA,NA,NA,NA,NA,NA,NA,NA,NA,NA,NA,NA,NA,NA,sub121
d3-instructions,16,252313,0.0-16.0,FALSE,TRUE,TRUE,FALSE,"""event"",""trial"",""time""
""blur"",""4"",""159803""
""focus"",""4"",""159804""
""fullscreenenter"",""5"",""166830""
","""event"",""trial"",""time""
""blur"",""4"",""159803""
","""event"",""trial"",""time""
""focus"",""4"",""159804""
","""event"",""trial"",""time""
""fullscreenenter"",""5"",""166830""
","
",NA,NA,NA,NA,NA,NA,NA,NA,NA,NA,NA,NA,NA,NA,NA,NA,NA,NA,NA,NA,NA,NA,sub121
d3-instructions,17,255625,0.0-17.0,FALSE,TRUE,TRUE,FALSE,"""event"",""trial"",""time""
""blur"",""4"",""159803""
""focus"",""4"",""159804""
""fullscreenenter"",""5"",""166830""
","""event"",""trial"",""time""
""blur"",""4"",""159803""
","""event"",""trial"",""time""
""focus"",""4"",""159804""
","""event"",""trial"",""time""
""fullscreenenter"",""5"",""166830""
","
",NA,NA,NA,NA,NA,NA,NA,NA,NA,NA,NA,NA,NA,NA,NA,NA,NA,NA,NA,NA,NA,NA,sub121
d3-instructions,18,260400,0.0-18.0,FALSE,TRUE,TRUE,FALSE,"""event"",""trial"",""time""
""blur"",""4"",""159803""
""focus"",""4"",""159804""
""fullscreenenter"",""5"",""166830""
","""event"",""trial"",""time""
""blur"",""4"",""159803""
","""event"",""trial"",""time""
""focus"",""4"",""159804""
","""event"",""trial"",""time""
""fullscreenenter"",""5"",""166830""
","
",NA,NA,NA,NA,NA,NA,NA,NA,NA,NA,NA,NA,NA,NA,NA,NA,NA,NA,NA,NA,NA,NA,sub121
d3-instructions,19,269650,0.0-19.0,FALSE,TRUE,TRUE,FALSE,"""event"",""trial"",""time""
""blur"",""4"",""159803""
""focus"",""4"",""159804""
""fullscreenenter"",""5"",""166830""
","""event"",""trial"",""time""
""blur"",""4"",""159803""
","""event"",""trial"",""time""
""focus"",""4"",""159804""
","""event"",""trial"",""time""
""fullscreenenter"",""5"",""166830""
","
",NA,NA,NA,NA,NA,NA,NA,NA,NA,NA,NA,NA,NA,NA,NA,NA,NA,NA,NA,NA,NA,NA,sub121
d3-animate-choice,20,273442,0.0-20.0,FALSE,TRUE,TRUE,FALSE,"""event"",""trial"",""time""
""blur"",""4"",""159803""
""focus"",""4"",""159804""
""fullscreenenter"",""5"",""166830""
","""event"",""trial"",""time""
""blur"",""4"",""159803""
","""event"",""trial"",""time""
""focus"",""4"",""159804""
","""event"",""trial"",""time""
""fullscreenenter"",""5"",""166830""
","
",1060.5600000126287,NA,97,NA,NA,3000,1,1789.574999944307,49,images/tutyellowplanet.jpg,null,images/tutalien3,null,images/tutalien3,images/nothing.png,NA,practice,null,NA,NA,NA,NA,sub121
d3-animate-choice,21,276162,0.0-21.0,FALSE,TRUE,TRUE,FALSE,"""event"",""trial"",""time""
""blur"",""4"",""159803""
""focus"",""4"",""159804""
""fullscreenenter"",""5"",""166830""
""blur"",""22"",""278044""
","""event"",""trial"",""time""
""blur"",""4"",""159803""
""blur"",""22"",""278044""
","""event"",""trial"",""time""
""focus"",""4"",""159804""
","""event"",""trial"",""time""
""fullscreenenter"",""5"",""166830""
","
",716.7800000170246,NA,49,NA,NA,3000,1,NA,NA,images/tutyellowplanet.jpg,null,images/tutalien3,null,images/tutalien3,images/t.png,NA,practice,null,NA,NA,NA,NA,sub121
d3-animate-choice,22,279008,0.0-22.0,FALSE,TRUE,TRUE,FALSE,"""event"",""trial"",""time""
""blur"",""4"",""159803""
""focus"",""4"",""159804""
""fullscreenenter"",""5"",""166830""
""blur"",""22"",""278044""
""focus"",""23"",""280050""
","""event"",""trial"",""time""
""blur"",""4"",""159803""
""blur"",""22"",""278044""
","""event"",""trial"",""time""
""focus"",""4"",""159804""
""focus"",""23"",""280050""
","""event"",""trial"",""time""
""fullscreenenter"",""5"",""166830""
","
",829.3350000167266,NA,49,NA,NA,3000,1,NA,NA,images/tutyellowplanet.jpg,null,images/tutalien3,null,images/tutalien3,images/nothing.png,NA,practice,null,NA,NA,NA,NA,sub121
d3-animate-choice,23,282258,0.0-23.0,FALSE,TRUE,TRUE,FALSE,"""event"",""trial"",""time""
""blur"",""4"",""159803""
""focus"",""4"",""159804""
""fullscreenenter"",""5"",""166830""
""blur"",""22"",""278044""
""focus"",""23"",""280050""
""blur"",""24"",""283788""
""focus"",""24"",""286624""
","""event"",""trial"",""time""
""blur"",""4"",""159803""
""blur"",""22"",""278044""
""blur"",""24"",""283788""
","""event"",""trial"",""time""
""focus"",""4"",""159804""
""focus"",""23"",""280050""
""focus"",""24"",""286624""
","""event"",""trial"",""time""
""fullscreenenter"",""5"",""166830""
","
",1245.4999999608845,NA,49,NA,NA,3000,1,NA,NA,images/tutyellowplanet.jpg,null,images/tutalien3,null,images/tutalien3,images/t.png,NA,practice,null,NA,NA,NA,NA,sub121
d3-animate-choice,24,288745,0.0-24.0,FALSE,TRUE,TRUE,FALSE,"""event"",""trial"",""time""
""blur"",""4"",""159803""
""focus"",""4"",""159804""
""fullscreenenter"",""5"",""166830""
""blur"",""22"",""278044""
""focus"",""23"",""280050""
""blur"",""24"",""283788""
""focus"",""24"",""286624""
","""event"",""trial"",""time""
""blur"",""4"",""159803""
""blur"",""22"",""278044""
""blur"",""24"",""283788""
","""event"",""trial"",""time""
""focus"",""4"",""159804""
""focus"",""23"",""280050""
""focus"",""24"",""286624""
","""event"",""trial"",""time""
""fullscreenenter"",""5"",""166830""
","
",4483.624999993481,NA,49,NA,NA,3000,1,NA,NA,images/tutyellowplanet.jpg,null,images/tutalien3,null,images/tutalien3,images/t.png,NA,practice,null,NA,NA,NA,NA,sub121
d3-animate-choice,25,291108,0.0-25.0,FALSE,TRUE,TRUE,FALSE,"""event"",""trial"",""time""
""blur"",""4"",""159803""
""focus"",""4"",""159804""
""fullscreenenter"",""5"",""166830""
""blur"",""22"",""278044""
""focus"",""23"",""280050""
""blur"",""24"",""283788""
""focus"",""24"",""286624""
","""event"",""trial"",""time""
""blur"",""4"",""159803""
""blur"",""22"",""278044""
""blur"",""24"",""283788""
","""event"",""trial"",""time""
""focus"",""4"",""159804""
""focus"",""23"",""280050""
""focus"",""24"",""286624""
","""event"",""trial"",""time""
""fullscreenenter"",""5"",""166830""
","
",358.0500000389293,NA,49,NA,NA,3000,1,NA,NA,images/tutyellowplanet.jpg,null,images/tutalien3,null,images/tutalien3,images/t.png,NA,practice,null,NA,NA,NA,NA,sub121
d3-animate-choice,26,293426,0.0-26.0,FALSE,TRUE,TRUE,FALSE,"""event"",""trial"",""time""
""blur"",""4"",""159803""
""focus"",""4"",""159804""
""fullscreenenter"",""5"",""166830""
""blur"",""22"",""278044""
""focus"",""23"",""280050""
""blur"",""24"",""283788""
""focus"",""24"",""286624""
","""event"",""trial"",""time""
""blur"",""4"",""159803""
""blur"",""22"",""278044""
""blur"",""24"",""283788""
","""event"",""trial"",""time""
""focus"",""4"",""159804""
""focus"",""23"",""280050""
""focus"",""24"",""286624""
","""event"",""trial"",""time""
""fullscreenenter"",""5"",""166830""
","
",316.04500010143965,NA,49,NA,NA,3000,1,NA,NA,images/tutyellowplanet.jpg,null,images/tutalien3,null,images/tutalien3,images/t.png,NA,practice,null,NA,NA,NA,NA,sub121
d3-animate-choice,27,295962,0.0-27.0,FALSE,TRUE,TRUE,FALSE,"""event"",""trial"",""time""
""blur"",""4"",""159803""
""focus"",""4"",""159804""
""fullscreenenter"",""5"",""166830""
""blur"",""22"",""278044""
""focus"",""23"",""280050""
""blur"",""24"",""283788""
""focus"",""24"",""286624""
","""event"",""trial"",""time""
""blur"",""4"",""159803""
""blur"",""22"",""278044""
""blur"",""24"",""283788""
","""event"",""trial"",""time""
""focus"",""4"",""159804""
""focus"",""23"",""280050""
""focus"",""24"",""286624""
","""event"",""trial"",""time""
""fullscreenenter"",""5"",""166830""
","
",532.9650000203401,NA,49,NA,NA,3000,1,NA,NA,images/tutyellowplanet.jpg,null,images/tutalien3,null,images/tutalien3,images/t.png,NA,practice,null,NA,NA,NA,NA,sub121
d3-animate-choice,28,298356,0.0-28.0,FALSE,TRUE,TRUE,FALSE,"""event"",""trial"",""time""
""blur"",""4"",""159803""
""focus"",""4"",""159804""
""fullscreenenter"",""5"",""166830""
""blur"",""22"",""278044""
""focus"",""23"",""280050""
""blur"",""24"",""283788""
""focus"",""24"",""286624""
","""event"",""trial"",""time""
""blur"",""4"",""159803""
""blur"",""22"",""278044""
""blur"",""24"",""283788""
","""event"",""trial"",""time""
""focus"",""4"",""159804""
""focus"",""23"",""280050""
""focus"",""24"",""286624""
","""event"",""trial"",""time""
""fullscreenenter"",""5"",""166830""
","
",389.59999999497086,NA,49,NA,NA,3000,1,NA,NA,images/tutyellowplanet.jpg,null,images/tutalien3,null,images/tutalien3,images/t.png,NA,practice,null,NA,NA,NA,NA,sub121
d3-animate-choice,29,300786,0.0-29.0,FALSE,TRUE,TRUE,FALSE,"""event"",""trial"",""time""
""blur"",""4"",""159803""
""focus"",""4"",""159804""
""fullscreenenter"",""5"",""166830""
""blur"",""22"",""278044""
""focus"",""23"",""280050""
""blur"",""24"",""283788""
""focus"",""24"",""286624""
","""event"",""trial"",""time""
""blur"",""4"",""159803""
""blur"",""22"",""278044""
""blur"",""24"",""283788""
","""event"",""trial"",""time""
""focus"",""4"",""159804""
""focus"",""23"",""280050""
""focus"",""24"",""286624""
","""event"",""trial"",""time""
""fullscreenenter"",""5"",""166830""
","
",427.1599999628961,NA,49,NA,NA,3000,1,NA,NA,images/tutyellowplanet.jpg,null,images/tutalien3,null,images/tutalien3,images/t.png,NA,practice,null,NA,NA,NA,NA,sub121
d3-instructions,30,306785,0.0-30.0,FALSE,TRUE,TRUE,FALSE,"""event"",""trial"",""time""
""blur"",""4"",""159803""
""focus"",""4"",""159804""
""fullscreenenter"",""5"",""166830""
""blur"",""22"",""278044""
""focus"",""23"",""280050""
""blur"",""24"",""283788""
""focus"",""24"",""286624""
","""event"",""trial"",""time""
""blur"",""4"",""159803""
""blur"",""22"",""278044""
""blur"",""24"",""283788""
","""event"",""trial"",""time""
""focus"",""4"",""159804""
""focus"",""23"",""280050""
""focus"",""24"",""286624""
","""event"",""trial"",""time""
""fullscreenenter"",""5"",""166830""
","
",NA,NA,NA,NA,NA,NA,NA,NA,NA,NA,NA,NA,NA,NA,NA,NA,NA,NA,NA,NA,NA,NA,sub121
d3-instructions,31,313273,0.0-31.0,FALSE,TRUE,TRUE,FALSE,"""event"",""trial"",""time""
""blur"",""4"",""159803""
""focus"",""4"",""159804""
""fullscreenenter"",""5"",""166830""
""blur"",""22"",""278044""
""focus"",""23"",""280050""
""blur"",""24"",""283788""
""focus"",""24"",""286624""
","""event"",""trial"",""time""
""blur"",""4"",""159803""
""blur"",""22"",""278044""
""blur"",""24"",""283788""
","""event"",""trial"",""time""
""focus"",""4"",""159804""
""focus"",""23"",""280050""
""focus"",""24"",""286624""
","""event"",""trial"",""time""
""fullscreenenter"",""5"",""166830""
","
",NA,NA,NA,NA,NA,NA,NA,NA,NA,NA,NA,NA,NA,NA,NA,NA,NA,NA,NA,NA,NA,NA,sub121
d3-instructions,32,316952,0.0-32.0,FALSE,TRUE,TRUE,FALSE,"""event"",""trial"",""time""
""blur"",""4"",""159803""
""focus"",""4"",""159804""
""fullscreenenter"",""5"",""166830""
""blur"",""22"",""278044""
""focus"",""23"",""280050""
""blur"",""24"",""283788""
""focus"",""24"",""286624""
","""event"",""trial"",""time""
""blur"",""4"",""159803""
""blur"",""22"",""278044""
""blur"",""24"",""283788""
","""event"",""trial"",""time""
""focus"",""4"",""159804""
""focus"",""23"",""280050""
""focus"",""24"",""286624""
","""event"",""trial"",""time""
""fullscreenenter"",""5"",""166830""
","
",NA,NA,NA,NA,NA,NA,NA,NA,NA,NA,NA,NA,NA,NA,NA,NA,NA,NA,NA,NA,NA,NA,sub121
d3-instructions,33,320008,0.0-33.0,FALSE,TRUE,TRUE,FALSE,"""event"",""trial"",""time""
""blur"",""4"",""159803""
""focus"",""4"",""159804""
""fullscreenenter"",""5"",""166830""
""blur"",""22"",""278044""
""focus"",""23"",""280050""
""blur"",""24"",""283788""
""focus"",""24"",""286624""
","""event"",""trial"",""time""
""blur"",""4"",""159803""
""blur"",""22"",""278044""
""blur"",""24"",""283788""
","""event"",""trial"",""time""
""focus"",""4"",""159804""
""focus"",""23"",""280050""
""focus"",""24"",""286624""
","""event"",""trial"",""time""
""fullscreenenter"",""5"",""166830""
","
",NA,NA,NA,NA,NA,NA,NA,NA,NA,NA,NA,NA,NA,NA,NA,NA,NA,NA,NA,NA,NA,NA,sub121
d3-animate-choice,34,326946,0.0-34.0,FALSE,TRUE,TRUE,FALSE,"""event"",""trial"",""time""
""blur"",""4"",""159803""
""focus"",""4"",""159804""
""fullscreenenter"",""5"",""166830""
""blur"",""22"",""278044""
""focus"",""23"",""280050""
""blur"",""24"",""283788""
""focus"",""24"",""286624""
","""event"",""trial"",""time""
""blur"",""4"",""159803""
""blur"",""22"",""278044""
""blur"",""24"",""283788""
","""event"",""trial"",""time""
""focus"",""4"",""159804""
""focus"",""23"",""280050""
""focus"",""24"",""286624""
","""event"",""trial"",""time""
""fullscreenenter"",""5"",""166830""
","
",4934.100000071339,NA,48,NA,NA,3000,1,NA,NA,images/tutgreenplanet.jpg,images/tutalien1,images/tutalien2,null,images/tutalien1,images/nothing.png,NA,practice,null,NA,NA,NA,NA,sub121
d3-animate-choice,35,330309,0.0-35.0,FALSE,TRUE,TRUE,FALSE,"""event"",""trial"",""time""
""blur"",""4"",""159803""
""focus"",""4"",""159804""
""fullscreenenter"",""5"",""166830""
""blur"",""22"",""278044""
""focus"",""23"",""280050""
""blur"",""24"",""283788""
""focus"",""24"",""286624""
","""event"",""trial"",""time""
""blur"",""4"",""159803""
""blur"",""22"",""278044""
""blur"",""24"",""283788""
","""event"",""trial"",""time""
""focus"",""4"",""159804""
""focus"",""23"",""280050""
""focus"",""24"",""286624""
","""event"",""trial"",""time""
""fullscreenenter"",""5"",""166830""
","
",1359.5600000116974,NA,49,NA,NA,3000,1,NA,NA,images/tutgreenplanet.jpg,images/tutalien1,images/tutalien2,null,images/tutalien2,images/nothing.png,NA,practice,null,NA,NA,NA,NA,sub121
d3-animate-choice,36,332610,0.0-36.0,FALSE,TRUE,TRUE,FALSE,"""event"",""trial"",""time""
""blur"",""4"",""159803""
""focus"",""4"",""159804""
""fullscreenenter"",""5"",""166830""
""blur"",""22"",""278044""
""focus"",""23"",""280050""
""blur"",""24"",""283788""
""focus"",""24"",""286624""
","""event"",""trial"",""time""
""blur"",""4"",""159803""
""blur"",""22"",""278044""
""blur"",""24"",""283788""
","""event"",""trial"",""time""
""focus"",""4"",""159804""
""focus"",""23"",""280050""
""focus"",""24"",""286624""
","""event"",""trial"",""time""
""fullscreenenter"",""5"",""166830""
","
",297.6550000021234,NA,48,NA,NA,3000,1,NA,NA,images/tutgreenplanet.jpg,images/tutalien1,images/tutalien2,null,images/tutalien1,images/nothing.png,NA,practice,null,NA,NA,NA,NA,sub121
d3-animate-choice,37,334835,0.0-37.0,FALSE,TRUE,TRUE,FALSE,"""event"",""trial"",""time""
""blur"",""4"",""159803""
""focus"",""4"",""159804""
""fullscreenenter"",""5"",""166830""
""blur"",""22"",""278044""
""focus"",""23"",""280050""
""blur"",""24"",""283788""
""focus"",""24"",""286624""
","""event"",""trial"",""time""
""blur"",""4"",""159803""
""blur"",""22"",""278044""
""blur"",""24"",""283788""
","""event"",""trial"",""time""
""focus"",""4"",""159804""
""focus"",""23"",""280050""
""focus"",""24"",""286624""
","""event"",""trial"",""time""
""fullscreenenter"",""5"",""166830""
","
",221.06499993242323,NA,48,NA,NA,3000,1,1941.3299999432638,49,images/tutgreenplanet.jpg,images/tutalien1,images/tutalien2,null,images/tutalien1,images/nothing.png,NA,practice,null,NA,NA,NA,NA,sub121
d3-animate-choice,38,336914,0.0-38.0,FALSE,TRUE,TRUE,FALSE,"""event"",""trial"",""time""
""blur"",""4"",""159803""
""focus"",""4"",""159804""
""fullscreenenter"",""5"",""166830""
""blur"",""22"",""278044""
""focus"",""23"",""280050""
""blur"",""24"",""283788""
""focus"",""24"",""286624""
","""event"",""trial"",""time""
""blur"",""4"",""159803""
""blur"",""22"",""278044""
""blur"",""24"",""283788""
","""event"",""trial"",""time""
""focus"",""4"",""159804""
""focus"",""23"",""280050""
""focus"",""24"",""286624""
","""event"",""trial"",""time""
""fullscreenenter"",""5"",""166830""
","
",76.60500006750226,NA,49,NA,NA,3000,1,NA,NA,images/tutgreenplanet.jpg,images/tutalien1,images/tutalien2,null,images/tutalien2,images/t.png,NA,practice,null,NA,NA,NA,NA,sub121
d3-animate-choice,39,339156,0.0-39.0,FALSE,TRUE,TRUE,FALSE,"""event"",""trial"",""time""
""blur"",""4"",""159803""
""focus"",""4"",""159804""
""fullscreenenter"",""5"",""166830""
""blur"",""22"",""278044""
""focus"",""23"",""280050""
""blur"",""24"",""283788""
""focus"",""24"",""286624""
","""event"",""trial"",""time""
""blur"",""4"",""159803""
""blur"",""22"",""278044""
""blur"",""24"",""283788""
","""event"",""trial"",""time""
""focus"",""4"",""159804""
""focus"",""23"",""280050""
""focus"",""24"",""286624""
","""event"",""trial"",""time""
""fullscreenenter"",""5"",""166830""
","
",238.5200000135228,NA,49,NA,NA,3000,1,NA,NA,images/tutgreenplanet.jpg,images/tutalien1,images/tutalien2,null,images/tutalien2,images/t.png,NA,practice,null,NA,NA,NA,NA,sub121
d3-animate-choice,40,342027,0.0-40.0,FALSE,TRUE,TRUE,FALSE,"""event"",""trial"",""time""
""blur"",""4"",""159803""
""focus"",""4"",""159804""
""fullscreenenter"",""5"",""166830""
""blur"",""22"",""278044""
""focus"",""23"",""280050""
""blur"",""24"",""283788""
""focus"",""24"",""286624""
","""event"",""trial"",""time""
""blur"",""4"",""159803""
""blur"",""22"",""278044""
""blur"",""24"",""283788""
","""event"",""trial"",""time""
""focus"",""4"",""159804""
""focus"",""23"",""280050""
""focus"",""24"",""286624""
","""event"",""trial"",""time""
""fullscreenenter"",""5"",""166830""
","
",867.1600000234321,NA,49,NA,NA,3000,1,NA,NA,images/tutgreenplanet.jpg,images/tutalien1,images/tutalien2,null,images/tutalien2,images/t.png,NA,practice,null,NA,NA,NA,NA,sub121
d3-animate-choice,41,344067,0.0-41.0,FALSE,TRUE,TRUE,FALSE,"""event"",""trial"",""time""
""blur"",""4"",""159803""
""focus"",""4"",""159804""
""fullscreenenter"",""5"",""166830""
""blur"",""22"",""278044""
""focus"",""23"",""280050""
""blur"",""24"",""283788""
""focus"",""24"",""286624""
","""event"",""trial"",""time""
""blur"",""4"",""159803""
""blur"",""22"",""278044""
""blur"",""24"",""283788""
","""event"",""trial"",""time""
""focus"",""4"",""159804""
""focus"",""23"",""280050""
""focus"",""24"",""286624""
","""event"",""trial"",""time""
""fullscreenenter"",""5"",""166830""
","
",35.87000002153218,NA,48,NA,NA,3000,1,"244.01000002399087,1515.925000072457,1947.8100000414997",484949,images/tutgreenplanet.jpg,images/tutalien1,images/tutalien2,null,images/tutalien1,images/t.png,NA,practice,null,NA,NA,NA,NA,sub121
d3-animate-choice,42,346249,0.0-42.0,FALSE,TRUE,TRUE,FALSE,"""event"",""trial"",""time""
""blur"",""4"",""159803""
""focus"",""4"",""159804""
""fullscreenenter"",""5"",""166830""
""blur"",""22"",""278044""
""focus"",""23"",""280050""
""blur"",""24"",""283788""
""focus"",""24"",""286624""
","""event"",""trial"",""time""
""blur"",""4"",""159803""
""blur"",""22"",""278044""
""blur"",""24"",""283788""
","""event"",""trial"",""time""
""focus"",""4"",""159804""
""focus"",""23"",""280050""
""focus"",""24"",""286624""
","""event"",""trial"",""time""
""fullscreenenter"",""5"",""166830""
","
",180.35000003874302,NA,49,NA,NA,3000,1,NA,NA,images/tutgreenplanet.jpg,images/tutalien1,images/tutalien2,null,images/tutalien2,images/t.png,NA,practice,null,NA,NA,NA,NA,sub121
d3-animate-choice,43,348459,0.0-43.0,FALSE,TRUE,TRUE,FALSE,"""event"",""trial"",""time""
""blur"",""4"",""159803""
""focus"",""4"",""159804""
""fullscreenenter"",""5"",""166830""
""blur"",""22"",""278044""
""focus"",""23"",""280050""
""blur"",""24"",""283788""
""focus"",""24"",""286624""
","""event"",""trial"",""time""
""blur"",""4"",""159803""
""blur"",""22"",""278044""
""blur"",""24"",""283788""
","""event"",""trial"",""time""
""focus"",""4"",""159804""
""focus"",""23"",""280050""
""focus"",""24"",""286624""
","""event"",""trial"",""time""
""fullscreenenter"",""5"",""166830""
","
",206.05999999679625,NA,49,NA,NA,3000,1,"397.75500004179776,2141.1550000775605",4948,images/tutgreenplanet.jpg,images/tutalien1,images/tutalien2,null,images/tutalien2,images/t.png,NA,practice,null,NA,NA,NA,NA,sub121
d3-instructions,44,357105,0.0-44.0,FALSE,TRUE,TRUE,FALSE,"""event"",""trial"",""time""
""blur"",""4"",""159803""
""focus"",""4"",""159804""
""fullscreenenter"",""5"",""166830""
""blur"",""22"",""278044""
""focus"",""23"",""280050""
""blur"",""24"",""283788""
""focus"",""24"",""286624""
","""event"",""trial"",""time""
""blur"",""4"",""159803""
""blur"",""22"",""278044""
""blur"",""24"",""283788""
","""event"",""trial"",""time""
""focus"",""4"",""159804""
""focus"",""23"",""280050""
""focus"",""24"",""286624""
","""event"",""trial"",""time""
""fullscreenenter"",""5"",""166830""
","
",NA,NA,NA,NA,NA,NA,NA,NA,NA,NA,NA,NA,NA,NA,NA,NA,NA,NA,NA,NA,NA,NA,sub121
d3-instructions,45,361001,0.0-45.0,FALSE,TRUE,TRUE,FALSE,"""event"",""trial"",""time""
""blur"",""4"",""159803""
""focus"",""4"",""159804""
""fullscreenenter"",""5"",""166830""
""blur"",""22"",""278044""
""focus"",""23"",""280050""
""blur"",""24"",""283788""
""focus"",""24"",""286624""
","""event"",""trial"",""time""
""blur"",""4"",""159803""
""blur"",""22"",""278044""
""blur"",""24"",""283788""
","""event"",""trial"",""time""
""focus"",""4"",""159804""
""focus"",""23"",""280050""
""focus"",""24"",""286624""
","""event"",""trial"",""time""
""fullscreenenter"",""5"",""166830""
","
",NA,NA,NA,NA,NA,NA,NA,NA,NA,NA,NA,NA,NA,NA,NA,NA,NA,NA,NA,NA,NA,NA,sub121
d3-instructions,46,364706,0.0-46.0,FALSE,TRUE,TRUE,FALSE,"""event"",""trial"",""time""
""blur"",""4"",""159803""
""focus"",""4"",""159804""
""fullscreenenter"",""5"",""166830""
""blur"",""22"",""278044""
""focus"",""23"",""280050""
""blur"",""24"",""283788""
""focus"",""24"",""286624""
","""event"",""trial"",""time""
""blur"",""4"",""159803""
""blur"",""22"",""278044""
""blur"",""24"",""283788""
","""event"",""trial"",""time""
""focus"",""4"",""159804""
""focus"",""23"",""280050""
""focus"",""24"",""286624""
","""event"",""trial"",""time""
""fullscreenenter"",""5"",""166830""
","
",NA,NA,NA,NA,NA,NA,NA,NA,NA,NA,NA,NA,NA,NA,NA,NA,NA,NA,NA,NA,NA,NA,sub121
d3-instructions,47,369745,0.0-47.0,FALSE,TRUE,TRUE,FALSE,"""event"",""trial"",""time""
""blur"",""4"",""159803""
""focus"",""4"",""159804""
""fullscreenenter"",""5"",""166830""
""blur"",""22"",""278044""
""focus"",""23"",""280050""
""blur"",""24"",""283788""
""focus"",""24"",""286624""
","""event"",""trial"",""time""
""blur"",""4"",""159803""
""blur"",""22"",""278044""
""blur"",""24"",""283788""
","""event"",""trial"",""time""
""focus"",""4"",""159804""
""focus"",""23"",""280050""
""focus"",""24"",""286624""
","""event"",""trial"",""time""
""fullscreenenter"",""5"",""166830""
","
",NA,NA,NA,NA,NA,NA,NA,NA,NA,NA,NA,NA,NA,NA,NA,NA,NA,NA,NA,NA,NA,NA,sub121
d3-instructions,48,375282,0.0-48.0,FALSE,TRUE,TRUE,FALSE,"""event"",""trial"",""time""
""blur"",""4"",""159803""
""focus"",""4"",""159804""
""fullscreenenter"",""5"",""166830""
""blur"",""22"",""278044""
""focus"",""23"",""280050""
""blur"",""24"",""283788""
""focus"",""24"",""286624""
","""event"",""trial"",""time""
""blur"",""4"",""159803""
""blur"",""22"",""278044""
""blur"",""24"",""283788""
","""event"",""trial"",""time""
""focus"",""4"",""159804""
""focus"",""23"",""280050""
""focus"",""24"",""286624""
","""event"",""trial"",""time""
""fullscreenenter"",""5"",""166830""
","
",NA,NA,NA,NA,NA,NA,NA,NA,NA,NA,NA,NA,NA,NA,NA,NA,NA,NA,NA,NA,NA,NA,sub121
d3-instructions,49,389377,0.0-49.0,FALSE,TRUE,TRUE,FALSE,"""event"",""trial"",""time""
""blur"",""4"",""159803""
""focus"",""4"",""159804""
""fullscreenenter"",""5"",""166830""
""blur"",""22"",""278044""
""focus"",""23"",""280050""
""blur"",""24"",""283788""
""focus"",""24"",""286624""
","""event"",""trial"",""time""
""blur"",""4"",""159803""
""blur"",""22"",""278044""
""blur"",""24"",""283788""
","""event"",""trial"",""time""
""focus"",""4"",""159804""
""focus"",""23"",""280050""
""focus"",""24"",""286624""
","""event"",""trial"",""time""
""fullscreenenter"",""5"",""166830""
","
",NA,NA,NA,NA,NA,NA,NA,NA,NA,NA,NA,NA,NA,NA,NA,NA,NA,NA,NA,NA,NA,NA,sub121
d3-instructions,50,393441,0.0-50.0,FALSE,TRUE,TRUE,FALSE,"""event"",""trial"",""time""
""blur"",""4"",""159803""
""focus"",""4"",""159804""
""fullscreenenter"",""5"",""166830""
""blur"",""22"",""278044""
""focus"",""23"",""280050""
""blur"",""24"",""283788""
""focus"",""24"",""286624""
","""event"",""trial"",""time""
""blur"",""4"",""159803""
""blur"",""22"",""278044""
""blur"",""24"",""283788""
","""event"",""trial"",""time""
""focus"",""4"",""159804""
""focus"",""23"",""280050""
""focus"",""24"",""286624""
","""event"",""trial"",""time""
""fullscreenenter"",""5"",""166830""
","
",NA,NA,NA,NA,NA,NA,NA,NA,NA,NA,NA,NA,NA,NA,NA,NA,NA,NA,NA,NA,NA,NA,sub121
d3-instructions,51,395217,0.0-51.0,FALSE,TRUE,TRUE,FALSE,"""event"",""trial"",""time""
""blur"",""4"",""159803""
""focus"",""4"",""159804""
""fullscreenenter"",""5"",""166830""
""blur"",""22"",""278044""
""focus"",""23"",""280050""
""blur"",""24"",""283788""
""focus"",""24"",""286624""
","""event"",""trial"",""time""
""blur"",""4"",""159803""
""blur"",""22"",""278044""
""blur"",""24"",""283788""
","""event"",""trial"",""time""
""focus"",""4"",""159804""
""focus"",""23"",""280050""
""focus"",""24"",""286624""
","""event"",""trial"",""time""
""fullscreenenter"",""5"",""166830""
","
",NA,NA,NA,NA,NA,NA,NA,NA,NA,NA,NA,NA,NA,NA,NA,NA,NA,NA,NA,NA,NA,NA,sub121
d3-instructions,52,396305,0.0-52.0,FALSE,TRUE,TRUE,FALSE,"""event"",""trial"",""time""
""blur"",""4"",""159803""
""focus"",""4"",""159804""
""fullscreenenter"",""5"",""166830""
""blur"",""22"",""278044""
""focus"",""23"",""280050""
""blur"",""24"",""283788""
""focus"",""24"",""286624""
","""event"",""trial"",""time""
""blur"",""4"",""159803""
""blur"",""22"",""278044""
""blur"",""24"",""283788""
","""event"",""trial"",""time""
""focus"",""4"",""159804""
""focus"",""23"",""280050""
""focus"",""24"",""286624""
","""event"",""trial"",""time""
""fullscreenenter"",""5"",""166830""
","
",NA,NA,NA,NA,NA,NA,NA,NA,NA,NA,NA,NA,NA,NA,NA,NA,NA,NA,NA,NA,NA,NA,sub121
d3-instructions,53,402417,0.0-53.0,FALSE,TRUE,TRUE,FALSE,"""event"",""trial"",""time""
""blur"",""4"",""159803""
""focus"",""4"",""159804""
""fullscreenenter"",""5"",""166830""
""blur"",""22"",""278044""
""focus"",""23"",""280050""
""blur"",""24"",""283788""
""focus"",""24"",""286624""
","""event"",""trial"",""time""
""blur"",""4"",""159803""
""blur"",""22"",""278044""
""blur"",""24"",""283788""
","""event"",""trial"",""time""
""focus"",""4"",""159804""
""focus"",""23"",""280050""
""focus"",""24"",""286624""
","""event"",""trial"",""time""
""fullscreenenter"",""5"",""166830""
","
",NA,NA,NA,NA,NA,NA,NA,NA,NA,NA,NA,NA,NA,NA,NA,NA,NA,NA,NA,NA,NA,NA,sub121
d3-instructions,54,408873,0.0-54.0,FALSE,TRUE,TRUE,FALSE,"""event"",""trial"",""time""
""blur"",""4"",""159803""
""focus"",""4"",""159804""
""fullscreenenter"",""5"",""166830""
""blur"",""22"",""278044""
""focus"",""23"",""280050""
""blur"",""24"",""283788""
""focus"",""24"",""286624""
","""event"",""trial"",""time""
""blur"",""4"",""159803""
""blur"",""22"",""278044""
""blur"",""24"",""283788""
","""event"",""trial"",""time""
""focus"",""4"",""159804""
""focus"",""23"",""280050""
""focus"",""24"",""286624""
","""event"",""trial"",""time""
""fullscreenenter"",""5"",""166830""
","
",NA,NA,NA,NA,NA,NA,NA,NA,NA,NA,NA,NA,NA,NA,NA,NA,NA,NA,NA,NA,NA,NA,sub121
d3-instructions,55,412065,0.0-55.0,FALSE,TRUE,TRUE,FALSE,"""event"",""trial"",""time""
""blur"",""4"",""159803""
""focus"",""4"",""159804""
""fullscreenenter"",""5"",""166830""
""blur"",""22"",""278044""
""focus"",""23"",""280050""
""blur"",""24"",""283788""
""focus"",""24"",""286624""
","""event"",""trial"",""time""
""blur"",""4"",""159803""
""blur"",""22"",""278044""
""blur"",""24"",""283788""
","""event"",""trial"",""time""
""focus"",""4"",""159804""
""focus"",""23"",""280050""
""focus"",""24"",""286624""
","""event"",""trial"",""time""
""fullscreenenter"",""5"",""166830""
","
",NA,NA,NA,NA,NA,NA,NA,NA,NA,NA,NA,NA,NA,NA,NA,NA,NA,NA,NA,NA,NA,NA,sub121
d3-instructions,56,414161,0.0-56.0,FALSE,TRUE,TRUE,FALSE,"""event"",""trial"",""time""
""blur"",""4"",""159803""
""focus"",""4"",""159804""
""fullscreenenter"",""5"",""166830""
""blur"",""22"",""278044""
""focus"",""23"",""280050""
""blur"",""24"",""283788""
""focus"",""24"",""286624""
","""event"",""trial"",""time""
""blur"",""4"",""159803""
""blur"",""22"",""278044""
""blur"",""24"",""283788""
","""event"",""trial"",""time""
""focus"",""4"",""159804""
""focus"",""23"",""280050""
""focus"",""24"",""286624""
","""event"",""trial"",""time""
""fullscreenenter"",""5"",""166830""
","
",NA,NA,NA,NA,NA,NA,NA,NA,NA,NA,NA,NA,NA,NA,NA,NA,NA,NA,NA,NA,NA,NA,sub121
d3-instructions,57,424801,0.0-57.0,FALSE,TRUE,TRUE,FALSE,"""event"",""trial"",""time""
""blur"",""4"",""159803""
""focus"",""4"",""159804""
""fullscreenenter"",""5"",""166830""
""blur"",""22"",""278044""
""focus"",""23"",""280050""
""blur"",""24"",""283788""
""focus"",""24"",""286624""
","""event"",""trial"",""time""
""blur"",""4"",""159803""
""blur"",""22"",""278044""
""blur"",""24"",""283788""
","""event"",""trial"",""time""
""focus"",""4"",""159804""
""focus"",""23"",""280050""
""focus"",""24"",""286624""
","""event"",""trial"",""time""
""fullscreenenter"",""5"",""166830""
","
",NA,NA,NA,NA,NA,NA,NA,NA,NA,NA,NA,NA,NA,NA,NA,NA,NA,NA,NA,NA,NA,NA,sub121
d3-instructions,58,431096,0.0-58.0,FALSE,TRUE,TRUE,FALSE,"""event"",""trial"",""time""
""blur"",""4"",""159803""
""focus"",""4"",""159804""
""fullscreenenter"",""5"",""166830""
""blur"",""22"",""278044""
""focus"",""23"",""280050""
""blur"",""24"",""283788""
""focus"",""24"",""286624""
","""event"",""trial"",""time""
""blur"",""4"",""159803""
""blur"",""22"",""278044""
""blur"",""24"",""283788""
","""event"",""trial"",""time""
""focus"",""4"",""159804""
""focus"",""23"",""280050""
""focus"",""24"",""286624""
","""event"",""trial"",""time""
""fullscreenenter"",""5"",""166830""
","
",NA,NA,NA,NA,NA,NA,NA,NA,NA,NA,NA,NA,NA,NA,NA,NA,NA,NA,NA,NA,NA,NA,sub121
d3-instructions,59,435834,0.0-59.0,FALSE,TRUE,TRUE,FALSE,"""event"",""trial"",""time""
""blur"",""4"",""159803""
""focus"",""4"",""159804""
""fullscreenenter"",""5"",""166830""
""blur"",""22"",""278044""
""focus"",""23"",""280050""
""blur"",""24"",""283788""
""focus"",""24"",""286624""
","""event"",""trial"",""time""
""blur"",""4"",""159803""
""blur"",""22"",""278044""
""blur"",""24"",""283788""
","""event"",""trial"",""time""
""focus"",""4"",""159804""
""focus"",""23"",""280050""
""focus"",""24"",""286624""
","""event"",""trial"",""time""
""fullscreenenter"",""5"",""166830""
","
",NA,NA,NA,NA,NA,NA,NA,NA,NA,NA,NA,NA,NA,NA,NA,NA,NA,NA,NA,NA,NA,NA,sub121
d3-instructions,60,437848,0.0-60.0,FALSE,TRUE,TRUE,FALSE,"""event"",""trial"",""time""
""blur"",""4"",""159803""
""focus"",""4"",""159804""
""fullscreenenter"",""5"",""166830""
""blur"",""22"",""278044""
""focus"",""23"",""280050""
""blur"",""24"",""283788""
""focus"",""24"",""286624""
","""event"",""trial"",""time""
""blur"",""4"",""159803""
""blur"",""22"",""278044""
""blur"",""24"",""283788""
","""event"",""trial"",""time""
""focus"",""4"",""159804""
""focus"",""23"",""280050""
""focus"",""24"",""286624""
","""event"",""trial"",""time""
""fullscreenenter"",""5"",""166830""
","
",NA,NA,NA,NA,NA,NA,NA,NA,NA,NA,NA,NA,NA,NA,NA,NA,NA,NA,NA,NA,NA,NA,sub121
d3-animate-choice,61,440514,0.0-61.0-0.0,FALSE,TRUE,TRUE,FALSE,"""event"",""trial"",""time""
""blur"",""4"",""159803""
""focus"",""4"",""159804""
""fullscreenenter"",""5"",""166830""
""blur"",""22"",""278044""
""focus"",""23"",""280050""
""blur"",""24"",""283788""
""focus"",""24"",""286624""
","""event"",""trial"",""time""
""blur"",""4"",""159803""
""blur"",""22"",""278044""
""blur"",""24"",""283788""
","""event"",""trial"",""time""
""focus"",""4"",""159804""
""focus"",""23"",""280050""
""focus"",""24"",""286624""
","""event"",""trial"",""time""
""fullscreenenter"",""5"",""166830""
","
",662.1949999826029,NA,49,NA,NA,3000,1,NA,NA,images/earth.jpg,images/tutrocket1,images/tutrocket2,null,images/tutrocket2,NA,1,practice,null,1,NA,NA,NA,sub121
d3-animate-choice,62,444519,0.0-61.0-1.0,FALSE,TRUE,TRUE,FALSE,"""event"",""trial"",""time""
""blur"",""4"",""159803""
""focus"",""4"",""159804""
""fullscreenenter"",""5"",""166830""
""blur"",""22"",""278044""
""focus"",""23"",""280050""
""blur"",""24"",""283788""
""focus"",""24"",""286624""
","""event"",""trial"",""time""
""blur"",""4"",""159803""
""blur"",""22"",""278044""
""blur"",""24"",""283788""
","""event"",""trial"",""time""
""focus"",""4"",""159804""
""focus"",""23"",""280050""
""focus"",""24"",""286624""
","""event"",""trial"",""time""
""fullscreenenter"",""5"",""166830""
","
",2779.80000001844,NA,49,NA,NA,3000,1,NA,NA,images/tutyellowplanet.jpg,images/tutalien4,images/tutalien3,images/tutrocket2,images/tutalien3,NA,2,practice,true,1,common,0,2020-06-21T23:01:54Z,sub121
two-step-fixation,63,445522,0.0-61.0-2.0,FALSE,TRUE,TRUE,FALSE,"""event"",""trial"",""time""
""blur"",""4"",""159803""
""focus"",""4"",""159804""
""fullscreenenter"",""5"",""166830""
""blur"",""22"",""278044""
""focus"",""23"",""280050""
""blur"",""24"",""283788""
""focus"",""24"",""286624""
","""event"",""trial"",""time""
""blur"",""4"",""159803""
""blur"",""22"",""278044""
""blur"",""24"",""283788""
","""event"",""trial"",""time""
""focus"",""4"",""159804""
""focus"",""23"",""280050""
""focus"",""24"",""286624""
","""event"",""trial"",""time""
""fullscreenenter"",""5"",""166830""
","
",NA,images/earth.jpg,NA,NA,NA,NA,NA,NA,NA,NA,NA,NA,NA,NA,NA,fixation,NA,NA,NA,NA,NA,NA,sub121
d3-animate-choice,64,449528,0.0-61.0-0.1,FALSE,TRUE,TRUE,FALSE,"""event"",""trial"",""time""
""blur"",""4"",""159803""
""focus"",""4"",""159804""
""fullscreenenter"",""5"",""166830""
""blur"",""22"",""278044""
""focus"",""23"",""280050""
""blur"",""24"",""283788""
""focus"",""24"",""286624""
","""event"",""trial"",""time""
""blur"",""4"",""159803""
""blur"",""22"",""278044""
""blur"",""24"",""283788""
","""event"",""trial"",""time""
""focus"",""4"",""159804""
""focus"",""23"",""280050""
""focus"",""24"",""286624""
","""event"",""trial"",""time""
""fullscreenenter"",""5"",""166830""
","
",1420.2450000448152,NA,50,NA,NA,3000,1,"2091.2800000514835,2867.7850000094622",5048,images/earth.jpg,images/tutrocket1,images/tutrocket2,null,images/tutrocket1,NA,1,practice,null,NA,NA,NA,NA,sub121
d3-animate-choice,65,452250,0.0-61.0-1.1,FALSE,TRUE,TRUE,FALSE,"""event"",""trial"",""time""
""blur"",""4"",""159803""
""focus"",""4"",""159804""
""fullscreenenter"",""5"",""166830""
""blur"",""22"",""278044""
""focus"",""23"",""280050""
""blur"",""24"",""283788""
""focus"",""24"",""286624""
","""event"",""trial"",""time""
""blur"",""4"",""159803""
""blur"",""22"",""278044""
""blur"",""24"",""283788""
","""event"",""trial"",""time""
""focus"",""4"",""159804""
""focus"",""23"",""280050""
""focus"",""24"",""286624""
","""event"",""trial"",""time""
""fullscreenenter"",""5"",""166830""
","
",716.3050000090152,NA,49,NA,NA,3000,1,NA,NA,images/tutgreenplanet.jpg,images/tutalien2,images/tutalien1,images/tutrocket1,images/tutalien1,images/nothing.png,2,practice,true,1,common,0,2020-06-21T23:02:02Z,sub121
two-step-fixation,66,453255,0.0-61.0-2.1,FALSE,TRUE,TRUE,FALSE,"""event"",""trial"",""time""
""blur"",""4"",""159803""
""focus"",""4"",""159804""
""fullscreenenter"",""5"",""166830""
""blur"",""22"",""278044""
""focus"",""23"",""280050""
""blur"",""24"",""283788""
""focus"",""24"",""286624""
","""event"",""trial"",""time""
""blur"",""4"",""159803""
""blur"",""22"",""278044""
""blur"",""24"",""283788""
","""event"",""trial"",""time""
""focus"",""4"",""159804""
""focus"",""23"",""280050""
""focus"",""24"",""286624""
","""event"",""trial"",""time""
""fullscreenenter"",""5"",""166830""
","
",NA,images/earth.jpg,NA,NA,NA,NA,NA,NA,NA,NA,NA,NA,NA,NA,NA,fixation,NA,NA,NA,NA,NA,NA,sub121
d3-animate-choice,67,455721,0.0-61.0-0.2,FALSE,TRUE,TRUE,FALSE,"""event"",""trial"",""time""
""blur"",""4"",""159803""
""focus"",""4"",""159804""
""fullscreenenter"",""5"",""166830""
""blur"",""22"",""278044""
""focus"",""23"",""280050""
""blur"",""24"",""283788""
""focus"",""24"",""286624""
","""event"",""trial"",""time""
""blur"",""4"",""159803""
""blur"",""22"",""278044""
""blur"",""24"",""283788""
","""event"",""trial"",""time""
""focus"",""4"",""159804""
""focus"",""23"",""280050""
""focus"",""24"",""286624""
","""event"",""trial"",""time""
""fullscreenenter"",""5"",""166830""
","
",463.1550000049174,NA,49,NA,NA,3000,1,NA,NA,images/earth.jpg,images/tutrocket1,images/tutrocket2,null,images/tutrocket2,NA,1,practice,null,1,NA,NA,NA,sub121
d3-animate-choice,68,458338,0.0-61.0-1.2,FALSE,TRUE,TRUE,FALSE,"""event"",""trial"",""time""
""blur"",""4"",""159803""
""focus"",""4"",""159804""
""fullscreenenter"",""5"",""166830""
""blur"",""22"",""278044""
""focus"",""23"",""280050""
""blur"",""24"",""283788""
""focus"",""24"",""286624""
","""event"",""trial"",""time""
""blur"",""4"",""159803""
""blur"",""22"",""278044""
""blur"",""24"",""283788""
","""event"",""trial"",""time""
""focus"",""4"",""159804""
""focus"",""23"",""280050""
""focus"",""24"",""286624""
","""event"",""trial"",""time""
""fullscreenenter"",""5"",""166830""
","
",613.660000031814,NA,48,NA,NA,3000,1,NA,NA,images/tutgreenplanet.jpg,images/tutalien2,images/tutalien1,images/tutrocket2,images/tutalien2,images/nothing.png,2,practice,false,2,rare,0,2020-06-21T23:02:08Z,sub121
two-step-fixation,69,459343,0.0-61.0-2.2,FALSE,TRUE,TRUE,FALSE,"""event"",""trial"",""time""
""blur"",""4"",""159803""
""focus"",""4"",""159804""
""fullscreenenter"",""5"",""166830""
""blur"",""22"",""278044""
""focus"",""23"",""280050""
""blur"",""24"",""283788""
""focus"",""24"",""286624""
","""event"",""trial"",""time""
""blur"",""4"",""159803""
""blur"",""22"",""278044""
""blur"",""24"",""283788""
","""event"",""trial"",""time""
""focus"",""4"",""159804""
""focus"",""23"",""280050""
""focus"",""24"",""286624""
","""event"",""trial"",""time""
""fullscreenenter"",""5"",""166830""
","
",NA,images/earth.jpg,NA,NA,NA,NA,NA,NA,NA,NA,NA,NA,NA,NA,NA,fixation,NA,NA,NA,NA,NA,NA,sub121
d3-animate-choice,70,461528,0.0-61.0-0.3,FALSE,TRUE,TRUE,FALSE,"""event"",""trial"",""time""
""blur"",""4"",""159803""
""focus"",""4"",""159804""
""fullscreenenter"",""5"",""166830""
""blur"",""22"",""278044""
""focus"",""23"",""280050""
""blur"",""24"",""283788""
""focus"",""24"",""286624""
","""event"",""trial"",""time""
""blur"",""4"",""159803""
""blur"",""22"",""278044""
""blur"",""24"",""283788""
","""event"",""trial"",""time""
""focus"",""4"",""159804""
""focus"",""23"",""280050""
""focus"",""24"",""286624""
","""event"",""trial"",""time""
""fullscreenenter"",""5"",""166830""
","
",179.61500003002584,NA,48,NA,NA,3000,1,"348.28499995637685,516.3900000043213,676.355000003241,852.1799999289215,1028.1299999915063,1644.0299999667332,1820.0799999758601,2004.244999960065,2179.92000002414",484848484848484800,images/earth.jpg,images/tutrocket1,images/tutrocket2,null,images/tutrocket1,NA,1,practice,null,2,NA,NA,NA,sub121
d3-animate-choice,71,463689,0.0-61.0-1.3,FALSE,TRUE,TRUE,FALSE,"""event"",""trial"",""time""
""blur"",""4"",""159803""
""focus"",""4"",""159804""
""fullscreenenter"",""5"",""166830""
""blur"",""22"",""278044""
""focus"",""23"",""280050""
""blur"",""24"",""283788""
""focus"",""24"",""286624""
","""event"",""trial"",""time""
""blur"",""4"",""159803""
""blur"",""22"",""278044""
""blur"",""24"",""283788""
","""event"",""trial"",""time""
""focus"",""4"",""159804""
""focus"",""23"",""280050""
""focus"",""24"",""286624""
","""event"",""trial"",""time""
""fullscreenenter"",""5"",""166830""
","
",156.844999990426,NA,48,NA,NA,3000,1,"324.87000001128763,485.1049999706447",4848,images/tutgreenplanet.jpg,images/tutalien2,images/tutalien1,images/tutrocket1,images/tutalien2,images/nothing.png,2,practice,true,2,common,0,2020-06-21T23:02:13Z,sub121
two-step-fixation,72,464692,0.0-61.0-2.3,FALSE,TRUE,TRUE,FALSE,"""event"",""trial"",""time""
""blur"",""4"",""159803""
""focus"",""4"",""159804""
""fullscreenenter"",""5"",""166830""
""blur"",""22"",""278044""
""focus"",""23"",""280050""
""blur"",""24"",""283788""
""focus"",""24"",""286624""
","""event"",""trial"",""time""
""blur"",""4"",""159803""
""blur"",""22"",""278044""
""blur"",""24"",""283788""
","""event"",""trial"",""time""
""focus"",""4"",""159804""
""focus"",""23"",""280050""
""focus"",""24"",""286624""
","""event"",""trial"",""time""
""fullscreenenter"",""5"",""166830""
","
",NA,images/earth.jpg,NA,NA,NA,NA,NA,NA,NA,NA,NA,NA,NA,NA,NA,fixation,NA,NA,NA,NA,NA,NA,sub121
d3-animate-choice,73,467027,0.0-61.0-0.4,FALSE,TRUE,TRUE,FALSE,"""event"",""trial"",""time""
""blur"",""4"",""159803""
""focus"",""4"",""159804""
""fullscreenenter"",""5"",""166830""
""blur"",""22"",""278044""
""focus"",""23"",""280050""
""blur"",""24"",""283788""
""focus"",""24"",""286624""
","""event"",""trial"",""time""
""blur"",""4"",""159803""
""blur"",""22"",""278044""
""blur"",""24"",""283788""
","""event"",""trial"",""time""
""focus"",""4"",""159804""
""focus"",""23"",""280050""
""focus"",""24"",""286624""
","""event"",""trial"",""time""
""fullscreenenter"",""5"",""166830""
","
",330.4800000041723,NA,49,NA,NA,3000,1,"490.4050000477582,754.6400000574067,1090.2299999725074,1290.0900000240654,1562.2500000754371,1770.9500000346452,1971.9000000040978,2171.0500000044703",4949494949494949,images/earth.jpg,images/tutrocket1,images/tutrocket2,null,images/tutrocket2,NA,1,practice,null,1,NA,NA,NA,sub121
d3-animate-choice,74,469074,0.0-61.0-1.4,FALSE,TRUE,TRUE,FALSE,"""event"",""trial"",""time""
""blur"",""4"",""159803""
""focus"",""4"",""159804""
""fullscreenenter"",""5"",""166830""
""blur"",""22"",""278044""
""focus"",""23"",""280050""
""blur"",""24"",""283788""
""focus"",""24"",""286624""
","""event"",""trial"",""time""
""blur"",""4"",""159803""
""blur"",""22"",""278044""
""blur"",""24"",""283788""
","""event"",""trial"",""time""
""focus"",""4"",""159804""
""focus"",""23"",""280050""
""focus"",""24"",""286624""
","""event"",""trial"",""time""
""fullscreenenter"",""5"",""166830""
","
",43.809999944642186,NA,49,NA,NA,3000,1,NA,NA,images/tutyellowplanet.jpg,images/tutalien4,images/tutalien3,images/tutrocket2,images/tutalien3,images/nothing.png,2,practice,true,1,common,0,2020-06-21T23:02:19Z,sub121
two-step-fixation,75,470077,0.0-61.0-2.4,FALSE,TRUE,TRUE,FALSE,"""event"",""trial"",""time""
""blur"",""4"",""159803""
""focus"",""4"",""159804""
""fullscreenenter"",""5"",""166830""
""blur"",""22"",""278044""
""focus"",""23"",""280050""
""blur"",""24"",""283788""
""focus"",""24"",""286624""
","""event"",""trial"",""time""
""blur"",""4"",""159803""
""blur"",""22"",""278044""
""blur"",""24"",""283788""
","""event"",""trial"",""time""
""focus"",""4"",""159804""
""focus"",""23"",""280050""
""focus"",""24"",""286624""
","""event"",""trial"",""time""
""fullscreenenter"",""5"",""166830""
","
",NA,images/earth.jpg,NA,NA,NA,NA,NA,NA,NA,NA,NA,NA,NA,NA,NA,fixation,NA,NA,NA,NA,NA,NA,sub121
d3-animate-choice,76,472394,0.0-61.0-0.5,FALSE,TRUE,TRUE,FALSE,"""event"",""trial"",""time""
""blur"",""4"",""159803""
""focus"",""4"",""159804""
""fullscreenenter"",""5"",""166830""
""blur"",""22"",""278044""
""focus"",""23"",""280050""
""blur"",""24"",""283788""
""focus"",""24"",""286624""
","""event"",""trial"",""time""
""blur"",""4"",""159803""
""blur"",""22"",""278044""
""blur"",""24"",""283788""
","""event"",""trial"",""time""
""focus"",""4"",""159804""
""focus"",""23"",""280050""
""focus"",""24"",""286624""
","""event"",""trial"",""time""
""fullscreenenter"",""5"",""166830""
","
",314.03500004671514,NA,48,NA,NA,3000,1,"1498.395000002347,1698.380000074394,1962.2950000921264",494949,images/earth.jpg,images/tutrocket1,images/tutrocket2,null,images/tutrocket1,NA,1,practice,null,2,NA,NA,NA,sub121
d3-animate-choice,77,474417,0.0-61.0-1.5,FALSE,TRUE,TRUE,FALSE,"""event"",""trial"",""time""
""blur"",""4"",""159803""
""focus"",""4"",""159804""
""fullscreenenter"",""5"",""166830""
""blur"",""22"",""278044""
""focus"",""23"",""280050""
""blur"",""24"",""283788""
""focus"",""24"",""286624""
","""event"",""trial"",""time""
""blur"",""4"",""159803""
""blur"",""22"",""278044""
""blur"",""24"",""283788""
","""event"",""trial"",""time""
""focus"",""4"",""159804""
""focus"",""23"",""280050""
""focus"",""24"",""286624""
","""event"",""trial"",""time""
""fullscreenenter"",""5"",""166830""
","
",20.155000034719706,NA,49,NA,NA,3000,1,276.3000000268221,49,images/tutgreenplanet.jpg,images/tutalien2,images/tutalien1,images/tutrocket1,images/tutalien1,images/nothing.png,2,practice,true,1,common,0,2020-06-21T23:02:24Z,sub121
two-step-fixation,78,475421,0.0-61.0-2.5,FALSE,TRUE,TRUE,FALSE,"""event"",""trial"",""time""
""blur"",""4"",""159803""
""focus"",""4"",""159804""
""fullscreenenter"",""5"",""166830""
""blur"",""22"",""278044""
""focus"",""23"",""280050""
""blur"",""24"",""283788""
""focus"",""24"",""286624""
","""event"",""trial"",""time""
""blur"",""4"",""159803""
""blur"",""22"",""278044""
""blur"",""24"",""283788""
","""event"",""trial"",""time""
""focus"",""4"",""159804""
""focus"",""23"",""280050""
""focus"",""24"",""286624""
","""event"",""trial"",""time""
""fullscreenenter"",""5"",""166830""
","
",NA,images/earth.jpg,NA,NA,NA,NA,NA,NA,NA,NA,NA,NA,NA,NA,NA,fixation,NA,NA,NA,NA,NA,NA,sub121
d3-animate-choice,79,477563,0.0-61.0-0.6,FALSE,TRUE,TRUE,FALSE,"""event"",""trial"",""time""
""blur"",""4"",""159803""
""focus"",""4"",""159804""
""fullscreenenter"",""5"",""166830""
""blur"",""22"",""278044""
""focus"",""23"",""280050""
""blur"",""24"",""283788""
""focus"",""24"",""286624""
","""event"",""trial"",""time""
""blur"",""4"",""159803""
""blur"",""22"",""278044""
""blur"",""24"",""283788""
","""event"",""trial"",""time""
""focus"",""4"",""159804""
""focus"",""23"",""280050""
""focus"",""24"",""286624""
","""event"",""trial"",""time""
""fullscreenenter"",""5"",""166830""
","
",138.4649999672547,NA,48,NA,NA,3000,1,"322.56999996025115,1634.0049999998882,2026.7199999652803",484949,images/earth.jpg,images/tutrocket1,images/tutrocket2,null,images/tutrocket1,NA,1,practice,null,2,NA,NA,NA,sub121
d3-animate-choice,80,479858,0.0-61.0-1.6,FALSE,TRUE,TRUE,FALSE,"""event"",""trial"",""time""
""blur"",""4"",""159803""
""focus"",""4"",""159804""
""fullscreenenter"",""5"",""166830""
""blur"",""22"",""278044""
""focus"",""23"",""280050""
""blur"",""24"",""283788""
""focus"",""24"",""286624""
","""event"",""trial"",""time""
""blur"",""4"",""159803""
""blur"",""22"",""278044""
""blur"",""24"",""283788""
","""event"",""trial"",""time""
""focus"",""4"",""159804""
""focus"",""23"",""280050""
""focus"",""24"",""286624""
","""event"",""trial"",""time""
""fullscreenenter"",""5"",""166830""
","
",290.804999996908,NA,49,NA,NA,3000,1,858.9449999853969,49,images/tutgreenplanet.jpg,images/tutalien2,images/tutalien1,images/tutrocket1,images/tutalien1,images/nothing.png,2,practice,true,1,common,0,2020-06-21T23:02:29Z,sub121
two-step-fixation,81,480862,0.0-61.0-2.6,FALSE,TRUE,TRUE,FALSE,"""event"",""trial"",""time""
""blur"",""4"",""159803""
""focus"",""4"",""159804""
""fullscreenenter"",""5"",""166830""
""blur"",""22"",""278044""
""focus"",""23"",""280050""
""blur"",""24"",""283788""
""focus"",""24"",""286624""
","""event"",""trial"",""time""
""blur"",""4"",""159803""
""blur"",""22"",""278044""
""blur"",""24"",""283788""
","""event"",""trial"",""time""
""focus"",""4"",""159804""
""focus"",""23"",""280050""
""focus"",""24"",""286624""
","""event"",""trial"",""time""
""fullscreenenter"",""5"",""166830""
","
",NA,images/earth.jpg,NA,NA,NA,NA,NA,NA,NA,NA,NA,NA,NA,NA,NA,fixation,NA,NA,NA,NA,NA,NA,sub121
d3-animate-choice,82,483257,0.0-61.0-0.7,FALSE,TRUE,TRUE,FALSE,"""event"",""trial"",""time""
""blur"",""4"",""159803""
""focus"",""4"",""159804""
""fullscreenenter"",""5"",""166830""
""blur"",""22"",""278044""
""focus"",""23"",""280050""
""blur"",""24"",""283788""
""focus"",""24"",""286624""
","""event"",""trial"",""time""
""blur"",""4"",""159803""
""blur"",""22"",""278044""
""blur"",""24"",""283788""
","""event"",""trial"",""time""
""focus"",""4"",""159804""
""focus"",""23"",""280050""
""focus"",""24"",""286624""
","""event"",""trial"",""time""
""fullscreenenter"",""5"",""166830""
","
",390.2150000212714,NA,48,NA,NA,3000,1,583.1800000742078,48,images/earth.jpg,images/tutrocket1,images/tutrocket2,null,images/tutrocket1,NA,1,practice,null,2,NA,NA,NA,sub121
d3-animate-choice,83,485577,0.0-61.0-1.7,FALSE,TRUE,TRUE,FALSE,"""event"",""trial"",""time""
""blur"",""4"",""159803""
""focus"",""4"",""159804""
""fullscreenenter"",""5"",""166830""
""blur"",""22"",""278044""
""focus"",""23"",""280050""
""blur"",""24"",""283788""
""focus"",""24"",""286624""
","""event"",""trial"",""time""
""blur"",""4"",""159803""
""blur"",""22"",""278044""
""blur"",""24"",""283788""
","""event"",""trial"",""time""
""focus"",""4"",""159804""
""focus"",""23"",""280050""
""focus"",""24"",""286624""
","""event"",""trial"",""time""
""fullscreenenter"",""5"",""166830""
","
",317.76499992702156,NA,48,NA,NA,3000,1,485.939999925904,48,images/tutgreenplanet.jpg,images/tutalien2,images/tutalien1,images/tutrocket1,images/tutalien2,images/nothing.png,2,practice,true,2,common,0,2020-06-21T23:02:35Z,sub121
two-step-fixation,84,486581,0.0-61.0-2.7,FALSE,TRUE,TRUE,FALSE,"""event"",""trial"",""time""
""blur"",""4"",""159803""
""focus"",""4"",""159804""
""fullscreenenter"",""5"",""166830""
""blur"",""22"",""278044""
""focus"",""23"",""280050""
""blur"",""24"",""283788""
""focus"",""24"",""286624""
","""event"",""trial"",""time""
""blur"",""4"",""159803""
""blur"",""22"",""278044""
""blur"",""24"",""283788""
","""event"",""trial"",""time""
""focus"",""4"",""159804""
""focus"",""23"",""280050""
""focus"",""24"",""286624""
","""event"",""trial"",""time""
""fullscreenenter"",""5"",""166830""
","
",NA,images/earth.jpg,NA,NA,NA,NA,NA,NA,NA,NA,NA,NA,NA,NA,NA,fixation,NA,NA,NA,NA,NA,NA,sub121
d3-animate-choice,85,488651,0.0-61.0-0.8,FALSE,TRUE,TRUE,FALSE,"""event"",""trial"",""time""
""blur"",""4"",""159803""
""focus"",""4"",""159804""
""fullscreenenter"",""5"",""166830""
""blur"",""22"",""278044""
""focus"",""23"",""280050""
""blur"",""24"",""283788""
""focus"",""24"",""286624""
","""event"",""trial"",""time""
""blur"",""4"",""159803""
""blur"",""22"",""278044""
""blur"",""24"",""283788""
","""event"",""trial"",""time""
""focus"",""4"",""159804""
""focus"",""23"",""280050""
""focus"",""24"",""286624""
","""event"",""trial"",""time""
""fullscreenenter"",""5"",""166830""
","
",65.79500006046146,NA,49,NA,NA,3000,1,457.00499997474253,49,images/earth.jpg,images/tutrocket1,images/tutrocket2,null,images/tutrocket2,NA,1,practice,null,1,NA,NA,NA,sub121
d3-animate-choice,86,491099,0.0-61.0-1.8,FALSE,TRUE,TRUE,FALSE,"""event"",""trial"",""time""
""blur"",""4"",""159803""
""focus"",""4"",""159804""
""fullscreenenter"",""5"",""166830""
""blur"",""22"",""278044""
""focus"",""23"",""280050""
""blur"",""24"",""283788""
""focus"",""24"",""286624""
","""event"",""trial"",""time""
""blur"",""4"",""159803""
""blur"",""22"",""278044""
""blur"",""24"",""283788""
","""event"",""trial"",""time""
""focus"",""4"",""159804""
""focus"",""23"",""280050""
""focus"",""24"",""286624""
","""event"",""trial"",""time""
""fullscreenenter"",""5"",""166830""
","
",443.06499999947846,NA,49,NA,NA,3000,1,2180.73500005994,49,images/tutyellowplanet.jpg,images/tutalien4,images/tutalien3,images/tutrocket2,images/tutalien3,images/nothing.png,2,practice,true,1,common,0,2020-06-21T23:02:41Z,sub121
two-step-fixation,87,492103,0.0-61.0-2.8,FALSE,TRUE,TRUE,FALSE,"""event"",""trial"",""time""
""blur"",""4"",""159803""
""focus"",""4"",""159804""
""fullscreenenter"",""5"",""166830""
""blur"",""22"",""278044""
""focus"",""23"",""280050""
""blur"",""24"",""283788""
""focus"",""24"",""286624""
","""event"",""trial"",""time""
""blur"",""4"",""159803""
""blur"",""22"",""278044""
""blur"",""24"",""283788""
","""event"",""trial"",""time""
""focus"",""4"",""159804""
""focus"",""23"",""280050""
""focus"",""24"",""286624""
","""event"",""trial"",""time""
""fullscreenenter"",""5"",""166830""
","
",NA,images/earth.jpg,NA,NA,NA,NA,NA,NA,NA,NA,NA,NA,NA,NA,NA,fixation,NA,NA,NA,NA,NA,NA,sub121
d3-animate-choice,88,494107,0.0-61.0-0.9,FALSE,TRUE,TRUE,FALSE,"""event"",""trial"",""time""
""blur"",""4"",""159803""
""focus"",""4"",""159804""
""fullscreenenter"",""5"",""166830""
""blur"",""22"",""278044""
""focus"",""23"",""280050""
""blur"",""24"",""283788""
""focus"",""24"",""286624""
","""event"",""trial"",""time""
""blur"",""4"",""159803""
""blur"",""22"",""278044""
""blur"",""24"",""283788""
","""event"",""trial"",""time""
""focus"",""4"",""159804""
""focus"",""23"",""280050""
""focus"",""24"",""286624""
","""event"",""trial"",""time""
""fullscreenenter"",""5"",""166830""
","
",0.1949999714270234,NA,49,NA,NA,3000,1,"312.26999999489635,584.1999999247491,1567.975000012666",494948,images/earth.jpg,images/tutrocket1,images/tutrocket2,null,images/tutrocket2,NA,1,practice,null,1,NA,NA,NA,sub121
d3-animate-choice,89,496571,0.0-61.0-1.9,FALSE,TRUE,TRUE,FALSE,"""event"",""trial"",""time""
""blur"",""4"",""159803""
""focus"",""4"",""159804""
""fullscreenenter"",""5"",""166830""
""blur"",""22"",""278044""
""focus"",""23"",""280050""
""blur"",""24"",""283788""
""focus"",""24"",""286624""
","""event"",""trial"",""time""
""blur"",""4"",""159803""
""blur"",""22"",""278044""
""blur"",""24"",""283788""
","""event"",""trial"",""time""
""focus"",""4"",""159804""
""focus"",""23"",""280050""
""focus"",""24"",""286624""
","""event"",""trial"",""time""
""fullscreenenter"",""5"",""166830""
","
",459.3549999408424,NA,48,NA,NA,3000,1,699.6449999278411,48,images/tutyellowplanet.jpg,images/tutalien4,images/tutalien3,images/tutrocket2,images/tutalien4,images/nothing.png,2,practice,true,2,common,0,2020-06-21T23:02:46Z,sub121
two-step-fixation,90,497574,0.0-61.0-2.9,FALSE,TRUE,TRUE,FALSE,"""event"",""trial"",""time""
""blur"",""4"",""159803""
""focus"",""4"",""159804""
""fullscreenenter"",""5"",""166830""
""blur"",""22"",""278044""
""focus"",""23"",""280050""
""blur"",""24"",""283788""
""focus"",""24"",""286624""
","""event"",""trial"",""time""
""blur"",""4"",""159803""
""blur"",""22"",""278044""
""blur"",""24"",""283788""
","""event"",""trial"",""time""
""focus"",""4"",""159804""
""focus"",""23"",""280050""
""focus"",""24"",""286624""
","""event"",""trial"",""time""
""fullscreenenter"",""5"",""166830""
","
",NA,images/earth.jpg,NA,NA,NA,NA,NA,NA,NA,NA,NA,NA,NA,NA,NA,fixation,NA,NA,NA,NA,NA,NA,sub121
d3-animate-choice,91,499640,0.0-61.0-0.10,FALSE,TRUE,TRUE,FALSE,"""event"",""trial"",""time""
""blur"",""4"",""159803""
""focus"",""4"",""159804""
""fullscreenenter"",""5"",""166830""
""blur"",""22"",""278044""
""focus"",""23"",""280050""
""blur"",""24"",""283788""
""focus"",""24"",""286624""
","""event"",""trial"",""time""
""blur"",""4"",""159803""
""blur"",""22"",""278044""
""blur"",""24"",""283788""
","""event"",""trial"",""time""
""focus"",""4"",""159804""
""focus"",""23"",""280050""
""focus"",""24"",""286624""
","""event"",""trial"",""time""
""fullscreenenter"",""5"",""166830""
","
",56.825000094249845,NA,49,NA,NA,3000,1,"240.76000007335097,456.8500000750646,857.0450000697747,952.7150000212714,1344.5800000336021,1648.4250000212342,1832.2600000537932",49494949494949,images/earth.jpg,images/tutrocket1,images/tutrocket2,null,images/tutrocket2,NA,1,practice,null,1,NA,NA,NA,sub121
d3-animate-choice,92,501699,0.0-61.0-1.10,FALSE,TRUE,TRUE,FALSE,"""event"",""trial"",""time""
""blur"",""4"",""159803""
""focus"",""4"",""159804""
""fullscreenenter"",""5"",""166830""
""blur"",""22"",""278044""
""focus"",""23"",""280050""
""blur"",""24"",""283788""
""focus"",""24"",""286624""
","""event"",""trial"",""time""
""blur"",""4"",""159803""
""blur"",""22"",""278044""
""blur"",""24"",""283788""
","""event"",""trial"",""time""
""focus"",""4"",""159804""
""focus"",""23"",""280050""
""focus"",""24"",""286624""
","""event"",""trial"",""time""
""fullscreenenter"",""5"",""166830""
","
",52.844999940134585,NA,49,NA,NA,3000,1,"420.7849999656901,597.3600000143051",4949,images/tutyellowplanet.jpg,images/tutalien4,images/tutalien3,images/tutrocket2,images/tutalien3,images/t.png,2,practice,true,1,common,1,2020-06-21T23:02:51Z,sub121
two-step-fixation,93,502704,0.0-61.0-2.10,FALSE,TRUE,TRUE,FALSE,"""event"",""trial"",""time""
""blur"",""4"",""159803""
""focus"",""4"",""159804""
""fullscreenenter"",""5"",""166830""
""blur"",""22"",""278044""
""focus"",""23"",""280050""
""blur"",""24"",""283788""
""focus"",""24"",""286624""
","""event"",""trial"",""time""
""blur"",""4"",""159803""
""blur"",""22"",""278044""
""blur"",""24"",""283788""
","""event"",""trial"",""time""
""focus"",""4"",""159804""
""focus"",""23"",""280050""
""focus"",""24"",""286624""
","""event"",""trial"",""time""
""fullscreenenter"",""5"",""166830""
","
",NA,images/earth.jpg,NA,NA,NA,NA,NA,NA,NA,NA,NA,NA,NA,NA,NA,fixation,NA,NA,NA,NA,NA,NA,sub121
d3-animate-choice,94,504868,0.0-61.0-0.11,FALSE,TRUE,TRUE,FALSE,"""event"",""trial"",""time""
""blur"",""4"",""159803""
""focus"",""4"",""159804""
""fullscreenenter"",""5"",""166830""
""blur"",""22"",""278044""
""focus"",""23"",""280050""
""blur"",""24"",""283788""
""focus"",""24"",""286624""
","""event"",""trial"",""time""
""blur"",""4"",""159803""
""blur"",""22"",""278044""
""blur"",""24"",""283788""
","""event"",""trial"",""time""
""focus"",""4"",""159804""
""focus"",""23"",""280050""
""focus"",""24"",""286624""
","""event"",""trial"",""time""
""fullscreenenter"",""5"",""166830""
","
",159.58999993745238,NA,48,NA,NA,3000,1,"329.1149999713525,527.5649999966845,695.3199999406934,2071.559999953024",48484849,images/earth.jpg,images/tutrocket1,images/tutrocket2,null,images/tutrocket1,NA,1,practice,null,2,NA,NA,NA,sub121
d3-animate-choice,95,507019,0.0-61.0-1.11,FALSE,TRUE,TRUE,FALSE,"""event"",""trial"",""time""
""blur"",""4"",""159803""
""focus"",""4"",""159804""
""fullscreenenter"",""5"",""166830""
""blur"",""22"",""278044""
""focus"",""23"",""280050""
""blur"",""24"",""283788""
""focus"",""24"",""286624""
","""event"",""trial"",""time""
""blur"",""4"",""159803""
""blur"",""22"",""278044""
""blur"",""24"",""283788""
","""event"",""trial"",""time""
""focus"",""4"",""159804""
""focus"",""23"",""280050""
""focus"",""24"",""286624""
","""event"",""trial"",""time""
""fullscreenenter"",""5"",""166830""
","
",146.07000001706183,NA,49,NA,NA,3000,1,401.3450000202283,49,images/tutyellowplanet.jpg,images/tutalien4,images/tutalien3,images/tutrocket1,images/tutalien3,images/nothing.png,2,practice,false,1,rare,0,2020-06-21T23:02:57Z,sub121
two-step-fixation,96,508023,0.0-61.0-2.11,FALSE,TRUE,TRUE,FALSE,"""event"",""trial"",""time""
""blur"",""4"",""159803""
""focus"",""4"",""159804""
""fullscreenenter"",""5"",""166830""
""blur"",""22"",""278044""
""focus"",""23"",""280050""
""blur"",""24"",""283788""
""focus"",""24"",""286624""
","""event"",""trial"",""time""
""blur"",""4"",""159803""
""blur"",""22"",""278044""
""blur"",""24"",""283788""
","""event"",""trial"",""time""
""focus"",""4"",""159804""
""focus"",""23"",""280050""
""focus"",""24"",""286624""
","""event"",""trial"",""time""
""fullscreenenter"",""5"",""166830""
","
",NA,images/earth.jpg,NA,NA,NA,NA,NA,NA,NA,NA,NA,NA,NA,NA,NA,fixation,NA,NA,NA,NA,NA,NA,sub121
d3-animate-choice,97,510442,0.0-61.0-0.12,FALSE,TRUE,TRUE,FALSE,"""event"",""trial"",""time""
""blur"",""4"",""159803""
""focus"",""4"",""159804""
""fullscreenenter"",""5"",""166830""
""blur"",""22"",""278044""
""focus"",""23"",""280050""
""blur"",""24"",""283788""
""focus"",""24"",""286624""
","""event"",""trial"",""time""
""blur"",""4"",""159803""
""blur"",""22"",""278044""
""blur"",""24"",""283788""
","""event"",""trial"",""time""
""focus"",""4"",""159804""
""focus"",""23"",""280050""
""focus"",""24"",""286624""
","""event"",""trial"",""time""
""fullscreenenter"",""5"",""166830""
","
",415.7049999339506,NA,49,NA,NA,3000,1,"584.1049998998642,1568.034999887459",4949,images/earth.jpg,images/tutrocket1,images/tutrocket2,null,images/tutrocket2,NA,1,practice,null,1,NA,NA,NA,sub121
d3-animate-choice,98,513219,0.0-61.0-1.12,FALSE,TRUE,TRUE,FALSE,"""event"",""trial"",""time""
""blur"",""4"",""159803""
""focus"",""4"",""159804""
""fullscreenenter"",""5"",""166830""
""blur"",""22"",""278044""
""focus"",""23"",""280050""
""blur"",""24"",""283788""
""focus"",""24"",""286624""
","""event"",""trial"",""time""
""blur"",""4"",""159803""
""blur"",""22"",""278044""
""blur"",""24"",""283788""
","""event"",""trial"",""time""
""focus"",""4"",""159804""
""focus"",""23"",""280050""
""focus"",""24"",""286624""
","""event"",""trial"",""time""
""fullscreenenter"",""5"",""166830""
","
",773.6550000263378,NA,49,NA,NA,3000,1,NA,NA,images/tutyellowplanet.jpg,images/tutalien4,images/tutalien3,images/tutrocket2,images/tutalien3,images/nothing.png,2,practice,true,1,common,0,2020-06-21T23:03:03Z,sub121
two-step-fixation,99,514222,0.0-61.0-2.12,FALSE,TRUE,TRUE,FALSE,"""event"",""trial"",""time""
""blur"",""4"",""159803""
""focus"",""4"",""159804""
""fullscreenenter"",""5"",""166830""
""blur"",""22"",""278044""
""focus"",""23"",""280050""
""blur"",""24"",""283788""
""focus"",""24"",""286624""
","""event"",""trial"",""time""
""blur"",""4"",""159803""
""blur"",""22"",""278044""
""blur"",""24"",""283788""
","""event"",""trial"",""time""
""focus"",""4"",""159804""
""focus"",""23"",""280050""
""focus"",""24"",""286624""
","""event"",""trial"",""time""
""fullscreenenter"",""5"",""166830""
","
",NA,images/earth.jpg,NA,NA,NA,NA,NA,NA,NA,NA,NA,NA,NA,NA,NA,fixation,NA,NA,NA,NA,NA,NA,sub121
d3-animate-choice,100,516571,0.0-61.0-0.13,FALSE,TRUE,TRUE,FALSE,"""event"",""trial"",""time""
""blur"",""4"",""159803""
""focus"",""4"",""159804""
""fullscreenenter"",""5"",""166830""
""blur"",""22"",""278044""
""focus"",""23"",""280050""
""blur"",""24"",""283788""
""focus"",""24"",""286624""
","""event"",""trial"",""time""
""blur"",""4"",""159803""
""blur"",""22"",""278044""
""blur"",""24"",""283788""
","""event"",""trial"",""time""
""focus"",""4"",""159804""
""focus"",""23"",""280050""
""focus"",""24"",""286624""
","""event"",""trial"",""time""
""fullscreenenter"",""5"",""166830""
","
",346.03999997489154,NA,49,NA,NA,3000,1,"1681.044999975711,1872.7700000163168,2073.2050000224262,2273.5249999677762",48484848,images/earth.jpg,images/tutrocket1,images/tutrocket2,null,images/tutrocket2,NA,1,practice,null,1,NA,NA,NA,sub121
d3-animate-choice,101,518826,0.0-61.0-1.13,FALSE,TRUE,TRUE,FALSE,"""event"",""trial"",""time""
""blur"",""4"",""159803""
""focus"",""4"",""159804""
""fullscreenenter"",""5"",""166830""
""blur"",""22"",""278044""
""focus"",""23"",""280050""
""blur"",""24"",""283788""
""focus"",""24"",""286624""
","""event"",""trial"",""time""
""blur"",""4"",""159803""
""blur"",""22"",""278044""
""blur"",""24"",""283788""
","""event"",""trial"",""time""
""focus"",""4"",""159804""
""focus"",""23"",""280050""
""focus"",""24"",""286624""
","""event"",""trial"",""time""
""fullscreenenter"",""5"",""166830""
","
",251.75500009208918,NA,48,NA,NA,3000,1,"395.57500008959323,844.7250000899658,1067.7300000097603,1411.9950000895187,1587.4450000701472,1755.460000014864,2019.2750000860542,2235.2950000204146",4848484848484848,images/tutyellowplanet.jpg,images/tutalien4,images/tutalien3,images/tutrocket2,images/tutalien4,images/t.png,2,practice,true,2,common,1,2020-06-21T23:03:08Z,sub121
two-step-fixation,102,519830,0.0-61.0-2.13,FALSE,TRUE,TRUE,FALSE,"""event"",""trial"",""time""
""blur"",""4"",""159803""
""focus"",""4"",""159804""
""fullscreenenter"",""5"",""166830""
""blur"",""22"",""278044""
""focus"",""23"",""280050""
""blur"",""24"",""283788""
""focus"",""24"",""286624""
","""event"",""trial"",""time""
""blur"",""4"",""159803""
""blur"",""22"",""278044""
""blur"",""24"",""283788""
","""event"",""trial"",""time""
""focus"",""4"",""159804""
""focus"",""23"",""280050""
""focus"",""24"",""286624""
","""event"",""trial"",""time""
""fullscreenenter"",""5"",""166830""
","
",NA,images/earth.jpg,NA,NA,NA,NA,NA,NA,NA,NA,NA,NA,NA,NA,NA,fixation,NA,NA,NA,NA,NA,NA,sub121
d3-animate-choice,103,522026,0.0-61.0-0.14,FALSE,TRUE,TRUE,FALSE,"""event"",""trial"",""time""
""blur"",""4"",""159803""
""focus"",""4"",""159804""
""fullscreenenter"",""5"",""166830""
""blur"",""22"",""278044""
""focus"",""23"",""280050""
""blur"",""24"",""283788""
""focus"",""24"",""286624""
","""event"",""trial"",""time""
""blur"",""4"",""159803""
""blur"",""22"",""278044""
""blur"",""24"",""283788""
","""event"",""trial"",""time""
""focus"",""4"",""159804""
""focus"",""23"",""280050""
""focus"",""24"",""286624""
","""event"",""trial"",""time""
""fullscreenenter"",""5"",""166830""
","
",192.85500003024936,NA,48,NA,NA,3000,1,"401.0850000195205,585.0900000659749,1571.3700000196695,1897.0400000689551",48484949,images/earth.jpg,images/tutrocket1,images/tutrocket2,null,images/tutrocket1,NA,1,practice,null,2,NA,NA,NA,sub121
d3-animate-choice,104,525090,0.0-61.0-1.14,FALSE,TRUE,TRUE,FALSE,"""event"",""trial"",""time""
""blur"",""4"",""159803""
""focus"",""4"",""159804""
""fullscreenenter"",""5"",""166830""
""blur"",""22"",""278044""
""focus"",""23"",""280050""
""blur"",""24"",""283788""
""focus"",""24"",""286624""
","""event"",""trial"",""time""
""blur"",""4"",""159803""
""blur"",""22"",""278044""
""blur"",""24"",""283788""
","""event"",""trial"",""time""
""focus"",""4"",""159804""
""focus"",""23"",""280050""
""focus"",""24"",""286624""
","""event"",""trial"",""time""
""fullscreenenter"",""5"",""166830""
","
",1060.8800000045449,NA,49,NA,NA,3000,1,NA,NA,images/tutyellowplanet.jpg,images/tutalien4,images/tutalien3,images/tutrocket1,images/tutalien3,images/nothing.png,2,practice,false,1,rare,0,2020-06-21T23:03:15Z,sub121
two-step-fixation,105,526094,0.0-61.0-2.14,FALSE,TRUE,TRUE,FALSE,"""event"",""trial"",""time""
""blur"",""4"",""159803""
""focus"",""4"",""159804""
""fullscreenenter"",""5"",""166830""
""blur"",""22"",""278044""
""focus"",""23"",""280050""
""blur"",""24"",""283788""
""focus"",""24"",""286624""
","""event"",""trial"",""time""
""blur"",""4"",""159803""
""blur"",""22"",""278044""
""blur"",""24"",""283788""
","""event"",""trial"",""time""
""focus"",""4"",""159804""
""focus"",""23"",""280050""
""focus"",""24"",""286624""
","""event"",""trial"",""time""
""fullscreenenter"",""5"",""166830""
","
",NA,images/earth.jpg,NA,NA,NA,NA,NA,NA,NA,NA,NA,NA,NA,NA,NA,fixation,NA,NA,NA,NA,NA,NA,sub121
d3-animate-choice,106,528778,0.0-61.0-0.15,FALSE,TRUE,TRUE,FALSE,"""event"",""trial"",""time""
""blur"",""4"",""159803""
""focus"",""4"",""159804""
""fullscreenenter"",""5"",""166830""
""blur"",""22"",""278044""
""focus"",""23"",""280050""
""blur"",""24"",""283788""
""focus"",""24"",""286624""
","""event"",""trial"",""time""
""blur"",""4"",""159803""
""blur"",""22"",""278044""
""blur"",""24"",""283788""
","""event"",""trial"",""time""
""focus"",""4"",""159804""
""focus"",""23"",""280050""
""focus"",""24"",""286624""
","""event"",""trial"",""time""
""fullscreenenter"",""5"",""166830""
","
",679.8999999882653,NA,49,NA,NA,3000,1,"2359.950000070967,2600.0050000147894",4949,images/earth.jpg,images/tutrocket1,images/tutrocket2,null,images/tutrocket2,NA,1,practice,null,1,NA,NA,NA,sub121
d3-animate-choice,107,530888,0.0-61.0-1.15,FALSE,TRUE,TRUE,FALSE,"""event"",""trial"",""time""
""blur"",""4"",""159803""
""focus"",""4"",""159804""
""fullscreenenter"",""5"",""166830""
""blur"",""22"",""278044""
""focus"",""23"",""280050""
""blur"",""24"",""283788""
""focus"",""24"",""286624""
","""event"",""trial"",""time""
""blur"",""4"",""159803""
""blur"",""22"",""278044""
""blur"",""24"",""283788""
","""event"",""trial"",""time""
""focus"",""4"",""159804""
""focus"",""23"",""280050""
""focus"",""24"",""286624""
","""event"",""trial"",""time""
""fullscreenenter"",""5"",""166830""
","
",106.72999999951571,NA,49,NA,NA,3000,1,"563.0299999611452,1523.064999957569,1706.9800000172108,1883.4700000006706,2043.1399999652058",4948484848,images/tutyellowplanet.jpg,images/tutalien4,images/tutalien3,images/tutrocket2,images/tutalien3,images/nothing.png,2,practice,true,1,common,0,2020-06-21T23:03:20Z,sub121
two-step-fixation,108,531892,0.0-61.0-2.15,FALSE,TRUE,TRUE,FALSE,"""event"",""trial"",""time""
""blur"",""4"",""159803""
""focus"",""4"",""159804""
""fullscreenenter"",""5"",""166830""
""blur"",""22"",""278044""
""focus"",""23"",""280050""
""blur"",""24"",""283788""
""focus"",""24"",""286624""
","""event"",""trial"",""time""
""blur"",""4"",""159803""
""blur"",""22"",""278044""
""blur"",""24"",""283788""
","""event"",""trial"",""time""
""focus"",""4"",""159804""
""focus"",""23"",""280050""
""focus"",""24"",""286624""
","""event"",""trial"",""time""
""fullscreenenter"",""5"",""166830""
","
",NA,images/earth.jpg,NA,NA,NA,NA,NA,NA,NA,NA,NA,NA,NA,NA,NA,fixation,NA,NA,NA,NA,NA,NA,sub121
d3-animate-choice,109,534009,0.0-61.0-0.16,FALSE,TRUE,TRUE,FALSE,"""event"",""trial"",""time""
""blur"",""4"",""159803""
""focus"",""4"",""159804""
""fullscreenenter"",""5"",""166830""
""blur"",""22"",""278044""
""focus"",""23"",""280050""
""blur"",""24"",""283788""
""focus"",""24"",""286624""
","""event"",""trial"",""time""
""blur"",""4"",""159803""
""blur"",""22"",""278044""
""blur"",""24"",""283788""
","""event"",""trial"",""time""
""focus"",""4"",""159804""
""focus"",""23"",""280050""
""focus"",""24"",""286624""
","""event"",""trial"",""time""
""fullscreenenter"",""5"",""166830""
","
",113.61999996006489,NA,48,NA,NA,3000,1,"1657.6699999859557,1817.4749999307096,2002.284999936819",484848,images/earth.jpg,images/tutrocket1,images/tutrocket2,null,images/tutrocket1,NA,1,practice,null,2,NA,NA,NA,sub121
d3-animate-choice,110,536082,0.0-61.0-1.16,FALSE,TRUE,TRUE,FALSE,"""event"",""trial"",""time""
""blur"",""4"",""159803""
""focus"",""4"",""159804""
""fullscreenenter"",""5"",""166830""
""blur"",""22"",""278044""
""focus"",""23"",""280050""
""blur"",""24"",""283788""
""focus"",""24"",""286624""
","""event"",""trial"",""time""
""blur"",""4"",""159803""
""blur"",""22"",""278044""
""blur"",""24"",""283788""
","""event"",""trial"",""time""
""focus"",""4"",""159804""
""focus"",""23"",""280050""
""focus"",""24"",""286624""
","""event"",""trial"",""time""
""fullscreenenter"",""5"",""166830""
","
",67.9099999833852,NA,48,NA,NA,3000,1,"275.6550000049174,467.53999998327345",4848,images/tutgreenplanet.jpg,images/tutalien2,images/tutalien1,images/tutrocket1,images/tutalien2,images/nothing.png,2,practice,true,2,common,0,2020-06-21T23:03:26Z,sub121
two-step-fixation,111,537087,0.0-61.0-2.16,FALSE,TRUE,TRUE,FALSE,"""event"",""trial"",""time""
""blur"",""4"",""159803""
""focus"",""4"",""159804""
""fullscreenenter"",""5"",""166830""
""blur"",""22"",""278044""
""focus"",""23"",""280050""
""blur"",""24"",""283788""
""focus"",""24"",""286624""
","""event"",""trial"",""time""
""blur"",""4"",""159803""
""blur"",""22"",""278044""
""blur"",""24"",""283788""
","""event"",""trial"",""time""
""focus"",""4"",""159804""
""focus"",""23"",""280050""
""focus"",""24"",""286624""
","""event"",""trial"",""time""
""fullscreenenter"",""5"",""166830""
","
",NA,images/earth.jpg,NA,NA,NA,NA,NA,NA,NA,NA,NA,NA,NA,NA,NA,fixation,NA,NA,NA,NA,NA,NA,sub121
d3-animate-choice,112,539193,0.0-61.0-0.17,FALSE,TRUE,TRUE,FALSE,"""event"",""trial"",""time""
""blur"",""4"",""159803""
""focus"",""4"",""159804""
""fullscreenenter"",""5"",""166830""
""blur"",""22"",""278044""
""focus"",""23"",""280050""
""blur"",""24"",""283788""
""focus"",""24"",""286624""
","""event"",""trial"",""time""
""blur"",""4"",""159803""
""blur"",""22"",""278044""
""blur"",""24"",""283788""
","""event"",""trial"",""time""
""focus"",""4"",""159804""
""focus"",""23"",""280050""
""focus"",""24"",""286624""
","""event"",""trial"",""time""
""fullscreenenter"",""5"",""166830""
","
",101.85999993700534,NA,48,NA,NA,3000,1,NA,NA,images/earth.jpg,images/tutrocket1,images/tutrocket2,null,images/tutrocket1,NA,1,practice,null,2,NA,NA,NA,sub121
d3-animate-choice,113,541569,0.0-61.0-1.17,FALSE,TRUE,TRUE,FALSE,"""event"",""trial"",""time""
""blur"",""4"",""159803""
""focus"",""4"",""159804""
""fullscreenenter"",""5"",""166830""
""blur"",""22"",""278044""
""focus"",""23"",""280050""
""blur"",""24"",""283788""
""focus"",""24"",""286624""
","""event"",""trial"",""time""
""blur"",""4"",""159803""
""blur"",""22"",""278044""
""blur"",""24"",""283788""
","""event"",""trial"",""time""
""focus"",""4"",""159804""
""focus"",""23"",""280050""
""focus"",""24"",""286624""
","""event"",""trial"",""time""
""fullscreenenter"",""5"",""166830""
","
",373.69500007480383,NA,49,NA,NA,3000,1,NA,NA,images/tutyellowplanet.jpg,images/tutalien4,images/tutalien3,images/tutrocket1,images/tutalien3,images/t.png,2,practice,false,1,rare,1,2020-06-21T23:03:31Z,sub121
two-step-fixation,114,542573,0.0-61.0-2.17,FALSE,TRUE,TRUE,FALSE,"""event"",""trial"",""time""
""blur"",""4"",""159803""
""focus"",""4"",""159804""
""fullscreenenter"",""5"",""166830""
""blur"",""22"",""278044""
""focus"",""23"",""280050""
""blur"",""24"",""283788""
""focus"",""24"",""286624""
","""event"",""trial"",""time""
""blur"",""4"",""159803""
""blur"",""22"",""278044""
""blur"",""24"",""283788""
","""event"",""trial"",""time""
""focus"",""4"",""159804""
""focus"",""23"",""280050""
""focus"",""24"",""286624""
","""event"",""trial"",""time""
""fullscreenenter"",""5"",""166830""
","
",NA,images/earth.jpg,NA,NA,NA,NA,NA,NA,NA,NA,NA,NA,NA,NA,NA,fixation,NA,NA,NA,NA,NA,NA,sub121
d3-animate-choice,115,545009,0.0-61.0-0.18,FALSE,TRUE,TRUE,FALSE,"""event"",""trial"",""time""
""blur"",""4"",""159803""
""focus"",""4"",""159804""
""fullscreenenter"",""5"",""166830""
""blur"",""22"",""278044""
""focus"",""23"",""280050""
""blur"",""24"",""283788""
""focus"",""24"",""286624""
","""event"",""trial"",""time""
""blur"",""4"",""159803""
""blur"",""22"",""278044""
""blur"",""24"",""283788""
","""event"",""trial"",""time""
""focus"",""4"",""159804""
""focus"",""23"",""280050""
""focus"",""24"",""286624""
","""event"",""trial"",""time""
""fullscreenenter"",""5"",""166830""
","
",433.445000089705,NA,48,NA,NA,3000,1,NA,NA,images/earth.jpg,images/tutrocket1,images/tutrocket2,null,images/tutrocket1,NA,1,practice,null,2,NA,NA,NA,sub121
d3-animate-choice,116,547434,0.0-61.0-1.18,FALSE,TRUE,TRUE,FALSE,"""event"",""trial"",""time""
""blur"",""4"",""159803""
""focus"",""4"",""159804""
""fullscreenenter"",""5"",""166830""
""blur"",""22"",""278044""
""focus"",""23"",""280050""
""blur"",""24"",""283788""
""focus"",""24"",""286624""
","""event"",""trial"",""time""
""blur"",""4"",""159803""
""blur"",""22"",""278044""
""blur"",""24"",""283788""
","""event"",""trial"",""time""
""focus"",""4"",""159804""
""focus"",""23"",""280050""
""focus"",""24"",""286624""
","""event"",""trial"",""time""
""fullscreenenter"",""5"",""166830""
","
",420.879999990575,NA,48,NA,NA,3000,1,"589.3449999857694,2149.489999981597,2364.865000010468",484949,images/tutyellowplanet.jpg,images/tutalien4,images/tutalien3,images/tutrocket1,images/tutalien4,images/nothing.png,2,practice,false,2,rare,0,2020-06-21T23:03:37Z,sub121
two-step-fixation,117,548437,0.0-61.0-2.18,FALSE,TRUE,TRUE,FALSE,"""event"",""trial"",""time""
""blur"",""4"",""159803""
""focus"",""4"",""159804""
""fullscreenenter"",""5"",""166830""
""blur"",""22"",""278044""
""focus"",""23"",""280050""
""blur"",""24"",""283788""
""focus"",""24"",""286624""
","""event"",""trial"",""time""
""blur"",""4"",""159803""
""blur"",""22"",""278044""
""blur"",""24"",""283788""
","""event"",""trial"",""time""
""focus"",""4"",""159804""
""focus"",""23"",""280050""
""focus"",""24"",""286624""
","""event"",""trial"",""time""
""fullscreenenter"",""5"",""166830""
","
",NA,images/earth.jpg,NA,NA,NA,NA,NA,NA,NA,NA,NA,NA,NA,NA,NA,fixation,NA,NA,NA,NA,NA,NA,sub121
d3-animate-choice,118,550489,0.0-61.0-0.19,FALSE,TRUE,TRUE,FALSE,"""event"",""trial"",""time""
""blur"",""4"",""159803""
""focus"",""4"",""159804""
""fullscreenenter"",""5"",""166830""
""blur"",""22"",""278044""
""focus"",""23"",""280050""
""blur"",""24"",""283788""
""focus"",""24"",""286624""
","""event"",""trial"",""time""
""blur"",""4"",""159803""
""blur"",""22"",""278044""
""blur"",""24"",""283788""
","""event"",""trial"",""time""
""focus"",""4"",""159804""
""focus"",""23"",""280050""
""focus"",""24"",""286624""
","""event"",""trial"",""time""
""fullscreenenter"",""5"",""166830""
","
",49.310000031255186,NA,49,NA,NA,3000,1,"313.30000003799796,521.3549999753013,785.0600000238046,1073.355000000447,1209.5749999862164,1473.5299999592826,1705.3300000261515,1920.9150000242516",4949494949494949,images/earth.jpg,images/tutrocket1,images/tutrocket2,null,images/tutrocket2,NA,1,practice,null,1,NA,NA,NA,sub121
d3-animate-choice,119,552593,0.0-61.0-1.19,FALSE,TRUE,TRUE,FALSE,"""event"",""trial"",""time""
""blur"",""4"",""159803""
""focus"",""4"",""159804""
""fullscreenenter"",""5"",""166830""
""blur"",""22"",""278044""
""focus"",""23"",""280050""
""blur"",""24"",""283788""
""focus"",""24"",""286624""
","""event"",""trial"",""time""
""blur"",""4"",""159803""
""blur"",""22"",""278044""
""blur"",""24"",""283788""
","""event"",""trial"",""time""
""focus"",""4"",""159804""
""focus"",""23"",""280050""
""focus"",""24"",""286624""
","""event"",""trial"",""time""
""fullscreenenter"",""5"",""166830""
","
",100.61500000301749,NA,49,NA,NA,3000,1,"340.0499999988824,908.2700000144541,1300.9999999776483,1525.0099999830127",49494949,images/tutgreenplanet.jpg,images/tutalien2,images/tutalien1,images/tutrocket2,images/tutalien1,images/nothing.png,2,practice,false,1,rare,0,2020-06-21T23:03:42Z,sub121
two-step-fixation,120,553595,0.0-61.0-2.19,FALSE,TRUE,TRUE,FALSE,"""event"",""trial"",""time""
""blur"",""4"",""159803""
""focus"",""4"",""159804""
""fullscreenenter"",""5"",""166830""
""blur"",""22"",""278044""
""focus"",""23"",""280050""
""blur"",""24"",""283788""
""focus"",""24"",""286624""
","""event"",""trial"",""time""
""blur"",""4"",""159803""
""blur"",""22"",""278044""
""blur"",""24"",""283788""
","""event"",""trial"",""time""
""focus"",""4"",""159804""
""focus"",""23"",""280050""
""focus"",""24"",""286624""
","""event"",""trial"",""time""
""fullscreenenter"",""5"",""166830""
","
",NA,images/earth.jpg,NA,NA,NA,NA,NA,NA,NA,NA,NA,NA,NA,NA,NA,fixation,NA,NA,NA,NA,NA,NA,sub121
d3-instructions,121,557170,0.0-62.0,FALSE,TRUE,TRUE,FALSE,"""event"",""trial"",""time""
""blur"",""4"",""159803""
""focus"",""4"",""159804""
""fullscreenenter"",""5"",""166830""
""blur"",""22"",""278044""
""focus"",""23"",""280050""
""blur"",""24"",""283788""
""focus"",""24"",""286624""
","""event"",""trial"",""time""
""blur"",""4"",""159803""
""blur"",""22"",""278044""
""blur"",""24"",""283788""
","""event"",""trial"",""time""
""focus"",""4"",""159804""
""focus"",""23"",""280050""
""focus"",""24"",""286624""
","""event"",""trial"",""time""
""fullscreenenter"",""5"",""166830""
","
",NA,NA,NA,NA,NA,NA,NA,NA,NA,NA,NA,NA,NA,NA,NA,NA,NA,NA,NA,NA,NA,NA,sub121
audio-keyboard-response,122,559944,0.0-63.0,FALSE,TRUE,TRUE,FALSE,"""event"",""trial"",""time""
""blur"",""4"",""159803""
""focus"",""4"",""159804""
""fullscreenenter"",""5"",""166830""
""blur"",""22"",""278044""
""focus"",""23"",""280050""
""blur"",""24"",""283788""
""focus"",""24"",""286624""
","""event"",""trial"",""time""
""blur"",""4"",""159803""
""blur"",""22"",""278044""
""blur"",""24"",""283788""
","""event"",""trial"",""time""
""focus"",""4"",""159804""
""focus"",""23"",""280050""
""focus"",""24"",""286624""
","""event"",""trial"",""time""
""fullscreenenter"",""5"",""166830""
","
",2771,audio/instructions/treasure_feedback.wav,32,NA,NA,NA,NA,NA,NA,NA,NA,NA,NA,NA,NA,NA,NA,NA,NA,NA,NA,NA,sub121
d3-instructions,123,571522,0.0-64.0,FALSE,TRUE,TRUE,FALSE,"""event"",""trial"",""time""
""blur"",""4"",""159803""
""focus"",""4"",""159804""
""fullscreenenter"",""5"",""166830""
""blur"",""22"",""278044""
""focus"",""23"",""280050""
""blur"",""24"",""283788""
""focus"",""24"",""286624""
","""event"",""trial"",""time""
""blur"",""4"",""159803""
""blur"",""22"",""278044""
""blur"",""24"",""283788""
","""event"",""trial"",""time""
""focus"",""4"",""159804""
""focus"",""23"",""280050""
""focus"",""24"",""286624""
","""event"",""trial"",""time""
""fullscreenenter"",""5"",""166830""
","
",NA,NA,NA,NA,NA,NA,NA,NA,NA,NA,NA,NA,NA,NA,NA,NA,NA,NA,NA,NA,NA,NA,sub121
d3-instructions,124,599880,0.0-65.0,FALSE,TRUE,TRUE,FALSE,"""event"",""trial"",""time""
""blur"",""4"",""159803""
""focus"",""4"",""159804""
""fullscreenenter"",""5"",""166830""
""blur"",""22"",""278044""
""focus"",""23"",""280050""
""blur"",""24"",""283788""
""focus"",""24"",""286624""
","""event"",""trial"",""time""
""blur"",""4"",""159803""
""blur"",""22"",""278044""
""blur"",""24"",""283788""
","""event"",""trial"",""time""
""focus"",""4"",""159804""
""focus"",""23"",""280050""
""focus"",""24"",""286624""
","""event"",""trial"",""time""
""fullscreenenter"",""5"",""166830""
","
",NA,NA,NA,NA,NA,NA,NA,NA,NA,NA,NA,NA,NA,NA,NA,NA,NA,NA,NA,NA,NA,NA,sub121
d3-instructions,125,614969,0.0-66.0,FALSE,TRUE,TRUE,FALSE,"""event"",""trial"",""time""
""blur"",""4"",""159803""
""focus"",""4"",""159804""
""fullscreenenter"",""5"",""166830""
""blur"",""22"",""278044""
""focus"",""23"",""280050""
""blur"",""24"",""283788""
""focus"",""24"",""286624""
","""event"",""trial"",""time""
""blur"",""4"",""159803""
""blur"",""22"",""278044""
""blur"",""24"",""283788""
","""event"",""trial"",""time""
""focus"",""4"",""159804""
""focus"",""23"",""280050""
""focus"",""24"",""286624""
","""event"",""trial"",""time""
""fullscreenenter"",""5"",""166830""
","
",NA,NA,NA,NA,NA,NA,NA,NA,NA,NA,NA,NA,NA,NA,NA,NA,NA,NA,NA,NA,NA,NA,sub121
d3-instructions,126,629921,0.0-67.0,FALSE,TRUE,TRUE,FALSE,"""event"",""trial"",""time""
""blur"",""4"",""159803""
""focus"",""4"",""159804""
""fullscreenenter"",""5"",""166830""
""blur"",""22"",""278044""
""focus"",""23"",""280050""
""blur"",""24"",""283788""
""focus"",""24"",""286624""
","""event"",""trial"",""time""
""blur"",""4"",""159803""
""blur"",""22"",""278044""
""blur"",""24"",""283788""
","""event"",""trial"",""time""
""focus"",""4"",""159804""
""focus"",""23"",""280050""
""focus"",""24"",""286624""
","""event"",""trial"",""time""
""fullscreenenter"",""5"",""166830""
","
",NA,NA,NA,NA,NA,NA,NA,NA,NA,NA,NA,NA,NA,NA,NA,NA,NA,NA,NA,NA,NA,NA,sub121
d3-instructions,127,634241,0.0-68.0,FALSE,TRUE,TRUE,FALSE,"""event"",""trial"",""time""
""blur"",""4"",""159803""
""focus"",""4"",""159804""
""fullscreenenter"",""5"",""166830""
""blur"",""22"",""278044""
""focus"",""23"",""280050""
""blur"",""24"",""283788""
""focus"",""24"",""286624""
","""event"",""trial"",""time""
""blur"",""4"",""159803""
""blur"",""22"",""278044""
""blur"",""24"",""283788""
","""event"",""trial"",""time""
""focus"",""4"",""159804""
""focus"",""23"",""280050""
""focus"",""24"",""286624""
","""event"",""trial"",""time""
""fullscreenenter"",""5"",""166830""
","
",NA,NA,NA,NA,NA,NA,NA,NA,NA,NA,NA,NA,NA,NA,NA,NA,NA,NA,NA,NA,NA,NA,sub121
instructions-quiz,128,638831,0.0-69.0,FALSE,TRUE,TRUE,FALSE,"""event"",""trial"",""time""
""blur"",""4"",""159803""
""focus"",""4"",""159804""
""fullscreenenter"",""5"",""166830""
""blur"",""22"",""278044""
""focus"",""23"",""280050""
""blur"",""24"",""283788""
""focus"",""24"",""286624""
","""event"",""trial"",""time""
""blur"",""4"",""159803""
""blur"",""22"",""278044""
""blur"",""24"",""283788""
","""event"",""trial"",""time""
""focus"",""4"",""159804""
""focus"",""23"",""280050""
""focus"",""24"",""286624""
","""event"",""trial"",""time""
""fullscreenenter"",""5"",""166830""
","
",4587.939999997616,audio/quiz/Q1_Prompt.wav,NA,1,NA,NA,NA,NA,NA,NA,NA,NA,NA,NA,NA,NA,NA,NA,NA,NA,NA,NA,sub121
audio-keyboard-response,129,640410,0.0-70.0,FALSE,TRUE,TRUE,FALSE,"""event"",""trial"",""time""
""blur"",""4"",""159803""
""focus"",""4"",""159804""
""fullscreenenter"",""5"",""166830""
""blur"",""22"",""278044""
""focus"",""23"",""280050""
""blur"",""24"",""283788""
""focus"",""24"",""286624""
","""event"",""trial"",""time""
""blur"",""4"",""159803""
""blur"",""22"",""278044""
""blur"",""24"",""283788""
","""event"",""trial"",""time""
""focus"",""4"",""159804""
""focus"",""23"",""280050""
""focus"",""24"",""286624""
","""event"",""trial"",""time""
""fullscreenenter"",""5"",""166830""
","
",1571,audio/quiz/Q1_Correct.wav,32,NA,NA,NA,NA,NA,NA,NA,NA,NA,NA,NA,NA,NA,NA,NA,NA,NA,NA,NA,sub121
instructions-quiz,130,644602,0.0-71.0,FALSE,TRUE,TRUE,FALSE,"""event"",""trial"",""time""
""blur"",""4"",""159803""
""focus"",""4"",""159804""
""fullscreenenter"",""5"",""166830""
""blur"",""22"",""278044""
""focus"",""23"",""280050""
""blur"",""24"",""283788""
""focus"",""24"",""286624""
","""event"",""trial"",""time""
""blur"",""4"",""159803""
""blur"",""22"",""278044""
""blur"",""24"",""283788""
","""event"",""trial"",""time""
""focus"",""4"",""159804""
""focus"",""23"",""280050""
""focus"",""24"",""286624""
","""event"",""trial"",""time""
""fullscreenenter"",""5"",""166830""
","
",4191.5599999483675,audio/quiz/Q2_Prompt.wav,NA,0,NA,NA,NA,NA,NA,NA,NA,NA,NA,NA,NA,NA,NA,NA,NA,NA,NA,NA,sub121
audio-keyboard-response,131,646232,0.0-72.0,FALSE,TRUE,TRUE,FALSE,"""event"",""trial"",""time""
""blur"",""4"",""159803""
""focus"",""4"",""159804""
""fullscreenenter"",""5"",""166830""
""blur"",""22"",""278044""
""focus"",""23"",""280050""
""blur"",""24"",""283788""
""focus"",""24"",""286624""
","""event"",""trial"",""time""
""blur"",""4"",""159803""
""blur"",""22"",""278044""
""blur"",""24"",""283788""
","""event"",""trial"",""time""
""focus"",""4"",""159804""
""focus"",""23"",""280050""
""focus"",""24"",""286624""
","""event"",""trial"",""time""
""fullscreenenter"",""5"",""166830""
","
",1629,audio/quiz/Q2_Correct.wav,32,NA,NA,NA,NA,NA,NA,NA,NA,NA,NA,NA,NA,NA,NA,NA,NA,NA,NA,NA,sub121
instructions-quiz,132,647767,0.0-73.0,FALSE,TRUE,TRUE,FALSE,"""event"",""trial"",""time""
""blur"",""4"",""159803""
""focus"",""4"",""159804""
""fullscreenenter"",""5"",""166830""
""blur"",""22"",""278044""
""focus"",""23"",""280050""
""blur"",""24"",""283788""
""focus"",""24"",""286624""
","""event"",""trial"",""time""
""blur"",""4"",""159803""
""blur"",""22"",""278044""
""blur"",""24"",""283788""
","""event"",""trial"",""time""
""focus"",""4"",""159804""
""focus"",""23"",""280050""
""focus"",""24"",""286624""
","""event"",""trial"",""time""
""fullscreenenter"",""5"",""166830""
","
",1533.2850000122562,audio/quiz/Q3_Prompt.wav,NA,1,NA,NA,NA,NA,NA,NA,NA,NA,NA,NA,NA,NA,NA,NA,NA,NA,NA,NA,sub121
audio-keyboard-response,133,648520,0.0-74.0,FALSE,TRUE,TRUE,FALSE,"""event"",""trial"",""time""
""blur"",""4"",""159803""
""focus"",""4"",""159804""
""fullscreenenter"",""5"",""166830""
""blur"",""22"",""278044""
""focus"",""23"",""280050""
""blur"",""24"",""283788""
""focus"",""24"",""286624""
","""event"",""trial"",""time""
""blur"",""4"",""159803""
""blur"",""22"",""278044""
""blur"",""24"",""283788""
","""event"",""trial"",""time""
""focus"",""4"",""159804""
""focus"",""23"",""280050""
""focus"",""24"",""286624""
","""event"",""trial"",""time""
""fullscreenenter"",""5"",""166830""
","
",760,audio/quiz/Q3_Correct.wav,32,NA,NA,NA,NA,NA,NA,NA,NA,NA,NA,NA,NA,NA,NA,NA,NA,NA,NA,NA,sub121
d3-instructions,134,653866,0.0-75.0,FALSE,TRUE,TRUE,FALSE,"""event"",""trial"",""time""
""blur"",""4"",""159803""
""focus"",""4"",""159804""
""fullscreenenter"",""5"",""166830""
""blur"",""22"",""278044""
""focus"",""23"",""280050""
""blur"",""24"",""283788""
""focus"",""24"",""286624""
","""event"",""trial"",""time""
""blur"",""4"",""159803""
""blur"",""22"",""278044""
""blur"",""24"",""283788""
","""event"",""trial"",""time""
""focus"",""4"",""159804""
""focus"",""23"",""280050""
""focus"",""24"",""286624""
","""event"",""trial"",""time""
""fullscreenenter"",""5"",""166830""
","
",NA,NA,NA,NA,NA,NA,NA,NA,NA,NA,NA,NA,NA,NA,NA,NA,NA,NA,NA,NA,NA,NA,sub121
d3-animate-choice,135,657506,0.0-76.0-0.0,FALSE,TRUE,TRUE,FALSE,"""event"",""trial"",""time""
""blur"",""4"",""159803""
""focus"",""4"",""159804""
""fullscreenenter"",""5"",""166830""
""blur"",""22"",""278044""
""focus"",""23"",""280050""
""blur"",""24"",""283788""
""focus"",""24"",""286624""
","""event"",""trial"",""time""
""blur"",""4"",""159803""
""blur"",""22"",""278044""
""blur"",""24"",""283788""
","""event"",""trial"",""time""
""focus"",""4"",""159804""
""focus"",""23"",""280050""
""focus"",""24"",""286624""
","""event"",""trial"",""time""
""fullscreenenter"",""5"",""166830""
","
",1636.4899999462068,NA,49,NA,NA,3000,1,NA,NA,images/earth.jpg,images/rocket1,images/rocket2,null,images/rocket2,NA,1,real,null,1,NA,NA,NA,sub121
d3-animate-choice,136,661512,0.0-76.0-1.0,FALSE,TRUE,TRUE,FALSE,"""event"",""trial"",""time""
""blur"",""4"",""159803""
""focus"",""4"",""159804""
""fullscreenenter"",""5"",""166830""
""blur"",""22"",""278044""
""focus"",""23"",""280050""
""blur"",""24"",""283788""
""focus"",""24"",""286624""
","""event"",""trial"",""time""
""blur"",""4"",""159803""
""blur"",""22"",""278044""
""blur"",""24"",""283788""
","""event"",""trial"",""time""
""focus"",""4"",""159804""
""focus"",""23"",""280050""
""focus"",""24"",""286624""
","""event"",""trial"",""time""
""fullscreenenter"",""5"",""166830""
","
",3090.0350000010803,NA,49,NA,NA,3000,0,3673.229999956675,49,images/purpleplanet.jpg,images/alien4,images/alien3,images/rocket2,NA,NA,2,real,true,1,common,0,2020-06-21T23:05:31Z,sub121
two-step-fixation,137,662515,0.0-76.0-2.0,FALSE,TRUE,TRUE,FALSE,"""event"",""trial"",""time""
""blur"",""4"",""159803""
""focus"",""4"",""159804""
""fullscreenenter"",""5"",""166830""
""blur"",""22"",""278044""
""focus"",""23"",""280050""
""blur"",""24"",""283788""
""focus"",""24"",""286624""
","""event"",""trial"",""time""
""blur"",""4"",""159803""
""blur"",""22"",""278044""
""blur"",""24"",""283788""
","""event"",""trial"",""time""
""focus"",""4"",""159804""
""focus"",""23"",""280050""
""focus"",""24"",""286624""
","""event"",""trial"",""time""
""fullscreenenter"",""5"",""166830""
","
",NA,images/earth.jpg,NA,NA,NA,NA,NA,NA,NA,NA,NA,NA,NA,NA,NA,fixation,NA,NA,NA,NA,NA,NA,sub121
d3-animate-choice,138,665098,0.0-76.0-0.1,FALSE,TRUE,TRUE,FALSE,"""event"",""trial"",""time""
""blur"",""4"",""159803""
""focus"",""4"",""159804""
""fullscreenenter"",""5"",""166830""
""blur"",""22"",""278044""
""focus"",""23"",""280050""
""blur"",""24"",""283788""
""focus"",""24"",""286624""
","""event"",""trial"",""time""
""blur"",""4"",""159803""
""blur"",""22"",""278044""
""blur"",""24"",""283788""
","""event"",""trial"",""time""
""focus"",""4"",""159804""
""focus"",""23"",""280050""
""focus"",""24"",""286624""
","""event"",""trial"",""time""
""fullscreenenter"",""5"",""166830""
","
",579.5249999500811,NA,49,NA,NA,3000,1,NA,NA,images/earth.jpg,images/rocket1,images/rocket2,null,images/rocket2,NA,1,real,null,1,NA,NA,NA,sub121
d3-animate-choice,139,667644,0.0-76.0-1.1,FALSE,TRUE,TRUE,FALSE,"""event"",""trial"",""time""
""blur"",""4"",""159803""
""focus"",""4"",""159804""
""fullscreenenter"",""5"",""166830""
""blur"",""22"",""278044""
""focus"",""23"",""280050""
""blur"",""24"",""283788""
""focus"",""24"",""286624""
","""event"",""trial"",""time""
""blur"",""4"",""159803""
""blur"",""22"",""278044""
""blur"",""24"",""283788""
","""event"",""trial"",""time""
""focus"",""4"",""159804""
""focus"",""23"",""280050""
""focus"",""24"",""286624""
