trial_type,trial_index,time_elapsed,internal_node_id,rocket_sides,red_planet_first_rocket,red_display_order,purple_display_order,interactions,blur_events,focus_events,fullscreenenter_events,fullscreenexit_events,rt,stimulus,key_press,button_pressed,success,duration,valid_pressed,rts,keys,planet_text,right_text,left_text,center_text,chosen_text,reward_text,trial_stage,practice_trial,transition_type,choice,transition,reward,timestamp,subject_id
pavlovia,0,5,0.0-0.0,FALSE,FALSE,FALSE,TRUE,"
","
","
","
","
",NA,NA,NA,NA,NA,NA,NA,NA,NA,NA,NA,NA,NA,NA,NA,NA,NA,NA,NA,NA,NA,NA,sub118
html-keyboard-response,1,1381,0.0-1.0,FALSE,FALSE,FALSE,TRUE,"
","
","
","
","
",1374.3499999982305,Welcome! Press the space bar to begin.,32,NA,NA,NA,NA,NA,NA,NA,NA,NA,NA,NA,NA,NA,NA,NA,NA,NA,NA,NA,sub118
audio-keyboard-response,2,3685,0.0-2.0,FALSE,FALSE,FALSE,TRUE,"
","
","
","
","
",2183,audio/beep_loop.wav,32,NA,NA,NA,NA,NA,NA,NA,NA,NA,NA,NA,NA,NA,NA,NA,NA,NA,NA,NA,sub118
audio-button-response,3,5949,0.0-3.0,FALSE,FALSE,FALSE,TRUE,"
","
","
","
","
",NaN,audio/fish.mp3,NA,1,NA,NA,NA,NA,NA,NA,NA,NA,NA,NA,NA,NA,NA,NA,NA,NA,NA,NA,sub118
audio-button-response,4,8756,0.0-4.0,FALSE,FALSE,FALSE,TRUE,"""event"",""trial"",""time""
""fullscreenenter"",""5"",""12527""
","
","
","""event"",""trial"",""time""
""fullscreenenter"",""5"",""12527""
","
",NaN,audio/tiger.mp3,NA,4,NA,NA,NA,NA,NA,NA,NA,NA,NA,NA,NA,NA,NA,NA,NA,NA,NA,NA,sub118
fullscreen,5,13453,0.0-5.0,FALSE,FALSE,FALSE,TRUE,"""event"",""trial"",""time""
""fullscreenenter"",""5"",""12527""
""blur"",""6"",""14768""
""focus"",""6"",""32074""
""blur"",""6"",""33742""
""focus"",""6"",""34628""
","""event"",""trial"",""time""
""blur"",""6"",""14768""
""blur"",""6"",""33742""
","""event"",""trial"",""time""
""focus"",""6"",""32074""
""focus"",""6"",""34628""
","""event"",""trial"",""time""
""fullscreenenter"",""5"",""12527""
","
",NA,NA,NA,NA,TRUE,NA,NA,NA,NA,NA,NA,NA,NA,NA,NA,NA,NA,NA,NA,NA,NA,NA,sub118
d3-instructions,6,41201,0.0-6.0,FALSE,FALSE,FALSE,TRUE,"""event"",""trial"",""time""
""fullscreenenter"",""5"",""12527""
""blur"",""6"",""14768""
""focus"",""6"",""32074""
""blur"",""6"",""33742""
""focus"",""6"",""34628""
","""event"",""trial"",""time""
""blur"",""6"",""14768""
""blur"",""6"",""33742""
","""event"",""trial"",""time""
""focus"",""6"",""32074""
""focus"",""6"",""34628""
","""event"",""trial"",""time""
""fullscreenenter"",""5"",""12527""
","
",NA,NA,NA,NA,NA,NA,NA,NA,NA,NA,NA,NA,NA,NA,NA,NA,NA,NA,NA,NA,NA,NA,sub118
d3-instructions,7,50852,0.0-7.0,FALSE,FALSE,FALSE,TRUE,"""event"",""trial"",""time""
""fullscreenenter"",""5"",""12527""
""blur"",""6"",""14768""
""focus"",""6"",""32074""
""blur"",""6"",""33742""
""focus"",""6"",""34628""
","""event"",""trial"",""time""
""blur"",""6"",""14768""
""blur"",""6"",""33742""
","""event"",""trial"",""time""
""focus"",""6"",""32074""
""focus"",""6"",""34628""
","""event"",""trial"",""time""
""fullscreenenter"",""5"",""12527""
","
",NA,NA,NA,NA,NA,NA,NA,NA,NA,NA,NA,NA,NA,NA,NA,NA,NA,NA,NA,NA,NA,NA,sub118
d3-instructions,8,58124,0.0-8.0,FALSE,FALSE,FALSE,TRUE,"""event"",""trial"",""time""
""fullscreenenter"",""5"",""12527""
""blur"",""6"",""14768""
""focus"",""6"",""32074""
""blur"",""6"",""33742""
""focus"",""6"",""34628""
","""event"",""trial"",""time""
""blur"",""6"",""14768""
""blur"",""6"",""33742""
","""event"",""trial"",""time""
""focus"",""6"",""32074""
""focus"",""6"",""34628""
","""event"",""trial"",""time""
""fullscreenenter"",""5"",""12527""
","
",NA,NA,NA,NA,NA,NA,NA,NA,NA,NA,NA,NA,NA,NA,NA,NA,NA,NA,NA,NA,NA,NA,sub118
d3-instructions,9,71756,0.0-9.0,FALSE,FALSE,FALSE,TRUE,"""event"",""trial"",""time""
""fullscreenenter"",""5"",""12527""
""blur"",""6"",""14768""
""focus"",""6"",""32074""
""blur"",""6"",""33742""
""focus"",""6"",""34628""
","""event"",""trial"",""time""
""blur"",""6"",""14768""
""blur"",""6"",""33742""
","""event"",""trial"",""time""
""focus"",""6"",""32074""
""focus"",""6"",""34628""
","""event"",""trial"",""time""
""fullscreenenter"",""5"",""12527""
","
",NA,NA,NA,NA,NA,NA,NA,NA,NA,NA,NA,NA,NA,NA,NA,NA,NA,NA,NA,NA,NA,NA,sub118
d3-instructions,10,90997,0.0-10.0,FALSE,FALSE,FALSE,TRUE,"""event"",""trial"",""time""
""fullscreenenter"",""5"",""12527""
""blur"",""6"",""14768""
""focus"",""6"",""32074""
""blur"",""6"",""33742""
""focus"",""6"",""34628""
","""event"",""trial"",""time""
""blur"",""6"",""14768""
""blur"",""6"",""33742""
","""event"",""trial"",""time""
""focus"",""6"",""32074""
""focus"",""6"",""34628""
","""event"",""trial"",""time""
""fullscreenenter"",""5"",""12527""
","
",NA,NA,NA,NA,NA,NA,NA,NA,NA,NA,NA,NA,NA,NA,NA,NA,NA,NA,NA,NA,NA,NA,sub118
d3-animate-choice,11,93950,0.0-11.0,FALSE,FALSE,FALSE,TRUE,"""event"",""trial"",""time""
""fullscreenenter"",""5"",""12527""
""blur"",""6"",""14768""
""focus"",""6"",""32074""
""blur"",""6"",""33742""
""focus"",""6"",""34628""
","""event"",""trial"",""time""
""blur"",""6"",""14768""
""blur"",""6"",""33742""
","""event"",""trial"",""time""
""focus"",""6"",""32074""
""focus"",""6"",""34628""
","""event"",""trial"",""time""
""fullscreenenter"",""5"",""12527""
","
",947.7699999988545,NA,49,NA,NA,3000,1,"1697.5149999925634,2172.1049999905517,2946.9699999899603",484948,images/tutgreenplanet.jpg,images/tutalien1,images/tutalien2,null,images/tutalien2,NA,NA,practice,null,NA,NA,NA,NA,sub118
d3-animate-choice,12,96549,0.0-12.0,FALSE,FALSE,FALSE,TRUE,"""event"",""trial"",""time""
""fullscreenenter"",""5"",""12527""
""blur"",""6"",""14768""
""focus"",""6"",""32074""
""blur"",""6"",""33742""
""focus"",""6"",""34628""
","""event"",""trial"",""time""
""blur"",""6"",""14768""
""blur"",""6"",""33742""
","""event"",""trial"",""time""
""focus"",""6"",""32074""
""focus"",""6"",""34628""
","""event"",""trial"",""time""
""fullscreenenter"",""5"",""12527""
","
",597.1149999968475,NA,48,NA,NA,3000,1,NA,NA,images/tutgreenplanet.jpg,images/tutalien1,images/tutalien2,null,images/tutalien1,NA,NA,practice,null,NA,NA,NA,NA,sub118
d3-animate-choice,13,99048,0.0-13.0,FALSE,FALSE,FALSE,TRUE,"""event"",""trial"",""time""
""fullscreenenter"",""5"",""12527""
""blur"",""6"",""14768""
""focus"",""6"",""32074""
""blur"",""6"",""33742""
""focus"",""6"",""34628""
","""event"",""trial"",""time""
""blur"",""6"",""14768""
""blur"",""6"",""33742""
","""event"",""trial"",""time""
""focus"",""6"",""32074""
""focus"",""6"",""34628""
","""event"",""trial"",""time""
""fullscreenenter"",""5"",""12527""
","
",494.78999999701045,NA,48,NA,NA,3000,1,NA,NA,images/tutgreenplanet.jpg,images/tutalien1,images/tutalien2,null,images/tutalien1,NA,NA,practice,null,NA,NA,NA,NA,sub118
d3-animate-choice,14,101497,0.0-14.0,FALSE,FALSE,FALSE,TRUE,"""event"",""trial"",""time""
""fullscreenenter"",""5"",""12527""
""blur"",""6"",""14768""
""focus"",""6"",""32074""
""blur"",""6"",""33742""
""focus"",""6"",""34628""
","""event"",""trial"",""time""
""blur"",""6"",""14768""
""blur"",""6"",""33742""
","""event"",""trial"",""time""
""focus"",""6"",""32074""
""focus"",""6"",""34628""
","""event"",""trial"",""time""
""fullscreenenter"",""5"",""12527""
","
",445.93499999609776,NA,49,NA,NA,3000,1,NA,NA,images/tutgreenplanet.jpg,images/tutalien1,images/tutalien2,null,images/tutalien2,NA,NA,practice,null,NA,NA,NA,NA,sub118
d3-instructions,15,110046,0.0-15.0,FALSE,FALSE,FALSE,TRUE,"""event"",""trial"",""time""
""fullscreenenter"",""5"",""12527""
""blur"",""6"",""14768""
""focus"",""6"",""32074""
""blur"",""6"",""33742""
""focus"",""6"",""34628""
","""event"",""trial"",""time""
""blur"",""6"",""14768""
""blur"",""6"",""33742""
","""event"",""trial"",""time""
""focus"",""6"",""32074""
""focus"",""6"",""34628""
","""event"",""trial"",""time""
""fullscreenenter"",""5"",""12527""
","
",NA,NA,NA,NA,NA,NA,NA,NA,NA,NA,NA,NA,NA,NA,NA,NA,NA,NA,NA,NA,NA,NA,sub118
d3-instructions,16,117472,0.0-16.0,FALSE,FALSE,FALSE,TRUE,"""event"",""trial"",""time""
""fullscreenenter"",""5"",""12527""
""blur"",""6"",""14768""
""focus"",""6"",""32074""
""blur"",""6"",""33742""
""focus"",""6"",""34628""
","""event"",""trial"",""time""
""blur"",""6"",""14768""
""blur"",""6"",""33742""
","""event"",""trial"",""time""
""focus"",""6"",""32074""
""focus"",""6"",""34628""
","""event"",""trial"",""time""
""fullscreenenter"",""5"",""12527""
","
",NA,NA,NA,NA,NA,NA,NA,NA,NA,NA,NA,NA,NA,NA,NA,NA,NA,NA,NA,NA,NA,NA,sub118
d3-instructions,17,127968,0.0-17.0,FALSE,FALSE,FALSE,TRUE,"""event"",""trial"",""time""
""fullscreenenter"",""5"",""12527""
""blur"",""6"",""14768""
""focus"",""6"",""32074""
""blur"",""6"",""33742""
""focus"",""6"",""34628""
","""event"",""trial"",""time""
""blur"",""6"",""14768""
""blur"",""6"",""33742""
","""event"",""trial"",""time""
""focus"",""6"",""32074""
""focus"",""6"",""34628""
","""event"",""trial"",""time""
""fullscreenenter"",""5"",""12527""
","
",NA,NA,NA,NA,NA,NA,NA,NA,NA,NA,NA,NA,NA,NA,NA,NA,NA,NA,NA,NA,NA,NA,sub118
d3-instructions,18,142470,0.0-18.0,FALSE,FALSE,FALSE,TRUE,"""event"",""trial"",""time""
""fullscreenenter"",""5"",""12527""
""blur"",""6"",""14768""
""focus"",""6"",""32074""
""blur"",""6"",""33742""
""focus"",""6"",""34628""
","""event"",""trial"",""time""
""blur"",""6"",""14768""
""blur"",""6"",""33742""
","""event"",""trial"",""time""
""focus"",""6"",""32074""
""focus"",""6"",""34628""
","""event"",""trial"",""time""
""fullscreenenter"",""5"",""12527""
","
",NA,NA,NA,NA,NA,NA,NA,NA,NA,NA,NA,NA,NA,NA,NA,NA,NA,NA,NA,NA,NA,NA,sub118
d3-instructions,19,156843,0.0-19.0,FALSE,FALSE,FALSE,TRUE,"""event"",""trial"",""time""
""fullscreenenter"",""5"",""12527""
""blur"",""6"",""14768""
""focus"",""6"",""32074""
""blur"",""6"",""33742""
""focus"",""6"",""34628""
","""event"",""trial"",""time""
""blur"",""6"",""14768""
""blur"",""6"",""33742""
","""event"",""trial"",""time""
""focus"",""6"",""32074""
""focus"",""6"",""34628""
","""event"",""trial"",""time""
""fullscreenenter"",""5"",""12527""
","
",NA,NA,NA,NA,NA,NA,NA,NA,NA,NA,NA,NA,NA,NA,NA,NA,NA,NA,NA,NA,NA,NA,sub118
d3-animate-choice,20,159693,0.0-20.0,FALSE,FALSE,FALSE,TRUE,"""event"",""trial"",""time""
""fullscreenenter"",""5"",""12527""
""blur"",""6"",""14768""
""focus"",""6"",""32074""
""blur"",""6"",""33742""
""focus"",""6"",""34628""
","""event"",""trial"",""time""
""blur"",""6"",""14768""
""blur"",""6"",""33742""
","""event"",""trial"",""time""
""focus"",""6"",""32074""
""focus"",""6"",""34628""
","""event"",""trial"",""time""
""fullscreenenter"",""5"",""12527""
","
",847.330000004149,NA,49,NA,NA,3000,1,NA,NA,images/tutyellowplanet.jpg,null,images/tutalien3,null,images/tutalien3,images/t.png,NA,practice,null,NA,NA,NA,NA,sub118
d3-animate-choice,21,162097,0.0-21.0,FALSE,FALSE,FALSE,TRUE,"""event"",""trial"",""time""
""fullscreenenter"",""5"",""12527""
""blur"",""6"",""14768""
""focus"",""6"",""32074""
""blur"",""6"",""33742""
""focus"",""6"",""34628""
","""event"",""trial"",""time""
""blur"",""6"",""14768""
""blur"",""6"",""33742""
","""event"",""trial"",""time""
""focus"",""6"",""32074""
""focus"",""6"",""34628""
","""event"",""trial"",""time""
""fullscreenenter"",""5"",""12527""
","
",399.6250000054715,NA,49,NA,NA,3000,1,2097.265000003972,49,images/tutyellowplanet.jpg,null,images/tutalien3,null,images/tutalien3,images/t.png,NA,practice,null,NA,NA,NA,NA,sub118
d3-animate-choice,22,164395,0.0-22.0,FALSE,FALSE,FALSE,TRUE,"""event"",""trial"",""time""
""fullscreenenter"",""5"",""12527""
""blur"",""6"",""14768""
""focus"",""6"",""32074""
""blur"",""6"",""33742""
""focus"",""6"",""34628""
","""event"",""trial"",""time""
""blur"",""6"",""14768""
""blur"",""6"",""33742""
","""event"",""trial"",""time""
""focus"",""6"",""32074""
""focus"",""6"",""34628""
","""event"",""trial"",""time""
""fullscreenenter"",""5"",""12527""
","
",295.36999999254476,NA,49,NA,NA,3000,1,NA,NA,images/tutyellowplanet.jpg,null,images/tutalien3,null,images/tutalien3,images/t.png,NA,practice,null,NA,NA,NA,NA,sub118
d3-animate-choice,23,166719,0.0-23.0,FALSE,FALSE,FALSE,TRUE,"""event"",""trial"",""time""
""fullscreenenter"",""5"",""12527""
""blur"",""6"",""14768""
""focus"",""6"",""32074""
""blur"",""6"",""33742""
""focus"",""6"",""34628""
","""event"",""trial"",""time""
""blur"",""6"",""14768""
""blur"",""6"",""33742""
","""event"",""trial"",""time""
""focus"",""6"",""32074""
""focus"",""6"",""34628""
","""event"",""trial"",""time""
""fullscreenenter"",""5"",""12527""
","
",320.529999997234,NA,49,NA,NA,3000,1,NA,NA,images/tutyellowplanet.jpg,null,images/tutalien3,null,images/tutalien3,images/nothing.png,NA,practice,null,NA,NA,NA,NA,sub118
d3-animate-choice,24,169096,0.0-24.0,FALSE,FALSE,FALSE,TRUE,"""event"",""trial"",""time""
""fullscreenenter"",""5"",""12527""
""blur"",""6"",""14768""
""focus"",""6"",""32074""
""blur"",""6"",""33742""
""focus"",""6"",""34628""
","""event"",""trial"",""time""
""blur"",""6"",""14768""
""blur"",""6"",""33742""
","""event"",""trial"",""time""
""focus"",""6"",""32074""
""focus"",""6"",""34628""
","""event"",""trial"",""time""
""fullscreenenter"",""5"",""12527""
","
",373.78999999782536,NA,49,NA,NA,3000,1,NA,NA,images/tutyellowplanet.jpg,null,images/tutalien3,null,images/tutalien3,images/t.png,NA,practice,null,NA,NA,NA,NA,sub118
d3-animate-choice,25,171442,0.0-25.0,FALSE,FALSE,FALSE,TRUE,"""event"",""trial"",""time""
""fullscreenenter"",""5"",""12527""
""blur"",""6"",""14768""
""focus"",""6"",""32074""
""blur"",""6"",""33742""
""focus"",""6"",""34628""
","""event"",""trial"",""time""
""blur"",""6"",""14768""
""blur"",""6"",""33742""
","""event"",""trial"",""time""
""focus"",""6"",""32074""
""focus"",""6"",""34628""
","""event"",""trial"",""time""
""fullscreenenter"",""5"",""12527""
","
",343.62500000861473,NA,49,NA,NA,3000,1,NA,NA,images/tutyellowplanet.jpg,null,images/tutalien3,null,images/tutalien3,images/nothing.png,NA,practice,null,NA,NA,NA,NA,sub118
d3-animate-choice,26,173971,0.0-26.0,FALSE,FALSE,FALSE,TRUE,"""event"",""trial"",""time""
""fullscreenenter"",""5"",""12527""
""blur"",""6"",""14768""
""focus"",""6"",""32074""
""blur"",""6"",""33742""
""focus"",""6"",""34628""
","""event"",""trial"",""time""
""blur"",""6"",""14768""
""blur"",""6"",""33742""
","""event"",""trial"",""time""
""focus"",""6"",""32074""
""focus"",""6"",""34628""
","""event"",""trial"",""time""
""fullscreenenter"",""5"",""12527""
","
",525.6050000025425,NA,49,NA,NA,3000,1,1972.5800000014715,49,images/tutyellowplanet.jpg,null,images/tutalien3,null,images/tutalien3,images/t.png,NA,practice,null,NA,NA,NA,NA,sub118
d3-animate-choice,27,176297,0.0-27.0,FALSE,FALSE,FALSE,TRUE,"""event"",""trial"",""time""
""fullscreenenter"",""5"",""12527""
""blur"",""6"",""14768""
""focus"",""6"",""32074""
""blur"",""6"",""33742""
""focus"",""6"",""34628""
","""event"",""trial"",""time""
""blur"",""6"",""14768""
""blur"",""6"",""33742""
","""event"",""trial"",""time""
""focus"",""6"",""32074""
""focus"",""6"",""34628""
","""event"",""trial"",""time""
""fullscreenenter"",""5"",""12527""
","
",321.26499999139924,NA,49,NA,NA,3000,1,NA,NA,images/tutyellowplanet.jpg,null,images/tutalien3,null,images/tutalien3,images/nothing.png,NA,practice,null,NA,NA,NA,NA,sub118
d3-animate-choice,28,178619,0.0-28.0,FALSE,FALSE,FALSE,TRUE,"""event"",""trial"",""time""
""fullscreenenter"",""5"",""12527""
""blur"",""6"",""14768""
""focus"",""6"",""32074""
""blur"",""6"",""33742""
""focus"",""6"",""34628""
","""event"",""trial"",""time""
""blur"",""6"",""14768""
""blur"",""6"",""33742""
","""event"",""trial"",""time""
""focus"",""6"",""32074""
""focus"",""6"",""34628""
","""event"",""trial"",""time""
""fullscreenenter"",""5"",""12527""
","
",318.0949999950826,NA,49,NA,NA,3000,1,NA,NA,images/tutyellowplanet.jpg,null,images/tutalien3,null,images/tutalien3,images/t.png,NA,practice,null,NA,NA,NA,NA,sub118
d3-animate-choice,29,180944,0.0-29.0,FALSE,FALSE,FALSE,TRUE,"""event"",""trial"",""time""
""fullscreenenter"",""5"",""12527""
""blur"",""6"",""14768""
""focus"",""6"",""32074""
""blur"",""6"",""33742""
""focus"",""6"",""34628""
","""event"",""trial"",""time""
""blur"",""6"",""14768""
""blur"",""6"",""33742""
","""event"",""trial"",""time""
""focus"",""6"",""32074""
""focus"",""6"",""34628""
","""event"",""trial"",""time""
""fullscreenenter"",""5"",""12527""
","
",322.7400000032503,NA,49,NA,NA,3000,1,2120.309999998426,49,images/tutyellowplanet.jpg,null,images/tutalien3,null,images/tutalien3,images/t.png,NA,practice,null,NA,NA,NA,NA,sub118
d3-instructions,30,191089,0.0-30.0,FALSE,FALSE,FALSE,TRUE,"""event"",""trial"",""time""
""fullscreenenter"",""5"",""12527""
""blur"",""6"",""14768""
""focus"",""6"",""32074""
""blur"",""6"",""33742""
""focus"",""6"",""34628""
","""event"",""trial"",""time""
""blur"",""6"",""14768""
""blur"",""6"",""33742""
","""event"",""trial"",""time""
""focus"",""6"",""32074""
""focus"",""6"",""34628""
","""event"",""trial"",""time""
""fullscreenenter"",""5"",""12527""
","
",NA,NA,NA,NA,NA,NA,NA,NA,NA,NA,NA,NA,NA,NA,NA,NA,NA,NA,NA,NA,NA,NA,sub118
d3-instructions,31,200592,0.0-31.0,FALSE,FALSE,FALSE,TRUE,"""event"",""trial"",""time""
""fullscreenenter"",""5"",""12527""
""blur"",""6"",""14768""
""focus"",""6"",""32074""
""blur"",""6"",""33742""
""focus"",""6"",""34628""
","""event"",""trial"",""time""
""blur"",""6"",""14768""
""blur"",""6"",""33742""
","""event"",""trial"",""time""
""focus"",""6"",""32074""
""focus"",""6"",""34628""
","""event"",""trial"",""time""
""fullscreenenter"",""5"",""12527""
","
",NA,NA,NA,NA,NA,NA,NA,NA,NA,NA,NA,NA,NA,NA,NA,NA,NA,NA,NA,NA,NA,NA,sub118
d3-instructions,32,204014,0.0-32.0,FALSE,FALSE,FALSE,TRUE,"""event"",""trial"",""time""
""fullscreenenter"",""5"",""12527""
""blur"",""6"",""14768""
""focus"",""6"",""32074""
""blur"",""6"",""33742""
""focus"",""6"",""34628""
","""event"",""trial"",""time""
""blur"",""6"",""14768""
""blur"",""6"",""33742""
","""event"",""trial"",""time""
""focus"",""6"",""32074""
""focus"",""6"",""34628""
","""event"",""trial"",""time""
""fullscreenenter"",""5"",""12527""
","
",NA,NA,NA,NA,NA,NA,NA,NA,NA,NA,NA,NA,NA,NA,NA,NA,NA,NA,NA,NA,NA,NA,sub118
d3-instructions,33,209641,0.0-33.0,FALSE,FALSE,FALSE,TRUE,"""event"",""trial"",""time""
""fullscreenenter"",""5"",""12527""
""blur"",""6"",""14768""
""focus"",""6"",""32074""
""blur"",""6"",""33742""
""focus"",""6"",""34628""
","""event"",""trial"",""time""
""blur"",""6"",""14768""
""blur"",""6"",""33742""
","""event"",""trial"",""time""
""focus"",""6"",""32074""
""focus"",""6"",""34628""
","""event"",""trial"",""time""
""fullscreenenter"",""5"",""12527""
","
",NA,NA,NA,NA,NA,NA,NA,NA,NA,NA,NA,NA,NA,NA,NA,NA,NA,NA,NA,NA,NA,NA,sub118
d3-animate-choice,34,212464,0.0-34.0,FALSE,FALSE,FALSE,TRUE,"""event"",""trial"",""time""
""fullscreenenter"",""5"",""12527""
""blur"",""6"",""14768""
""focus"",""6"",""32074""
""blur"",""6"",""33742""
""focus"",""6"",""34628""
","""event"",""trial"",""time""
""blur"",""6"",""14768""
""blur"",""6"",""33742""
","""event"",""trial"",""time""
""focus"",""6"",""32074""
""focus"",""6"",""34628""
","""event"",""trial"",""time""
""fullscreenenter"",""5"",""12527""
","
",821.0649999964517,NA,49,NA,NA,3000,1,NA,NA,images/tutgreenplanet.jpg,images/tutalien1,images/tutalien2,null,images/tutalien2,images/t.png,NA,practice,null,NA,NA,NA,NA,sub118
d3-animate-choice,35,214867,0.0-35.0,FALSE,FALSE,FALSE,TRUE,"""event"",""trial"",""time""
""fullscreenenter"",""5"",""12527""
""blur"",""6"",""14768""
""focus"",""6"",""32074""
""blur"",""6"",""33742""
""focus"",""6"",""34628""
","""event"",""trial"",""time""
""blur"",""6"",""14768""
""blur"",""6"",""33742""
","""event"",""trial"",""time""
""focus"",""6"",""32074""
""focus"",""6"",""34628""
","""event"",""trial"",""time""
""fullscreenenter"",""5"",""12527""
","
",400.29999999387655,NA,49,NA,NA,3000,1,NA,NA,images/tutgreenplanet.jpg,images/tutalien1,images/tutalien2,null,images/tutalien2,images/t.png,NA,practice,null,NA,NA,NA,NA,sub118
d3-animate-choice,36,217218,0.0-36.0,FALSE,FALSE,FALSE,TRUE,"""event"",""trial"",""time""
""fullscreenenter"",""5"",""12527""
""blur"",""6"",""14768""
""focus"",""6"",""32074""
""blur"",""6"",""33742""
""focus"",""6"",""34628""
","""event"",""trial"",""time""
""blur"",""6"",""14768""
""blur"",""6"",""33742""
","""event"",""trial"",""time""
""focus"",""6"",""32074""
""focus"",""6"",""34628""
","""event"",""trial"",""time""
""fullscreenenter"",""5"",""12527""
","
",344.5400000055088,NA,49,NA,NA,3000,1,NA,NA,images/tutgreenplanet.jpg,images/tutalien1,images/tutalien2,null,images/tutalien2,images/t.png,NA,practice,null,NA,NA,NA,NA,sub118
d3-animate-choice,37,219546,0.0-37.0,FALSE,FALSE,FALSE,TRUE,"""event"",""trial"",""time""
""fullscreenenter"",""5"",""12527""
""blur"",""6"",""14768""
""focus"",""6"",""32074""
""blur"",""6"",""33742""
""focus"",""6"",""34628""
","""event"",""trial"",""time""
""blur"",""6"",""14768""
""blur"",""6"",""33742""
","""event"",""trial"",""time""
""focus"",""6"",""32074""
""focus"",""6"",""34628""
","""event"",""trial"",""time""
""fullscreenenter"",""5"",""12527""
","
",320.9599999972852,NA,49,NA,NA,3000,1,NA,NA,images/tutgreenplanet.jpg,images/tutalien1,images/tutalien2,null,images/tutalien2,images/t.png,NA,practice,null,NA,NA,NA,NA,sub118
d3-animate-choice,38,221943,0.0-38.0,FALSE,FALSE,FALSE,TRUE,"""event"",""trial"",""time""
""fullscreenenter"",""5"",""12527""
""blur"",""6"",""14768""
""focus"",""6"",""32074""
""blur"",""6"",""33742""
""focus"",""6"",""34628""
","""event"",""trial"",""time""
""blur"",""6"",""14768""
""blur"",""6"",""33742""
","""event"",""trial"",""time""
""focus"",""6"",""32074""
""focus"",""6"",""34628""
","""event"",""trial"",""time""
""fullscreenenter"",""5"",""12527""
","
",390.3899999859277,NA,49,NA,NA,3000,1,NA,NA,images/tutgreenplanet.jpg,images/tutalien1,images/tutalien2,null,images/tutalien2,images/t.png,NA,practice,null,NA,NA,NA,NA,sub118
d3-animate-choice,39,224316,0.0-39.0,FALSE,FALSE,FALSE,TRUE,"""event"",""trial"",""time""
""fullscreenenter"",""5"",""12527""
""blur"",""6"",""14768""
""focus"",""6"",""32074""
""blur"",""6"",""33742""
""focus"",""6"",""34628""
","""event"",""trial"",""time""
""blur"",""6"",""14768""
""blur"",""6"",""33742""
","""event"",""trial"",""time""
""focus"",""6"",""32074""
""focus"",""6"",""34628""
","""event"",""trial"",""time""
""fullscreenenter"",""5"",""12527""
","
",370.4850000067381,NA,49,NA,NA,3000,1,NA,NA,images/tutgreenplanet.jpg,images/tutalien1,images/tutalien2,null,images/tutalien2,images/nothing.png,NA,practice,null,NA,NA,NA,NA,sub118
d3-animate-choice,40,226768,0.0-40.0,FALSE,FALSE,FALSE,TRUE,"""event"",""trial"",""time""
""fullscreenenter"",""5"",""12527""
""blur"",""6"",""14768""
""focus"",""6"",""32074""
""blur"",""6"",""33742""
""focus"",""6"",""34628""
","""event"",""trial"",""time""
""blur"",""6"",""14768""
""blur"",""6"",""33742""
","""event"",""trial"",""time""
""focus"",""6"",""32074""
""focus"",""6"",""34628""
","""event"",""trial"",""time""
""fullscreenenter"",""5"",""12527""
","
",445.6449999997858,NA,49,NA,NA,3000,1,NA,NA,images/tutgreenplanet.jpg,images/tutalien1,images/tutalien2,null,images/tutalien2,images/t.png,NA,practice,null,NA,NA,NA,NA,sub118
d3-animate-choice,41,229292,0.0-41.0,FALSE,FALSE,FALSE,TRUE,"""event"",""trial"",""time""
""fullscreenenter"",""5"",""12527""
""blur"",""6"",""14768""
""focus"",""6"",""32074""
""blur"",""6"",""33742""
""focus"",""6"",""34628""
","""event"",""trial"",""time""
""blur"",""6"",""14768""
""blur"",""6"",""33742""
","""event"",""trial"",""time""
""focus"",""6"",""32074""
""focus"",""6"",""34628""
","""event"",""trial"",""time""
""fullscreenenter"",""5"",""12527""
","
",520.6049999978859,NA,49,NA,NA,3000,1,NA,NA,images/tutgreenplanet.jpg,images/tutalien1,images/tutalien2,null,images/tutalien2,images/nothing.png,NA,practice,null,NA,NA,NA,NA,sub118
d3-animate-choice,42,231814,0.0-42.0,FALSE,FALSE,FALSE,TRUE,"""event"",""trial"",""time""
""fullscreenenter"",""5"",""12527""
""blur"",""6"",""14768""
""focus"",""6"",""32074""
""blur"",""6"",""33742""
""focus"",""6"",""34628""
","""event"",""trial"",""time""
""blur"",""6"",""14768""
""blur"",""6"",""33742""
","""event"",""trial"",""time""
""focus"",""6"",""32074""
""focus"",""6"",""34628""
","""event"",""trial"",""time""
""fullscreenenter"",""5"",""12527""
","
",518.9700000046287,NA,49,NA,NA,3000,1,NA,NA,images/tutgreenplanet.jpg,images/tutalien1,images/tutalien2,null,images/tutalien2,images/t.png,NA,practice,null,NA,NA,NA,NA,sub118
d3-animate-choice,43,234145,0.0-43.0,FALSE,FALSE,FALSE,TRUE,"""event"",""trial"",""time""
""fullscreenenter"",""5"",""12527""
""blur"",""6"",""14768""
""focus"",""6"",""32074""
""blur"",""6"",""33742""
""focus"",""6"",""34628""
","""event"",""trial"",""time""
""blur"",""6"",""14768""
""blur"",""6"",""33742""
","""event"",""trial"",""time""
""focus"",""6"",""32074""
""focus"",""6"",""34628""
","""event"",""trial"",""time""
""fullscreenenter"",""5"",""12527""
","
",324.41499999549706,NA,49,NA,NA,3000,1,NA,NA,images/tutgreenplanet.jpg,images/tutalien1,images/tutalien2,null,images/tutalien2,images/t.png,NA,practice,null,NA,NA,NA,NA,sub118
d3-instructions,44,241636,0.0-44.0,FALSE,FALSE,FALSE,TRUE,"""event"",""trial"",""time""
""fullscreenenter"",""5"",""12527""
""blur"",""6"",""14768""
""focus"",""6"",""32074""
""blur"",""6"",""33742""
""focus"",""6"",""34628""
","""event"",""trial"",""time""
""blur"",""6"",""14768""
""blur"",""6"",""33742""
","""event"",""trial"",""time""
""focus"",""6"",""32074""
""focus"",""6"",""34628""
","""event"",""trial"",""time""
""fullscreenenter"",""5"",""12527""
","
",NA,NA,NA,NA,NA,NA,NA,NA,NA,NA,NA,NA,NA,NA,NA,NA,NA,NA,NA,NA,NA,NA,sub118
d3-instructions,45,244189,0.0-45.0,FALSE,FALSE,FALSE,TRUE,"""event"",""trial"",""time""
""fullscreenenter"",""5"",""12527""
""blur"",""6"",""14768""
""focus"",""6"",""32074""
""blur"",""6"",""33742""
""focus"",""6"",""34628""
","""event"",""trial"",""time""
""blur"",""6"",""14768""
""blur"",""6"",""33742""
","""event"",""trial"",""time""
""focus"",""6"",""32074""
""focus"",""6"",""34628""
","""event"",""trial"",""time""
""fullscreenenter"",""5"",""12527""
","
",NA,NA,NA,NA,NA,NA,NA,NA,NA,NA,NA,NA,NA,NA,NA,NA,NA,NA,NA,NA,NA,NA,sub118
d3-instructions,46,247336,0.0-46.0,FALSE,FALSE,FALSE,TRUE,"""event"",""trial"",""time""
""fullscreenenter"",""5"",""12527""
""blur"",""6"",""14768""
""focus"",""6"",""32074""
""blur"",""6"",""33742""
""focus"",""6"",""34628""
","""event"",""trial"",""time""
""blur"",""6"",""14768""
""blur"",""6"",""33742""
","""event"",""trial"",""time""
""focus"",""6"",""32074""
""focus"",""6"",""34628""
","""event"",""trial"",""time""
""fullscreenenter"",""5"",""12527""
","
",NA,NA,NA,NA,NA,NA,NA,NA,NA,NA,NA,NA,NA,NA,NA,NA,NA,NA,NA,NA,NA,NA,sub118
d3-instructions,47,258517,0.0-47.0,FALSE,FALSE,FALSE,TRUE,"""event"",""trial"",""time""
""fullscreenenter"",""5"",""12527""
""blur"",""6"",""14768""
""focus"",""6"",""32074""
""blur"",""6"",""33742""
""focus"",""6"",""34628""
","""event"",""trial"",""time""
""blur"",""6"",""14768""
""blur"",""6"",""33742""
","""event"",""trial"",""time""
""focus"",""6"",""32074""
""focus"",""6"",""34628""
","""event"",""trial"",""time""
""fullscreenenter"",""5"",""12527""
","
",NA,NA,NA,NA,NA,NA,NA,NA,NA,NA,NA,NA,NA,NA,NA,NA,NA,NA,NA,NA,NA,NA,sub118
d3-instructions,48,267011,0.0-48.0,FALSE,FALSE,FALSE,TRUE,"""event"",""trial"",""time""
""fullscreenenter"",""5"",""12527""
""blur"",""6"",""14768""
""focus"",""6"",""32074""
""blur"",""6"",""33742""
""focus"",""6"",""34628""
","""event"",""trial"",""time""
""blur"",""6"",""14768""
""blur"",""6"",""33742""
","""event"",""trial"",""time""
""focus"",""6"",""32074""
""focus"",""6"",""34628""
","""event"",""trial"",""time""
""fullscreenenter"",""5"",""12527""
","
",NA,NA,NA,NA,NA,NA,NA,NA,NA,NA,NA,NA,NA,NA,NA,NA,NA,NA,NA,NA,NA,NA,sub118
d3-instructions,49,274886,0.0-49.0,FALSE,FALSE,FALSE,TRUE,"""event"",""trial"",""time""
""fullscreenenter"",""5"",""12527""
""blur"",""6"",""14768""
""focus"",""6"",""32074""
""blur"",""6"",""33742""
""focus"",""6"",""34628""
","""event"",""trial"",""time""
""blur"",""6"",""14768""
""blur"",""6"",""33742""
","""event"",""trial"",""time""
""focus"",""6"",""32074""
""focus"",""6"",""34628""
","""event"",""trial"",""time""
""fullscreenenter"",""5"",""12527""
","
",NA,NA,NA,NA,NA,NA,NA,NA,NA,NA,NA,NA,NA,NA,NA,NA,NA,NA,NA,NA,NA,NA,sub118
d3-instructions,50,281584,0.0-50.0,FALSE,FALSE,FALSE,TRUE,"""event"",""trial"",""time""
""fullscreenenter"",""5"",""12527""
""blur"",""6"",""14768""
""focus"",""6"",""32074""
""blur"",""6"",""33742""
""focus"",""6"",""34628""
","""event"",""trial"",""time""
""blur"",""6"",""14768""
""blur"",""6"",""33742""
","""event"",""trial"",""time""
""focus"",""6"",""32074""
""focus"",""6"",""34628""
","""event"",""trial"",""time""
""fullscreenenter"",""5"",""12527""
","
",NA,NA,NA,NA,NA,NA,NA,NA,NA,NA,NA,NA,NA,NA,NA,NA,NA,NA,NA,NA,NA,NA,sub118
d3-instructions,51,283587,0.0-51.0,FALSE,FALSE,FALSE,TRUE,"""event"",""trial"",""time""
""fullscreenenter"",""5"",""12527""
""blur"",""6"",""14768""
""focus"",""6"",""32074""
""blur"",""6"",""33742""
""focus"",""6"",""34628""
","""event"",""trial"",""time""
""blur"",""6"",""14768""
""blur"",""6"",""33742""
","""event"",""trial"",""time""
""focus"",""6"",""32074""
""focus"",""6"",""34628""
","""event"",""trial"",""time""
""fullscreenenter"",""5"",""12527""
","
",NA,NA,NA,NA,NA,NA,NA,NA,NA,NA,NA,NA,NA,NA,NA,NA,NA,NA,NA,NA,NA,NA,sub118
d3-instructions,52,284884,0.0-52.0,FALSE,FALSE,FALSE,TRUE,"""event"",""trial"",""time""
""fullscreenenter"",""5"",""12527""
""blur"",""6"",""14768""
""focus"",""6"",""32074""
""blur"",""6"",""33742""
""focus"",""6"",""34628""
","""event"",""trial"",""time""
""blur"",""6"",""14768""
""blur"",""6"",""33742""
","""event"",""trial"",""time""
""focus"",""6"",""32074""
""focus"",""6"",""34628""
","""event"",""trial"",""time""
""fullscreenenter"",""5"",""12527""
","
",NA,NA,NA,NA,NA,NA,NA,NA,NA,NA,NA,NA,NA,NA,NA,NA,NA,NA,NA,NA,NA,NA,sub118
d3-instructions,53,291318,0.0-53.0,FALSE,FALSE,FALSE,TRUE,"""event"",""trial"",""time""
""fullscreenenter"",""5"",""12527""
""blur"",""6"",""14768""
""focus"",""6"",""32074""
""blur"",""6"",""33742""
""focus"",""6"",""34628""
","""event"",""trial"",""time""
""blur"",""6"",""14768""
""blur"",""6"",""33742""
","""event"",""trial"",""time""
""focus"",""6"",""32074""
""focus"",""6"",""34628""
","""event"",""trial"",""time""
""fullscreenenter"",""5"",""12527""
","
",NA,NA,NA,NA,NA,NA,NA,NA,NA,NA,NA,NA,NA,NA,NA,NA,NA,NA,NA,NA,NA,NA,sub118
d3-instructions,54,299933,0.0-54.0,FALSE,FALSE,FALSE,TRUE,"""event"",""trial"",""time""
""fullscreenenter"",""5"",""12527""
""blur"",""6"",""14768""
""focus"",""6"",""32074""
""blur"",""6"",""33742""
""focus"",""6"",""34628""
","""event"",""trial"",""time""
""blur"",""6"",""14768""
""blur"",""6"",""33742""
","""event"",""trial"",""time""
""focus"",""6"",""32074""
""focus"",""6"",""34628""
","""event"",""trial"",""time""
""fullscreenenter"",""5"",""12527""
","
",NA,NA,NA,NA,NA,NA,NA,NA,NA,NA,NA,NA,NA,NA,NA,NA,NA,NA,NA,NA,NA,NA,sub118
d3-instructions,55,304235,0.0-55.0,FALSE,FALSE,FALSE,TRUE,"""event"",""trial"",""time""
""fullscreenenter"",""5"",""12527""
""blur"",""6"",""14768""
""focus"",""6"",""32074""
""blur"",""6"",""33742""
""focus"",""6"",""34628""
","""event"",""trial"",""time""
""blur"",""6"",""14768""
""blur"",""6"",""33742""
","""event"",""trial"",""time""
""focus"",""6"",""32074""
""focus"",""6"",""34628""
","""event"",""trial"",""time""
""fullscreenenter"",""5"",""12527""
","
",NA,NA,NA,NA,NA,NA,NA,NA,NA,NA,NA,NA,NA,NA,NA,NA,NA,NA,NA,NA,NA,NA,sub118
d3-instructions,56,313782,0.0-56.0,FALSE,FALSE,FALSE,TRUE,"""event"",""trial"",""time""
""fullscreenenter"",""5"",""12527""
""blur"",""6"",""14768""
""focus"",""6"",""32074""
""blur"",""6"",""33742""
""focus"",""6"",""34628""
","""event"",""trial"",""time""
""blur"",""6"",""14768""
""blur"",""6"",""33742""
","""event"",""trial"",""time""
""focus"",""6"",""32074""
""focus"",""6"",""34628""
","""event"",""trial"",""time""
""fullscreenenter"",""5"",""12527""
","
",NA,NA,NA,NA,NA,NA,NA,NA,NA,NA,NA,NA,NA,NA,NA,NA,NA,NA,NA,NA,NA,NA,sub118
d3-instructions,57,324135,0.0-57.0,FALSE,FALSE,FALSE,TRUE,"""event"",""trial"",""time""
""fullscreenenter"",""5"",""12527""
""blur"",""6"",""14768""
""focus"",""6"",""32074""
""blur"",""6"",""33742""
""focus"",""6"",""34628""
","""event"",""trial"",""time""
""blur"",""6"",""14768""
""blur"",""6"",""33742""
","""event"",""trial"",""time""
""focus"",""6"",""32074""
""focus"",""6"",""34628""
","""event"",""trial"",""time""
""fullscreenenter"",""5"",""12527""
","
",NA,NA,NA,NA,NA,NA,NA,NA,NA,NA,NA,NA,NA,NA,NA,NA,NA,NA,NA,NA,NA,NA,sub118
d3-instructions,58,332581,0.0-58.0,FALSE,FALSE,FALSE,TRUE,"""event"",""trial"",""time""
""fullscreenenter"",""5"",""12527""
""blur"",""6"",""14768""
""focus"",""6"",""32074""
""blur"",""6"",""33742""
""focus"",""6"",""34628""
","""event"",""trial"",""time""
""blur"",""6"",""14768""
""blur"",""6"",""33742""
","""event"",""trial"",""time""
""focus"",""6"",""32074""
""focus"",""6"",""34628""
","""event"",""trial"",""time""
""fullscreenenter"",""5"",""12527""
","
",NA,NA,NA,NA,NA,NA,NA,NA,NA,NA,NA,NA,NA,NA,NA,NA,NA,NA,NA,NA,NA,NA,sub118
d3-instructions,59,334834,0.0-59.0,FALSE,FALSE,FALSE,TRUE,"""event"",""trial"",""time""
""fullscreenenter"",""5"",""12527""
""blur"",""6"",""14768""
""focus"",""6"",""32074""
""blur"",""6"",""33742""
""focus"",""6"",""34628""
","""event"",""trial"",""time""
""blur"",""6"",""14768""
""blur"",""6"",""33742""
","""event"",""trial"",""time""
""focus"",""6"",""32074""
""focus"",""6"",""34628""
","""event"",""trial"",""time""
""fullscreenenter"",""5"",""12527""
","
",NA,NA,NA,NA,NA,NA,NA,NA,NA,NA,NA,NA,NA,NA,NA,NA,NA,NA,NA,NA,NA,NA,sub118
d3-instructions,60,337830,0.0-60.0,FALSE,FALSE,FALSE,TRUE,"""event"",""trial"",""time""
""fullscreenenter"",""5"",""12527""
""blur"",""6"",""14768""
""focus"",""6"",""32074""
""blur"",""6"",""33742""
""focus"",""6"",""34628""
","""event"",""trial"",""time""
""blur"",""6"",""14768""
""blur"",""6"",""33742""
","""event"",""trial"",""time""
""focus"",""6"",""32074""
""focus"",""6"",""34628""
","""event"",""trial"",""time""
""fullscreenenter"",""5"",""12527""
","
",NA,NA,NA,NA,NA,NA,NA,NA,NA,NA,NA,NA,NA,NA,NA,NA,NA,NA,NA,NA,NA,NA,sub118
d3-animate-choice,61,340806,0.0-61.0-0.0,FALSE,FALSE,FALSE,TRUE,"""event"",""trial"",""time""
""fullscreenenter"",""5"",""12527""
""blur"",""6"",""14768""
""focus"",""6"",""32074""
""blur"",""6"",""33742""
""focus"",""6"",""34628""
","""event"",""trial"",""time""
""blur"",""6"",""14768""
""blur"",""6"",""33742""
","""event"",""trial"",""time""
""focus"",""6"",""32074""
""focus"",""6"",""34628""
","""event"",""trial"",""time""
""fullscreenenter"",""5"",""12527""
","
",972.9750000115018,NA,49,NA,NA,3000,1,NA,NA,images/earth.jpg,images/tutrocket1,images/tutrocket2,null,images/tutrocket2,NA,1,practice,null,1,NA,NA,NA,sub118
d3-animate-choice,62,343985,0.0-61.0-1.0,FALSE,FALSE,FALSE,TRUE,"""event"",""trial"",""time""
""fullscreenenter"",""5"",""12527""
""blur"",""6"",""14768""
""focus"",""6"",""32074""
""blur"",""6"",""33742""
""focus"",""6"",""34628""
","""event"",""trial"",""time""
""blur"",""6"",""14768""
""blur"",""6"",""33742""
","""event"",""trial"",""time""
""focus"",""6"",""32074""
""focus"",""6"",""34628""
","""event"",""trial"",""time""
""fullscreenenter"",""5"",""12527""
","
",1173.8699999987148,NA,49,NA,NA,3000,1,NA,NA,images/tutyellowplanet.jpg,images/tutalien4,images/tutalien3,images/tutrocket2,images/tutalien3,images/t.png,2,practice,false,1,rare,1,2020-06-22T14:35:06Z,sub118
two-step-fixation,63,344993,0.0-61.0-2.0,FALSE,FALSE,FALSE,TRUE,"""event"",""trial"",""time""
""fullscreenenter"",""5"",""12527""
""blur"",""6"",""14768""
""focus"",""6"",""32074""
""blur"",""6"",""33742""
""focus"",""6"",""34628""
","""event"",""trial"",""time""
""blur"",""6"",""14768""
""blur"",""6"",""33742""
","""event"",""trial"",""time""
""focus"",""6"",""32074""
""focus"",""6"",""34628""
","""event"",""trial"",""time""
""fullscreenenter"",""5"",""12527""
","
",NA,images/earth.jpg,NA,NA,NA,NA,NA,NA,NA,NA,NA,NA,NA,NA,NA,fixation,NA,NA,NA,NA,NA,NA,sub118
d3-animate-choice,64,347460,0.0-61.0-0.1,FALSE,FALSE,FALSE,TRUE,"""event"",""trial"",""time""
""fullscreenenter"",""5"",""12527""
""blur"",""6"",""14768""
""focus"",""6"",""32074""
""blur"",""6"",""33742""
""focus"",""6"",""34628""
","""event"",""trial"",""time""
""blur"",""6"",""14768""
""blur"",""6"",""33742""
","""event"",""trial"",""time""
""focus"",""6"",""32074""
""focus"",""6"",""34628""
","""event"",""trial"",""time""
""fullscreenenter"",""5"",""12527""
","
",460.8399999997346,NA,49,NA,NA,3000,1,NA,NA,images/earth.jpg,images/tutrocket1,images/tutrocket2,null,images/tutrocket2,NA,1,practice,null,1,NA,NA,NA,sub118
d3-animate-choice,65,349885,0.0-61.0-1.1,FALSE,FALSE,FALSE,TRUE,"""event"",""trial"",""time""
""fullscreenenter"",""5"",""12527""
""blur"",""6"",""14768""
""focus"",""6"",""32074""
""blur"",""6"",""33742""
""focus"",""6"",""34628""
","""event"",""trial"",""time""
""blur"",""6"",""14768""
""blur"",""6"",""33742""
","""event"",""trial"",""time""
""focus"",""6"",""32074""
""focus"",""6"",""34628""
","""event"",""trial"",""time""
""fullscreenenter"",""5"",""12527""
","
",420.0049999926705,NA,49,NA,NA,3000,1,NA,NA,images/tutyellowplanet.jpg,images/tutalien4,images/tutalien3,images/tutrocket2,images/tutalien3,images/nothing.png,2,practice,false,1,rare,0,2020-06-22T14:35:11Z,sub118
two-step-fixation,66,350891,0.0-61.0-2.1,FALSE,FALSE,FALSE,TRUE,"""event"",""trial"",""time""
""fullscreenenter"",""5"",""12527""
""blur"",""6"",""14768""
""focus"",""6"",""32074""
""blur"",""6"",""33742""
""focus"",""6"",""34628""
","""event"",""trial"",""time""
""blur"",""6"",""14768""
""blur"",""6"",""33742""
","""event"",""trial"",""time""
""focus"",""6"",""32074""
""focus"",""6"",""34628""
","""event"",""trial"",""time""
""fullscreenenter"",""5"",""12527""
","
",NA,images/earth.jpg,NA,NA,NA,NA,NA,NA,NA,NA,NA,NA,NA,NA,NA,fixation,NA,NA,NA,NA,NA,NA,sub118
d3-animate-choice,67,353683,0.0-61.0-0.2,FALSE,FALSE,FALSE,TRUE,"""event"",""trial"",""time""
""fullscreenenter"",""5"",""12527""
""blur"",""6"",""14768""
""focus"",""6"",""32074""
""blur"",""6"",""33742""
""focus"",""6"",""34628""
","""event"",""trial"",""time""
""blur"",""6"",""14768""
""blur"",""6"",""33742""
","""event"",""trial"",""time""
""focus"",""6"",""32074""
""focus"",""6"",""34628""
","""event"",""trial"",""time""
""fullscreenenter"",""5"",""12527""
","
",786.8400000006659,NA,49,NA,NA,3000,1,NA,NA,images/earth.jpg,images/tutrocket1,images/tutrocket2,null,images/tutrocket2,NA,1,practice,null,1,NA,NA,NA,sub118
d3-animate-choice,68,357509,0.0-61.0-1.2,FALSE,FALSE,FALSE,TRUE,"""event"",""trial"",""time""
""fullscreenenter"",""5"",""12527""
""blur"",""6"",""14768""
""focus"",""6"",""32074""
""blur"",""6"",""33742""
""focus"",""6"",""34628""
","""event"",""trial"",""time""
""blur"",""6"",""14768""
""blur"",""6"",""33742""
","""event"",""trial"",""time""
""focus"",""6"",""32074""
""focus"",""6"",""34628""
","""event"",""trial"",""time""
""fullscreenenter"",""5"",""12527""
","
",1823.804999992717,NA,48,NA,NA,3000,1,NA,NA,images/tutgreenplanet.jpg,images/tutalien2,images/tutalien1,images/tutrocket2,images/tutalien2,images/nothing.png,2,practice,true,2,common,0,2020-06-22T14:35:19Z,sub118
two-step-fixation,69,358512,0.0-61.0-2.2,FALSE,FALSE,FALSE,TRUE,"""event"",""trial"",""time""
""fullscreenenter"",""5"",""12527""
""blur"",""6"",""14768""
""focus"",""6"",""32074""
""blur"",""6"",""33742""
""focus"",""6"",""34628""
","""event"",""trial"",""time""
""blur"",""6"",""14768""
""blur"",""6"",""33742""
","""event"",""trial"",""time""
""focus"",""6"",""32074""
""focus"",""6"",""34628""
","""event"",""trial"",""time""
""fullscreenenter"",""5"",""12527""
","
",NA,images/earth.jpg,NA,NA,NA,NA,NA,NA,NA,NA,NA,NA,NA,NA,NA,fixation,NA,NA,NA,NA,NA,NA,sub118
d3-animate-choice,70,361055,0.0-61.0-0.3,FALSE,FALSE,FALSE,TRUE,"""event"",""trial"",""time""
""fullscreenenter"",""5"",""12527""
""blur"",""6"",""14768""
""focus"",""6"",""32074""
""blur"",""6"",""33742""
""focus"",""6"",""34628""
","""event"",""trial"",""time""
""blur"",""6"",""14768""
""blur"",""6"",""33742""
","""event"",""trial"",""time""
""focus"",""6"",""32074""
""focus"",""6"",""34628""
","""event"",""trial"",""time""
""fullscreenenter"",""5"",""12527""
","
",539.8849999910453,NA,49,NA,NA,3000,1,NA,NA,images/earth.jpg,images/tutrocket1,images/tutrocket2,null,images/tutrocket2,NA,1,practice,null,1,NA,NA,NA,sub118
d3-animate-choice,71,363857,0.0-61.0-1.3,FALSE,FALSE,FALSE,TRUE,"""event"",""trial"",""time""
""fullscreenenter"",""5"",""12527""
""blur"",""6"",""14768""
""focus"",""6"",""32074""
""blur"",""6"",""33742""
""focus"",""6"",""34628""
","""event"",""trial"",""time""
""blur"",""6"",""14768""
""blur"",""6"",""33742""
","""event"",""trial"",""time""
""focus"",""6"",""32074""
""focus"",""6"",""34628""
","""event"",""trial"",""time""
""fullscreenenter"",""5"",""12527""
","
",799.8350000125356,NA,49,NA,NA,3000,1,NA,NA,images/tutyellowplanet.jpg,images/tutalien4,images/tutalien3,images/tutrocket2,images/tutalien3,images/t.png,2,practice,false,1,rare,1,2020-06-22T14:35:25Z,sub118
two-step-fixation,72,364861,0.0-61.0-2.3,FALSE,FALSE,FALSE,TRUE,"""event"",""trial"",""time""
""fullscreenenter"",""5"",""12527""
""blur"",""6"",""14768""
""focus"",""6"",""32074""
""blur"",""6"",""33742""
""focus"",""6"",""34628""
","""event"",""trial"",""time""
""blur"",""6"",""14768""
""blur"",""6"",""33742""
","""event"",""trial"",""time""
""focus"",""6"",""32074""
""focus"",""6"",""34628""
","""event"",""trial"",""time""
""fullscreenenter"",""5"",""12527""
","
",NA,images/earth.jpg,NA,NA,NA,NA,NA,NA,NA,NA,NA,NA,NA,NA,NA,fixation,NA,NA,NA,NA,NA,NA,sub118
d3-animate-choice,73,367254,0.0-61.0-0.4,FALSE,FALSE,FALSE,TRUE,"""event"",""trial"",""time""
""fullscreenenter"",""5"",""12527""
""blur"",""6"",""14768""
""focus"",""6"",""32074""
""blur"",""6"",""33742""
""focus"",""6"",""34628""
","""event"",""trial"",""time""
""blur"",""6"",""14768""
""blur"",""6"",""33742""
","""event"",""trial"",""time""
""focus"",""6"",""32074""
""focus"",""6"",""34628""
","""event"",""trial"",""time""
""fullscreenenter"",""5"",""12527""
","
",391.37499999196734,NA,49,NA,NA,3000,1,NA,NA,images/earth.jpg,images/tutrocket1,images/tutrocket2,null,images/tutrocket2,NA,1,practice,null,1,NA,NA,NA,sub118
d3-animate-choice,74,370583,0.0-61.0-1.4,FALSE,FALSE,FALSE,TRUE,"""event"",""trial"",""time""
""fullscreenenter"",""5"",""12527""
""blur"",""6"",""14768""
""focus"",""6"",""32074""
""blur"",""6"",""33742""
""focus"",""6"",""34628""
","""event"",""trial"",""time""
""blur"",""6"",""14768""
""blur"",""6"",""33742""
","""event"",""trial"",""time""
""focus"",""6"",""32074""
""focus"",""6"",""34628""
","""event"",""trial"",""time""
""fullscreenenter"",""5"",""12527""
","
",1325.589999993099,NA,49,NA,NA,3000,1,NA,NA,images/tutgreenplanet.jpg,images/tutalien2,images/tutalien1,images/tutrocket2,images/tutalien1,images/nothing.png,2,practice,true,1,common,0,2020-06-22T14:35:32Z,sub118
two-step-fixation,75,371585,0.0-61.0-2.4,FALSE,FALSE,FALSE,TRUE,"""event"",""trial"",""time""
""fullscreenenter"",""5"",""12527""
""blur"",""6"",""14768""
""focus"",""6"",""32074""
""blur"",""6"",""33742""
""focus"",""6"",""34628""
","""event"",""trial"",""time""
""blur"",""6"",""14768""
""blur"",""6"",""33742""
","""event"",""trial"",""time""
""focus"",""6"",""32074""
""focus"",""6"",""34628""
","""event"",""trial"",""time""
""fullscreenenter"",""5"",""12527""
","
",NA,images/earth.jpg,NA,NA,NA,NA,NA,NA,NA,NA,NA,NA,NA,NA,NA,fixation,NA,NA,NA,NA,NA,NA,sub118
d3-animate-choice,76,374031,0.0-61.0-0.5,FALSE,FALSE,FALSE,TRUE,"""event"",""trial"",""time""
""fullscreenenter"",""5"",""12527""
""blur"",""6"",""14768""
""focus"",""6"",""32074""
""blur"",""6"",""33742""
""focus"",""6"",""34628""
","""event"",""trial"",""time""
""blur"",""6"",""14768""
""blur"",""6"",""33742""
","""event"",""trial"",""time""
""focus"",""6"",""32074""
""focus"",""6"",""34628""
","""event"",""trial"",""time""
""fullscreenenter"",""5"",""12527""
","
",440.7250000076601,NA,49,NA,NA,3000,1,NA,NA,images/earth.jpg,images/tutrocket1,images/tutrocket2,null,images/tutrocket2,NA,1,practice,null,1,NA,NA,NA,sub118
d3-animate-choice,77,376956,0.0-61.0-1.5,FALSE,FALSE,FALSE,TRUE,"""event"",""trial"",""time""
""fullscreenenter"",""5"",""12527""
""blur"",""6"",""14768""
""focus"",""6"",""32074""
""blur"",""6"",""33742""
""focus"",""6"",""34628""
","""event"",""trial"",""time""
""blur"",""6"",""14768""
""blur"",""6"",""33742""
","""event"",""trial"",""time""
""focus"",""6"",""32074""
""focus"",""6"",""34628""
","""event"",""trial"",""time""
""fullscreenenter"",""5"",""12527""
","
",920.8599999983562,NA,48,NA,NA,3000,1,NA,NA,images/tutgreenplanet.jpg,images/tutalien2,images/tutalien1,images/tutrocket2,images/tutalien2,images/t.png,2,practice,true,2,common,1,2020-06-22T14:35:39Z,sub118
two-step-fixation,78,377960,0.0-61.0-2.5,FALSE,FALSE,FALSE,TRUE,"""event"",""trial"",""time""
""fullscreenenter"",""5"",""12527""
""blur"",""6"",""14768""
""focus"",""6"",""32074""
""blur"",""6"",""33742""
""focus"",""6"",""34628""
","""event"",""trial"",""time""
""blur"",""6"",""14768""
""blur"",""6"",""33742""
","""event"",""trial"",""time""
""focus"",""6"",""32074""
""focus"",""6"",""34628""
","""event"",""trial"",""time""
""fullscreenenter"",""5"",""12527""
","
",NA,images/earth.jpg,NA,NA,NA,NA,NA,NA,NA,NA,NA,NA,NA,NA,NA,fixation,NA,NA,NA,NA,NA,NA,sub118
d3-animate-choice,79,380381,0.0-61.0-0.6,FALSE,FALSE,FALSE,TRUE,"""event"",""trial"",""time""
""fullscreenenter"",""5"",""12527""
""blur"",""6"",""14768""
""focus"",""6"",""32074""
""blur"",""6"",""33742""
""focus"",""6"",""34628""
","""event"",""trial"",""time""
""blur"",""6"",""14768""
""blur"",""6"",""33742""
","""event"",""trial"",""time""
""focus"",""6"",""32074""
""focus"",""6"",""34628""
","""event"",""trial"",""time""
""fullscreenenter"",""5"",""12527""
","
",415.16499999852385,NA,49,NA,NA,3000,1,NA,NA,images/earth.jpg,images/tutrocket1,images/tutrocket2,null,images/tutrocket2,NA,1,practice,null,1,NA,NA,NA,sub118
d3-animate-choice,80,382932,0.0-61.0-1.6,FALSE,FALSE,FALSE,TRUE,"""event"",""trial"",""time""
""fullscreenenter"",""5"",""12527""
""blur"",""6"",""14768""
""focus"",""6"",""32074""
""blur"",""6"",""33742""
""focus"",""6"",""34628""
","""event"",""trial"",""time""
""blur"",""6"",""14768""
""blur"",""6"",""33742""
","""event"",""trial"",""time""
""focus"",""6"",""32074""
""focus"",""6"",""34628""
","""event"",""trial"",""time""
""fullscreenenter"",""5"",""12527""
","
",546.9500000035623,NA,48,NA,NA,3000,1,NA,NA,images/tutgreenplanet.jpg,images/tutalien2,images/tutalien1,images/tutrocket2,images/tutalien2,images/t.png,2,practice,true,2,common,1,2020-06-22T14:35:44Z,sub118
two-step-fixation,81,383935,0.0-61.0-2.6,FALSE,FALSE,FALSE,TRUE,"""event"",""trial"",""time""
""fullscreenenter"",""5"",""12527""
""blur"",""6"",""14768""
""focus"",""6"",""32074""
""blur"",""6"",""33742""
""focus"",""6"",""34628""
","""event"",""trial"",""time""
""blur"",""6"",""14768""
""blur"",""6"",""33742""
","""event"",""trial"",""time""
""focus"",""6"",""32074""
""focus"",""6"",""34628""
","""event"",""trial"",""time""
""fullscreenenter"",""5"",""12527""
","
",NA,images/earth.jpg,NA,NA,NA,NA,NA,NA,NA,NA,NA,NA,NA,NA,NA,fixation,NA,NA,NA,NA,NA,NA,sub118
d3-animate-choice,82,386278,0.0-61.0-0.7,FALSE,FALSE,FALSE,TRUE,"""event"",""trial"",""time""
""fullscreenenter"",""5"",""12527""
""blur"",""6"",""14768""
""focus"",""6"",""32074""
""blur"",""6"",""33742""
""focus"",""6"",""34628""
","""event"",""trial"",""time""
""blur"",""6"",""14768""
""blur"",""6"",""33742""
","""event"",""trial"",""time""
""focus"",""6"",""32074""
""focus"",""6"",""34628""
","""event"",""trial"",""time""
""fullscreenenter"",""5"",""12527""
","
",340.345000004163,NA,49,NA,NA,3000,1,NA,NA,images/earth.jpg,images/tutrocket1,images/tutrocket2,null,images/tutrocket2,NA,1,practice,null,1,NA,NA,NA,sub118
d3-animate-choice,83,389207,0.0-61.0-1.7,FALSE,FALSE,FALSE,TRUE,"""event"",""trial"",""time""
""fullscreenenter"",""5"",""12527""
""blur"",""6"",""14768""
""focus"",""6"",""32074""
""blur"",""6"",""33742""
""focus"",""6"",""34628""
","""event"",""trial"",""time""
""blur"",""6"",""14768""
""blur"",""6"",""33742""
","""event"",""trial"",""time""
""focus"",""6"",""32074""
""focus"",""6"",""34628""
","""event"",""trial"",""time""
""fullscreenenter"",""5"",""12527""
","
",923.9399999933084,NA,49,NA,NA,3000,1,NA,NA,images/tutyellowplanet.jpg,images/tutalien4,images/tutalien3,images/tutrocket2,images/tutalien3,images/t.png,2,practice,false,1,rare,1,2020-06-22T14:35:51Z,sub118
two-step-fixation,84,390214,0.0-61.0-2.7,FALSE,FALSE,FALSE,TRUE,"""event"",""trial"",""time""
""fullscreenenter"",""5"",""12527""
""blur"",""6"",""14768""
""focus"",""6"",""32074""
""blur"",""6"",""33742""
""focus"",""6"",""34628""
","""event"",""trial"",""time""
""blur"",""6"",""14768""
""blur"",""6"",""33742""
","""event"",""trial"",""time""
""focus"",""6"",""32074""
""focus"",""6"",""34628""
","""event"",""trial"",""time""
""fullscreenenter"",""5"",""12527""
","
",NA,images/earth.jpg,NA,NA,NA,NA,NA,NA,NA,NA,NA,NA,NA,NA,NA,fixation,NA,NA,NA,NA,NA,NA,sub118
d3-animate-choice,85,392579,0.0-61.0-0.8,FALSE,FALSE,FALSE,TRUE,"""event"",""trial"",""time""
""fullscreenenter"",""5"",""12527""
""blur"",""6"",""14768""
""focus"",""6"",""32074""
""blur"",""6"",""33742""
""focus"",""6"",""34628""
","""event"",""trial"",""time""
""blur"",""6"",""14768""
""blur"",""6"",""33742""
","""event"",""trial"",""time""
""focus"",""6"",""32074""
""focus"",""6"",""34628""
","""event"",""trial"",""time""
""fullscreenenter"",""5"",""12527""
","
",361.5049999934854,NA,49,NA,NA,3000,1,NA,NA,images/earth.jpg,images/tutrocket1,images/tutrocket2,null,images/tutrocket2,NA,1,practice,null,1,NA,NA,NA,sub118
d3-animate-choice,86,395354,0.0-61.0-1.8,FALSE,FALSE,FALSE,TRUE,"""event"",""trial"",""time""
""fullscreenenter"",""5"",""12527""
""blur"",""6"",""14768""
""focus"",""6"",""32074""
""blur"",""6"",""33742""
""focus"",""6"",""34628""
","""event"",""trial"",""time""
""blur"",""6"",""14768""
""blur"",""6"",""33742""
","""event"",""trial"",""time""
""focus"",""6"",""32074""
""focus"",""6"",""34628""
","""event"",""trial"",""time""
""fullscreenenter"",""5"",""12527""
","
",772.2050000011222,NA,48,NA,NA,3000,1,NA,NA,images/tutgreenplanet.jpg,images/tutalien2,images/tutalien1,images/tutrocket2,images/tutalien2,images/nothing.png,2,practice,true,2,common,0,2020-06-22T14:35:57Z,sub118
two-step-fixation,87,396358,0.0-61.0-2.8,FALSE,FALSE,FALSE,TRUE,"""event"",""trial"",""time""
""fullscreenenter"",""5"",""12527""
""blur"",""6"",""14768""
""focus"",""6"",""32074""
""blur"",""6"",""33742""
""focus"",""6"",""34628""
","""event"",""trial"",""time""
""blur"",""6"",""14768""
""blur"",""6"",""33742""
","""event"",""trial"",""time""
""focus"",""6"",""32074""
""focus"",""6"",""34628""
","""event"",""trial"",""time""
""fullscreenenter"",""5"",""12527""
","
",NA,images/earth.jpg,NA,NA,NA,NA,NA,NA,NA,NA,NA,NA,NA,NA,NA,fixation,NA,NA,NA,NA,NA,NA,sub118
d3-animate-choice,88,398802,0.0-61.0-0.9,FALSE,FALSE,FALSE,TRUE,"""event"",""trial"",""time""
""fullscreenenter"",""5"",""12527""
""blur"",""6"",""14768""
""focus"",""6"",""32074""
""blur"",""6"",""33742""
""focus"",""6"",""34628""
","""event"",""trial"",""time""
""blur"",""6"",""14768""
""blur"",""6"",""33742""
","""event"",""trial"",""time""
""focus"",""6"",""32074""
""focus"",""6"",""34628""
","""event"",""trial"",""time""
""fullscreenenter"",""5"",""12527""
","
",440.9099999902537,NA,49,NA,NA,3000,1,NA,NA,images/earth.jpg,images/tutrocket1,images/tutrocket2,null,images/tutrocket2,NA,1,practice,null,1,NA,NA,NA,sub118
d3-animate-choice,89,401455,0.0-61.0-1.9,FALSE,FALSE,FALSE,TRUE,"""event"",""trial"",""time""
""fullscreenenter"",""5"",""12527""
""blur"",""6"",""14768""
""focus"",""6"",""32074""
""blur"",""6"",""33742""
""focus"",""6"",""34628""
","""event"",""trial"",""time""
""blur"",""6"",""14768""
""blur"",""6"",""33742""
","""event"",""trial"",""time""
""focus"",""6"",""32074""
""focus"",""6"",""34628""
","""event"",""trial"",""time""
""fullscreenenter"",""5"",""12527""
","
",650.8200000098441,NA,49,NA,NA,3000,1,NA,NA,images/tutyellowplanet.jpg,images/tutalien4,images/tutalien3,images/tutrocket2,images/tutalien3,images/nothing.png,2,practice,false,1,rare,0,2020-06-22T14:36:03Z,sub118
two-step-fixation,90,402457,0.0-61.0-2.9,FALSE,FALSE,FALSE,TRUE,"""event"",""trial"",""time""
""fullscreenenter"",""5"",""12527""
""blur"",""6"",""14768""
""focus"",""6"",""32074""
""blur"",""6"",""33742""
""focus"",""6"",""34628""
","""event"",""trial"",""time""
""blur"",""6"",""14768""
""blur"",""6"",""33742""
","""event"",""trial"",""time""
""focus"",""6"",""32074""
""focus"",""6"",""34628""
","""event"",""trial"",""time""
""fullscreenenter"",""5"",""12527""
","
",NA,images/earth.jpg,NA,NA,NA,NA,NA,NA,NA,NA,NA,NA,NA,NA,NA,fixation,NA,NA,NA,NA,NA,NA,sub118
d3-animate-choice,91,404902,0.0-61.0-0.10,FALSE,FALSE,FALSE,TRUE,"""event"",""trial"",""time""
""fullscreenenter"",""5"",""12527""
""blur"",""6"",""14768""
""focus"",""6"",""32074""
""blur"",""6"",""33742""
""focus"",""6"",""34628""
","""event"",""trial"",""time""
""blur"",""6"",""14768""
""blur"",""6"",""33742""
","""event"",""trial"",""time""
""focus"",""6"",""32074""
""focus"",""6"",""34628""
","""event"",""trial"",""time""
""fullscreenenter"",""5"",""12527""
","
",441.8149999983143,NA,49,NA,NA,3000,1,NA,NA,images/earth.jpg,images/tutrocket1,images/tutrocket2,null,images/tutrocket2,NA,1,practice,null,1,NA,NA,NA,sub118
d3-animate-choice,92,407379,0.0-61.0-1.10,FALSE,FALSE,FALSE,TRUE,"""event"",""trial"",""time""
""fullscreenenter"",""5"",""12527""
""blur"",""6"",""14768""
""focus"",""6"",""32074""
""blur"",""6"",""33742""
""focus"",""6"",""34628""
","""event"",""trial"",""time""
""blur"",""6"",""14768""
""blur"",""6"",""33742""
","""event"",""trial"",""time""
""focus"",""6"",""32074""
""focus"",""6"",""34628""
","""event"",""trial"",""time""
""fullscreenenter"",""5"",""12527""
","
",473.46499998820946,NA,48,NA,NA,3000,1,NA,NA,images/tutyellowplanet.jpg,images/tutalien4,images/tutalien3,images/tutrocket2,images/tutalien4,images/t.png,2,practice,false,2,rare,1,2020-06-22T14:36:09Z,sub118
two-step-fixation,93,408381,0.0-61.0-2.10,FALSE,FALSE,FALSE,TRUE,"""event"",""trial"",""time""
""fullscreenenter"",""5"",""12527""
""blur"",""6"",""14768""
""focus"",""6"",""32074""
""blur"",""6"",""33742""
""focus"",""6"",""34628""
","""event"",""trial"",""time""
""blur"",""6"",""14768""
""blur"",""6"",""33742""
","""event"",""trial"",""time""
""focus"",""6"",""32074""
""focus"",""6"",""34628""
","""event"",""trial"",""time""
""fullscreenenter"",""5"",""12527""
","
",NA,images/earth.jpg,NA,NA,NA,NA,NA,NA,NA,NA,NA,NA,NA,NA,NA,fixation,NA,NA,NA,NA,NA,NA,sub118
d3-animate-choice,94,410929,0.0-61.0-0.11,FALSE,FALSE,FALSE,TRUE,"""event"",""trial"",""time""
""fullscreenenter"",""5"",""12527""
""blur"",""6"",""14768""
""focus"",""6"",""32074""
""blur"",""6"",""33742""
""focus"",""6"",""34628""
","""event"",""trial"",""time""
""blur"",""6"",""14768""
""blur"",""6"",""33742""
","""event"",""trial"",""time""
""focus"",""6"",""32074""
""focus"",""6"",""34628""
","""event"",""trial"",""time""
""fullscreenenter"",""5"",""12527""
","
",541.784999993979,NA,49,NA,NA,3000,1,NA,NA,images/earth.jpg,images/tutrocket1,images/tutrocket2,null,images/tutrocket2,NA,1,practice,null,1,NA,NA,NA,sub118
d3-animate-choice,95,413552,0.0-61.0-1.11,FALSE,FALSE,FALSE,TRUE,"""event"",""trial"",""time""
""fullscreenenter"",""5"",""12527""
""blur"",""6"",""14768""
""focus"",""6"",""32074""
""blur"",""6"",""33742""
""focus"",""6"",""34628""
","""event"",""trial"",""time""
""blur"",""6"",""14768""
""blur"",""6"",""33742""
","""event"",""trial"",""time""
""focus"",""6"",""32074""
""focus"",""6"",""34628""
","""event"",""trial"",""time""
""fullscreenenter"",""5"",""12527""
","
",620.3700000041863,NA,48,NA,NA,3000,1,NA,NA,images/tutgreenplanet.jpg,images/tutalien2,images/tutalien1,images/tutrocket2,images/tutalien2,images/nothing.png,2,practice,true,2,common,0,2020-06-22T14:36:15Z,sub118
two-step-fixation,96,414556,0.0-61.0-2.11,FALSE,FALSE,FALSE,TRUE,"""event"",""trial"",""time""
""fullscreenenter"",""5"",""12527""
""blur"",""6"",""14768""
""focus"",""6"",""32074""
""blur"",""6"",""33742""
""focus"",""6"",""34628""
","""event"",""trial"",""time""
""blur"",""6"",""14768""
""blur"",""6"",""33742""
","""event"",""trial"",""time""
""focus"",""6"",""32074""
""focus"",""6"",""34628""
","""event"",""trial"",""time""
""fullscreenenter"",""5"",""12527""
","
",NA,images/earth.jpg,NA,NA,NA,NA,NA,NA,NA,NA,NA,NA,NA,NA,NA,fixation,NA,NA,NA,NA,NA,NA,sub118
d3-animate-choice,97,417002,0.0-61.0-0.12,FALSE,FALSE,FALSE,TRUE,"""event"",""trial"",""time""
""fullscreenenter"",""5"",""12527""
""blur"",""6"",""14768""
""focus"",""6"",""32074""
""blur"",""6"",""33742""
""focus"",""6"",""34628""
","""event"",""trial"",""time""
""blur"",""6"",""14768""
""blur"",""6"",""33742""
","""event"",""trial"",""time""
""focus"",""6"",""32074""
""focus"",""6"",""34628""
","""event"",""trial"",""time""
""fullscreenenter"",""5"",""12527""
","
",443.4949999995297,NA,49,NA,NA,3000,1,NA,NA,images/earth.jpg,images/tutrocket1,images/tutrocket2,null,images/tutrocket2,NA,1,practice,null,1,NA,NA,NA,sub118
d3-animate-choice,98,419506,0.0-61.0-1.12,FALSE,FALSE,FALSE,TRUE,"""event"",""trial"",""time""
""fullscreenenter"",""5"",""12527""
""blur"",""6"",""14768""
""focus"",""6"",""32074""
""blur"",""6"",""33742""
""focus"",""6"",""34628""
","""event"",""trial"",""time""
""blur"",""6"",""14768""
""blur"",""6"",""33742""
","""event"",""trial"",""time""
""focus"",""6"",""32074""
""focus"",""6"",""34628""
","""event"",""trial"",""time""
""fullscreenenter"",""5"",""12527""
","
",500.35500001104083,NA,49,NA,NA,3000,1,NA,NA,images/tutgreenplanet.jpg,images/tutalien2,images/tutalien1,images/tutrocket2,images/tutalien1,images/nothing.png,2,practice,true,1,common,0,2020-06-22T14:36:21Z,sub118
two-step-fixation,99,420508,0.0-61.0-2.12,FALSE,FALSE,FALSE,TRUE,"""event"",""trial"",""time""
""fullscreenenter"",""5"",""12527""
""blur"",""6"",""14768""
""focus"",""6"",""32074""
""blur"",""6"",""33742""
""focus"",""6"",""34628""
","""event"",""trial"",""time""
""blur"",""6"",""14768""
""blur"",""6"",""33742""
","""event"",""trial"",""time""
""focus"",""6"",""32074""
""focus"",""6"",""34628""
","""event"",""trial"",""time""
""fullscreenenter"",""5"",""12527""
","
",NA,images/earth.jpg,NA,NA,NA,NA,NA,NA,NA,NA,NA,NA,NA,NA,NA,fixation,NA,NA,NA,NA,NA,NA,sub118
d3-animate-choice,100,423127,0.0-61.0-0.13,FALSE,FALSE,FALSE,TRUE,"""event"",""trial"",""time""
""fullscreenenter"",""5"",""12527""
""blur"",""6"",""14768""
""focus"",""6"",""32074""
""blur"",""6"",""33742""
""focus"",""6"",""34628""
","""event"",""trial"",""time""
""blur"",""6"",""14768""
""blur"",""6"",""33742""
","""event"",""trial"",""time""
""focus"",""6"",""32074""
""focus"",""6"",""34628""
","""event"",""trial"",""time""
""fullscreenenter"",""5"",""12527""
","
",615.2699999947799,NA,48,NA,NA,3000,1,NA,NA,images/earth.jpg,images/tutrocket1,images/tutrocket2,null,images/tutrocket1,NA,1,practice,null,2,NA,NA,NA,sub118
d3-animate-choice,101,426506,0.0-61.0-1.13,FALSE,FALSE,FALSE,TRUE,"""event"",""trial"",""time""
""fullscreenenter"",""5"",""12527""
""blur"",""6"",""14768""
""focus"",""6"",""32074""
""blur"",""6"",""33742""
""focus"",""6"",""34628""
","""event"",""trial"",""time""
""blur"",""6"",""14768""
""blur"",""6"",""33742""
","""event"",""trial"",""time""
""focus"",""6"",""32074""
""focus"",""6"",""34628""
","""event"",""trial"",""time""
""fullscreenenter"",""5"",""12527""
","
",1373.9900000073249,NA,48,NA,NA,3000,1,NA,NA,images/tutyellowplanet.jpg,images/tutalien4,images/tutalien3,images/tutrocket1,images/tutalien4,images/t.png,2,practice,true,2,common,1,2020-06-22T14:36:28Z,sub118
two-step-fixation,102,427509,0.0-61.0-2.13,FALSE,FALSE,FALSE,TRUE,"""event"",""trial"",""time""
""fullscreenenter"",""5"",""12527""
""blur"",""6"",""14768""
""focus"",""6"",""32074""
""blur"",""6"",""33742""
""focus"",""6"",""34628""
","""event"",""trial"",""time""
""blur"",""6"",""14768""
""blur"",""6"",""33742""
","""event"",""trial"",""time""
""focus"",""6"",""32074""
""focus"",""6"",""34628""
","""event"",""trial"",""time""
""fullscreenenter"",""5"",""12527""
","
",NA,images/earth.jpg,NA,NA,NA,NA,NA,NA,NA,NA,NA,NA,NA,NA,NA,fixation,NA,NA,NA,NA,NA,NA,sub118
d3-animate-choice,103,429875,0.0-61.0-0.14,FALSE,FALSE,FALSE,TRUE,"""event"",""trial"",""time""
""fullscreenenter"",""5"",""12527""
""blur"",""6"",""14768""
""focus"",""6"",""32074""
""blur"",""6"",""33742""
""focus"",""6"",""34628""
","""event"",""trial"",""time""
""blur"",""6"",""14768""
""blur"",""6"",""33742""
","""event"",""trial"",""time""
""focus"",""6"",""32074""
""focus"",""6"",""34628""
","""event"",""trial"",""time""
""fullscreenenter"",""5"",""12527""
","
",362.57000001205597,NA,48,NA,NA,3000,1,NA,NA,images/earth.jpg,images/tutrocket1,images/tutrocket2,null,images/tutrocket1,NA,1,practice,null,2,NA,NA,NA,sub118
d3-animate-choice,104,432379,0.0-61.0-1.14,FALSE,FALSE,FALSE,TRUE,"""event"",""trial"",""time""
""fullscreenenter"",""5"",""12527""
""blur"",""6"",""14768""
""focus"",""6"",""32074""
""blur"",""6"",""33742""
""focus"",""6"",""34628""
","""event"",""trial"",""time""
""blur"",""6"",""14768""
""blur"",""6"",""33742""
","""event"",""trial"",""time""
""focus"",""6"",""32074""
""focus"",""6"",""34628""
","""event"",""trial"",""time""
""fullscreenenter"",""5"",""12527""
","
",500.72999999974854,NA,48,NA,NA,3000,1,NA,NA,images/tutyellowplanet.jpg,images/tutalien4,images/tutalien3,images/tutrocket1,images/tutalien4,images/t.png,2,practice,true,2,common,1,2020-06-22T14:36:34Z,sub118
two-step-fixation,105,433384,0.0-61.0-2.14,FALSE,FALSE,FALSE,TRUE,"""event"",""trial"",""time""
""fullscreenenter"",""5"",""12527""
""blur"",""6"",""14768""
""focus"",""6"",""32074""
""blur"",""6"",""33742""
""focus"",""6"",""34628""
","""event"",""trial"",""time""
""blur"",""6"",""14768""
""blur"",""6"",""33742""
","""event"",""trial"",""time""
""focus"",""6"",""32074""
""focus"",""6"",""34628""
","""event"",""trial"",""time""
""fullscreenenter"",""5"",""12527""
","
",NA,images/earth.jpg,NA,NA,NA,NA,NA,NA,NA,NA,NA,NA,NA,NA,NA,fixation,NA,NA,NA,NA,NA,NA,sub118
d3-animate-choice,106,435926,0.0-61.0-0.15,FALSE,FALSE,FALSE,TRUE,"""event"",""trial"",""time""
""fullscreenenter"",""5"",""12527""
""blur"",""6"",""14768""
""focus"",""6"",""32074""
""blur"",""6"",""33742""
""focus"",""6"",""34628""
","""event"",""trial"",""time""
""blur"",""6"",""14768""
""blur"",""6"",""33742""
","""event"",""trial"",""time""
""focus"",""6"",""32074""
""focus"",""6"",""34628""
","""event"",""trial"",""time""
""fullscreenenter"",""5"",""12527""
","
",538.4999999951106,NA,48,NA,NA,3000,1,NA,NA,images/earth.jpg,images/tutrocket1,images/tutrocket2,null,images/tutrocket1,NA,1,practice,null,2,NA,NA,NA,sub118
d3-animate-choice,107,438405,0.0-61.0-1.15,FALSE,FALSE,FALSE,TRUE,"""event"",""trial"",""time""
""fullscreenenter"",""5"",""12527""
""blur"",""6"",""14768""
""focus"",""6"",""32074""
""blur"",""6"",""33742""
""focus"",""6"",""34628""
","""event"",""trial"",""time""
""blur"",""6"",""14768""
""blur"",""6"",""33742""
","""event"",""trial"",""time""
""focus"",""6"",""32074""
""focus"",""6"",""34628""
","""event"",""trial"",""time""
""fullscreenenter"",""5"",""12527""
","
",474.3400000006659,NA,48,NA,NA,3000,1,NA,NA,images/tutyellowplanet.jpg,images/tutalien4,images/tutalien3,images/tutrocket1,images/tutalien4,images/nothing.png,2,practice,true,2,common,0,2020-06-22T14:36:40Z,sub118
two-step-fixation,108,439408,0.0-61.0-2.15,FALSE,FALSE,FALSE,TRUE,"""event"",""trial"",""time""
""fullscreenenter"",""5"",""12527""
""blur"",""6"",""14768""
""focus"",""6"",""32074""
""blur"",""6"",""33742""
""focus"",""6"",""34628""
","""event"",""trial"",""time""
""blur"",""6"",""14768""
""blur"",""6"",""33742""
","""event"",""trial"",""time""
""focus"",""6"",""32074""
""focus"",""6"",""34628""
","""event"",""trial"",""time""
""fullscreenenter"",""5"",""12527""
","
",NA,images/earth.jpg,NA,NA,NA,NA,NA,NA,NA,NA,NA,NA,NA,NA,NA,fixation,NA,NA,NA,NA,NA,NA,sub118
d3-animate-choice,109,441826,0.0-61.0-0.16,FALSE,FALSE,FALSE,TRUE,"""event"",""trial"",""time""
""fullscreenenter"",""5"",""12527""
""blur"",""6"",""14768""
""focus"",""6"",""32074""
""blur"",""6"",""33742""
""focus"",""6"",""34628""
","""event"",""trial"",""time""
""blur"",""6"",""14768""
""blur"",""6"",""33742""
","""event"",""trial"",""time""
""focus"",""6"",""32074""
""focus"",""6"",""34628""
","""event"",""trial"",""time""
""fullscreenenter"",""5"",""12527""
","
",415.6899999943562,NA,48,NA,NA,3000,1,NA,NA,images/earth.jpg,images/tutrocket1,images/tutrocket2,null,images/tutrocket1,NA,1,practice,null,2,NA,NA,NA,sub118
d3-animate-choice,110,444253,0.0-61.0-1.16,FALSE,FALSE,FALSE,TRUE,"""event"",""trial"",""time""
""fullscreenenter"",""5"",""12527""
""blur"",""6"",""14768""
""focus"",""6"",""32074""
""blur"",""6"",""33742""
""focus"",""6"",""34628""
","""event"",""trial"",""time""
""blur"",""6"",""14768""
""blur"",""6"",""33742""
","""event"",""trial"",""time""
""focus"",""6"",""32074""
""focus"",""6"",""34628""
","""event"",""trial"",""time""
""fullscreenenter"",""5"",""12527""
","
",422.46000000159256,NA,48,NA,NA,3000,1,NA,NA,images/tutyellowplanet.jpg,images/tutalien4,images/tutalien3,images/tutrocket1,images/tutalien4,images/nothing.png,2,practice,true,2,common,0,2020-06-22T14:36:46Z,sub118
two-step-fixation,111,445258,0.0-61.0-2.16,FALSE,FALSE,FALSE,TRUE,"""event"",""trial"",""time""
""fullscreenenter"",""5"",""12527""
""blur"",""6"",""14768""
""focus"",""6"",""32074""
""blur"",""6"",""33742""
""focus"",""6"",""34628""
","""event"",""trial"",""time""
""blur"",""6"",""14768""
""blur"",""6"",""33742""
","""event"",""trial"",""time""
""focus"",""6"",""32074""
""focus"",""6"",""34628""
","""event"",""trial"",""time""
""fullscreenenter"",""5"",""12527""
","
",NA,images/earth.jpg,NA,NA,NA,NA,NA,NA,NA,NA,NA,NA,NA,NA,NA,fixation,NA,NA,NA,NA,NA,NA,sub118
d3-animate-choice,112,447626,0.0-61.0-0.17,FALSE,FALSE,FALSE,TRUE,"""event"",""trial"",""time""
""fullscreenenter"",""5"",""12527""
""blur"",""6"",""14768""
""focus"",""6"",""32074""
""blur"",""6"",""33742""
""focus"",""6"",""34628""
","""event"",""trial"",""time""
""blur"",""6"",""14768""
""blur"",""6"",""33742""
","""event"",""trial"",""time""
""focus"",""6"",""32074""
""focus"",""6"",""34628""
","""event"",""trial"",""time""
""fullscreenenter"",""5"",""12527""
","
",363.8150000042515,NA,48,NA,NA,3000,1,NA,NA,images/earth.jpg,images/tutrocket1,images/tutrocket2,null,images/tutrocket1,NA,1,practice,null,2,NA,NA,NA,sub118
d3-animate-choice,113,450074,0.0-61.0-1.17,FALSE,FALSE,FALSE,TRUE,"""event"",""trial"",""time""
""fullscreenenter"",""5"",""12527""
""blur"",""6"",""14768""
""focus"",""6"",""32074""
""blur"",""6"",""33742""
""focus"",""6"",""34628""
","""event"",""trial"",""time""
""blur"",""6"",""14768""
""blur"",""6"",""33742""
","""event"",""trial"",""time""
""focus"",""6"",""32074""
""focus"",""6"",""34628""
","""event"",""trial"",""time""
""fullscreenenter"",""5"",""12527""
","
",445.1400000107242,NA,49,NA,NA,3000,1,NA,NA,images/tutyellowplanet.jpg,images/tutalien4,images/tutalien3,images/tutrocket1,images/tutalien3,images/nothing.png,2,practice,true,1,common,0,2020-06-22T14:36:52Z,sub118
two-step-fixation,114,451077,0.0-61.0-2.17,FALSE,FALSE,FALSE,TRUE,"""event"",""trial"",""time""
""fullscreenenter"",""5"",""12527""
""blur"",""6"",""14768""
""focus"",""6"",""32074""
""blur"",""6"",""33742""
""focus"",""6"",""34628""
","""event"",""trial"",""time""
""blur"",""6"",""14768""
""blur"",""6"",""33742""
","""event"",""trial"",""time""
""focus"",""6"",""32074""
""focus"",""6"",""34628""
","""event"",""trial"",""time""
""fullscreenenter"",""5"",""12527""
","
",NA,images/earth.jpg,NA,NA,NA,NA,NA,NA,NA,NA,NA,NA,NA,NA,NA,fixation,NA,NA,NA,NA,NA,NA,sub118
d3-animate-choice,115,453403,0.0-61.0-0.18,FALSE,FALSE,FALSE,TRUE,"""event"",""trial"",""time""
""fullscreenenter"",""5"",""12527""
""blur"",""6"",""14768""
""focus"",""6"",""32074""
""blur"",""6"",""33742""
""focus"",""6"",""34628""
","""event"",""trial"",""time""
""blur"",""6"",""14768""
""blur"",""6"",""33742""
","""event"",""trial"",""time""
""focus"",""6"",""32074""
""focus"",""6"",""34628""
","""event"",""trial"",""time""
""fullscreenenter"",""5"",""12527""
","
",322.8700000036042,NA,49,NA,NA,3000,1,NA,NA,images/earth.jpg,images/tutrocket1,images/tutrocket2,null,images/tutrocket2,NA,1,practice,null,1,NA,NA,NA,sub118
d3-animate-choice,116,456026,0.0-61.0-1.18,FALSE,FALSE,FALSE,TRUE,"""event"",""trial"",""time""
""fullscreenenter"",""5"",""12527""
""blur"",""6"",""14768""
""focus"",""6"",""32074""
""blur"",""6"",""33742""
""focus"",""6"",""34628""
","""event"",""trial"",""time""
""blur"",""6"",""14768""
""blur"",""6"",""33742""
","""event"",""trial"",""time""
""focus"",""6"",""32074""
""focus"",""6"",""34628""
","""event"",""trial"",""time""
""fullscreenenter"",""5"",""12527""
","
",617.8299999883166,NA,49,NA,NA,3000,1,NA,NA,images/tutgreenplanet.jpg,images/tutalien2,images/tutalien1,images/tutrocket2,images/tutalien1,images/nothing.png,2,practice,true,1,common,0,2020-06-22T14:36:58Z,sub118
two-step-fixation,117,457033,0.0-61.0-2.18,FALSE,FALSE,FALSE,TRUE,"""event"",""trial"",""time""
""fullscreenenter"",""5"",""12527""
""blur"",""6"",""14768""
""focus"",""6"",""32074""
""blur"",""6"",""33742""
""focus"",""6"",""34628""
","""event"",""trial"",""time""
""blur"",""6"",""14768""
""blur"",""6"",""33742""
","""event"",""trial"",""time""
""focus"",""6"",""32074""
""focus"",""6"",""34628""
","""event"",""trial"",""time""
""fullscreenenter"",""5"",""12527""
","
",NA,images/earth.jpg,NA,NA,NA,NA,NA,NA,NA,NA,NA,NA,NA,NA,NA,fixation,NA,NA,NA,NA,NA,NA,sub118
d3-animate-choice,118,459429,0.0-61.0-0.19,FALSE,FALSE,FALSE,TRUE,"""event"",""trial"",""time""
""fullscreenenter"",""5"",""12527""
""blur"",""6"",""14768""
""focus"",""6"",""32074""
""blur"",""6"",""33742""
""focus"",""6"",""34628""
","""event"",""trial"",""time""
""blur"",""6"",""14768""
""blur"",""6"",""33742""
","""event"",""trial"",""time""
""focus"",""6"",""32074""
""focus"",""6"",""34628""
","""event"",""trial"",""time""
""fullscreenenter"",""5"",""12527""
","
",391.02500000444707,NA,49,NA,NA,3000,1,NA,NA,images/earth.jpg,images/tutrocket1,images/tutrocket2,null,images/tutrocket2,NA,1,practice,null,1,NA,NA,NA,sub118
d3-animate-choice,119,461799,0.0-61.0-1.19,FALSE,FALSE,FALSE,TRUE,"""event"",""trial"",""time""
""fullscreenenter"",""5"",""12527""
""blur"",""6"",""14768""
""focus"",""6"",""32074""
""blur"",""6"",""33742""
""focus"",""6"",""34628""
","""event"",""trial"",""time""
""blur"",""6"",""14768""
""blur"",""6"",""33742""
","""event"",""trial"",""time""
""focus"",""6"",""32074""
""focus"",""6"",""34628""
","""event"",""trial"",""time""
""fullscreenenter"",""5"",""12527""
","
",365.2250000013737,NA,48,NA,NA,3000,1,NA,NA,images/tutyellowplanet.jpg,images/tutalien4,images/tutalien3,images/tutrocket2,images/tutalien4,images/nothing.png,2,practice,false,2,rare,0,2020-06-22T14:37:03Z,sub118
two-step-fixation,120,462802,0.0-61.0-2.19,FALSE,FALSE,FALSE,TRUE,"""event"",""trial"",""time""
""fullscreenenter"",""5"",""12527""
""blur"",""6"",""14768""
""focus"",""6"",""32074""
""blur"",""6"",""33742""
""focus"",""6"",""34628""
","""event"",""trial"",""time""
""blur"",""6"",""14768""
""blur"",""6"",""33742""
","""event"",""trial"",""time""
""focus"",""6"",""32074""
""focus"",""6"",""34628""
","""event"",""trial"",""time""
""fullscreenenter"",""5"",""12527""
","
",NA,images/earth.jpg,NA,NA,NA,NA,NA,NA,NA,NA,NA,NA,NA,NA,NA,fixation,NA,NA,NA,NA,NA,NA,sub118
d3-instructions,121,471497,0.0-62.0,FALSE,FALSE,FALSE,TRUE,"""event"",""trial"",""time""
""fullscreenenter"",""5"",""12527""
""blur"",""6"",""14768""
""focus"",""6"",""32074""
""blur"",""6"",""33742""
""focus"",""6"",""34628""
","""event"",""trial"",""time""
""blur"",""6"",""14768""
""blur"",""6"",""33742""
","""event"",""trial"",""time""
""focus"",""6"",""32074""
""focus"",""6"",""34628""
","""event"",""trial"",""time""
""fullscreenenter"",""5"",""12527""
","
",NA,NA,NA,NA,NA,NA,NA,NA,NA,NA,NA,NA,NA,NA,NA,NA,NA,NA,NA,NA,NA,NA,sub118
audio-keyboard-response,122,473724,0.0-63.0,FALSE,FALSE,FALSE,TRUE,"""event"",""trial"",""time""
""fullscreenenter"",""5"",""12527""
""blur"",""6"",""14768""
""focus"",""6"",""32074""
""blur"",""6"",""33742""
""focus"",""6"",""34628""
","""event"",""trial"",""time""
""blur"",""6"",""14768""
""blur"",""6"",""33742""
","""event"",""trial"",""time""
""focus"",""6"",""32074""
""focus"",""6"",""34628""
","""event"",""trial"",""time""
""fullscreenenter"",""5"",""12527""
","
",2229,audio/instructions/treasure_feedback.wav,32,NA,NA,NA,NA,NA,NA,NA,NA,NA,NA,NA,NA,NA,NA,NA,NA,NA,NA,NA,sub118
d3-instructions,123,482571,0.0-64.0,FALSE,FALSE,FALSE,TRUE,"""event"",""trial"",""time""
""fullscreenenter"",""5"",""12527""
""blur"",""6"",""14768""
""focus"",""6"",""32074""
""blur"",""6"",""33742""
""focus"",""6"",""34628""
","""event"",""trial"",""time""
""blur"",""6"",""14768""
""blur"",""6"",""33742""
","""event"",""trial"",""time""
""focus"",""6"",""32074""
""focus"",""6"",""34628""
","""event"",""trial"",""time""
""fullscreenenter"",""5"",""12527""
","
",NA,NA,NA,NA,NA,NA,NA,NA,NA,NA,NA,NA,NA,NA,NA,NA,NA,NA,NA,NA,NA,NA,sub118
d3-instructions,124,500148,0.0-65.0,FALSE,FALSE,FALSE,TRUE,"""event"",""trial"",""time""
""fullscreenenter"",""5"",""12527""
""blur"",""6"",""14768""
""focus"",""6"",""32074""
""blur"",""6"",""33742""
""focus"",""6"",""34628""
","""event"",""trial"",""time""
""blur"",""6"",""14768""
""blur"",""6"",""33742""
","""event"",""trial"",""time""
""focus"",""6"",""32074""
""focus"",""6"",""34628""
","""event"",""trial"",""time""
""fullscreenenter"",""5"",""12527""
","
",NA,NA,NA,NA,NA,NA,NA,NA,NA,NA,NA,NA,NA,NA,NA,NA,NA,NA,NA,NA,NA,NA,sub118
d3-instructions,125,533044,0.0-66.0,FALSE,FALSE,FALSE,TRUE,"""event"",""trial"",""time""
""fullscreenenter"",""5"",""12527""
""blur"",""6"",""14768""
""focus"",""6"",""32074""
""blur"",""6"",""33742""
""focus"",""6"",""34628""
","""event"",""trial"",""time""
""blur"",""6"",""14768""
""blur"",""6"",""33742""
","""event"",""trial"",""time""
""focus"",""6"",""32074""
""focus"",""6"",""34628""
","""event"",""trial"",""time""
""fullscreenenter"",""5"",""12527""
","
",NA,NA,NA,NA,NA,NA,NA,NA,NA,NA,NA,NA,NA,NA,NA,NA,NA,NA,NA,NA,NA,NA,sub118
d3-instructions,126,551495,0.0-67.0,FALSE,FALSE,FALSE,TRUE,"""event"",""trial"",""time""
""fullscreenenter"",""5"",""12527""
""blur"",""6"",""14768""
""focus"",""6"",""32074""
""blur"",""6"",""33742""
""focus"",""6"",""34628""
","""event"",""trial"",""time""
""blur"",""6"",""14768""
""blur"",""6"",""33742""
","""event"",""trial"",""time""
""focus"",""6"",""32074""
""focus"",""6"",""34628""
","""event"",""trial"",""time""
""fullscreenenter"",""5"",""12527""
","
",NA,NA,NA,NA,NA,NA,NA,NA,NA,NA,NA,NA,NA,NA,NA,NA,NA,NA,NA,NA,NA,NA,sub118
d3-instructions,127,554791,0.0-68.0,FALSE,FALSE,FALSE,TRUE,"""event"",""trial"",""time""
""fullscreenenter"",""5"",""12527""
""blur"",""6"",""14768""
""focus"",""6"",""32074""
""blur"",""6"",""33742""
""focus"",""6"",""34628""
","""event"",""trial"",""time""
""blur"",""6"",""14768""
""blur"",""6"",""33742""
","""event"",""trial"",""time""
""focus"",""6"",""32074""
""focus"",""6"",""34628""
","""event"",""trial"",""time""
""fullscreenenter"",""5"",""12527""
","
",NA,NA,NA,NA,NA,NA,NA,NA,NA,NA,NA,NA,NA,NA,NA,NA,NA,NA,NA,NA,NA,NA,sub118
instructions-quiz,128,557857,0.0-69.0,FALSE,FALSE,FALSE,TRUE,"""event"",""trial"",""time""
""fullscreenenter"",""5"",""12527""
""blur"",""6"",""14768""
""focus"",""6"",""32074""
""blur"",""6"",""33742""
""focus"",""6"",""34628""
","""event"",""trial"",""time""
""blur"",""6"",""14768""
""blur"",""6"",""33742""
","""event"",""trial"",""time""
""focus"",""6"",""32074""
""focus"",""6"",""34628""
","""event"",""trial"",""time""
""fullscreenenter"",""5"",""12527""
","
",3064.6299999934854,audio/quiz/Q1_Prompt.wav,NA,1,NA,NA,NA,NA,NA,NA,NA,NA,NA,NA,NA,NA,NA,NA,NA,NA,NA,NA,sub118
audio-keyboard-response,129,567028,0.0-70.0,FALSE,FALSE,FALSE,TRUE,"""event"",""trial"",""time""
""fullscreenenter"",""5"",""12527""
""blur"",""6"",""14768""
""focus"",""6"",""32074""
""blur"",""6"",""33742""
""focus"",""6"",""34628""
","""event"",""trial"",""time""
""blur"",""6"",""14768""
""blur"",""6"",""33742""
","""event"",""trial"",""time""
""focus"",""6"",""32074""
""focus"",""6"",""34628""
","""event"",""trial"",""time""
""fullscreenenter"",""5"",""12527""
","
",null,audio/quiz/Q1_Correct.wav,null,NA,NA,NA,NA,NA,NA,NA,NA,NA,NA,NA,NA,NA,NA,NA,NA,NA,NA,NA,sub118
instructions-quiz,130,576688,0.0-71.0,FALSE,FALSE,FALSE,TRUE,"""event"",""trial"",""time""
""fullscreenenter"",""5"",""12527""
""blur"",""6"",""14768""
""focus"",""6"",""32074""
""blur"",""6"",""33742""
""focus"",""6"",""34628""
","""event"",""trial"",""time""
""blur"",""6"",""14768""
""blur"",""6"",""33742""
","""event"",""trial"",""time""
""focus"",""6"",""32074""
""focus"",""6"",""34628""
","""event"",""trial"",""time""
""fullscreenenter"",""5"",""12527""
","
",9659.364999999525,audio/quiz/Q2_Prompt.wav,NA,0,NA,NA,NA,NA,NA,NA,NA,NA,NA,NA,NA,NA,NA,NA,NA,NA,NA,NA,sub118
audio-keyboard-response,131,589557,0.0-72.0,FALSE,FALSE,FALSE,TRUE,"""event"",""trial"",""time""
""fullscreenenter"",""5"",""12527""
""blur"",""6"",""14768""
""focus"",""6"",""32074""
""blur"",""6"",""33742""
""focus"",""6"",""34628""
","""event"",""trial"",""time""
""blur"",""6"",""14768""
""blur"",""6"",""33742""
","""event"",""trial"",""time""
""focus"",""6"",""32074""
""focus"",""6"",""34628""
","""event"",""trial"",""time""
""fullscreenenter"",""5"",""12527""
","
",null,audio/quiz/Q2_Correct.wav,null,NA,NA,NA,NA,NA,NA,NA,NA,NA,NA,NA,NA,NA,NA,NA,NA,NA,NA,NA,sub118
instructions-quiz,132,592824,0.0-73.0,FALSE,FALSE,FALSE,TRUE,"""event"",""trial"",""time""
""fullscreenenter"",""5"",""12527""
""blur"",""6"",""14768""
""focus"",""6"",""32074""
""blur"",""6"",""33742""
""focus"",""6"",""34628""
","""event"",""trial"",""time""
""blur"",""6"",""14768""
""blur"",""6"",""33742""
","""event"",""trial"",""time""
""focus"",""6"",""32074""
""focus"",""6"",""34628""
","""event"",""trial"",""time""
""fullscreenenter"",""5"",""12527""
","
",3266.425000008894,audio/quiz/Q3_Prompt.wav,NA,1,NA,NA,NA,NA,NA,NA,NA,NA,NA,NA,NA,NA,NA,NA,NA,NA,NA,NA,sub118
audio-keyboard-response,133,598624,0.0-74.0,FALSE,FALSE,FALSE,TRUE,"""event"",""trial"",""time""
""fullscreenenter"",""5"",""12527""
""blur"",""6"",""14768""
""focus"",""6"",""32074""
""blur"",""6"",""33742""
""focus"",""6"",""34628""
","""event"",""trial"",""time""
""blur"",""6"",""14768""
""blur"",""6"",""33742""
","""event"",""trial"",""time""
""focus"",""6"",""32074""
""focus"",""6"",""34628""
","""event"",""trial"",""time""
""fullscreenenter"",""5"",""12527""
","
",null,audio/quiz/Q3_Correct.wav,null,NA,NA,NA,NA,NA,NA,NA,NA,NA,NA,NA,NA,NA,NA,NA,NA,NA,NA,NA,sub118
d3-instructions,134,606741,0.0-75.0,FALSE,FALSE,FALSE,TRUE,"""event"",""trial"",""time""
""fullscreenenter"",""5"",""12527""
""blur"",""6"",""14768""
""focus"",""6"",""32074""
""blur"",""6"",""33742""
""focus"",""6"",""34628""
","""event"",""trial"",""time""
""blur"",""6"",""14768""
""blur"",""6"",""33742""
","""event"",""trial"",""time""
""focus"",""6"",""32074""
""focus"",""6"",""34628""
","""event"",""trial"",""time""
""fullscreenenter"",""5"",""12527""
","
",NA,NA,NA,NA,NA,NA,NA,NA,NA,NA,NA,NA,NA,NA,NA,NA,NA,NA,NA,NA,NA,NA,sub118
d3-animate-choice,135,610338,0.0-76.0-0.0,FALSE,FALSE,FALSE,TRUE,"""event"",""trial"",""time""
""fullscreenenter"",""5"",""12527""
""blur"",""6"",""14768""
""focus"",""6"",""32074""
""blur"",""6"",""33742""
""focus"",""6"",""34628""
","""event"",""trial"",""time""
""blur"",""6"",""14768""
""blur"",""6"",""33742""
","""event"",""trial"",""time""
""focus"",""6"",""32074""
""focus"",""6"",""34628""
","""event"",""trial"",""time""
""fullscreenenter"",""5"",""12527""
","
",1594.5000000065193,NA,49,NA,NA,3000,1,NA,NA,images/earth.jpg,images/rocket1,images/rocket2,null,images/rocket2,NA,1,real,null,1,NA,NA,NA,sub118
d3-animate-choice,136,613291,0.0-76.0-1.0,FALSE,FALSE,FALSE,TRUE,"""event"",""trial"",""time""
""fullscreenenter"",""5"",""12527""
""blur"",""6"",""14768""
""focus"",""6"",""32074""
""blur"",""6"",""33742""
""focus"",""6"",""34628""
","""event"",""trial"",""time""
""blur"",""6"",""14768""
""blur"",""6"",""33742""
","""event"",""trial"",""time""
""focus"",""6"",""32074""
""focus"",""6"",""34628""
","""event"",""trial"",""time""
""fullscreenenter"",""5"",""12527""
","
",947.4349999945844,NA,49,NA,NA,3000,1,NA,NA,images/purpleplanet.jpg,images/alien4,images/alien3,images/rocket2,images/alien3,images/nothing.png,2,real,false,1,rare,0,2020-06-22T14:39:35Z,sub118
two-step-fixation,137,614293,0.0-76.0-2.0,FALSE,FALSE,FALSE,TRUE,"""event"",""trial"",""time""
""fullscreenenter"",""5"",""12527""
""blur"",""6"",""14768""
""focus"",""6"",""32074""
""blur"",""6"",""33742""
""focus"",""6"",""34628""
","""event"",""trial"",""time""
""blur"",""6"",""14768""
""blur"",""6"",""33742""
","""event"",""trial"",""time""
""focus"",""6"",""32074""
""focus"",""6"",""34628""
","""event"",""trial"",""time""
""fullscreenenter"",""5"",""12527""
","
",NA,images/earth.jpg,NA,NA,NA,NA,NA,NA,NA,NA,NA,NA,NA,NA,NA,fixation,NA,NA,NA,NA,NA,NA,sub118
d3-animate-choice,138,616839,0.0-76.0-0.1,FALSE,FALSE,FALSE,TRUE,"""event"",""trial"",""time""
""fullscreenenter"",""5"",""12527""
""blur"",""6"",""14768""
""focus"",""6"",""32074""
""blur"",""6"",""33742""
""focus"",""6"",""34628""
","""event"",""trial"",""time""
""blur"",""6"",""14768""
""blur"",""6"",""33742""
","""event"",""trial"",""time""
""focus"",""6"",""32074""
""focus"",""6"",""34628""
","""event"",""trial"",""time""
""fullscreenenter"",""5"",""12527""
","
",542.0049999956973,NA,49,NA,NA,3000,1,NA,NA,images/earth.jpg,images/rocket1,images/rocket2,null,images/rocket2,NA,1,real,null,1,NA,NA,NA,sub118
d3-animate-choice,139,619591,0.0-76.0-1.1,FALSE,FALSE,FALSE,TRUE,"""event"",""trial"",""time""
""fullscreenenter"",""5"",""12527""
""blur"",""6"",""14768""
""focus"",""6"",""32074""
""blur"",""6"",""33742""
""focus"",""6"",""34628""
","""event"",""trial"",""time""
""blur"",""6"",""14768""
""blur"",""6"",""33742""
","""event"",""trial"",""time""
""focus"",""6"",""32074""
""focus"",""6"",""34628""
","""event"",""trial"",""time""
""fullscreenenter"",""5"",""12527""
","
",748.5600000072736,NA,49,NA,NA,3000,1,NA,NA,images/redplanet1.jpg,images/alien2,images/alien1,images/rocket2,images/alien1,images/nothing.png,2,real,true,1,common,0,2020-06-22T14:39:41Z,sub118
two-step-fixation,140,620595,0.0-76.0-2.1,FALSE,FALSE,FALSE,TRUE,"""event"",""trial"",""time""
""fullscreenenter"",""5"",""12527""
""blur"",""6"",""14768""
""focus"",""6"",""32074""
""blur"",""6"",""33742""
""focus"",""6"",""34628""
","""event"",""trial"",""time""
""blur"",""6"",""14768""
""blur"",""6"",""33742""
","""event"",""trial"",""time""
""focus"",""6"",""32074""
""focus"",""6"",""34628""
","""event"",""trial"",""time""
""fullscreenenter"",""5"",""12527""
","
",NA,images/earth.jpg,NA,NA,NA,NA,NA,NA,NA,NA,NA,NA,NA,NA,NA,fixation,NA,NA,NA,NA,NA,NA,sub118
d3-animate-choice,141,623139,0.0-76.0-0.2,FALSE,FALSE,FALSE,TRUE,"""event"",""trial"",""time""
""fullscreenenter"",""5"",""12527""
""blur"",""6"",""14768""
""focus"",""6"",""32074""
""blur"",""6"",""33742""
""focus"",""6"",""34628""
","""event"",""trial"",""time""
""blur"",""6"",""14768""
""blur"",""6"",""33742""
","""event"",""trial"",""time""
""focus"",""6"",""32074""
""focus"",""6"",""34628""
","""event"",""trial"",""time""
""fullscreenenter"",""5"",""12527""
","
",540.7950000080746,NA,49,NA,NA,3000,1,NA,NA,images/earth.jpg,images/rocket1,images/rocket2,null,images/rocket2,NA,1,real,null,1,NA,NA,NA,sub118
d3-animate-choice,142,625988,0.0-76.0-1.2,FALSE,FALSE,FALSE,TRUE,"""event"",""trial"",""time""
""fullscreenenter"",""5"",""12527""
""blur"",""6"",""14768""
""focus"",""6"",""32074""
""blur"",""6"",""33742""
""focus"",""6"",""34628""
","""event"",""trial"",""time""
""blur"",""6"",""14768""
""blur"",""6"",""33742""
","""event"",""trial"",""time""
""focus"",""6"",""32074""
""focus"",""6"",""34628""
","""event"",""trial"",""time""
""fullscreenenter"",""5"",""12527""
","
",846.2200000067241,NA,48,NA,NA,3000,1,NA,NA,images/purpleplanet.jpg,images/alien4,images/alien3,images/rocket2,images/alien4,images/t.png,2,real,false,2,rare,1,2020-06-22T14:39:48Z,sub118
two-step-fixation,143,626995,0.0-76.0-2.2,FALSE,FALSE,FALSE,TRUE,"""event"",""trial"",""time""
""fullscreenenter"",""5"",""12527""
""blur"",""6"",""14768""
""focus"",""6"",""32074""
""blur"",""6"",""33742""
""focus"",""6"",""34628""
","""event"",""trial"",""time""
""blur"",""6"",""14768""
""blur"",""6"",""33742""
","""event"",""trial"",""time""
""focus"",""6"",""32074""
""focus"",""6"",""34628""
","""event"",""trial"",""time""
""fullscreenenter"",""5"",""12527""
","
",NA,images/earth.jpg,NA,NA,NA,NA,NA,NA,NA,NA,NA,NA,NA,NA,NA,fixation,NA,NA,NA,NA,NA,NA,sub118
d3-animate-choice,144,629812,0.0-76.0-0.3,FALSE,FALSE,FALSE,TRUE,"""event"",""trial"",""time""
""fullscreenenter"",""5"",""12527""
""blur"",""6"",""14768""
""focus"",""6"",""32074""
""blur"",""6"",""33742""
""focus"",""6"",""34628""
","""event"",""trial"",""time""
""blur"",""6"",""14768""
""blur"",""6"",""33742""
","""event"",""trial"",""time""
""focus"",""6"",""32074""
""focus"",""6"",""34628""
","""event"",""trial"",""time""
""fullscreenenter"",""5"",""12527""
","
",815.5249999981606,NA,49,NA,NA,3000,1,NA,NA,images/earth.jpg,images/rocket1,images/rocket2,null,images/rocket2,NA,1,real,null,1,NA,NA,NA,sub118
d3-animate-choice,145,632562,0.0-76.0-1.3,FALSE,FALSE,FALSE,TRUE,"""event"",""trial"",""time""
""fullscreenenter"",""5"",""12527""
""blur"",""6"",""14768""
""focus"",""6"",""32074""
""blur"",""6"",""33742""
""focus"",""6"",""34628""
","""event"",""trial"",""time""
""blur"",""6"",""14768""
""blur"",""6"",""33742""
","""event"",""trial"",""time""
""focus"",""6"",""32074""
""focus"",""6"",""34628""
","""event"",""trial"",""time""
""fullscreenenter"",""5"",""12527""
","
",747.1950000035577,NA,48,NA,NA,3000,1,NA,NA,images/purpleplanet.jpg,images/alien4,images/alien3,images/rocket2,images/alien4,images/nothing.png,2,real,false,2,rare,0,2020-06-22T14:39:54Z,sub118
two-step-fixation,146,633564,0.0-76.0-2.3,FALSE,FALSE,FALSE,TRUE,"""event"",""trial"",""time""
""fullscreenenter"",""5"",""12527""
""blur"",""6"",""14768""
""focus"",""6"",""32074""
""blur"",""6"",""33742""
""focus"",""6"",""34628""
","""event"",""trial"",""time""
""blur"",""6"",""14768""
""blur"",""6"",""33742""
","""event"",""trial"",""time""
""focus"",""6"",""32074""
""focus"",""6"",""34628""
","""event"",""trial"",""time""
""fullscreenenter"",""5"",""12527""
","
",NA,images/earth.jpg,NA,NA,NA,NA,NA,NA,NA,NA,NA,NA,NA,NA,NA,fixation,NA,NA,NA,NA,NA,NA,sub118
d3-animate-choice,147,636164,0.0-76.0-0.4,FALSE,FALSE,FALSE,TRUE,"""event"",""trial"",""time""
""fullscreenenter"",""5"",""12527""
""blur"",""6"",""14768""
""focus"",""6"",""32074""
""blur"",""6"",""33742""
""focus"",""6"",""34628""
","""event"",""trial"",""time""
""blur"",""6"",""14768""
""blur"",""6"",""33742""
","""event"",""trial"",""time""
""focus"",""6"",""32074""
""focus"",""6"",""34628""
","""event"",""trial"",""time""
""fullscreenenter"",""5"",""12527""
","
",597.330000004149,NA,48,NA,NA,3000,1,NA,NA,images/earth.jpg,images/rocket1,images/rocket2,null,images/rocket1,NA,1,real,null,2,NA,NA,NA,sub118
d3-animate-choice,148,639338,0.0-76.0-1.4,FALSE,FALSE,FALSE,TRUE,"""event"",""trial"",""time""
""fullscreenenter"",""5"",""12527""
""blur"",""6"",""14768""
""focus"",""6"",""32074""
""blur"",""6"",""33742""
""focus"",""6"",""34628""
","""event"",""trial"",""time""
""blur"",""6"",""14768""
""blur"",""6"",""33742""
","""event"",""trial"",""time""
""focus"",""6"",""32074""
""focus"",""6"",""34628""
","""event"",""trial"",""time""
""fullscreenenter"",""5"",""12527""
","
",1171.119999999064,NA,48,NA,NA,3000,1,NA,NA,images/purpleplanet.jpg,images/alien4,images/alien3,images/rocket1,images/alien4,images/t.png,2,real,true,2,common,1,2020-06-22T14:40:01Z,sub118
two-step-fixation,149,640341,0.0-76.0-2.4,FALSE,FALSE,FALSE,TRUE,"""event"",""trial"",""time""
""fullscreenenter"",""5"",""12527""
""blur"",""6"",""14768""
""focus"",""6"",""32074""
""blur"",""6"",""33742""
""focus"",""6"",""34628""
","""event"",""trial"",""time""
""blur"",""6"",""14768""
""blur"",""6"",""33742""
","""event"",""trial"",""time""
""focus"",""6"",""32074""
""focus"",""6"",""34628""
","""event"",""trial"",""time""
""fullscreenenter"",""5"",""12527""
","
",NA,images/earth.jpg,NA,NA,NA,NA,NA,NA,NA,NA,NA,NA,NA,NA,NA,fixation,NA,NA,NA,NA,NA,NA,sub118
d3-animate-choice,150,642813,0.0-76.0-0.5,FALSE,FALSE,FALSE,TRUE,"""event"",""trial"",""time""
""fullscreenenter"",""5"",""12527""
""blur"",""6"",""14768""
""focus"",""6"",""32074""
""blur"",""6"",""33742""
""focus"",""6"",""34628""
","""event"",""trial"",""time""
""blur"",""6"",""14768""
""blur"",""6"",""33742""
","""event"",""trial"",""time""
""focus"",""6"",""32074""
""focus"",""6"",""34628""
","""event"",""trial"",""time""
""fullscreenenter"",""5"",""12527""
","
",468.1899999995949,NA,49,NA,NA,3000,1,NA,NA,images/earth.jpg,images/rocket1,images/rocket2,null,images/rocket2,NA,1,real,null,1,NA,NA,NA,sub118
d3-animate-choice,151,645388,0.0-76.0-1.5,FALSE,FALSE,FALSE,TRUE,"""event"",""trial"",""time""
""fullscreenenter"",""5"",""12527""
""blur"",""6"",""14768""
""focus"",""6"",""32074""
""blur"",""6"",""33742""
""focus"",""6"",""34628""
","""event"",""trial"",""time""
""blur"",""6"",""14768""
""blur"",""6"",""33742""
","""event"",""trial"",""time""
""focus"",""6"",""32074""
""focus"",""6"",""34628""
","""event"",""trial"",""time""
""fullscreenenter"",""5"",""12527""
","
",570.0050000014016,NA,48,NA,NA,3000,1,NA,NA,images/purpleplanet.jpg,images/alien4,images/alien3,images/rocket2,images/alien4,images/t.png,2,real,false,2,rare,1,2020-06-22T14:40:07Z,sub118
two-step-fixation,152,646391,0.0-76.0-2.5,FALSE,FALSE,FALSE,TRUE,"""event"",""trial"",""time""
""fullscreenenter"",""5"",""12527""
""blur"",""6"",""14768""
""focus"",""6"",""32074""
""blur"",""6"",""33742""
""focus"",""6"",""34628""
","""event"",""trial"",""time""
""blur"",""6"",""14768""
""blur"",""6"",""33742""
","""event"",""trial"",""time""
""focus"",""6"",""32074""
""focus"",""6"",""34628""
","""event"",""trial"",""time""
""fullscreenenter"",""5"",""12527""
","
",NA,images/earth.jpg,NA,NA,NA,NA,NA,NA,NA,NA,NA,NA,NA,NA,NA,fixation,NA,NA,NA,NA,NA,NA,sub118
d3-animate-choice,153,648737,0.0-76.0-0.6,FALSE,FALSE,FALSE,TRUE,"""event"",""trial"",""time""
""fullscreenenter"",""5"",""12527""
""blur"",""6"",""14768""
""focus"",""6"",""32074""
""blur"",""6"",""33742""
""focus"",""6"",""34628""
","""event"",""trial"",""time""
""blur"",""6"",""14768""
""blur"",""6"",""33742""
","""event"",""trial"",""time""
""focus"",""6"",""32074""
""focus"",""6"",""34628""
","""event"",""trial"",""time""
""fullscreenenter"",""5"",""12527""
","
",342.9699999978766,NA,49,NA,NA,3000,1,NA,NA,images/earth.jpg,images/rocket1,images/rocket2,null,images/rocket2,NA,1,real,null,1,NA,NA,NA,sub118
d3-animate-choice,154,651786,0.0-76.0-1.6,FALSE,FALSE,FALSE,TRUE,"""event"",""trial"",""time""
""fullscreenenter"",""5"",""12527""
""blur"",""6"",""14768""
""focus"",""6"",""32074""
""blur"",""6"",""33742""
""focus"",""6"",""34628""
","""event"",""trial"",""time""
""blur"",""6"",""14768""
""blur"",""6"",""33742""
","""event"",""trial"",""time""
""focus"",""6"",""32074""
""focus"",""6"",""34628""
","""event"",""trial"",""time""
""fullscreenenter"",""5"",""12527""
","
",1047.3950000014156,NA,48,NA,NA,3000,1,NA,NA,images/redplanet1.jpg,images/alien2,images/alien1,images/rocket2,images/alien2,images/t.png,2,real,true,2,common,1,2020-06-22T14:40:13Z,sub118
two-step-fixation,155,652789,0.0-76.0-2.6,FALSE,FALSE,FALSE,TRUE,"""event"",""trial"",""time""
""fullscreenenter"",""5"",""12527""
""blur"",""6"",""14768""
""focus"",""6"",""32074""
""blur"",""6"",""33742""
""focus"",""6"",""34628""
","""event"",""trial"",""time""
""blur"",""6"",""14768""
""blur"",""6"",""33742""
","""event"",""trial"",""time""
""focus"",""6"",""32074""
""focus"",""6"",""34628""
","""event"",""trial"",""time""
""fullscreenenter"",""5"",""12527""
","
",NA,images/earth.jpg,NA,NA,NA,NA,NA,NA,NA,NA,NA,NA,NA,NA,NA,fixation,NA,NA,NA,NA,NA,NA,sub118
d3-animate-choice,156,655187,0.0-76.0-0.7,FALSE,FALSE,FALSE,TRUE,"""event"",""trial"",""time""
""fullscreenenter"",""5"",""12527""
""blur"",""6"",""14768""
""focus"",""6"",""32074""
""blur"",""6"",""33742""
""focus"",""6"",""34628""
","""event"",""trial"",""time""
""blur"",""6"",""14768""
""blur"",""6"",""33742""
","""event"",""trial"",""time""
""focus"",""6"",""32074""
""focus"",""6"",""34628""
","""event"",""trial"",""time""
""fullscreenenter"",""5"",""12527""
","
",394.4600000104401,NA,49,NA,NA,3000,1,NA,NA,images/earth.jpg,images/rocket1,images/rocket2,null,images/rocket2,NA,1,real,null,1,NA,NA,NA,sub118
d3-animate-choice,157,657660,0.0-76.0-1.7,FALSE,FALSE,FALSE,TRUE,"""event"",""trial"",""time""
""fullscreenenter"",""5"",""12527""
""blur"",""6"",""14768""
""focus"",""6"",""32074""
""blur"",""6"",""33742""
""focus"",""6"",""34628""
","""event"",""trial"",""time""
""blur"",""6"",""14768""
""blur"",""6"",""33742""
","""event"",""trial"",""time""
""focus"",""6"",""32074""
""focus"",""6"",""34628""
","""event"",""trial"",""time""
""fullscreenenter"",""5"",""12527""
","
",470.16499999153893,NA,48,NA,NA,3000,1,NA,NA,images/purpleplanet.jpg,images/alien4,images/alien3,images/rocket2,images/alien4,images/t.png,2,real,false,2,rare,1,2020-06-22T14:40:19Z,sub118
two-step-fixation,158,658662,0.0-76.0-2.7,FALSE,FALSE,FALSE,TRUE,"""event"",""trial"",""time""
""fullscreenenter"",""5"",""12527""
""blur"",""6"",""14768""
""focus"",""6"",""32074""
""blur"",""6"",""33742""
""focus"",""6"",""34628""
","""event"",""trial"",""time""
""blur"",""6"",""14768""
""blur"",""6"",""33742""
","""event"",""trial"",""time""
""focus"",""6"",""32074""
""focus"",""6"",""34628""
","""event"",""trial"",""time""
""fullscreenenter"",""5"",""12527""
","
",NA,images/earth.jpg,NA,NA,NA,NA,NA,NA,NA,NA,NA,NA,NA,NA,NA,fixation,NA,NA,NA,NA,NA,NA,sub118
d3-animate-choice,159,660987,0.0-76.0-0.8,FALSE,FALSE,FALSE,TRUE,"""event"",""trial"",""time""
""fullscreenenter"",""5"",""12527""
""blur"",""6"",""14768""
""focus"",""6"",""32074""
""blur"",""6"",""33742""
""focus"",""6"",""34628""
","""event"",""trial"",""time""
""blur"",""6"",""14768""
""blur"",""6"",""33742""
","""event"",""trial"",""time""
""focus"",""6"",""32074""
""focus"",""6"",""34628""
","""event"",""trial"",""time""
""fullscreenenter"",""5"",""12527""
","
",321.1449999944307,NA,49,NA,NA,3000,1,NA,NA,images/earth.jpg,images/rocket1,images/rocket2,null,images/rocket2,NA,1,real,null,1,NA,NA,NA,sub118
d3-animate-choice,160,663961,0.0-76.0-1.8,FALSE,FALSE,FALSE,TRUE,"""event"",""trial"",""time""
""fullscreenenter"",""5"",""12527""
""blur"",""6"",""14768""
""focus"",""6"",""32074""
""blur"",""6"",""33742""
""focus"",""6"",""34628""
","""event"",""trial"",""time""
""blur"",""6"",""14768""
""blur"",""6"",""33742""
","""event"",""trial"",""time""
""focus"",""6"",""32074""
""focus"",""6"",""34628""
","""event"",""trial"",""time""
""fullscreenenter"",""5"",""12527""
","
",970.4050000000279,NA,48,NA,NA,3000,1,NA,NA,images/redplanet1.jpg,images/alien2,images/alien1,images/rocket2,images/alien2,images/nothing.png,2,real,true,2,common,0,2020-06-22T14:40:26Z,sub118
two-step-fixation,161,664965,0.0-76.0-2.8,FALSE,FALSE,FALSE,TRUE,"""event"",""trial"",""time""
""fullscreenenter"",""5"",""12527""
""blur"",""6"",""14768""
""focus"",""6"",""32074""
""blur"",""6"",""33742""
""focus"",""6"",""34628""
","""event"",""trial"",""time""
""blur"",""6"",""14768""
""blur"",""6"",""33742""
","""event"",""trial"",""time""
""focus"",""6"",""32074""
""focus"",""6"",""34628""
","""event"",""trial"",""time""
""fullscreenenter"",""5"",""12527""
","
",NA,images/earth.jpg,NA,NA,NA,NA,NA,NA,NA,NA,NA,NA,NA,NA,NA,fixation,NA,NA,NA,NA,NA,NA,sub118
d3-animate-choice,162,667312,0.0-76.0-0.9,FALSE,FALSE,FALSE,TRUE,"""event"",""trial"",""time""
""fullscreenenter"",""5"",""12527""
""blur"",""6"",""14768""
""focus"",""6"",""32074""
""blur"",""6"",""33742""
""focus"",""6"",""34628""
","""event"",""trial"",""time""
""blur"",""6"",""14768""
""blur"",""6"",""33742""
","""event"",""trial"",""time""
""focus"",""6"",""32074""
""focus"",""6"",""34628""
","""event"",""trial"",""time""
""fullscreenenter"",""5"",""12527""
","
",342.59000000020023,NA,49,NA,NA,3000,1,NA,NA,images/earth.jpg,images/rocket1,images/rocket2,null,images/rocket2,NA,1,real,null,1,NA,NA,NA,sub118
d3-animate-choice,163,670594,0.0-76.0-1.9,FALSE,FALSE,FALSE,TRUE,"""event"",""trial"",""time""
""fullscreenenter"",""5"",""12527""
""blur"",""6"",""14768""
""focus"",""6"",""32074""
""blur"",""6"",""33742""
""focus"",""6"",""34628""
","""event"",""trial"",""time""
""blur"",""6"",""14768""
""blur"",""6"",""33742""
","""event"",""trial"",""time""
""focus"",""6"",""32074""
""focus"",""6"",""34628""
","""event"",""trial"",""time""
""fullscreenenter"",""5"",""12527""
","
",1278.5150000127032,NA,49,NA,NA,3000,1,NA,NA,images/redplanet1.jpg,images/alien2,images/alien1,images/rocket2,images/alien1,images/t.png,2,real,true,1,common,1,2020-06-22T14:40:32Z,sub118
two-step-fixation,164,671600,0.0-76.0-2.9,FALSE,FALSE,FALSE,TRUE,"""event"",""trial"",""time""
""fullscreenenter"",""5"",""12527""
""blur"",""6"",""14768""
""focus"",""6"",""32074""
""blur"",""6"",""33742""
""focus"",""6"",""34628""
","""event"",""trial"",""time""
