trial_type,trial_index,time_elapsed,internal_node_id,rocket_sides,red_planet_first_rocket,red_display_order,purple_display_order,interactions,blur_events,focus_events,fullscreenenter_events,fullscreenexit_events,rt,stimulus,key_press,button_pressed,success,duration,valid_pressed,rts,keys,planet_text,right_text,left_text,center_text,chosen_text,reward_text,trial_stage,practice_trial,transition_type,choice,transition,reward,timestamp,subject_id
pavlovia,0,4,0.0-0.0,TRUE,FALSE,FALSE,TRUE,"""event"",""trial"",""time""
""blur"",""0"",""0""
""focus"",""0"",""0""
""blur"",""0"",""0""
""focus"",""0"",""0""
""blur"",""0"",""0""
""focus"",""0"",""0""
""blur"",""0"",""0""
""focus"",""0"",""0""
""blur"",""0"",""0""
""focus"",""1"",""15247""
","""event"",""trial"",""time""
""blur"",""0"",""0""
""blur"",""0"",""0""
""blur"",""0"",""0""
""blur"",""0"",""0""
""blur"",""0"",""0""
","""event"",""trial"",""time""
""focus"",""0"",""0""
""focus"",""0"",""0""
""focus"",""0"",""0""
""focus"",""0"",""0""
""focus"",""1"",""15247""
","
","
",NA,NA,NA,NA,NA,NA,NA,NA,NA,NA,NA,NA,NA,NA,NA,NA,NA,NA,NA,NA,NA,NA,sub91
html-keyboard-response,1,15883,0.0-1.0,TRUE,FALSE,FALSE,TRUE,"""event"",""trial"",""time""
""blur"",""0"",""0""
""focus"",""0"",""0""
""blur"",""0"",""0""
""focus"",""0"",""0""
""blur"",""0"",""0""
""focus"",""0"",""0""
""blur"",""0"",""0""
""focus"",""0"",""0""
""blur"",""0"",""0""
""focus"",""1"",""15247""
","""event"",""trial"",""time""
""blur"",""0"",""0""
""blur"",""0"",""0""
""blur"",""0"",""0""
""blur"",""0"",""0""
""blur"",""0"",""0""
","""event"",""trial"",""time""
""focus"",""0"",""0""
""focus"",""0"",""0""
""focus"",""0"",""0""
""focus"",""0"",""0""
""focus"",""1"",""15247""
","
","
",15877.634999997099,Welcome! Press the space bar to begin.,32,NA,NA,NA,NA,NA,NA,NA,NA,NA,NA,NA,NA,NA,NA,NA,NA,NA,NA,NA,sub91
audio-keyboard-response,2,19300,0.0-2.0,TRUE,FALSE,FALSE,TRUE,"""event"",""trial"",""time""
""blur"",""0"",""0""
""focus"",""0"",""0""
""blur"",""0"",""0""
""focus"",""0"",""0""
""blur"",""0"",""0""
""focus"",""0"",""0""
""blur"",""0"",""0""
""focus"",""0"",""0""
""blur"",""0"",""0""
""focus"",""1"",""15247""
""blur"",""3"",""19997""
""focus"",""3"",""21871""
","""event"",""trial"",""time""
""blur"",""0"",""0""
""blur"",""0"",""0""
""blur"",""0"",""0""
""blur"",""0"",""0""
""blur"",""0"",""0""
""blur"",""3"",""19997""
","""event"",""trial"",""time""
""focus"",""0"",""0""
""focus"",""0"",""0""
""focus"",""0"",""0""
""focus"",""0"",""0""
""focus"",""1"",""15247""
""focus"",""3"",""21871""
","
","
",3360,audio/beep_loop.wav,32,NA,NA,NA,NA,NA,NA,NA,NA,NA,NA,NA,NA,NA,NA,NA,NA,NA,NA,NA,sub91
audio-button-response,3,21930,0.0-3.0,TRUE,FALSE,FALSE,TRUE,"""event"",""trial"",""time""
""blur"",""0"",""0""
""focus"",""0"",""0""
""blur"",""0"",""0""
""focus"",""0"",""0""
""blur"",""0"",""0""
""focus"",""0"",""0""
""blur"",""0"",""0""
""focus"",""0"",""0""
""blur"",""0"",""0""
""focus"",""1"",""15247""
""blur"",""3"",""19997""
""focus"",""3"",""21871""
","""event"",""trial"",""time""
""blur"",""0"",""0""
""blur"",""0"",""0""
""blur"",""0"",""0""
""blur"",""0"",""0""
""blur"",""0"",""0""
""blur"",""3"",""19997""
","""event"",""trial"",""time""
""focus"",""0"",""0""
""focus"",""0"",""0""
""focus"",""0"",""0""
""focus"",""0"",""0""
""focus"",""1"",""15247""
""focus"",""3"",""21871""
","
","
",NaN,audio/fish.mp3,NA,1,NA,NA,NA,NA,NA,NA,NA,NA,NA,NA,NA,NA,NA,NA,NA,NA,NA,NA,sub91
audio-button-response,4,24546,0.0-4.0,TRUE,FALSE,FALSE,TRUE,"""event"",""trial"",""time""
""blur"",""0"",""0""
""focus"",""0"",""0""
""blur"",""0"",""0""
""focus"",""0"",""0""
""blur"",""0"",""0""
""focus"",""0"",""0""
""blur"",""0"",""0""
""focus"",""0"",""0""
""blur"",""0"",""0""
""focus"",""1"",""15247""
""blur"",""3"",""19997""
""focus"",""3"",""21871""
""fullscreenenter"",""5"",""28614""
","""event"",""trial"",""time""
""blur"",""0"",""0""
""blur"",""0"",""0""
""blur"",""0"",""0""
""blur"",""0"",""0""
""blur"",""0"",""0""
""blur"",""3"",""19997""
","""event"",""trial"",""time""
""focus"",""0"",""0""
""focus"",""0"",""0""
""focus"",""0"",""0""
""focus"",""0"",""0""
""focus"",""1"",""15247""
""focus"",""3"",""21871""
","""event"",""trial"",""time""
""fullscreenenter"",""5"",""28614""
","
",NaN,audio/tiger.mp3,NA,4,NA,NA,NA,NA,NA,NA,NA,NA,NA,NA,NA,NA,NA,NA,NA,NA,NA,NA,sub91
fullscreen,5,29606,0.0-5.0,TRUE,FALSE,FALSE,TRUE,"""event"",""trial"",""time""
""blur"",""0"",""0""
""focus"",""0"",""0""
""blur"",""0"",""0""
""focus"",""0"",""0""
""blur"",""0"",""0""
""focus"",""0"",""0""
""blur"",""0"",""0""
""focus"",""0"",""0""
""blur"",""0"",""0""
""focus"",""1"",""15247""
""blur"",""3"",""19997""
""focus"",""3"",""21871""
""fullscreenenter"",""5"",""28614""
""blur"",""6"",""32556""
""focus"",""6"",""33387""
","""event"",""trial"",""time""
""blur"",""0"",""0""
""blur"",""0"",""0""
""blur"",""0"",""0""
""blur"",""0"",""0""
""blur"",""0"",""0""
""blur"",""3"",""19997""
""blur"",""6"",""32556""
","""event"",""trial"",""time""
""focus"",""0"",""0""
""focus"",""0"",""0""
""focus"",""0"",""0""
""focus"",""0"",""0""
""focus"",""1"",""15247""
""focus"",""3"",""21871""
""focus"",""6"",""33387""
","""event"",""trial"",""time""
""fullscreenenter"",""5"",""28614""
","
",NA,NA,NA,NA,TRUE,NA,NA,NA,NA,NA,NA,NA,NA,NA,NA,NA,NA,NA,NA,NA,NA,NA,sub91
d3-instructions,6,48354,0.0-6.0,TRUE,FALSE,FALSE,TRUE,"""event"",""trial"",""time""
""blur"",""0"",""0""
""focus"",""0"",""0""
""blur"",""0"",""0""
""focus"",""0"",""0""
""blur"",""0"",""0""
""focus"",""0"",""0""
""blur"",""0"",""0""
""focus"",""0"",""0""
""blur"",""0"",""0""
""focus"",""1"",""15247""
""blur"",""3"",""19997""
""focus"",""3"",""21871""
""fullscreenenter"",""5"",""28614""
""blur"",""6"",""32556""
""focus"",""6"",""33387""
","""event"",""trial"",""time""
""blur"",""0"",""0""
""blur"",""0"",""0""
""blur"",""0"",""0""
""blur"",""0"",""0""
""blur"",""0"",""0""
""blur"",""3"",""19997""
""blur"",""6"",""32556""
","""event"",""trial"",""time""
""focus"",""0"",""0""
""focus"",""0"",""0""
""focus"",""0"",""0""
""focus"",""0"",""0""
""focus"",""1"",""15247""
""focus"",""3"",""21871""
""focus"",""6"",""33387""
","""event"",""trial"",""time""
""fullscreenenter"",""5"",""28614""
","
",NA,NA,NA,NA,NA,NA,NA,NA,NA,NA,NA,NA,NA,NA,NA,NA,NA,NA,NA,NA,NA,NA,sub91
d3-instructions,7,58666,0.0-7.0,TRUE,FALSE,FALSE,TRUE,"""event"",""trial"",""time""
""blur"",""0"",""0""
""focus"",""0"",""0""
""blur"",""0"",""0""
""focus"",""0"",""0""
""blur"",""0"",""0""
""focus"",""0"",""0""
""blur"",""0"",""0""
""focus"",""0"",""0""
""blur"",""0"",""0""
""focus"",""1"",""15247""
""blur"",""3"",""19997""
""focus"",""3"",""21871""
""fullscreenenter"",""5"",""28614""
""blur"",""6"",""32556""
""focus"",""6"",""33387""
","""event"",""trial"",""time""
""blur"",""0"",""0""
""blur"",""0"",""0""
""blur"",""0"",""0""
""blur"",""0"",""0""
""blur"",""0"",""0""
""blur"",""3"",""19997""
""blur"",""6"",""32556""
","""event"",""trial"",""time""
""focus"",""0"",""0""
""focus"",""0"",""0""
""focus"",""0"",""0""
""focus"",""0"",""0""
""focus"",""1"",""15247""
""focus"",""3"",""21871""
""focus"",""6"",""33387""
","""event"",""trial"",""time""
""fullscreenenter"",""5"",""28614""
","
",NA,NA,NA,NA,NA,NA,NA,NA,NA,NA,NA,NA,NA,NA,NA,NA,NA,NA,NA,NA,NA,NA,sub91
d3-instructions,8,68770,0.0-8.0,TRUE,FALSE,FALSE,TRUE,"""event"",""trial"",""time""
""blur"",""0"",""0""
""focus"",""0"",""0""
""blur"",""0"",""0""
""focus"",""0"",""0""
""blur"",""0"",""0""
""focus"",""0"",""0""
""blur"",""0"",""0""
""focus"",""0"",""0""
""blur"",""0"",""0""
""focus"",""1"",""15247""
""blur"",""3"",""19997""
""focus"",""3"",""21871""
""fullscreenenter"",""5"",""28614""
""blur"",""6"",""32556""
""focus"",""6"",""33387""
","""event"",""trial"",""time""
""blur"",""0"",""0""
""blur"",""0"",""0""
""blur"",""0"",""0""
""blur"",""0"",""0""
""blur"",""0"",""0""
""blur"",""3"",""19997""
""blur"",""6"",""32556""
","""event"",""trial"",""time""
""focus"",""0"",""0""
""focus"",""0"",""0""
""focus"",""0"",""0""
""focus"",""0"",""0""
""focus"",""1"",""15247""
""focus"",""3"",""21871""
""focus"",""6"",""33387""
","""event"",""trial"",""time""
""fullscreenenter"",""5"",""28614""
","
",NA,NA,NA,NA,NA,NA,NA,NA,NA,NA,NA,NA,NA,NA,NA,NA,NA,NA,NA,NA,NA,NA,sub91
d3-instructions,9,81058,0.0-9.0,TRUE,FALSE,FALSE,TRUE,"""event"",""trial"",""time""
""blur"",""0"",""0""
""focus"",""0"",""0""
""blur"",""0"",""0""
""focus"",""0"",""0""
""blur"",""0"",""0""
""focus"",""0"",""0""
""blur"",""0"",""0""
""focus"",""0"",""0""
""blur"",""0"",""0""
""focus"",""1"",""15247""
""blur"",""3"",""19997""
""focus"",""3"",""21871""
""fullscreenenter"",""5"",""28614""
""blur"",""6"",""32556""
""focus"",""6"",""33387""
","""event"",""trial"",""time""
""blur"",""0"",""0""
""blur"",""0"",""0""
""blur"",""0"",""0""
""blur"",""0"",""0""
""blur"",""0"",""0""
""blur"",""3"",""19997""
""blur"",""6"",""32556""
","""event"",""trial"",""time""
""focus"",""0"",""0""
""focus"",""0"",""0""
""focus"",""0"",""0""
""focus"",""0"",""0""
""focus"",""1"",""15247""
""focus"",""3"",""21871""
""focus"",""6"",""33387""
","""event"",""trial"",""time""
""fullscreenenter"",""5"",""28614""
","
",NA,NA,NA,NA,NA,NA,NA,NA,NA,NA,NA,NA,NA,NA,NA,NA,NA,NA,NA,NA,NA,NA,sub91
d3-instructions,10,101474,0.0-10.0,TRUE,FALSE,FALSE,TRUE,"""event"",""trial"",""time""
""blur"",""0"",""0""
""focus"",""0"",""0""
""blur"",""0"",""0""
""focus"",""0"",""0""
""blur"",""0"",""0""
""focus"",""0"",""0""
""blur"",""0"",""0""
""focus"",""0"",""0""
""blur"",""0"",""0""
""focus"",""1"",""15247""
""blur"",""3"",""19997""
""focus"",""3"",""21871""
""fullscreenenter"",""5"",""28614""
""blur"",""6"",""32556""
""focus"",""6"",""33387""
","""event"",""trial"",""time""
""blur"",""0"",""0""
""blur"",""0"",""0""
""blur"",""0"",""0""
""blur"",""0"",""0""
""blur"",""0"",""0""
""blur"",""3"",""19997""
""blur"",""6"",""32556""
","""event"",""trial"",""time""
""focus"",""0"",""0""
""focus"",""0"",""0""
""focus"",""0"",""0""
""focus"",""0"",""0""
""focus"",""1"",""15247""
""focus"",""3"",""21871""
""focus"",""6"",""33387""
","""event"",""trial"",""time""
""fullscreenenter"",""5"",""28614""
","
",NA,NA,NA,NA,NA,NA,NA,NA,NA,NA,NA,NA,NA,NA,NA,NA,NA,NA,NA,NA,NA,NA,sub91
d3-animate-choice,11,104917,0.0-11.0,TRUE,FALSE,FALSE,TRUE,"""event"",""trial"",""time""
""blur"",""0"",""0""
""focus"",""0"",""0""
""blur"",""0"",""0""
""focus"",""0"",""0""
""blur"",""0"",""0""
""focus"",""0"",""0""
""blur"",""0"",""0""
""focus"",""0"",""0""
""blur"",""0"",""0""
""focus"",""1"",""15247""
""blur"",""3"",""19997""
""focus"",""3"",""21871""
""fullscreenenter"",""5"",""28614""
""blur"",""6"",""32556""
""focus"",""6"",""33387""
","""event"",""trial"",""time""
""blur"",""0"",""0""
""blur"",""0"",""0""
""blur"",""0"",""0""
""blur"",""0"",""0""
""blur"",""0"",""0""
""blur"",""3"",""19997""
""blur"",""6"",""32556""
","""event"",""trial"",""time""
""focus"",""0"",""0""
""focus"",""0"",""0""
""focus"",""0"",""0""
""focus"",""0"",""0""
""focus"",""1"",""15247""
""focus"",""3"",""21871""
""focus"",""6"",""33387""
","""event"",""trial"",""time""
""fullscreenenter"",""5"",""28614""
","
",1438.2149999873945,NA,49,NA,NA,3000,1,"2573.6399999877904,3109.9749999993946",4848,images/tutgreenplanet.jpg,images/tutalien1,images/tutalien2,null,images/tutalien2,NA,NA,practice,null,NA,NA,NA,NA,sub91
d3-animate-choice,12,107892,0.0-12.0,TRUE,FALSE,FALSE,TRUE,"""event"",""trial"",""time""
""blur"",""0"",""0""
""focus"",""0"",""0""
""blur"",""0"",""0""
""focus"",""0"",""0""
""blur"",""0"",""0""
""focus"",""0"",""0""
""blur"",""0"",""0""
""focus"",""0"",""0""
""blur"",""0"",""0""
""focus"",""1"",""15247""
""blur"",""3"",""19997""
""focus"",""3"",""21871""
""fullscreenenter"",""5"",""28614""
""blur"",""6"",""32556""
""focus"",""6"",""33387""
","""event"",""trial"",""time""
""blur"",""0"",""0""
""blur"",""0"",""0""
""blur"",""0"",""0""
""blur"",""0"",""0""
""blur"",""0"",""0""
""blur"",""3"",""19997""
""blur"",""6"",""32556""
","""event"",""trial"",""time""
""focus"",""0"",""0""
""focus"",""0"",""0""
""focus"",""0"",""0""
""focus"",""0"",""0""
""focus"",""1"",""15247""
""focus"",""3"",""21871""
""focus"",""6"",""33387""
","""event"",""trial"",""time""
""fullscreenenter"",""5"",""28614""
","
",971.3049999991199,NA,48,NA,NA,3000,1,"1818.9799999963725,2410.9600000083447",4848,images/tutgreenplanet.jpg,images/tutalien1,images/tutalien2,null,images/tutalien1,NA,NA,practice,null,NA,NA,NA,NA,sub91
d3-animate-choice,13,110356,0.0-13.0,TRUE,FALSE,FALSE,TRUE,"""event"",""trial"",""time""
""blur"",""0"",""0""
""focus"",""0"",""0""
""blur"",""0"",""0""
""focus"",""0"",""0""
""blur"",""0"",""0""
""focus"",""0"",""0""
""blur"",""0"",""0""
""focus"",""0"",""0""
""blur"",""0"",""0""
""focus"",""1"",""15247""
""blur"",""3"",""19997""
""focus"",""3"",""21871""
""fullscreenenter"",""5"",""28614""
""blur"",""6"",""32556""
""focus"",""6"",""33387""
","""event"",""trial"",""time""
""blur"",""0"",""0""
""blur"",""0"",""0""
""blur"",""0"",""0""
""blur"",""0"",""0""
""blur"",""0"",""0""
""blur"",""3"",""19997""
""blur"",""6"",""32556""
","""event"",""trial"",""time""
""focus"",""0"",""0""
""focus"",""0"",""0""
""focus"",""0"",""0""
""focus"",""0"",""0""
""focus"",""1"",""15247""
""focus"",""3"",""21871""
""focus"",""6"",""33387""
","""event"",""trial"",""time""
""fullscreenenter"",""5"",""28614""
","
",460.18999999796506,NA,49,NA,NA,3000,1,NA,NA,images/tutgreenplanet.jpg,images/tutalien1,images/tutalien2,null,images/tutalien2,NA,NA,practice,null,NA,NA,NA,NA,sub91
d3-animate-choice,14,113012,0.0-14.0,TRUE,FALSE,FALSE,TRUE,"""event"",""trial"",""time""
""blur"",""0"",""0""
""focus"",""0"",""0""
""blur"",""0"",""0""
""focus"",""0"",""0""
""blur"",""0"",""0""
""focus"",""0"",""0""
""blur"",""0"",""0""
""focus"",""0"",""0""
""blur"",""0"",""0""
""focus"",""1"",""15247""
""blur"",""3"",""19997""
""focus"",""3"",""21871""
""fullscreenenter"",""5"",""28614""
""blur"",""6"",""32556""
""focus"",""6"",""33387""
","""event"",""trial"",""time""
""blur"",""0"",""0""
""blur"",""0"",""0""
""blur"",""0"",""0""
""blur"",""0"",""0""
""blur"",""0"",""0""
""blur"",""3"",""19997""
""blur"",""6"",""32556""
","""event"",""trial"",""time""
""focus"",""0"",""0""
""focus"",""0"",""0""
""focus"",""0"",""0""
""focus"",""0"",""0""
""focus"",""1"",""15247""
""focus"",""3"",""21871""
""focus"",""6"",""33387""
","""event"",""trial"",""time""
""fullscreenenter"",""5"",""28614""
","
",652.8499999985797,NA,48,NA,NA,3000,1,NA,NA,images/tutgreenplanet.jpg,images/tutalien1,images/tutalien2,null,images/tutalien1,NA,NA,practice,null,NA,NA,NA,NA,sub91
d3-instructions,15,124514,0.0-15.0,TRUE,FALSE,FALSE,TRUE,"""event"",""trial"",""time""
""blur"",""0"",""0""
""focus"",""0"",""0""
""blur"",""0"",""0""
""focus"",""0"",""0""
""blur"",""0"",""0""
""focus"",""0"",""0""
""blur"",""0"",""0""
""focus"",""0"",""0""
""blur"",""0"",""0""
""focus"",""1"",""15247""
""blur"",""3"",""19997""
""focus"",""3"",""21871""
""fullscreenenter"",""5"",""28614""
""blur"",""6"",""32556""
""focus"",""6"",""33387""
","""event"",""trial"",""time""
""blur"",""0"",""0""
""blur"",""0"",""0""
""blur"",""0"",""0""
""blur"",""0"",""0""
""blur"",""0"",""0""
""blur"",""3"",""19997""
""blur"",""6"",""32556""
","""event"",""trial"",""time""
""focus"",""0"",""0""
""focus"",""0"",""0""
""focus"",""0"",""0""
""focus"",""0"",""0""
""focus"",""1"",""15247""
""focus"",""3"",""21871""
""focus"",""6"",""33387""
","""event"",""trial"",""time""
""fullscreenenter"",""5"",""28614""
","
",NA,NA,NA,NA,NA,NA,NA,NA,NA,NA,NA,NA,NA,NA,NA,NA,NA,NA,NA,NA,NA,NA,sub91
d3-instructions,16,132874,0.0-16.0,TRUE,FALSE,FALSE,TRUE,"""event"",""trial"",""time""
""blur"",""0"",""0""
""focus"",""0"",""0""
""blur"",""0"",""0""
""focus"",""0"",""0""
""blur"",""0"",""0""
""focus"",""0"",""0""
""blur"",""0"",""0""
""focus"",""0"",""0""
""blur"",""0"",""0""
""focus"",""1"",""15247""
""blur"",""3"",""19997""
""focus"",""3"",""21871""
""fullscreenenter"",""5"",""28614""
""blur"",""6"",""32556""
""focus"",""6"",""33387""
","""event"",""trial"",""time""
""blur"",""0"",""0""
""blur"",""0"",""0""
""blur"",""0"",""0""
""blur"",""0"",""0""
""blur"",""0"",""0""
""blur"",""3"",""19997""
""blur"",""6"",""32556""
","""event"",""trial"",""time""
""focus"",""0"",""0""
""focus"",""0"",""0""
""focus"",""0"",""0""
""focus"",""0"",""0""
""focus"",""1"",""15247""
""focus"",""3"",""21871""
""focus"",""6"",""33387""
","""event"",""trial"",""time""
""fullscreenenter"",""5"",""28614""
","
",NA,NA,NA,NA,NA,NA,NA,NA,NA,NA,NA,NA,NA,NA,NA,NA,NA,NA,NA,NA,NA,NA,sub91
d3-instructions,17,143042,0.0-17.0,TRUE,FALSE,FALSE,TRUE,"""event"",""trial"",""time""
""blur"",""0"",""0""
""focus"",""0"",""0""
""blur"",""0"",""0""
""focus"",""0"",""0""
""blur"",""0"",""0""
""focus"",""0"",""0""
""blur"",""0"",""0""
""focus"",""0"",""0""
""blur"",""0"",""0""
""focus"",""1"",""15247""
""blur"",""3"",""19997""
""focus"",""3"",""21871""
""fullscreenenter"",""5"",""28614""
""blur"",""6"",""32556""
""focus"",""6"",""33387""
""blur"",""18"",""153460""
""focus"",""18"",""154255""
","""event"",""trial"",""time""
""blur"",""0"",""0""
""blur"",""0"",""0""
""blur"",""0"",""0""
""blur"",""0"",""0""
""blur"",""0"",""0""
""blur"",""3"",""19997""
""blur"",""6"",""32556""
""blur"",""18"",""153460""
","""event"",""trial"",""time""
""focus"",""0"",""0""
""focus"",""0"",""0""
""focus"",""0"",""0""
""focus"",""0"",""0""
""focus"",""1"",""15247""
""focus"",""3"",""21871""
""focus"",""6"",""33387""
""focus"",""18"",""154255""
","""event"",""trial"",""time""
""fullscreenenter"",""5"",""28614""
","
",NA,NA,NA,NA,NA,NA,NA,NA,NA,NA,NA,NA,NA,NA,NA,NA,NA,NA,NA,NA,NA,NA,sub91
d3-instructions,18,157465,0.0-18.0,TRUE,FALSE,FALSE,TRUE,"""event"",""trial"",""time""
""blur"",""0"",""0""
""focus"",""0"",""0""
""blur"",""0"",""0""
""focus"",""0"",""0""
""blur"",""0"",""0""
""focus"",""0"",""0""
""blur"",""0"",""0""
""focus"",""0"",""0""
""blur"",""0"",""0""
""focus"",""1"",""15247""
""blur"",""3"",""19997""
""focus"",""3"",""21871""
""fullscreenenter"",""5"",""28614""
""blur"",""6"",""32556""
""focus"",""6"",""33387""
""blur"",""18"",""153460""
""focus"",""18"",""154255""
","""event"",""trial"",""time""
""blur"",""0"",""0""
""blur"",""0"",""0""
""blur"",""0"",""0""
""blur"",""0"",""0""
""blur"",""0"",""0""
""blur"",""3"",""19997""
""blur"",""6"",""32556""
""blur"",""18"",""153460""
","""event"",""trial"",""time""
""focus"",""0"",""0""
""focus"",""0"",""0""
""focus"",""0"",""0""
""focus"",""0"",""0""
""focus"",""1"",""15247""
""focus"",""3"",""21871""
""focus"",""6"",""33387""
""focus"",""18"",""154255""
","""event"",""trial"",""time""
""fullscreenenter"",""5"",""28614""
","
",NA,NA,NA,NA,NA,NA,NA,NA,NA,NA,NA,NA,NA,NA,NA,NA,NA,NA,NA,NA,NA,NA,sub91
d3-instructions,19,173634,0.0-19.0,TRUE,FALSE,FALSE,TRUE,"""event"",""trial"",""time""
""blur"",""0"",""0""
""focus"",""0"",""0""
""blur"",""0"",""0""
""focus"",""0"",""0""
""blur"",""0"",""0""
""focus"",""0"",""0""
""blur"",""0"",""0""
""focus"",""0"",""0""
""blur"",""0"",""0""
""focus"",""1"",""15247""
""blur"",""3"",""19997""
""focus"",""3"",""21871""
""fullscreenenter"",""5"",""28614""
""blur"",""6"",""32556""
""focus"",""6"",""33387""
""blur"",""18"",""153460""
""focus"",""18"",""154255""
","""event"",""trial"",""time""
""blur"",""0"",""0""
""blur"",""0"",""0""
""blur"",""0"",""0""
""blur"",""0"",""0""
""blur"",""0"",""0""
""blur"",""3"",""19997""
""blur"",""6"",""32556""
""blur"",""18"",""153460""
","""event"",""trial"",""time""
""focus"",""0"",""0""
""focus"",""0"",""0""
""focus"",""0"",""0""
""focus"",""0"",""0""
""focus"",""1"",""15247""
""focus"",""3"",""21871""
""focus"",""6"",""33387""
""focus"",""18"",""154255""
","""event"",""trial"",""time""
""fullscreenenter"",""5"",""28614""
","
",NA,NA,NA,NA,NA,NA,NA,NA,NA,NA,NA,NA,NA,NA,NA,NA,NA,NA,NA,NA,NA,NA,sub91
d3-animate-choice,20,176859,0.0-20.0,TRUE,FALSE,FALSE,TRUE,"""event"",""trial"",""time""
""blur"",""0"",""0""
""focus"",""0"",""0""
""blur"",""0"",""0""
""focus"",""0"",""0""
""blur"",""0"",""0""
""focus"",""0"",""0""
""blur"",""0"",""0""
""focus"",""0"",""0""
""blur"",""0"",""0""
""focus"",""1"",""15247""
""blur"",""3"",""19997""
""focus"",""3"",""21871""
""fullscreenenter"",""5"",""28614""
""blur"",""6"",""32556""
""focus"",""6"",""33387""
""blur"",""18"",""153460""
""focus"",""18"",""154255""
","""event"",""trial"",""time""
""blur"",""0"",""0""
""blur"",""0"",""0""
""blur"",""0"",""0""
""blur"",""0"",""0""
""blur"",""0"",""0""
""blur"",""3"",""19997""
""blur"",""6"",""32556""
""blur"",""18"",""153460""
","""event"",""trial"",""time""
""focus"",""0"",""0""
""focus"",""0"",""0""
""focus"",""0"",""0""
""focus"",""0"",""0""
""focus"",""1"",""15247""
""focus"",""3"",""21871""
""focus"",""6"",""33387""
""focus"",""18"",""154255""
","""event"",""trial"",""time""
""fullscreenenter"",""5"",""28614""
","
",1222.0850000012433,NA,49,NA,NA,3000,1,1742.2149999911198,49,images/tutyellowplanet.jpg,null,images/tutalien3,null,images/tutalien3,images/t.png,NA,practice,null,NA,NA,NA,NA,sub91
d3-animate-choice,21,179396,0.0-21.0,TRUE,FALSE,FALSE,TRUE,"""event"",""trial"",""time""
""blur"",""0"",""0""
""focus"",""0"",""0""
""blur"",""0"",""0""
""focus"",""0"",""0""
""blur"",""0"",""0""
""focus"",""0"",""0""
""blur"",""0"",""0""
""focus"",""0"",""0""
""blur"",""0"",""0""
""focus"",""1"",""15247""
""blur"",""3"",""19997""
""focus"",""3"",""21871""
""fullscreenenter"",""5"",""28614""
""blur"",""6"",""32556""
""focus"",""6"",""33387""
""blur"",""18"",""153460""
""focus"",""18"",""154255""
","""event"",""trial"",""time""
""blur"",""0"",""0""
""blur"",""0"",""0""
""blur"",""0"",""0""
""blur"",""0"",""0""
""blur"",""0"",""0""
""blur"",""3"",""19997""
""blur"",""6"",""32556""
""blur"",""18"",""153460""
","""event"",""trial"",""time""
""focus"",""0"",""0""
""focus"",""0"",""0""
""focus"",""0"",""0""
""focus"",""0"",""0""
""focus"",""1"",""15247""
""focus"",""3"",""21871""
""focus"",""6"",""33387""
""focus"",""18"",""154255""
","""event"",""trial"",""time""
""fullscreenenter"",""5"",""28614""
","
",533.5900000063702,NA,49,NA,NA,3000,1,NA,NA,images/tutyellowplanet.jpg,null,images/tutalien3,null,images/tutalien3,images/t.png,NA,practice,null,NA,NA,NA,NA,sub91
d3-animate-choice,22,181820,0.0-22.0,TRUE,FALSE,FALSE,TRUE,"""event"",""trial"",""time""
""blur"",""0"",""0""
""focus"",""0"",""0""
""blur"",""0"",""0""
""focus"",""0"",""0""
""blur"",""0"",""0""
""focus"",""0"",""0""
""blur"",""0"",""0""
""focus"",""0"",""0""
""blur"",""0"",""0""
""focus"",""1"",""15247""
""blur"",""3"",""19997""
""focus"",""3"",""21871""
""fullscreenenter"",""5"",""28614""
""blur"",""6"",""32556""
""focus"",""6"",""33387""
""blur"",""18"",""153460""
""focus"",""18"",""154255""
","""event"",""trial"",""time""
""blur"",""0"",""0""
""blur"",""0"",""0""
""blur"",""0"",""0""
""blur"",""0"",""0""
""blur"",""0"",""0""
""blur"",""3"",""19997""
""blur"",""6"",""32556""
""blur"",""18"",""153460""
","""event"",""trial"",""time""
""focus"",""0"",""0""
""focus"",""0"",""0""
""focus"",""0"",""0""
""focus"",""0"",""0""
""focus"",""1"",""15247""
""focus"",""3"",""21871""
""focus"",""6"",""33387""
""focus"",""18"",""154255""
","""event"",""trial"",""time""
""fullscreenenter"",""5"",""28614""
","
",420.574999996461,NA,49,NA,NA,3000,1,NA,NA,images/tutyellowplanet.jpg,null,images/tutalien3,null,images/tutalien3,images/t.png,NA,practice,null,NA,NA,NA,NA,sub91
d3-animate-choice,23,184500,0.0-23.0,TRUE,FALSE,FALSE,TRUE,"""event"",""trial"",""time""
""blur"",""0"",""0""
""focus"",""0"",""0""
""blur"",""0"",""0""
""focus"",""0"",""0""
""blur"",""0"",""0""
""focus"",""0"",""0""
""blur"",""0"",""0""
""focus"",""0"",""0""
""blur"",""0"",""0""
""focus"",""1"",""15247""
""blur"",""3"",""19997""
""focus"",""3"",""21871""
""fullscreenenter"",""5"",""28614""
""blur"",""6"",""32556""
""focus"",""6"",""33387""
""blur"",""18"",""153460""
""focus"",""18"",""154255""
","""event"",""trial"",""time""
""blur"",""0"",""0""
""blur"",""0"",""0""
""blur"",""0"",""0""
""blur"",""0"",""0""
""blur"",""0"",""0""
""blur"",""3"",""19997""
""blur"",""6"",""32556""
""blur"",""18"",""153460""
","""event"",""trial"",""time""
""focus"",""0"",""0""
""focus"",""0"",""0""
""focus"",""0"",""0""
""focus"",""0"",""0""
""focus"",""1"",""15247""
""focus"",""3"",""21871""
""focus"",""6"",""33387""
""focus"",""18"",""154255""
","""event"",""trial"",""time""
""fullscreenenter"",""5"",""28614""
","
",677.4900000018533,NA,49,NA,NA,3000,1,NA,NA,images/tutyellowplanet.jpg,null,images/tutalien3,null,images/tutalien3,images/t.png,NA,practice,null,NA,NA,NA,NA,sub91
d3-animate-choice,24,186860,0.0-24.0,TRUE,FALSE,FALSE,TRUE,"""event"",""trial"",""time""
""blur"",""0"",""0""
""focus"",""0"",""0""
""blur"",""0"",""0""
""focus"",""0"",""0""
""blur"",""0"",""0""
""focus"",""0"",""0""
""blur"",""0"",""0""
""focus"",""0"",""0""
""blur"",""0"",""0""
""focus"",""1"",""15247""
""blur"",""3"",""19997""
""focus"",""3"",""21871""
""fullscreenenter"",""5"",""28614""
""blur"",""6"",""32556""
""focus"",""6"",""33387""
""blur"",""18"",""153460""
""focus"",""18"",""154255""
","""event"",""trial"",""time""
""blur"",""0"",""0""
""blur"",""0"",""0""
""blur"",""0"",""0""
""blur"",""0"",""0""
""blur"",""0"",""0""
""blur"",""3"",""19997""
""blur"",""6"",""32556""
""blur"",""18"",""153460""
","""event"",""trial"",""time""
""focus"",""0"",""0""
""focus"",""0"",""0""
""focus"",""0"",""0""
""focus"",""0"",""0""
""focus"",""1"",""15247""
""focus"",""3"",""21871""
""focus"",""6"",""33387""
""focus"",""18"",""154255""
","""event"",""trial"",""time""
""fullscreenenter"",""5"",""28614""
","
",355.99499999079853,NA,49,NA,NA,3000,1,NA,NA,images/tutyellowplanet.jpg,null,images/tutalien3,null,images/tutalien3,images/t.png,NA,practice,null,NA,NA,NA,NA,sub91
d3-animate-choice,25,189178,0.0-25.0,TRUE,FALSE,FALSE,TRUE,"""event"",""trial"",""time""
""blur"",""0"",""0""
""focus"",""0"",""0""
""blur"",""0"",""0""
""focus"",""0"",""0""
""blur"",""0"",""0""
""focus"",""0"",""0""
""blur"",""0"",""0""
""focus"",""0"",""0""
""blur"",""0"",""0""
""focus"",""1"",""15247""
""blur"",""3"",""19997""
""focus"",""3"",""21871""
""fullscreenenter"",""5"",""28614""
""blur"",""6"",""32556""
""focus"",""6"",""33387""
""blur"",""18"",""153460""
""focus"",""18"",""154255""
","""event"",""trial"",""time""
""blur"",""0"",""0""
""blur"",""0"",""0""
""blur"",""0"",""0""
""blur"",""0"",""0""
""blur"",""0"",""0""
""blur"",""3"",""19997""
""blur"",""6"",""32556""
""blur"",""18"",""153460""
","""event"",""trial"",""time""
""focus"",""0"",""0""
""focus"",""0"",""0""
""focus"",""0"",""0""
""focus"",""0"",""0""
""focus"",""1"",""15247""
""focus"",""3"",""21871""
""focus"",""6"",""33387""
""focus"",""18"",""154255""
","""event"",""trial"",""time""
""fullscreenenter"",""5"",""28614""
","
",316.80499999492895,NA,49,NA,NA,3000,1,NA,NA,images/tutyellowplanet.jpg,null,images/tutalien3,null,images/tutalien3,images/t.png,NA,practice,null,NA,NA,NA,NA,sub91
d3-animate-choice,26,192371,0.0-26.0,TRUE,FALSE,FALSE,TRUE,"""event"",""trial"",""time""
""blur"",""0"",""0""
""focus"",""0"",""0""
""blur"",""0"",""0""
""focus"",""0"",""0""
""blur"",""0"",""0""
""focus"",""0"",""0""
""blur"",""0"",""0""
""focus"",""0"",""0""
""blur"",""0"",""0""
""focus"",""1"",""15247""
""blur"",""3"",""19997""
""focus"",""3"",""21871""
""fullscreenenter"",""5"",""28614""
""blur"",""6"",""32556""
""focus"",""6"",""33387""
""blur"",""18"",""153460""
""focus"",""18"",""154255""
","""event"",""trial"",""time""
""blur"",""0"",""0""
""blur"",""0"",""0""
""blur"",""0"",""0""
""blur"",""0"",""0""
""blur"",""0"",""0""
""blur"",""3"",""19997""
""blur"",""6"",""32556""
""blur"",""18"",""153460""
","""event"",""trial"",""time""
""focus"",""0"",""0""
""focus"",""0"",""0""
""focus"",""0"",""0""
""focus"",""0"",""0""
""focus"",""1"",""15247""
""focus"",""3"",""21871""
""focus"",""6"",""33387""
""focus"",""18"",""154255""
","""event"",""trial"",""time""
""fullscreenenter"",""5"",""28614""
","
",1190.3850000089733,NA,49,NA,NA,3000,1,NA,NA,images/tutyellowplanet.jpg,null,images/tutalien3,null,images/tutalien3,images/t.png,NA,practice,null,NA,NA,NA,NA,sub91
d3-animate-choice,27,194875,0.0-27.0,TRUE,FALSE,FALSE,TRUE,"""event"",""trial"",""time""
""blur"",""0"",""0""
""focus"",""0"",""0""
""blur"",""0"",""0""
""focus"",""0"",""0""
""blur"",""0"",""0""
""focus"",""0"",""0""
""blur"",""0"",""0""
""focus"",""0"",""0""
""blur"",""0"",""0""
""focus"",""1"",""15247""
""blur"",""3"",""19997""
""focus"",""3"",""21871""
""fullscreenenter"",""5"",""28614""
""blur"",""6"",""32556""
""focus"",""6"",""33387""
""blur"",""18"",""153460""
""focus"",""18"",""154255""
","""event"",""trial"",""time""
""blur"",""0"",""0""
""blur"",""0"",""0""
""blur"",""0"",""0""
""blur"",""0"",""0""
""blur"",""0"",""0""
""blur"",""3"",""19997""
""blur"",""6"",""32556""
""blur"",""18"",""153460""
","""event"",""trial"",""time""
""focus"",""0"",""0""
""focus"",""0"",""0""
""focus"",""0"",""0""
""focus"",""0"",""0""
""focus"",""1"",""15247""
""focus"",""3"",""21871""
""focus"",""6"",""33387""
""focus"",""18"",""154255""
","""event"",""trial"",""time""
""fullscreenenter"",""5"",""28614""
","
",501.3199999957578,NA,49,NA,NA,3000,1,NA,NA,images/tutyellowplanet.jpg,null,images/tutalien3,null,images/tutalien3,images/t.png,NA,practice,null,NA,NA,NA,NA,sub91
d3-animate-choice,28,197187,0.0-28.0,TRUE,FALSE,FALSE,TRUE,"""event"",""trial"",""time""
""blur"",""0"",""0""
""focus"",""0"",""0""
""blur"",""0"",""0""
""focus"",""0"",""0""
""blur"",""0"",""0""
""focus"",""0"",""0""
""blur"",""0"",""0""
""focus"",""0"",""0""
""blur"",""0"",""0""
""focus"",""1"",""15247""
""blur"",""3"",""19997""
""focus"",""3"",""21871""
""fullscreenenter"",""5"",""28614""
""blur"",""6"",""32556""
""focus"",""6"",""33387""
""blur"",""18"",""153460""
""focus"",""18"",""154255""
","""event"",""trial"",""time""
""blur"",""0"",""0""
""blur"",""0"",""0""
""blur"",""0"",""0""
""blur"",""0"",""0""
""blur"",""0"",""0""
""blur"",""3"",""19997""
""blur"",""6"",""32556""
""blur"",""18"",""153460""
","""event"",""trial"",""time""
""focus"",""0"",""0""
""focus"",""0"",""0""
""focus"",""0"",""0""
""focus"",""0"",""0""
""focus"",""1"",""15247""
""focus"",""3"",""21871""
""focus"",""6"",""33387""
""focus"",""18"",""154255""
","""event"",""trial"",""time""
""fullscreenenter"",""5"",""28614""
","
",309.28999999014195,NA,49,NA,NA,3000,1,NA,NA,images/tutyellowplanet.jpg,null,images/tutalien3,null,images/tutalien3,images/t.png,NA,practice,null,NA,NA,NA,NA,sub91
d3-animate-choice,29,209698,0.0-29.0,TRUE,FALSE,FALSE,TRUE,"""event"",""trial"",""time""
""blur"",""0"",""0""
""focus"",""0"",""0""
""blur"",""0"",""0""
""focus"",""0"",""0""
""blur"",""0"",""0""
""focus"",""0"",""0""
""blur"",""0"",""0""
""focus"",""0"",""0""
""blur"",""0"",""0""
""focus"",""1"",""15247""
""blur"",""3"",""19997""
""focus"",""3"",""21871""
""fullscreenenter"",""5"",""28614""
""blur"",""6"",""32556""
""focus"",""6"",""33387""
""blur"",""18"",""153460""
""focus"",""18"",""154255""
","""event"",""trial"",""time""
""blur"",""0"",""0""
""blur"",""0"",""0""
""blur"",""0"",""0""
""blur"",""0"",""0""
""blur"",""0"",""0""
""blur"",""3"",""19997""
""blur"",""6"",""32556""
""blur"",""18"",""153460""
","""event"",""trial"",""time""
""focus"",""0"",""0""
""focus"",""0"",""0""
""focus"",""0"",""0""
""focus"",""0"",""0""
""focus"",""1"",""15247""
""focus"",""3"",""21871""
""focus"",""6"",""33387""
""focus"",""18"",""154255""
","""event"",""trial"",""time""
""fullscreenenter"",""5"",""28614""
","
",10509.460000001127,NA,49,NA,NA,3000,1,NA,NA,images/tutyellowplanet.jpg,null,images/tutalien3,null,images/tutalien3,images/t.png,NA,practice,null,NA,NA,NA,NA,sub91
d3-instructions,30,218538,0.0-30.0,TRUE,FALSE,FALSE,TRUE,"""event"",""trial"",""time""
""blur"",""0"",""0""
""focus"",""0"",""0""
""blur"",""0"",""0""
""focus"",""0"",""0""
""blur"",""0"",""0""
""focus"",""0"",""0""
""blur"",""0"",""0""
""focus"",""0"",""0""
""blur"",""0"",""0""
""focus"",""1"",""15247""
""blur"",""3"",""19997""
""focus"",""3"",""21871""
""fullscreenenter"",""5"",""28614""
""blur"",""6"",""32556""
""focus"",""6"",""33387""
""blur"",""18"",""153460""
""focus"",""18"",""154255""
","""event"",""trial"",""time""
""blur"",""0"",""0""
""blur"",""0"",""0""
""blur"",""0"",""0""
""blur"",""0"",""0""
""blur"",""0"",""0""
""blur"",""3"",""19997""
""blur"",""6"",""32556""
""blur"",""18"",""153460""
","""event"",""trial"",""time""
""focus"",""0"",""0""
""focus"",""0"",""0""
""focus"",""0"",""0""
""focus"",""0"",""0""
""focus"",""1"",""15247""
""focus"",""3"",""21871""
""focus"",""6"",""33387""
""focus"",""18"",""154255""
","""event"",""trial"",""time""
""fullscreenenter"",""5"",""28614""
","
",NA,NA,NA,NA,NA,NA,NA,NA,NA,NA,NA,NA,NA,NA,NA,NA,NA,NA,NA,NA,NA,NA,sub91
d3-instructions,31,229779,0.0-31.0,TRUE,FALSE,FALSE,TRUE,"""event"",""trial"",""time""
""blur"",""0"",""0""
""focus"",""0"",""0""
""blur"",""0"",""0""
""focus"",""0"",""0""
""blur"",""0"",""0""
""focus"",""0"",""0""
""blur"",""0"",""0""
""focus"",""0"",""0""
""blur"",""0"",""0""
""focus"",""1"",""15247""
""blur"",""3"",""19997""
""focus"",""3"",""21871""
""fullscreenenter"",""5"",""28614""
""blur"",""6"",""32556""
""focus"",""6"",""33387""
""blur"",""18"",""153460""
""focus"",""18"",""154255""
","""event"",""trial"",""time""
""blur"",""0"",""0""
""blur"",""0"",""0""
""blur"",""0"",""0""
""blur"",""0"",""0""
""blur"",""0"",""0""
""blur"",""3"",""19997""
""blur"",""6"",""32556""
""blur"",""18"",""153460""
","""event"",""trial"",""time""
""focus"",""0"",""0""
""focus"",""0"",""0""
""focus"",""0"",""0""
""focus"",""0"",""0""
""focus"",""1"",""15247""
""focus"",""3"",""21871""
""focus"",""6"",""33387""
""focus"",""18"",""154255""
","""event"",""trial"",""time""
""fullscreenenter"",""5"",""28614""
","
",NA,NA,NA,NA,NA,NA,NA,NA,NA,NA,NA,NA,NA,NA,NA,NA,NA,NA,NA,NA,NA,NA,sub91
d3-instructions,32,240298,0.0-32.0,TRUE,FALSE,FALSE,TRUE,"""event"",""trial"",""time""
""blur"",""0"",""0""
""focus"",""0"",""0""
""blur"",""0"",""0""
""focus"",""0"",""0""
""blur"",""0"",""0""
""focus"",""0"",""0""
""blur"",""0"",""0""
""focus"",""0"",""0""
""blur"",""0"",""0""
""focus"",""1"",""15247""
""blur"",""3"",""19997""
""focus"",""3"",""21871""
""fullscreenenter"",""5"",""28614""
""blur"",""6"",""32556""
""focus"",""6"",""33387""
""blur"",""18"",""153460""
""focus"",""18"",""154255""
","""event"",""trial"",""time""
""blur"",""0"",""0""
""blur"",""0"",""0""
""blur"",""0"",""0""
""blur"",""0"",""0""
""blur"",""0"",""0""
""blur"",""3"",""19997""
""blur"",""6"",""32556""
""blur"",""18"",""153460""
","""event"",""trial"",""time""
""focus"",""0"",""0""
""focus"",""0"",""0""
""focus"",""0"",""0""
""focus"",""0"",""0""
""focus"",""1"",""15247""
""focus"",""3"",""21871""
""focus"",""6"",""33387""
""focus"",""18"",""154255""
","""event"",""trial"",""time""
""fullscreenenter"",""5"",""28614""
","
",NA,NA,NA,NA,NA,NA,NA,NA,NA,NA,NA,NA,NA,NA,NA,NA,NA,NA,NA,NA,NA,NA,sub91
d3-instructions,33,245763,0.0-33.0,TRUE,FALSE,FALSE,TRUE,"""event"",""trial"",""time""
""blur"",""0"",""0""
""focus"",""0"",""0""
""blur"",""0"",""0""
""focus"",""0"",""0""
""blur"",""0"",""0""
""focus"",""0"",""0""
""blur"",""0"",""0""
""focus"",""0"",""0""
""blur"",""0"",""0""
""focus"",""1"",""15247""
""blur"",""3"",""19997""
""focus"",""3"",""21871""
""fullscreenenter"",""5"",""28614""
""blur"",""6"",""32556""
""focus"",""6"",""33387""
""blur"",""18"",""153460""
""focus"",""18"",""154255""
","""event"",""trial"",""time""
""blur"",""0"",""0""
""blur"",""0"",""0""
""blur"",""0"",""0""
""blur"",""0"",""0""
""blur"",""0"",""0""
""blur"",""3"",""19997""
""blur"",""6"",""32556""
""blur"",""18"",""153460""
","""event"",""trial"",""time""
""focus"",""0"",""0""
""focus"",""0"",""0""
""focus"",""0"",""0""
""focus"",""0"",""0""
""focus"",""1"",""15247""
""focus"",""3"",""21871""
""focus"",""6"",""33387""
""focus"",""18"",""154255""
","""event"",""trial"",""time""
""fullscreenenter"",""5"",""28614""
","
",NA,NA,NA,NA,NA,NA,NA,NA,NA,NA,NA,NA,NA,NA,NA,NA,NA,NA,NA,NA,NA,NA,sub91
d3-animate-choice,34,249099,0.0-34.0,TRUE,FALSE,FALSE,TRUE,"""event"",""trial"",""time""
""blur"",""0"",""0""
""focus"",""0"",""0""
""blur"",""0"",""0""
""focus"",""0"",""0""
""blur"",""0"",""0""
""focus"",""0"",""0""
""blur"",""0"",""0""
""focus"",""0"",""0""
""blur"",""0"",""0""
""focus"",""1"",""15247""
""blur"",""3"",""19997""
""focus"",""3"",""21871""
""fullscreenenter"",""5"",""28614""
""blur"",""6"",""32556""
""focus"",""6"",""33387""
""blur"",""18"",""153460""
""focus"",""18"",""154255""
","""event"",""trial"",""time""
""blur"",""0"",""0""
""blur"",""0"",""0""
""blur"",""0"",""0""
""blur"",""0"",""0""
""blur"",""0"",""0""
""blur"",""3"",""19997""
""blur"",""6"",""32556""
""blur"",""18"",""153460""
","""event"",""trial"",""time""
""focus"",""0"",""0""
""focus"",""0"",""0""
""focus"",""0"",""0""
""focus"",""0"",""0""
""focus"",""1"",""15247""
""focus"",""3"",""21871""
""focus"",""6"",""33387""
""focus"",""18"",""154255""
","""event"",""trial"",""time""
""fullscreenenter"",""5"",""28614""
","
",1332.7050000079907,NA,49,NA,NA,3000,1,NA,NA,images/tutgreenplanet.jpg,images/tutalien1,images/tutalien2,null,images/tutalien2,images/t.png,NA,practice,null,NA,NA,NA,NA,sub91
d3-animate-choice,35,251356,0.0-35.0,TRUE,FALSE,FALSE,TRUE,"""event"",""trial"",""time""
""blur"",""0"",""0""
""focus"",""0"",""0""
""blur"",""0"",""0""
""focus"",""0"",""0""
""blur"",""0"",""0""
""focus"",""0"",""0""
""blur"",""0"",""0""
""focus"",""0"",""0""
""blur"",""0"",""0""
""focus"",""1"",""15247""
""blur"",""3"",""19997""
""focus"",""3"",""21871""
""fullscreenenter"",""5"",""28614""
""blur"",""6"",""32556""
""focus"",""6"",""33387""
""blur"",""18"",""153460""
""focus"",""18"",""154255""
","""event"",""trial"",""time""
""blur"",""0"",""0""
""blur"",""0"",""0""
""blur"",""0"",""0""
""blur"",""0"",""0""
""blur"",""0"",""0""
""blur"",""3"",""19997""
""blur"",""6"",""32556""
""blur"",""18"",""153460""
","""event"",""trial"",""time""
""focus"",""0"",""0""
""focus"",""0"",""0""
""focus"",""0"",""0""
""focus"",""0"",""0""
""focus"",""1"",""15247""
""focus"",""3"",""21871""
""focus"",""6"",""33387""
""focus"",""18"",""154255""
","""event"",""trial"",""time""
""fullscreenenter"",""5"",""28614""
","
",253.6649999965448,NA,49,NA,NA,3000,1,NA,NA,images/tutgreenplanet.jpg,images/tutalien1,images/tutalien2,null,images/tutalien2,images/t.png,NA,practice,null,NA,NA,NA,NA,sub91
d3-animate-choice,36,253610,0.0-36.0,TRUE,FALSE,FALSE,TRUE,"""event"",""trial"",""time""
""blur"",""0"",""0""
""focus"",""0"",""0""
""blur"",""0"",""0""
""focus"",""0"",""0""
""blur"",""0"",""0""
""focus"",""0"",""0""
""blur"",""0"",""0""
""focus"",""0"",""0""
""blur"",""0"",""0""
""focus"",""1"",""15247""
""blur"",""3"",""19997""
""focus"",""3"",""21871""
""fullscreenenter"",""5"",""28614""
""blur"",""6"",""32556""
""focus"",""6"",""33387""
""blur"",""18"",""153460""
""focus"",""18"",""154255""
","""event"",""trial"",""time""
""blur"",""0"",""0""
""blur"",""0"",""0""
""blur"",""0"",""0""
""blur"",""0"",""0""
""blur"",""0"",""0""
""blur"",""3"",""19997""
""blur"",""6"",""32556""
""blur"",""18"",""153460""
","""event"",""trial"",""time""
""focus"",""0"",""0""
""focus"",""0"",""0""
""focus"",""0"",""0""
""focus"",""0"",""0""
""focus"",""1"",""15247""
""focus"",""3"",""21871""
""focus"",""6"",""33387""
""focus"",""18"",""154255""
","""event"",""trial"",""time""
""fullscreenenter"",""5"",""28614""
","
",251.1300000041956,NA,49,NA,NA,3000,1,NA,NA,images/tutgreenplanet.jpg,images/tutalien1,images/tutalien2,null,images/tutalien2,images/t.png,NA,practice,null,NA,NA,NA,NA,sub91
d3-animate-choice,37,255803,0.0-37.0,TRUE,FALSE,FALSE,TRUE,"""event"",""trial"",""time""
""blur"",""0"",""0""
""focus"",""0"",""0""
""blur"",""0"",""0""
""focus"",""0"",""0""
""blur"",""0"",""0""
""focus"",""0"",""0""
""blur"",""0"",""0""
""focus"",""0"",""0""
""blur"",""0"",""0""
""focus"",""1"",""15247""
""blur"",""3"",""19997""
""focus"",""3"",""21871""
""fullscreenenter"",""5"",""28614""
""blur"",""6"",""32556""
""focus"",""6"",""33387""
""blur"",""18"",""153460""
""focus"",""18"",""154255""
","""event"",""trial"",""time""
""blur"",""0"",""0""
""blur"",""0"",""0""
""blur"",""0"",""0""
""blur"",""0"",""0""
""blur"",""0"",""0""
""blur"",""3"",""19997""
""blur"",""6"",""32556""
""blur"",""18"",""153460""
","""event"",""trial"",""time""
""focus"",""0"",""0""
""focus"",""0"",""0""
""focus"",""0"",""0""
""focus"",""0"",""0""
""focus"",""1"",""15247""
""focus"",""3"",""21871""
""focus"",""6"",""33387""
""focus"",""18"",""154255""
","""event"",""trial"",""time""
""fullscreenenter"",""5"",""28614""
","
",190.3300000121817,NA,49,NA,NA,3000,1,NA,NA,images/tutgreenplanet.jpg,images/tutalien1,images/tutalien2,null,images/tutalien2,images/nothing.png,NA,practice,null,NA,NA,NA,NA,sub91
d3-animate-choice,38,258260,0.0-38.0,TRUE,FALSE,FALSE,TRUE,"""event"",""trial"",""time""
""blur"",""0"",""0""
""focus"",""0"",""0""
""blur"",""0"",""0""
""focus"",""0"",""0""
""blur"",""0"",""0""
""focus"",""0"",""0""
""blur"",""0"",""0""
""focus"",""0"",""0""
""blur"",""0"",""0""
""focus"",""1"",""15247""
""blur"",""3"",""19997""
""focus"",""3"",""21871""
""fullscreenenter"",""5"",""28614""
""blur"",""6"",""32556""
""focus"",""6"",""33387""
""blur"",""18"",""153460""
""focus"",""18"",""154255""
","""event"",""trial"",""time""
""blur"",""0"",""0""
""blur"",""0"",""0""
""blur"",""0"",""0""
""blur"",""0"",""0""
""blur"",""0"",""0""
""blur"",""3"",""19997""
""blur"",""6"",""32556""
""blur"",""18"",""153460""
","""event"",""trial"",""time""
""focus"",""0"",""0""
""focus"",""0"",""0""
""focus"",""0"",""0""
""focus"",""0"",""0""
""focus"",""1"",""15247""
""focus"",""3"",""21871""
""focus"",""6"",""33387""
""focus"",""18"",""154255""
","""event"",""trial"",""time""
""fullscreenenter"",""5"",""28614""
","
",453.4249999996973,NA,48,NA,NA,3000,1,NA,NA,images/tutgreenplanet.jpg,images/tutalien1,images/tutalien2,null,images/tutalien1,images/nothing.png,NA,practice,null,NA,NA,NA,NA,sub91
d3-animate-choice,39,260276,0.0-39.0,TRUE,FALSE,FALSE,TRUE,"""event"",""trial"",""time""
""blur"",""0"",""0""
""focus"",""0"",""0""
""blur"",""0"",""0""
""focus"",""0"",""0""
""blur"",""0"",""0""
""focus"",""0"",""0""
""blur"",""0"",""0""
""focus"",""0"",""0""
""blur"",""0"",""0""
""focus"",""1"",""15247""
""blur"",""3"",""19997""
""focus"",""3"",""21871""
""fullscreenenter"",""5"",""28614""
""blur"",""6"",""32556""
""focus"",""6"",""33387""
""blur"",""18"",""153460""
""focus"",""18"",""154255""
","""event"",""trial"",""time""
""blur"",""0"",""0""
""blur"",""0"",""0""
""blur"",""0"",""0""
""blur"",""0"",""0""
""blur"",""0"",""0""
""blur"",""3"",""19997""
""blur"",""6"",""32556""
""blur"",""18"",""153460""
","""event"",""trial"",""time""
""focus"",""0"",""0""
""focus"",""0"",""0""
""focus"",""0"",""0""
""focus"",""0"",""0""
""focus"",""1"",""15247""
""focus"",""3"",""21871""
""focus"",""6"",""33387""
""focus"",""18"",""154255""
","""event"",""trial"",""time""
""fullscreenenter"",""5"",""28614""
","
",12.640000000828877,NA,49,NA,NA,3000,1,NA,NA,images/tutgreenplanet.jpg,images/tutalien1,images/tutalien2,null,images/tutalien2,images/t.png,NA,practice,null,NA,NA,NA,NA,sub91
d3-animate-choice,40,262516,0.0-40.0,TRUE,FALSE,FALSE,TRUE,"""event"",""trial"",""time""
""blur"",""0"",""0""
""focus"",""0"",""0""
""blur"",""0"",""0""
""focus"",""0"",""0""
""blur"",""0"",""0""
""focus"",""0"",""0""
""blur"",""0"",""0""
""focus"",""0"",""0""
""blur"",""0"",""0""
""focus"",""1"",""15247""
""blur"",""3"",""19997""
""focus"",""3"",""21871""
""fullscreenenter"",""5"",""28614""
""blur"",""6"",""32556""
""focus"",""6"",""33387""
""blur"",""18"",""153460""
""focus"",""18"",""154255""
","""event"",""trial"",""time""
""blur"",""0"",""0""
""blur"",""0"",""0""
""blur"",""0"",""0""
""blur"",""0"",""0""
""blur"",""0"",""0""
""blur"",""3"",""19997""
""blur"",""6"",""32556""
""blur"",""18"",""153460""
","""event"",""trial"",""time""
""focus"",""0"",""0""
""focus"",""0"",""0""
""focus"",""0"",""0""
""focus"",""0"",""0""
""focus"",""1"",""15247""
""focus"",""3"",""21871""
""focus"",""6"",""33387""
""focus"",""18"",""154255""
","""event"",""trial"",""time""
""fullscreenenter"",""5"",""28614""
","
",238.04999999993015,NA,49,NA,NA,3000,1,NA,NA,images/tutgreenplanet.jpg,images/tutalien1,images/tutalien2,null,images/tutalien2,images/t.png,NA,practice,null,NA,NA,NA,NA,sub91
d3-animate-choice,41,264579,0.0-41.0,TRUE,FALSE,FALSE,TRUE,"""event"",""trial"",""time""
""blur"",""0"",""0""
""focus"",""0"",""0""
""blur"",""0"",""0""
""focus"",""0"",""0""
""blur"",""0"",""0""
""focus"",""0"",""0""
""blur"",""0"",""0""
""focus"",""0"",""0""
""blur"",""0"",""0""
""focus"",""1"",""15247""
""blur"",""3"",""19997""
""focus"",""3"",""21871""
""fullscreenenter"",""5"",""28614""
""blur"",""6"",""32556""
""focus"",""6"",""33387""
""blur"",""18"",""153460""
""focus"",""18"",""154255""
","""event"",""trial"",""time""
""blur"",""0"",""0""
""blur"",""0"",""0""
""blur"",""0"",""0""
""blur"",""0"",""0""
""blur"",""0"",""0""
""blur"",""3"",""19997""
""blur"",""6"",""32556""
""blur"",""18"",""153460""
","""event"",""trial"",""time""
""focus"",""0"",""0""
""focus"",""0"",""0""
""focus"",""0"",""0""
""focus"",""0"",""0""
""focus"",""1"",""15247""
""focus"",""3"",""21871""
""focus"",""6"",""33387""
""focus"",""18"",""154255""
","""event"",""trial"",""time""
""fullscreenenter"",""5"",""28614""
","
",59.890000004088506,NA,49,NA,NA,3000,1,1563.9799999917159,49,images/tutgreenplanet.jpg,images/tutalien1,images/tutalien2,null,images/tutalien2,images/t.png,NA,practice,null,NA,NA,NA,NA,sub91
d3-animate-choice,42,266620,0.0-42.0,TRUE,FALSE,FALSE,TRUE,"""event"",""trial"",""time""
""blur"",""0"",""0""
""focus"",""0"",""0""
""blur"",""0"",""0""
""focus"",""0"",""0""
""blur"",""0"",""0""
""focus"",""0"",""0""
""blur"",""0"",""0""
""focus"",""0"",""0""
""blur"",""0"",""0""
""focus"",""1"",""15247""
""blur"",""3"",""19997""
""focus"",""3"",""21871""
""fullscreenenter"",""5"",""28614""
""blur"",""6"",""32556""
""focus"",""6"",""33387""
""blur"",""18"",""153460""
""focus"",""18"",""154255""
","""event"",""trial"",""time""
""blur"",""0"",""0""
""blur"",""0"",""0""
""blur"",""0"",""0""
""blur"",""0"",""0""
""blur"",""0"",""0""
""blur"",""3"",""19997""
""blur"",""6"",""32556""
""blur"",""18"",""153460""
","""event"",""trial"",""time""
""focus"",""0"",""0""
""focus"",""0"",""0""
""focus"",""0"",""0""
""focus"",""0"",""0""
""focus"",""1"",""15247""
""focus"",""3"",""21871""
""focus"",""6"",""33387""
""focus"",""18"",""154255""
","""event"",""trial"",""time""
""fullscreenenter"",""5"",""28614""
","
",37.72500000195578,NA,49,NA,NA,3000,1,1629.83499999973,49,images/tutgreenplanet.jpg,images/tutalien1,images/tutalien2,null,images/tutalien2,images/t.png,NA,practice,null,NA,NA,NA,NA,sub91
d3-animate-choice,43,268772,0.0-43.0,TRUE,FALSE,FALSE,TRUE,"""event"",""trial"",""time""
""blur"",""0"",""0""
""focus"",""0"",""0""
""blur"",""0"",""0""
""focus"",""0"",""0""
""blur"",""0"",""0""
""focus"",""0"",""0""
""blur"",""0"",""0""
""focus"",""0"",""0""
""blur"",""0"",""0""
""focus"",""1"",""15247""
""blur"",""3"",""19997""
""focus"",""3"",""21871""
""fullscreenenter"",""5"",""28614""
""blur"",""6"",""32556""
""focus"",""6"",""33387""
""blur"",""18"",""153460""
""focus"",""18"",""154255""
","""event"",""trial"",""time""
""blur"",""0"",""0""
""blur"",""0"",""0""
""blur"",""0"",""0""
""blur"",""0"",""0""
""blur"",""0"",""0""
""blur"",""3"",""19997""
""blur"",""6"",""32556""
""blur"",""18"",""153460""
","""event"",""trial"",""time""
""focus"",""0"",""0""
""focus"",""0"",""0""
""focus"",""0"",""0""
""focus"",""0"",""0""
""focus"",""1"",""15247""
""focus"",""3"",""21871""
""focus"",""6"",""33387""
""focus"",""18"",""154255""
","""event"",""trial"",""time""
""fullscreenenter"",""5"",""28614""
","
",148.9150000124937,NA,49,NA,NA,3000,1,1661.0950000031153,49,images/tutgreenplanet.jpg,images/tutalien1,images/tutalien2,null,images/tutalien2,images/t.png,NA,practice,null,NA,NA,NA,NA,sub91
d3-instructions,44,281634,0.0-44.0,TRUE,FALSE,FALSE,TRUE,"""event"",""trial"",""time""
""blur"",""0"",""0""
""focus"",""0"",""0""
""blur"",""0"",""0""
""focus"",""0"",""0""
""blur"",""0"",""0""
""focus"",""0"",""0""
""blur"",""0"",""0""
""focus"",""0"",""0""
""blur"",""0"",""0""
""focus"",""1"",""15247""
""blur"",""3"",""19997""
""focus"",""3"",""21871""
""fullscreenenter"",""5"",""28614""
""blur"",""6"",""32556""
""focus"",""6"",""33387""
""blur"",""18"",""153460""
""focus"",""18"",""154255""
""blur"",""45"",""289532""
""focus"",""45"",""290587""
","""event"",""trial"",""time""
""blur"",""0"",""0""
""blur"",""0"",""0""
""blur"",""0"",""0""
""blur"",""0"",""0""
""blur"",""0"",""0""
""blur"",""3"",""19997""
""blur"",""6"",""32556""
""blur"",""18"",""153460""
""blur"",""45"",""289532""
","""event"",""trial"",""time""
""focus"",""0"",""0""
""focus"",""0"",""0""
""focus"",""0"",""0""
""focus"",""0"",""0""
""focus"",""1"",""15247""
""focus"",""3"",""21871""
""focus"",""6"",""33387""
""focus"",""18"",""154255""
""focus"",""45"",""290587""
","""event"",""trial"",""time""
""fullscreenenter"",""5"",""28614""
","
",NA,NA,NA,NA,NA,NA,NA,NA,NA,NA,NA,NA,NA,NA,NA,NA,NA,NA,NA,NA,NA,NA,sub91
d3-instructions,45,293754,0.0-45.0,TRUE,FALSE,FALSE,TRUE,"""event"",""trial"",""time""
""blur"",""0"",""0""
""focus"",""0"",""0""
""blur"",""0"",""0""
""focus"",""0"",""0""
""blur"",""0"",""0""
""focus"",""0"",""0""
""blur"",""0"",""0""
""focus"",""0"",""0""
""blur"",""0"",""0""
""focus"",""1"",""15247""
""blur"",""3"",""19997""
""focus"",""3"",""21871""
""fullscreenenter"",""5"",""28614""
""blur"",""6"",""32556""
""focus"",""6"",""33387""
""blur"",""18"",""153460""
""focus"",""18"",""154255""
""blur"",""45"",""289532""
""focus"",""45"",""290587""
""blur"",""46"",""300240""
""focus"",""46"",""301476""
","""event"",""trial"",""time""
""blur"",""0"",""0""
""blur"",""0"",""0""
""blur"",""0"",""0""
""blur"",""0"",""0""
""blur"",""0"",""0""
""blur"",""3"",""19997""
""blur"",""6"",""32556""
""blur"",""18"",""153460""
""blur"",""45"",""289532""
""blur"",""46"",""300240""
","""event"",""trial"",""time""
""focus"",""0"",""0""
""focus"",""0"",""0""
""focus"",""0"",""0""
""focus"",""0"",""0""
""focus"",""1"",""15247""
""focus"",""3"",""21871""
""focus"",""6"",""33387""
""focus"",""18"",""154255""
""focus"",""45"",""290587""
""focus"",""46"",""301476""
","""event"",""trial"",""time""
""fullscreenenter"",""5"",""28614""
","
",NA,NA,NA,NA,NA,NA,NA,NA,NA,NA,NA,NA,NA,NA,NA,NA,NA,NA,NA,NA,NA,NA,sub91
d3-instructions,46,302252,0.0-46.0,TRUE,FALSE,FALSE,TRUE,"""event"",""trial"",""time""
""blur"",""0"",""0""
""focus"",""0"",""0""
""blur"",""0"",""0""
""focus"",""0"",""0""
""blur"",""0"",""0""
""focus"",""0"",""0""
""blur"",""0"",""0""
""focus"",""0"",""0""
""blur"",""0"",""0""
""focus"",""1"",""15247""
""blur"",""3"",""19997""
""focus"",""3"",""21871""
""fullscreenenter"",""5"",""28614""
""blur"",""6"",""32556""
""focus"",""6"",""33387""
""blur"",""18"",""153460""
""focus"",""18"",""154255""
""blur"",""45"",""289532""
""focus"",""45"",""290587""
""blur"",""46"",""300240""
""focus"",""46"",""301476""
""blur"",""47"",""303222""
""focus"",""47"",""320122""
","""event"",""trial"",""time""
""blur"",""0"",""0""
""blur"",""0"",""0""
""blur"",""0"",""0""
""blur"",""0"",""0""
""blur"",""0"",""0""
""blur"",""3"",""19997""
""blur"",""6"",""32556""
""blur"",""18"",""153460""
""blur"",""45"",""289532""
""blur"",""46"",""300240""
""blur"",""47"",""303222""
","""event"",""trial"",""time""
""focus"",""0"",""0""
""focus"",""0"",""0""
""focus"",""0"",""0""
""focus"",""0"",""0""
""focus"",""1"",""15247""
""focus"",""3"",""21871""
""focus"",""6"",""33387""
""focus"",""18"",""154255""
""focus"",""45"",""290587""
""focus"",""46"",""301476""
""focus"",""47"",""320122""
","""event"",""trial"",""time""
""fullscreenenter"",""5"",""28614""
","
",NA,NA,NA,NA,NA,NA,NA,NA,NA,NA,NA,NA,NA,NA,NA,NA,NA,NA,NA,NA,NA,NA,sub91
d3-instructions,47,320603,0.0-47.0,TRUE,FALSE,FALSE,TRUE,"""event"",""trial"",""time""
""blur"",""0"",""0""
""focus"",""0"",""0""
""blur"",""0"",""0""
""focus"",""0"",""0""
""blur"",""0"",""0""
""focus"",""0"",""0""
""blur"",""0"",""0""
""focus"",""0"",""0""
""blur"",""0"",""0""
""focus"",""1"",""15247""
""blur"",""3"",""19997""
""focus"",""3"",""21871""
""fullscreenenter"",""5"",""28614""
""blur"",""6"",""32556""
""focus"",""6"",""33387""
""blur"",""18"",""153460""
""focus"",""18"",""154255""
""blur"",""45"",""289532""
""focus"",""45"",""290587""
""blur"",""46"",""300240""
""focus"",""46"",""301476""
""blur"",""47"",""303222""
""focus"",""47"",""320122""
""blur"",""48"",""326780""
""focus"",""48"",""327752""
","""event"",""trial"",""time""
""blur"",""0"",""0""
""blur"",""0"",""0""
""blur"",""0"",""0""
""blur"",""0"",""0""
""blur"",""0"",""0""
""blur"",""3"",""19997""
""blur"",""6"",""32556""
""blur"",""18"",""153460""
""blur"",""45"",""289532""
""blur"",""46"",""300240""
""blur"",""47"",""303222""
""blur"",""48"",""326780""
","""event"",""trial"",""time""
""focus"",""0"",""0""
""focus"",""0"",""0""
""focus"",""0"",""0""
""focus"",""0"",""0""
""focus"",""1"",""15247""
""focus"",""3"",""21871""
""focus"",""6"",""33387""
""focus"",""18"",""154255""
""focus"",""45"",""290587""
""focus"",""46"",""301476""
""focus"",""47"",""320122""
""focus"",""48"",""327752""
","""event"",""trial"",""time""
""fullscreenenter"",""5"",""28614""
","
",NA,NA,NA,NA,NA,NA,NA,NA,NA,NA,NA,NA,NA,NA,NA,NA,NA,NA,NA,NA,NA,NA,sub91
d3-instructions,48,330018,0.0-48.0,TRUE,FALSE,FALSE,TRUE,"""event"",""trial"",""time""
""blur"",""0"",""0""
""focus"",""0"",""0""
""blur"",""0"",""0""
""focus"",""0"",""0""
""blur"",""0"",""0""
""focus"",""0"",""0""
""blur"",""0"",""0""
""focus"",""0"",""0""
""blur"",""0"",""0""
""focus"",""1"",""15247""
""blur"",""3"",""19997""
""focus"",""3"",""21871""
""fullscreenenter"",""5"",""28614""
""blur"",""6"",""32556""
""focus"",""6"",""33387""
""blur"",""18"",""153460""
""focus"",""18"",""154255""
""blur"",""45"",""289532""
""focus"",""45"",""290587""
""blur"",""46"",""300240""
""focus"",""46"",""301476""
""blur"",""47"",""303222""
""focus"",""47"",""320122""
""blur"",""48"",""326780""
""focus"",""48"",""327752""
""blur"",""49"",""332239""
""focus"",""49"",""333156""
","""event"",""trial"",""time""
""blur"",""0"",""0""
""blur"",""0"",""0""
""blur"",""0"",""0""
""blur"",""0"",""0""
""blur"",""0"",""0""
""blur"",""3"",""19997""
""blur"",""6"",""32556""
""blur"",""18"",""153460""
""blur"",""45"",""289532""
""blur"",""46"",""300240""
""blur"",""47"",""303222""
""blur"",""48"",""326780""
""blur"",""49"",""332239""
","""event"",""trial"",""time""
""focus"",""0"",""0""
""focus"",""0"",""0""
""focus"",""0"",""0""
""focus"",""0"",""0""
""focus"",""1"",""15247""
""focus"",""3"",""21871""
""focus"",""6"",""33387""
""focus"",""18"",""154255""
""focus"",""45"",""290587""
""focus"",""46"",""301476""
""focus"",""47"",""320122""
""focus"",""48"",""327752""
""focus"",""49"",""333156""
","""event"",""trial"",""time""
""fullscreenenter"",""5"",""28614""
","
",NA,NA,NA,NA,NA,NA,NA,NA,NA,NA,NA,NA,NA,NA,NA,NA,NA,NA,NA,NA,NA,NA,sub91
d3-instructions,49,339746,0.0-49.0,TRUE,FALSE,FALSE,TRUE,"""event"",""trial"",""time""
""blur"",""0"",""0""
""focus"",""0"",""0""
""blur"",""0"",""0""
""focus"",""0"",""0""
""blur"",""0"",""0""
""focus"",""0"",""0""
""blur"",""0"",""0""
""focus"",""0"",""0""
""blur"",""0"",""0""
""focus"",""1"",""15247""
""blur"",""3"",""19997""
""focus"",""3"",""21871""
""fullscreenenter"",""5"",""28614""
""blur"",""6"",""32556""
""focus"",""6"",""33387""
""blur"",""18"",""153460""
""focus"",""18"",""154255""
""blur"",""45"",""289532""
""focus"",""45"",""290587""
""blur"",""46"",""300240""
""focus"",""46"",""301476""
""blur"",""47"",""303222""
""focus"",""47"",""320122""
""blur"",""48"",""326780""
""focus"",""48"",""327752""
""blur"",""49"",""332239""
""focus"",""49"",""333156""
","""event"",""trial"",""time""
""blur"",""0"",""0""
""blur"",""0"",""0""
""blur"",""0"",""0""
""blur"",""0"",""0""
""blur"",""0"",""0""
""blur"",""3"",""19997""
""blur"",""6"",""32556""
""blur"",""18"",""153460""
""blur"",""45"",""289532""
""blur"",""46"",""300240""
""blur"",""47"",""303222""
""blur"",""48"",""326780""
""blur"",""49"",""332239""
","""event"",""trial"",""time""
""focus"",""0"",""0""
""focus"",""0"",""0""
""focus"",""0"",""0""
""focus"",""0"",""0""
""focus"",""1"",""15247""
""focus"",""3"",""21871""
""focus"",""6"",""33387""
""focus"",""18"",""154255""
""focus"",""45"",""290587""
""focus"",""46"",""301476""
""focus"",""47"",""320122""
""focus"",""48"",""327752""
""focus"",""49"",""333156""
","""event"",""trial"",""time""
""fullscreenenter"",""5"",""28614""
","
",NA,NA,NA,NA,NA,NA,NA,NA,NA,NA,NA,NA,NA,NA,NA,NA,NA,NA,NA,NA,NA,NA,sub91
d3-instructions,50,348723,0.0-50.0,TRUE,FALSE,FALSE,TRUE,"""event"",""trial"",""time""
""blur"",""0"",""0""
""focus"",""0"",""0""
""blur"",""0"",""0""
""focus"",""0"",""0""
""blur"",""0"",""0""
""focus"",""0"",""0""
""blur"",""0"",""0""
""focus"",""0"",""0""
""blur"",""0"",""0""
""focus"",""1"",""15247""
""blur"",""3"",""19997""
""focus"",""3"",""21871""
""fullscreenenter"",""5"",""28614""
""blur"",""6"",""32556""
""focus"",""6"",""33387""
""blur"",""18"",""153460""
""focus"",""18"",""154255""
""blur"",""45"",""289532""
""focus"",""45"",""290587""
""blur"",""46"",""300240""
""focus"",""46"",""301476""
""blur"",""47"",""303222""
""focus"",""47"",""320122""
""blur"",""48"",""326780""
""focus"",""48"",""327752""
""blur"",""49"",""332239""
""focus"",""49"",""333156""
","""event"",""trial"",""time""
""blur"",""0"",""0""
""blur"",""0"",""0""
""blur"",""0"",""0""
""blur"",""0"",""0""
""blur"",""0"",""0""
""blur"",""3"",""19997""
""blur"",""6"",""32556""
""blur"",""18"",""153460""
""blur"",""45"",""289532""
""blur"",""46"",""300240""
""blur"",""47"",""303222""
""blur"",""48"",""326780""
""blur"",""49"",""332239""
","""event"",""trial"",""time""
""focus"",""0"",""0""
""focus"",""0"",""0""
""focus"",""0"",""0""
""focus"",""0"",""0""
""focus"",""1"",""15247""
""focus"",""3"",""21871""
""focus"",""6"",""33387""
""focus"",""18"",""154255""
""focus"",""45"",""290587""
""focus"",""46"",""301476""
""focus"",""47"",""320122""
""focus"",""48"",""327752""
""focus"",""49"",""333156""
","""event"",""trial"",""time""
""fullscreenenter"",""5"",""28614""
","
",NA,NA,NA,NA,NA,NA,NA,NA,NA,NA,NA,NA,NA,NA,NA,NA,NA,NA,NA,NA,NA,NA,sub91
d3-instructions,51,352499,0.0-51.0,TRUE,FALSE,FALSE,TRUE,"""event"",""trial"",""time""
""blur"",""0"",""0""
""focus"",""0"",""0""
""blur"",""0"",""0""
""focus"",""0"",""0""
""blur"",""0"",""0""
""focus"",""0"",""0""
""blur"",""0"",""0""
""focus"",""0"",""0""
""blur"",""0"",""0""
""focus"",""1"",""15247""
""blur"",""3"",""19997""
""focus"",""3"",""21871""
""fullscreenenter"",""5"",""28614""
""blur"",""6"",""32556""
""focus"",""6"",""33387""
""blur"",""18"",""153460""
""focus"",""18"",""154255""
""blur"",""45"",""289532""
""focus"",""45"",""290587""
""blur"",""46"",""300240""
""focus"",""46"",""301476""
""blur"",""47"",""303222""
""focus"",""47"",""320122""
""blur"",""48"",""326780""
""focus"",""48"",""327752""
""blur"",""49"",""332239""
""focus"",""49"",""333156""
","""event"",""trial"",""time""
""blur"",""0"",""0""
""blur"",""0"",""0""
""blur"",""0"",""0""
""blur"",""0"",""0""
""blur"",""0"",""0""
""blur"",""3"",""19997""
""blur"",""6"",""32556""
""blur"",""18"",""153460""
""blur"",""45"",""289532""
""blur"",""46"",""300240""
""blur"",""47"",""303222""
""blur"",""48"",""326780""
""blur"",""49"",""332239""
","""event"",""trial"",""time""
""focus"",""0"",""0""
""focus"",""0"",""0""
""focus"",""0"",""0""
""focus"",""0"",""0""
""focus"",""1"",""15247""
""focus"",""3"",""21871""
""focus"",""6"",""33387""
""focus"",""18"",""154255""
""focus"",""45"",""290587""
""focus"",""46"",""301476""
""focus"",""47"",""320122""
""focus"",""48"",""327752""
""focus"",""49"",""333156""
","""event"",""trial"",""time""
""fullscreenenter"",""5"",""28614""
","
",NA,NA,NA,NA,NA,NA,NA,NA,NA,NA,NA,NA,NA,NA,NA,NA,NA,NA,NA,NA,NA,NA,sub91
d3-instructions,52,355321,0.0-52.0,TRUE,FALSE,FALSE,TRUE,"""event"",""trial"",""time""
""blur"",""0"",""0""
""focus"",""0"",""0""
""blur"",""0"",""0""
""focus"",""0"",""0""
""blur"",""0"",""0""
""focus"",""0"",""0""
""blur"",""0"",""0""
""focus"",""0"",""0""
""blur"",""0"",""0""
""focus"",""1"",""15247""
""blur"",""3"",""19997""
""focus"",""3"",""21871""
""fullscreenenter"",""5"",""28614""
""blur"",""6"",""32556""
""focus"",""6"",""33387""
""blur"",""18"",""153460""
""focus"",""18"",""154255""
""blur"",""45"",""289532""
""focus"",""45"",""290587""
""blur"",""46"",""300240""
""focus"",""46"",""301476""
""blur"",""47"",""303222""
""focus"",""47"",""320122""
""blur"",""48"",""326780""
""focus"",""48"",""327752""
""blur"",""49"",""332239""
""focus"",""49"",""333156""
","""event"",""trial"",""time""
""blur"",""0"",""0""
""blur"",""0"",""0""
""blur"",""0"",""0""
""blur"",""0"",""0""
""blur"",""0"",""0""
""blur"",""3"",""19997""
""blur"",""6"",""32556""
""blur"",""18"",""153460""
""blur"",""45"",""289532""
""blur"",""46"",""300240""
""blur"",""47"",""303222""
""blur"",""48"",""326780""
""blur"",""49"",""332239""
","""event"",""trial"",""time""
""focus"",""0"",""0""
""focus"",""0"",""0""
""focus"",""0"",""0""
""focus"",""0"",""0""
""focus"",""1"",""15247""
""focus"",""3"",""21871""
""focus"",""6"",""33387""
""focus"",""18"",""154255""
""focus"",""45"",""290587""
""focus"",""46"",""301476""
""focus"",""47"",""320122""
""focus"",""48"",""327752""
""focus"",""49"",""333156""
","""event"",""trial"",""time""
""fullscreenenter"",""5"",""28614""
","
",NA,NA,NA,NA,NA,NA,NA,NA,NA,NA,NA,NA,NA,NA,NA,NA,NA,NA,NA,NA,NA,NA,sub91
d3-instructions,53,369394,0.0-53.0,TRUE,FALSE,FALSE,TRUE,"""event"",""trial"",""time""
""blur"",""0"",""0""
""focus"",""0"",""0""
""blur"",""0"",""0""
""focus"",""0"",""0""
""blur"",""0"",""0""
""focus"",""0"",""0""
""blur"",""0"",""0""
""focus"",""0"",""0""
""blur"",""0"",""0""
""focus"",""1"",""15247""
""blur"",""3"",""19997""
""focus"",""3"",""21871""
""fullscreenenter"",""5"",""28614""
""blur"",""6"",""32556""
""focus"",""6"",""33387""
""blur"",""18"",""153460""
""focus"",""18"",""154255""
""blur"",""45"",""289532""
""focus"",""45"",""290587""
""blur"",""46"",""300240""
""focus"",""46"",""301476""
""blur"",""47"",""303222""
""focus"",""47"",""320122""
""blur"",""48"",""326780""
""focus"",""48"",""327752""
""blur"",""49"",""332239""
""focus"",""49"",""333156""
","""event"",""trial"",""time""
""blur"",""0"",""0""
""blur"",""0"",""0""
""blur"",""0"",""0""
""blur"",""0"",""0""
""blur"",""0"",""0""
""blur"",""3"",""19997""
""blur"",""6"",""32556""
""blur"",""18"",""153460""
""blur"",""45"",""289532""
""blur"",""46"",""300240""
""blur"",""47"",""303222""
""blur"",""48"",""326780""
""blur"",""49"",""332239""
","""event"",""trial"",""time""
""focus"",""0"",""0""
""focus"",""0"",""0""
""focus"",""0"",""0""
""focus"",""0"",""0""
""focus"",""1"",""15247""
""focus"",""3"",""21871""
""focus"",""6"",""33387""
""focus"",""18"",""154255""
""focus"",""45"",""290587""
""focus"",""46"",""301476""
""focus"",""47"",""320122""
""focus"",""48"",""327752""
""focus"",""49"",""333156""
","""event"",""trial"",""time""
""fullscreenenter"",""5"",""28614""
","
",NA,NA,NA,NA,NA,NA,NA,NA,NA,NA,NA,NA,NA,NA,NA,NA,NA,NA,NA,NA,NA,NA,sub91
d3-instructions,54,382770,0.0-54.0,TRUE,FALSE,FALSE,TRUE,"""event"",""trial"",""time""
""blur"",""0"",""0""
""focus"",""0"",""0""
""blur"",""0"",""0""
""focus"",""0"",""0""
""blur"",""0"",""0""
""focus"",""0"",""0""
""blur"",""0"",""0""
""focus"",""0"",""0""
""blur"",""0"",""0""
""focus"",""1"",""15247""
""blur"",""3"",""19997""
""focus"",""3"",""21871""
""fullscreenenter"",""5"",""28614""
""blur"",""6"",""32556""
""focus"",""6"",""33387""
""blur"",""18"",""153460""
""focus"",""18"",""154255""
""blur"",""45"",""289532""
""focus"",""45"",""290587""
""blur"",""46"",""300240""
""focus"",""46"",""301476""
""blur"",""47"",""303222""
""focus"",""47"",""320122""
""blur"",""48"",""326780""
""focus"",""48"",""327752""
""blur"",""49"",""332239""
""focus"",""49"",""333156""
","""event"",""trial"",""time""
""blur"",""0"",""0""
""blur"",""0"",""0""
""blur"",""0"",""0""
""blur"",""0"",""0""
""blur"",""0"",""0""
""blur"",""3"",""19997""
""blur"",""6"",""32556""
""blur"",""18"",""153460""
""blur"",""45"",""289532""
""blur"",""46"",""300240""
""blur"",""47"",""303222""
""blur"",""48"",""326780""
""blur"",""49"",""332239""
","""event"",""trial"",""time""
""focus"",""0"",""0""
""focus"",""0"",""0""
""focus"",""0"",""0""
""focus"",""0"",""0""
""focus"",""1"",""15247""
""focus"",""3"",""21871""
""focus"",""6"",""33387""
""focus"",""18"",""154255""
""focus"",""45"",""290587""
""focus"",""46"",""301476""
""focus"",""47"",""320122""
""focus"",""48"",""327752""
""focus"",""49"",""333156""
","""event"",""trial"",""time""
""fullscreenenter"",""5"",""28614""
","
",NA,NA,NA,NA,NA,NA,NA,NA,NA,NA,NA,NA,NA,NA,NA,NA,NA,NA,NA,NA,NA,NA,sub91
d3-instructions,55,387554,0.0-55.0,TRUE,FALSE,FALSE,TRUE,"""event"",""trial"",""time""
""blur"",""0"",""0""
""focus"",""0"",""0""
""blur"",""0"",""0""
""focus"",""0"",""0""
""blur"",""0"",""0""
""focus"",""0"",""0""
""blur"",""0"",""0""
""focus"",""0"",""0""
""blur"",""0"",""0""
""focus"",""1"",""15247""
""blur"",""3"",""19997""
""focus"",""3"",""21871""
""fullscreenenter"",""5"",""28614""
""blur"",""6"",""32556""
""focus"",""6"",""33387""
""blur"",""18"",""153460""
""focus"",""18"",""154255""
""blur"",""45"",""289532""
""focus"",""45"",""290587""
""blur"",""46"",""300240""
""focus"",""46"",""301476""
""blur"",""47"",""303222""
""focus"",""47"",""320122""
""blur"",""48"",""326780""
""focus"",""48"",""327752""
""blur"",""49"",""332239""
""focus"",""49"",""333156""
","""event"",""trial"",""time""
""blur"",""0"",""0""
""blur"",""0"",""0""
""blur"",""0"",""0""
""blur"",""0"",""0""
""blur"",""0"",""0""
""blur"",""3"",""19997""
""blur"",""6"",""32556""
""blur"",""18"",""153460""
""blur"",""45"",""289532""
""blur"",""46"",""300240""
""blur"",""47"",""303222""
""blur"",""48"",""326780""
""blur"",""49"",""332239""
","""event"",""trial"",""time""
""focus"",""0"",""0""
""focus"",""0"",""0""
""focus"",""0"",""0""
""focus"",""0"",""0""
""focus"",""1"",""15247""
""focus"",""3"",""21871""
""focus"",""6"",""33387""
""focus"",""18"",""154255""
""focus"",""45"",""290587""
""focus"",""46"",""301476""
""focus"",""47"",""320122""
""focus"",""48"",""327752""
""focus"",""49"",""333156""
","""event"",""trial"",""time""
""fullscreenenter"",""5"",""28614""
","
",NA,NA,NA,NA,NA,NA,NA,NA,NA,NA,NA,NA,NA,NA,NA,NA,NA,NA,NA,NA,NA,NA,sub91
d3-instructions,56,392610,0.0-56.0,TRUE,FALSE,FALSE,TRUE,"""event"",""trial"",""time""
""blur"",""0"",""0""
""focus"",""0"",""0""
""blur"",""0"",""0""
""focus"",""0"",""0""
""blur"",""0"",""0""
""focus"",""0"",""0""
""blur"",""0"",""0""
""focus"",""0"",""0""
""blur"",""0"",""0""
""focus"",""1"",""15247""
""blur"",""3"",""19997""
""focus"",""3"",""21871""
""fullscreenenter"",""5"",""28614""
""blur"",""6"",""32556""
""focus"",""6"",""33387""
""blur"",""18"",""153460""
""focus"",""18"",""154255""
""blur"",""45"",""289532""
""focus"",""45"",""290587""
""blur"",""46"",""300240""
""focus"",""46"",""301476""
""blur"",""47"",""303222""
""focus"",""47"",""320122""
""blur"",""48"",""326780""
""focus"",""48"",""327752""
""blur"",""49"",""332239""
""focus"",""49"",""333156""
","""event"",""trial"",""time""
""blur"",""0"",""0""
""blur"",""0"",""0""
""blur"",""0"",""0""
""blur"",""0"",""0""
""blur"",""0"",""0""
""blur"",""3"",""19997""
""blur"",""6"",""32556""
""blur"",""18"",""153460""
""blur"",""45"",""289532""
""blur"",""46"",""300240""
""blur"",""47"",""303222""
""blur"",""48"",""326780""
""blur"",""49"",""332239""
","""event"",""trial"",""time""
""focus"",""0"",""0""
""focus"",""0"",""0""
""focus"",""0"",""0""
""focus"",""0"",""0""
""focus"",""1"",""15247""
""focus"",""3"",""21871""
""focus"",""6"",""33387""
""focus"",""18"",""154255""
""focus"",""45"",""290587""
""focus"",""46"",""301476""
""focus"",""47"",""320122""
""focus"",""48"",""327752""
""focus"",""49"",""333156""
","""event"",""trial"",""time""
""fullscreenenter"",""5"",""28614""
","
",NA,NA,NA,NA,NA,NA,NA,NA,NA,NA,NA,NA,NA,NA,NA,NA,NA,NA,NA,NA,NA,NA,sub91
d3-instructions,57,402689,0.0-57.0,TRUE,FALSE,FALSE,TRUE,"""event"",""trial"",""time""
""blur"",""0"",""0""
""focus"",""0"",""0""
""blur"",""0"",""0""
""focus"",""0"",""0""
""blur"",""0"",""0""
""focus"",""0"",""0""
""blur"",""0"",""0""
""focus"",""0"",""0""
""blur"",""0"",""0""
""focus"",""1"",""15247""
""blur"",""3"",""19997""
""focus"",""3"",""21871""
""fullscreenenter"",""5"",""28614""
""blur"",""6"",""32556""
""focus"",""6"",""33387""
""blur"",""18"",""153460""
""focus"",""18"",""154255""
""blur"",""45"",""289532""
""focus"",""45"",""290587""
""blur"",""46"",""300240""
""focus"",""46"",""301476""
""blur"",""47"",""303222""
""focus"",""47"",""320122""
""blur"",""48"",""326780""
""focus"",""48"",""327752""
""blur"",""49"",""332239""
""focus"",""49"",""333156""
","""event"",""trial"",""time""
""blur"",""0"",""0""
""blur"",""0"",""0""
""blur"",""0"",""0""
""blur"",""0"",""0""
""blur"",""0"",""0""
""blur"",""3"",""19997""
""blur"",""6"",""32556""
""blur"",""18"",""153460""
""blur"",""45"",""289532""
""blur"",""46"",""300240""
""blur"",""47"",""303222""
""blur"",""48"",""326780""
""blur"",""49"",""332239""
","""event"",""trial"",""time""
""focus"",""0"",""0""
""focus"",""0"",""0""
""focus"",""0"",""0""
""focus"",""0"",""0""
""focus"",""1"",""15247""
""focus"",""3"",""21871""
""focus"",""6"",""33387""
""focus"",""18"",""154255""
""focus"",""45"",""290587""
""focus"",""46"",""301476""
""focus"",""47"",""320122""
""focus"",""48"",""327752""
""focus"",""49"",""333156""
","""event"",""trial"",""time""
""fullscreenenter"",""5"",""28614""
","
",NA,NA,NA,NA,NA,NA,NA,NA,NA,NA,NA,NA,NA,NA,NA,NA,NA,NA,NA,NA,NA,NA,sub91
d3-instructions,58,415265,0.0-58.0,TRUE,FALSE,FALSE,TRUE,"""event"",""trial"",""time""
""blur"",""0"",""0""
""focus"",""0"",""0""
""blur"",""0"",""0""
""focus"",""0"",""0""
""blur"",""0"",""0""
""focus"",""0"",""0""
""blur"",""0"",""0""
""focus"",""0"",""0""
""blur"",""0"",""0""
""focus"",""1"",""15247""
""blur"",""3"",""19997""
""focus"",""3"",""21871""
""fullscreenenter"",""5"",""28614""
""blur"",""6"",""32556""
""focus"",""6"",""33387""
""blur"",""18"",""153460""
""focus"",""18"",""154255""
""blur"",""45"",""289532""
""focus"",""45"",""290587""
""blur"",""46"",""300240""
""focus"",""46"",""301476""
""blur"",""47"",""303222""
""focus"",""47"",""320122""
""blur"",""48"",""326780""
""focus"",""48"",""327752""
""blur"",""49"",""332239""
""focus"",""49"",""333156""
","""event"",""trial"",""time""
""blur"",""0"",""0""
""blur"",""0"",""0""
""blur"",""0"",""0""
""blur"",""0"",""0""
""blur"",""0"",""0""
""blur"",""3"",""19997""
""blur"",""6"",""32556""
""blur"",""18"",""153460""
""blur"",""45"",""289532""
""blur"",""46"",""300240""
""blur"",""47"",""303222""
""blur"",""48"",""326780""
""blur"",""49"",""332239""
","""event"",""trial"",""time""
""focus"",""0"",""0""
""focus"",""0"",""0""
""focus"",""0"",""0""
""focus"",""0"",""0""
""focus"",""1"",""15247""
""focus"",""3"",""21871""
""focus"",""6"",""33387""
""focus"",""18"",""154255""
""focus"",""45"",""290587""
""focus"",""46"",""301476""
""focus"",""47"",""320122""
""focus"",""48"",""327752""
""focus"",""49"",""333156""
","""event"",""trial"",""time""
""fullscreenenter"",""5"",""28614""
","
",NA,NA,NA,NA,NA,NA,NA,NA,NA,NA,NA,NA,NA,NA,NA,NA,NA,NA,NA,NA,NA,NA,sub91
d3-instructions,59,421641,0.0-59.0,TRUE,FALSE,FALSE,TRUE,"""event"",""trial"",""time""
""blur"",""0"",""0""
""focus"",""0"",""0""
""blur"",""0"",""0""
""focus"",""0"",""0""
""blur"",""0"",""0""
""focus"",""0"",""0""
""blur"",""0"",""0""
""focus"",""0"",""0""
""blur"",""0"",""0""
""focus"",""1"",""15247""
""blur"",""3"",""19997""
""focus"",""3"",""21871""
""fullscreenenter"",""5"",""28614""
""blur"",""6"",""32556""
""focus"",""6"",""33387""
""blur"",""18"",""153460""
""focus"",""18"",""154255""
""blur"",""45"",""289532""
""focus"",""45"",""290587""
""blur"",""46"",""300240""
""focus"",""46"",""301476""
""blur"",""47"",""303222""
""focus"",""47"",""320122""
""blur"",""48"",""326780""
""focus"",""48"",""327752""
""blur"",""49"",""332239""
""focus"",""49"",""333156""
","""event"",""trial"",""time""
""blur"",""0"",""0""
""blur"",""0"",""0""
""blur"",""0"",""0""
""blur"",""0"",""0""
""blur"",""0"",""0""
""blur"",""3"",""19997""
""blur"",""6"",""32556""
""blur"",""18"",""153460""
""blur"",""45"",""289532""
""blur"",""46"",""300240""
""blur"",""47"",""303222""
""blur"",""48"",""326780""
""blur"",""49"",""332239""
","""event"",""trial"",""time""
""focus"",""0"",""0""
""focus"",""0"",""0""
""focus"",""0"",""0""
""focus"",""0"",""0""
""focus"",""1"",""15247""
""focus"",""3"",""21871""
""focus"",""6"",""33387""
""focus"",""18"",""154255""
""focus"",""45"",""290587""
""focus"",""46"",""301476""
""focus"",""47"",""320122""
""focus"",""48"",""327752""
""focus"",""49"",""333156""
","""event"",""trial"",""time""
""fullscreenenter"",""5"",""28614""
","
",NA,NA,NA,NA,NA,NA,NA,NA,NA,NA,NA,NA,NA,NA,NA,NA,NA,NA,NA,NA,NA,NA,sub91
d3-instructions,60,431425,0.0-60.0,TRUE,FALSE,FALSE,TRUE,"""event"",""trial"",""time""
""blur"",""0"",""0""
""focus"",""0"",""0""
""blur"",""0"",""0""
""focus"",""0"",""0""
""blur"",""0"",""0""
""focus"",""0"",""0""
""blur"",""0"",""0""
""focus"",""0"",""0""
""blur"",""0"",""0""
""focus"",""1"",""15247""
""blur"",""3"",""19997""
""focus"",""3"",""21871""
""fullscreenenter"",""5"",""28614""
""blur"",""6"",""32556""
""focus"",""6"",""33387""
""blur"",""18"",""153460""
""focus"",""18"",""154255""
""blur"",""45"",""289532""
""focus"",""45"",""290587""
""blur"",""46"",""300240""
""focus"",""46"",""301476""
""blur"",""47"",""303222""
""focus"",""47"",""320122""
""blur"",""48"",""326780""
""focus"",""48"",""327752""
""blur"",""49"",""332239""
""focus"",""49"",""333156""
","""event"",""trial"",""time""
""blur"",""0"",""0""
""blur"",""0"",""0""
""blur"",""0"",""0""
""blur"",""0"",""0""
""blur"",""0"",""0""
""blur"",""3"",""19997""
""blur"",""6"",""32556""
""blur"",""18"",""153460""
""blur"",""45"",""289532""
""blur"",""46"",""300240""
""blur"",""47"",""303222""
""blur"",""48"",""326780""
""blur"",""49"",""332239""
","""event"",""trial"",""time""
""focus"",""0"",""0""
""focus"",""0"",""0""
""focus"",""0"",""0""
""focus"",""0"",""0""
""focus"",""1"",""15247""
""focus"",""3"",""21871""
""focus"",""6"",""33387""
""focus"",""18"",""154255""
""focus"",""45"",""290587""
""focus"",""46"",""301476""
""focus"",""47"",""320122""
""focus"",""48"",""327752""
""focus"",""49"",""333156""
","""event"",""trial"",""time""
""fullscreenenter"",""5"",""28614""
","
",NA,NA,NA,NA,NA,NA,NA,NA,NA,NA,NA,NA,NA,NA,NA,NA,NA,NA,NA,NA,NA,NA,sub91
d3-animate-choice,61,434771,0.0-61.0-0.0,TRUE,FALSE,FALSE,TRUE,"""event"",""trial"",""time""
""blur"",""0"",""0""
""focus"",""0"",""0""
""blur"",""0"",""0""
""focus"",""0"",""0""
""blur"",""0"",""0""
""focus"",""0"",""0""
""blur"",""0"",""0""
""focus"",""0"",""0""
""blur"",""0"",""0""
""focus"",""1"",""15247""
""blur"",""3"",""19997""
""focus"",""3"",""21871""
""fullscreenenter"",""5"",""28614""
""blur"",""6"",""32556""
""focus"",""6"",""33387""
""blur"",""18"",""153460""
""focus"",""18"",""154255""
""blur"",""45"",""289532""
""focus"",""45"",""290587""
""blur"",""46"",""300240""
""focus"",""46"",""301476""
""blur"",""47"",""303222""
""focus"",""47"",""320122""
""blur"",""48"",""326780""
""focus"",""48"",""327752""
""blur"",""49"",""332239""
""focus"",""49"",""333156""
","""event"",""trial"",""time""
""blur"",""0"",""0""
""blur"",""0"",""0""
""blur"",""0"",""0""
""blur"",""0"",""0""
""blur"",""0"",""0""
""blur"",""3"",""19997""
""blur"",""6"",""32556""
""blur"",""18"",""153460""
""blur"",""45"",""289532""
""blur"",""46"",""300240""
""blur"",""47"",""303222""
""blur"",""48"",""326780""
""blur"",""49"",""332239""
","""event"",""trial"",""time""
""focus"",""0"",""0""
""focus"",""0"",""0""
""focus"",""0"",""0""
""focus"",""0"",""0""
""focus"",""1"",""15247""
""focus"",""3"",""21871""
""focus"",""6"",""33387""
""focus"",""18"",""154255""
""focus"",""45"",""290587""
""focus"",""46"",""301476""
""focus"",""47"",""320122""
""focus"",""48"",""327752""
""focus"",""49"",""333156""
","""event"",""trial"",""time""
""fullscreenenter"",""5"",""28614""
","
",1341.8450000026496,NA,48,NA,NA,3000,1,NA,NA,images/earth.jpg,images/tutrocket2,images/tutrocket1,null,images/tutrocket2,NA,1,practice,null,2,NA,NA,NA,sub91
d3-animate-choice,62,438100,0.0-61.0-1.0,TRUE,FALSE,FALSE,TRUE,"""event"",""trial"",""time""
""blur"",""0"",""0""
""focus"",""0"",""0""
""blur"",""0"",""0""
""focus"",""0"",""0""
""blur"",""0"",""0""
""focus"",""0"",""0""
""blur"",""0"",""0""
""focus"",""0"",""0""
""blur"",""0"",""0""
""focus"",""1"",""15247""
""blur"",""3"",""19997""
""focus"",""3"",""21871""
""fullscreenenter"",""5"",""28614""
""blur"",""6"",""32556""
""focus"",""6"",""33387""
""blur"",""18"",""153460""
""focus"",""18"",""154255""
""blur"",""45"",""289532""
""focus"",""45"",""290587""
""blur"",""46"",""300240""
""focus"",""46"",""301476""
""blur"",""47"",""303222""
""focus"",""47"",""320122""
""blur"",""48"",""326780""
""focus"",""48"",""327752""
""blur"",""49"",""332239""
""focus"",""49"",""333156""
","""event"",""trial"",""time""
""blur"",""0"",""0""
""blur"",""0"",""0""
""blur"",""0"",""0""
""blur"",""0"",""0""
""blur"",""0"",""0""
""blur"",""3"",""19997""
""blur"",""6"",""32556""
""blur"",""18"",""153460""
""blur"",""45"",""289532""
""blur"",""46"",""300240""
""blur"",""47"",""303222""
""blur"",""48"",""326780""
""blur"",""49"",""332239""
","""event"",""trial"",""time""
""focus"",""0"",""0""
""focus"",""0"",""0""
""focus"",""0"",""0""
""focus"",""0"",""0""
""focus"",""1"",""15247""
""focus"",""3"",""21871""
""focus"",""6"",""33387""
""focus"",""18"",""154255""
""focus"",""45"",""290587""
""focus"",""46"",""301476""
""focus"",""47"",""320122""
""focus"",""48"",""327752""
""focus"",""49"",""333156""
","""event"",""trial"",""time""
""fullscreenenter"",""5"",""28614""
","
",1323.0449999973644,NA,49,NA,NA,3000,1,NA,NA,images/tutgreenplanet.jpg,images/tutalien2,images/tutalien1,images/tutrocket2,images/tutalien1,images/nothing.png,2,practice,true,1,common,0,2020-06-23T19:25:03Z,sub91
two-step-fixation,63,439111,0.0-61.0-2.0,TRUE,FALSE,FALSE,TRUE,"""event"",""trial"",""time""
""blur"",""0"",""0""
""focus"",""0"",""0""
""blur"",""0"",""0""
""focus"",""0"",""0""
""blur"",""0"",""0""
""focus"",""0"",""0""
""blur"",""0"",""0""
""focus"",""0"",""0""
""blur"",""0"",""0""
""focus"",""1"",""15247""
""blur"",""3"",""19997""
""focus"",""3"",""21871""
""fullscreenenter"",""5"",""28614""
""blur"",""6"",""32556""
""focus"",""6"",""33387""
""blur"",""18"",""153460""
""focus"",""18"",""154255""
""blur"",""45"",""289532""
""focus"",""45"",""290587""
""blur"",""46"",""300240""
""focus"",""46"",""301476""
""blur"",""47"",""303222""
""focus"",""47"",""320122""
""blur"",""48"",""326780""
""focus"",""48"",""327752""
""blur"",""49"",""332239""
""focus"",""49"",""333156""
","""event"",""trial"",""time""
""blur"",""0"",""0""
""blur"",""0"",""0""
""blur"",""0"",""0""
""blur"",""0"",""0""
""blur"",""0"",""0""
""blur"",""3"",""19997""
""blur"",""6"",""32556""
""blur"",""18"",""153460""
""blur"",""45"",""289532""
""blur"",""46"",""300240""
""blur"",""47"",""303222""
""blur"",""48"",""326780""
""blur"",""49"",""332239""
","""event"",""trial"",""time""
""focus"",""0"",""0""
""focus"",""0"",""0""
""focus"",""0"",""0""
""focus"",""0"",""0""
""focus"",""1"",""15247""
""focus"",""3"",""21871""
""focus"",""6"",""33387""
""focus"",""18"",""154255""
""focus"",""45"",""290587""
""focus"",""46"",""301476""
""focus"",""47"",""320122""
""focus"",""48"",""327752""
""focus"",""49"",""333156""
","""event"",""trial"",""time""
""fullscreenenter"",""5"",""28614""
","
",NA,images/earth.jpg,NA,NA,NA,NA,NA,NA,NA,NA,NA,NA,NA,NA,NA,fixation,NA,NA,NA,NA,NA,NA,sub91
d3-animate-choice,64,442300,0.0-61.0-0.1,TRUE,FALSE,FALSE,TRUE,"""event"",""trial"",""time""
""blur"",""0"",""0""
""focus"",""0"",""0""
""blur"",""0"",""0""
""focus"",""0"",""0""
""blur"",""0"",""0""
""focus"",""0"",""0""
""blur"",""0"",""0""
""focus"",""0"",""0""
""blur"",""0"",""0""
""focus"",""1"",""15247""
""blur"",""3"",""19997""
""focus"",""3"",""21871""
""fullscreenenter"",""5"",""28614""
""blur"",""6"",""32556""
""focus"",""6"",""33387""
""blur"",""18"",""153460""
""focus"",""18"",""154255""
""blur"",""45"",""289532""
""focus"",""45"",""290587""
""blur"",""46"",""300240""
""focus"",""46"",""301476""
""blur"",""47"",""303222""
""focus"",""47"",""320122""
""blur"",""48"",""326780""
""focus"",""48"",""327752""
""blur"",""49"",""332239""
""focus"",""49"",""333156""
","""event"",""trial"",""time""
""blur"",""0"",""0""
""blur"",""0"",""0""
""blur"",""0"",""0""
""blur"",""0"",""0""
""blur"",""0"",""0""
""blur"",""3"",""19997""
""blur"",""6"",""32556""
""blur"",""18"",""153460""
""blur"",""45"",""289532""
""blur"",""46"",""300240""
""blur"",""47"",""303222""
""blur"",""48"",""326780""
""blur"",""49"",""332239""
","""event"",""trial"",""time""
""focus"",""0"",""0""
""focus"",""0"",""0""
""focus"",""0"",""0""
""focus"",""0"",""0""
""focus"",""1"",""15247""
""focus"",""3"",""21871""
""focus"",""6"",""33387""
""focus"",""18"",""154255""
""focus"",""45"",""290587""
""focus"",""46"",""301476""
""focus"",""47"",""320122""
""focus"",""48"",""327752""
""focus"",""49"",""333156""
","""event"",""trial"",""time""
""fullscreenenter"",""5"",""28614""
","
",1185.4699999967124,NA,48,NA,NA,3000,1,NA,NA,images/earth.jpg,images/tutrocket2,images/tutrocket1,null,images/tutrocket2,NA,1,practice,null,2,NA,NA,NA,sub91
d3-animate-choice,65,444675,0.0-61.0-1.1,TRUE,FALSE,FALSE,TRUE,"""event"",""trial"",""time""
""blur"",""0"",""0""
""focus"",""0"",""0""
""blur"",""0"",""0""
""focus"",""0"",""0""
""blur"",""0"",""0""
""focus"",""0"",""0""
""blur"",""0"",""0""
""focus"",""0"",""0""
""blur"",""0"",""0""
""focus"",""1"",""15247""
""blur"",""3"",""19997""
""focus"",""3"",""21871""
""fullscreenenter"",""5"",""28614""
""blur"",""6"",""32556""
""focus"",""6"",""33387""
""blur"",""18"",""153460""
""focus"",""18"",""154255""
""blur"",""45"",""289532""
""focus"",""45"",""290587""
""blur"",""46"",""300240""
""focus"",""46"",""301476""
""blur"",""47"",""303222""
""focus"",""47"",""320122""
""blur"",""48"",""326780""
""focus"",""48"",""327752""
""blur"",""49"",""332239""
""focus"",""49"",""333156""
","""event"",""trial"",""time""
""blur"",""0"",""0""
""blur"",""0"",""0""
""blur"",""0"",""0""
""blur"",""0"",""0""
""blur"",""0"",""0""
""blur"",""3"",""19997""
""blur"",""6"",""32556""
""blur"",""18"",""153460""
""blur"",""45"",""289532""
""blur"",""46"",""300240""
""blur"",""47"",""303222""
""blur"",""48"",""326780""
""blur"",""49"",""332239""
","""event"",""trial"",""time""
""focus"",""0"",""0""
""focus"",""0"",""0""
""focus"",""0"",""0""
""focus"",""0"",""0""
""focus"",""1"",""15247""
""focus"",""3"",""21871""
""focus"",""6"",""33387""
""focus"",""18"",""154255""
""focus"",""45"",""290587""
""focus"",""46"",""301476""
""focus"",""47"",""320122""
""focus"",""48"",""327752""
""focus"",""49"",""333156""
","""event"",""trial"",""time""
""fullscreenenter"",""5"",""28614""
","
",372.350000005099,NA,48,NA,NA,3000,1,NA,NA,images/tutgreenplanet.jpg,images/tutalien2,images/tutalien1,images/tutrocket2,images/tutalien2,images/nothing.png,2,practice,true,2,common,0,2020-06-23T19:25:09Z,sub91
two-step-fixation,66,445678,0.0-61.0-2.1,TRUE,FALSE,FALSE,TRUE,"""event"",""trial"",""time""
""blur"",""0"",""0""
""focus"",""0"",""0""
""blur"",""0"",""0""
""focus"",""0"",""0""
""blur"",""0"",""0""
""focus"",""0"",""0""
""blur"",""0"",""0""
""focus"",""0"",""0""
""blur"",""0"",""0""
""focus"",""1"",""15247""
""blur"",""3"",""19997""
""focus"",""3"",""21871""
""fullscreenenter"",""5"",""28614""
""blur"",""6"",""32556""
""focus"",""6"",""33387""
""blur"",""18"",""153460""
""focus"",""18"",""154255""
""blur"",""45"",""289532""
""focus"",""45"",""290587""
""blur"",""46"",""300240""
""focus"",""46"",""301476""
""blur"",""47"",""303222""
""focus"",""47"",""320122""
""blur"",""48"",""326780""
""focus"",""48"",""327752""
""blur"",""49"",""332239""
""focus"",""49"",""333156""
","""event"",""trial"",""time""
""blur"",""0"",""0""
""blur"",""0"",""0""
""blur"",""0"",""0""
""blur"",""0"",""0""
""blur"",""0"",""0""
""blur"",""3"",""19997""
""blur"",""6"",""32556""
""blur"",""18"",""153460""
""blur"",""45"",""289532""
""blur"",""46"",""300240""
""blur"",""47"",""303222""
""blur"",""48"",""326780""
""blur"",""49"",""332239""
","""event"",""trial"",""time""
""focus"",""0"",""0""
""focus"",""0"",""0""
""focus"",""0"",""0""
""focus"",""0"",""0""
""focus"",""1"",""15247""
""focus"",""3"",""21871""
""focus"",""6"",""33387""
""focus"",""18"",""154255""
""focus"",""45"",""290587""
""focus"",""46"",""301476""
""focus"",""47"",""320122""
""focus"",""48"",""327752""
""focus"",""49"",""333156""
","""event"",""trial"",""time""
""fullscreenenter"",""5"",""28614""
","
",NA,images/earth.jpg,NA,NA,NA,NA,NA,NA,NA,NA,NA,NA,NA,NA,NA,fixation,NA,NA,NA,NA,NA,NA,sub91
d3-animate-choice,67,448131,0.0-61.0-0.2,TRUE,FALSE,FALSE,TRUE,"""event"",""trial"",""time""
""blur"",""0"",""0""
""focus"",""0"",""0""
""blur"",""0"",""0""
""focus"",""0"",""0""
""blur"",""0"",""0""
""focus"",""0"",""0""
""blur"",""0"",""0""
""focus"",""0"",""0""
""blur"",""0"",""0""
""focus"",""1"",""15247""
""blur"",""3"",""19997""
""focus"",""3"",""21871""
""fullscreenenter"",""5"",""28614""
""blur"",""6"",""32556""
""focus"",""6"",""33387""
""blur"",""18"",""153460""
""focus"",""18"",""154255""
""blur"",""45"",""289532""
""focus"",""45"",""290587""
""blur"",""46"",""300240""
""focus"",""46"",""301476""
""blur"",""47"",""303222""
""focus"",""47"",""320122""
""blur"",""48"",""326780""
""focus"",""48"",""327752""
""blur"",""49"",""332239""
""focus"",""49"",""333156""
","""event"",""trial"",""time""
""blur"",""0"",""0""
""blur"",""0"",""0""
""blur"",""0"",""0""
""blur"",""0"",""0""
""blur"",""0"",""0""
""blur"",""3"",""19997""
""blur"",""6"",""32556""
""blur"",""18"",""153460""
""blur"",""45"",""289532""
""blur"",""46"",""300240""
""blur"",""47"",""303222""
""blur"",""48"",""326780""
""blur"",""49"",""332239""
","""event"",""trial"",""time""
""focus"",""0"",""0""
""focus"",""0"",""0""
""focus"",""0"",""0""
""focus"",""0"",""0""
""focus"",""1"",""15247""
""focus"",""3"",""21871""
""focus"",""6"",""33387""
""focus"",""18"",""154255""
""focus"",""45"",""290587""
""focus"",""46"",""301476""
""focus"",""47"",""320122""
""focus"",""48"",""327752""
""focus"",""49"",""333156""
","""event"",""trial"",""time""
""fullscreenenter"",""5"",""28614""
","
",449.3700000020908,NA,49,NA,NA,3000,1,NA,NA,images/earth.jpg,images/tutrocket2,images/tutrocket1,null,images/tutrocket1,NA,1,practice,null,1,NA,NA,NA,sub91
d3-animate-choice,68,450658,0.0-61.0-1.2,TRUE,FALSE,FALSE,TRUE,"""event"",""trial"",""time""
""blur"",""0"",""0""
""focus"",""0"",""0""
""blur"",""0"",""0""
""focus"",""0"",""0""
""blur"",""0"",""0""
""focus"",""0"",""0""
""blur"",""0"",""0""
""focus"",""0"",""0""
""blur"",""0"",""0""
""focus"",""1"",""15247""
""blur"",""3"",""19997""
""focus"",""3"",""21871""
""fullscreenenter"",""5"",""28614""
""blur"",""6"",""32556""
""focus"",""6"",""33387""
""blur"",""18"",""153460""
""focus"",""18"",""154255""
""blur"",""45"",""289532""
""focus"",""45"",""290587""
""blur"",""46"",""300240""
""focus"",""46"",""301476""
""blur"",""47"",""303222""
""focus"",""47"",""320122""
""blur"",""48"",""326780""
""focus"",""48"",""327752""
""blur"",""49"",""332239""
""focus"",""49"",""333156""
","""event"",""trial"",""time""
""blur"",""0"",""0""
""blur"",""0"",""0""
""blur"",""0"",""0""
""blur"",""0"",""0""
""blur"",""0"",""0""
""blur"",""3"",""19997""
""blur"",""6"",""32556""
""blur"",""18"",""153460""
""blur"",""45"",""289532""
""blur"",""46"",""300240""
""blur"",""47"",""303222""
""blur"",""48"",""326780""
""blur"",""49"",""332239""
","""event"",""trial"",""time""
""focus"",""0"",""0""
""focus"",""0"",""0""
""focus"",""0"",""0""
""focus"",""0"",""0""
""focus"",""1"",""15247""
""focus"",""3"",""21871""
""focus"",""6"",""33387""
""focus"",""18"",""154255""
""focus"",""45"",""290587""
""focus"",""46"",""301476""
""focus"",""47"",""320122""
""focus"",""48"",""327752""
""focus"",""49"",""333156""
","""event"",""trial"",""time""
""fullscreenenter"",""5"",""28614""
","
",525.0449999875855,NA,49,NA,NA,3000,1,NA,NA,images/tutyellowplanet.jpg,images/tutalien4,images/tutalien3,images/tutrocket1,images/tutalien3,images/nothing.png,2,practice,true,1,common,0,2020-06-23T19:25:15Z,sub91
two-step-fixation,69,451660,0.0-61.0-2.2,TRUE,FALSE,FALSE,TRUE,"""event"",""trial"",""time""
""blur"",""0"",""0""
""focus"",""0"",""0""
""blur"",""0"",""0""
""focus"",""0"",""0""
""blur"",""0"",""0""
""focus"",""0"",""0""
""blur"",""0"",""0""
""focus"",""0"",""0""
""blur"",""0"",""0""
""focus"",""1"",""15247""
""blur"",""3"",""19997""
""focus"",""3"",""21871""
""fullscreenenter"",""5"",""28614""
""blur"",""6"",""32556""
""focus"",""6"",""33387""
""blur"",""18"",""153460""
""focus"",""18"",""154255""
""blur"",""45"",""289532""
""focus"",""45"",""290587""
""blur"",""46"",""300240""
""focus"",""46"",""301476""
""blur"",""47"",""303222""
""focus"",""47"",""320122""
""blur"",""48"",""326780""
""focus"",""48"",""327752""
""blur"",""49"",""332239""
""focus"",""49"",""333156""
","""event"",""trial"",""time""
""blur"",""0"",""0""
""blur"",""0"",""0""
""blur"",""0"",""0""
""blur"",""0"",""0""
""blur"",""0"",""0""
""blur"",""3"",""19997""
""blur"",""6"",""32556""
""blur"",""18"",""153460""
""blur"",""45"",""289532""
""blur"",""46"",""300240""
""blur"",""47"",""303222""
""blur"",""48"",""326780""
""blur"",""49"",""332239""
","""event"",""trial"",""time""
""focus"",""0"",""0""
""focus"",""0"",""0""
""focus"",""0"",""0""
""focus"",""0"",""0""
""focus"",""1"",""15247""
""focus"",""3"",""21871""
""focus"",""6"",""33387""
""focus"",""18"",""154255""
""focus"",""45"",""290587""
""focus"",""46"",""301476""
""focus"",""47"",""320122""
""focus"",""48"",""327752""
""focus"",""49"",""333156""
","""event"",""trial"",""time""
""fullscreenenter"",""5"",""28614""
","
",NA,images/earth.jpg,NA,NA,NA,NA,NA,NA,NA,NA,NA,NA,NA,NA,NA,fixation,NA,NA,NA,NA,NA,NA,sub91
d3-animate-choice,70,454027,0.0-61.0-0.3,TRUE,FALSE,FALSE,TRUE,"""event"",""trial"",""time""
""blur"",""0"",""0""
""focus"",""0"",""0""
""blur"",""0"",""0""
""focus"",""0"",""0""
""blur"",""0"",""0""
""focus"",""0"",""0""
""blur"",""0"",""0""
""focus"",""0"",""0""
""blur"",""0"",""0""
""focus"",""1"",""15247""
""blur"",""3"",""19997""
""focus"",""3"",""21871""
""fullscreenenter"",""5"",""28614""
""blur"",""6"",""32556""
""focus"",""6"",""33387""
""blur"",""18"",""153460""
""focus"",""18"",""154255""
""blur"",""45"",""289532""
""focus"",""45"",""290587""
""blur"",""46"",""300240""
""focus"",""46"",""301476""
""blur"",""47"",""303222""
""focus"",""47"",""320122""
""blur"",""48"",""326780""
""focus"",""48"",""327752""
""blur"",""49"",""332239""
""focus"",""49"",""333156""
","""event"",""trial"",""time""
""blur"",""0"",""0""
""blur"",""0"",""0""
""blur"",""0"",""0""
""blur"",""0"",""0""
""blur"",""0"",""0""
""blur"",""3"",""19997""
""blur"",""6"",""32556""
""blur"",""18"",""153460""
""blur"",""45"",""289532""
""blur"",""46"",""300240""
""blur"",""47"",""303222""
""blur"",""48"",""326780""
""blur"",""49"",""332239""
","""event"",""trial"",""time""
""focus"",""0"",""0""
""focus"",""0"",""0""
""focus"",""0"",""0""
""focus"",""0"",""0""
""focus"",""1"",""15247""
""focus"",""3"",""21871""
""focus"",""6"",""33387""
""focus"",""18"",""154255""
""focus"",""45"",""290587""
""focus"",""46"",""301476""
""focus"",""47"",""320122""
""focus"",""48"",""327752""
""focus"",""49"",""333156""
","""event"",""trial"",""time""
""fullscreenenter"",""5"",""28614""
","
",363.2950000028359,NA,49,NA,NA,3000,1,NA,NA,images/earth.jpg,images/tutrocket2,images/tutrocket1,null,images/tutrocket1,NA,1,practice,null,1,NA,NA,NA,sub91
d3-animate-choice,71,456443,0.0-61.0-1.3,TRUE,FALSE,FALSE,TRUE,"""event"",""trial"",""time""
""blur"",""0"",""0""
""focus"",""0"",""0""
""blur"",""0"",""0""
""focus"",""0"",""0""
""blur"",""0"",""0""
""focus"",""0"",""0""
""blur"",""0"",""0""
""focus"",""0"",""0""
""blur"",""0"",""0""
""focus"",""1"",""15247""
""blur"",""3"",""19997""
""focus"",""3"",""21871""
""fullscreenenter"",""5"",""28614""
""blur"",""6"",""32556""
""focus"",""6"",""33387""
""blur"",""18"",""153460""
""focus"",""18"",""154255""
""blur"",""45"",""289532""
""focus"",""45"",""290587""
""blur"",""46"",""300240""
""focus"",""46"",""301476""
""blur"",""47"",""303222""
""focus"",""47"",""320122""
""blur"",""48"",""326780""
""focus"",""48"",""327752""
""blur"",""49"",""332239""
""focus"",""49"",""333156""
","""event"",""trial"",""time""
""blur"",""0"",""0""
""blur"",""0"",""0""
""blur"",""0"",""0""
""blur"",""0"",""0""
""blur"",""0"",""0""
""blur"",""3"",""19997""
""blur"",""6"",""32556""
""blur"",""18"",""153460""
""blur"",""45"",""289532""
""blur"",""46"",""300240""
""blur"",""47"",""303222""
""blur"",""48"",""326780""
""blur"",""49"",""332239""
","""event"",""trial"",""time""
""focus"",""0"",""0""
""focus"",""0"",""0""
""focus"",""0"",""0""
""focus"",""0"",""0""
""focus"",""1"",""15247""
""focus"",""3"",""21871""
""focus"",""6"",""33387""
""focus"",""18"",""154255""
""focus"",""45"",""290587""
""focus"",""46"",""301476""
""focus"",""47"",""320122""
""focus"",""48"",""327752""
""focus"",""49"",""333156""
","""event"",""trial"",""time""
""fullscreenenter"",""5"",""28614""
","
",412.465000001248,NA,48,NA,NA,3000,1,NA,NA,images/tutyellowplanet.jpg,images/tutalien4,images/tutalien3,images/tutrocket1,images/tutalien4,images/nothing.png,2,practice,true,2,common,0,2020-06-23T19:25:21Z,sub91
two-step-fixation,72,457447,0.0-61.0-2.3,TRUE,FALSE,FALSE,TRUE,"""event"",""trial"",""time""
""blur"",""0"",""0""
""focus"",""0"",""0""
""blur"",""0"",""0""
""focus"",""0"",""0""
""blur"",""0"",""0""
""focus"",""0"",""0""
""blur"",""0"",""0""
""focus"",""0"",""0""
""blur"",""0"",""0""
""focus"",""1"",""15247""
""blur"",""3"",""19997""
""focus"",""3"",""21871""
""fullscreenenter"",""5"",""28614""
""blur"",""6"",""32556""
""focus"",""6"",""33387""
""blur"",""18"",""153460""
""focus"",""18"",""154255""
""blur"",""45"",""289532""
""focus"",""45"",""290587""
""blur"",""46"",""300240""
""focus"",""46"",""301476""
""blur"",""47"",""303222""
""focus"",""47"",""320122""
""blur"",""48"",""326780""
""focus"",""48"",""327752""
""blur"",""49"",""332239""
""focus"",""49"",""333156""
","""event"",""trial"",""time""
""blur"",""0"",""0""
""blur"",""0"",""0""
""blur"",""0"",""0""
""blur"",""0"",""0""
""blur"",""0"",""0""
""blur"",""3"",""19997""
""blur"",""6"",""32556""
""blur"",""18"",""153460""
""blur"",""45"",""289532""
""blur"",""46"",""300240""
""blur"",""47"",""303222""
""blur"",""48"",""326780""
""blur"",""49"",""332239""
","""event"",""trial"",""time""
""focus"",""0"",""0""
""focus"",""0"",""0""
""focus"",""0"",""0""
""focus"",""0"",""0""
""focus"",""1"",""15247""
""focus"",""3"",""21871""
""focus"",""6"",""33387""
""focus"",""18"",""154255""
""focus"",""45"",""290587""
""focus"",""46"",""301476""
""focus"",""47"",""320122""
""focus"",""48"",""327752""
""focus"",""49"",""333156""
","""event"",""trial"",""time""
""fullscreenenter"",""5"",""28614""
","
",NA,images/earth.jpg,NA,NA,NA,NA,NA,NA,NA,NA,NA,NA,NA,NA,NA,fixation,NA,NA,NA,NA,NA,NA,sub91
d3-animate-choice,73,459803,0.0-61.0-0.4,TRUE,FALSE,FALSE,TRUE,"""event"",""trial"",""time""
""blur"",""0"",""0""
""focus"",""0"",""0""
""blur"",""0"",""0""
""focus"",""0"",""0""
""blur"",""0"",""0""
""focus"",""0"",""0""
""blur"",""0"",""0""
""focus"",""0"",""0""
""blur"",""0"",""0""
""focus"",""1"",""15247""
""blur"",""3"",""19997""
""focus"",""3"",""21871""
""fullscreenenter"",""5"",""28614""
""blur"",""6"",""32556""
""focus"",""6"",""33387""
""blur"",""18"",""153460""
""focus"",""18"",""154255""
""blur"",""45"",""289532""
""focus"",""45"",""290587""
""blur"",""46"",""300240""
""focus"",""46"",""301476""
""blur"",""47"",""303222""
""focus"",""47"",""320122""
""blur"",""48"",""326780""
""focus"",""48"",""327752""
""blur"",""49"",""332239""
""focus"",""49"",""333156""
","""event"",""trial"",""time""
""blur"",""0"",""0""
""blur"",""0"",""0""
""blur"",""0"",""0""
""blur"",""0"",""0""
""blur"",""0"",""0""
""blur"",""3"",""19997""
""blur"",""6"",""32556""
""blur"",""18"",""153460""
""blur"",""45"",""289532""
""blur"",""46"",""300240""
""blur"",""47"",""303222""
""blur"",""48"",""326780""
""blur"",""49"",""332239""
","""event"",""trial"",""time""
""focus"",""0"",""0""
""focus"",""0"",""0""
""focus"",""0"",""0""
""focus"",""0"",""0""
""focus"",""1"",""15247""
""focus"",""3"",""21871""
""focus"",""6"",""33387""
""focus"",""18"",""154255""
""focus"",""45"",""290587""
""focus"",""46"",""301476""
""focus"",""47"",""320122""
""focus"",""48"",""327752""
""focus"",""49"",""333156""
","""event"",""trial"",""time""
