trial_type,trial_index,time_elapsed,internal_node_id,rocket_sides,red_planet_first_rocket,red_display_order,purple_display_order,interactions,blur_events,focus_events,fullscreenenter_events,fullscreenexit_events,rt,stimulus,key_press,button_pressed,success,duration,valid_pressed,rts,keys,planet_text,right_text,left_text,center_text,chosen_text,reward_text,trial_stage,practice_trial,transition_type,choice,transition,reward,timestamp,subject_id
pavlovia,0,6,0.0-0.0,FALSE,FALSE,FALSE,TRUE,"
","
","
","
","
",NA,NA,NA,NA,NA,NA,NA,NA,NA,NA,NA,NA,NA,NA,NA,NA,NA,NA,NA,NA,NA,NA,sub28
html-keyboard-response,1,1395,0.0-1.0,FALSE,FALSE,FALSE,TRUE,"
","
","
","
","
",1386.994999993476,Welcome! Press the space bar to begin.,32,NA,NA,NA,NA,NA,NA,NA,NA,NA,NA,NA,NA,NA,NA,NA,NA,NA,NA,NA,sub28
audio-keyboard-response,2,4982,0.0-2.0,FALSE,FALSE,FALSE,TRUE,"
","
","
","
","
",3280,audio/beep_loop.wav,32,NA,NA,NA,NA,NA,NA,NA,NA,NA,NA,NA,NA,NA,NA,NA,NA,NA,NA,NA,sub28
audio-button-response,3,8853,0.0-3.0,FALSE,FALSE,FALSE,TRUE,"
","
","
","
","
",NaN,audio/fish.mp3,NA,1,NA,NA,NA,NA,NA,NA,NA,NA,NA,NA,NA,NA,NA,NA,NA,NA,NA,NA,sub28
audio-button-response,4,15746,0.0-4.0,FALSE,FALSE,FALSE,TRUE,"""event"",""trial"",""time""
""fullscreenenter"",""5"",""22375""
","
","
","""event"",""trial"",""time""
""fullscreenenter"",""5"",""22375""
","
",NaN,audio/tiger.mp3,NA,4,NA,NA,NA,NA,NA,NA,NA,NA,NA,NA,NA,NA,NA,NA,NA,NA,NA,NA,sub28
fullscreen,5,23334,0.0-5.0,FALSE,FALSE,FALSE,TRUE,"""event"",""trial"",""time""
""fullscreenenter"",""5"",""22375""
","
","
","""event"",""trial"",""time""
""fullscreenenter"",""5"",""22375""
","
",NA,NA,NA,NA,TRUE,NA,NA,NA,NA,NA,NA,NA,NA,NA,NA,NA,NA,NA,NA,NA,NA,NA,sub28
d3-instructions,6,49601,0.0-6.0,FALSE,FALSE,FALSE,TRUE,"""event"",""trial"",""time""
""fullscreenenter"",""5"",""22375""
","
","
","""event"",""trial"",""time""
""fullscreenenter"",""5"",""22375""
","
",NA,NA,NA,NA,NA,NA,NA,NA,NA,NA,NA,NA,NA,NA,NA,NA,NA,NA,NA,NA,NA,NA,sub28
d3-instructions,7,58371,0.0-7.0,FALSE,FALSE,FALSE,TRUE,"""event"",""trial"",""time""
""fullscreenenter"",""5"",""22375""
","
","
","""event"",""trial"",""time""
""fullscreenenter"",""5"",""22375""
","
",NA,NA,NA,NA,NA,NA,NA,NA,NA,NA,NA,NA,NA,NA,NA,NA,NA,NA,NA,NA,NA,NA,sub28
d3-instructions,8,65993,0.0-8.0,FALSE,FALSE,FALSE,TRUE,"""event"",""trial"",""time""
""fullscreenenter"",""5"",""22375""
","
","
","""event"",""trial"",""time""
""fullscreenenter"",""5"",""22375""
","
",NA,NA,NA,NA,NA,NA,NA,NA,NA,NA,NA,NA,NA,NA,NA,NA,NA,NA,NA,NA,NA,NA,sub28
d3-instructions,9,85783,0.0-9.0,FALSE,FALSE,FALSE,TRUE,"""event"",""trial"",""time""
""fullscreenenter"",""5"",""22375""
","
","
","""event"",""trial"",""time""
""fullscreenenter"",""5"",""22375""
","
",NA,NA,NA,NA,NA,NA,NA,NA,NA,NA,NA,NA,NA,NA,NA,NA,NA,NA,NA,NA,NA,NA,sub28
d3-instructions,10,105314,0.0-10.0,FALSE,FALSE,FALSE,TRUE,"""event"",""trial"",""time""
""fullscreenenter"",""5"",""22375""
","
","
","""event"",""trial"",""time""
""fullscreenenter"",""5"",""22375""
","
",NA,NA,NA,NA,NA,NA,NA,NA,NA,NA,NA,NA,NA,NA,NA,NA,NA,NA,NA,NA,NA,NA,sub28
d3-animate-choice,11,109051,0.0-11.0,FALSE,FALSE,FALSE,TRUE,"""event"",""trial"",""time""
""fullscreenenter"",""5"",""22375""
","
","
","""event"",""trial"",""time""
""fullscreenenter"",""5"",""22375""
","
",1899.795000004815,NA,49,NA,NA,3000,1,"2610.5249999964144,3599.9400000000605",4848,images/tutgreenplanet.jpg,images/tutalien1,images/tutalien2,null,images/tutalien2,NA,NA,practice,null,NA,NA,NA,NA,sub28
d3-animate-choice,12,112137,0.0-12.0,FALSE,FALSE,FALSE,TRUE,"""event"",""trial"",""time""
""fullscreenenter"",""5"",""22375""
","
","
","""event"",""trial"",""time""
""fullscreenenter"",""5"",""22375""
","
",1077.2500000020955,NA,48,NA,NA,3000,1,NA,NA,images/tutgreenplanet.jpg,images/tutalien1,images/tutalien2,null,images/tutalien1,NA,NA,practice,null,NA,NA,NA,NA,sub28
d3-animate-choice,13,114757,0.0-13.0,FALSE,FALSE,FALSE,TRUE,"""event"",""trial"",""time""
""fullscreenenter"",""5"",""22375""
","
","
","""event"",""trial"",""time""
""fullscreenenter"",""5"",""22375""
","
",613.1249999889405,NA,48,NA,NA,3000,1,NA,NA,images/tutgreenplanet.jpg,images/tutalien1,images/tutalien2,null,images/tutalien1,NA,NA,practice,null,NA,NA,NA,NA,sub28
d3-animate-choice,14,117320,0.0-14.0,FALSE,FALSE,FALSE,TRUE,"""event"",""trial"",""time""
""fullscreenenter"",""5"",""22375""
","
","
","""event"",""trial"",""time""
""fullscreenenter"",""5"",""22375""
","
",552.2950000013225,NA,49,NA,NA,3000,1,NA,NA,images/tutgreenplanet.jpg,images/tutalien1,images/tutalien2,null,images/tutalien2,NA,NA,practice,null,NA,NA,NA,NA,sub28
d3-instructions,15,123506,0.0-15.0,FALSE,FALSE,FALSE,TRUE,"""event"",""trial"",""time""
""fullscreenenter"",""5"",""22375""
","
","
","""event"",""trial"",""time""
""fullscreenenter"",""5"",""22375""
","
",NA,NA,NA,NA,NA,NA,NA,NA,NA,NA,NA,NA,NA,NA,NA,NA,NA,NA,NA,NA,NA,NA,sub28
d3-instructions,16,130435,0.0-16.0,FALSE,FALSE,FALSE,TRUE,"""event"",""trial"",""time""
""fullscreenenter"",""5"",""22375""
","
","
","""event"",""trial"",""time""
""fullscreenenter"",""5"",""22375""
","
",NA,NA,NA,NA,NA,NA,NA,NA,NA,NA,NA,NA,NA,NA,NA,NA,NA,NA,NA,NA,NA,NA,sub28
d3-instructions,17,140157,0.0-17.0,FALSE,FALSE,FALSE,TRUE,"""event"",""trial"",""time""
""fullscreenenter"",""5"",""22375""
","
","
","""event"",""trial"",""time""
""fullscreenenter"",""5"",""22375""
","
",NA,NA,NA,NA,NA,NA,NA,NA,NA,NA,NA,NA,NA,NA,NA,NA,NA,NA,NA,NA,NA,NA,sub28
d3-instructions,18,152684,0.0-18.0,FALSE,FALSE,FALSE,TRUE,"""event"",""trial"",""time""
""fullscreenenter"",""5"",""22375""
","
","
","""event"",""trial"",""time""
""fullscreenenter"",""5"",""22375""
","
",NA,NA,NA,NA,NA,NA,NA,NA,NA,NA,NA,NA,NA,NA,NA,NA,NA,NA,NA,NA,NA,NA,sub28
d3-instructions,19,168046,0.0-19.0,FALSE,FALSE,FALSE,TRUE,"""event"",""trial"",""time""
""fullscreenenter"",""5"",""22375""
","
","
","""event"",""trial"",""time""
""fullscreenenter"",""5"",""22375""
","
",NA,NA,NA,NA,NA,NA,NA,NA,NA,NA,NA,NA,NA,NA,NA,NA,NA,NA,NA,NA,NA,NA,sub28
d3-animate-choice,20,170914,0.0-20.0,FALSE,FALSE,FALSE,TRUE,"""event"",""trial"",""time""
""fullscreenenter"",""5"",""22375""
","
","
","""event"",""trial"",""time""
""fullscreenenter"",""5"",""22375""
","
",872.8949999931501,NA,49,NA,NA,3000,1,NA,NA,images/tutyellowplanet.jpg,null,images/tutalien3,null,images/tutalien3,images/t.png,NA,practice,null,NA,NA,NA,NA,sub28
d3-animate-choice,21,173326,0.0-21.0,FALSE,FALSE,FALSE,TRUE,"""event"",""trial"",""time""
""fullscreenenter"",""5"",""22375""
","
","
","""event"",""trial"",""time""
""fullscreenenter"",""5"",""22375""
","
",401.16999999736436,NA,49,NA,NA,3000,1,1851.92499999539,49,images/tutyellowplanet.jpg,null,images/tutalien3,null,images/tutalien3,images/t.png,NA,practice,null,NA,NA,NA,NA,sub28
d3-animate-choice,22,175645,0.0-22.0,FALSE,FALSE,FALSE,TRUE,"""event"",""trial"",""time""
""fullscreenenter"",""5"",""22375""
","
","
","""event"",""trial"",""time""
""fullscreenenter"",""5"",""22375""
","
",312.39999999525025,NA,49,NA,NA,3000,1,NA,NA,images/tutyellowplanet.jpg,null,images/tutalien3,null,images/tutalien3,images/t.png,NA,practice,null,NA,NA,NA,NA,sub28
d3-animate-choice,23,177996,0.0-23.0,FALSE,FALSE,FALSE,TRUE,"""event"",""trial"",""time""
""fullscreenenter"",""5"",""22375""
","
","
","""event"",""trial"",""time""
""fullscreenenter"",""5"",""22375""
","
",344.96000000217464,NA,49,NA,NA,3000,1,NA,NA,images/tutyellowplanet.jpg,null,images/tutalien3,null,images/tutalien3,images/nothing.png,NA,practice,null,NA,NA,NA,NA,sub28
d3-animate-choice,24,180356,0.0-24.0,FALSE,FALSE,FALSE,TRUE,"""event"",""trial"",""time""
""fullscreenenter"",""5"",""22375""
","
","
","""event"",""trial"",""time""
""fullscreenenter"",""5"",""22375""
","
",351.30999999819323,NA,49,NA,NA,3000,1,1821.460000006482,49,images/tutyellowplanet.jpg,null,images/tutalien3,null,images/tutalien3,images/t.png,NA,practice,null,NA,NA,NA,NA,sub28
d3-animate-choice,25,182687,0.0-25.0,FALSE,FALSE,FALSE,TRUE,"""event"",""trial"",""time""
""fullscreenenter"",""5"",""22375""
","
","
","""event"",""trial"",""time""
""fullscreenenter"",""5"",""22375""
","
",322.63999999850057,NA,49,NA,NA,3000,1,NA,NA,images/tutyellowplanet.jpg,null,images/tutalien3,null,images/tutalien3,images/t.png,NA,practice,null,NA,NA,NA,NA,sub28
d3-animate-choice,26,185026,0.0-26.0,FALSE,FALSE,FALSE,TRUE,"""event"",""trial"",""time""
""fullscreenenter"",""5"",""22375""
","
","
","""event"",""trial"",""time""
""fullscreenenter"",""5"",""22375""
","
",331.53999999922235,NA,49,NA,NA,3000,1,NA,NA,images/tutyellowplanet.jpg,null,images/tutalien3,null,images/tutalien3,images/nothing.png,NA,practice,null,NA,NA,NA,NA,sub28
d3-animate-choice,27,187538,0.0-27.0,FALSE,FALSE,FALSE,TRUE,"""event"",""trial"",""time""
""fullscreenenter"",""5"",""22375""
","
","
","""event"",""trial"",""time""
""fullscreenenter"",""5"",""22375""
","
",500.834999998915,NA,49,NA,NA,3000,1,NA,NA,images/tutyellowplanet.jpg,null,images/tutalien3,null,images/tutalien3,images/t.png,NA,practice,null,NA,NA,NA,NA,sub28
d3-animate-choice,28,190026,0.0-28.0,FALSE,FALSE,FALSE,TRUE,"""event"",""trial"",""time""
""fullscreenenter"",""5"",""22375""
","
","
","""event"",""trial"",""time""
""fullscreenenter"",""5"",""22375""
","
",483.7050000060117,NA,49,NA,NA,3000,1,NA,NA,images/tutyellowplanet.jpg,null,images/tutalien3,null,images/tutalien3,images/t.png,NA,practice,null,NA,NA,NA,NA,sub28
d3-animate-choice,29,192515,0.0-29.0,FALSE,FALSE,FALSE,TRUE,"""event"",""trial"",""time""
""fullscreenenter"",""5"",""22375""
","
","
","""event"",""trial"",""time""
""fullscreenenter"",""5"",""22375""
","
",481.8749999976717,NA,49,NA,NA,3000,1,NA,NA,images/tutyellowplanet.jpg,null,images/tutalien3,null,images/tutalien3,images/t.png,NA,practice,null,NA,NA,NA,NA,sub28
d3-instructions,30,199212,0.0-30.0,FALSE,FALSE,FALSE,TRUE,"""event"",""trial"",""time""
""fullscreenenter"",""5"",""22375""
","
","
","""event"",""trial"",""time""
""fullscreenenter"",""5"",""22375""
","
",NA,NA,NA,NA,NA,NA,NA,NA,NA,NA,NA,NA,NA,NA,NA,NA,NA,NA,NA,NA,NA,NA,sub28
d3-instructions,31,208974,0.0-31.0,FALSE,FALSE,FALSE,TRUE,"""event"",""trial"",""time""
""fullscreenenter"",""5"",""22375""
","
","
","""event"",""trial"",""time""
""fullscreenenter"",""5"",""22375""
","
",NA,NA,NA,NA,NA,NA,NA,NA,NA,NA,NA,NA,NA,NA,NA,NA,NA,NA,NA,NA,NA,NA,sub28
d3-instructions,32,217115,0.0-32.0,FALSE,FALSE,FALSE,TRUE,"""event"",""trial"",""time""
""fullscreenenter"",""5"",""22375""
","
","
","""event"",""trial"",""time""
""fullscreenenter"",""5"",""22375""
","
",NA,NA,NA,NA,NA,NA,NA,NA,NA,NA,NA,NA,NA,NA,NA,NA,NA,NA,NA,NA,NA,NA,sub28
d3-instructions,33,227735,0.0-33.0,FALSE,FALSE,FALSE,TRUE,"""event"",""trial"",""time""
""fullscreenenter"",""5"",""22375""
","
","
","""event"",""trial"",""time""
""fullscreenenter"",""5"",""22375""
","
",NA,NA,NA,NA,NA,NA,NA,NA,NA,NA,NA,NA,NA,NA,NA,NA,NA,NA,NA,NA,NA,NA,sub28
d3-animate-choice,34,230795,0.0-34.0,FALSE,FALSE,FALSE,TRUE,"""event"",""trial"",""time""
""fullscreenenter"",""5"",""22375""
","
","
","""event"",""trial"",""time""
""fullscreenenter"",""5"",""22375""
","
",1052.8250000061234,NA,49,NA,NA,3000,1,NA,NA,images/tutgreenplanet.jpg,images/tutalien1,images/tutalien2,null,images/tutalien2,images/t.png,NA,practice,null,NA,NA,NA,NA,sub28
d3-animate-choice,35,233577,0.0-35.0,FALSE,FALSE,FALSE,TRUE,"""event"",""trial"",""time""
""fullscreenenter"",""5"",""22375""
","
","
","""event"",""trial"",""time""
""fullscreenenter"",""5"",""22375""
","
",775.3150000062305,NA,48,NA,NA,3000,1,NA,NA,images/tutgreenplanet.jpg,images/tutalien1,images/tutalien2,null,images/tutalien1,images/nothing.png,NA,practice,null,NA,NA,NA,NA,sub28
d3-animate-choice,36,236086,0.0-36.0,FALSE,FALSE,FALSE,TRUE,"""event"",""trial"",""time""
""fullscreenenter"",""5"",""22375""
","
","
","""event"",""trial"",""time""
""fullscreenenter"",""5"",""22375""
","
",503.7549999979092,NA,49,NA,NA,3000,1,NA,NA,images/tutgreenplanet.jpg,images/tutalien1,images/tutalien2,null,images/tutalien2,images/t.png,NA,practice,null,NA,NA,NA,NA,sub28
d3-animate-choice,37,238448,0.0-37.0,FALSE,FALSE,FALSE,TRUE,"""event"",""trial"",""time""
""fullscreenenter"",""5"",""22375""
","
","
","""event"",""trial"",""time""
""fullscreenenter"",""5"",""22375""
","
",355.2249999920605,NA,49,NA,NA,3000,1,NA,NA,images/tutgreenplanet.jpg,images/tutalien1,images/tutalien2,null,images/tutalien2,images/t.png,NA,practice,null,NA,NA,NA,NA,sub28
d3-animate-choice,38,241408,0.0-38.0,FALSE,FALSE,FALSE,TRUE,"""event"",""trial"",""time""
""fullscreenenter"",""5"",""22375""
","
","
","""event"",""trial"",""time""
""fullscreenenter"",""5"",""22375""
","
",950.1000000018394,NA,48,NA,NA,3000,1,NA,NA,images/tutgreenplanet.jpg,images/tutalien1,images/tutalien2,null,images/tutalien1,images/t.png,NA,practice,null,NA,NA,NA,NA,sub28
d3-animate-choice,39,243748,0.0-39.0,FALSE,FALSE,FALSE,TRUE,"""event"",""trial"",""time""
""fullscreenenter"",""5"",""22375""
","
","
","""event"",""trial"",""time""
""fullscreenenter"",""5"",""22375""
","
",332.6000000088243,NA,49,NA,NA,3000,1,NA,NA,images/tutgreenplanet.jpg,images/tutalien1,images/tutalien2,null,images/tutalien2,images/t.png,NA,practice,null,NA,NA,NA,NA,sub28
d3-animate-choice,40,246098,0.0-40.0,FALSE,FALSE,FALSE,TRUE,"""event"",""trial"",""time""
""fullscreenenter"",""5"",""22375""
","
","
","""event"",""trial"",""time""
""fullscreenenter"",""5"",""22375""
","
",338.675000006333,NA,49,NA,NA,3000,1,NA,NA,images/tutgreenplanet.jpg,images/tutalien1,images/tutalien2,null,images/tutalien2,images/t.png,NA,practice,null,NA,NA,NA,NA,sub28
d3-animate-choice,41,248408,0.0-41.0,FALSE,FALSE,FALSE,TRUE,"""event"",""trial"",""time""
""fullscreenenter"",""5"",""22375""
","
","
","""event"",""trial"",""time""
""fullscreenenter"",""5"",""22375""
","
",301.29000000306405,NA,48,NA,NA,3000,1,NA,NA,images/tutgreenplanet.jpg,images/tutalien1,images/tutalien2,null,images/tutalien1,images/nothing.png,NA,practice,null,NA,NA,NA,NA,sub28
d3-animate-choice,42,250696,0.0-42.0,FALSE,FALSE,FALSE,TRUE,"""event"",""trial"",""time""
""fullscreenenter"",""5"",""22375""
","
","
","""event"",""trial"",""time""
""fullscreenenter"",""5"",""22375""
","
",282.09500000230037,NA,49,NA,NA,3000,1,1792.2399999952177,49,images/tutgreenplanet.jpg,images/tutalien1,images/tutalien2,null,images/tutalien2,images/t.png,NA,practice,null,NA,NA,NA,NA,sub28
d3-animate-choice,43,252964,0.0-43.0,FALSE,FALSE,FALSE,TRUE,"""event"",""trial"",""time""
""fullscreenenter"",""5"",""22375""
","
","
","""event"",""trial"",""time""
""fullscreenenter"",""5"",""22375""
","
",260.52000001072884,NA,49,NA,NA,3000,1,NA,NA,images/tutgreenplanet.jpg,images/tutalien1,images/tutalien2,null,images/tutalien2,images/t.png,NA,practice,null,NA,NA,NA,NA,sub28
d3-instructions,44,265607,0.0-44.0,FALSE,FALSE,FALSE,TRUE,"""event"",""trial"",""time""
""fullscreenenter"",""5"",""22375""
","
","
","""event"",""trial"",""time""
""fullscreenenter"",""5"",""22375""
","
",NA,NA,NA,NA,NA,NA,NA,NA,NA,NA,NA,NA,NA,NA,NA,NA,NA,NA,NA,NA,NA,NA,sub28
d3-instructions,45,271617,0.0-45.0,FALSE,FALSE,FALSE,TRUE,"""event"",""trial"",""time""
""fullscreenenter"",""5"",""22375""
","
","
","""event"",""trial"",""time""
""fullscreenenter"",""5"",""22375""
","
",NA,NA,NA,NA,NA,NA,NA,NA,NA,NA,NA,NA,NA,NA,NA,NA,NA,NA,NA,NA,NA,NA,sub28
d3-instructions,46,276685,0.0-46.0,FALSE,FALSE,FALSE,TRUE,"""event"",""trial"",""time""
""fullscreenenter"",""5"",""22375""
","
","
","""event"",""trial"",""time""
""fullscreenenter"",""5"",""22375""
","
",NA,NA,NA,NA,NA,NA,NA,NA,NA,NA,NA,NA,NA,NA,NA,NA,NA,NA,NA,NA,NA,NA,sub28
d3-instructions,47,293806,0.0-47.0,FALSE,FALSE,FALSE,TRUE,"""event"",""trial"",""time""
""fullscreenenter"",""5"",""22375""
","
","
","""event"",""trial"",""time""
""fullscreenenter"",""5"",""22375""
","
",NA,NA,NA,NA,NA,NA,NA,NA,NA,NA,NA,NA,NA,NA,NA,NA,NA,NA,NA,NA,NA,NA,sub28
d3-instructions,48,300167,0.0-48.0,FALSE,FALSE,FALSE,TRUE,"""event"",""trial"",""time""
""fullscreenenter"",""5"",""22375""
","
","
","""event"",""trial"",""time""
""fullscreenenter"",""5"",""22375""
","
",NA,NA,NA,NA,NA,NA,NA,NA,NA,NA,NA,NA,NA,NA,NA,NA,NA,NA,NA,NA,NA,NA,sub28
d3-instructions,49,312574,0.0-49.0,FALSE,FALSE,FALSE,TRUE,"""event"",""trial"",""time""
""fullscreenenter"",""5"",""22375""
","
","
","""event"",""trial"",""time""
""fullscreenenter"",""5"",""22375""
","
",NA,NA,NA,NA,NA,NA,NA,NA,NA,NA,NA,NA,NA,NA,NA,NA,NA,NA,NA,NA,NA,NA,sub28
d3-instructions,50,321388,0.0-50.0,FALSE,FALSE,FALSE,TRUE,"""event"",""trial"",""time""
""fullscreenenter"",""5"",""22375""
","
","
","""event"",""trial"",""time""
""fullscreenenter"",""5"",""22375""
","
",NA,NA,NA,NA,NA,NA,NA,NA,NA,NA,NA,NA,NA,NA,NA,NA,NA,NA,NA,NA,NA,NA,sub28
d3-instructions,51,324228,0.0-51.0,FALSE,FALSE,FALSE,TRUE,"""event"",""trial"",""time""
""fullscreenenter"",""5"",""22375""
","
","
","""event"",""trial"",""time""
""fullscreenenter"",""5"",""22375""
","
",NA,NA,NA,NA,NA,NA,NA,NA,NA,NA,NA,NA,NA,NA,NA,NA,NA,NA,NA,NA,NA,NA,sub28
d3-instructions,52,327218,0.0-52.0,FALSE,FALSE,FALSE,TRUE,"""event"",""trial"",""time""
""fullscreenenter"",""5"",""22375""
","
","
","""event"",""trial"",""time""
""fullscreenenter"",""5"",""22375""
","
",NA,NA,NA,NA,NA,NA,NA,NA,NA,NA,NA,NA,NA,NA,NA,NA,NA,NA,NA,NA,NA,NA,sub28
d3-instructions,53,338988,0.0-53.0,FALSE,FALSE,FALSE,TRUE,"""event"",""trial"",""time""
""fullscreenenter"",""5"",""22375""
","
","
","""event"",""trial"",""time""
""fullscreenenter"",""5"",""22375""
","
",NA,NA,NA,NA,NA,NA,NA,NA,NA,NA,NA,NA,NA,NA,NA,NA,NA,NA,NA,NA,NA,NA,sub28
d3-instructions,54,350906,0.0-54.0,FALSE,FALSE,FALSE,TRUE,"""event"",""trial"",""time""
""fullscreenenter"",""5"",""22375""
","
","
","""event"",""trial"",""time""
""fullscreenenter"",""5"",""22375""
","
",NA,NA,NA,NA,NA,NA,NA,NA,NA,NA,NA,NA,NA,NA,NA,NA,NA,NA,NA,NA,NA,NA,sub28
d3-instructions,55,360819,0.0-55.0,FALSE,FALSE,FALSE,TRUE,"""event"",""trial"",""time""
""fullscreenenter"",""5"",""22375""
","
","
","""event"",""trial"",""time""
""fullscreenenter"",""5"",""22375""
","
",NA,NA,NA,NA,NA,NA,NA,NA,NA,NA,NA,NA,NA,NA,NA,NA,NA,NA,NA,NA,NA,NA,sub28
d3-instructions,56,369175,0.0-56.0,FALSE,FALSE,FALSE,TRUE,"""event"",""trial"",""time""
""fullscreenenter"",""5"",""22375""
","
","
","""event"",""trial"",""time""
""fullscreenenter"",""5"",""22375""
","
",NA,NA,NA,NA,NA,NA,NA,NA,NA,NA,NA,NA,NA,NA,NA,NA,NA,NA,NA,NA,NA,NA,sub28
d3-instructions,57,379138,0.0-57.0,FALSE,FALSE,FALSE,TRUE,"""event"",""trial"",""time""
""fullscreenenter"",""5"",""22375""
","
","
","""event"",""trial"",""time""
""fullscreenenter"",""5"",""22375""
","
",NA,NA,NA,NA,NA,NA,NA,NA,NA,NA,NA,NA,NA,NA,NA,NA,NA,NA,NA,NA,NA,NA,sub28
d3-instructions,58,389518,0.0-58.0,FALSE,FALSE,FALSE,TRUE,"""event"",""trial"",""time""
""fullscreenenter"",""5"",""22375""
","
","
","""event"",""trial"",""time""
""fullscreenenter"",""5"",""22375""
","
",NA,NA,NA,NA,NA,NA,NA,NA,NA,NA,NA,NA,NA,NA,NA,NA,NA,NA,NA,NA,NA,NA,sub28
d3-instructions,59,394487,0.0-59.0,FALSE,FALSE,FALSE,TRUE,"""event"",""trial"",""time""
""fullscreenenter"",""5"",""22375""
","
","
","""event"",""trial"",""time""
""fullscreenenter"",""5"",""22375""
","
",NA,NA,NA,NA,NA,NA,NA,NA,NA,NA,NA,NA,NA,NA,NA,NA,NA,NA,NA,NA,NA,NA,sub28
d3-instructions,60,402318,0.0-60.0,FALSE,FALSE,FALSE,TRUE,"""event"",""trial"",""time""
""fullscreenenter"",""5"",""22375""
","
","
","""event"",""trial"",""time""
""fullscreenenter"",""5"",""22375""
","
",NA,NA,NA,NA,NA,NA,NA,NA,NA,NA,NA,NA,NA,NA,NA,NA,NA,NA,NA,NA,NA,NA,sub28
d3-animate-choice,61,405111,0.0-61.0-0.0,FALSE,FALSE,FALSE,TRUE,"""event"",""trial"",""time""
""fullscreenenter"",""5"",""22375""
","
","
","""event"",""trial"",""time""
""fullscreenenter"",""5"",""22375""
","
",781.9949999975506,NA,49,NA,NA,3000,1,NA,NA,images/earth.jpg,images/tutrocket2,images/tutrocket1,null,images/tutrocket1,NA,1,practice,null,1,NA,NA,NA,sub28
d3-animate-choice,62,408893,0.0-61.0-1.0,FALSE,FALSE,FALSE,TRUE,"""event"",""trial"",""time""
""fullscreenenter"",""5"",""22375""
","
","
","""event"",""trial"",""time""
""fullscreenenter"",""5"",""22375""
","
",1766.3899999897694,NA,49,NA,NA,3000,1,NA,NA,images/tutyellowplanet.jpg,images/tutalien4,images/tutalien3,images/tutrocket1,images/tutalien3,images/t.png,2,practice,true,1,common,1,2020-06-10T23:39:03Z,sub28
two-step-fixation,63,409907,0.0-61.0-2.0,FALSE,FALSE,FALSE,TRUE,"""event"",""trial"",""time""
""fullscreenenter"",""5"",""22375""
","
","
","""event"",""trial"",""time""
""fullscreenenter"",""5"",""22375""
","
",NA,images/earth.jpg,NA,NA,NA,NA,NA,NA,NA,NA,NA,NA,NA,NA,NA,fixation,NA,NA,NA,NA,NA,NA,sub28
d3-animate-choice,64,412490,0.0-61.0-0.1,FALSE,FALSE,FALSE,TRUE,"""event"",""trial"",""time""
""fullscreenenter"",""5"",""22375""
","
","
","""event"",""trial"",""time""
""fullscreenenter"",""5"",""22375""
","
",577.1049999893876,NA,48,NA,NA,3000,1,NA,NA,images/earth.jpg,images/tutrocket2,images/tutrocket1,null,images/tutrocket2,NA,1,practice,null,2,NA,NA,NA,sub28
d3-animate-choice,65,415563,0.0-61.0-1.1,FALSE,FALSE,FALSE,TRUE,"""event"",""trial"",""time""
""fullscreenenter"",""5"",""22375""
","
","
","""event"",""trial"",""time""
""fullscreenenter"",""5"",""22375""
","
",1061.0949999972945,NA,49,NA,NA,3000,1,NA,NA,images/tutyellowplanet.jpg,images/tutalien4,images/tutalien3,images/tutrocket2,images/tutalien3,images/nothing.png,2,practice,false,1,rare,0,2020-06-10T23:39:10Z,sub28
two-step-fixation,66,416572,0.0-61.0-2.1,FALSE,FALSE,FALSE,TRUE,"""event"",""trial"",""time""
""fullscreenenter"",""5"",""22375""
","
","
","""event"",""trial"",""time""
""fullscreenenter"",""5"",""22375""
","
",NA,images/earth.jpg,NA,NA,NA,NA,NA,NA,NA,NA,NA,NA,NA,NA,NA,fixation,NA,NA,NA,NA,NA,NA,sub28
d3-animate-choice,67,419159,0.0-61.0-0.2,FALSE,FALSE,FALSE,TRUE,"""event"",""trial"",""time""
""fullscreenenter"",""5"",""22375""
","
","
","""event"",""trial"",""time""
""fullscreenenter"",""5"",""22375""
","
",577.8799999970943,NA,48,NA,NA,3000,1,NA,NA,images/earth.jpg,images/tutrocket2,images/tutrocket1,null,images/tutrocket2,NA,1,practice,null,2,NA,NA,NA,sub28
d3-animate-choice,68,421910,0.0-61.0-1.2,FALSE,FALSE,FALSE,TRUE,"""event"",""trial"",""time""
""fullscreenenter"",""5"",""22375""
","
","
","""event"",""trial"",""time""
""fullscreenenter"",""5"",""22375""
","
",740.0800000032177,NA,48,NA,NA,3000,1,NA,NA,images/tutgreenplanet.jpg,images/tutalien2,images/tutalien1,images/tutrocket2,images/tutalien2,images/nothing.png,2,practice,true,2,common,0,2020-06-10T23:39:16Z,sub28
two-step-fixation,69,422921,0.0-61.0-2.2,FALSE,FALSE,FALSE,TRUE,"""event"",""trial"",""time""
""fullscreenenter"",""5"",""22375""
","
","
","""event"",""trial"",""time""
""fullscreenenter"",""5"",""22375""
","
",NA,images/earth.jpg,NA,NA,NA,NA,NA,NA,NA,NA,NA,NA,NA,NA,NA,fixation,NA,NA,NA,NA,NA,NA,sub28
d3-animate-choice,70,425485,0.0-61.0-0.3,FALSE,FALSE,FALSE,TRUE,"""event"",""trial"",""time""
""fullscreenenter"",""5"",""22375""
","
","
","""event"",""trial"",""time""
""fullscreenenter"",""5"",""22375""
","
",548.4200000064448,NA,49,NA,NA,3000,1,NA,NA,images/earth.jpg,images/tutrocket2,images/tutrocket1,null,images/tutrocket1,NA,1,practice,null,1,NA,NA,NA,sub28
d3-animate-choice,71,428614,0.0-61.0-1.3,FALSE,FALSE,FALSE,TRUE,"""event"",""trial"",""time""
""fullscreenenter"",""5"",""22375""
","
","
","""event"",""trial"",""time""
""fullscreenenter"",""5"",""22375""
","
",1109.4900000025518,NA,48,NA,NA,3000,1,NA,NA,images/tutyellowplanet.jpg,images/tutalien4,images/tutalien3,images/tutrocket1,images/tutalien4,images/t.png,2,practice,true,2,common,1,2020-06-10T23:39:23Z,sub28
two-step-fixation,72,429622,0.0-61.0-2.3,FALSE,FALSE,FALSE,TRUE,"""event"",""trial"",""time""
""fullscreenenter"",""5"",""22375""
","
","
","""event"",""trial"",""time""
""fullscreenenter"",""5"",""22375""
","
",NA,images/earth.jpg,NA,NA,NA,NA,NA,NA,NA,NA,NA,NA,NA,NA,NA,fixation,NA,NA,NA,NA,NA,NA,sub28
d3-animate-choice,73,432069,0.0-61.0-0.4,FALSE,FALSE,FALSE,TRUE,"""event"",""trial"",""time""
""fullscreenenter"",""5"",""22375""
","
","
","""event"",""trial"",""time""
""fullscreenenter"",""5"",""22375""
","
",440.45500000356697,NA,48,NA,NA,3000,1,NA,NA,images/earth.jpg,images/tutrocket2,images/tutrocket1,null,images/tutrocket2,NA,1,practice,null,2,NA,NA,NA,sub28
d3-animate-choice,74,434587,0.0-61.0-1.4,FALSE,FALSE,FALSE,TRUE,"""event"",""trial"",""time""
""fullscreenenter"",""5"",""22375""
","
","
","""event"",""trial"",""time""
""fullscreenenter"",""5"",""22375""
","
",511.39500000863336,NA,49,NA,NA,3000,1,NA,NA,images/tutyellowplanet.jpg,images/tutalien4,images/tutalien3,images/tutrocket2,images/tutalien3,images/nothing.png,2,practice,false,1,rare,0,2020-06-10T23:39:29Z,sub28
two-step-fixation,75,435596,0.0-61.0-2.4,FALSE,FALSE,FALSE,TRUE,"""event"",""trial"",""time""
""fullscreenenter"",""5"",""22375""
","
","
","""event"",""trial"",""time""
""fullscreenenter"",""5"",""22375""
","
",NA,images/earth.jpg,NA,NA,NA,NA,NA,NA,NA,NA,NA,NA,NA,NA,NA,fixation,NA,NA,NA,NA,NA,NA,sub28
d3-animate-choice,76,438820,0.0-61.0-0.5,FALSE,FALSE,FALSE,TRUE,"""event"",""trial"",""time""
""fullscreenenter"",""5"",""22375""
","
","
","""event"",""trial"",""time""
""fullscreenenter"",""5"",""22375""
","
",1215.875000008964,NA,49,NA,NA,3000,1,NA,NA,images/earth.jpg,images/tutrocket2,images/tutrocket1,null,images/tutrocket1,NA,1,practice,null,1,NA,NA,NA,sub28
d3-animate-choice,77,441948,0.0-61.0-1.5,FALSE,FALSE,FALSE,TRUE,"""event"",""trial"",""time""
""fullscreenenter"",""5"",""22375""
","
","
","""event"",""trial"",""time""
""fullscreenenter"",""5"",""22375""
","
",1117.3750000016298,NA,48,NA,NA,3000,1,NA,NA,images/tutyellowplanet.jpg,images/tutalien4,images/tutalien3,images/tutrocket1,images/tutalien4,images/nothing.png,2,practice,true,2,common,0,2020-06-10T23:39:36Z,sub28
two-step-fixation,78,442955,0.0-61.0-2.5,FALSE,FALSE,FALSE,TRUE,"""event"",""trial"",""time""
""fullscreenenter"",""5"",""22375""
","
","
","""event"",""trial"",""time""
""fullscreenenter"",""5"",""22375""
","
",NA,images/earth.jpg,NA,NA,NA,NA,NA,NA,NA,NA,NA,NA,NA,NA,NA,fixation,NA,NA,NA,NA,NA,NA,sub28
d3-animate-choice,79,445678,0.0-61.0-0.6,FALSE,FALSE,FALSE,TRUE,"""event"",""trial"",""time""
""fullscreenenter"",""5"",""22375""
","
","
","""event"",""trial"",""time""
""fullscreenenter"",""5"",""22375""
","
",714.5449999952689,NA,48,NA,NA,3000,1,NA,NA,images/earth.jpg,images/tutrocket2,images/tutrocket1,null,images/tutrocket2,NA,1,practice,null,2,NA,NA,NA,sub28
d3-animate-choice,80,448862,0.0-61.0-1.6,FALSE,FALSE,FALSE,TRUE,"""event"",""trial"",""time""
""fullscreenenter"",""5"",""22375""
","
","
","""event"",""trial"",""time""
""fullscreenenter"",""5"",""22375""
","
",1177.1000000007916,NA,49,NA,NA,3000,1,NA,NA,images/tutyellowplanet.jpg,images/tutalien4,images/tutalien3,images/tutrocket2,images/tutalien3,images/t.png,2,practice,false,1,rare,1,2020-06-10T23:39:43Z,sub28
two-step-fixation,81,449870,0.0-61.0-2.6,FALSE,FALSE,FALSE,TRUE,"""event"",""trial"",""time""
""fullscreenenter"",""5"",""22375""
","
","
","""event"",""trial"",""time""
""fullscreenenter"",""5"",""22375""
","
",NA,images/earth.jpg,NA,NA,NA,NA,NA,NA,NA,NA,NA,NA,NA,NA,NA,fixation,NA,NA,NA,NA,NA,NA,sub28
d3-animate-choice,82,452520,0.0-61.0-0.7,FALSE,FALSE,FALSE,TRUE,"""event"",""trial"",""time""
""fullscreenenter"",""5"",""22375""
","
","
","""event"",""trial"",""time""
""fullscreenenter"",""5"",""22375""
","
",636.7899999895599,NA,48,NA,NA,3000,1,NA,NA,images/earth.jpg,images/tutrocket2,images/tutrocket1,null,images/tutrocket2,NA,1,practice,null,2,NA,NA,NA,sub28
d3-animate-choice,83,455249,0.0-61.0-1.7,FALSE,FALSE,FALSE,TRUE,"""event"",""trial"",""time""
""fullscreenenter"",""5"",""22375""
","
","
","""event"",""trial"",""time""
""fullscreenenter"",""5"",""22375""
","
",719.7850000084145,NA,48,NA,NA,3000,1,NA,NA,images/tutgreenplanet.jpg,images/tutalien2,images/tutalien1,images/tutrocket2,images/tutalien2,images/nothing.png,2,practice,true,2,common,0,2020-06-10T23:39:49Z,sub28
two-step-fixation,84,456257,0.0-61.0-2.7,FALSE,FALSE,FALSE,TRUE,"""event"",""trial"",""time""
""fullscreenenter"",""5"",""22375""
","
","
","""event"",""trial"",""time""
""fullscreenenter"",""5"",""22375""
","
",NA,images/earth.jpg,NA,NA,NA,NA,NA,NA,NA,NA,NA,NA,NA,NA,NA,fixation,NA,NA,NA,NA,NA,NA,sub28
d3-animate-choice,85,459190,0.0-61.0-0.8,FALSE,FALSE,FALSE,TRUE,"""event"",""trial"",""time""
""fullscreenenter"",""5"",""22375""
","
","
","""event"",""trial"",""time""
""fullscreenenter"",""5"",""22375""
","
",925.9100000053877,NA,49,NA,NA,3000,1,NA,NA,images/earth.jpg,images/tutrocket2,images/tutrocket1,null,images/tutrocket1,NA,1,practice,null,1,NA,NA,NA,sub28
d3-animate-choice,86,461661,0.0-61.0-1.8,FALSE,FALSE,FALSE,TRUE,"""event"",""trial"",""time""
""fullscreenenter"",""5"",""22375""
","
","
","""event"",""trial"",""time""
""fullscreenenter"",""5"",""22375""
","
",462.7350000082515,NA,48,NA,NA,3000,1,NA,NA,images/tutgreenplanet.jpg,images/tutalien2,images/tutalien1,images/tutrocket1,images/tutalien2,images/nothing.png,2,practice,false,2,rare,0,2020-06-10T23:39:56Z,sub28
two-step-fixation,87,462667,0.0-61.0-2.8,FALSE,FALSE,FALSE,TRUE,"""event"",""trial"",""time""
""fullscreenenter"",""5"",""22375""
","
","
","""event"",""trial"",""time""
""fullscreenenter"",""5"",""22375""
","
",NA,images/earth.jpg,NA,NA,NA,NA,NA,NA,NA,NA,NA,NA,NA,NA,NA,fixation,NA,NA,NA,NA,NA,NA,sub28
d3-animate-choice,88,465421,0.0-61.0-0.9,FALSE,FALSE,FALSE,TRUE,"""event"",""trial"",""time""
""fullscreenenter"",""5"",""22375""
","
","
","""event"",""trial"",""time""
""fullscreenenter"",""5"",""22375""
","
",743.6149999994086,NA,49,NA,NA,3000,1,NA,NA,images/earth.jpg,images/tutrocket2,images/tutrocket1,null,images/tutrocket1,NA,1,practice,null,1,NA,NA,NA,sub28
d3-animate-choice,89,468123,0.0-61.0-1.9,FALSE,FALSE,FALSE,TRUE,"""event"",""trial"",""time""
""fullscreenenter"",""5"",""22375""
","
","
","""event"",""trial"",""time""
""fullscreenenter"",""5"",""22375""
","
",694.2799999960698,NA,49,NA,NA,3000,1,NA,NA,images/tutgreenplanet.jpg,images/tutalien2,images/tutalien1,images/tutrocket1,images/tutalien1,images/nothing.png,2,practice,false,1,rare,0,2020-06-10T23:40:02Z,sub28
two-step-fixation,90,469131,0.0-61.0-2.9,FALSE,FALSE,FALSE,TRUE,"""event"",""trial"",""time""
""fullscreenenter"",""5"",""22375""
","
","
","""event"",""trial"",""time""
""fullscreenenter"",""5"",""22375""
","
",NA,images/earth.jpg,NA,NA,NA,NA,NA,NA,NA,NA,NA,NA,NA,NA,NA,fixation,NA,NA,NA,NA,NA,NA,sub28
d3-animate-choice,91,471441,0.0-61.0-0.10,FALSE,FALSE,FALSE,TRUE,"""event"",""trial"",""time""
""fullscreenenter"",""5"",""22375""
","
","
","""event"",""trial"",""time""
""fullscreenenter"",""5"",""22375""
","
",300.3150000004098,NA,48,NA,NA,3000,1,NA,NA,images/earth.jpg,images/tutrocket2,images/tutrocket1,null,images/tutrocket2,NA,1,practice,null,2,NA,NA,NA,sub28
d3-animate-choice,92,473963,0.0-61.0-1.10,FALSE,FALSE,FALSE,TRUE,"""event"",""trial"",""time""
""fullscreenenter"",""5"",""22375""
","
","
","""event"",""trial"",""time""
""fullscreenenter"",""5"",""22375""
","
",510.8449999970617,NA,48,NA,NA,3000,1,NA,NA,images/tutyellowplanet.jpg,images/tutalien4,images/tutalien3,images/tutrocket2,images/tutalien4,images/t.png,2,practice,false,2,rare,1,2020-06-10T23:40:08Z,sub28
two-step-fixation,93,474975,0.0-61.0-2.10,FALSE,FALSE,FALSE,TRUE,"""event"",""trial"",""time""
""fullscreenenter"",""5"",""22375""
","
","
","""event"",""trial"",""time""
""fullscreenenter"",""5"",""22375""
","
",NA,images/earth.jpg,NA,NA,NA,NA,NA,NA,NA,NA,NA,NA,NA,NA,NA,fixation,NA,NA,NA,NA,NA,NA,sub28
d3-animate-choice,94,477772,0.0-61.0-0.11,FALSE,FALSE,FALSE,TRUE,"""event"",""trial"",""time""
""fullscreenenter"",""5"",""22375""
","
","
","""event"",""trial"",""time""
""fullscreenenter"",""5"",""22375""
","
",787.2700000007171,NA,48,NA,NA,3000,1,NA,NA,images/earth.jpg,images/tutrocket2,images/tutrocket1,null,images/tutrocket2,NA,1,practice,null,2,NA,NA,NA,sub28
d3-animate-choice,95,480221,0.0-61.0-1.11,FALSE,FALSE,FALSE,TRUE,"""event"",""trial"",""time""
""fullscreenenter"",""5"",""22375""
","
","
","""event"",""trial"",""time""
""fullscreenenter"",""5"",""22375""
","
",441.9599999964703,NA,48,NA,NA,3000,1,NA,NA,images/tutgreenplanet.jpg,images/tutalien2,images/tutalien1,images/tutrocket2,images/tutalien2,images/nothing.png,2,practice,true,2,common,0,2020-06-10T23:40:14Z,sub28
two-step-fixation,96,481228,0.0-61.0-2.11,FALSE,FALSE,FALSE,TRUE,"""event"",""trial"",""time""
""fullscreenenter"",""5"",""22375""
","
","
","""event"",""trial"",""time""
""fullscreenenter"",""5"",""22375""
","
",NA,images/earth.jpg,NA,NA,NA,NA,NA,NA,NA,NA,NA,NA,NA,NA,NA,fixation,NA,NA,NA,NA,NA,NA,sub28
d3-animate-choice,97,483681,0.0-61.0-0.12,FALSE,FALSE,FALSE,TRUE,"""event"",""trial"",""time""
""fullscreenenter"",""5"",""22375""
","
","
","""event"",""trial"",""time""
""fullscreenenter"",""5"",""22375""
","
",442.4100000032922,NA,48,NA,NA,3000,1,NA,NA,images/earth.jpg,images/tutrocket2,images/tutrocket1,null,images/tutrocket2,NA,1,practice,null,2,NA,NA,NA,sub28
d3-animate-choice,98,486209,0.0-61.0-1.12,FALSE,FALSE,FALSE,TRUE,"""event"",""trial"",""time""
""fullscreenenter"",""5"",""22375""
","
","
","""event"",""trial"",""time""
""fullscreenenter"",""5"",""22375""
","
",521.6600000130711,NA,49,NA,NA,3000,1,NA,NA,images/tutyellowplanet.jpg,images/tutalien4,images/tutalien3,images/tutrocket2,images/tutalien3,images/nothing.png,2,practice,false,1,rare,0,2020-06-10T23:40:20Z,sub28
two-step-fixation,99,487217,0.0-61.0-2.12,FALSE,FALSE,FALSE,TRUE,"""event"",""trial"",""time""
""fullscreenenter"",""5"",""22375""
","
","
","""event"",""trial"",""time""
""fullscreenenter"",""5"",""22375""
","
",NA,images/earth.jpg,NA,NA,NA,NA,NA,NA,NA,NA,NA,NA,NA,NA,NA,fixation,NA,NA,NA,NA,NA,NA,sub28
d3-animate-choice,100,489521,0.0-61.0-0.13,FALSE,FALSE,FALSE,TRUE,"""event"",""trial"",""time""
""fullscreenenter"",""5"",""22375""
","
","
","""event"",""trial"",""time""
""fullscreenenter"",""5"",""22375""
","
",298.8400000031106,NA,48,NA,NA,3000,1,NA,NA,images/earth.jpg,images/tutrocket2,images/tutrocket1,null,images/tutrocket2,NA,1,practice,null,2,NA,NA,NA,sub28
d3-animate-choice,101,492011,0.0-61.0-1.13,FALSE,FALSE,FALSE,TRUE,"""event"",""trial"",""time""
""fullscreenenter"",""5"",""22375""
","
","
","""event"",""trial"",""time""
""fullscreenenter"",""5"",""22375""
","
",484.66000000189524,NA,48,NA,NA,3000,1,NA,NA,images/tutgreenplanet.jpg,images/tutalien2,images/tutalien1,images/tutrocket2,images/tutalien2,images/t.png,2,practice,true,2,common,1,2020-06-10T23:40:26Z,sub28
two-step-fixation,102,493017,0.0-61.0-2.13,FALSE,FALSE,FALSE,TRUE,"""event"",""trial"",""time""
""fullscreenenter"",""5"",""22375""
","
","
","""event"",""trial"",""time""
""fullscreenenter"",""5"",""22375""
","
",NA,images/earth.jpg,NA,NA,NA,NA,NA,NA,NA,NA,NA,NA,NA,NA,NA,fixation,NA,NA,NA,NA,NA,NA,sub28
d3-animate-choice,103,495372,0.0-61.0-0.14,FALSE,FALSE,FALSE,TRUE,"""event"",""trial"",""time""
""fullscreenenter"",""5"",""22375""
","
","
","""event"",""trial"",""time""
""fullscreenenter"",""5"",""22375""
","
",345.2800000086427,NA,48,NA,NA,3000,1,NA,NA,images/earth.jpg,images/tutrocket2,images/tutrocket1,null,images/tutrocket2,NA,1,practice,null,2,NA,NA,NA,sub28
d3-animate-choice,104,498013,0.0-61.0-1.14,FALSE,FALSE,FALSE,TRUE,"""event"",""trial"",""time""
""fullscreenenter"",""5"",""22375""
","
","
","""event"",""trial"",""time""
""fullscreenenter"",""5"",""22375""
","
",628.6350000009406,NA,48,NA,NA,3000,1,NA,NA,images/tutgreenplanet.jpg,images/tutalien2,images/tutalien1,images/tutrocket2,images/tutalien2,images/t.png,2,practice,true,2,common,1,2020-06-10T23:40:32Z,sub28
two-step-fixation,105,499021,0.0-61.0-2.14,FALSE,FALSE,FALSE,TRUE,"""event"",""trial"",""time""
""fullscreenenter"",""5"",""22375""
","
","
","""event"",""trial"",""time""
""fullscreenenter"",""5"",""22375""
","
",NA,images/earth.jpg,NA,NA,NA,NA,NA,NA,NA,NA,NA,NA,NA,NA,NA,fixation,NA,NA,NA,NA,NA,NA,sub28
d3-animate-choice,106,501383,0.0-61.0-0.15,FALSE,FALSE,FALSE,TRUE,"""event"",""trial"",""time""
""fullscreenenter"",""5"",""22375""
","
","
","""event"",""trial"",""time""
""fullscreenenter"",""5"",""22375""
","
",351.1149999976624,NA,48,NA,NA,3000,1,NA,NA,images/earth.jpg,images/tutrocket2,images/tutrocket1,null,images/tutrocket2,NA,1,practice,null,2,NA,NA,NA,sub28
d3-animate-choice,107,504312,0.0-61.0-1.15,FALSE,FALSE,FALSE,TRUE,"""event"",""trial"",""time""
""fullscreenenter"",""5"",""22375""
","
","
","""event"",""trial"",""time""
""fullscreenenter"",""5"",""22375""
","
",921.2799999950221,NA,49,NA,NA,3000,1,NA,NA,images/tutyellowplanet.jpg,images/tutalien4,images/tutalien3,images/tutrocket2,images/tutalien3,images/nothing.png,2,practice,false,1,rare,0,2020-06-10T23:40:38Z,sub28
two-step-fixation,108,505318,0.0-61.0-2.15,FALSE,FALSE,FALSE,TRUE,"""event"",""trial"",""time""
""fullscreenenter"",""5"",""22375""
","
","
","""event"",""trial"",""time""
""fullscreenenter"",""5"",""22375""
","
",NA,images/earth.jpg,NA,NA,NA,NA,NA,NA,NA,NA,NA,NA,NA,NA,NA,fixation,NA,NA,NA,NA,NA,NA,sub28
d3-animate-choice,109,507705,0.0-61.0-0.16,FALSE,FALSE,FALSE,TRUE,"""event"",""trial"",""time""
""fullscreenenter"",""5"",""22375""
","
","
","""event"",""trial"",""time""
""fullscreenenter"",""5"",""22375""
","
",381.5900000045076,NA,48,NA,NA,3000,1,NA,NA,images/earth.jpg,images/tutrocket2,images/tutrocket1,null,images/tutrocket2,NA,1,practice,null,2,NA,NA,NA,sub28
d3-animate-choice,110,510161,0.0-61.0-1.16,FALSE,FALSE,FALSE,TRUE,"""event"",""trial"",""time""
""fullscreenenter"",""5"",""22375""
","
","
","""event"",""trial"",""time""
""fullscreenenter"",""5"",""22375""
","
",448.34000000264496,NA,48,NA,NA,3000,1,NA,NA,images/tutgreenplanet.jpg,images/tutalien2,images/tutalien1,images/tutrocket2,images/tutalien2,images/nothing.png,2,practice,true,2,common,0,2020-06-10T23:40:44Z,sub28
two-step-fixation,111,511168,0.0-61.0-2.16,FALSE,FALSE,FALSE,TRUE,"""event"",""trial"",""time""
""fullscreenenter"",""5"",""22375""
","
","
","""event"",""trial"",""time""
""fullscreenenter"",""5"",""22375""
","
",NA,images/earth.jpg,NA,NA,NA,NA,NA,NA,NA,NA,NA,NA,NA,NA,NA,fixation,NA,NA,NA,NA,NA,NA,sub28
d3-animate-choice,112,513575,0.0-61.0-0.17,FALSE,FALSE,FALSE,TRUE,"""event"",""trial"",""time""
""fullscreenenter"",""5"",""22375""
","
","
","""event"",""trial"",""time""
""fullscreenenter"",""5"",""22375""
","
",392.81499999924563,NA,48,NA,NA,3000,1,NA,NA,images/earth.jpg,images/tutrocket2,images/tutrocket1,null,images/tutrocket2,NA,1,practice,null,2,NA,NA,NA,sub28
d3-animate-choice,113,515962,0.0-61.0-1.17,FALSE,FALSE,FALSE,TRUE,"""event"",""trial"",""time""
""fullscreenenter"",""5"",""22375""
","
","
","""event"",""trial"",""time""
""fullscreenenter"",""5"",""22375""
","
",380.1650000095833,NA,48,NA,NA,3000,1,NA,NA,images/tutyellowplanet.jpg,images/tutalien4,images/tutalien3,images/tutrocket2,images/tutalien4,images/t.png,2,practice,false,2,rare,1,2020-06-10T23:40:50Z,sub28
two-step-fixation,114,516972,0.0-61.0-2.17,FALSE,FALSE,FALSE,TRUE,"""event"",""trial"",""time""
""fullscreenenter"",""5"",""22375""
","
","
","""event"",""trial"",""time""
""fullscreenenter"",""5"",""22375""
","
",NA,images/earth.jpg,NA,NA,NA,NA,NA,NA,NA,NA,NA,NA,NA,NA,NA,fixation,NA,NA,NA,NA,NA,NA,sub28
d3-animate-choice,115,519185,0.0-61.0-0.18,FALSE,FALSE,FALSE,TRUE,"""event"",""trial"",""time""
""fullscreenenter"",""5"",""22375""
","
","
","""event"",""trial"",""time""
""fullscreenenter"",""5"",""22375""
","
",203.3300000039162,NA,48,NA,NA,3000,1,NA,NA,images/earth.jpg,images/tutrocket2,images/tutrocket1,null,images/tutrocket2,NA,1,practice,null,2,NA,NA,NA,sub28
d3-animate-choice,116,521572,0.0-61.0-1.18,FALSE,FALSE,FALSE,TRUE,"""event"",""trial"",""time""
""fullscreenenter"",""5"",""22375""
","
","
","""event"",""trial"",""time""
""fullscreenenter"",""5"",""22375""
","
",377.71499999507796,NA,48,NA,NA,3000,1,NA,NA,images/tutgreenplanet.jpg,images/tutalien2,images/tutalien1,images/tutrocket2,images/tutalien2,images/nothing.png,2,practice,true,2,common,0,2020-06-10T23:40:56Z,sub28
two-step-fixation,117,522579,0.0-61.0-2.18,FALSE,FALSE,FALSE,TRUE,"""event"",""trial"",""time""
""fullscreenenter"",""5"",""22375""
","
","
","""event"",""trial"",""time""
""fullscreenenter"",""5"",""22375""
","
",NA,images/earth.jpg,NA,NA,NA,NA,NA,NA,NA,NA,NA,NA,NA,NA,NA,fixation,NA,NA,NA,NA,NA,NA,sub28
d3-animate-choice,118,524733,0.0-61.0-0.19,FALSE,FALSE,FALSE,TRUE,"""event"",""trial"",""time""
""fullscreenenter"",""5"",""22375""
","
","
","""event"",""trial"",""time""
""fullscreenenter"",""5"",""22375""
","
",146.4750000013737,NA,49,NA,NA,3000,1,NA,NA,images/earth.jpg,images/tutrocket2,images/tutrocket1,null,images/tutrocket1,NA,1,practice,null,1,NA,NA,NA,sub28
d3-animate-choice,119,527041,0.0-61.0-1.19,FALSE,FALSE,FALSE,TRUE,"""event"",""trial"",""time""
""fullscreenenter"",""5"",""22375""
","
","
","""event"",""trial"",""time""
""fullscreenenter"",""5"",""22375""
","
",297.77499999909196,NA,48,NA,NA,3000,1,NA,NA,images/tutgreenplanet.jpg,images/tutalien2,images/tutalien1,images/tutrocket1,images/tutalien2,images/nothing.png,2,practice,false,2,rare,0,2020-06-10T23:41:01Z,sub28
two-step-fixation,120,528049,0.0-61.0-2.19,FALSE,FALSE,FALSE,TRUE,"""event"",""trial"",""time""
""fullscreenenter"",""5"",""22375""
","
","
","""event"",""trial"",""time""
""fullscreenenter"",""5"",""22375""
","
",NA,images/earth.jpg,NA,NA,NA,NA,NA,NA,NA,NA,NA,NA,NA,NA,NA,fixation,NA,NA,NA,NA,NA,NA,sub28
d3-instructions,121,534802,0.0-62.0,FALSE,FALSE,FALSE,TRUE,"""event"",""trial"",""time""
""fullscreenenter"",""5"",""22375""
","
","
","""event"",""trial"",""time""
""fullscreenenter"",""5"",""22375""
","
",NA,NA,NA,NA,NA,NA,NA,NA,NA,NA,NA,NA,NA,NA,NA,NA,NA,NA,NA,NA,NA,NA,sub28
audio-keyboard-response,122,540392,0.0-63.0,FALSE,FALSE,FALSE,TRUE,"""event"",""trial"",""time""
""fullscreenenter"",""5"",""22375""
","
","
","""event"",""trial"",""time""
""fullscreenenter"",""5"",""22375""
","
",5579,audio/instructions/treasure_feedback.wav,32,NA,NA,NA,NA,NA,NA,NA,NA,NA,NA,NA,NA,NA,NA,NA,NA,NA,NA,NA,sub28
d3-instructions,123,560253,0.0-64.0,FALSE,FALSE,FALSE,TRUE,"""event"",""trial"",""time""
""fullscreenenter"",""5"",""22375""
","
","
","""event"",""trial"",""time""
""fullscreenenter"",""5"",""22375""
","
",NA,NA,NA,NA,NA,NA,NA,NA,NA,NA,NA,NA,NA,NA,NA,NA,NA,NA,NA,NA,NA,NA,sub28
d3-instructions,124,574411,0.0-65.0,FALSE,FALSE,FALSE,TRUE,"""event"",""trial"",""time""
""fullscreenenter"",""5"",""22375""
","
","
","""event"",""trial"",""time""
""fullscreenenter"",""5"",""22375""
","
",NA,NA,NA,NA,NA,NA,NA,NA,NA,NA,NA,NA,NA,NA,NA,NA,NA,NA,NA,NA,NA,NA,sub28
d3-instructions,125,599798,0.0-66.0,FALSE,FALSE,FALSE,TRUE,"""event"",""trial"",""time""
""fullscreenenter"",""5"",""22375""
","
","
","""event"",""trial"",""time""
""fullscreenenter"",""5"",""22375""
","
",NA,NA,NA,NA,NA,NA,NA,NA,NA,NA,NA,NA,NA,NA,NA,NA,NA,NA,NA,NA,NA,NA,sub28
d3-instructions,126,615901,0.0-67.0,FALSE,FALSE,FALSE,TRUE,"""event"",""trial"",""time""
""fullscreenenter"",""5"",""22375""
","
","
","""event"",""trial"",""time""
""fullscreenenter"",""5"",""22375""
","
",NA,NA,NA,NA,NA,NA,NA,NA,NA,NA,NA,NA,NA,NA,NA,NA,NA,NA,NA,NA,NA,NA,sub28
d3-instructions,127,624729,0.0-68.0,FALSE,FALSE,FALSE,TRUE,"""event"",""trial"",""time""
""fullscreenenter"",""5"",""22375""
","
","
","""event"",""trial"",""time""
""fullscreenenter"",""5"",""22375""
","
",NA,NA,NA,NA,NA,NA,NA,NA,NA,NA,NA,NA,NA,NA,NA,NA,NA,NA,NA,NA,NA,NA,sub28
instructions-quiz,128,630130,0.0-69.0,FALSE,FALSE,FALSE,TRUE,"""event"",""trial"",""time""
""fullscreenenter"",""5"",""22375""
","
","
","""event"",""trial"",""time""
""fullscreenenter"",""5"",""22375""
","
",5396.164999998291,audio/quiz/Q1_Prompt.wav,NA,1,NA,NA,NA,NA,NA,NA,NA,NA,NA,NA,NA,NA,NA,NA,NA,NA,NA,NA,sub28
audio-keyboard-response,129,639300,0.0-70.0,FALSE,FALSE,FALSE,TRUE,"""event"",""trial"",""time""
""fullscreenenter"",""5"",""22375""
","
","
","""event"",""trial"",""time""
""fullscreenenter"",""5"",""22375""
","
",null,audio/quiz/Q1_Correct.wav,null,NA,NA,NA,NA,NA,NA,NA,NA,NA,NA,NA,NA,NA,NA,NA,NA,NA,NA,NA,sub28
instructions-quiz,130,648231,0.0-71.0,FALSE,FALSE,FALSE,TRUE,"""event"",""trial"",""time""
""fullscreenenter"",""5"",""22375""
","
","
","""event"",""trial"",""time""
""fullscreenenter"",""5"",""22375""
","
",8927.465000000666,audio/quiz/Q2_Prompt.wav,NA,0,NA,NA,NA,NA,NA,NA,NA,NA,NA,NA,NA,NA,NA,NA,NA,NA,NA,NA,sub28
audio-keyboard-response,131,661221,0.0-72.0,FALSE,FALSE,FALSE,TRUE,"""event"",""trial"",""time""
""fullscreenenter"",""5"",""22375""
","
","
","""event"",""trial"",""time""
""fullscreenenter"",""5"",""22375""
","
",null,audio/quiz/Q2_Correct.wav,null,NA,NA,NA,NA,NA,NA,NA,NA,NA,NA,NA,NA,NA,NA,NA,NA,NA,NA,NA,sub28
instructions-quiz,132,667011,0.0-73.0,FALSE,FALSE,FALSE,TRUE,"""event"",""trial"",""time""
""fullscreenenter"",""5"",""22375""
","
","
","""event"",""trial"",""time""
""fullscreenenter"",""5"",""22375""
","
",5786.86999999627,audio/quiz/Q3_Prompt.wav,NA,1,NA,NA,NA,NA,NA,NA,NA,NA,NA,NA,NA,NA,NA,NA,NA,NA,NA,NA,sub28
audio-keyboard-response,133,672811,0.0-74.0,FALSE,FALSE,FALSE,TRUE,"""event"",""trial"",""time""
""fullscreenenter"",""5"",""22375""
","
","
","""event"",""trial"",""time""
""fullscreenenter"",""5"",""22375""
","
",null,audio/quiz/Q3_Correct.wav,null,NA,NA,NA,NA,NA,NA,NA,NA,NA,NA,NA,NA,NA,NA,NA,NA,NA,NA,NA,sub28
d3-instructions,134,687648,0.0-75.0,FALSE,FALSE,FALSE,TRUE,"""event"",""trial"",""time""
""fullscreenenter"",""5"",""22375""
","
","
","""event"",""trial"",""time""
""fullscreenenter"",""5"",""22375""
","
",NA,NA,NA,NA,NA,NA,NA,NA,NA,NA,NA,NA,NA,NA,NA,NA,NA,NA,NA,NA,NA,NA,sub28
d3-animate-choice,135,690731,0.0-76.0-0.0,FALSE,FALSE,FALSE,TRUE,"""event"",""trial"",""time""
""fullscreenenter"",""5"",""22375""
","
","
","""event"",""trial"",""time""
""fullscreenenter"",""5"",""22375""
","
",1077.51499999722,NA,48,NA,NA,3000,1,NA,NA,images/earth.jpg,images/rocket1,images/rocket2,null,images/rocket1,NA,1,real,null,2,NA,NA,NA,sub28
d3-animate-choice,136,693313,0.0-76.0-1.0,FALSE,FALSE,FALSE,TRUE,"""event"",""trial"",""time""
""fullscreenenter"",""5"",""22375""
","
","
","""event"",""trial"",""time""
""fullscreenenter"",""5"",""22375""
","
",571.6649999958463,NA,49,NA,NA,3000,1,NA,NA,images/redplanet1.jpg,images/alien2,images/alien1,images/rocket1,images/alien1,images/nothing.png,2,real,false,1,rare,0,2020-06-10T23:43:47Z,sub28
two-step-fixation,137,694320,0.0-76.0-2.0,FALSE,FALSE,FALSE,TRUE,"""event"",""trial"",""time""
""fullscreenenter"",""5"",""22375""
","
","
","""event"",""trial"",""time""
""fullscreenenter"",""5"",""22375""
","
",NA,images/earth.jpg,NA,NA,NA,NA,NA,NA,NA,NA,NA,NA,NA,NA,NA,fixation,NA,NA,NA,NA,NA,NA,sub28
d3-animate-choice,138,696632,0.0-76.0-0.1,FALSE,FALSE,FALSE,TRUE,"""event"",""trial"",""time""
""fullscreenenter"",""5"",""22375""
","
","
","""event"",""trial"",""time""
""fullscreenenter"",""5"",""22375""
","
",302.9499999975087,NA,48,NA,NA,3000,1,NA,NA,images/earth.jpg,images/rocket1,images/rocket2,null,images/rocket1,NA,1,real,null,2,NA,NA,NA,sub28
d3-animate-choice,139,699615,0.0-76.0-1.1,FALSE,FALSE,FALSE,TRUE,"""event"",""trial"",""time""
""fullscreenenter"",""5"",""22375""
","
","
","""event"",""trial"",""time""
""fullscreenenter"",""5"",""22375""
","
",975.4649999958929,NA,49,NA,NA,3000,1,NA,NA,images/purpleplanet.jpg,images/alien4,images/alien3,images/rocket1,images/alien3,images/nothing.png,2,real,true,1,common,0,2020-06-10T23:43:54Z,sub28
two-step-fixation,140,700623,0.0-76.0-2.1,FALSE,FALSE,FALSE,TRUE,"""event"",""trial"",""time""
""fullscreenenter"",""5"",""22375""
","
","
","""event"",""trial"",""time""
""fullscreenenter"",""5"",""22375""
","
",NA,images/earth.jpg,NA,NA,NA,NA,NA,NA,NA,NA,NA,NA,NA,NA,NA,fixation,NA,NA,NA,NA,NA,NA,sub28
d3-animate-choice,141,703103,0.0-76.0-0.2,FALSE,FALSE,FALSE,TRUE,"""event"",""trial"",""time""
""fullscreenenter"",""5"",""22375""
","
","
","""event"",""trial"",""time""
""fullscreenenter"",""5"",""22375""
","
",470.03500000573695,NA,49,NA,NA,3000,1,NA,NA,images/earth.jpg,images/rocket1,images/rocket2,null,images/rocket2,NA,1,real,null,1,NA,NA,NA,sub28
d3-animate-choice,142,705431,0.0-76.0-1.2,FALSE,FALSE,FALSE,TRUE,"""event"",""trial"",""time""
""fullscreenenter"",""5"",""22375""
","
","
","""event"",""trial"",""time""
""fullscreenenter"",""5"",""22375""
","
",321.1050000099931,NA,48,NA,NA,3000,1,NA,NA,images/purpleplanet.jpg,images/alien4,images/alien3,images/rocket2,images/alien4,images/t.png,2,real,false,2,rare,1,2020-06-10T23:44:00Z,sub28
two-step-fixation,143,706440,0.0-76.0-2.2,FALSE,FALSE,FALSE,TRUE,"""event"",""trial"",""time""
""fullscreenenter"",""5"",""22375""
","
","
","""event"",""trial"",""time""
""fullscreenenter"",""5"",""22375""
","
",NA,images/earth.jpg,NA,NA,NA,NA,NA,NA,NA,NA,NA,NA,NA,NA,NA,fixation,NA,NA,NA,NA,NA,NA,sub28
d3-animate-choice,144,708899,0.0-76.0-0.3,FALSE,FALSE,FALSE,TRUE,"""event"",""trial"",""time""
""fullscreenenter"",""5"",""22375""
","
","
","""event"",""trial"",""time""
""fullscreenenter"",""5"",""22375""
","
",453.63499999803025,NA,49,NA,NA,3000,1,NA,NA,images/earth.jpg,images/rocket1,images/rocket2,null,images/rocket2,NA,1,real,null,1,NA,NA,NA,sub28
d3-animate-choice,145,711701,0.0-76.0-1.3,FALSE,FALSE,FALSE,TRUE,"""event"",""trial"",""time""
""fullscreenenter"",""5"",""22375""
","
","
","""event"",""trial"",""time""
""fullscreenenter"",""5"",""22375""
","
",676.5350000059698,NA,48,NA,NA,3000,1,NA,NA,images/purpleplanet.jpg,images/alien4,images/alien3,images/rocket2,images/alien4,images/t.png,2,real,false,2,rare,1,2020-06-10T23:44:06Z,sub28
two-step-fixation,146,712709,0.0-76.0-2.3,FALSE,FALSE,FALSE,TRUE,"""event"",""trial"",""time""
""fullscreenenter"",""5"",""22375""
","
","
","""event"",""trial"",""time""
""fullscreenenter"",""5"",""22375""
","
",NA,images/earth.jpg,NA,NA,NA,NA,NA,NA,NA,NA,NA,NA,NA,NA,NA,fixation,NA,NA,NA,NA,NA,NA,sub28
d3-animate-choice,147,715043,0.0-76.0-0.4,FALSE,FALSE,FALSE,TRUE,"""event"",""trial"",""time""
""fullscreenenter"",""5"",""22375""
","
","
","""event"",""trial"",""time""
""fullscreenenter"",""5"",""22375""
","
",324.5500000048196,NA,49,NA,NA,3000,1,NA,NA,images/earth.jpg,images/rocket1,images/rocket2,null,images/rocket2,NA,1,real,null,1,NA,NA,NA,sub28
d3-animate-choice,148,717676,0.0-76.0-1.4,FALSE,FALSE,FALSE,TRUE,"""event"",""trial"",""time""
""fullscreenenter"",""5"",""22375""
","
","
","""event"",""trial"",""time""
""fullscreenenter"",""5"",""22375""
","
",622.6049999968382,NA,48,NA,NA,3000,1,NA,NA,images/purpleplanet.jpg,images/alien4,images/alien3,images/rocket2,images/alien4,images/t.png,2,real,false,2,rare,1,2020-06-10T23:44:12Z,sub28
two-step-fixation,149,718685,0.0-76.0-2.4,FALSE,FALSE,FALSE,TRUE,"""event"",""trial"",""time""
""fullscreenenter"",""5"",""22375""
","
","
","""event"",""trial"",""time""
""fullscreenenter"",""5"",""22375""
","
",NA,images/earth.jpg,NA,NA,NA,NA,NA,NA,NA,NA,NA,NA,NA,NA,NA,fixation,NA,NA,NA,NA,NA,NA,sub28
d3-animate-choice,150,721007,0.0-76.0-0.5,FALSE,FALSE,FALSE,TRUE,"""event"",""trial"",""time""
""fullscreenenter"",""5"",""22375""
","
","
","""event"",""trial"",""time""
""fullscreenenter"",""5"",""22375""
","
",308.45500000577886,NA,49,NA,NA,3000,1,NA,NA,images/earth.jpg,images/rocket1,images/rocket2,null,images/rocket2,NA,1,real,null,1,NA,NA,NA,sub28
d3-animate-choice,151,723376,0.0-76.0-1.5,FALSE,FALSE,FALSE,TRUE,"""event"",""trial"",""time""
""fullscreenenter"",""5"",""22375""
","
","
","""event"",""trial"",""time""
""fullscreenenter"",""5"",""22375""
","
",355.55500000191387,NA,48,NA,NA,3000,1,NA,NA,images/purpleplanet.jpg,images/alien4,images/alien3,images/rocket2,images/alien4,images/t.png,2,real,false,2,rare,1,2020-06-10T23:44:18Z,sub28
two-step-fixation,152,724388,0.0-76.0-2.5,FALSE,FALSE,FALSE,TRUE,"""event"",""trial"",""time""
""fullscreenenter"",""5"",""22375""
","
","
","""event"",""trial"",""time""
""fullscreenenter"",""5"",""22375""
","
",NA,images/earth.jpg,NA,NA,NA,NA,NA,NA,NA,NA,NA,NA,NA,NA,NA,fixation,NA,NA,NA,NA,NA,NA,sub28
d3-animate-choice,153,726717,0.0-76.0-0.6,FALSE,FALSE,FALSE,TRUE,"""event"",""trial"",""time""
""fullscreenenter"",""5"",""22375""
","
","
","""event"",""trial"",""time""
""fullscreenenter"",""5"",""22375""
","
",318.6149999964982,NA,49,NA,NA,3000,1,NA,NA,images/earth.jpg,images/rocket1,images/rocket2,null,images/rocket2,NA,1,real,null,1,NA,NA,NA,sub28
d3-animate-choice,154,729152,0.0-76.0-1.6,FALSE,FALSE,FALSE,TRUE,"""event"",""trial"",""time""
""fullscreenenter"",""5"",""22375""
","
","
","""event"",""trial"",""time""
""fullscreenenter"",""5"",""22375""
","
",424.99499999394175,NA,48,NA,NA,3000,1,NA,NA,images/redplanet1.jpg,images/alien2,images/alien1,images/rocket2,images/alien2,images/nothing.png,2,real,true,2,common,0,2020-06-10T23:44:23Z,sub28
two-step-fixation,155,730161,0.0-76.0-2.6,FALSE,FALSE,FALSE,TRUE,"""event"",""trial"",""time""
""fullscreenenter"",""5"",""22375""
","
","
","""event"",""trial"",""time""
""fullscreenenter"",""5"",""22375""
","
",NA,images/earth.jpg,NA,NA,NA,NA,NA,NA,NA,NA,NA,NA,NA,NA,NA,fixation,NA,NA,NA,NA,NA,NA,sub28
d3-animate-choice,156,732525,0.0-76.0-0.7,FALSE,FALSE,FALSE,TRUE,"""event"",""trial"",""time""
""fullscreenenter"",""5"",""22375""
","
","
","""event"",""trial"",""time""
""fullscreenenter"",""5"",""22375""
","
",354.9550000025192,NA,49,NA,NA,3000,1,NA,NA,images/earth.jpg,images/rocket1,images/rocket2,null,images/rocket2,NA,1,real,null,1,NA,NA,NA,sub28
d3-animate-choice,157,735162,0.0-76.0-1.7,FALSE,FALSE,FALSE,TRUE,"""event"",""trial"",""time""
""fullscreenenter"",""5"",""22375""
","
","
","""event"",""trial"",""time""
""fullscreenenter"",""5"",""22375""
","
",629.8249999963446,NA,49,NA,NA,3000,1,NA,NA,images/redplanet1.jpg,images/alien2,images/alien1,images/rocket2,images/alien1,images/nothing.png,2,real,true,1,common,0,2020-06-10T23:44:29Z,sub28
two-step-fixation,158,736171,0.0-76.0-2.7,FALSE,FALSE,FALSE,TRUE,"""event"",""trial"",""time""
""fullscreenenter"",""5"",""22375""
","
","
","""event"",""trial"",""time""
""fullscreenenter"",""5"",""22375""
","
",NA,images/earth.jpg,NA,NA,NA,NA,NA,NA,NA,NA,NA,NA,NA,NA,NA,fixation,NA,NA,NA,NA,NA,NA,sub28
d3-animate-choice,159,738525,0.0-76.0-0.8,FALSE,FALSE,FALSE,TRUE,"""event"",""trial"",""time""
""fullscreenenter"",""5"",""22375""
","
","
","""event"",""trial"",""time""
""fullscreenenter"",""5"",""22375""
","
",344.62999999232125,NA,48,NA,NA,3000,1,NA,NA,images/earth.jpg,images/rocket1,images/rocket2,null,images/rocket1,NA,1,real,null,2,NA,NA,NA,sub28
d3-animate-choice,160,741184,0.0-76.0-1.8,FALSE,FALSE,FALSE,TRUE,"""event"",""trial"",""time""
""fullscreenenter"",""5"",""22375""
","
","
","""event"",""trial"",""time""
""fullscreenenter"",""5"",""22375""
","
",646.150000000489,NA,48,NA,NA,3000,1,NA,NA,images/purpleplanet.jpg,images/alien4,images/alien3,images/rocket1,images/alien4,images/nothing.png,2,real,true,2,common,0,2020-06-10T23:44:35Z,sub28
two-step-fixation,161,742191,0.0-76.0-2.8,FALSE,FALSE,FALSE,TRUE,"""event"",""trial"",""time""
""fullscreenenter"",""5"",""22375""
","
","
","""event"",""trial"",""time""
""fullscreenenter"",""5"",""22375""
","
",NA,images/earth.jpg,NA,NA,NA,NA,NA,NA,NA,NA,NA,NA,NA,NA,NA,fixation,NA,NA,NA,NA,NA,NA,sub28
d3-animate-choice,162,744454,0.0-76.0-0.9,FALSE,FALSE,FALSE,TRUE,"""event"",""trial"",""time""
""fullscreenenter"",""5"",""22375""
","
","
","""event"",""trial"",""time""
""fullscreenenter"",""5"",""22375""
","
",253.12500000291038,NA,49,NA,NA,3000,1,NA,NA,images/earth.jpg,images/rocket1,images/rocket2,null,images/rocket2,NA,1,real,null,1,NA,NA,NA,sub28
d3-animate-choice,163,746853,0.0-76.0-1.9,FALSE,FALSE,FALSE,TRUE,"""event"",""trial"",""time""
""fullscreenenter"",""5"",""22375""
","
","
","""event"",""trial"",""time""
""fullscreenenter"",""5"",""22375""
","
",393.42999999644235,NA,49,NA,NA,3000,1,NA,NA,images/purpleplanet.jpg,images/alien4,images/alien3,images/rocket2,images/alien3,images/nothing.png,2,real,false,1,rare,0,2020-06-10T23:44:41Z,sub28
two-step-fixation,164,747862,0.0-76.0-2.9,FALSE,FALSE,FALSE,TRUE,"""event"",""trial"",""time""
""fullscreenenter"",""5"",""22375""
","
","
","""event"",""trial"",""time""
""fullscreenenter"",""5"",""22375""
","
",NA,images/earth.jpg,NA,NA,NA,NA,NA,NA,NA,NA,NA,NA,NA,NA,NA,fixation,NA,NA,NA,NA,NA,NA,sub28
d3-animate-choice,165,750224,0.0-76.0-0.10,FALSE,FALSE,FALSE,TRUE,"""event"",""trial"",""time""
""fullscreenenter"",""5"",""22375""
","
","
","""event"",""trial"",""time""
""fullscreenenter"",""5"",""22375""
","
",351.1249999864958,NA,49,NA,NA,3000,1,NA,NA,images/earth.jpg,images/rocket1,images/rocket2,null,images/rocket2,NA,1,real,null,1,NA,NA,NA,sub28
d3-animate-choice,166,752947,0.0-76.0-1.10,FALSE,FALSE,FALSE,TRUE,"""event"",""trial"",""time""
""fullscreenenter"",""5"",""22375""
","
","
","""event"",""trial"",""time""
""fullscreenenter"",""5"",""22375""
","
",712.9700000077719,NA,49,NA,NA,3000,1,NA,NA,images/redplanet1.jpg,images/alien2,images/alien1,images/rocket2,images/alien1,images/nothing.png,2,real,true,1,common,0,2020-06-10T23:44:47Z,sub28
two-step-fixation,167,753956,0.0-76.0-2.10,FALSE,FALSE,FALSE,TRUE,"""event"",""trial"",""time""
""fullscreenenter"",""5"",""22375""
","
","
","""event"",""trial"",""time""
""fullscreenenter"",""5"",""22375""
","
",NA,images/earth.jpg,NA,NA,NA,NA,NA,NA,NA,NA,NA,NA,NA,NA,NA,fixation,NA,NA,NA,NA,NA,NA,sub28
d3-animate-choice,168,756263,0.0-76.0-0.11,FALSE,FALSE,FALSE,TRUE,"""event"",""trial"",""time""
""fullscreenenter"",""5"",""22375""
","
","
","""event"",""trial"",""time""
""fullscreenenter"",""5"",""22375""
","
",299.2850000009639,NA,49,NA,NA,3000,1,NA,NA,images/earth.jpg,images/rocket1,images/rocket2,null,images/rocket2,NA,1,real,null,1,NA,NA,NA,sub28
d3-animate-choice,169,758967,0.0-76.0-1.11,FALSE,FALSE,FALSE,TRUE,"""event"",""trial"",""time""
""fullscreenenter"",""5"",""22375""
","
","
","""event"",""trial"",""time""
""fullscreenenter"",""5"",""22375""
","
",694.260000003851,NA,48,NA,NA,3000,1,NA,NA,images/redplanet1.jpg,images/alien2,images/alien1,images/rocket2,images/alien2,images/t.png,2,real,true,2,common,1,2020-06-10T23:44:53Z,sub28
two-step-fixation,170,759975,0.0-76.0-2.11,FALSE,FALSE,FALSE,TRUE,"""event"",""trial"",""time""
""fullscreenenter"",""5"",""22375""
","
","
","""event"",""trial"",""time""
""fullscreenenter"",""5"",""22375""
","
",NA,images/earth.jpg,NA,NA,NA,NA,NA,NA,NA,NA,NA,NA,NA,NA,NA,fixation,NA,NA,NA,NA,NA,NA,sub28
d3-animate-choice,171,762256,0.0-76.0-0.12,FALSE,FALSE,FALSE,TRUE,"""event"",""trial"",""time""
""fullscreenenter"",""5"",""22375""
","
","
","""event"",""trial"",""time""
""fullscreenenter"",""5"",""22375""
","
",271.41000000119675,NA,48,NA,NA,3000,1,NA,NA,images/earth.jpg,images/rocket1,images/rocket2,null,images/rocket1,NA,1,real,null,2,NA,NA,NA,sub28
d3-animate-choice,172,764535,0.0-76.0-1.12,FALSE,FALSE,FALSE,TRUE,"""event"",""trial"",""time""
""fullscreenenter"",""5"",""22375""
","
","
","""event"",""trial"",""time""
""fullscreenenter"",""5"",""22375""
","
",268.3800000086194,NA,49,NA,NA,3000,1,NA,NA,images/purpleplanet.jpg,images/alien4,images/alien3,images/rocket1,images/alien3,images/nothing.png,2,real,true,1,common,0,2020-06-10T23:44:59Z,sub28
two-step-fixation,173,765547,0.0-76.0-2.12,FALSE,FALSE,FALSE,TRUE,"""event"",""trial"",""time""
""fullscreenenter"",""5"",""22375""
","
","
","""event"",""trial"",""time""
""fullscreenenter"",""5"",""22375""
","
",NA,images/earth.jpg,NA,NA,NA,NA,NA,NA,NA,NA,NA,NA,NA,NA,NA,fixation,NA,NA,NA,NA,NA,NA,sub28
d3-animate-choice,174,767875,0.0-76.0-0.13,FALSE,FALSE,FALSE,TRUE,"""event"",""trial"",""time""
""fullscreenenter"",""5"",""22375""
","
","
","""event"",""trial"",""time""
""fullscreenenter"",""5"",""22375""
","
",323.6599999945611,NA,49,NA,NA,3000,1,NA,NA,images/earth.jpg,images/rocket1,images/rocket2,null,images/rocket2,NA,1,real,null,1,NA,NA,NA,sub28
d3-animate-choice,175,770348,0.0-76.0-1.13,FALSE,FALSE,FALSE,TRUE,"""event"",""trial"",""time""
""fullscreenenter"",""5"",""22375""
","
","
","""event"",""trial"",""time""
""fullscreenenter"",""5"",""22375""
","
",342.7850000007311,NA,48,NA,NA,3000,1,2288.554999991902,49,images/redplanet1.jpg,images/alien2,images/alien1,images/rocket2,images/alien2,images/nothing.png,2,real,true,2,common,0,2020-06-10T23:45:05Z,sub28
two-step-fixation,176,771353,0.0-76.0-2.13,FALSE,FALSE,FALSE,TRUE,"""event"",""trial"",""time""
""fullscreenenter"",""5"",""22375""
","
","
","""event"",""trial"",""time""
""fullscreenenter"",""5"",""22375""
","
",NA,images/earth.jpg,NA,NA,NA,NA,NA,NA,NA,NA,NA,NA,NA,NA,NA,fixation,NA,NA,NA,NA,NA,NA,sub28
d3-animate-choice,177,774224,0.0-76.0-0.14,FALSE,FALSE,FALSE,TRUE,"""event"",""trial"",""time""
""fullscreenenter"",""5"",""22375""
","
","
","""event"",""trial"",""time""
""fullscreenenter"",""5"",""22375""
","
",866.4900000003399,NA,49,NA,NA,3000,1,NA,NA,images/earth.jpg,images/rocket1,images/rocket2,null,images/rocket2,NA,1,real,null,1,NA,NA,NA,sub28
d3-animate-choice,178,776605,0.0-76.0-1.14,FALSE,FALSE,FALSE,TRUE,"""event"",""trial"",""time""
""fullscreenenter"",""5"",""22375""
","
","
","""event"",""trial"",""time""
""fullscreenenter"",""5"",""22375""
","
",371.0750000027474,NA,48,NA,NA,3000,1,NA,NA,images/purpleplanet.jpg,images/alien4,images/alien3,images/rocket2,images/alien4,images/t.png,2,real,false,2,rare,1,2020-06-10T23:45:11Z,sub28
two-step-fixation,179,777614,0.0-76.0-2.14,FALSE,FALSE,FALSE,TRUE,"""event"",""trial"",""time""
""fullscreenenter"",""5"",""22375""
","
","
","""event"",""trial"",""time""
""fullscreenenter"",""5"",""22375""
","
",NA,images/earth.jpg,NA,NA,NA,NA,NA,NA,NA,NA,NA,NA,NA,NA,NA,fixation,NA,NA,NA,NA,NA,NA,sub28
d3-animate-choice,180,779926,0.0-76.0-0.15,FALSE,FALSE,FALSE,TRUE,"""event"",""trial"",""time""
""fullscreenenter"",""5"",""22375""
","
","
","""event"",""trial"",""time""
""fullscreenenter"",""5"",""22375""
","
",305.3900000086287,NA,49,NA,NA,3000,1,NA,NA,images/earth.jpg,images/rocket1,images/rocket2,null,images/rocket2,NA,1,real,null,1,NA,NA,NA,sub28
d3-animate-choice,181,782344,0.0-76.0-1.15,FALSE,FALSE,FALSE,TRUE,"""event"",""trial"",""time""
""fullscreenenter"",""5"",""22375""
","
","
","""event"",""trial"",""time""
""fullscreenenter"",""5"",""22375""
","
",408.57499999401625,NA,48,NA,NA,3000,1,NA,NA,images/purpleplanet.jpg,images/alien4,images/alien3,images/rocket2,images/alien4,images/t.png,2,real,false,2,rare,1,2020-06-10T23:45:17Z,sub28
two-step-fixation,182,783351,0.0-76.0-2.15,FALSE,FALSE,FALSE,TRUE,"""event"",""trial"",""time""
""fullscreenenter"",""5"",""22375""
","
","
","""event"",""trial"",""time""
""fullscreenenter"",""5"",""22375""
","
",NA,images/earth.jpg,NA,NA,NA,NA,NA,NA,NA,NA,NA,NA,NA,NA,NA,fixation,NA,NA,NA,NA,NA,NA,sub28
d3-animate-choice,183,785456,0.0-76.0-0.16,FALSE,FALSE,FALSE,TRUE,"""event"",""trial"",""time""
""fullscreenenter"",""5"",""22375""
","
","
","""event"",""trial"",""time""
""fullscreenenter"",""5"",""22375""
","
",96.08999999181833,NA,49,NA,NA,3000,1,NA,NA,images/earth.jpg,images/rocket1,images/rocket2,null,images/rocket2,NA,1,real,null,1,NA,NA,NA,sub28
d3-animate-choice,184,787647,0.0-76.0-1.16,FALSE,FALSE,FALSE,TRUE,"""event"",""trial"",""time""
""fullscreenenter"",""5"",""22375""
","
","
","""event"",""trial"",""time""
""fullscreenenter"",""5"",""22375""
","
",178.50500000349712,NA,48,NA,NA,3000,1,NA,NA,images/redplanet1.jpg,images/alien2,images/alien1,images/rocket2,images/alien2,images/t.png,2,real,true,2,common,1,2020-06-10T23:45:22Z,sub28
two-step-fixation,185,788655,0.0-76.0-2.16,FALSE,FALSE,FALSE,TRUE,"""event"",""trial"",""time""
""fullscreenenter"",""5"",""22375""
","
","
","""event"",""trial"",""time""
""fullscreenenter"",""5"",""22375""
","
",NA,images/earth.jpg,NA,NA,NA,NA,NA,NA,NA,NA,NA,NA,NA,NA,NA,fixation,NA,NA,NA,NA,NA,NA,sub28
d3-animate-choice,186,790768,0.0-76.0-0.17,FALSE,FALSE,FALSE,TRUE,"""event"",""trial"",""time""
""fullscreenenter"",""5"",""22375""
","
","
","""event"",""trial"",""time""
""fullscreenenter"",""5"",""22375""
","
",101.24000000359956,NA,49,NA,NA,3000,1,NA,NA,images/earth.jpg,images/rocket1,images/rocket2,null,images/rocket2,NA,1,real,null,1,NA,NA,NA,sub28
d3-animate-choice,187,793231,0.0-76.0-1.17,FALSE,FALSE,FALSE,TRUE,"""event"",""trial"",""time""
""fullscreenenter"",""5"",""22375""
","
","
","""event"",""trial"",""time""
""fullscreenenter"",""5"",""22375""
","
",451.8850000022212,NA,48,NA,NA,3000,1,NA,NA,images/redplanet1.jpg,images/alien2,images/alien1,images/rocket2,images/alien2,images/t.png,2,real,true,2,common,1,2020-06-10T23:45:27Z,sub28
two-step-fixation,188,794251,0.0-76.0-2.17,FALSE,FALSE,FALSE,TRUE,"""event"",""trial"",""time""
""fullscreenenter"",""5"",""22375""
","
","
","""event"",""trial"",""time""
""fullscreenenter"",""5"",""22375""
","
",NA,images/earth.jpg,NA,NA,NA,NA,NA,NA,NA,NA,NA,NA,NA,NA,NA,fixation,NA,NA,NA,NA,NA,NA,sub28
d3-animate-choice,189,796648,0.0-76.0-0.18,FALSE,FALSE,FALSE,TRUE,"""event"",""trial"",""time""
""fullscreenenter"",""5"",""22375""
","
","
","""event"",""trial"",""time""
""fullscreenenter"",""5"",""22375""
","
",388.2149999990361,NA,49,NA,NA,3000,1,NA,NA,images/earth.jpg,images/rocket1,images/rocket2,null,images/rocket2,NA,1,real,null,1,NA,NA,NA,sub28
d3-animate-choice,190,799074,0.0-76.0-1.18,FALSE,FALSE,FALSE,TRUE,"""event"",""trial"",""time""
""fullscreenenter"",""5"",""22375""
","
","
","""event"",""trial"",""time""
""fullscreenenter"",""5"",""22375""
","
",414.27000000840053,NA,48,NA,NA,3000,1,NA,NA,images/redplanet1.jpg,images/alien2,images/alien1,images/rocket2,images/alien2,images/nothing.png,2,real,true,2,common,0,2020-06-10T23:45:33Z,sub28
two-step-fixation,191,800082,0.0-76.0-2.18,FALSE,FALSE,FALSE,TRUE,"""event"",""trial"",""time""
""fullscreenenter"",""5"",""22375""
","
","
","""event"",""trial"",""time""
""fullscreenenter"",""5"",""22375""
","
",NA,images/earth.jpg,NA,NA,NA,NA,NA,NA,NA,NA,NA,NA,NA,NA,NA,fixation,NA,NA,NA,NA,NA,NA,sub28
d3-animate-choice,192,802558,0.0-76.0-0.19,FALSE,FALSE,FALSE,TRUE,"""event"",""trial"",""time""
""fullscreenenter"",""5"",""22375""
","
","
","""event"",""trial"",""time""
""fullscreenenter"",""5"",""22375""
","
",464.9700000009034,NA,48,NA,NA,3000,1,NA,NA,images/earth.jpg,images/rocket1,images/rocket2,null,images/rocket1,NA,1,real,null,2,NA,NA,NA,sub28
d3-animate-choice,193,804888,0.0-76.0-1.19,FALSE,FALSE,FALSE,TRUE,"""event"",""trial"",""time""
""fullscreenenter"",""5"",""22375""
","
","
","""event"",""trial"",""time""
""fullscreenenter"",""5"",""22375""
","
",319.5399999967776,NA,48,NA,NA,3000,1,NA,NA,images/purpleplanet.jpg,images/alien4,images/alien3,images/rocket1,images/alien4,images/t.png,2,real,true,2,common,1,2020-06-10T23:45:39Z,sub28
two-step-fixation,194,805894,0.0-76.0-2.19,FALSE,FALSE,FALSE,TRUE,"""event"",""trial"",""time""
""fullscreenenter"",""5"",""22375""
","
","
","""event"",""trial"",""time""
""fullscreenenter"",""5"",""22375""
","
",NA,images/earth.jpg,NA,NA,NA,NA,NA,NA,NA,NA,NA,NA,NA,NA,NA,fixation,NA,NA,NA,NA,NA,NA,sub28
d3-animate-choice,195,808216,0.0-76.0-0.20,FALSE,FALSE,FALSE,TRUE,"""event"",""trial"",""time""
""fullscreenenter"",""5"",""22375""
","
","
","""event"",""trial"",""time""
""fullscreenenter"",""5"",""22375""
","
",315.1700000016717,NA,48,NA,NA,3000,1,NA,NA,images/earth.jpg,images/rocket1,images/rocket2,null,images/rocket1,NA,1,real,null,2,NA,NA,NA,sub28
d3-animate-choice,196,810616,0.0-76.0-1.20,FALSE,FALSE,FALSE,TRUE,"""event"",""trial"",""time""
""fullscreenenter"",""5"",""22375""
","
","
","""event"",""trial"",""time""
""fullscreenenter"",""5"",""22375""
","
",391.1999999982072,NA,49,NA,NA,3000,1,NA,NA,images/redplanet1.jpg,images/alien2,images/alien1,images/rocket1,images/alien1,images/nothing.png,2,real,false,1,rare,0,2020-06-10T23:45:45Z,sub28
two-step-fixation,197,811627,0.0-76.0-2.20,FALSE,FALSE,FALSE,TRUE,"""event"",""trial"",""time""
""fullscreenenter"",""5"",""22375""
","
","
","""event"",""trial"",""time""
""fullscreenenter"",""5"",""22375""
","
",NA,images/earth.jpg,NA,NA,NA,NA,NA,NA,NA,NA,NA,NA,NA,NA,NA,fixation,NA,NA,NA,NA,NA,NA,sub28
d3-animate-choice,198,813925,0.0-76.0-0.21,FALSE,FALSE,FALSE,TRUE,"""event"",""trial"",""time""
""fullscreenenter"",""5"",""22375""
","
","
","""event"",""trial"",""time""
""fullscreenenter"",""5"",""22375""
","
",287.7250000019558,NA,49,NA,NA,3000,1,NA,NA,images/earth.jpg,images/rocket1,images/rocket2,null,images/rocket2,NA,1,real,null,1,NA,NA,NA,sub28
d3-animate-choice,199,816477,0.0-76.0-1.21,FALSE,FALSE,FALSE,TRUE,"""event"",""trial"",""time""
""fullscreenenter"",""5"",""22375""
","
","
","""event"",""trial"",""time""
""fullscreenenter"",""5"",""22375""
","
",541.5399999910733,NA,48,NA,NA,3000,1,NA,NA,images/redplanet1.jpg,images/alien2,images/alien1,images/rocket2,images/alien2,images/t.png,2,real,true,2,common,1,2020-06-10T23:45:51Z,sub28
two-step-fixation,200,817483,0.0-76.0-2.21,FALSE,FALSE,FALSE,TRUE,"""event"",""trial"",""time""
""fullscreenenter"",""5"",""22375""
","
","
","""event"",""trial"",""time""
""fullscreenenter"",""5"",""22375""
","
",NA,images/earth.jpg,NA,NA,NA,NA,NA,NA,NA,NA,NA,NA,NA,NA,NA,fixation,NA,NA,NA,NA,NA,NA,sub28
d3-animate-choice,201,819787,0.0-76.0-0.22,FALSE,FALSE,FALSE,TRUE,"""event"",""trial"",""time""
""fullscreenenter"",""5"",""22375""
","
","
","""event"",""trial"",""time""
""fullscreenenter"",""5"",""22375""
","
",295.48000000067987,NA,49,NA,NA,3000,1,NA,NA,images/earth.jpg,images/rocket1,images/rocket2,null,images/rocket2,NA,1,real,null,1,NA,NA,NA,sub28
d3-animate-choice,202,822047,0.0-76.0-1.22,FALSE,FALSE,FALSE,TRUE,"""event"",""trial"",""time""
""fullscreenenter"",""5"",""22375""
","
","
","""event"",""trial"",""time""
""fullscreenenter"",""5"",""22375""
","
",252.28499999502674,NA,48,NA,NA,3000,1,1121.6549999953713,49,images/redplanet1.jpg,images/alien2,images/alien1,images/rocket2,images/alien2,images/nothing.png,2,real,true,2,common,0,2020-06-10T23:45:56Z,sub28
two-step-fixation,203,823054,0.0-76.0-2.22,FALSE,FALSE,FALSE,TRUE,"""event"",""trial"",""time""
""fullscreenenter"",""5"",""22375""
","
","
","""event"",""trial"",""time""
""fullscreenenter"",""5"",""22375""
","
",NA,images/earth.jpg,NA,NA,NA,NA,NA,NA,NA,NA,NA,NA,NA,NA,NA,fixation,NA,NA,NA,NA,NA,NA,sub28
d3-animate-choice,204,825585,0.0-76.0-0.23,FALSE,FALSE,FALSE,TRUE,"""event"",""trial"",""time""
""fullscreenenter"",""5"",""22375""
","
","
","""event"",""trial"",""time""
""fullscreenenter"",""5"",""22375""
","
",521.3850000000093,NA,49,NA,NA,3000,1,NA,NA,images/earth.jpg,images/rocket1,images/rocket2,null,images/rocket2,NA,1,real,null,1,NA,NA,NA,sub28
d3-animate-choice,205,828099,0.0-76.0-1.23,FALSE,FALSE,FALSE,TRUE,"""event"",""trial"",""time""
""fullscreenenter"",""5"",""22375""
","
","
","""event"",""trial"",""time""
""fullscreenenter"",""5"",""22375""
","
",504.72500000614673,NA,48,NA,NA,3000,1,NA,NA,images/redplanet1.jpg,images/alien2,images/alien1,images/rocket2,images/alien2,images/nothing.png,2,real,true,2,common,0,2020-06-10T23:46:02Z,sub28
two-step-fixation,206,829106,0.0-76.0-2.23,FALSE,FALSE,FALSE,TRUE,"""event"",""trial"",""time""
""fullscreenenter"",""5"",""22375""
","
","
","""event"",""trial"",""time""
""fullscreenenter"",""5"",""22375""
","
",NA,images/earth.jpg,NA,NA,NA,NA,NA,NA,NA,NA,NA,NA,NA,NA,NA,fixation,NA,NA,NA,NA,NA,NA,sub28
d3-animate-choice,207,831637,0.0-76.0-0.24,FALSE,FALSE,FALSE,TRUE,"""event"",""trial"",""time""
""fullscreenenter"",""5"",""22375""
","
","
","""event"",""trial"",""time""
""fullscreenenter"",""5"",""22375""
","
",406.18999999423977,NA,48,NA,NA,3000,1,NA,NA,images/earth.jpg,images/rocket1,images/rocket2,null,images/rocket1,NA,1,real,null,2,NA,NA,NA,sub28
d3-animate-choice,208,834017,0.0-76.0-1.24,FALSE,FALSE,FALSE,TRUE,"""event"",""trial"",""time""
""fullscreenenter"",""5"",""22375""
","
","
","""event"",""trial"",""time""
""fullscreenenter"",""5"",""22375""
","
",373.9849999983562,NA,49,NA,NA,3000,1,NA,NA,images/redplanet1.jpg,images/alien2,images/alien1,images/rocket1,images/alien1,images/t.png,2,real,false,1,rare,1,2020-06-10T23:46:08Z,sub28
two-step-fixation,209,835023,0.0-76.0-2.24,FALSE,FALSE,FALSE,TRUE,"""event"",""trial"",""time""
""fullscreenenter"",""5"",""22375""
","
","
","""event"",""trial"",""time""
""fullscreenenter"",""5"",""22375""
","
",NA,images/earth.jpg,NA,NA,NA,NA,NA,NA,NA,NA,NA,NA,NA,NA,NA,fixation,NA,NA,NA,NA,NA,NA,sub28
d3-animate-choice,210,837410,0.0-76.0-0.25,FALSE,FALSE,FALSE,TRUE,"""event"",""trial"",""time""
""fullscreenenter"",""5"",""22375""
","
","
","""event"",""trial"",""time""
""fullscreenenter"",""5"",""22375""
","
",376.62499998987187,NA,49,NA,NA,3000,1,NA,NA,images/earth.jpg,images/rocket1,images/rocket2,null,images/rocket2,NA,1,real,null,1,NA,NA,NA,sub28
d3-animate-choice,211,839743,0.0-76.0-1.25,FALSE,FALSE,FALSE,TRUE,"""event"",""trial"",""time""
""fullscreenenter"",""5"",""22375""
","
","
","""event"",""trial"",""time""
""fullscreenenter"",""5"",""22375""
","
",319.1849999857368,NA,48,NA,NA,3000,1,NA,NA,images/redplanet1.jpg,images/alien2,images/alien1,images/rocket2,images/alien2,images/nothing.png,2,real,true,2,common,0,2020-06-10T23:46:14Z,sub28
two-step-fixation,212,840752,0.0-76.0-2.25,FALSE,FALSE,FALSE,TRUE,"""event"",""trial"",""time""
""fullscreenenter"",""5"",""22375""
","
","
","""event"",""trial"",""time""
""fullscreenenter"",""5"",""22375""
","
",NA,images/earth.jpg,NA,NA,NA,NA,NA,NA,NA,NA,NA,NA,NA,NA,NA,fixation,NA,NA,NA,NA,NA,NA,sub28
d3-animate-choice,213,843077,0.0-76.0-0.26,FALSE,FALSE,FALSE,TRUE,"""event"",""trial"",""time""
""fullscreenenter"",""5"",""22375""
","
","
","""event"",""trial"",""time""
""fullscreenenter"",""5"",""22375""
","
",319.26999999268446,NA,48,NA,NA,3000,1,NA,NA,images/earth.jpg,images/rocket1,images/rocket2,null,images/rocket1,NA,1,real,null,2,NA,NA,NA,sub28
d3-animate-choice,214,845509,0.0-76.0-1.26,FALSE,FALSE,FALSE,TRUE,"""event"",""trial"",""time""
""fullscreenenter"",""5"",""22375""
","
","
","""event"",""trial"",""time""
""fullscreenenter"",""5"",""22375""
","
",419.2699999985052,NA,49,NA,NA,3000,1,NA,NA,images/purpleplanet.jpg,images/alien4,images/alien3,images/rocket1,images/alien3,images/nothing.png,2,real,true,1,common,0,2020-06-10T23:46:20Z,sub28
two-step-fixation,215,846519,0.0-76.0-2.26,FALSE,FALSE,FALSE,TRUE,"""event"",""trial"",""time""
""fullscreenenter"",""5"",""22375""
","
","
","""event"",""trial"",""time""
""fullscreenenter"",""5"",""22375""
","
",NA,images/earth.jpg,NA,NA,NA,NA,NA,NA,NA,NA,NA,NA,NA,NA,NA,fixation,NA,NA,NA,NA,NA,NA,sub28
d3-animate-choice,216,848888,0.0-76.0-0.27,FALSE,FALSE,FALSE,TRUE,"""event"",""trial"",""time""
""fullscreenenter"",""5"",""22375""
","
","
","""event"",""trial"",""time""
""fullscreenenter"",""5"",""22375""
","
",359.15999999269843,NA,49,NA,NA,3000,1,NA,NA,images/earth.jpg,images/rocket1,images/rocket2,null,images/rocket2,NA,1,real,null,1,NA,NA,NA,sub28
d3-animate-choice,217,851432,0.0-76.0-1.27,FALSE,FALSE,FALSE,TRUE,"""event"",""trial"",""time""
""fullscreenenter"",""5"",""22375""
","
","
","""event"",""trial"",""time""
""fullscreenenter"",""5"",""22375""
","
",531.8549999938114,NA,48,NA,NA,3000,1,NA,NA,images/purpleplanet.jpg,images/alien4,images/alien3,images/rocket2,images/alien4,images/nothing.png,2,real,false,2,rare,0,2020-06-10T23:46:26Z,sub28
two-step-fixation,218,852440,0.0-76.0-2.27,FALSE,FALSE,FALSE,TRUE,"""event"",""trial"",""time""
""fullscreenenter"",""5"",""22375""
","
","
","""event"",""trial"",""time""
""fullscreenenter"",""5"",""22375""
","
",NA,images/earth.jpg,NA,NA,NA,NA,NA,NA,NA,NA,NA,NA,NA,NA,NA,fixation,NA,NA,NA,NA,NA,NA,sub28
d3-animate-choice,219,854831,0.0-76.0-0.28,FALSE,FALSE,FALSE,TRUE,"""event"",""trial"",""time""
""fullscreenenter"",""5"",""22375""
","
","
","""event"",""trial"",""time""
""fullscreenenter"",""5"",""22375""
","
",378.08500000392087,NA,48,NA,NA,3000,1,NA,NA,images/earth.jpg,images/rocket1,images/rocket2,null,images/rocket1,NA,1,real,null,2,NA,NA,NA,sub28
d3-animate-choice,220,857298,0.0-76.0-1.28,FALSE,FALSE,FALSE,TRUE,"""event"",""trial"",""time""
""fullscreenenter"",""5"",""22375""
","
","
","""event"",""trial"",""time""
""fullscreenenter"",""5"",""22375""
","
",458.7350000074366,NA,48,NA,NA,3000,1,NA,NA,images/redplanet1.jpg,images/alien2,images/alien1,images/rocket1,images/alien2,images/t.png,2,real,false,2,rare,1,2020-06-10T23:46:31Z,sub28
two-step-fixation,221,858308,0.0-76.0-2.28,FALSE,FALSE,FALSE,TRUE,"""event"",""trial"",""time""
""fullscreenenter"",""5"",""22375""
","
","
","""event"",""trial"",""time""
""fullscreenenter"",""5"",""22375""
","
",NA,images/earth.jpg,NA,NA,NA,NA,NA,NA,NA,NA,NA,NA,NA,NA,NA,fixation,NA,NA,NA,NA,NA,NA,sub28
d3-animate-choice,222,860739,0.0-76.0-0.29,FALSE,FALSE,FALSE,TRUE,"""event"",""trial"",""time""
""fullscreenenter"",""5"",""22375""
","
","
","""event"",""trial"",""time""
""fullscreenenter"",""5"",""22375""
","
",421.1000000068452,NA,48,NA,NA,3000,1,NA,NA,images/earth.jpg,images/rocket1,images/rocket2,null,images/rocket1,NA,1,real,null,2,NA,NA,NA,sub28
d3-animate-choice,223,863210,0.0-76.0-1.29,FALSE,FALSE,FALSE,TRUE,"""event"",""trial"",""time""
""fullscreenenter"",""5"",""22375""
","
","
","""event"",""trial"",""time""
""fullscreenenter"",""5"",""22375""
","
",465.4200000077253,NA,48,NA,NA,3000,1,NA,NA,images/redplanet1.jpg,images/alien2,images/alien1,images/rocket1,images/alien2,images/t.png,2,real,false,2,rare,1,2020-06-10T23:46:37Z,sub28
two-step-fixation,224,864218,0.0-76.0-2.29,FALSE,FALSE,FALSE,TRUE,"""event"",""trial"",""time""
""fullscreenenter"",""5"",""22375""
","
","
","""event"",""trial"",""time""
""fullscreenenter"",""5"",""22375""
","
",NA,images/earth.jpg,NA,NA,NA,NA,NA,NA,NA,NA,NA,NA,NA,NA,NA,fixation,NA,NA,NA,NA,NA,NA,sub28
d3-animate-choice,225,867171,0.0-76.0-0.30,FALSE,FALSE,FALSE,TRUE,"""event"",""trial"",""time""
""fullscreenenter"",""5"",""22375""
","
","
","""event"",""trial"",""time""
""fullscreenenter"",""5"",""22375""
","
",944.0400000021327,NA,48,NA,NA,3000,1,1784.010000003036,49,images/earth.jpg,images/rocket1,images/rocket2,null,images/rocket1,NA,1,real,null,2,NA,NA,NA,sub28
d3-animate-choice,226,869569,0.0-76.0-1.30,FALSE,FALSE,FALSE,TRUE,"""event"",""trial"",""time""
""fullscreenenter"",""5"",""22375""
","
","
","""event"",""trial"",""time""
""fullscreenenter"",""5"",""22375""
","
",390.46500000404194,NA,48,NA,NA,3000,1,NA,NA,images/purpleplanet.jpg,images/alien4,images/alien3,images/rocket1,images/alien4,images/t.png,2,real,true,2,common,1,2020-06-10T23:46:44Z,sub28
two-step-fixation,227,870577,0.0-76.0-2.30,FALSE,FALSE,FALSE,TRUE,"""event"",""trial"",""time""
""fullscreenenter"",""5"",""22375""
","
","
","""event"",""trial"",""time""
""fullscreenenter"",""5"",""22375""
","
",NA,images/earth.jpg,NA,NA,NA,NA,NA,NA,NA,NA,NA,NA,NA,NA,NA,fixation,NA,NA,NA,NA,NA,NA,sub28
d3-animate-choice,228,872849,0.0-76.0-0.31,FALSE,FALSE,FALSE,TRUE,"""event"",""trial"",""time""
""fullscreenenter"",""5"",""22375""
","
","
","""event"",""trial"",""time""
""fullscreenenter"",""5"",""22375""
","
",266.0699999978533,NA,49,NA,NA,3000,1,NA,NA,images/earth.jpg,images/rocket1,images/rocket2,null,images/rocket2,NA,1,real,null,1,NA,NA,NA,sub28
d3-animate-choice,229,875242,0.0-76.0-1.31,FALSE,FALSE,FALSE,TRUE,"""event"",""trial"",""time""
""fullscreenenter"",""5"",""22375""
","
","
","""event"",""trial"",""time""
""fullscreenenter"",""5"",""22375""
","
",382.8300000022864,NA,48,NA,NA,3000,1,NA,NA,images/redplanet1.jpg,images/alien2,images/alien1,images/rocket2,images/alien2,images/nothing.png,2,real,true,2,common,0,2020-06-10T23:46:49Z,sub28
two-step-fixation,230,876250,0.0-76.0-2.31,FALSE,FALSE,FALSE,TRUE,"""event"",""trial"",""time""
""fullscreenenter"",""5"",""22375""
","
","
","""event"",""trial"",""time""
""fullscreenenter"",""5"",""22375""
","
",NA,images/earth.jpg,NA,NA,NA,NA,NA,NA,NA,NA,NA,NA,NA,NA,NA,fixation,NA,NA,NA,NA,NA,NA,sub28
d3-animate-choice,231,879029,0.0-76.0-0.32,FALSE,FALSE,FALSE,TRUE,"""event"",""trial"",""time""
""fullscreenenter"",""5"",""22375""
","
","
","""event"",""trial"",""time""
""fullscreenenter"",""5"",""22375""
","
",773.7799999886192,NA,49,NA,NA,3000,1,NA,NA,images/earth.jpg,images/rocket1,images/rocket2,null,images/rocket2,NA,1,real,null,1,NA,NA,NA,sub28
d3-animate-choice,232,881609,0.0-76.0-1.32,FALSE,FALSE,FALSE,TRUE,"""event"",""trial"",""time""
""fullscreenenter"",""5"",""22375""
","
","
","""event"",""trial"",""time""
""fullscreenenter"",""5"",""22375""
","
",574.2599999939557,NA,48,NA,NA,3000,1,NA,NA,images/redplanet1.jpg,images/alien2,images/alien1,images/rocket2,images/alien2,images/nothing.png,2,real,true,2,common,0,2020-06-10T23:46:56Z,sub28
two-step-fixation,233,882620,0.0-76.0-2.32,FALSE,FALSE,FALSE,TRUE,"""event"",""trial"",""time""
""fullscreenenter"",""5"",""22375""
","
","
","""event"",""trial"",""time""
""fullscreenenter"",""5"",""22375""
","
",NA,images/earth.jpg,NA,NA,NA,NA,NA,NA,NA,NA,NA,NA,NA,NA,NA,fixation,NA,NA,NA,NA,NA,NA,sub28
d3-animate-choice,234,885211,0.0-76.0-0.33,FALSE,FALSE,FALSE,TRUE,"""event"",""trial"",""time""
""fullscreenenter"",""5"",""22375""
","
","
","""event"",""trial"",""time""
""fullscreenenter"",""5"",""22375""
","
",578.4050000074785,NA,48,NA,NA,3000,1,NA,NA,images/earth.jpg,images/rocket1,images/rocket2,null,images/rocket1,NA,1,real,null,2,NA,NA,NA,sub28
d3-animate-choice,235,888040,0.0-76.0-1.33,FALSE,FALSE,FALSE,TRUE,"""event"",""trial"",""time""
""fullscreenenter"",""5"",""22375""
","
","
","""event"",""trial"",""time""
""fullscreenenter"",""5"",""22375""
","
",823.2950000092387,NA,49,NA,NA,3000,1,NA,NA,images/purpleplanet.jpg,images/alien4,images/alien3,images/rocket1,images/alien3,images/nothing.png,2,real,true,1,common,0,2020-06-10T23:47:02Z,sub28
two-step-fixation,236,889046,0.0-76.0-2.33,FALSE,FALSE,FALSE,TRUE,"""event"",""trial"",""time""
""fullscreenenter"",""5"",""22375""
","
","
","""event"",""trial"",""time""
""fullscreenenter"",""5"",""22375""
","
",NA,images/earth.jpg,NA,NA,NA,NA,NA,NA,NA,NA,NA,NA,NA,NA,NA,fixation,NA,NA,NA,NA,NA,NA,sub28
d3-animate-choice,237,891441,0.0-76.0-0.34,FALSE,FALSE,FALSE,TRUE,"""event"",""trial"",""time""
""fullscreenenter"",""5"",""22375""
","
","
","""event"",""trial"",""time""
""fullscreenenter"",""5"",""22375""
","
",362.185000005411,NA,48,NA,NA,3000,1,NA,NA,images/earth.jpg,images/rocket1,images/rocket2,null,images/rocket1,NA,1,real,null,2,NA,NA,NA,sub28
d3-animate-choice,238,894322,0.0-76.0-1.34,FALSE,FALSE,FALSE,TRUE,"""event"",""trial"",""time""
""fullscreenenter"",""5"",""22375""
","
","
","""event"",""trial"",""time""
""fullscreenenter"",""5"",""22375""
","
",873.5199999937322,NA,49,NA,NA,3000,1,NA,NA,images/purpleplanet.jpg,images/alien4,images/alien3,images/rocket1,images/alien3,images/nothing.png,2,real,true,1,common,0,2020-06-10T23:47:08Z,sub28
two-step-fixation,239,895331,0.0-76.0-2.34,FALSE,FALSE,FALSE,TRUE,"""event"",""trial"",""time""
""fullscreenenter"",""5"",""22375""
","
","
","""event"",""trial"",""time""
""fullscreenenter"",""5"",""22375""
","
",NA,images/earth.jpg,NA,NA,NA,NA,NA,NA,NA,NA,NA,NA,NA,NA,NA,fixation,NA,NA,NA,NA,NA,NA,sub28
d3-animate-choice,240,898062,0.0-76.0-0.35,FALSE,FALSE,FALSE,TRUE,"""event"",""trial"",""time""
""fullscreenenter"",""5"",""22375""
","
","
","""event"",""trial"",""time""
""fullscreenenter"",""5"",""22375""
","
",725.5099999892991,NA,49,NA,NA,3000,1,NA,NA,images/earth.jpg,images/rocket1,images/rocket2,null,images/rocket2,NA,1,real,null,1,NA,NA,NA,sub28
d3-animate-choice,241,900624,0.0-76.0-1.35,FALSE,FALSE,FALSE,TRUE,"""event"",""trial"",""time""
""fullscreenenter"",""5"",""22375""
","
","
","""event"",""trial"",""time""
""fullscreenenter"",""5"",""22375""
","
",551.8500000034692,NA,48,NA,NA,3000,1,NA,NA,images/redplanet1.jpg,images/alien2,images/alien1,images/rocket2,images/alien2,images/t.png,2,real,true,2,common,1,2020-06-10T23:47:15Z,sub28
two-step-fixation,242,901633,0.0-76.0-2.35,FALSE,FALSE,FALSE,TRUE,"""event"",""trial"",""time""
""fullscreenenter"",""5"",""22375""
","
","
","""event"",""trial"",""time""
""fullscreenenter"",""5"",""22375""
","
",NA,images/earth.jpg,NA,NA,NA,NA,NA,NA,NA,NA,NA,NA,NA,NA,NA,fixation,NA,NA,NA,NA,NA,NA,sub28
d3-animate-choice,243,904023,0.0-76.0-0.36,FALSE,FALSE,FALSE,TRUE,"""event"",""trial"",""time""
""fullscreenenter"",""5"",""22375""
","
","
","""event"",""trial"",""time""
""fullscreenenter"",""5"",""22375""
","
",381.215000001248,NA,49,NA,NA,3000,1,NA,NA,images/earth.jpg,images/rocket1,images/rocket2,null,images/rocket2,NA,1,real,null,1,NA,NA,NA,sub28
d3-animate-choice,244,906455,0.0-76.0-1.36,FALSE,FALSE,FALSE,TRUE,"""event"",""trial"",""time""
""fullscreenenter"",""5"",""22375""
","
","
","""event"",""trial"",""time""
""fullscreenenter"",""5"",""22375""
","
",427.03000000619795,NA,48,NA,NA,3000,1,NA,NA,images/redplanet1.jpg,images/alien2,images/alien1,images/rocket2,images/alien2,images/nothing.png,2,real,true,2,common,0,2020-06-10T23:47:21Z,sub28
two-step-fixation,245,907460,0.0-76.0-2.36,FALSE,FALSE,FALSE,TRUE,"""event"",""trial"",""time""
""fullscreenenter"",""5"",""22375""
","
","
","""event"",""trial"",""time""
""fullscreenenter"",""5"",""22375""
","
",NA,images/earth.jpg,NA,NA,NA,NA,NA,NA,NA,NA,NA,NA,NA,NA,NA,fixation,NA,NA,NA,NA,NA,NA,sub28
d3-animate-choice,246,910006,0.0-76.0-0.37,FALSE,FALSE,FALSE,TRUE,"""event"",""trial"",""time""
""fullscreenenter"",""5"",""22375""
","
","
","""event"",""trial"",""time""
""fullscreenenter"",""5"",""22375""
","
",534.0900000010151,NA,48,NA,NA,3000,1,NA,NA,images/earth.jpg,images/rocket1,images/rocket2,null,images/rocket1,NA,1,real,null,2,NA,NA,NA,sub28
d3-animate-choice,247,912505,0.0-76.0-1.37,FALSE,FALSE,FALSE,TRUE,"""event"",""trial"",""time""
""fullscreenenter"",""5"",""22375""
","
","
","""event"",""trial"",""time""
""fullscreenenter"",""5"",""22375""
","
",490.1199999876553,NA,48,NA,NA,3000,1,NA,NA,images/purpleplanet.jpg,images/alien4,images/alien3,images/rocket1,images/alien4,images/t.png,2,real,true,2,common,1,2020-06-10T23:47:27Z,sub28
two-step-fixation,248,913512,0.0-76.0-2.37,FALSE,FALSE,FALSE,TRUE,"""event"",""trial"",""time""
""fullscreenenter"",""5"",""22375""
","
","
","""event"",""trial"",""time""
""fullscreenenter"",""5"",""22375""
","
",NA,images/earth.jpg,NA,NA,NA,NA,NA,NA,NA,NA,NA,NA,NA,NA,NA,fixation,NA,NA,NA,NA,NA,NA,sub28
d3-animate-choice,249,915923,0.0-76.0-0.38,FALSE,FALSE,FALSE,TRUE,"""event"",""trial"",""time""
""fullscreenenter"",""5"",""22375""
","
","
","""event"",""trial"",""time""
""fullscreenenter"",""5"",""22375""
","
",402.13000000221655,NA,48,NA,NA,3000,1,NA,NA,images/earth.jpg,images/rocket1,images/rocket2,null,images/rocket1,NA,1,real,null,2,NA,NA,NA,sub28
d3-animate-choice,250,918302,0.0-76.0-1.38,FALSE,FALSE,FALSE,TRUE,"""event"",""trial"",""time""
""fullscreenenter"",""5"",""22375""
","
","
","""event"",""trial"",""time""
""fullscreenenter"",""5"",""22375""
","
",368.0000000022119,NA,48,NA,NA,3000,1,NA,NA,images/redplanet1.jpg,images/alien2,images/alien1,images/rocket1,images/alien2,images/t.png,2,real,false,2,rare,1,2020-06-10T23:47:32Z,sub28
two-step-fixation,251,919311,0.0-76.0-2.38,FALSE,FALSE,FALSE,TRUE,"""event"",""trial"",""time""
""fullscreenenter"",""5"",""22375""
","
","
","""event"",""trial"",""time""
""fullscreenenter"",""5"",""22375""
","
",NA,images/earth.jpg,NA,NA,NA,NA,NA,NA,NA,NA,NA,NA,NA,NA,NA,fixation,NA,NA,NA,NA,NA,NA,sub28
d3-animate-choice,252,921704,0.0-76.0-0.39,FALSE,FALSE,FALSE,TRUE,"""event"",""trial"",""time""
""fullscreenenter"",""5"",""22375""
","
","
","""event"",""trial"",""time""
""fullscreenenter"",""5"",""22375""
","
",385.93499999842606,NA,49,NA,NA,3000,1,NA,NA,images/earth.jpg,images/rocket1,images/rocket2,null,images/rocket2,NA,1,real,null,1,NA,NA,NA,sub28
d3-animate-choice,253,924061,0.0-76.0-1.39,FALSE,FALSE,FALSE,TRUE,"""event"",""trial"",""time""
""fullscreenenter"",""5"",""22375""
","
","
","""event"",""trial"",""time""
""fullscreenenter"",""5"",""22375""
","
",352.1199999959208,NA,48,NA,NA,3000,1,NA,NA,images/redplanet1.jpg,images/alien2,images/alien1,images/rocket2,images/alien2,images/t.png,2,real,true,2,common,1,2020-06-10T23:47:38Z,sub28
two-step-fixation,254,925070,0.0-76.0-2.39,FALSE,FALSE,FALSE,TRUE,"""event"",""trial"",""time""
""fullscreenenter"",""5"",""22375""
","
","
","""event"",""trial"",""time""
""fullscreenenter"",""5"",""22375""
","
",NA,images/earth.jpg,NA,NA,NA,NA,NA,NA,NA,NA,NA,NA,NA,NA,NA,fixation,NA,NA,NA,NA,NA,NA,sub28
d3-animate-choice,255,927721,0.0-76.0-0.40,FALSE,FALSE,FALSE,TRUE,"""event"",""trial"",""time""
""fullscreenenter"",""5"",""22375""
","
","
","""event"",""trial"",""time""
""fullscreenenter"",""5"",""22375""
","
",644.0699999948265,NA,49,NA,NA,3000,1,NA,NA,images/earth.jpg,images/rocket1,images/rocket2,null,images/rocket2,NA,1,real,null,1,NA,NA,NA,sub28
d3-animate-choice,256,930093,0.0-76.0-1.40,FALSE,FALSE,FALSE,TRUE,"""event"",""trial"",""time""
""fullscreenenter"",""5"",""22375""
","
","
","""event"",""trial"",""time""
""fullscreenenter"",""5"",""22375""
","
",363.8500000088243,NA,48,NA,NA,3000,1,NA,NA,images/redplanet1.jpg,images/alien2,images/alien1,images/rocket2,images/alien2,images/nothing.png,2,real,true,2,common,0,2020-06-10T23:47:44Z,sub28
two-step-fixation,257,931105,0.0-76.0-2.40,FALSE,FALSE,FALSE,TRUE,"""event"",""trial"",""time""
""fullscreenenter"",""5"",""22375""
","
","
","""event"",""trial"",""time""
""fullscreenenter"",""5"",""22375""
","
",NA,images/earth.jpg,NA,NA,NA,NA,NA,NA,NA,NA,NA,NA,NA,NA,NA,fixation,NA,NA,NA,NA,NA,NA,sub28
d3-animate-choice,258,933423,0.0-76.0-0.41,FALSE,FALSE,FALSE,TRUE,"""event"",""trial"",""time""
""fullscreenenter"",""5"",""22375""
","
","
","""event"",""trial"",""time""
""fullscreenenter"",""5"",""22375""
","
",306.5950000018347,NA,48,NA,NA,3000,1,NA,NA,images/earth.jpg,images/rocket1,images/rocket2,null,images/rocket1,NA,1,real,null,2,NA,NA,NA,sub28
d3-animate-choice,259,935765,0.0-76.0-1.41,FALSE,FALSE,FALSE,TRUE,"""event"",""trial"",""time""
""fullscreenenter"",""5"",""22375""
","
","
","""event"",""trial"",""time""
""fullscreenenter"",""5"",""22375""
","
",336.31999998760875,NA,48,NA,NA,3000,1,NA,NA,images/purpleplanet.jpg,images/alien4,images/alien3,images/rocket1,images/alien4,images/t.png,2,real,true,2,common,1,2020-06-10T23:47:50Z,sub28
two-step-fixation,260,936769,0.0-76.0-2.41,FALSE,FALSE,FALSE,TRUE,"""event"",""trial"",""time""
""fullscreenenter"",""5"",""22375""
","
","
","""event"",""trial"",""time""
""fullscreenenter"",""5"",""22375""
","
",NA,images/earth.jpg,NA,NA,NA,NA,NA,NA,NA,NA,NA,NA,NA,NA,NA,fixation,NA,NA,NA,NA,NA,NA,sub28
d3-animate-choice,261,938811,0.0-76.0-0.42,FALSE,FALSE,FALSE,TRUE,"""event"",""trial"",""time""
""fullscreenenter"",""5"",""22375""
","
","
","""event"",""trial"",""time""
""fullscreenenter"",""5"",""22375""
","
",33.49499999603722,NA,49,NA,NA,3000,1,NA,NA,images/earth.jpg,images/rocket1,images/rocket2,null,images/rocket2,NA,1,real,null,1,NA,NA,NA,sub28
d3-animate-choice,262,941033,0.0-76.0-1.42,FALSE,FALSE,FALSE,TRUE,"""event"",""trial"",""time""
""fullscreenenter"",""5"",""22375""
","
","
","""event"",""trial"",""time""
""fullscreenenter"",""5"",""22375""
","
",216.7500000068685,NA,48,NA,NA,3000,1,NA,NA,images/purpleplanet.jpg,images/alien4,images/alien3,images/rocket2,images/alien4,images/nothing.png,2,real,false,2,rare,0,2020-06-10T23:47:55Z,sub28
two-step-fixation,263,942038,0.0-76.0-2.42,FALSE,FALSE,FALSE,TRUE,"""event"",""trial"",""time""
""fullscreenenter"",""5"",""22375""
","
","
","""event"",""trial"",""time""
""fullscreenenter"",""5"",""22375""
","
",NA,images/earth.jpg,NA,NA,NA,NA,NA,NA,NA,NA,NA,NA,NA,NA,NA,fixation,NA,NA,NA,NA,NA,NA,sub28
d3-animate-choice,264,944112,0.0-76.0-0.43,FALSE,FALSE,FALSE,TRUE,"""event"",""trial"",""time""
""fullscreenenter"",""5"",""22375""
","
","
","""event"",""trial"",""time""
""fullscreenenter"",""5"",""22375""
","
",65.37000001117121,NA,48,NA,NA,3000,1,NA,NA,images/earth.jpg,images/rocket1,images/rocket2,null,images/rocket1,NA,1,real,null,2,NA,NA,NA,sub28
d3-animate-choice,265,946466,0.0-76.0-1.43,FALSE,FALSE,FALSE,TRUE,"""event"",""trial"",""time""
""fullscreenenter"",""5"",""22375""
","
","
","""event"",""trial"",""time""
""fullscreenenter"",""5"",""22375""
","
",344.3249999982072,NA,49,NA,NA,3000,1,NA,NA,images/purpleplanet.jpg,images/alien4,images/alien3,images/rocket1,images/alien3,images/t.png,2,real,true,1,common,1,2020-06-10T23:48:01Z,sub28
two-step-fixation,266,947475,0.0-76.0-2.43,FALSE,FALSE,FALSE,TRUE,"""event"",""trial"",""time""
""fullscreenenter"",""5"",""22375""
","
","
","""event"",""trial"",""time""
""fullscreenenter"",""5"",""22375""
","
",NA,images/earth.jpg,NA,NA,NA,NA,NA,NA,NA,NA,NA,NA,NA,NA,NA,fixation,NA,NA,NA,NA,NA,NA,sub28
d3-animate-choice,267,949774,0.0-76.0-0.44,FALSE,FALSE,FALSE,TRUE,"""event"",""trial"",""time""
""fullscreenenter"",""5"",""22375""
","
","
","""event"",""trial"",""time""
""fullscreenenter"",""5"",""22375""
","
",290.5249999894295,NA,48,NA,NA,3000,1,NA,NA,images/earth.jpg,images/rocket1,images/rocket2,null,images/rocket1,NA,1,real,null,2,NA,NA,NA,sub28
d3-animate-choice,268,952211,0.0-76.0-1.44,FALSE,FALSE,FALSE,TRUE,"""event"",""trial"",""time""
""fullscreenenter"",""5"",""22375""
","
","
","""event"",""trial"",""time""
""fullscreenenter"",""5"",""22375""
","
",422.10499999055173,NA,48,NA,NA,3000,1,NA,NA,images/purpleplanet.jpg,images/alien4,images/alien3,images/rocket1,images/alien4,images/t.png,2,real,true,2,common,1,2020-06-10T23:48:06Z,sub28
two-step-fixation,269,953222,0.0-76.0-2.44,FALSE,FALSE,FALSE,TRUE,"""event"",""trial"",""time""
""fullscreenenter"",""5"",""22375""
","
","
","""event"",""trial"",""time""
""fullscreenenter"",""5"",""22375""
","
",NA,images/earth.jpg,NA,NA,NA,NA,NA,NA,NA,NA,NA,NA,NA,NA,NA,fixation,NA,NA,NA,NA,NA,NA,sub28
d3-animate-choice,270,955645,0.0-76.0-0.45,FALSE,FALSE,FALSE,TRUE,"""event"",""trial"",""time""
""fullscreenenter"",""5"",""22375""
","
","
","""event"",""trial"",""time""
""fullscreenenter"",""5"",""22375""
","
",411.4899999985937,NA,49,NA,NA,3000,1,NA,NA,images/earth.jpg,images/rocket1,images/rocket2,null,images/rocket2,NA,1,real,null,1,NA,NA,NA,sub28
d3-animate-choice,271,958011,0.0-76.0-1.45,FALSE,FALSE,FALSE,TRUE,"""event"",""trial"",""time""
""fullscreenenter"",""5"",""22375""
","
","
","""event"",""trial"",""time""
""fullscreenenter"",""5"",""22375""
","
",357.1899999951711,NA,49,NA,NA,3000,1,NA,NA,images/purpleplanet.jpg,images/alien4,images/alien3,images/rocket2,images/alien3,images/nothing.png,2,real,false,1,rare,0,2020-06-10T23:48:12Z,sub28
two-step-fixation,272,959019,0.0-76.0-2.45,FALSE,FALSE,FALSE,TRUE,"""event"",""trial"",""time""
""fullscreenenter"",""5"",""22375""
","
","
","""event"",""trial"",""time""
""fullscreenenter"",""5"",""22375""
","
",NA,images/earth.jpg,NA,NA,NA,NA,NA,NA,NA,NA,NA,NA,NA,NA,NA,fixation,NA,NA,NA,NA,NA,NA,sub28
d3-animate-choice,273,961323,0.0-76.0-0.46,FALSE,FALSE,FALSE,TRUE,"""event"",""trial"",""time""
""fullscreenenter"",""5"",""22375""
","
","
","""event"",""trial"",""time""
""fullscreenenter"",""5"",""22375""
","
",295.71500000020023,NA,48,NA,NA,3000,1,NA,NA,images/earth.jpg,images/rocket1,images/rocket2,null,images/rocket1,NA,1,real,null,2,NA,NA,NA,sub28
d3-animate-choice,274,963704,0.0-76.0-1.46,FALSE,FALSE,FALSE,TRUE,"""event"",""trial"",""time""
""fullscreenenter"",""5"",""22375""
","
","
","""event"",""trial"",""time""
""fullscreenenter"",""5"",""22375""
","
",371.2399999931222,NA,48,NA,NA,3000,1,NA,NA,images/redplanet1.jpg,images/alien2,images/alien1,images/rocket1,images/alien2,images/nothing.png,2,real,false,2,rare,0,2020-06-10T23:48:18Z,sub28
two-step-fixation,275,964710,0.0-76.0-2.46,FALSE,FALSE,FALSE,TRUE,"""event"",""trial"",""time""
""fullscreenenter"",""5"",""22375""
","
","
","""event"",""trial"",""time""
""fullscreenenter"",""5"",""22375""
","
",NA,images/earth.jpg,NA,NA,NA,NA,NA,NA,NA,NA,NA,NA,NA,NA,NA,fixation,NA,NA,NA,NA,NA,NA,sub28
d3-animate-choice,276,966863,0.0-76.0-0.47,FALSE,FALSE,FALSE,TRUE,"""event"",""trial"",""time""
""fullscreenenter"",""5"",""22375""
","
","
","""event"",""trial"",""time""
""fullscreenenter"",""5"",""22375""
","
",144.05999999144115,NA,49,NA,NA,3000,1,NA,NA,images/earth.jpg,images/rocket1,images/rocket2,null,images/rocket2,NA,1,real,null,1,NA,NA,NA,sub28
d3-animate-choice,277,969184,0.0-76.0-1.47,FALSE,FALSE,FALSE,TRUE,"""event"",""trial"",""time""
""fullscreenenter"",""5"",""22375""
","
","
","""event"",""trial"",""time""
""fullscreenenter"",""5"",""22375""
","
",311.99499999638647,NA,48,NA,NA,3000,1,NA,NA,images/redplanet1.jpg,images/alien2,images/alien1,images/rocket2,images/alien2,images/t.png,2,real,true,2,common,1,2020-06-10T23:48:23Z,sub28
two-step-fixation,278,970194,0.0-76.0-2.47,FALSE,FALSE,FALSE,TRUE,"""event"",""trial"",""time""
""fullscreenenter"",""5"",""22375""
","
","
","""event"",""trial"",""time""
""fullscreenenter"",""5"",""22375""
","
",NA,images/earth.jpg,NA,NA,NA,NA,NA,NA,NA,NA,NA,NA,NA,NA,NA,fixation,NA,NA,NA,NA,NA,NA,sub28
d3-animate-choice,279,972594,0.0-76.0-0.48,FALSE,FALSE,FALSE,TRUE,"""event"",""trial"",""time""
""fullscreenenter"",""5"",""22375""
","
","
","""event"",""trial"",""time""
""fullscreenenter"",""5"",""22375""
","
",391.6299999982584,NA,48,NA,NA,3000,1,NA,NA,images/earth.jpg,images/rocket1,images/rocket2,null,images/rocket1,NA,1,real,null,2,NA,NA,NA,sub28
d3-animate-choice,280,975053,0.0-76.0-1.48,FALSE,FALSE,FALSE,TRUE,"""event"",""trial"",""time""
""fullscreenenter"",""5"",""22375""
","
","
","""event"",""trial"",""time""
""fullscreenenter"",""5"",""22375""
","
",450.59999999648426,NA,48,NA,NA,3000,1,NA,NA,images/redplanet1.jpg,images/alien2,images/alien1,images/rocket1,images/alien2,images/nothing.png,2,real,false,2,rare,0,2020-06-10T23:48:29Z,sub28
two-step-fixation,281,976062,0.0-76.0-2.48,FALSE,FALSE,FALSE,TRUE,"""event"",""trial"",""time""
""fullscreenenter"",""5"",""22375""
","
","
","""event"",""trial"",""time""
""fullscreenenter"",""5"",""22375""
","
",NA,images/earth.jpg,NA,NA,NA,NA,NA,NA,NA,NA,NA,NA,NA,NA,NA,fixation,NA,NA,NA,NA,NA,NA,sub28
d3-animate-choice,282,978316,0.0-76.0-0.49,FALSE,FALSE,FALSE,TRUE,"""event"",""trial"",""time""
""fullscreenenter"",""5"",""22375""
","
","
","""event"",""trial"",""time""
""fullscreenenter"",""5"",""22375""
","
