trial_type,trial_index,time_elapsed,internal_node_id,rocket_sides,red_planet_first_rocket,red_display_order,purple_display_order,interactions,blur_events,focus_events,fullscreenenter_events,fullscreenexit_events,rt,stimulus,key_press,button_pressed,success,duration,valid_pressed,rts,keys,planet_text,right_text,left_text,center_text,chosen_text,reward_text,trial_stage,practice_trial,transition_type,choice,transition,reward,timestamp,subject_id
pavlovia,0,3,0.0-0.0,FALSE,FALSE,FALSE,FALSE,"
","
","
","
","
",NA,NA,NA,NA,NA,NA,NA,NA,NA,NA,NA,NA,NA,NA,NA,NA,NA,NA,NA,NA,NA,NA,sub62
html-keyboard-response,1,1703,0.0-1.0,FALSE,FALSE,FALSE,FALSE,"
","
","
","
","
",1698.9300000004732,Welcome! Press the space bar to begin.,32,NA,NA,NA,NA,NA,NA,NA,NA,NA,NA,NA,NA,NA,NA,NA,NA,NA,NA,NA,sub62
audio-keyboard-response,2,4771,0.0-2.0,FALSE,FALSE,FALSE,FALSE,"
","
","
","
","
",3003,audio/beep_loop.wav,32,NA,NA,NA,NA,NA,NA,NA,NA,NA,NA,NA,NA,NA,NA,NA,NA,NA,NA,NA,sub62
audio-button-response,3,7701,0.0-3.0,FALSE,FALSE,FALSE,FALSE,"
","
","
","
","
",NaN,audio/fish.mp3,NA,1,NA,NA,NA,NA,NA,NA,NA,NA,NA,NA,NA,NA,NA,NA,NA,NA,NA,NA,sub62
audio-button-response,4,10384,0.0-4.0,FALSE,FALSE,FALSE,FALSE,"""event"",""trial"",""time""
""fullscreenenter"",""5"",""17724""
","
","
","""event"",""trial"",""time""
""fullscreenenter"",""5"",""17724""
","
",NaN,audio/tiger.mp3,NA,4,NA,NA,NA,NA,NA,NA,NA,NA,NA,NA,NA,NA,NA,NA,NA,NA,NA,NA,sub62
fullscreen,5,18694,0.0-5.0,FALSE,FALSE,FALSE,FALSE,"""event"",""trial"",""time""
""fullscreenenter"",""5"",""17724""
","
","
","""event"",""trial"",""time""
""fullscreenenter"",""5"",""17724""
","
",NA,NA,NA,NA,TRUE,NA,NA,NA,NA,NA,NA,NA,NA,NA,NA,NA,NA,NA,NA,NA,NA,NA,sub62
d3-instructions,6,33092,0.0-6.0,FALSE,FALSE,FALSE,FALSE,"""event"",""trial"",""time""
""fullscreenenter"",""5"",""17724""
","
","
","""event"",""trial"",""time""
""fullscreenenter"",""5"",""17724""
","
",NA,NA,NA,NA,NA,NA,NA,NA,NA,NA,NA,NA,NA,NA,NA,NA,NA,NA,NA,NA,NA,NA,sub62
d3-instructions,7,43238,0.0-7.0,FALSE,FALSE,FALSE,FALSE,"""event"",""trial"",""time""
""fullscreenenter"",""5"",""17724""
","
","
","""event"",""trial"",""time""
""fullscreenenter"",""5"",""17724""
","
",NA,NA,NA,NA,NA,NA,NA,NA,NA,NA,NA,NA,NA,NA,NA,NA,NA,NA,NA,NA,NA,NA,sub62
d3-instructions,8,50004,0.0-8.0,FALSE,FALSE,FALSE,FALSE,"""event"",""trial"",""time""
""fullscreenenter"",""5"",""17724""
","
","
","""event"",""trial"",""time""
""fullscreenenter"",""5"",""17724""
","
",NA,NA,NA,NA,NA,NA,NA,NA,NA,NA,NA,NA,NA,NA,NA,NA,NA,NA,NA,NA,NA,NA,sub62
d3-instructions,9,64946,0.0-9.0,FALSE,FALSE,FALSE,FALSE,"""event"",""trial"",""time""
""fullscreenenter"",""5"",""17724""
","
","
","""event"",""trial"",""time""
""fullscreenenter"",""5"",""17724""
","
",NA,NA,NA,NA,NA,NA,NA,NA,NA,NA,NA,NA,NA,NA,NA,NA,NA,NA,NA,NA,NA,NA,sub62
d3-instructions,10,86424,0.0-10.0,FALSE,FALSE,FALSE,FALSE,"""event"",""trial"",""time""
""fullscreenenter"",""5"",""17724""
","
","
","""event"",""trial"",""time""
""fullscreenenter"",""5"",""17724""
","
",NA,NA,NA,NA,NA,NA,NA,NA,NA,NA,NA,NA,NA,NA,NA,NA,NA,NA,NA,NA,NA,NA,sub62
d3-animate-choice,11,90922,0.0-11.0,FALSE,FALSE,FALSE,FALSE,"""event"",""trial"",""time""
""fullscreenenter"",""5"",""17724""
","
","
","""event"",""trial"",""time""
""fullscreenenter"",""5"",""17724""
","
",2491.2549999990006,NA,49,NA,NA,3000,1,3604.959999998755,48,images/tutgreenplanet.jpg,images/tutalien1,images/tutalien2,null,images/tutalien2,NA,NA,practice,null,NA,NA,NA,NA,sub62
d3-animate-choice,12,92948,0.0-12.0,FALSE,FALSE,FALSE,FALSE,"""event"",""trial"",""time""
""fullscreenenter"",""5"",""17724""
","
","
","""event"",""trial"",""time""
""fullscreenenter"",""5"",""17724""
","
",20.80500000010943,NA,49,NA,NA,3000,1,1834.8299999997835,48,images/tutgreenplanet.jpg,images/tutalien1,images/tutalien2,null,images/tutalien2,NA,NA,practice,null,NA,NA,NA,NA,sub62
d3-animate-choice,13,95637,0.0-13.0,FALSE,FALSE,FALSE,FALSE,"""event"",""trial"",""time""
""fullscreenenter"",""5"",""17724""
","
","
","""event"",""trial"",""time""
""fullscreenenter"",""5"",""17724""
","
",680.7149999985995,NA,48,NA,NA,3000,1,NA,NA,images/tutgreenplanet.jpg,images/tutalien1,images/tutalien2,null,images/tutalien1,NA,NA,practice,null,NA,NA,NA,NA,sub62
d3-animate-choice,14,98469,0.0-14.0,FALSE,FALSE,FALSE,FALSE,"""event"",""trial"",""time""
""fullscreenenter"",""5"",""17724""
","
","
","""event"",""trial"",""time""
""fullscreenenter"",""5"",""17724""
","
",825.5800000006275,NA,49,NA,NA,3000,1,NA,NA,images/tutgreenplanet.jpg,images/tutalien1,images/tutalien2,null,images/tutalien2,NA,NA,practice,null,NA,NA,NA,NA,sub62
d3-instructions,15,106540,0.0-15.0,FALSE,FALSE,FALSE,FALSE,"""event"",""trial"",""time""
""fullscreenenter"",""5"",""17724""
","
","
","""event"",""trial"",""time""
""fullscreenenter"",""5"",""17724""
","
",NA,NA,NA,NA,NA,NA,NA,NA,NA,NA,NA,NA,NA,NA,NA,NA,NA,NA,NA,NA,NA,NA,sub62
d3-instructions,16,113558,0.0-16.0,FALSE,FALSE,FALSE,FALSE,"""event"",""trial"",""time""
""fullscreenenter"",""5"",""17724""
","
","
","""event"",""trial"",""time""
""fullscreenenter"",""5"",""17724""
","
",NA,NA,NA,NA,NA,NA,NA,NA,NA,NA,NA,NA,NA,NA,NA,NA,NA,NA,NA,NA,NA,NA,sub62
d3-instructions,17,124554,0.0-17.0,FALSE,FALSE,FALSE,FALSE,"""event"",""trial"",""time""
""fullscreenenter"",""5"",""17724""
","
","
","""event"",""trial"",""time""
""fullscreenenter"",""5"",""17724""
","
",NA,NA,NA,NA,NA,NA,NA,NA,NA,NA,NA,NA,NA,NA,NA,NA,NA,NA,NA,NA,NA,NA,sub62
d3-instructions,18,137969,0.0-18.0,FALSE,FALSE,FALSE,FALSE,"""event"",""trial"",""time""
""fullscreenenter"",""5"",""17724""
","
","
","""event"",""trial"",""time""
""fullscreenenter"",""5"",""17724""
","
",NA,NA,NA,NA,NA,NA,NA,NA,NA,NA,NA,NA,NA,NA,NA,NA,NA,NA,NA,NA,NA,NA,sub62
d3-instructions,19,153941,0.0-19.0,FALSE,FALSE,FALSE,FALSE,"""event"",""trial"",""time""
""fullscreenenter"",""5"",""17724""
","
","
","""event"",""trial"",""time""
""fullscreenenter"",""5"",""17724""
","
",NA,NA,NA,NA,NA,NA,NA,NA,NA,NA,NA,NA,NA,NA,NA,NA,NA,NA,NA,NA,NA,NA,sub62
d3-animate-choice,20,157359,0.0-20.0,FALSE,FALSE,FALSE,FALSE,"""event"",""trial"",""time""
""fullscreenenter"",""5"",""17724""
","
","
","""event"",""trial"",""time""
""fullscreenenter"",""5"",""17724""
","
",1413.3250000013504,NA,49,NA,NA,3000,1,NA,NA,images/tutyellowplanet.jpg,null,images/tutalien3,null,images/tutalien3,images/t.png,NA,practice,null,NA,NA,NA,NA,sub62
d3-animate-choice,21,159812,0.0-21.0,FALSE,FALSE,FALSE,FALSE,"""event"",""trial"",""time""
""fullscreenenter"",""5"",""17724""
","
","
","""event"",""trial"",""time""
""fullscreenenter"",""5"",""17724""
","
",447.4850000005972,NA,49,NA,NA,3000,1,NA,NA,images/tutyellowplanet.jpg,null,images/tutalien3,null,images/tutalien3,images/t.png,NA,practice,null,NA,NA,NA,NA,sub62
d3-animate-choice,22,162164,0.0-22.0,FALSE,FALSE,FALSE,FALSE,"""event"",""trial"",""time""
""fullscreenenter"",""5"",""17724""
","
","
","""event"",""trial"",""time""
""fullscreenenter"",""5"",""17724""
","
",344.83499999990454,NA,49,NA,NA,3000,1,NA,NA,images/tutyellowplanet.jpg,null,images/tutalien3,null,images/tutalien3,images/t.png,NA,practice,null,NA,NA,NA,NA,sub62
d3-animate-choice,23,164447,0.0-23.0,FALSE,FALSE,FALSE,FALSE,"""event"",""trial"",""time""
""fullscreenenter"",""5"",""17724""
","
","
","""event"",""trial"",""time""
""fullscreenenter"",""5"",""17724""
","
",278.2100000003702,NA,49,NA,NA,3000,1,NA,NA,images/tutyellowplanet.jpg,null,images/tutalien3,null,images/tutalien3,images/nothing.png,NA,practice,null,NA,NA,NA,NA,sub62
d3-animate-choice,24,166905,0.0-24.0,FALSE,FALSE,FALSE,FALSE,"""event"",""trial"",""time""
""fullscreenenter"",""5"",""17724""
","
","
","""event"",""trial"",""time""
""fullscreenenter"",""5"",""17724""
","
",452.28999999928055,NA,49,NA,NA,3000,1,NA,NA,images/tutyellowplanet.jpg,null,images/tutalien3,null,images/tutalien3,images/t.png,NA,practice,null,NA,NA,NA,NA,sub62
d3-animate-choice,25,169668,0.0-25.0,FALSE,FALSE,FALSE,FALSE,"""event"",""trial"",""time""
""fullscreenenter"",""5"",""17724""
","
","
","""event"",""trial"",""time""
""fullscreenenter"",""5"",""17724""
","
",755.430000001099,NA,49,NA,NA,3000,1,NA,NA,images/tutyellowplanet.jpg,null,images/tutalien3,null,images/tutalien3,images/t.png,NA,practice,null,NA,NA,NA,NA,sub62
d3-animate-choice,26,172120,0.0-26.0,FALSE,FALSE,FALSE,FALSE,"""event"",""trial"",""time""
""fullscreenenter"",""5"",""17724""
","
","
","""event"",""trial"",""time""
""fullscreenenter"",""5"",""17724""
","
",447.4299999983341,NA,49,NA,NA,3000,1,NA,NA,images/tutyellowplanet.jpg,null,images/tutalien3,null,images/tutalien3,images/t.png,NA,practice,null,NA,NA,NA,NA,sub62
d3-animate-choice,27,174458,0.0-27.0,FALSE,FALSE,FALSE,FALSE,"""event"",""trial"",""time""
""fullscreenenter"",""5"",""17724""
","
","
","""event"",""trial"",""time""
""fullscreenenter"",""5"",""17724""
","
",336.0849999990314,NA,49,NA,NA,3000,1,NA,NA,images/tutyellowplanet.jpg,null,images/tutalien3,null,images/tutalien3,images/t.png,NA,practice,null,NA,NA,NA,NA,sub62
d3-animate-choice,28,176814,0.0-28.0,FALSE,FALSE,FALSE,FALSE,"""event"",""trial"",""time""
""fullscreenenter"",""5"",""17724""
","
","
","""event"",""trial"",""time""
""fullscreenenter"",""5"",""17724""
","
",352.3550000009127,NA,49,NA,NA,3000,1,NA,NA,images/tutyellowplanet.jpg,null,images/tutalien3,null,images/tutalien3,images/t.png,NA,practice,null,NA,NA,NA,NA,sub62
d3-animate-choice,29,179156,0.0-29.0,FALSE,FALSE,FALSE,FALSE,"""event"",""trial"",""time""
""fullscreenenter"",""5"",""17724""
","
","
","""event"",""trial"",""time""
""fullscreenenter"",""5"",""17724""
","
",336.0549999997602,NA,49,NA,NA,3000,1,NA,NA,images/tutyellowplanet.jpg,null,images/tutalien3,null,images/tutalien3,images/t.png,NA,practice,null,NA,NA,NA,NA,sub62
d3-instructions,30,186936,0.0-30.0,FALSE,FALSE,FALSE,FALSE,"""event"",""trial"",""time""
""fullscreenenter"",""5"",""17724""
","
","
","""event"",""trial"",""time""
""fullscreenenter"",""5"",""17724""
","
",NA,NA,NA,NA,NA,NA,NA,NA,NA,NA,NA,NA,NA,NA,NA,NA,NA,NA,NA,NA,NA,NA,sub62
d3-instructions,31,198068,0.0-31.0,FALSE,FALSE,FALSE,FALSE,"""event"",""trial"",""time""
""fullscreenenter"",""5"",""17724""
","
","
","""event"",""trial"",""time""
""fullscreenenter"",""5"",""17724""
","
",NA,NA,NA,NA,NA,NA,NA,NA,NA,NA,NA,NA,NA,NA,NA,NA,NA,NA,NA,NA,NA,NA,sub62
d3-instructions,32,207345,0.0-32.0,FALSE,FALSE,FALSE,FALSE,"""event"",""trial"",""time""
""fullscreenenter"",""5"",""17724""
","
","
","""event"",""trial"",""time""
""fullscreenenter"",""5"",""17724""
","
",NA,NA,NA,NA,NA,NA,NA,NA,NA,NA,NA,NA,NA,NA,NA,NA,NA,NA,NA,NA,NA,NA,sub62
d3-instructions,33,218452,0.0-33.0,FALSE,FALSE,FALSE,FALSE,"""event"",""trial"",""time""
""fullscreenenter"",""5"",""17724""
","
","
","""event"",""trial"",""time""
""fullscreenenter"",""5"",""17724""
","
",NA,NA,NA,NA,NA,NA,NA,NA,NA,NA,NA,NA,NA,NA,NA,NA,NA,NA,NA,NA,NA,NA,sub62
d3-animate-choice,34,221891,0.0-34.0,FALSE,FALSE,FALSE,FALSE,"""event"",""trial"",""time""
""fullscreenenter"",""5"",""17724""
","
","
","""event"",""trial"",""time""
""fullscreenenter"",""5"",""17724""
","
",1435.7299999992247,NA,49,NA,NA,3000,1,NA,NA,images/tutgreenplanet.jpg,images/tutalien1,images/tutalien2,null,images/tutalien2,images/t.png,NA,practice,null,NA,NA,NA,NA,sub62
d3-animate-choice,35,224830,0.0-35.0,FALSE,FALSE,FALSE,FALSE,"""event"",""trial"",""time""
""fullscreenenter"",""5"",""17724""
","
","
","""event"",""trial"",""time""
""fullscreenenter"",""5"",""17724""
","
",935.4349999994156,NA,48,NA,NA,3000,1,NA,NA,images/tutgreenplanet.jpg,images/tutalien1,images/tutalien2,null,images/tutalien1,images/nothing.png,NA,practice,null,NA,NA,NA,NA,sub62
d3-animate-choice,36,227123,0.0-36.0,FALSE,FALSE,FALSE,FALSE,"""event"",""trial"",""time""
""fullscreenenter"",""5"",""17724""
","
","
","""event"",""trial"",""time""
""fullscreenenter"",""5"",""17724""
","
",290.27500000118744,NA,48,NA,NA,3000,1,NA,NA,images/tutgreenplanet.jpg,images/tutalien1,images/tutalien2,null,images/tutalien1,images/nothing.png,NA,practice,null,NA,NA,NA,NA,sub62
d3-animate-choice,37,229510,0.0-37.0,FALSE,FALSE,FALSE,FALSE,"""event"",""trial"",""time""
""fullscreenenter"",""5"",""17724""
","
","
","""event"",""trial"",""time""
""fullscreenenter"",""5"",""17724""
","
",383.3749999994179,NA,49,NA,NA,3000,1,NA,NA,images/tutgreenplanet.jpg,images/tutalien1,images/tutalien2,null,images/tutalien2,images/t.png,NA,practice,null,NA,NA,NA,NA,sub62
d3-animate-choice,38,231833,0.0-38.0,FALSE,FALSE,FALSE,FALSE,"""event"",""trial"",""time""
""fullscreenenter"",""5"",""17724""
","
","
","""event"",""trial"",""time""
""fullscreenenter"",""5"",""17724""
","
",320.22499999945285,NA,49,NA,NA,3000,1,NA,NA,images/tutgreenplanet.jpg,images/tutalien1,images/tutalien2,null,images/tutalien2,images/t.png,NA,practice,null,NA,NA,NA,NA,sub62
d3-animate-choice,39,234163,0.0-39.0,FALSE,FALSE,FALSE,FALSE,"""event"",""trial"",""time""
""fullscreenenter"",""5"",""17724""
","
","
","""event"",""trial"",""time""
""fullscreenenter"",""5"",""17724""
","
",328.3150000006426,NA,48,NA,NA,3000,1,NA,NA,images/tutgreenplanet.jpg,images/tutalien1,images/tutalien2,null,images/tutalien1,images/nothing.png,NA,practice,null,NA,NA,NA,NA,sub62
d3-animate-choice,40,236460,0.0-40.0,FALSE,FALSE,FALSE,FALSE,"""event"",""trial"",""time""
""fullscreenenter"",""5"",""17724""
","
","
","""event"",""trial"",""time""
""fullscreenenter"",""5"",""17724""
","
",293.1100000005099,NA,48,NA,NA,3000,1,NA,NA,images/tutgreenplanet.jpg,images/tutalien1,images/tutalien2,null,images/tutalien1,images/t.png,NA,practice,null,NA,NA,NA,NA,sub62
d3-animate-choice,41,238819,0.0-41.0,FALSE,FALSE,FALSE,FALSE,"""event"",""trial"",""time""
""fullscreenenter"",""5"",""17724""
","
","
","""event"",""trial"",""time""
""fullscreenenter"",""5"",""17724""
","
",353.08999999871594,NA,49,NA,NA,3000,1,NA,NA,images/tutgreenplanet.jpg,images/tutalien1,images/tutalien2,null,images/tutalien2,images/t.png,NA,practice,null,NA,NA,NA,NA,sub62
d3-animate-choice,42,241134,0.0-42.0,FALSE,FALSE,FALSE,FALSE,"""event"",""trial"",""time""
""fullscreenenter"",""5"",""17724""
","
","
","""event"",""trial"",""time""
""fullscreenenter"",""5"",""17724""
","
",309.8150000005262,NA,49,NA,NA,3000,1,NA,NA,images/tutgreenplanet.jpg,images/tutalien1,images/tutalien2,null,images/tutalien2,images/t.png,NA,practice,null,NA,NA,NA,NA,sub62
d3-animate-choice,43,243438,0.0-43.0,FALSE,FALSE,FALSE,FALSE,"""event"",""trial"",""time""
""fullscreenenter"",""5"",""17724""
","
","
","""event"",""trial"",""time""
""fullscreenenter"",""5"",""17724""
","
",300.0550000015064,NA,49,NA,NA,3000,1,NA,NA,images/tutgreenplanet.jpg,images/tutalien1,images/tutalien2,null,images/tutalien2,images/t.png,NA,practice,null,NA,NA,NA,NA,sub62
d3-instructions,44,256443,0.0-44.0,FALSE,FALSE,FALSE,FALSE,"""event"",""trial"",""time""
""fullscreenenter"",""5"",""17724""
","
","
","""event"",""trial"",""time""
""fullscreenenter"",""5"",""17724""
","
",NA,NA,NA,NA,NA,NA,NA,NA,NA,NA,NA,NA,NA,NA,NA,NA,NA,NA,NA,NA,NA,NA,sub62
d3-instructions,45,263605,0.0-45.0,FALSE,FALSE,FALSE,FALSE,"""event"",""trial"",""time""
""fullscreenenter"",""5"",""17724""
","
","
","""event"",""trial"",""time""
""fullscreenenter"",""5"",""17724""
","
",NA,NA,NA,NA,NA,NA,NA,NA,NA,NA,NA,NA,NA,NA,NA,NA,NA,NA,NA,NA,NA,NA,sub62
d3-instructions,46,269693,0.0-46.0,FALSE,FALSE,FALSE,FALSE,"""event"",""trial"",""time""
""fullscreenenter"",""5"",""17724""
","
","
","""event"",""trial"",""time""
""fullscreenenter"",""5"",""17724""
","
",NA,NA,NA,NA,NA,NA,NA,NA,NA,NA,NA,NA,NA,NA,NA,NA,NA,NA,NA,NA,NA,NA,sub62
d3-instructions,47,287909,0.0-47.0,FALSE,FALSE,FALSE,FALSE,"""event"",""trial"",""time""
""fullscreenenter"",""5"",""17724""
","
","
","""event"",""trial"",""time""
""fullscreenenter"",""5"",""17724""
","
",NA,NA,NA,NA,NA,NA,NA,NA,NA,NA,NA,NA,NA,NA,NA,NA,NA,NA,NA,NA,NA,NA,sub62
d3-instructions,48,296176,0.0-48.0,FALSE,FALSE,FALSE,FALSE,"""event"",""trial"",""time""
""fullscreenenter"",""5"",""17724""
","
","
","""event"",""trial"",""time""
""fullscreenenter"",""5"",""17724""
","
",NA,NA,NA,NA,NA,NA,NA,NA,NA,NA,NA,NA,NA,NA,NA,NA,NA,NA,NA,NA,NA,NA,sub62
d3-instructions,49,307942,0.0-49.0,FALSE,FALSE,FALSE,FALSE,"""event"",""trial"",""time""
""fullscreenenter"",""5"",""17724""
","
","
","""event"",""trial"",""time""
""fullscreenenter"",""5"",""17724""
","
",NA,NA,NA,NA,NA,NA,NA,NA,NA,NA,NA,NA,NA,NA,NA,NA,NA,NA,NA,NA,NA,NA,sub62
d3-instructions,50,317537,0.0-50.0,FALSE,FALSE,FALSE,FALSE,"""event"",""trial"",""time""
""fullscreenenter"",""5"",""17724""
","
","
","""event"",""trial"",""time""
""fullscreenenter"",""5"",""17724""
","
",NA,NA,NA,NA,NA,NA,NA,NA,NA,NA,NA,NA,NA,NA,NA,NA,NA,NA,NA,NA,NA,NA,sub62
d3-instructions,51,321940,0.0-51.0,FALSE,FALSE,FALSE,FALSE,"""event"",""trial"",""time""
""fullscreenenter"",""5"",""17724""
","
","
","""event"",""trial"",""time""
""fullscreenenter"",""5"",""17724""
","
",NA,NA,NA,NA,NA,NA,NA,NA,NA,NA,NA,NA,NA,NA,NA,NA,NA,NA,NA,NA,NA,NA,sub62
d3-instructions,52,325072,0.0-52.0,FALSE,FALSE,FALSE,FALSE,"""event"",""trial"",""time""
""fullscreenenter"",""5"",""17724""
","
","
","""event"",""trial"",""time""
""fullscreenenter"",""5"",""17724""
","
",NA,NA,NA,NA,NA,NA,NA,NA,NA,NA,NA,NA,NA,NA,NA,NA,NA,NA,NA,NA,NA,NA,sub62
d3-instructions,53,337657,0.0-53.0,FALSE,FALSE,FALSE,FALSE,"""event"",""trial"",""time""
""fullscreenenter"",""5"",""17724""
","
","
","""event"",""trial"",""time""
""fullscreenenter"",""5"",""17724""
","
",NA,NA,NA,NA,NA,NA,NA,NA,NA,NA,NA,NA,NA,NA,NA,NA,NA,NA,NA,NA,NA,NA,sub62
d3-instructions,54,351224,0.0-54.0,FALSE,FALSE,FALSE,FALSE,"""event"",""trial"",""time""
""fullscreenenter"",""5"",""17724""
","
","
","""event"",""trial"",""time""
""fullscreenenter"",""5"",""17724""
","
",NA,NA,NA,NA,NA,NA,NA,NA,NA,NA,NA,NA,NA,NA,NA,NA,NA,NA,NA,NA,NA,NA,sub62
d3-instructions,55,362189,0.0-55.0,FALSE,FALSE,FALSE,FALSE,"""event"",""trial"",""time""
""fullscreenenter"",""5"",""17724""
","
","
","""event"",""trial"",""time""
""fullscreenenter"",""5"",""17724""
","
",NA,NA,NA,NA,NA,NA,NA,NA,NA,NA,NA,NA,NA,NA,NA,NA,NA,NA,NA,NA,NA,NA,sub62
d3-instructions,56,371428,0.0-56.0,FALSE,FALSE,FALSE,FALSE,"""event"",""trial"",""time""
""fullscreenenter"",""5"",""17724""
","
","
","""event"",""trial"",""time""
""fullscreenenter"",""5"",""17724""
","
",NA,NA,NA,NA,NA,NA,NA,NA,NA,NA,NA,NA,NA,NA,NA,NA,NA,NA,NA,NA,NA,NA,sub62
d3-instructions,57,383177,0.0-57.0,FALSE,FALSE,FALSE,FALSE,"""event"",""trial"",""time""
""fullscreenenter"",""5"",""17724""
","
","
","""event"",""trial"",""time""
""fullscreenenter"",""5"",""17724""
","
",NA,NA,NA,NA,NA,NA,NA,NA,NA,NA,NA,NA,NA,NA,NA,NA,NA,NA,NA,NA,NA,NA,sub62
d3-instructions,58,396021,0.0-58.0,FALSE,FALSE,FALSE,FALSE,"""event"",""trial"",""time""
""fullscreenenter"",""5"",""17724""
","
","
","""event"",""trial"",""time""
""fullscreenenter"",""5"",""17724""
","
",NA,NA,NA,NA,NA,NA,NA,NA,NA,NA,NA,NA,NA,NA,NA,NA,NA,NA,NA,NA,NA,NA,sub62
d3-instructions,59,402969,0.0-59.0,FALSE,FALSE,FALSE,FALSE,"""event"",""trial"",""time""
""fullscreenenter"",""5"",""17724""
","
","
","""event"",""trial"",""time""
""fullscreenenter"",""5"",""17724""
","
",NA,NA,NA,NA,NA,NA,NA,NA,NA,NA,NA,NA,NA,NA,NA,NA,NA,NA,NA,NA,NA,NA,sub62
d3-instructions,60,410073,0.0-60.0,FALSE,FALSE,FALSE,FALSE,"""event"",""trial"",""time""
""fullscreenenter"",""5"",""17724""
","
","
","""event"",""trial"",""time""
""fullscreenenter"",""5"",""17724""
","
",NA,NA,NA,NA,NA,NA,NA,NA,NA,NA,NA,NA,NA,NA,NA,NA,NA,NA,NA,NA,NA,NA,sub62
d3-animate-choice,61,412924,0.0-61.0-0.0,FALSE,FALSE,FALSE,FALSE,"""event"",""trial"",""time""
""fullscreenenter"",""5"",""17724""
","
","
","""event"",""trial"",""time""
""fullscreenenter"",""5"",""17724""
","
",847.8849999992526,NA,49,NA,NA,3000,1,NA,NA,images/earth.jpg,images/tutrocket1,images/tutrocket2,null,images/tutrocket2,NA,1,practice,null,1,NA,NA,NA,sub62
d3-animate-choice,62,415926,0.0-61.0-1.0,FALSE,FALSE,FALSE,FALSE,"""event"",""trial"",""time""
""fullscreenenter"",""5"",""17724""
","
","
","""event"",""trial"",""time""
""fullscreenenter"",""5"",""17724""
","
",998.3300000003073,NA,49,NA,NA,3000,1,NA,NA,images/tutgreenplanet.jpg,images/tutalien2,images/tutalien1,images/tutrocket2,images/tutalien1,images/nothing.png,2,practice,true,1,common,0,2020-06-12T23:26:39Z,sub62
two-step-fixation,63,416929,0.0-61.0-2.0,FALSE,FALSE,FALSE,FALSE,"""event"",""trial"",""time""
""fullscreenenter"",""5"",""17724""
","
","
","""event"",""trial"",""time""
""fullscreenenter"",""5"",""17724""
","
",NA,images/earth.jpg,NA,NA,NA,NA,NA,NA,NA,NA,NA,NA,NA,NA,NA,fixation,NA,NA,NA,NA,NA,NA,sub62
d3-animate-choice,64,420534,0.0-61.0-0.1,FALSE,FALSE,FALSE,FALSE,"""event"",""trial"",""time""
""fullscreenenter"",""5"",""17724""
","
","
","""event"",""trial"",""time""
""fullscreenenter"",""5"",""17724""
","
",1600.3999999993248,NA,49,NA,NA,3000,1,NA,NA,images/earth.jpg,images/tutrocket1,images/tutrocket2,null,images/tutrocket2,NA,1,practice,null,1,NA,NA,NA,sub62
d3-animate-choice,65,423126,0.0-61.0-1.1,FALSE,FALSE,FALSE,FALSE,"""event"",""trial"",""time""
""fullscreenenter"",""5"",""17724""
","
","
","""event"",""trial"",""time""
""fullscreenenter"",""5"",""17724""
","
",585.7750000013621,NA,48,NA,NA,3000,1,NA,NA,images/tutgreenplanet.jpg,images/tutalien2,images/tutalien1,images/tutrocket2,images/tutalien2,images/nothing.png,2,practice,true,2,common,0,2020-06-12T23:26:46Z,sub62
two-step-fixation,66,424129,0.0-61.0-2.1,FALSE,FALSE,FALSE,FALSE,"""event"",""trial"",""time""
""fullscreenenter"",""5"",""17724""
","
","
","""event"",""trial"",""time""
""fullscreenenter"",""5"",""17724""
","
",NA,images/earth.jpg,NA,NA,NA,NA,NA,NA,NA,NA,NA,NA,NA,NA,NA,fixation,NA,NA,NA,NA,NA,NA,sub62
d3-animate-choice,67,426999,0.0-61.0-0.2,FALSE,FALSE,FALSE,FALSE,"""event"",""trial"",""time""
""fullscreenenter"",""5"",""17724""
","
","
","""event"",""trial"",""time""
""fullscreenenter"",""5"",""17724""
","
",867.9400000000605,NA,48,NA,NA,3000,1,NA,NA,images/earth.jpg,images/tutrocket1,images/tutrocket2,null,images/tutrocket1,NA,1,practice,null,2,NA,NA,NA,sub62
d3-animate-choice,68,429660,0.0-61.0-1.2,FALSE,FALSE,FALSE,FALSE,"""event"",""trial"",""time""
""fullscreenenter"",""5"",""17724""
","
","
","""event"",""trial"",""time""
""fullscreenenter"",""5"",""17724""
","
",655.0599999991828,NA,49,NA,NA,3000,1,NA,NA,images/tutyellowplanet.jpg,images/tutalien4,images/tutalien3,images/tutrocket1,images/tutalien3,images/nothing.png,2,practice,true,1,common,0,2020-06-12T23:26:53Z,sub62
two-step-fixation,69,430662,0.0-61.0-2.2,FALSE,FALSE,FALSE,FALSE,"""event"",""trial"",""time""
""fullscreenenter"",""5"",""17724""
","
","
","""event"",""trial"",""time""
""fullscreenenter"",""5"",""17724""
","
",NA,images/earth.jpg,NA,NA,NA,NA,NA,NA,NA,NA,NA,NA,NA,NA,NA,fixation,NA,NA,NA,NA,NA,NA,sub62
d3-animate-choice,70,433846,0.0-61.0-0.3,FALSE,FALSE,FALSE,FALSE,"""event"",""trial"",""time""
""fullscreenenter"",""5"",""17724""
","
","
","""event"",""trial"",""time""
""fullscreenenter"",""5"",""17724""
","
",1179.6849999991246,NA,48,NA,NA,3000,1,NA,NA,images/earth.jpg,images/tutrocket1,images/tutrocket2,null,images/tutrocket1,NA,1,practice,null,2,NA,NA,NA,sub62
d3-animate-choice,71,436255,0.0-61.0-1.3,FALSE,FALSE,FALSE,FALSE,"""event"",""trial"",""time""
""fullscreenenter"",""5"",""17724""
","
","
","""event"",""trial"",""time""
""fullscreenenter"",""5"",""17724""
","
",403.48500000074273,NA,48,NA,NA,3000,1,NA,NA,images/tutyellowplanet.jpg,images/tutalien4,images/tutalien3,images/tutrocket1,images/tutalien4,images/t.png,2,practice,true,2,common,1,2020-06-12T23:26:59Z,sub62
two-step-fixation,72,437258,0.0-61.0-2.3,FALSE,FALSE,FALSE,FALSE,"""event"",""trial"",""time""
""fullscreenenter"",""5"",""17724""
","
","
","""event"",""trial"",""time""
""fullscreenenter"",""5"",""17724""
","
",NA,images/earth.jpg,NA,NA,NA,NA,NA,NA,NA,NA,NA,NA,NA,NA,NA,fixation,NA,NA,NA,NA,NA,NA,sub62
d3-animate-choice,73,439700,0.0-61.0-0.4,FALSE,FALSE,FALSE,FALSE,"""event"",""trial"",""time""
""fullscreenenter"",""5"",""17724""
","
","
","""event"",""trial"",""time""
""fullscreenenter"",""5"",""17724""
","
",434.4600000003702,NA,48,NA,NA,3000,1,NA,NA,images/earth.jpg,images/tutrocket1,images/tutrocket2,null,images/tutrocket1,NA,1,practice,null,2,NA,NA,NA,sub62
d3-animate-choice,74,442033,0.0-61.0-1.4,FALSE,FALSE,FALSE,FALSE,"""event"",""trial"",""time""
""fullscreenenter"",""5"",""17724""
","
","
","""event"",""trial"",""time""
""fullscreenenter"",""5"",""17724""
","
",325.8000000005122,NA,48,NA,NA,3000,1,NA,NA,images/tutyellowplanet.jpg,images/tutalien4,images/tutalien3,images/tutrocket1,images/tutalien4,images/t.png,2,practice,true,2,common,1,2020-06-12T23:27:05Z,sub62
two-step-fixation,75,443037,0.0-61.0-2.4,FALSE,FALSE,FALSE,FALSE,"""event"",""trial"",""time""
""fullscreenenter"",""5"",""17724""
","
","
","""event"",""trial"",""time""
""fullscreenenter"",""5"",""17724""
","
",NA,images/earth.jpg,NA,NA,NA,NA,NA,NA,NA,NA,NA,NA,NA,NA,NA,fixation,NA,NA,NA,NA,NA,NA,sub62
d3-animate-choice,76,445437,0.0-61.0-0.5,FALSE,FALSE,FALSE,FALSE,"""event"",""trial"",""time""
""fullscreenenter"",""5"",""17724""
","
","
","""event"",""trial"",""time""
""fullscreenenter"",""5"",""17724""
","
",390.4849999999278,NA,48,NA,NA,3000,1,NA,NA,images/earth.jpg,images/tutrocket1,images/tutrocket2,null,images/tutrocket1,NA,1,practice,null,2,NA,NA,NA,sub62
d3-animate-choice,77,447799,0.0-61.0-1.5,FALSE,FALSE,FALSE,FALSE,"""event"",""trial"",""time""
""fullscreenenter"",""5"",""17724""
","
","
","""event"",""trial"",""time""
""fullscreenenter"",""5"",""17724""
","
",353.40999999974156,NA,48,NA,NA,3000,1,NA,NA,images/tutyellowplanet.jpg,images/tutalien4,images/tutalien3,images/tutrocket1,images/tutalien4,images/nothing.png,2,practice,true,2,common,0,2020-06-12T23:27:11Z,sub62
two-step-fixation,78,448808,0.0-61.0-2.5,FALSE,FALSE,FALSE,FALSE,"""event"",""trial"",""time""
""fullscreenenter"",""5"",""17724""
","
","
","""event"",""trial"",""time""
""fullscreenenter"",""5"",""17724""
","
",NA,images/earth.jpg,NA,NA,NA,NA,NA,NA,NA,NA,NA,NA,NA,NA,NA,fixation,NA,NA,NA,NA,NA,NA,sub62
d3-animate-choice,79,451493,0.0-61.0-0.6,FALSE,FALSE,FALSE,FALSE,"""event"",""trial"",""time""
""fullscreenenter"",""5"",""17724""
","
","
","""event"",""trial"",""time""
""fullscreenenter"",""5"",""17724""
","
",677.6799999988871,NA,48,NA,NA,3000,1,NA,NA,images/earth.jpg,images/tutrocket1,images/tutrocket2,null,images/tutrocket1,NA,1,practice,null,2,NA,NA,NA,sub62
d3-animate-choice,80,454044,0.0-61.0-1.6,FALSE,FALSE,FALSE,FALSE,"""event"",""trial"",""time""
""fullscreenenter"",""5"",""17724""
","
","
","""event"",""trial"",""time""
""fullscreenenter"",""5"",""17724""
","
",544.3900000008871,NA,49,NA,NA,3000,1,NA,NA,images/tutyellowplanet.jpg,images/tutalien4,images/tutalien3,images/tutrocket1,images/tutalien3,images/nothing.png,2,practice,true,1,common,0,2020-06-12T23:27:17Z,sub62
two-step-fixation,81,455048,0.0-61.0-2.6,FALSE,FALSE,FALSE,FALSE,"""event"",""trial"",""time""
""fullscreenenter"",""5"",""17724""
","
","
","""event"",""trial"",""time""
""fullscreenenter"",""5"",""17724""
","
",NA,images/earth.jpg,NA,NA,NA,NA,NA,NA,NA,NA,NA,NA,NA,NA,NA,fixation,NA,NA,NA,NA,NA,NA,sub62
d3-animate-choice,82,457465,0.0-61.0-0.7,FALSE,FALSE,FALSE,FALSE,"""event"",""trial"",""time""
""fullscreenenter"",""5"",""17724""
","
","
","""event"",""trial"",""time""
""fullscreenenter"",""5"",""17724""
","
",412.1350000005332,NA,49,NA,NA,3000,1,NA,NA,images/earth.jpg,images/tutrocket1,images/tutrocket2,null,images/tutrocket2,NA,1,practice,null,1,NA,NA,NA,sub62
d3-animate-choice,83,459892,0.0-61.0-1.7,FALSE,FALSE,FALSE,FALSE,"""event"",""trial"",""time""
""fullscreenenter"",""5"",""17724""
","
","
","""event"",""trial"",""time""
""fullscreenenter"",""5"",""17724""
","
",417.860000001383,NA,49,NA,NA,3000,1,NA,NA,images/tutgreenplanet.jpg,images/tutalien2,images/tutalien1,images/tutrocket2,images/tutalien1,images/nothing.png,2,practice,true,1,common,0,2020-06-12T23:27:23Z,sub62
two-step-fixation,84,460899,0.0-61.0-2.7,FALSE,FALSE,FALSE,FALSE,"""event"",""trial"",""time""
""fullscreenenter"",""5"",""17724""
","
","
","""event"",""trial"",""time""
""fullscreenenter"",""5"",""17724""
","
",NA,images/earth.jpg,NA,NA,NA,NA,NA,NA,NA,NA,NA,NA,NA,NA,NA,fixation,NA,NA,NA,NA,NA,NA,sub62
d3-animate-choice,85,463404,0.0-61.0-0.8,FALSE,FALSE,FALSE,FALSE,"""event"",""trial"",""time""
""fullscreenenter"",""5"",""17724""
","
","
","""event"",""trial"",""time""
""fullscreenenter"",""5"",""17724""
","
",498.55500000016764,NA,49,NA,NA,3000,1,NA,NA,images/earth.jpg,images/tutrocket1,images/tutrocket2,null,images/tutrocket2,NA,1,practice,null,1,NA,NA,NA,sub62
d3-animate-choice,86,466111,0.0-61.0-1.8,FALSE,FALSE,FALSE,FALSE,"""event"",""trial"",""time""
""fullscreenenter"",""5"",""17724""
","
","
","""event"",""trial"",""time""
""fullscreenenter"",""5"",""17724""
","
",701.0749999990221,NA,48,NA,NA,3000,1,NA,NA,images/tutgreenplanet.jpg,images/tutalien2,images/tutalien1,images/tutrocket2,images/tutalien2,images/nothing.png,2,practice,true,2,common,0,2020-06-12T23:27:29Z,sub62
two-step-fixation,87,467120,0.0-61.0-2.8,FALSE,FALSE,FALSE,FALSE,"""event"",""trial"",""time""
""fullscreenenter"",""5"",""17724""
","
","
","""event"",""trial"",""time""
""fullscreenenter"",""5"",""17724""
","
",NA,images/earth.jpg,NA,NA,NA,NA,NA,NA,NA,NA,NA,NA,NA,NA,NA,fixation,NA,NA,NA,NA,NA,NA,sub62
d3-animate-choice,88,469392,0.0-61.0-0.9,FALSE,FALSE,FALSE,FALSE,"""event"",""trial"",""time""
""fullscreenenter"",""5"",""17724""
","
","
","""event"",""trial"",""time""
""fullscreenenter"",""5"",""17724""
","
",262.58000000054017,NA,48,NA,NA,3000,1,NA,NA,images/earth.jpg,images/tutrocket1,images/tutrocket2,null,images/tutrocket1,NA,1,practice,null,2,NA,NA,NA,sub62
d3-animate-choice,89,471882,0.0-61.0-1.9,FALSE,FALSE,FALSE,FALSE,"""event"",""trial"",""time""
""fullscreenenter"",""5"",""17724""
","
","
","""event"",""trial"",""time""
""fullscreenenter"",""5"",""17724""
","
",483.2700000006007,NA,48,NA,NA,3000,1,NA,NA,images/tutgreenplanet.jpg,images/tutalien2,images/tutalien1,images/tutrocket1,images/tutalien2,images/t.png,2,practice,false,2,rare,1,2020-06-12T23:27:35Z,sub62
two-step-fixation,90,472888,0.0-61.0-2.9,FALSE,FALSE,FALSE,FALSE,"""event"",""trial"",""time""
""fullscreenenter"",""5"",""17724""
","
","
","""event"",""trial"",""time""
""fullscreenenter"",""5"",""17724""
","
",NA,images/earth.jpg,NA,NA,NA,NA,NA,NA,NA,NA,NA,NA,NA,NA,NA,fixation,NA,NA,NA,NA,NA,NA,sub62
d3-animate-choice,91,475384,0.0-61.0-0.10,FALSE,FALSE,FALSE,FALSE,"""event"",""trial"",""time""
""fullscreenenter"",""5"",""17724""
","
","
","""event"",""trial"",""time""
""fullscreenenter"",""5"",""17724""
","
",486.6199999997043,NA,48,NA,NA,3000,1,NA,NA,images/earth.jpg,images/tutrocket1,images/tutrocket2,null,images/tutrocket1,NA,1,practice,null,2,NA,NA,NA,sub62
d3-animate-choice,92,477912,0.0-61.0-1.10,FALSE,FALSE,FALSE,FALSE,"""event"",""trial"",""time""
""fullscreenenter"",""5"",""17724""
","
","
","""event"",""trial"",""time""
""fullscreenenter"",""5"",""17724""
","
",524.4549999988521,NA,48,NA,NA,3000,1,NA,NA,images/tutyellowplanet.jpg,images/tutalien4,images/tutalien3,images/tutrocket1,images/tutalien4,images/t.png,2,practice,true,2,common,1,2020-06-12T23:27:41Z,sub62
two-step-fixation,93,478916,0.0-61.0-2.10,FALSE,FALSE,FALSE,FALSE,"""event"",""trial"",""time""
""fullscreenenter"",""5"",""17724""
","
","
","""event"",""trial"",""time""
""fullscreenenter"",""5"",""17724""
","
",NA,images/earth.jpg,NA,NA,NA,NA,NA,NA,NA,NA,NA,NA,NA,NA,NA,fixation,NA,NA,NA,NA,NA,NA,sub62
d3-animate-choice,94,481228,0.0-61.0-0.11,FALSE,FALSE,FALSE,FALSE,"""event"",""trial"",""time""
""fullscreenenter"",""5"",""17724""
","
","
","""event"",""trial"",""time""
""fullscreenenter"",""5"",""17724""
","
",306.93999999854714,NA,48,NA,NA,3000,1,NA,NA,images/earth.jpg,images/tutrocket1,images/tutrocket2,null,images/tutrocket1,NA,1,practice,null,2,NA,NA,NA,sub62
d3-animate-choice,95,483602,0.0-61.0-1.11,FALSE,FALSE,FALSE,FALSE,"""event"",""trial"",""time""
""fullscreenenter"",""5"",""17724""
","
","
","""event"",""trial"",""time""
""fullscreenenter"",""5"",""17724""
","
",367.66999999963446,NA,48,NA,NA,3000,1,NA,NA,images/tutyellowplanet.jpg,images/tutalien4,images/tutalien3,images/tutrocket1,images/tutalien4,images/t.png,2,practice,true,2,common,1,2020-06-12T23:27:46Z,sub62
two-step-fixation,96,484606,0.0-61.0-2.11,FALSE,FALSE,FALSE,FALSE,"""event"",""trial"",""time""
""fullscreenenter"",""5"",""17724""
","
","
","""event"",""trial"",""time""
""fullscreenenter"",""5"",""17724""
","
",NA,images/earth.jpg,NA,NA,NA,NA,NA,NA,NA,NA,NA,NA,NA,NA,NA,fixation,NA,NA,NA,NA,NA,NA,sub62
d3-animate-choice,97,486975,0.0-61.0-0.12,FALSE,FALSE,FALSE,FALSE,"""event"",""trial"",""time""
""fullscreenenter"",""5"",""17724""
","
","
","""event"",""trial"",""time""
""fullscreenenter"",""5"",""17724""
","
",363.48999999969965,NA,49,NA,NA,3000,1,NA,NA,images/earth.jpg,images/tutrocket1,images/tutrocket2,null,images/tutrocket2,NA,1,practice,null,1,NA,NA,NA,sub62
d3-animate-choice,98,489386,0.0-61.0-1.12,FALSE,FALSE,FALSE,FALSE,"""event"",""trial"",""time""
""fullscreenenter"",""5"",""17724""
","
","
","""event"",""trial"",""time""
""fullscreenenter"",""5"",""17724""
","
",401.6549999996787,NA,48,NA,NA,3000,1,NA,NA,images/tutgreenplanet.jpg,images/tutalien2,images/tutalien1,images/tutrocket2,images/tutalien2,images/nothing.png,2,practice,true,2,common,0,2020-06-12T23:27:52Z,sub62
two-step-fixation,99,490393,0.0-61.0-2.12,FALSE,FALSE,FALSE,FALSE,"""event"",""trial"",""time""
""fullscreenenter"",""5"",""17724""
","
","
","""event"",""trial"",""time""
""fullscreenenter"",""5"",""17724""
","
",NA,images/earth.jpg,NA,NA,NA,NA,NA,NA,NA,NA,NA,NA,NA,NA,NA,fixation,NA,NA,NA,NA,NA,NA,sub62
d3-animate-choice,100,493293,0.0-61.0-0.13,FALSE,FALSE,FALSE,FALSE,"""event"",""trial"",""time""
""fullscreenenter"",""5"",""17724""
","
","
","""event"",""trial"",""time""
""fullscreenenter"",""5"",""17724""
","
",892.859999999986,NA,48,NA,NA,3000,1,NA,NA,images/earth.jpg,images/tutrocket1,images/tutrocket2,null,images/tutrocket1,NA,1,practice,null,2,NA,NA,NA,sub62
d3-animate-choice,101,495813,0.0-61.0-1.13,FALSE,FALSE,FALSE,FALSE,"""event"",""trial"",""time""
""fullscreenenter"",""5"",""17724""
","
","
","""event"",""trial"",""time""
""fullscreenenter"",""5"",""17724""
","
",513.6149999998743,NA,48,NA,NA,3000,1,NA,NA,images/tutyellowplanet.jpg,images/tutalien4,images/tutalien3,images/tutrocket1,images/tutalien4,images/t.png,2,practice,true,2,common,1,2020-06-12T23:27:59Z,sub62
two-step-fixation,102,496821,0.0-61.0-2.13,FALSE,FALSE,FALSE,FALSE,"""event"",""trial"",""time""
""fullscreenenter"",""5"",""17724""
","
","
","""event"",""trial"",""time""
""fullscreenenter"",""5"",""17724""
","
",NA,images/earth.jpg,NA,NA,NA,NA,NA,NA,NA,NA,NA,NA,NA,NA,NA,fixation,NA,NA,NA,NA,NA,NA,sub62
d3-animate-choice,103,499097,0.0-61.0-0.14,FALSE,FALSE,FALSE,FALSE,"""event"",""trial"",""time""
""fullscreenenter"",""5"",""17724""
","
","
","""event"",""trial"",""time""
""fullscreenenter"",""5"",""17724""
","
",269.8849999997183,NA,48,NA,NA,3000,1,NA,NA,images/earth.jpg,images/tutrocket1,images/tutrocket2,null,images/tutrocket1,NA,1,practice,null,2,NA,NA,NA,sub62
d3-animate-choice,104,501574,0.0-61.0-1.14,FALSE,FALSE,FALSE,FALSE,"""event"",""trial"",""time""
""fullscreenenter"",""5"",""17724""
","
","
","""event"",""trial"",""time""
""fullscreenenter"",""5"",""17724""
","
",471.7749999999651,NA,48,NA,NA,3000,1,NA,NA,images/tutyellowplanet.jpg,images/tutalien4,images/tutalien3,images/tutrocket1,images/tutalien4,images/t.png,2,practice,true,2,common,1,2020-06-12T23:28:04Z,sub62
two-step-fixation,105,502580,0.0-61.0-2.14,FALSE,FALSE,FALSE,FALSE,"""event"",""trial"",""time""
""fullscreenenter"",""5"",""17724""
","
","
","""event"",""trial"",""time""
""fullscreenenter"",""5"",""17724""
","
",NA,images/earth.jpg,NA,NA,NA,NA,NA,NA,NA,NA,NA,NA,NA,NA,NA,fixation,NA,NA,NA,NA,NA,NA,sub62
d3-animate-choice,106,504886,0.0-61.0-0.15,FALSE,FALSE,FALSE,FALSE,"""event"",""trial"",""time""
""fullscreenenter"",""5"",""17724""
","
","
","""event"",""trial"",""time""
""fullscreenenter"",""5"",""17724""
","
",297.3849999998347,NA,48,NA,NA,3000,1,NA,NA,images/earth.jpg,images/tutrocket1,images/tutrocket2,null,images/tutrocket1,NA,1,practice,null,2,NA,NA,NA,sub62
d3-animate-choice,107,507237,0.0-61.0-1.15,FALSE,FALSE,FALSE,FALSE,"""event"",""trial"",""time""
""fullscreenenter"",""5"",""17724""
","
","
","""event"",""trial"",""time""
""fullscreenenter"",""5"",""17724""
","
",346.3950000004843,NA,48,NA,NA,3000,1,NA,NA,images/tutyellowplanet.jpg,images/tutalien4,images/tutalien3,images/tutrocket1,images/tutalien4,images/nothing.png,2,practice,true,2,common,0,2020-06-12T23:28:10Z,sub62
two-step-fixation,108,508241,0.0-61.0-2.15,FALSE,FALSE,FALSE,FALSE,"""event"",""trial"",""time""
""fullscreenenter"",""5"",""17724""
","
","
","""event"",""trial"",""time""
""fullscreenenter"",""5"",""17724""
","
",NA,images/earth.jpg,NA,NA,NA,NA,NA,NA,NA,NA,NA,NA,NA,NA,NA,fixation,NA,NA,NA,NA,NA,NA,sub62
d3-animate-choice,109,510656,0.0-61.0-0.16,FALSE,FALSE,FALSE,FALSE,"""event"",""trial"",""time""
""fullscreenenter"",""5"",""17724""
","
","
","""event"",""trial"",""time""
""fullscreenenter"",""5"",""17724""
","
",410.0149999994901,NA,48,NA,NA,3000,1,NA,NA,images/earth.jpg,images/tutrocket1,images/tutrocket2,null,images/tutrocket1,NA,1,practice,null,2,NA,NA,NA,sub62
d3-animate-choice,110,513107,0.0-61.0-1.16,FALSE,FALSE,FALSE,FALSE,"""event"",""trial"",""time""
""fullscreenenter"",""5"",""17724""
","
","
","""event"",""trial"",""time""
""fullscreenenter"",""5"",""17724""
","
",446.00999999966007,NA,49,NA,NA,3000,1,NA,NA,images/tutyellowplanet.jpg,images/tutalien4,images/tutalien3,images/tutrocket1,images/tutalien3,images/nothing.png,2,practice,true,1,common,0,2020-06-12T23:28:16Z,sub62
two-step-fixation,111,514114,0.0-61.0-2.16,FALSE,FALSE,FALSE,FALSE,"""event"",""trial"",""time""
""fullscreenenter"",""5"",""17724""
","
","
","""event"",""trial"",""time""
""fullscreenenter"",""5"",""17724""
","
",NA,images/earth.jpg,NA,NA,NA,NA,NA,NA,NA,NA,NA,NA,NA,NA,NA,fixation,NA,NA,NA,NA,NA,NA,sub62
d3-animate-choice,112,516492,0.0-61.0-0.17,FALSE,FALSE,FALSE,FALSE,"""event"",""trial"",""time""
""fullscreenenter"",""5"",""17724""
","
","
","""event"",""trial"",""time""
""fullscreenenter"",""5"",""17724""
","
",371.4049999997951,NA,49,NA,NA,3000,1,NA,NA,images/earth.jpg,images/tutrocket1,images/tutrocket2,null,images/tutrocket2,NA,1,practice,null,1,NA,NA,NA,sub62
d3-animate-choice,113,518863,0.0-61.0-1.17,FALSE,FALSE,FALSE,FALSE,"""event"",""trial"",""time""
""fullscreenenter"",""5"",""17724""
","
","
","""event"",""trial"",""time""
""fullscreenenter"",""5"",""17724""
","
",361.9449999986682,NA,49,NA,NA,3000,1,NA,NA,images/tutgreenplanet.jpg,images/tutalien2,images/tutalien1,images/tutrocket2,images/tutalien1,images/t.png,2,practice,true,1,common,1,2020-06-12T23:28:22Z,sub62
two-step-fixation,114,519868,0.0-61.0-2.17,FALSE,FALSE,FALSE,FALSE,"""event"",""trial"",""time""
""fullscreenenter"",""5"",""17724""
","
","
","""event"",""trial"",""time""
""fullscreenenter"",""5"",""17724""
","
",NA,images/earth.jpg,NA,NA,NA,NA,NA,NA,NA,NA,NA,NA,NA,NA,NA,fixation,NA,NA,NA,NA,NA,NA,sub62
d3-animate-choice,115,522249,0.0-61.0-0.18,FALSE,FALSE,FALSE,FALSE,"""event"",""trial"",""time""
""fullscreenenter"",""5"",""17724""
","
","
","""event"",""trial"",""time""
""fullscreenenter"",""5"",""17724""
","
",374.71000000007916,NA,49,NA,NA,3000,1,NA,NA,images/earth.jpg,images/tutrocket1,images/tutrocket2,null,images/tutrocket2,NA,1,practice,null,1,NA,NA,NA,sub62
d3-animate-choice,116,524733,0.0-61.0-1.18,FALSE,FALSE,FALSE,FALSE,"""event"",""trial"",""time""
""fullscreenenter"",""5"",""17724""
","
","
","""event"",""trial"",""time""
""fullscreenenter"",""5"",""17724""
","
",475.06499999877997,NA,49,NA,NA,3000,1,NA,NA,images/tutyellowplanet.jpg,images/tutalien4,images/tutalien3,images/tutrocket2,images/tutalien3,images/nothing.png,2,practice,false,1,rare,0,2020-06-12T23:28:28Z,sub62
two-step-fixation,117,525741,0.0-61.0-2.18,FALSE,FALSE,FALSE,FALSE,"""event"",""trial"",""time""
""fullscreenenter"",""5"",""17724""
","
","
","""event"",""trial"",""time""
""fullscreenenter"",""5"",""17724""
","
",NA,images/earth.jpg,NA,NA,NA,NA,NA,NA,NA,NA,NA,NA,NA,NA,NA,fixation,NA,NA,NA,NA,NA,NA,sub62
d3-animate-choice,118,528109,0.0-61.0-0.19,FALSE,FALSE,FALSE,FALSE,"""event"",""trial"",""time""
""fullscreenenter"",""5"",""17724""
","
","
","""event"",""trial"",""time""
""fullscreenenter"",""5"",""17724""
","
",363.625,NA,49,NA,NA,3000,1,NA,NA,images/earth.jpg,images/tutrocket1,images/tutrocket2,null,images/tutrocket2,NA,1,practice,null,1,NA,NA,NA,sub62
d3-animate-choice,119,530590,0.0-61.0-1.19,FALSE,FALSE,FALSE,FALSE,"""event"",""trial"",""time""
""fullscreenenter"",""5"",""17724""
","
","
","""event"",""trial"",""time""
""fullscreenenter"",""5"",""17724""
","
",476.2500000015134,NA,49,NA,NA,3000,1,NA,NA,images/tutgreenplanet.jpg,images/tutalien2,images/tutalien1,images/tutrocket2,images/tutalien1,images/nothing.png,2,practice,true,1,common,0,2020-06-12T23:28:33Z,sub62
two-step-fixation,120,531596,0.0-61.0-2.19,FALSE,FALSE,FALSE,FALSE,"""event"",""trial"",""time""
""fullscreenenter"",""5"",""17724""
","
","
","""event"",""trial"",""time""
""fullscreenenter"",""5"",""17724""
","
",NA,images/earth.jpg,NA,NA,NA,NA,NA,NA,NA,NA,NA,NA,NA,NA,NA,fixation,NA,NA,NA,NA,NA,NA,sub62
d3-instructions,121,538779,0.0-62.0,FALSE,FALSE,FALSE,FALSE,"""event"",""trial"",""time""
""fullscreenenter"",""5"",""17724""
","
","
","""event"",""trial"",""time""
""fullscreenenter"",""5"",""17724""
","
",NA,NA,NA,NA,NA,NA,NA,NA,NA,NA,NA,NA,NA,NA,NA,NA,NA,NA,NA,NA,NA,NA,sub62
audio-keyboard-response,122,544050,0.0-63.0,FALSE,FALSE,FALSE,FALSE,"""event"",""trial"",""time""
""fullscreenenter"",""5"",""17724""
","
","
","""event"",""trial"",""time""
""fullscreenenter"",""5"",""17724""
","
",5269,audio/instructions/treasure_feedback.wav,32,NA,NA,NA,NA,NA,NA,NA,NA,NA,NA,NA,NA,NA,NA,NA,NA,NA,NA,NA,sub62
d3-instructions,123,563762,0.0-64.0,FALSE,FALSE,FALSE,FALSE,"""event"",""trial"",""time""
""fullscreenenter"",""5"",""17724""
","
","
","""event"",""trial"",""time""
""fullscreenenter"",""5"",""17724""
","
",NA,NA,NA,NA,NA,NA,NA,NA,NA,NA,NA,NA,NA,NA,NA,NA,NA,NA,NA,NA,NA,NA,sub62
d3-instructions,124,578664,0.0-65.0,FALSE,FALSE,FALSE,FALSE,"""event"",""trial"",""time""
""fullscreenenter"",""5"",""17724""
","
","
","""event"",""trial"",""time""
""fullscreenenter"",""5"",""17724""
","
",NA,NA,NA,NA,NA,NA,NA,NA,NA,NA,NA,NA,NA,NA,NA,NA,NA,NA,NA,NA,NA,NA,sub62
d3-instructions,125,602914,0.0-66.0,FALSE,FALSE,FALSE,FALSE,"""event"",""trial"",""time""
""fullscreenenter"",""5"",""17724""
","
","
","""event"",""trial"",""time""
""fullscreenenter"",""5"",""17724""
","
",NA,NA,NA,NA,NA,NA,NA,NA,NA,NA,NA,NA,NA,NA,NA,NA,NA,NA,NA,NA,NA,NA,sub62
d3-instructions,126,619494,0.0-67.0,FALSE,FALSE,FALSE,FALSE,"""event"",""trial"",""time""
""fullscreenenter"",""5"",""17724""
","
","
","""event"",""trial"",""time""
""fullscreenenter"",""5"",""17724""
","
",NA,NA,NA,NA,NA,NA,NA,NA,NA,NA,NA,NA,NA,NA,NA,NA,NA,NA,NA,NA,NA,NA,sub62
d3-instructions,127,628461,0.0-68.0,FALSE,FALSE,FALSE,FALSE,"""event"",""trial"",""time""
""fullscreenenter"",""5"",""17724""
","
","
","""event"",""trial"",""time""
""fullscreenenter"",""5"",""17724""
","
",NA,NA,NA,NA,NA,NA,NA,NA,NA,NA,NA,NA,NA,NA,NA,NA,NA,NA,NA,NA,NA,NA,sub62
instructions-quiz,128,636260,0.0-69.0,FALSE,FALSE,FALSE,FALSE,"""event"",""trial"",""time""
""fullscreenenter"",""5"",""17724""
","
","
","""event"",""trial"",""time""
""fullscreenenter"",""5"",""17724""
","
",7798.614999999758,audio/quiz/Q1_Prompt.wav,NA,0,NA,NA,NA,NA,NA,NA,NA,NA,NA,NA,NA,NA,NA,NA,NA,NA,NA,NA,sub62
audio-keyboard-response,129,646527,0.0-70.0,FALSE,FALSE,FALSE,FALSE,"""event"",""trial"",""time""
""fullscreenenter"",""5"",""17724""
","
","
","""event"",""trial"",""time""
""fullscreenenter"",""5"",""17724""
","
",null,audio/quiz/Q1_Incorrect.wav,null,NA,NA,NA,NA,NA,NA,NA,NA,NA,NA,NA,NA,NA,NA,NA,NA,NA,NA,NA,sub62
instructions-quiz,130,651080,0.0-71.0,FALSE,FALSE,FALSE,FALSE,"""event"",""trial"",""time""
""fullscreenenter"",""5"",""17724""
","
","
","""event"",""trial"",""time""
""fullscreenenter"",""5"",""17724""
","
",4552.079999999492,audio/quiz/Q2_Prompt.wav,NA,0,NA,NA,NA,NA,NA,NA,NA,NA,NA,NA,NA,NA,NA,NA,NA,NA,NA,NA,sub62
audio-keyboard-response,131,663950,0.0-72.0,FALSE,FALSE,FALSE,FALSE,"""event"",""trial"",""time""
""fullscreenenter"",""5"",""17724""
","
","
","""event"",""trial"",""time""
""fullscreenenter"",""5"",""17724""
","
",null,audio/quiz/Q2_Correct.wav,null,NA,NA,NA,NA,NA,NA,NA,NA,NA,NA,NA,NA,NA,NA,NA,NA,NA,NA,NA,sub62
instructions-quiz,132,668785,0.0-73.0,FALSE,FALSE,FALSE,FALSE,"""event"",""trial"",""time""
""fullscreenenter"",""5"",""17724""
","
","
","""event"",""trial"",""time""
""fullscreenenter"",""5"",""17724""
","
",4834.295000000508,audio/quiz/Q3_Prompt.wav,NA,1,NA,NA,NA,NA,NA,NA,NA,NA,NA,NA,NA,NA,NA,NA,NA,NA,NA,NA,sub62
audio-keyboard-response,133,674585,0.0-74.0,FALSE,FALSE,FALSE,FALSE,"""event"",""trial"",""time""
""fullscreenenter"",""5"",""17724""
","
","
","""event"",""trial"",""time""
""fullscreenenter"",""5"",""17724""
","
",null,audio/quiz/Q3_Correct.wav,null,NA,NA,NA,NA,NA,NA,NA,NA,NA,NA,NA,NA,NA,NA,NA,NA,NA,NA,NA,sub62
d3-instructions,134,688261,0.0-75.0,FALSE,FALSE,FALSE,FALSE,"""event"",""trial"",""time""
""fullscreenenter"",""5"",""17724""
","
","
","""event"",""trial"",""time""
""fullscreenenter"",""5"",""17724""
","
",NA,NA,NA,NA,NA,NA,NA,NA,NA,NA,NA,NA,NA,NA,NA,NA,NA,NA,NA,NA,NA,NA,sub62
d3-animate-choice,135,691585,0.0-76.0-0.0,FALSE,FALSE,FALSE,FALSE,"""event"",""trial"",""time""
""fullscreenenter"",""5"",""17724""
","
","
","""event"",""trial"",""time""
""fullscreenenter"",""5"",""17724""
","
",1320.9750000004424,NA,49,NA,NA,3000,1,NA,NA,images/earth.jpg,images/rocket1,images/rocket2,null,images/rocket2,NA,1,real,null,1,NA,NA,NA,sub62
d3-animate-choice,136,694320,0.0-76.0-1.0,FALSE,FALSE,FALSE,FALSE,"""event"",""trial"",""time""
""fullscreenenter"",""5"",""17724""
","
","
","""event"",""trial"",""time""
""fullscreenenter"",""5"",""17724""
","
",730.9399999994785,NA,49,NA,NA,3000,1,NA,NA,images/purpleplanet.jpg,images/alien4,images/alien3,images/rocket2,images/alien3,images/nothing.png,2,real,false,1,rare,0,2020-06-12T23:31:17Z,sub62
two-step-fixation,137,695326,0.0-76.0-2.0,FALSE,FALSE,FALSE,FALSE,"""event"",""trial"",""time""
""fullscreenenter"",""5"",""17724""
","
","
","""event"",""trial"",""time""
""fullscreenenter"",""5"",""17724""
","
",NA,images/earth.jpg,NA,NA,NA,NA,NA,NA,NA,NA,NA,NA,NA,NA,NA,fixation,NA,NA,NA,NA,NA,NA,sub62
d3-animate-choice,138,697731,0.0-76.0-0.1,FALSE,FALSE,FALSE,FALSE,"""event"",""trial"",""time""
""fullscreenenter"",""5"",""17724""
","
","
","""event"",""trial"",""time""
""fullscreenenter"",""5"",""17724""
","
",401.32500000076834,NA,49,NA,NA,3000,1,NA,NA,images/earth.jpg,images/rocket1,images/rocket2,null,images/rocket2,NA,1,real,null,1,NA,NA,NA,sub62
d3-animate-choice,139,700142,0.0-76.0-1.1,FALSE,FALSE,FALSE,FALSE,"""event"",""trial"",""time""
""fullscreenenter"",""5"",""17724""
","
","
","""event"",""trial"",""time""
""fullscreenenter"",""5"",""17724""
","
",408.21000000135973,NA,48,NA,NA,3000,1,NA,NA,images/redplanet1.jpg,images/alien2,images/alien1,images/rocket2,images/alien2,images/nothing.png,2,real,true,2,common,0,2020-06-12T23:31:23Z,sub62
two-step-fixation,140,701145,0.0-76.0-2.1,FALSE,FALSE,FALSE,FALSE,"""event"",""trial"",""time""
""fullscreenenter"",""5"",""17724""
","
","
","""event"",""trial"",""time""
""fullscreenenter"",""5"",""17724""
","
",NA,images/earth.jpg,NA,NA,NA,NA,NA,NA,NA,NA,NA,NA,NA,NA,NA,fixation,NA,NA,NA,NA,NA,NA,sub62
d3-animate-choice,141,704187,0.0-76.0-0.2,FALSE,FALSE,FALSE,FALSE,"""event"",""trial"",""time""
""fullscreenenter"",""5"",""17724""
","
","
","""event"",""trial"",""time""
""fullscreenenter"",""5"",""17724""
","
",620.5699999991339,NA,50,NA,NA,3000,1,1037.609999999404,48,images/earth.jpg,images/rocket1,images/rocket2,null,images/rocket1,NA,1,real,null,NA,NA,NA,NA,sub62
d3-animate-choice,142,706760,0.0-76.0-1.2,FALSE,FALSE,FALSE,FALSE,"""event"",""trial"",""time""
""fullscreenenter"",""5"",""17724""
","
","
","""event"",""trial"",""time""
""fullscreenenter"",""5"",""17724""
","
",568.6450000011828,NA,48,NA,NA,3000,1,NA,NA,images/purpleplanet.jpg,images/alien4,images/alien3,images/rocket1,images/alien4,images/t.png,2,real,true,2,common,1,2020-06-12T23:31:30Z,sub62
two-step-fixation,143,707765,0.0-76.0-2.2,FALSE,FALSE,FALSE,FALSE,"""event"",""trial"",""time""
""fullscreenenter"",""5"",""17724""
","
","
","""event"",""trial"",""time""
""fullscreenenter"",""5"",""17724""
","
",NA,images/earth.jpg,NA,NA,NA,NA,NA,NA,NA,NA,NA,NA,NA,NA,NA,fixation,NA,NA,NA,NA,NA,NA,sub62
d3-animate-choice,144,710361,0.0-76.0-0.3,FALSE,FALSE,FALSE,FALSE,"""event"",""trial"",""time""
""fullscreenenter"",""5"",""17724""
","
","
","""event"",""trial"",""time""
""fullscreenenter"",""5"",""17724""
","
",590.4499999996042,NA,48,NA,NA,3000,1,NA,NA,images/earth.jpg,images/rocket1,images/rocket2,null,images/rocket1,NA,1,real,null,2,NA,NA,NA,sub62
d3-animate-choice,145,712835,0.0-76.0-1.3,FALSE,FALSE,FALSE,FALSE,"""event"",""trial"",""time""
""fullscreenenter"",""5"",""17724""
","
","
","""event"",""trial"",""time""
""fullscreenenter"",""5"",""17724""
","
",471.2400000008056,NA,48,NA,NA,3000,1,NA,NA,images/purpleplanet.jpg,images/alien4,images/alien3,images/rocket1,images/alien4,images/t.png,2,real,true,2,common,1,2020-06-12T23:31:36Z,sub62
two-step-fixation,146,713838,0.0-76.0-2.3,FALSE,FALSE,FALSE,FALSE,"""event"",""trial"",""time""
""fullscreenenter"",""5"",""17724""
","
","
","""event"",""trial"",""time""
""fullscreenenter"",""5"",""17724""
","
",NA,images/earth.jpg,NA,NA,NA,NA,NA,NA,NA,NA,NA,NA,NA,NA,NA,fixation,NA,NA,NA,NA,NA,NA,sub62
d3-animate-choice,147,716152,0.0-76.0-0.4,FALSE,FALSE,FALSE,FALSE,"""event"",""trial"",""time""
""fullscreenenter"",""5"",""17724""
","
","
","""event"",""trial"",""time""
""fullscreenenter"",""5"",""17724""
","
",311.7750000001397,NA,48,NA,NA,3000,1,NA,NA,images/earth.jpg,images/rocket1,images/rocket2,null,images/rocket1,NA,1,real,null,2,NA,NA,NA,sub62
d3-animate-choice,148,719141,0.0-76.0-1.4,FALSE,FALSE,FALSE,FALSE,"""event"",""trial"",""time""
""fullscreenenter"",""5"",""17724""
","
","
","""event"",""trial"",""time""
""fullscreenenter"",""5"",""17724""
","
",984.2550000011688,NA,49,NA,NA,3000,1,NA,NA,images/redplanet1.jpg,images/alien2,images/alien1,images/rocket1,images/alien1,images/t.png,2,real,false,1,rare,1,2020-06-12T23:31:42Z,sub62
two-step-fixation,149,720145,0.0-76.0-2.4,FALSE,FALSE,FALSE,FALSE,"""event"",""trial"",""time""
""fullscreenenter"",""5"",""17724""
","
","
","""event"",""trial"",""time""
""fullscreenenter"",""5"",""17724""
","
",NA,images/earth.jpg,NA,NA,NA,NA,NA,NA,NA,NA,NA,NA,NA,NA,NA,fixation,NA,NA,NA,NA,NA,NA,sub62
d3-animate-choice,150,722538,0.0-76.0-0.5,FALSE,FALSE,FALSE,FALSE,"""event"",""trial"",""time""
""fullscreenenter"",""5"",""17724""
","
","
","""event"",""trial"",""time""
""fullscreenenter"",""5"",""17724""
","
",386.6499999985099,NA,49,NA,NA,3000,1,NA,NA,images/earth.jpg,images/rocket1,images/rocket2,null,images/rocket2,NA,1,real,null,1,NA,NA,NA,sub62
d3-animate-choice,151,725237,0.0-76.0-1.5,FALSE,FALSE,FALSE,FALSE,"""event"",""trial"",""time""
""fullscreenenter"",""5"",""17724""
","
","
","""event"",""trial"",""time""
""fullscreenenter"",""5"",""17724""
","
",694.8549999997485,NA,48,NA,NA,3000,1,NA,NA,images/purpleplanet.jpg,images/alien4,images/alien3,images/rocket2,images/alien4,images/t.png,2,real,false,2,rare,1,2020-06-12T23:31:48Z,sub62
two-step-fixation,152,726241,0.0-76.0-2.5,FALSE,FALSE,FALSE,FALSE,"""event"",""trial"",""time""
""fullscreenenter"",""5"",""17724""
","
","
","""event"",""trial"",""time""
""fullscreenenter"",""5"",""17724""
","
",NA,images/earth.jpg,NA,NA,NA,NA,NA,NA,NA,NA,NA,NA,NA,NA,NA,fixation,NA,NA,NA,NA,NA,NA,sub62
d3-animate-choice,153,728936,0.0-76.0-0.6,FALSE,FALSE,FALSE,FALSE,"""event"",""trial"",""time""
""fullscreenenter"",""5"",""17724""
","
","
","""event"",""trial"",""time""
""fullscreenenter"",""5"",""17724""
","
",687.3500000002095,NA,49,NA,NA,3000,1,NA,NA,images/earth.jpg,images/rocket1,images/rocket2,null,images/rocket2,NA,1,real,null,1,NA,NA,NA,sub62
d3-animate-choice,154,731876,0.0-76.0-1.6,FALSE,FALSE,FALSE,FALSE,"""event"",""trial"",""time""
""fullscreenenter"",""5"",""17724""
","
","
","""event"",""trial"",""time""
""fullscreenenter"",""5"",""17724""
","
",934.129999999539,NA,49,NA,NA,3000,1,NA,NA,images/redplanet1.jpg,images/alien2,images/alien1,images/rocket2,images/alien1,images/nothing.png,2,real,true,1,common,0,2020-06-12T23:31:55Z,sub62
two-step-fixation,155,732879,0.0-76.0-2.6,FALSE,FALSE,FALSE,FALSE,"""event"",""trial"",""time""
""fullscreenenter"",""5"",""17724""
","
","
","""event"",""trial"",""time""
""fullscreenenter"",""5"",""17724""
","
",NA,images/earth.jpg,NA,NA,NA,NA,NA,NA,NA,NA,NA,NA,NA,NA,NA,fixation,NA,NA,NA,NA,NA,NA,sub62
d3-animate-choice,156,735232,0.0-76.0-0.7,FALSE,FALSE,FALSE,FALSE,"""event"",""trial"",""time""
""fullscreenenter"",""5"",""17724""
","
","
","""event"",""trial"",""time""
""fullscreenenter"",""5"",""17724""
","
",347.9299999999348,NA,48,NA,NA,3000,1,NA,NA,images/earth.jpg,images/rocket1,images/rocket2,null,images/rocket1,NA,1,real,null,2,NA,NA,NA,sub62
d3-animate-choice,157,737783,0.0-76.0-1.7,FALSE,FALSE,FALSE,FALSE,"""event"",""trial"",""time""
""fullscreenenter"",""5"",""17724""
","
","
","""event"",""trial"",""time""
""fullscreenenter"",""5"",""17724""
","
",545.8899999994319,NA,48,NA,NA,3000,1,NA,NA,images/purpleplanet.jpg,images/alien4,images/alien3,images/rocket1,images/alien4,images/nothing.png,2,real,true,2,common,0,2020-06-12T23:32:01Z,sub62
two-step-fixation,158,738790,0.0-76.0-2.7,FALSE,FALSE,FALSE,FALSE,"""event"",""trial"",""time""
""fullscreenenter"",""5"",""17724""
","
","
","""event"",""trial"",""time""
""fullscreenenter"",""5"",""17724""
","
",NA,images/earth.jpg,NA,NA,NA,NA,NA,NA,NA,NA,NA,NA,NA,NA,NA,fixation,NA,NA,NA,NA,NA,NA,sub62
d3-animate-choice,159,741239,0.0-76.0-0.8,FALSE,FALSE,FALSE,FALSE,"""event"",""trial"",""time""
""fullscreenenter"",""5"",""17724""
","
","
","""event"",""trial"",""time""
""fullscreenenter"",""5"",""17724""
","
",444.66499999910593,NA,48,NA,NA,3000,1,NA,NA,images/earth.jpg,images/rocket1,images/rocket2,null,images/rocket1,NA,1,real,null,2,NA,NA,NA,sub62
d3-animate-choice,160,743872,0.0-76.0-1.8,FALSE,FALSE,FALSE,FALSE,"""event"",""trial"",""time""
""fullscreenenter"",""5"",""17724""
","
","
","""event"",""trial"",""time""
""fullscreenenter"",""5"",""17724""
","
",624.934999999823,NA,48,NA,NA,3000,1,NA,NA,images/purpleplanet.jpg,images/alien4,images/alien3,images/rocket1,images/alien4,images/t.png,2,real,true,2,common,1,2020-06-12T23:32:07Z,sub62
two-step-fixation,161,744881,0.0-76.0-2.8,FALSE,FALSE,FALSE,FALSE,"""event"",""trial"",""time""
""fullscreenenter"",""5"",""17724""
","
","
","""event"",""trial"",""time""
""fullscreenenter"",""5"",""17724""
","
",NA,images/earth.jpg,NA,NA,NA,NA,NA,NA,NA,NA,NA,NA,NA,NA,NA,fixation,NA,NA,NA,NA,NA,NA,sub62
d3-animate-choice,162,747390,0.0-76.0-0.9,FALSE,FALSE,FALSE,FALSE,"""event"",""trial"",""time""
""fullscreenenter"",""5"",""17724""
","
","
","""event"",""trial"",""time""
""fullscreenenter"",""5"",""17724""
","
",499.74000000115484,NA,48,NA,NA,3000,1,NA,NA,images/earth.jpg,images/rocket1,images/rocket2,null,images/rocket1,NA,1,real,null,2,NA,NA,NA,sub62
d3-animate-choice,163,750181,0.0-76.0-1.9,FALSE,FALSE,FALSE,FALSE,"""event"",""trial"",""time""
""fullscreenenter"",""5"",""17724""
","
","
","""event"",""trial"",""time""
""fullscreenenter"",""5"",""17724""
","
",786.2749999985099,NA,49,NA,NA,3000,1,NA,NA,images/redplanet1.jpg,images/alien2,images/alien1,images/rocket1,images/alien1,images/t.png,2,real,false,1,rare,1,2020-06-12T23:32:13Z,sub62
two-step-fixation,164,751185,0.0-76.0-2.9,FALSE,FALSE,FALSE,FALSE,"""event"",""trial"",""time""
""fullscreenenter"",""5"",""17724""
","
","
","""event"",""trial"",""time""
""fullscreenenter"",""5"",""17724""
","
",NA,images/earth.jpg,NA,NA,NA,NA,NA,NA,NA,NA,NA,NA,NA,NA,NA,fixation,NA,NA,NA,NA,NA,NA,sub62
d3-animate-choice,165,753576,0.0-76.0-0.10,FALSE,FALSE,FALSE,FALSE,"""event"",""trial"",""time""
""fullscreenenter"",""5"",""17724""
","
","
","""event"",""trial"",""time""
""fullscreenenter"",""5"",""17724""
","
",382.8950000006007,NA,48,NA,NA,3000,1,NA,NA,images/earth.jpg,images/rocket1,images/rocket2,null,images/rocket1,NA,1,real,null,2,NA,NA,NA,sub62
d3-animate-choice,166,756179,0.0-76.0-1.10,FALSE,FALSE,FALSE,FALSE,"""event"",""trial"",""time""
""fullscreenenter"",""5"",""17724""
","
","
","""event"",""trial"",""time""
""fullscreenenter"",""5"",""17724""
","
",596.6600000010803,NA,48,NA,NA,3000,1,NA,NA,images/purpleplanet.jpg,images/alien4,images/alien3,images/rocket1,images/alien4,images/t.png,2,real,true,2,common,1,2020-06-12T23:32:19Z,sub62
two-step-fixation,167,757183,0.0-76.0-2.10,FALSE,FALSE,FALSE,FALSE,"""event"",""trial"",""time""
""fullscreenenter"",""5"",""17724""
","
","
","""event"",""trial"",""time""
""fullscreenenter"",""5"",""17724""
","
",NA,images/earth.jpg,NA,NA,NA,NA,NA,NA,NA,NA,NA,NA,NA,NA,NA,fixation,NA,NA,NA,NA,NA,NA,sub62
d3-animate-choice,168,759667,0.0-76.0-0.11,FALSE,FALSE,FALSE,FALSE,"""event"",""trial"",""time""
""fullscreenenter"",""5"",""17724""
","
","
","""event"",""trial"",""time""
""fullscreenenter"",""5"",""17724""
","
",476.0600000008708,NA,49,NA,NA,3000,1,NA,NA,images/earth.jpg,images/rocket1,images/rocket2,null,images/rocket2,NA,1,real,null,1,NA,NA,NA,sub62
d3-animate-choice,169,762154,0.0-76.0-1.11,FALSE,FALSE,FALSE,FALSE,"""event"",""trial"",""time""
""fullscreenenter"",""5"",""17724""
","
","
","""event"",""trial"",""time""
""fullscreenenter"",""5"",""17724""
","
",482.49999999825377,NA,49,NA,NA,3000,1,NA,NA,images/redplanet1.jpg,images/alien2,images/alien1,images/rocket2,images/alien1,images/nothing.png,2,real,true,1,common,0,2020-06-12T23:32:25Z,sub62
two-step-fixation,170,763159,0.0-76.0-2.11,FALSE,FALSE,FALSE,FALSE,"""event"",""trial"",""time""
""fullscreenenter"",""5"",""17724""
","
","
","""event"",""trial"",""time""
""fullscreenenter"",""5"",""17724""
","
",NA,images/earth.jpg,NA,NA,NA,NA,NA,NA,NA,NA,NA,NA,NA,NA,NA,fixation,NA,NA,NA,NA,NA,NA,sub62
d3-animate-choice,171,765535,0.0-76.0-0.12,FALSE,FALSE,FALSE,FALSE,"""event"",""trial"",""time""
""fullscreenenter"",""5"",""17724""
","
","
","""event"",""trial"",""time""
""fullscreenenter"",""5"",""17724""
","
",368.3600000003353,NA,48,NA,NA,3000,1,NA,NA,images/earth.jpg,images/rocket1,images/rocket2,null,images/rocket1,NA,1,real,null,2,NA,NA,NA,sub62
d3-animate-choice,172,767927,0.0-76.0-1.12,FALSE,FALSE,FALSE,FALSE,"""event"",""trial"",""time""
""fullscreenenter"",""5"",""17724""
","
","
","""event"",""trial"",""time""
""fullscreenenter"",""5"",""17724""
","
",387.6450000007171,NA,48,NA,NA,3000,1,NA,NA,images/purpleplanet.jpg,images/alien4,images/alien3,images/rocket1,images/alien4,images/t.png,2,real,true,2,common,1,2020-06-12T23:32:31Z,sub62
two-step-fixation,173,768934,0.0-76.0-2.12,FALSE,FALSE,FALSE,FALSE,"""event"",""trial"",""time""
""fullscreenenter"",""5"",""17724""
","
","
","""event"",""trial"",""time""
""fullscreenenter"",""5"",""17724""
","
",NA,images/earth.jpg,NA,NA,NA,NA,NA,NA,NA,NA,NA,NA,NA,NA,NA,fixation,NA,NA,NA,NA,NA,NA,sub62
d3-animate-choice,174,771409,0.0-76.0-0.13,FALSE,FALSE,FALSE,FALSE,"""event"",""trial"",""time""
""fullscreenenter"",""5"",""17724""
","
","
","""event"",""trial"",""time""
""fullscreenenter"",""5"",""17724""
","
",468.61499999987427,NA,48,NA,NA,3000,1,NA,NA,images/earth.jpg,images/rocket1,images/rocket2,null,images/rocket1,NA,1,real,null,2,NA,NA,NA,sub62
d3-animate-choice,175,773866,0.0-76.0-1.13,FALSE,FALSE,FALSE,FALSE,"""event"",""trial"",""time""
""fullscreenenter"",""5"",""17724""
","
","
","""event"",""trial"",""time""
""fullscreenenter"",""5"",""17724""
","
",449.90499999944586,NA,48,NA,NA,3000,1,NA,NA,images/purpleplanet.jpg,images/alien4,images/alien3,images/rocket1,images/alien4,images/t.png,2,real,true,2,common,1,2020-06-12T23:32:37Z,sub62
two-step-fixation,176,774874,0.0-76.0-2.13,FALSE,FALSE,FALSE,FALSE,"""event"",""trial"",""time""
""fullscreenenter"",""5"",""17724""
","
","
","""event"",""trial"",""time""
""fullscreenenter"",""5"",""17724""
","
",NA,images/earth.jpg,NA,NA,NA,NA,NA,NA,NA,NA,NA,NA,NA,NA,NA,fixation,NA,NA,NA,NA,NA,NA,sub62
d3-animate-choice,177,777193,0.0-76.0-0.14,FALSE,FALSE,FALSE,FALSE,"""event"",""trial"",""time""
""fullscreenenter"",""5"",""17724""
","
","
","""event"",""trial"",""time""
""fullscreenenter"",""5"",""17724""
","
",311.80999999912456,NA,48,NA,NA,3000,1,NA,NA,images/earth.jpg,images/rocket1,images/rocket2,null,images/rocket1,NA,1,real,null,2,NA,NA,NA,sub62
d3-animate-choice,178,779668,0.0-76.0-1.14,FALSE,FALSE,FALSE,FALSE,"""event"",""trial"",""time""
""fullscreenenter"",""5"",""17724""
","
","
","""event"",""trial"",""time""
""fullscreenenter"",""5"",""17724""
","
",466.37999999988824,NA,48,NA,NA,3000,1,NA,NA,images/redplanet1.jpg,images/alien2,images/alien1,images/rocket1,images/alien2,images/nothing.png,2,real,false,2,rare,0,2020-06-12T23:32:43Z,sub62
two-step-fixation,179,780677,0.0-76.0-2.14,FALSE,FALSE,FALSE,FALSE,"""event"",""trial"",""time""
""fullscreenenter"",""5"",""17724""
","
","
","""event"",""trial"",""time""
""fullscreenenter"",""5"",""17724""
","
",NA,images/earth.jpg,NA,NA,NA,NA,NA,NA,NA,NA,NA,NA,NA,NA,NA,fixation,NA,NA,NA,NA,NA,NA,sub62
d3-animate-choice,180,783020,0.0-76.0-0.15,FALSE,FALSE,FALSE,FALSE,"""event"",""trial"",""time""
""fullscreenenter"",""5"",""17724""
","
","
","""event"",""trial"",""time""
""fullscreenenter"",""5"",""17724""
","
",335.9950000012759,NA,48,NA,NA,3000,1,NA,NA,images/earth.jpg,images/rocket1,images/rocket2,null,images/rocket1,NA,1,real,null,2,NA,NA,NA,sub62
d3-animate-choice,181,785700,0.0-76.0-1.15,FALSE,FALSE,FALSE,FALSE,"""event"",""trial"",""time""
""fullscreenenter"",""5"",""17724""
","
","
","""event"",""trial"",""time""
""fullscreenenter"",""5"",""17724""
","
",673.3450000010198,NA,49,NA,NA,3000,1,NA,NA,images/redplanet1.jpg,images/alien2,images/alien1,images/rocket1,images/alien1,images/nothing.png,2,real,false,1,rare,0,2020-06-12T23:32:49Z,sub62
two-step-fixation,182,786708,0.0-76.0-2.15,FALSE,FALSE,FALSE,FALSE,"""event"",""trial"",""time""
""fullscreenenter"",""5"",""17724""
","
","
","""event"",""trial"",""time""
""fullscreenenter"",""5"",""17724""
","
",NA,images/earth.jpg,NA,NA,NA,NA,NA,NA,NA,NA,NA,NA,NA,NA,NA,fixation,NA,NA,NA,NA,NA,NA,sub62
d3-animate-choice,183,789001,0.0-76.0-0.16,FALSE,FALSE,FALSE,FALSE,"""event"",""trial"",""time""
""fullscreenenter"",""5"",""17724""
","
","
","""event"",""trial"",""time""
""fullscreenenter"",""5"",""17724""
","
",286.08999999961816,NA,49,NA,NA,3000,1,NA,NA,images/earth.jpg,images/rocket1,images/rocket2,null,images/rocket2,NA,1,real,null,1,NA,NA,NA,sub62
d3-animate-choice,184,791534,0.0-76.0-1.16,FALSE,FALSE,FALSE,FALSE,"""event"",""trial"",""time""
""fullscreenenter"",""5"",""17724""
","
","
","""event"",""trial"",""time""
""fullscreenenter"",""5"",""17724""
","
",525.5400000005029,NA,49,NA,NA,3000,1,NA,NA,images/redplanet1.jpg,images/alien2,images/alien1,images/rocket2,images/alien1,images/t.png,2,real,true,1,common,1,2020-06-12T23:32:54Z,sub62
two-step-fixation,185,792540,0.0-76.0-2.16,FALSE,FALSE,FALSE,FALSE,"""event"",""trial"",""time""
""fullscreenenter"",""5"",""17724""
","
","
","""event"",""trial"",""time""
""fullscreenenter"",""5"",""17724""
","
",NA,images/earth.jpg,NA,NA,NA,NA,NA,NA,NA,NA,NA,NA,NA,NA,NA,fixation,NA,NA,NA,NA,NA,NA,sub62
d3-animate-choice,186,794864,0.0-76.0-0.17,FALSE,FALSE,FALSE,FALSE,"""event"",""trial"",""time""
""fullscreenenter"",""5"",""17724""
","
","
","""event"",""trial"",""time""
""fullscreenenter"",""5"",""17724""
","
",316.8599999990547,NA,48,NA,NA,3000,1,NA,NA,images/earth.jpg,images/rocket1,images/rocket2,null,images/rocket1,NA,1,real,null,2,NA,NA,NA,sub62
d3-animate-choice,187,797394,0.0-76.0-1.17,FALSE,FALSE,FALSE,FALSE,"""event"",""trial"",""time""
""fullscreenenter"",""5"",""17724""
","
","
","""event"",""trial"",""time""
""fullscreenenter"",""5"",""17724""
","
",522.2049999992596,NA,48,NA,NA,3000,1,NA,NA,images/purpleplanet.jpg,images/alien4,images/alien3,images/rocket1,images/alien4,images/t.png,2,real,true,2,common,1,2020-06-12T23:33:00Z,sub62
two-step-fixation,188,798399,0.0-76.0-2.17,FALSE,FALSE,FALSE,FALSE,"""event"",""trial"",""time""
""fullscreenenter"",""5"",""17724""
","
","
","""event"",""trial"",""time""
""fullscreenenter"",""5"",""17724""
","
",NA,images/earth.jpg,NA,NA,NA,NA,NA,NA,NA,NA,NA,NA,NA,NA,NA,fixation,NA,NA,NA,NA,NA,NA,sub62
d3-animate-choice,189,800810,0.0-76.0-0.18,FALSE,FALSE,FALSE,FALSE,"""event"",""trial"",""time""
""fullscreenenter"",""5"",""17724""
","
","
","""event"",""trial"",""time""
""fullscreenenter"",""5"",""17724""
","
",405.11500000138767,NA,48,NA,NA,3000,1,NA,NA,images/earth.jpg,images/rocket1,images/rocket2,null,images/rocket1,NA,1,real,null,2,NA,NA,NA,sub62
d3-animate-choice,190,803416,0.0-76.0-1.18,FALSE,FALSE,FALSE,FALSE,"""event"",""trial"",""time""
""fullscreenenter"",""5"",""17724""
","
","
","""event"",""trial"",""time""
""fullscreenenter"",""5"",""17724""
","
",600.5399999994552,NA,48,NA,NA,3000,1,NA,NA,images/purpleplanet.jpg,images/alien4,images/alien3,images/rocket1,images/alien4,images/t.png,2,real,true,2,common,1,2020-06-12T23:33:06Z,sub62
two-step-fixation,191,804423,0.0-76.0-2.18,FALSE,FALSE,FALSE,FALSE,"""event"",""trial"",""time""
""fullscreenenter"",""5"",""17724""
","
","
","""event"",""trial"",""time""
""fullscreenenter"",""5"",""17724""
","
",NA,images/earth.jpg,NA,NA,NA,NA,NA,NA,NA,NA,NA,NA,NA,NA,NA,fixation,NA,NA,NA,NA,NA,NA,sub62
d3-animate-choice,192,806794,0.0-76.0-0.19,FALSE,FALSE,FALSE,FALSE,"""event"",""trial"",""time""
""fullscreenenter"",""5"",""17724""
","
","
","""event"",""trial"",""time""
""fullscreenenter"",""5"",""17724""
","
",367.1299999987241,NA,48,NA,NA,3000,1,NA,NA,images/earth.jpg,images/rocket1,images/rocket2,null,images/rocket1,NA,1,real,null,2,NA,NA,NA,sub62
d3-animate-choice,193,809557,0.0-76.0-1.19,FALSE,FALSE,FALSE,FALSE,"""event"",""trial"",""time""
""fullscreenenter"",""5"",""17724""
","
","
","""event"",""trial"",""time""
""fullscreenenter"",""5"",""17724""
","
",757.4549999990268,NA,49,NA,NA,3000,1,NA,NA,images/redplanet1.jpg,images/alien2,images/alien1,images/rocket1,images/alien1,images/t.png,2,real,false,1,rare,1,2020-06-12T23:33:12Z,sub62
two-step-fixation,194,810562,0.0-76.0-2.19,FALSE,FALSE,FALSE,FALSE,"""event"",""trial"",""time""
""fullscreenenter"",""5"",""17724""
","
","
","""event"",""trial"",""time""
""fullscreenenter"",""5"",""17724""
","
",NA,images/earth.jpg,NA,NA,NA,NA,NA,NA,NA,NA,NA,NA,NA,NA,NA,fixation,NA,NA,NA,NA,NA,NA,sub62
d3-animate-choice,195,812920,0.0-76.0-0.20,FALSE,FALSE,FALSE,FALSE,"""event"",""trial"",""time""
""fullscreenenter"",""5"",""17724""
","
","
","""event"",""trial"",""time""
""fullscreenenter"",""5"",""17724""
","
",352.40999999956694,NA,48,NA,NA,3000,1,NA,NA,images/earth.jpg,images/rocket1,images/rocket2,null,images/rocket1,NA,1,real,null,2,NA,NA,NA,sub62
d3-animate-choice,196,815463,0.0-76.0-1.20,FALSE,FALSE,FALSE,FALSE,"""event"",""trial"",""time""
""fullscreenenter"",""5"",""17724""
","
","
","""event"",""trial"",""time""
""fullscreenenter"",""5"",""17724""
","
",536.6400000002468,NA,48,NA,NA,3000,1,NA,NA,images/purpleplanet.jpg,images/alien4,images/alien3,images/rocket1,images/alien4,images/t.png,2,real,true,2,common,1,2020-06-12T23:33:18Z,sub62
two-step-fixation,197,816467,0.0-76.0-2.20,FALSE,FALSE,FALSE,FALSE,"""event"",""trial"",""time""
""fullscreenenter"",""5"",""17724""
","
","
","""event"",""trial"",""time""
""fullscreenenter"",""5"",""17724""
","
",NA,images/earth.jpg,NA,NA,NA,NA,NA,NA,NA,NA,NA,NA,NA,NA,NA,fixation,NA,NA,NA,NA,NA,NA,sub62
d3-animate-choice,198,818796,0.0-76.0-0.21,FALSE,FALSE,FALSE,FALSE,"""event"",""trial"",""time""
""fullscreenenter"",""5"",""17724""
","
","
","""event"",""trial"",""time""
""fullscreenenter"",""5"",""17724""
","
",321.12500000034925,NA,48,NA,NA,3000,1,NA,NA,images/earth.jpg,images/rocket1,images/rocket2,null,images/rocket1,NA,1,real,null,2,NA,NA,NA,sub62
d3-animate-choice,199,821240,0.0-76.0-1.21,FALSE,FALSE,FALSE,FALSE,"""event"",""trial"",""time""
""fullscreenenter"",""5"",""17724""
","
","
","""event"",""trial"",""time""
""fullscreenenter"",""5"",""17724""
","
",438.25000000104774,NA,48,NA,NA,3000,1,NA,NA,images/purpleplanet.jpg,images/alien4,images/alien3,images/rocket1,images/alien4,images/t.png,2,real,true,2,common,1,2020-06-12T23:33:24Z,sub62
two-step-fixation,200,822245,0.0-76.0-2.21,FALSE,FALSE,FALSE,FALSE,"""event"",""trial"",""time""
""fullscreenenter"",""5"",""17724""
","
","
","""event"",""trial"",""time""
""fullscreenenter"",""5"",""17724""
","
",NA,images/earth.jpg,NA,NA,NA,NA,NA,NA,NA,NA,NA,NA,NA,NA,NA,fixation,NA,NA,NA,NA,NA,NA,sub62
d3-animate-choice,201,824558,0.0-76.0-0.22,FALSE,FALSE,FALSE,FALSE,"""event"",""trial"",""time""
""fullscreenenter"",""5"",""17724""
","
","
","""event"",""trial"",""time""
""fullscreenenter"",""5"",""17724""
","
",308.3699999988312,NA,48,NA,NA,3000,1,NA,NA,images/earth.jpg,images/rocket1,images/rocket2,null,images/rocket1,NA,1,real,null,2,NA,NA,NA,sub62
d3-animate-choice,202,827227,0.0-76.0-1.22,FALSE,FALSE,FALSE,FALSE,"""event"",""trial"",""time""
""fullscreenenter"",""5"",""17724""
","
","
","""event"",""trial"",""time""
""fullscreenenter"",""5"",""17724""
","
",662.6699999996927,NA,49,NA,NA,3000,1,NA,NA,images/redplanet1.jpg,images/alien2,images/alien1,images/rocket1,images/alien1,images/nothing.png,2,real,false,1,rare,0,2020-06-12T23:33:30Z,sub62
two-step-fixation,203,828233,0.0-76.0-2.22,FALSE,FALSE,FALSE,FALSE,"""event"",""trial"",""time""
""fullscreenenter"",""5"",""17724""
","
","
","""event"",""trial"",""time""
""fullscreenenter"",""5"",""17724""
","
",NA,images/earth.jpg,NA,NA,NA,NA,NA,NA,NA,NA,NA,NA,NA,NA,NA,fixation,NA,NA,NA,NA,NA,NA,sub62
d3-animate-choice,204,830504,0.0-76.0-0.23,FALSE,FALSE,FALSE,FALSE,"""event"",""trial"",""time""
""fullscreenenter"",""5"",""17724""
","
","
","""event"",""trial"",""time""
""fullscreenenter"",""5"",""17724""
","
",264.885000000475,NA,48,NA,NA,3000,1,NA,NA,images/earth.jpg,images/rocket1,images/rocket2,null,images/rocket1,NA,1,real,null,2,NA,NA,NA,sub62
d3-animate-choice,205,833074,0.0-76.0-1.23,FALSE,FALSE,FALSE,FALSE,"""event"",""trial"",""time""
""fullscreenenter"",""5"",""17724""
","
","
","""event"",""trial"",""time""
""fullscreenenter"",""5"",""17724""
","
",565.7350000001024,NA,48,NA,NA,3000,1,NA,NA,images/purpleplanet.jpg,images/alien4,images/alien3,images/rocket1,images/alien4,images/nothing.png,2,real,true,2,common,0,2020-06-12T23:33:36Z,sub62
two-step-fixation,206,834080,0.0-76.0-2.23,FALSE,FALSE,FALSE,FALSE,"""event"",""trial"",""time""
""fullscreenenter"",""5"",""17724""
","
","
","""event"",""trial"",""time""
""fullscreenenter"",""5"",""17724""
","
",NA,images/earth.jpg,NA,NA,NA,NA,NA,NA,NA,NA,NA,NA,NA,NA,NA,fixation,NA,NA,NA,NA,NA,NA,sub62
d3-animate-choice,207,836396,0.0-76.0-0.24,FALSE,FALSE,FALSE,FALSE,"""event"",""trial"",""time""
""fullscreenenter"",""5"",""17724""
","
","
","""event"",""trial"",""time""
""fullscreenenter"",""5"",""17724""
","
",307.43999999866355,NA,48,NA,NA,3000,1,NA,NA,images/earth.jpg,images/rocket1,images/rocket2,null,images/rocket1,NA,1,real,null,2,NA,NA,NA,sub62
d3-animate-choice,208,838835,0.0-76.0-1.24,FALSE,FALSE,FALSE,FALSE,"""event"",""trial"",""time""
""fullscreenenter"",""5"",""17724""
","
","
","""event"",""trial"",""time""
""fullscreenenter"",""5"",""17724""
","
",433.9849999996368,NA,49,NA,NA,3000,1,NA,NA,images/purpleplanet.jpg,images/alien4,images/alien3,images/rocket1,images/alien3,images/t.png,2,real,true,1,common,1,2020-06-12T23:33:42Z,sub62
two-step-fixation,209,839841,0.0-76.0-2.24,FALSE,FALSE,FALSE,FALSE,"""event"",""trial"",""time""
""fullscreenenter"",""5"",""17724""
","
","
","""event"",""trial"",""time""
""fullscreenenter"",""5"",""17724""
","
",NA,images/earth.jpg,NA,NA,NA,NA,NA,NA,NA,NA,NA,NA,NA,NA,NA,fixation,NA,NA,NA,NA,NA,NA,sub62
d3-animate-choice,210,842170,0.0-76.0-0.25,FALSE,FALSE,FALSE,FALSE,"""event"",""trial"",""time""
""fullscreenenter"",""5"",""17724""
","
","
","""event"",""trial"",""time""
""fullscreenenter"",""5"",""17724""
","
",324.23500000010245,NA,48,NA,NA,3000,1,NA,NA,images/earth.jpg,images/rocket1,images/rocket2,null,images/rocket1,NA,1,real,null,2,NA,NA,NA,sub62
d3-animate-choice,211,845315,0.0-76.0-1.25,FALSE,FALSE,FALSE,FALSE,"""event"",""trial"",""time""
""fullscreenenter"",""5"",""17724""
","
","
","""event"",""trial"",""time""
""fullscreenenter"",""5"",""17724""
","
",1138.1149999997579,NA,49,NA,NA,3000,1,NA,NA,images/redplanet1.jpg,images/alien2,images/alien1,images/rocket1,images/alien1,images/t.png,2,real,false,1,rare,1,2020-06-12T23:33:48Z,sub62
two-step-fixation,212,846319,0.0-76.0-2.25,FALSE,FALSE,FALSE,FALSE,"""event"",""trial"",""time""
""fullscreenenter"",""5"",""17724""
","
","
","""event"",""trial"",""time""
""fullscreenenter"",""5"",""17724""
","
",NA,images/earth.jpg,NA,NA,NA,NA,NA,NA,NA,NA,NA,NA,NA,NA,NA,fixation,NA,NA,NA,NA,NA,NA,sub62
d3-animate-choice,213,848655,0.0-76.0-0.26,FALSE,FALSE,FALSE,FALSE,"""event"",""trial"",""time""
""fullscreenenter"",""5"",""17724""
","
","
","""event"",""trial"",""time""
""fullscreenenter"",""5"",""17724""
","
",328.2200000011362,NA,48,NA,NA,3000,1,NA,NA,images/earth.jpg,images/rocket1,images/rocket2,null,images/rocket1,NA,1,real,null,2,NA,NA,NA,sub62
d3-animate-choice,214,851591,0.0-76.0-1.26,FALSE,FALSE,FALSE,FALSE,"""event"",""trial"",""time""
""fullscreenenter"",""5"",""17724""
","
","
","""event"",""trial"",""time""
""fullscreenenter"",""5"",""17724""
","
",930.6400000004796,NA,48,NA,NA,3000,1,NA,NA,images/purpleplanet.jpg,images/alien4,images/alien3,images/rocket1,images/alien4,images/t.png,2,real,true,2,common,1,2020-06-12T23:33:54Z,sub62
two-step-fixation,215,852597,0.0-76.0-2.26,FALSE,FALSE,FALSE,FALSE,"""event"",""trial"",""time""
""fullscreenenter"",""5"",""17724""
","
","
","""event"",""trial"",""time""
""fullscreenenter"",""5"",""17724""
","
",NA,images/earth.jpg,NA,NA,NA,NA,NA,NA,NA,NA,NA,NA,NA,NA,NA,fixation,NA,NA,NA,NA,NA,NA,sub62
d3-animate-choice,216,855321,0.0-76.0-0.27,FALSE,FALSE,FALSE,FALSE,"""event"",""trial"",""time""
""fullscreenenter"",""5"",""17724""
","
","
","""event"",""trial"",""time""
""fullscreenenter"",""5"",""17724""
","
",717.634999999078,NA,48,NA,NA,3000,1,NA,NA,images/earth.jpg,images/rocket1,images/rocket2,null,images/rocket1,NA,1,real,null,2,NA,NA,NA,sub62
d3-animate-choice,217,857875,0.0-76.0-1.27,FALSE,FALSE,FALSE,FALSE,"""event"",""trial"",""time""
""fullscreenenter"",""5"",""17724""
","
","
","""event"",""trial"",""time""
""fullscreenenter"",""5"",""17724""
","
",546.229999999865,NA,48,NA,NA,3000,1,NA,NA,images/purpleplanet.jpg,images/alien4,images/alien3,images/rocket1,images/alien4,images/t.png,2,real,true,2,common,1,2020-06-12T23:34:01Z,sub62
two-step-fixation,218,858881,0.0-76.0-2.27,FALSE,FALSE,FALSE,FALSE,"""event"",""trial"",""time""
""fullscreenenter"",""5"",""17724""
","
","
","""event"",""trial"",""time""
""fullscreenenter"",""5"",""17724""
","
",NA,images/earth.jpg,NA,NA,NA,NA,NA,NA,NA,NA,NA,NA,NA,NA,NA,fixation,NA,NA,NA,NA,NA,NA,sub62
d3-animate-choice,219,861285,0.0-76.0-0.28,FALSE,FALSE,FALSE,FALSE,"""event"",""trial"",""time""
""fullscreenenter"",""5"",""17724""
","
","
","""event"",""trial"",""time""
""fullscreenenter"",""5"",""17724""
","
",398.3800000004703,NA,48,NA,NA,3000,1,NA,NA,images/earth.jpg,images/rocket1,images/rocket2,null,images/rocket1,NA,1,real,null,2,NA,NA,NA,sub62
d3-animate-choice,220,863728,0.0-76.0-1.28,FALSE,FALSE,FALSE,FALSE,"""event"",""trial"",""time""
""fullscreenenter"",""5"",""17724""
","
","
","""event"",""trial"",""time""
""fullscreenenter"",""5"",""17724""
","
",437.10000000102445,NA,48,NA,NA,3000,1,NA,NA,images/purpleplanet.jpg,images/alien4,images/alien3,images/rocket1,images/alien4,images/t.png,2,real,true,2,common,1,2020-06-12T23:34:07Z,sub62
two-step-fixation,221,864736,0.0-76.0-2.28,FALSE,FALSE,FALSE,FALSE,"""event"",""trial"",""time""
""fullscreenenter"",""5"",""17724""
","
","
","""event"",""trial"",""time""
""fullscreenenter"",""5"",""17724""
","
",NA,images/earth.jpg,NA,NA,NA,NA,NA,NA,NA,NA,NA,NA,NA,NA,NA,fixation,NA,NA,NA,NA,NA,NA,sub62
d3-animate-choice,222,867356,0.0-76.0-0.29,FALSE,FALSE,FALSE,FALSE,"""event"",""trial"",""time""
""fullscreenenter"",""5"",""17724""
","
","
","""event"",""trial"",""time""
""fullscreenenter"",""5"",""17724""
","
",613.0549999998184,NA,48,NA,NA,3000,1,NA,NA,images/earth.jpg,images/rocket1,images/rocket2,null,images/rocket1,NA,1,real,null,2,NA,NA,NA,sub62
d3-animate-choice,223,869784,0.0-76.0-1.29,FALSE,FALSE,FALSE,FALSE,"""event"",""trial"",""time""
""fullscreenenter"",""5"",""17724""
","
","
","""event"",""trial"",""time""
""fullscreenenter"",""5"",""17724""
","
",421.15999999979977,NA,48,NA,NA,3000,1,NA,NA,images/purpleplanet.jpg,images/alien4,images/alien3,images/rocket1,images/alien4,images/t.png,2,real,true,2,common,1,2020-06-12T23:34:13Z,sub62
two-step-fixation,224,870789,0.0-76.0-2.29,FALSE,FALSE,FALSE,FALSE,"""event"",""trial"",""time""
""fullscreenenter"",""5"",""17724""
","
","
","""event"",""trial"",""time""
""fullscreenenter"",""5"",""17724""
","
",NA,images/earth.jpg,NA,NA,NA,NA,NA,NA,NA,NA,NA,NA,NA,NA,NA,fixation,NA,NA,NA,NA,NA,NA,sub62
d3-animate-choice,225,873194,0.0-76.0-0.30,FALSE,FALSE,FALSE,FALSE,"""event"",""trial"",""time""
""fullscreenenter"",""5"",""17724""
","
","
","""event"",""trial"",""time""
""fullscreenenter"",""5"",""17724""
","
",399.2349999989383,NA,48,NA,NA,3000,1,NA,NA,images/earth.jpg,images/rocket1,images/rocket2,null,images/rocket1,NA,1,real,null,2,NA,NA,NA,sub62
d3-animate-choice,226,875968,0.0-76.0-1.30,FALSE,FALSE,FALSE,FALSE,"""event"",""trial"",""time""
""fullscreenenter"",""5"",""17724""
","
","
","""event"",""trial"",""time""
""fullscreenenter"",""5"",""17724""
","
",769.0250000014203,NA,49,NA,NA,3000,1,NA,NA,images/redplanet1.jpg,images/alien2,images/alien1,images/rocket1,images/alien1,images/t.png,2,real,false,1,rare,1,2020-06-12T23:34:19Z,sub62
two-step-fixation,227,876975,0.0-76.0-2.30,FALSE,FALSE,FALSE,FALSE,"""event"",""trial"",""time""
""fullscreenenter"",""5"",""17724""
","
","
","""event"",""trial"",""time""
""fullscreenenter"",""5"",""17724""
","
",NA,images/earth.jpg,NA,NA,NA,NA,NA,NA,NA,NA,NA,NA,NA,NA,NA,fixation,NA,NA,NA,NA,NA,NA,sub62
d3-animate-choice,228,879525,0.0-76.0-0.31,FALSE,FALSE,FALSE,FALSE,"""event"",""trial"",""time""
""fullscreenenter"",""5"",""17724""
","
","
","""event"",""trial"",""time""
""fullscreenenter"",""5"",""17724""
","
",543.0299999988638,NA,48,NA,NA,3000,1,NA,NA,images/earth.jpg,images/rocket1,images/rocket2,null,images/rocket1,NA,1,real,null,2,NA,NA,NA,sub62
d3-animate-choice,229,882410,0.0-76.0-1.31,FALSE,FALSE,FALSE,FALSE,"""event"",""trial"",""time""
""fullscreenenter"",""5"",""17724""
","
","
","""event"",""trial"",""time""
""fullscreenenter"",""5"",""17724""
","
",880.005000000936,NA,49,NA,NA,3000,1,NA,NA,images/purpleplanet.jpg,images/alien4,images/alien3,images/rocket1,images/alien3,images/nothing.png,2,real,true,1,common,0,2020-06-12T23:34:25Z,sub62
two-step-fixation,230,883415,0.0-76.0-2.31,FALSE,FALSE,FALSE,FALSE,"""event"",""trial"",""time""
""fullscreenenter"",""5"",""17724""
","
","
","""event"",""trial"",""time""
""fullscreenenter"",""5"",""17724""
","
",NA,images/earth.jpg,NA,NA,NA,NA,NA,NA,NA,NA,NA,NA,NA,NA,NA,fixation,NA,NA,NA,NA,NA,NA,sub62
d3-animate-choice,231,885800,0.0-76.0-0.32,FALSE,FALSE,FALSE,FALSE,"""event"",""trial"",""time""
""fullscreenenter"",""5"",""17724""
","
","
","""event"",""trial"",""time""
""fullscreenenter"",""5"",""17724""
","
",380.509999999078,NA,48,NA,NA,3000,1,NA,NA,images/earth.jpg,images/rocket1,images/rocket2,null,images/rocket1,NA,1,real,null,2,NA,NA,NA,sub62
d3-animate-choice,232,888305,0.0-76.0-1.32,FALSE,FALSE,FALSE,FALSE,"""event"",""trial"",""time""
""fullscreenenter"",""5"",""17724""
","
","
","""event"",""trial"",""time""
""fullscreenenter"",""5"",""17724""
","
",500.5099999998929,NA,48,NA,NA,3000,1,NA,NA,images/purpleplanet.jpg,images/alien4,images/alien3,images/rocket1,images/alien4,images/t.png,2,real,true,2,common,1,2020-06-12T23:34:31Z,sub62
two-step-fixation,233,889311,0.0-76.0-2.32,FALSE,FALSE,FALSE,FALSE,"""event"",""trial"",""time""
""fullscreenenter"",""5"",""17724""
","
","
","""event"",""trial"",""time""
""fullscreenenter"",""5"",""17724""
","
",NA,images/earth.jpg,NA,NA,NA,NA,NA,NA,NA,NA,NA,NA,NA,NA,NA,fixation,NA,NA,NA,NA,NA,NA,sub62
d3-animate-choice,234,891709,0.0-76.0-0.33,FALSE,FALSE,FALSE,FALSE,"""event"",""trial"",""time""
""fullscreenenter"",""5"",""17724""
","
","
","""event"",""trial"",""time""
""fullscreenenter"",""5"",""17724""
","
",392.95999999926426,NA,48,NA,NA,3000,1,NA,NA,images/earth.jpg,images/rocket1,images/rocket2,null,images/rocket1,NA,1,real,null,2,NA,NA,NA,sub62
d3-animate-choice,235,894417,0.0-76.0-1.33,FALSE,FALSE,FALSE,FALSE,"""event"",""trial"",""time""
""fullscreenenter"",""5"",""17724""
","
","
","""event"",""trial"",""time""
""fullscreenenter"",""5"",""17724""
","
",703.2450000006938,NA,48,NA,NA,3000,1,NA,NA,images/purpleplanet.jpg,images/alien4,images/alien3,images/rocket1,images/alien4,images/t.png,2,real,true,2,common,1,2020-06-12T23:34:37Z,sub62
two-step-fixation,236,895422,0.0-76.0-2.33,FALSE,FALSE,FALSE,FALSE,"""event"",""trial"",""time""
""fullscreenenter"",""5"",""17724""
","
","
","""event"",""trial"",""time""
""fullscreenenter"",""5"",""17724""
","
",NA,images/earth.jpg,NA,NA,NA,NA,NA,NA,NA,NA,NA,NA,NA,NA,NA,fixation,NA,NA,NA,NA,NA,NA,sub62
d3-animate-choice,237,897945,0.0-76.0-0.34,FALSE,FALSE,FALSE,FALSE,"""event"",""trial"",""time""
""fullscreenenter"",""5"",""17724""
","
","
","""event"",""trial"",""time""
""fullscreenenter"",""5"",""17724""
","
",517.2249999996275,NA,48,NA,NA,3000,1,NA,NA,images/earth.jpg,images/rocket1,images/rocket2,null,images/rocket1,NA,1,real,null,2,NA,NA,NA,sub62
d3-animate-choice,238,900511,0.0-76.0-1.34,FALSE,FALSE,FALSE,FALSE,"""event"",""trial"",""time""
""fullscreenenter"",""5"",""17724""
","
","
","""event"",""trial"",""time""
""fullscreenenter"",""5"",""17724""
","
",562.3699999996461,NA,48,NA,NA,3000,1,NA,NA,images/purpleplanet.jpg,images/alien4,images/alien3,images/rocket1,images/alien4,images/t.png,2,real,true,2,common,1,2020-06-12T23:34:43Z,sub62
two-step-fixation,239,901516,0.0-76.0-2.34,FALSE,FALSE,FALSE,FALSE,"""event"",""trial"",""time""
""fullscreenenter"",""5"",""17724""
","
","
","""event"",""trial"",""time""
""fullscreenenter"",""5"",""17724""
","
",NA,images/earth.jpg,NA,NA,NA,NA,NA,NA,NA,NA,NA,NA,NA,NA,NA,fixation,NA,NA,NA,NA,NA,NA,sub62
d3-animate-choice,240,904108,0.0-76.0-0.35,FALSE,FALSE,FALSE,FALSE,"""event"",""trial"",""time""
""fullscreenenter"",""5"",""17724""
","
","
","""event"",""trial"",""time""
""fullscreenenter"",""5"",""17724""
","
",587.5100000011735,NA,48,NA,NA,3000,1,NA,NA,images/earth.jpg,images/rocket1,images/rocket2,null,images/rocket1,NA,1,real,null,2,NA,NA,NA,sub62
d3-animate-choice,241,906676,0.0-76.0-1.35,FALSE,FALSE,FALSE,FALSE,"""event"",""trial"",""time""
""fullscreenenter"",""5"",""17724""
","
","
","""event"",""trial"",""time""
""fullscreenenter"",""5"",""17724""
","
",563.2600000007078,NA,48,NA,NA,3000,1,NA,NA,images/purpleplanet.jpg,images/alien4,images/alien3,images/rocket1,images/alien4,images/nothing.png,2,real,true,2,common,0,2020-06-12T23:34:50Z,sub62
two-step-fixation,242,907680,0.0-76.0-2.35,FALSE,FALSE,FALSE,FALSE,"""event"",""trial"",""time""
""fullscreenenter"",""5"",""17724""
","
","
","""event"",""trial"",""time""
""fullscreenenter"",""5"",""17724""
","
",NA,images/earth.jpg,NA,NA,NA,NA,NA,NA,NA,NA,NA,NA,NA,NA,NA,fixation,NA,NA,NA,NA,NA,NA,sub62
d3-animate-choice,243,910143,0.0-76.0-0.36,FALSE,FALSE,FALSE,FALSE,"""event"",""trial"",""time""
""fullscreenenter"",""5"",""17724""
","
","
","""event"",""trial"",""time""
""fullscreenenter"",""5"",""17724""
","
",458.8149999999441,NA,48,NA,NA,3000,1,NA,NA,images/earth.jpg,images/rocket1,images/rocket2,null,images/rocket1,NA,1,real,null,2,NA,NA,NA,sub62
d3-animate-choice,244,912693,0.0-76.0-1.36,FALSE,FALSE,FALSE,FALSE,"""event"",""trial"",""time""
""fullscreenenter"",""5"",""17724""
","
","
","""event"",""trial"",""time""
""fullscreenenter"",""5"",""17724""
","
",544.3599999998696,NA,49,NA,NA,3000,1,NA,NA,images/redplanet1.jpg,images/alien2,images/alien1,images/rocket1,images/alien1,images/t.png,2,real,false,1,rare,1,2020-06-12T23:34:56Z,sub62
two-step-fixation,245,913700,0.0-76.0-2.36,FALSE,FALSE,FALSE,FALSE,"""event"",""trial"",""time""
""fullscreenenter"",""5"",""17724""
","
","
","""event"",""trial"",""time""
""fullscreenenter"",""5"",""17724""
","
",NA,images/earth.jpg,NA,NA,NA,NA,NA,NA,NA,NA,NA,NA,NA,NA,NA,fixation,NA,NA,NA,NA,NA,NA,sub62
d3-animate-choice,246,916197,0.0-76.0-0.37,FALSE,FALSE,FALSE,FALSE,"""event"",""trial"",""time""
""fullscreenenter"",""5"",""17724""
","
","
","""event"",""trial"",""time""
""fullscreenenter"",""5"",""17724""
","
",492.5800000000745,NA,48,NA,NA,3000,1,NA,NA,images/earth.jpg,images/rocket1,images/rocket2,null,images/rocket1,NA,1,real,null,2,NA,NA,NA,sub62
d3-animate-choice,247,918668,0.0-76.0-1.37,FALSE,FALSE,FALSE,FALSE,"""event"",""trial"",""time""
""fullscreenenter"",""5"",""17724""
","
","
","""event"",""trial"",""time""
""fullscreenenter"",""5"",""17724""
","
",463.9050000004936,NA,48,NA,NA,3000,1,NA,NA,images/purpleplanet.jpg,images/alien4,images/alien3,images/rocket1,images/alien4,images/nothing.png,2,real,true,2,common,0,2020-06-12T23:35:02Z,sub62
two-step-fixation,248,919675,0.0-76.0-2.37,FALSE,FALSE,FALSE,FALSE,"""event"",""trial"",""time""
""fullscreenenter"",""5"",""17724""
","
","
","""event"",""trial"",""time""
""fullscreenenter"",""5"",""17724""
","
",NA,images/earth.jpg,NA,NA,NA,NA,NA,NA,NA,NA,NA,NA,NA,NA,NA,fixation,NA,NA,NA,NA,NA,NA,sub62
d3-animate-choice,249,922155,0.0-76.0-0.38,FALSE,FALSE,FALSE,FALSE,"""event"",""trial"",""time""
""fullscreenenter"",""5"",""17724""
","
","
","""event"",""trial"",""time""
""fullscreenenter"",""5"",""17724""
","
",473.5799999998417,NA,48,NA,NA,3000,1,NA,NA,images/earth.jpg,images/rocket1,images/rocket2,null,images/rocket1,NA,1,real,null,2,NA,NA,NA,sub62
d3-animate-choice,250,924732,0.0-76.0-1.38,FALSE,FALSE,FALSE,FALSE,"""event"",""trial"",""time""
""fullscreenenter"",""5"",""17724""
","
","
","""event"",""trial"",""time""
""fullscreenenter"",""5"",""17724""
","
",568.320000000298,NA,48,NA,NA,3000,1,NA,NA,images/purpleplanet.jpg,images/alien4,images/alien3,images/rocket1,images/alien4,images/t.png,2,real,true,2,common,1,2020-06-12T23:35:08Z,sub62
two-step-fixation,251,925739,0.0-76.0-2.38,FALSE,FALSE,FALSE,FALSE,"""event"",""trial"",""time""
""fullscreenenter"",""5"",""17724""
","
","
","""event"",""trial"",""time""
""fullscreenenter"",""5"",""17724""
","
",NA,images/earth.jpg,NA,NA,NA,NA,NA,NA,NA,NA,NA,NA,NA,NA,NA,fixation,NA,NA,NA,NA,NA,NA,sub62
d3-animate-choice,252,928229,0.0-76.0-0.39,FALSE,FALSE,FALSE,FALSE,"""event"",""trial"",""time""
""fullscreenenter"",""5"",""17724""
","
","
","""event"",""trial"",""time""
""fullscreenenter"",""5"",""17724""
","
",483.7349999997532,NA,48,NA,NA,3000,1,NA,NA,images/earth.jpg,images/rocket1,images/rocket2,null,images/rocket1,NA,1,real,null,2,NA,NA,NA,sub62
d3-animate-choice,253,931046,0.0-76.0-1.39,FALSE,FALSE,FALSE,FALSE,"""event"",""trial"",""time""
""fullscreenenter"",""5"",""17724""
","
","
","""event"",""trial"",""time""
""fullscreenenter"",""5"",""17724""
","
",810.7099999997299,NA,48,NA,NA,3000,1,NA,NA,images/purpleplanet.jpg,images/alien4,images/alien3,images/rocket1,images/alien4,images/t.png,2,real,true,2,common,1,2020-06-12T23:35:14Z,sub62
two-step-fixation,254,932050,0.0-76.0-2.39,FALSE,FALSE,FALSE,FALSE,"""event"",""trial"",""time""
""fullscreenenter"",""5"",""17724""
","
","
","""event"",""trial"",""time""
""fullscreenenter"",""5"",""17724""
","
",NA,images/earth.jpg,NA,NA,NA,NA,NA,NA,NA,NA,NA,NA,NA,NA,NA,fixation,NA,NA,NA,NA,NA,NA,sub62
d3-animate-choice,255,934438,0.0-76.0-0.40,FALSE,FALSE,FALSE,FALSE,"""event"",""trial"",""time""
""fullscreenenter"",""5"",""17724""
","
","
","""event"",""trial"",""time""
""fullscreenenter"",""5"",""17724""
","
",382.90499999863096,NA,49,NA,NA,3000,1,NA,NA,images/earth.jpg,images/rocket1,images/rocket2,null,images/rocket2,NA,1,real,null,1,NA,NA,NA,sub62
d3-animate-choice,256,936892,0.0-76.0-1.40,FALSE,FALSE,FALSE,FALSE,"""event"",""trial"",""time""
""fullscreenenter"",""5"",""17724""
","
","
","""event"",""trial"",""time""
""fullscreenenter"",""5"",""17724""
","
",445.3299999986775,NA,49,NA,NA,3000,1,NA,NA,images/redplanet1.jpg,images/alien2,images/alien1,images/rocket2,images/alien1,images/t.png,2,real,true,1,common,1,2020-06-12T23:35:20Z,sub62
two-step-fixation,257,937899,0.0-76.0-2.40,FALSE,FALSE,FALSE,FALSE,"""event"",""trial"",""time""
""fullscreenenter"",""5"",""17724""
","
","
","""event"",""trial"",""time""
""fullscreenenter"",""5"",""17724""
","
",NA,images/earth.jpg,NA,NA,NA,NA,NA,NA,NA,NA,NA,NA,NA,NA,NA,fixation,NA,NA,NA,NA,NA,NA,sub62
d3-animate-choice,258,940202,0.0-76.0-0.41,FALSE,FALSE,FALSE,FALSE,"""event"",""trial"",""time""
""fullscreenenter"",""5"",""17724""
","
","
","""event"",""trial"",""time""
""fullscreenenter"",""5"",""17724""
","
",297.9099999993341,NA,49,NA,NA,3000,1,NA,NA,images/earth.jpg,images/rocket1,images/rocket2,null,images/rocket2,NA,1,real,null,1,NA,NA,NA,sub62
d3-animate-choice,259,942695,0.0-76.0-1.41,FALSE,FALSE,FALSE,FALSE,"""event"",""trial"",""time""
""fullscreenenter"",""5"",""17724""
","
","
","""event"",""trial"",""time""
""fullscreenenter"",""5"",""17724""
","
",489.079999999376,NA,49,NA,NA,3000,1,NA,NA,images/redplanet1.jpg,images/alien2,images/alien1,images/rocket2,images/alien1,images/t.png,2,real,true,1,common,1,2020-06-12T23:35:26Z,sub62
two-step-fixation,260,943699,0.0-76.0-2.41,FALSE,FALSE,FALSE,FALSE,"""event"",""trial"",""time""
""fullscreenenter"",""5"",""17724""
","
","
","""event"",""trial"",""time""
""fullscreenenter"",""5"",""17724""
","
",NA,images/earth.jpg,NA,NA,NA,NA,NA,NA,NA,NA,NA,NA,NA,NA,NA,fixation,NA,NA,NA,NA,NA,NA,sub62
d3-animate-choice,261,946151,0.0-76.0-0.42,FALSE,FALSE,FALSE,FALSE,"""event"",""trial"",""time""
""fullscreenenter"",""5"",""17724""
","
","
","""event"",""trial"",""time""
""fullscreenenter"",""5"",""17724""
","
",445.8699999995297,NA,49,NA,NA,3000,1,NA,NA,images/earth.jpg,images/rocket1,images/rocket2,null,images/rocket2,NA,1,real,null,1,NA,NA,NA,sub62
d3-animate-choice,262,948604,0.0-76.0-1.42,FALSE,FALSE,FALSE,FALSE,"""event"",""trial"",""time""
""fullscreenenter"",""5"",""17724""
","
","
","""event"",""trial"",""time""
""fullscreenenter"",""5"",""17724""
","
",448.2200000002049,NA,49,NA,NA,3000,1,NA,NA,images/redplanet1.jpg,images/alien2,images/alien1,images/rocket2,images/alien1,images/t.png,2,real,true,1,common,1,2020-06-12T23:35:31Z,sub62
two-step-fixation,263,949608,0.0-76.0-2.42,FALSE,FALSE,FALSE,FALSE,"""event"",""trial"",""time""
""fullscreenenter"",""5"",""17724""
","
","
","""event"",""trial"",""time""
""fullscreenenter"",""5"",""17724""
","
",NA,images/earth.jpg,NA,NA,NA,NA,NA,NA,NA,NA,NA,NA,NA,NA,NA,fixation,NA,NA,NA,NA,NA,NA,sub62
d3-animate-choice,264,952235,0.0-76.0-0.43,FALSE,FALSE,FALSE,FALSE,"""event"",""trial"",""time""
""fullscreenenter"",""5"",""17724""
","
","
","""event"",""trial"",""time""
""fullscreenenter"",""5"",""17724""
","
",622.7449999987148,NA,49,NA,NA,3000,1,NA,NA,images/earth.jpg,images/rocket1,images/rocket2,null,images/rocket2,NA,1,real,null,1,NA,NA,NA,sub62
d3-animate-choice,265,954695,0.0-76.0-1.43,FALSE,FALSE,FALSE,FALSE,"""event"",""trial"",""time""
""fullscreenenter"",""5"",""17724""
","
","
","""event"",""trial"",""time""
""fullscreenenter"",""5"",""17724""
","
",453.0900000008987,NA,49,NA,NA,3000,1,NA,NA,images/redplanet1.jpg,images/alien2,images/alien1,images/rocket2,images/alien1,images/t.png,2,real,true,1,common,1,2020-06-12T23:35:38Z,sub62
two-step-fixation,266,955702,0.0-76.0-2.43,FALSE,FALSE,FALSE,FALSE,"""event"",""trial"",""time""
""fullscreenenter"",""5"",""17724""
","
","
","""event"",""trial"",""time""
""fullscreenenter"",""5"",""17724""
","
",NA,images/earth.jpg,NA,NA,NA,NA,NA,NA,NA,NA,NA,NA,NA,NA,NA,fixation,NA,NA,NA,NA,NA,NA,sub62
d3-animate-choice,267,958023,0.0-76.0-0.44,FALSE,FALSE,FALSE,FALSE,"""event"",""trial"",""time""
""fullscreenenter"",""5"",""17724""
","
","
","""event"",""trial"",""time""
""fullscreenenter"",""5"",""17724""
","
",314.12000000092667,NA,49,NA,NA,3000,1,NA,NA,images/earth.jpg,images/rocket1,images/rocket2,null,images/rocket2,NA,1,real,null,1,NA,NA,NA,sub62
d3-animate-choice,268,960420,0.0-76.0-1.44,FALSE,FALSE,FALSE,FALSE,"""event"",""trial"",""time""
""fullscreenenter"",""5"",""17724""
","
","
","""event"",""trial"",""time""
""fullscreenenter"",""5"",""17724""
","
",392.14999999967404,NA,49,NA,NA,3000,1,NA,NA,images/redplanet1.jpg,images/alien2,images/alien1,images/rocket2,images/alien1,images/t.png,2,real,true,1,common,1,2020-06-12T23:35:43Z,sub62
two-step-fixation,269,961427,0.0-76.0-2.44,FALSE,FALSE,FALSE,FALSE,"""event"",""trial"",""time""
""fullscreenenter"",""5"",""17724""
","
","
","""event"",""trial"",""time""
""fullscreenenter"",""5"",""17724""
","
",NA,images/earth.jpg,NA,NA,NA,NA,NA,NA,NA,NA,NA,NA,NA,NA,NA,fixation,NA,NA,NA,NA,NA,NA,sub62
d3-animate-choice,270,963967,0.0-76.0-0.45,FALSE,FALSE,FALSE,FALSE,"""event"",""trial"",""time""
""fullscreenenter"",""5"",""17724""
","
","
","""event"",""trial"",""time""
""fullscreenenter"",""5"",""17724""
","
",535.2700000002515,NA,49,NA,NA,3000,1,NA,NA,images/earth.jpg,images/rocket1,images/rocket2,null,images/rocket2,NA,1,real,null,1,NA,NA,NA,sub62
d3-animate-choice,271,966272,0.0-76.0-1.45,FALSE,FALSE,FALSE,FALSE,"""event"",""trial"",""time""
""fullscreenenter"",""5"",""17724""
","
","
","""event"",""trial"",""time""
""fullscreenenter"",""5"",""17724""
","
",298.75499999988824,NA,49,NA,NA,3000,1,NA,NA,images/redplanet1.jpg,images/alien2,images/alien1,images/rocket2,images/alien1,images/t.png,2,real,true,1,common,1,2020-06-12T23:35:49Z,sub62
two-step-fixation,272,967277,0.0-76.0-2.45,FALSE,FALSE,FALSE,FALSE,"""event"",""trial"",""time""
""fullscreenenter"",""5"",""17724""
","
","
","""event"",""trial"",""time""
""fullscreenenter"",""5"",""17724""
","
",NA,images/earth.jpg,NA,NA,NA,NA,NA,NA,NA,NA,NA,NA,NA,NA,NA,fixation,NA,NA,NA,NA,NA,NA,sub62
d3-animate-choice,273,969589,0.0-76.0-0.46,FALSE,FALSE,FALSE,FALSE,"""event"",""trial"",""time""
""fullscreenenter"",""5"",""17724""
","
","
","""event"",""trial"",""time""
""fullscreenenter"",""5"",""17724""
","
",307.3499999990454,NA,49,NA,NA,3000,1,NA,NA,images/earth.jpg,images/rocket1,images/rocket2,null,images/rocket2,NA,1,real,null,1,NA,NA,NA,sub62
d3-animate-choice,274,971904,0.0-76.0-1.46,FALSE,FALSE,FALSE,FALSE,"""event"",""trial"",""time""
""fullscreenenter"",""5"",""17724""
","
","
","""event"",""trial"",""time""
""fullscreenenter"",""5"",""17724""
","
",310.6399999996647,NA,49,NA,NA,3000,1,NA,NA,images/purpleplanet.jpg,images/alien4,images/alien3,images/rocket2,images/alien3,images/nothing.png,2,real,false,1,rare,0,2020-06-12T23:35:55Z,sub62
two-step-fixation,275,972907,0.0-76.0-2.46,FALSE,FALSE,FALSE,FALSE,"""event"",""trial"",""time""
""fullscreenenter"",""5"",""17724""
","
","
","""event"",""trial"",""time""
""fullscreenenter"",""5"",""17724""
","
",NA,images/earth.jpg,NA,NA,NA,NA,NA,NA,NA,NA,NA,NA,NA,NA,NA,fixation,NA,NA,NA,NA,NA,NA,sub62
d3-animate-choice,276,975306,0.0-76.0-0.47,FALSE,FALSE,FALSE,FALSE,"""event"",""trial"",""time""
""fullscreenenter"",""5"",""17724""
","
","
","""event"",""trial"",""time""
""fullscreenenter"",""5"",""17724""
","
",393.9350000000559,NA,49,NA,NA,3000,1,NA,NA,images/earth.jpg,images/rocket1,images/rocket2,null,images/rocket2,NA,1,real,null,1,NA,NA,NA,sub62
d3-animate-choice,277,977951,0.0-76.0-1.47,FALSE,FALSE,FALSE,FALSE,"""event"",""trial"",""time""
""fullscreenenter"",""5"",""17724""
","
","
","""event"",""trial"",""time""
""fullscreenenter"",""5"",""17724""
","
",640.6649999991059,NA,49,NA,NA,3000,1,NA,NA,images/redplanet1.jpg,images/alien2,images/alien1,images/rocket2,images/alien1,images/nothing.png,2,real,true,1,common,0,2020-06-12T23:36:01Z,sub62
two-step-fixation,278,978956,0.0-76.0-2.47,FALSE,FALSE,FALSE,FALSE,"""event"",""trial"",""time""
""fullscreenenter"",""5"",""17724""
","
","
","""event"",""trial"",""time""
""fullscreenenter"",""5"",""17724""
","
",NA,images/earth.jpg,NA,NA,NA,NA,NA,NA,NA,NA,NA,NA,NA,NA,NA,fixation,NA,NA,NA,NA,NA,NA,sub62
d3-animate-choice,279,981424,0.0-76.0-0.48,FALSE,FALSE,FALSE,FALSE,"""event"",""trial"",""time""
""fullscreenenter"",""5"",""17724""
","
","
","""event"",""trial"",""time""
""fullscreenenter"",""5"",""17724""
","
",463.6050000007963,NA,49,NA,NA,3000,1,NA,NA,images/earth.jpg,images/rocket1,images/rocket2,null,images/rocket2,NA,1,real,null,1,NA,NA,NA,sub62
d3-animate-choice,280,983937,0.0-76.0-1.48,FALSE,FALSE,FALSE,FALSE,"""event"",""trial"",""time""
""fullscreenenter"",""5"",""17724""
","
","
","""event"",""trial"",""time""
""fullscreenenter"",""5"",""17724""
","
",507.82000000064727,NA,49,NA,NA,3000,1,NA,NA,images/redplanet1.jpg,images/alien2,images/alien1,images/rocket2,images/alien1,images/nothing.png,2,real,true,1,common,0,2020-06-12T23:36:07Z,sub62
two-step-fixation,281,984944,0.0-76.0-2.48,FALSE,FALSE,FALSE,FALSE,"""event"",""trial"",""time""
""fullscreenenter"",""5"",""17724""
","
","
","""event"",""trial"",""time""
""fullscreenenter"",""5"",""17724""
","
",NA,images/earth.jpg,NA,NA,NA,NA,NA,NA,NA,NA,NA,NA,NA,NA,NA,fixation,NA,NA,NA,NA,NA,NA,sub62
d3-animate-choice,282,987306,0.0-76.0-0.49,FALSE,FALSE,FALSE,FALSE,"""event"",""trial"",""time""
""fullscreenenter"",""5"",""17724""
","
","
","""event"",""trial"",""time""
