trial_type,trial_index,time_elapsed,internal_node_id,rocket_sides,red_planet_first_rocket,red_display_order,purple_display_order,interactions,blur_events,focus_events,fullscreenenter_events,fullscreenexit_events,rt,stimulus,key_press,button_pressed,success,duration,valid_pressed,rts,keys,planet_text,right_text,left_text,center_text,chosen_text,reward_text,trial_stage,practice_trial,transition_type,choice,transition,reward,timestamp,subject_id
pavlovia,0,3,0.0-0.0,TRUE,TRUE,FALSE,TRUE,"
","
","
","
","
",NA,NA,NA,NA,NA,NA,NA,NA,NA,NA,NA,NA,NA,NA,NA,NA,NA,NA,NA,NA,NA,NA,sub16
html-keyboard-response,1,2389,0.0-1.0,TRUE,TRUE,FALSE,TRUE,"
","
","
","
","
",2385.3799999924377,Welcome! Press the space bar to begin.,32,NA,NA,NA,NA,NA,NA,NA,NA,NA,NA,NA,NA,NA,NA,NA,NA,NA,NA,NA,sub16
audio-keyboard-response,2,5046,0.0-2.0,TRUE,TRUE,FALSE,TRUE,"
","
","
","
","
",2587,audio/beep_loop.wav,32,NA,NA,NA,NA,NA,NA,NA,NA,NA,NA,NA,NA,NA,NA,NA,NA,NA,NA,NA,sub16
audio-button-response,3,7626,0.0-3.0,TRUE,TRUE,FALSE,TRUE,"
","
","
","
","
",NaN,audio/fish.mp3,NA,1,NA,NA,NA,NA,NA,NA,NA,NA,NA,NA,NA,NA,NA,NA,NA,NA,NA,NA,sub16
audio-button-response,4,10300,0.0-4.0,TRUE,TRUE,FALSE,TRUE,"""event"",""trial"",""time""
""fullscreenenter"",""5"",""15185""
","
","
","""event"",""trial"",""time""
""fullscreenenter"",""5"",""15185""
","
",NaN,audio/tiger.mp3,NA,4,NA,NA,NA,NA,NA,NA,NA,NA,NA,NA,NA,NA,NA,NA,NA,NA,NA,NA,sub16
fullscreen,5,16113,0.0-5.0,TRUE,TRUE,FALSE,TRUE,"""event"",""trial"",""time""
""fullscreenenter"",""5"",""15185""
","
","
","""event"",""trial"",""time""
""fullscreenenter"",""5"",""15185""
","
",NA,NA,NA,NA,TRUE,NA,NA,NA,NA,NA,NA,NA,NA,NA,NA,NA,NA,NA,NA,NA,NA,NA,sub16
d3-instructions,6,28202,0.0-6.0,TRUE,TRUE,FALSE,TRUE,"""event"",""trial"",""time""
""fullscreenenter"",""5"",""15185""
","
","
","""event"",""trial"",""time""
""fullscreenenter"",""5"",""15185""
","
",NA,NA,NA,NA,NA,NA,NA,NA,NA,NA,NA,NA,NA,NA,NA,NA,NA,NA,NA,NA,NA,NA,sub16
d3-instructions,7,35104,0.0-7.0,TRUE,TRUE,FALSE,TRUE,"""event"",""trial"",""time""
""fullscreenenter"",""5"",""15185""
","
","
","""event"",""trial"",""time""
""fullscreenenter"",""5"",""15185""
","
",NA,NA,NA,NA,NA,NA,NA,NA,NA,NA,NA,NA,NA,NA,NA,NA,NA,NA,NA,NA,NA,NA,sub16
d3-instructions,8,42428,0.0-8.0,TRUE,TRUE,FALSE,TRUE,"""event"",""trial"",""time""
""fullscreenenter"",""5"",""15185""
","
","
","""event"",""trial"",""time""
""fullscreenenter"",""5"",""15185""
","
",NA,NA,NA,NA,NA,NA,NA,NA,NA,NA,NA,NA,NA,NA,NA,NA,NA,NA,NA,NA,NA,NA,sub16
d3-instructions,9,53396,0.0-9.0,TRUE,TRUE,FALSE,TRUE,"""event"",""trial"",""time""
""fullscreenenter"",""5"",""15185""
","
","
","""event"",""trial"",""time""
""fullscreenenter"",""5"",""15185""
","
",NA,NA,NA,NA,NA,NA,NA,NA,NA,NA,NA,NA,NA,NA,NA,NA,NA,NA,NA,NA,NA,NA,sub16
d3-instructions,10,70334,0.0-10.0,TRUE,TRUE,FALSE,TRUE,"""event"",""trial"",""time""
""fullscreenenter"",""5"",""15185""
","
","
","""event"",""trial"",""time""
""fullscreenenter"",""5"",""15185""
","
",NA,NA,NA,NA,NA,NA,NA,NA,NA,NA,NA,NA,NA,NA,NA,NA,NA,NA,NA,NA,NA,NA,sub16
d3-animate-choice,11,73632,0.0-11.0,TRUE,TRUE,FALSE,TRUE,"""event"",""trial"",""time""
""fullscreenenter"",""5"",""15185""
","
","
","""event"",""trial"",""time""
""fullscreenenter"",""5"",""15185""
","
",1288.4849999973085,NA,49,NA,NA,3000,1,"2455.3500000038184,3197.7800000167917",4848,images/tutgreenplanet.jpg,images/tutalien1,images/tutalien2,null,images/tutalien2,NA,NA,practice,null,NA,NA,NA,NA,sub16
d3-animate-choice,12,76036,0.0-12.0,TRUE,TRUE,FALSE,TRUE,"""event"",""trial"",""time""
""fullscreenenter"",""5"",""15185""
","
","
","""event"",""trial"",""time""
""fullscreenenter"",""5"",""15185""
","
",399.8049999936484,NA,48,NA,NA,3000,1,2028.615000017453,49,images/tutgreenplanet.jpg,images/tutalien1,images/tutalien2,null,images/tutalien1,NA,NA,practice,null,NA,NA,NA,NA,sub16
d3-animate-choice,13,78518,0.0-13.0,TRUE,TRUE,FALSE,TRUE,"""event"",""trial"",""time""
""fullscreenenter"",""5"",""15185""
","
","
","""event"",""trial"",""time""
""fullscreenenter"",""5"",""15185""
","
",478.2200000190642,NA,49,NA,NA,3000,1,"1203.4400000120513,1415.2600000088569,1549.8899999947753,1746.3149999966845,2097.280000016326,2205.885000003036",494849484849,images/tutgreenplanet.jpg,images/tutalien1,images/tutalien2,null,images/tutalien2,NA,NA,practice,null,NA,NA,NA,NA,sub16
d3-animate-choice,14,80688,0.0-14.0,TRUE,TRUE,FALSE,TRUE,"""event"",""trial"",""time""
""fullscreenenter"",""5"",""15185""
","
","
","""event"",""trial"",""time""
""fullscreenenter"",""5"",""15185""
","
",165.63000000314787,NA,48,NA,NA,3000,1,NA,NA,images/tutgreenplanet.jpg,images/tutalien1,images/tutalien2,null,images/tutalien1,NA,NA,practice,null,NA,NA,NA,NA,sub16
d3-instructions,15,88041,0.0-15.0,TRUE,TRUE,FALSE,TRUE,"""event"",""trial"",""time""
""fullscreenenter"",""5"",""15185""
","
","
","""event"",""trial"",""time""
""fullscreenenter"",""5"",""15185""
","
",NA,NA,NA,NA,NA,NA,NA,NA,NA,NA,NA,NA,NA,NA,NA,NA,NA,NA,NA,NA,NA,NA,sub16
d3-instructions,16,94621,0.0-16.0,TRUE,TRUE,FALSE,TRUE,"""event"",""trial"",""time""
""fullscreenenter"",""5"",""15185""
","
","
","""event"",""trial"",""time""
""fullscreenenter"",""5"",""15185""
","
",NA,NA,NA,NA,NA,NA,NA,NA,NA,NA,NA,NA,NA,NA,NA,NA,NA,NA,NA,NA,NA,NA,sub16
d3-instructions,17,103366,0.0-17.0,TRUE,TRUE,FALSE,TRUE,"""event"",""trial"",""time""
""fullscreenenter"",""5"",""15185""
","
","
","""event"",""trial"",""time""
""fullscreenenter"",""5"",""15185""
","
",NA,NA,NA,NA,NA,NA,NA,NA,NA,NA,NA,NA,NA,NA,NA,NA,NA,NA,NA,NA,NA,NA,sub16
d3-instructions,18,116605,0.0-18.0,TRUE,TRUE,FALSE,TRUE,"""event"",""trial"",""time""
""fullscreenenter"",""5"",""15185""
","
","
","""event"",""trial"",""time""
""fullscreenenter"",""5"",""15185""
","
",NA,NA,NA,NA,NA,NA,NA,NA,NA,NA,NA,NA,NA,NA,NA,NA,NA,NA,NA,NA,NA,NA,sub16
d3-instructions,19,130703,0.0-19.0,TRUE,TRUE,FALSE,TRUE,"""event"",""trial"",""time""
""fullscreenenter"",""5"",""15185""
","
","
","""event"",""trial"",""time""
""fullscreenenter"",""5"",""15185""
","
",NA,NA,NA,NA,NA,NA,NA,NA,NA,NA,NA,NA,NA,NA,NA,NA,NA,NA,NA,NA,NA,NA,sub16
d3-animate-choice,20,133803,0.0-20.0,TRUE,TRUE,FALSE,TRUE,"""event"",""trial"",""time""
""fullscreenenter"",""5"",""15185""
","
","
","""event"",""trial"",""time""
""fullscreenenter"",""5"",""15185""
","
",1095.4250000067987,NA,49,NA,NA,3000,1,NA,NA,images/tutyellowplanet.jpg,null,images/tutalien3,null,images/tutalien3,images/t.png,NA,practice,null,NA,NA,NA,NA,sub16
d3-animate-choice,21,136181,0.0-21.0,TRUE,TRUE,FALSE,TRUE,"""event"",""trial"",""time""
""fullscreenenter"",""5"",""15185""
","
","
","""event"",""trial"",""time""
""fullscreenenter"",""5"",""15185""
","
",373.15999998827465,NA,49,NA,NA,3000,1,NA,NA,images/tutyellowplanet.jpg,null,images/tutalien3,null,images/tutalien3,images/t.png,NA,practice,null,NA,NA,NA,NA,sub16
d3-animate-choice,22,138517,0.0-22.0,TRUE,TRUE,FALSE,TRUE,"""event"",""trial"",""time""
""fullscreenenter"",""5"",""15185""
","
","
","""event"",""trial"",""time""
""fullscreenenter"",""5"",""15185""
","
",331.11500000813976,NA,49,NA,NA,3000,1,NA,NA,images/tutyellowplanet.jpg,null,images/tutalien3,null,images/tutalien3,images/t.png,NA,practice,null,NA,NA,NA,NA,sub16
d3-animate-choice,23,140816,0.0-23.0,TRUE,TRUE,FALSE,TRUE,"""event"",""trial"",""time""
""fullscreenenter"",""5"",""15185""
","
","
","""event"",""trial"",""time""
""fullscreenenter"",""5"",""15185""
","
",295.20500000217,NA,49,NA,NA,3000,1,NA,NA,images/tutyellowplanet.jpg,null,images/tutalien3,null,images/tutalien3,images/t.png,NA,practice,null,NA,NA,NA,NA,sub16
d3-animate-choice,24,143136,0.0-24.0,TRUE,TRUE,FALSE,TRUE,"""event"",""trial"",""time""
""fullscreenenter"",""5"",""15185""
","
","
","""event"",""trial"",""time""
""fullscreenenter"",""5"",""15185""
","
",313.64000000758097,NA,49,NA,NA,3000,1,NA,NA,images/tutyellowplanet.jpg,null,images/tutalien3,null,images/tutalien3,images/t.png,NA,practice,null,NA,NA,NA,NA,sub16
d3-animate-choice,25,145461,0.0-25.0,TRUE,TRUE,FALSE,TRUE,"""event"",""trial"",""time""
""fullscreenenter"",""5"",""15185""
","
","
","""event"",""trial"",""time""
""fullscreenenter"",""5"",""15185""
","
",319.54999998561107,NA,49,NA,NA,3000,1,NA,NA,images/tutyellowplanet.jpg,null,images/tutalien3,null,images/tutalien3,images/t.png,NA,practice,null,NA,NA,NA,NA,sub16
d3-animate-choice,26,147850,0.0-26.0,TRUE,TRUE,FALSE,TRUE,"""event"",""trial"",""time""
""fullscreenenter"",""5"",""15185""
","
","
","""event"",""trial"",""time""
""fullscreenenter"",""5"",""15185""
","
",386.11500000115484,NA,49,NA,NA,3000,1,NA,NA,images/tutyellowplanet.jpg,null,images/tutalien3,null,images/tutalien3,images/t.png,NA,practice,null,NA,NA,NA,NA,sub16
d3-animate-choice,27,150165,0.0-27.0,TRUE,TRUE,FALSE,TRUE,"""event"",""trial"",""time""
""fullscreenenter"",""5"",""15185""
","
","
","""event"",""trial"",""time""
""fullscreenenter"",""5"",""15185""
","
",311.7250000068452,NA,49,NA,NA,3000,1,NA,NA,images/tutyellowplanet.jpg,null,images/tutalien3,null,images/tutalien3,images/nothing.png,NA,practice,null,NA,NA,NA,NA,sub16
d3-animate-choice,28,152559,0.0-28.0,TRUE,TRUE,FALSE,TRUE,"""event"",""trial"",""time""
""fullscreenenter"",""5"",""15185""
","
","
","""event"",""trial"",""time""
""fullscreenenter"",""5"",""15185""
","
",390.2399999788031,NA,49,NA,NA,3000,1,NA,NA,images/tutyellowplanet.jpg,null,images/tutalien3,null,images/tutalien3,images/nothing.png,NA,practice,null,NA,NA,NA,NA,sub16
d3-animate-choice,29,155018,0.0-29.0,TRUE,TRUE,FALSE,TRUE,"""event"",""trial"",""time""
""fullscreenenter"",""5"",""15185""
","
","
","""event"",""trial"",""time""
""fullscreenenter"",""5"",""15185""
","
",455.59999998658895,NA,49,NA,NA,3000,1,NA,NA,images/tutyellowplanet.jpg,null,images/tutalien3,null,images/tutalien3,images/t.png,NA,practice,null,NA,NA,NA,NA,sub16
d3-instructions,30,158223,0.0-30.0,TRUE,TRUE,FALSE,TRUE,"""event"",""trial"",""time""
""fullscreenenter"",""5"",""15185""
","
","
","""event"",""trial"",""time""
""fullscreenenter"",""5"",""15185""
","
",NA,NA,NA,NA,NA,NA,NA,NA,NA,NA,NA,NA,NA,NA,NA,NA,NA,NA,NA,NA,NA,NA,sub16
d3-instructions,31,166023,0.0-31.0,TRUE,TRUE,FALSE,TRUE,"""event"",""trial"",""time""
""fullscreenenter"",""5"",""15185""
","
","
","""event"",""trial"",""time""
""fullscreenenter"",""5"",""15185""
","
",NA,NA,NA,NA,NA,NA,NA,NA,NA,NA,NA,NA,NA,NA,NA,NA,NA,NA,NA,NA,NA,NA,sub16
d3-instructions,32,176270,0.0-32.0,TRUE,TRUE,FALSE,TRUE,"""event"",""trial"",""time""
""fullscreenenter"",""5"",""15185""
","
","
","""event"",""trial"",""time""
""fullscreenenter"",""5"",""15185""
","
",NA,NA,NA,NA,NA,NA,NA,NA,NA,NA,NA,NA,NA,NA,NA,NA,NA,NA,NA,NA,NA,NA,sub16
d3-instructions,33,186930,0.0-33.0,TRUE,TRUE,FALSE,TRUE,"""event"",""trial"",""time""
""fullscreenenter"",""5"",""15185""
","
","
","""event"",""trial"",""time""
""fullscreenenter"",""5"",""15185""
","
",NA,NA,NA,NA,NA,NA,NA,NA,NA,NA,NA,NA,NA,NA,NA,NA,NA,NA,NA,NA,NA,NA,sub16
d3-animate-choice,34,190449,0.0-34.0,TRUE,TRUE,FALSE,TRUE,"""event"",""trial"",""time""
""fullscreenenter"",""5"",""15185""
","
","
","""event"",""trial"",""time""
""fullscreenenter"",""5"",""15185""
","
",1516.2100000015926,NA,49,NA,NA,3000,1,NA,NA,images/tutgreenplanet.jpg,images/tutalien1,images/tutalien2,null,images/tutalien2,images/t.png,NA,practice,null,NA,NA,NA,NA,sub16
d3-animate-choice,35,193255,0.0-35.0,TRUE,TRUE,FALSE,TRUE,"""event"",""trial"",""time""
""fullscreenenter"",""5"",""15185""
","
","
","""event"",""trial"",""time""
""fullscreenenter"",""5"",""15185""
","
",798.9899999811314,NA,49,NA,NA,3000,1,NA,NA,images/tutgreenplanet.jpg,images/tutalien1,images/tutalien2,null,images/tutalien2,images/t.png,NA,practice,null,NA,NA,NA,NA,sub16
d3-animate-choice,36,195658,0.0-36.0,TRUE,TRUE,FALSE,TRUE,"""event"",""trial"",""time""
""fullscreenenter"",""5"",""15185""
","
","
","""event"",""trial"",""time""
""fullscreenenter"",""5"",""15185""
","
",398.7700000288896,NA,49,NA,NA,3000,1,NA,NA,images/tutgreenplanet.jpg,images/tutalien1,images/tutalien2,null,images/tutalien2,images/t.png,NA,practice,null,NA,NA,NA,NA,sub16
d3-animate-choice,37,198036,0.0-37.0,TRUE,TRUE,FALSE,TRUE,"""event"",""trial"",""time""
""fullscreenenter"",""5"",""15185""
","
","
","""event"",""trial"",""time""
""fullscreenenter"",""5"",""15185""
","
",371.63999999756925,NA,49,NA,NA,3000,1,NA,NA,images/tutgreenplanet.jpg,images/tutalien1,images/tutalien2,null,images/tutalien2,images/t.png,NA,practice,null,NA,NA,NA,NA,sub16
d3-animate-choice,38,200344,0.0-38.0,TRUE,TRUE,FALSE,TRUE,"""event"",""trial"",""time""
""fullscreenenter"",""5"",""15185""
","
","
","""event"",""trial"",""time""
""fullscreenenter"",""5"",""15185""
","
",302.0449999894481,NA,49,NA,NA,3000,1,NA,NA,images/tutgreenplanet.jpg,images/tutalien1,images/tutalien2,null,images/tutalien2,images/nothing.png,NA,practice,null,NA,NA,NA,NA,sub16
d3-animate-choice,39,202708,0.0-39.0,TRUE,TRUE,FALSE,TRUE,"""event"",""trial"",""time""
""fullscreenenter"",""5"",""15185""
","
","
","""event"",""trial"",""time""
""fullscreenenter"",""5"",""15185""
","
",360.9849999775179,NA,49,NA,NA,3000,1,NA,NA,images/tutgreenplanet.jpg,images/tutalien1,images/tutalien2,null,images/tutalien2,images/t.png,NA,practice,null,NA,NA,NA,NA,sub16
d3-animate-choice,40,204996,0.0-40.0,TRUE,TRUE,FALSE,TRUE,"""event"",""trial"",""time""
""fullscreenenter"",""5"",""15185""
","
","
","""event"",""trial"",""time""
""fullscreenenter"",""5"",""15185""
","
",283.56999999959953,NA,49,NA,NA,3000,1,NA,NA,images/tutgreenplanet.jpg,images/tutalien1,images/tutalien2,null,images/tutalien2,images/t.png,NA,practice,null,NA,NA,NA,NA,sub16
d3-animate-choice,41,207327,0.0-41.0,TRUE,TRUE,FALSE,TRUE,"""event"",""trial"",""time""
""fullscreenenter"",""5"",""15185""
","
","
","""event"",""trial"",""time""
""fullscreenenter"",""5"",""15185""
","
",325.3549999790266,NA,49,NA,NA,3000,1,NA,NA,images/tutgreenplanet.jpg,images/tutalien1,images/tutalien2,null,images/tutalien2,images/t.png,NA,practice,null,NA,NA,NA,NA,sub16
d3-animate-choice,42,209743,0.0-42.0,TRUE,TRUE,FALSE,TRUE,"""event"",""trial"",""time""
""fullscreenenter"",""5"",""15185""
","
","
","""event"",""trial"",""time""
""fullscreenenter"",""5"",""15185""
","
",410.22000001976267,NA,49,NA,NA,3000,1,NA,NA,images/tutgreenplanet.jpg,images/tutalien1,images/tutalien2,null,images/tutalien2,images/t.png,NA,practice,null,NA,NA,NA,NA,sub16
d3-animate-choice,43,212122,0.0-43.0,TRUE,TRUE,FALSE,TRUE,"""event"",""trial"",""time""
""fullscreenenter"",""5"",""15185""
","
","
","""event"",""trial"",""time""
""fullscreenenter"",""5"",""15185""
","
",374.5150000031572,NA,49,NA,NA,3000,1,NA,NA,images/tutgreenplanet.jpg,images/tutalien1,images/tutalien2,null,images/tutalien2,images/t.png,NA,practice,null,NA,NA,NA,NA,sub16
d3-instructions,44,230594,0.0-44.0,TRUE,TRUE,FALSE,TRUE,"""event"",""trial"",""time""
""fullscreenenter"",""5"",""15185""
","
","
","""event"",""trial"",""time""
""fullscreenenter"",""5"",""15185""
","
",NA,NA,NA,NA,NA,NA,NA,NA,NA,NA,NA,NA,NA,NA,NA,NA,NA,NA,NA,NA,NA,NA,sub16
d3-instructions,45,234324,0.0-45.0,TRUE,TRUE,FALSE,TRUE,"""event"",""trial"",""time""
""fullscreenenter"",""5"",""15185""
","
","
","""event"",""trial"",""time""
""fullscreenenter"",""5"",""15185""
","
",NA,NA,NA,NA,NA,NA,NA,NA,NA,NA,NA,NA,NA,NA,NA,NA,NA,NA,NA,NA,NA,NA,sub16
d3-instructions,46,242850,0.0-46.0,TRUE,TRUE,FALSE,TRUE,"""event"",""trial"",""time""
""fullscreenenter"",""5"",""15185""
","
","
","""event"",""trial"",""time""
""fullscreenenter"",""5"",""15185""
","
",NA,NA,NA,NA,NA,NA,NA,NA,NA,NA,NA,NA,NA,NA,NA,NA,NA,NA,NA,NA,NA,NA,sub16
d3-instructions,47,255536,0.0-47.0,TRUE,TRUE,FALSE,TRUE,"""event"",""trial"",""time""
""fullscreenenter"",""5"",""15185""
","
","
","""event"",""trial"",""time""
""fullscreenenter"",""5"",""15185""
","
",NA,NA,NA,NA,NA,NA,NA,NA,NA,NA,NA,NA,NA,NA,NA,NA,NA,NA,NA,NA,NA,NA,sub16
d3-instructions,48,263862,0.0-48.0,TRUE,TRUE,FALSE,TRUE,"""event"",""trial"",""time""
""fullscreenenter"",""5"",""15185""
","
","
","""event"",""trial"",""time""
""fullscreenenter"",""5"",""15185""
","
",NA,NA,NA,NA,NA,NA,NA,NA,NA,NA,NA,NA,NA,NA,NA,NA,NA,NA,NA,NA,NA,NA,sub16
d3-instructions,49,304456,0.0-49.0,TRUE,TRUE,FALSE,TRUE,"""event"",""trial"",""time""
""fullscreenenter"",""5"",""15185""
","
","
","""event"",""trial"",""time""
""fullscreenenter"",""5"",""15185""
","
",NA,NA,NA,NA,NA,NA,NA,NA,NA,NA,NA,NA,NA,NA,NA,NA,NA,NA,NA,NA,NA,NA,sub16
d3-instructions,50,309342,0.0-50.0,TRUE,TRUE,FALSE,TRUE,"""event"",""trial"",""time""
""fullscreenenter"",""5"",""15185""
","
","
","""event"",""trial"",""time""
""fullscreenenter"",""5"",""15185""
","
",NA,NA,NA,NA,NA,NA,NA,NA,NA,NA,NA,NA,NA,NA,NA,NA,NA,NA,NA,NA,NA,NA,sub16
d3-instructions,51,311416,0.0-51.0,TRUE,TRUE,FALSE,TRUE,"""event"",""trial"",""time""
""fullscreenenter"",""5"",""15185""
","
","
","""event"",""trial"",""time""
""fullscreenenter"",""5"",""15185""
","
",NA,NA,NA,NA,NA,NA,NA,NA,NA,NA,NA,NA,NA,NA,NA,NA,NA,NA,NA,NA,NA,NA,sub16
d3-instructions,52,313846,0.0-52.0,TRUE,TRUE,FALSE,TRUE,"""event"",""trial"",""time""
""fullscreenenter"",""5"",""15185""
","
","
","""event"",""trial"",""time""
""fullscreenenter"",""5"",""15185""
","
",NA,NA,NA,NA,NA,NA,NA,NA,NA,NA,NA,NA,NA,NA,NA,NA,NA,NA,NA,NA,NA,NA,sub16
d3-instructions,53,327803,0.0-53.0,TRUE,TRUE,FALSE,TRUE,"""event"",""trial"",""time""
""fullscreenenter"",""5"",""15185""
","
","
","""event"",""trial"",""time""
""fullscreenenter"",""5"",""15185""
","
",NA,NA,NA,NA,NA,NA,NA,NA,NA,NA,NA,NA,NA,NA,NA,NA,NA,NA,NA,NA,NA,NA,sub16
d3-instructions,54,339994,0.0-54.0,TRUE,TRUE,FALSE,TRUE,"""event"",""trial"",""time""
""fullscreenenter"",""5"",""15185""
","
","
","""event"",""trial"",""time""
""fullscreenenter"",""5"",""15185""
","
",NA,NA,NA,NA,NA,NA,NA,NA,NA,NA,NA,NA,NA,NA,NA,NA,NA,NA,NA,NA,NA,NA,sub16
d3-instructions,55,354199,0.0-55.0,TRUE,TRUE,FALSE,TRUE,"""event"",""trial"",""time""
""fullscreenenter"",""5"",""15185""
","
","
","""event"",""trial"",""time""
""fullscreenenter"",""5"",""15185""
","
",NA,NA,NA,NA,NA,NA,NA,NA,NA,NA,NA,NA,NA,NA,NA,NA,NA,NA,NA,NA,NA,NA,sub16
d3-instructions,56,358911,0.0-56.0,TRUE,TRUE,FALSE,TRUE,"""event"",""trial"",""time""
""fullscreenenter"",""5"",""15185""
","
","
","""event"",""trial"",""time""
""fullscreenenter"",""5"",""15185""
","
",NA,NA,NA,NA,NA,NA,NA,NA,NA,NA,NA,NA,NA,NA,NA,NA,NA,NA,NA,NA,NA,NA,sub16
d3-instructions,57,363855,0.0-57.0,TRUE,TRUE,FALSE,TRUE,"""event"",""trial"",""time""
""fullscreenenter"",""5"",""15185""
","
","
","""event"",""trial"",""time""
""fullscreenenter"",""5"",""15185""
","
",NA,NA,NA,NA,NA,NA,NA,NA,NA,NA,NA,NA,NA,NA,NA,NA,NA,NA,NA,NA,NA,NA,sub16
d3-instructions,58,367425,0.0-58.0,TRUE,TRUE,FALSE,TRUE,"""event"",""trial"",""time""
""fullscreenenter"",""5"",""15185""
","
","
","""event"",""trial"",""time""
""fullscreenenter"",""5"",""15185""
","
",NA,NA,NA,NA,NA,NA,NA,NA,NA,NA,NA,NA,NA,NA,NA,NA,NA,NA,NA,NA,NA,NA,sub16
d3-instructions,59,369480,0.0-59.0,TRUE,TRUE,FALSE,TRUE,"""event"",""trial"",""time""
""fullscreenenter"",""5"",""15185""
","
","
","""event"",""trial"",""time""
""fullscreenenter"",""5"",""15185""
","
",NA,NA,NA,NA,NA,NA,NA,NA,NA,NA,NA,NA,NA,NA,NA,NA,NA,NA,NA,NA,NA,NA,sub16
d3-instructions,60,370917,0.0-60.0,TRUE,TRUE,FALSE,TRUE,"""event"",""trial"",""time""
""fullscreenenter"",""5"",""15185""
","
","
","""event"",""trial"",""time""
""fullscreenenter"",""5"",""15185""
","
",NA,NA,NA,NA,NA,NA,NA,NA,NA,NA,NA,NA,NA,NA,NA,NA,NA,NA,NA,NA,NA,NA,sub16
d3-animate-choice,61,374362,0.0-61.0-0.0,TRUE,TRUE,FALSE,TRUE,"""event"",""trial"",""time""
""fullscreenenter"",""5"",""15185""
","
","
","""event"",""trial"",""time""
""fullscreenenter"",""5"",""15185""
","
",1440.859999973327,NA,49,NA,NA,3000,1,NA,NA,images/earth.jpg,images/tutrocket1,images/tutrocket2,null,images/tutrocket2,NA,1,practice,null,1,NA,NA,NA,sub16
d3-animate-choice,62,377231,0.0-61.0-1.0,TRUE,TRUE,FALSE,TRUE,"""event"",""trial"",""time""
""fullscreenenter"",""5"",""15185""
","
","
","""event"",""trial"",""time""
""fullscreenenter"",""5"",""15185""
","
",860.8150000218302,NA,48,NA,NA,3000,1,NA,NA,images/tutgreenplanet.jpg,images/tutalien2,images/tutalien1,images/tutrocket2,images/tutalien2,images/nothing.png,2,practice,false,2,rare,0,2020-06-12T19:52:42Z,sub16
two-step-fixation,63,378236,0.0-61.0-2.0,TRUE,TRUE,FALSE,TRUE,"""event"",""trial"",""time""
""fullscreenenter"",""5"",""15185""
","
","
","""event"",""trial"",""time""
""fullscreenenter"",""5"",""15185""
","
",NA,images/earth.jpg,NA,NA,NA,NA,NA,NA,NA,NA,NA,NA,NA,NA,NA,fixation,NA,NA,NA,NA,NA,NA,sub16
d3-animate-choice,64,380694,0.0-61.0-0.1,TRUE,TRUE,FALSE,TRUE,"""event"",""trial"",""time""
""fullscreenenter"",""5"",""15185""
","
","
","""event"",""trial"",""time""
""fullscreenenter"",""5"",""15185""
","
",453.5500000056345,NA,49,NA,NA,3000,1,NA,NA,images/earth.jpg,images/tutrocket1,images/tutrocket2,null,images/tutrocket2,NA,1,practice,null,1,NA,NA,NA,sub16
d3-animate-choice,65,384019,0.0-61.0-1.1,TRUE,TRUE,FALSE,TRUE,"""event"",""trial"",""time""
""fullscreenenter"",""5"",""15185""
","
","
","""event"",""trial"",""time""
""fullscreenenter"",""5"",""15185""
","
",1322.4599999957718,NA,48,NA,NA,3000,1,NA,NA,images/tutyellowplanet.jpg,images/tutalien4,images/tutalien3,images/tutrocket2,images/tutalien4,images/t.png,2,practice,true,2,common,1,2020-06-12T19:52:49Z,sub16
two-step-fixation,66,385021,0.0-61.0-2.1,TRUE,TRUE,FALSE,TRUE,"""event"",""trial"",""time""
""fullscreenenter"",""5"",""15185""
","
","
","""event"",""trial"",""time""
""fullscreenenter"",""5"",""15185""
","
",NA,images/earth.jpg,NA,NA,NA,NA,NA,NA,NA,NA,NA,NA,NA,NA,NA,fixation,NA,NA,NA,NA,NA,NA,sub16
d3-animate-choice,67,387573,0.0-61.0-0.2,TRUE,TRUE,FALSE,TRUE,"""event"",""trial"",""time""
""fullscreenenter"",""5"",""15185""
","
","
","""event"",""trial"",""time""
""fullscreenenter"",""5"",""15185""
","
",549.1899999906309,NA,49,NA,NA,3000,1,NA,NA,images/earth.jpg,images/tutrocket1,images/tutrocket2,null,images/tutrocket2,NA,1,practice,null,1,NA,NA,NA,sub16
d3-animate-choice,68,390187,0.0-61.0-1.2,TRUE,TRUE,FALSE,TRUE,"""event"",""trial"",""time""
""fullscreenenter"",""5"",""15185""
","
","
","""event"",""trial"",""time""
""fullscreenenter"",""5"",""15185""
","
",610.5600000009872,NA,48,NA,NA,3000,1,NA,NA,images/tutyellowplanet.jpg,images/tutalien4,images/tutalien3,images/tutrocket2,images/tutalien4,images/nothing.png,2,practice,true,2,common,0,2020-06-12T19:52:55Z,sub16
two-step-fixation,69,391194,0.0-61.0-2.2,TRUE,TRUE,FALSE,TRUE,"""event"",""trial"",""time""
""fullscreenenter"",""5"",""15185""
","
","
","""event"",""trial"",""time""
""fullscreenenter"",""5"",""15185""
","
",NA,images/earth.jpg,NA,NA,NA,NA,NA,NA,NA,NA,NA,NA,NA,NA,NA,fixation,NA,NA,NA,NA,NA,NA,sub16
d3-animate-choice,70,393570,0.0-61.0-0.3,TRUE,TRUE,FALSE,TRUE,"""event"",""trial"",""time""
""fullscreenenter"",""5"",""15185""
","
","
","""event"",""trial"",""time""
""fullscreenenter"",""5"",""15185""
","
",374.6800000080839,NA,49,NA,NA,3000,1,NA,NA,images/earth.jpg,images/tutrocket1,images/tutrocket2,null,images/tutrocket2,NA,1,practice,null,1,NA,NA,NA,sub16
d3-animate-choice,71,396440,0.0-61.0-1.3,TRUE,TRUE,FALSE,TRUE,"""event"",""trial"",""time""
""fullscreenenter"",""5"",""15185""
","
","
","""event"",""trial"",""time""
""fullscreenenter"",""5"",""15185""
","
",864.4199999980628,NA,48,NA,NA,3000,1,NA,NA,images/tutyellowplanet.jpg,images/tutalien4,images/tutalien3,images/tutrocket2,images/tutalien4,images/nothing.png,2,practice,true,2,common,0,2020-06-12T19:53:02Z,sub16
two-step-fixation,72,397445,0.0-61.0-2.3,TRUE,TRUE,FALSE,TRUE,"""event"",""trial"",""time""
""fullscreenenter"",""5"",""15185""
","
","
","""event"",""trial"",""time""
""fullscreenenter"",""5"",""15185""
","
",NA,images/earth.jpg,NA,NA,NA,NA,NA,NA,NA,NA,NA,NA,NA,NA,NA,fixation,NA,NA,NA,NA,NA,NA,sub16
d3-animate-choice,73,400055,0.0-61.0-0.4,TRUE,TRUE,FALSE,TRUE,"""event"",""trial"",""time""
""fullscreenenter"",""5"",""15185""
","
","
","""event"",""trial"",""time""
""fullscreenenter"",""5"",""15185""
","
",602.8799999912735,NA,49,NA,NA,3000,1,NA,NA,images/earth.jpg,images/tutrocket1,images/tutrocket2,null,images/tutrocket2,NA,1,practice,null,1,NA,NA,NA,sub16
d3-animate-choice,74,402526,0.0-61.0-1.4,TRUE,TRUE,FALSE,TRUE,"""event"",""trial"",""time""
""fullscreenenter"",""5"",""15185""
","
","
","""event"",""trial"",""time""
""fullscreenenter"",""5"",""15185""
","
",464.8450000095181,NA,49,NA,NA,3000,1,NA,NA,images/tutyellowplanet.jpg,images/tutalien4,images/tutalien3,images/tutrocket2,images/tutalien3,images/nothing.png,2,practice,true,1,common,0,2020-06-12T19:53:08Z,sub16
two-step-fixation,75,403536,0.0-61.0-2.4,TRUE,TRUE,FALSE,TRUE,"""event"",""trial"",""time""
""fullscreenenter"",""5"",""15185""
","
","
","""event"",""trial"",""time""
""fullscreenenter"",""5"",""15185""
","
",NA,images/earth.jpg,NA,NA,NA,NA,NA,NA,NA,NA,NA,NA,NA,NA,NA,fixation,NA,NA,NA,NA,NA,NA,sub16
d3-animate-choice,76,405929,0.0-61.0-0.5,TRUE,TRUE,FALSE,TRUE,"""event"",""trial"",""time""
""fullscreenenter"",""5"",""15185""
","
","
","""event"",""trial"",""time""
""fullscreenenter"",""5"",""15185""
","
",388.6599999968894,NA,49,NA,NA,3000,1,NA,NA,images/earth.jpg,images/tutrocket1,images/tutrocket2,null,images/tutrocket2,NA,1,practice,null,1,NA,NA,NA,sub16
d3-animate-choice,77,408377,0.0-61.0-1.5,TRUE,TRUE,FALSE,TRUE,"""event"",""trial"",""time""
""fullscreenenter"",""5"",""15185""
","
","
","""event"",""trial"",""time""
""fullscreenenter"",""5"",""15185""
","
",442.54000001819804,NA,49,NA,NA,3000,1,NA,NA,images/tutyellowplanet.jpg,images/tutalien4,images/tutalien3,images/tutrocket2,images/tutalien3,images/nothing.png,2,practice,true,1,common,0,2020-06-12T19:53:14Z,sub16
two-step-fixation,78,409383,0.0-61.0-2.5,TRUE,TRUE,FALSE,TRUE,"""event"",""trial"",""time""
""fullscreenenter"",""5"",""15185""
","
","
","""event"",""trial"",""time""
""fullscreenenter"",""5"",""15185""
","
",NA,images/earth.jpg,NA,NA,NA,NA,NA,NA,NA,NA,NA,NA,NA,NA,NA,fixation,NA,NA,NA,NA,NA,NA,sub16
d3-animate-choice,79,412569,0.0-61.0-0.6,TRUE,TRUE,FALSE,TRUE,"""event"",""trial"",""time""
""fullscreenenter"",""5"",""15185""
","
","
","""event"",""trial"",""time""
""fullscreenenter"",""5"",""15185""
","
",1182.2249999968335,NA,48,NA,NA,3000,1,NA,NA,images/earth.jpg,images/tutrocket1,images/tutrocket2,null,images/tutrocket1,NA,1,practice,null,2,NA,NA,NA,sub16
d3-animate-choice,80,415425,0.0-61.0-1.6,TRUE,TRUE,FALSE,TRUE,"""event"",""trial"",""time""
""fullscreenenter"",""5"",""15185""
","
","
","""event"",""trial"",""time""
""fullscreenenter"",""5"",""15185""
","
",848.1550000142306,NA,49,NA,NA,3000,1,NA,NA,images/tutgreenplanet.jpg,images/tutalien2,images/tutalien1,images/tutrocket1,images/tutalien1,images/nothing.png,2,practice,true,1,common,0,2020-06-12T19:53:21Z,sub16
two-step-fixation,81,416429,0.0-61.0-2.6,TRUE,TRUE,FALSE,TRUE,"""event"",""trial"",""time""
""fullscreenenter"",""5"",""15185""
","
","
","""event"",""trial"",""time""
""fullscreenenter"",""5"",""15185""
","
",NA,images/earth.jpg,NA,NA,NA,NA,NA,NA,NA,NA,NA,NA,NA,NA,NA,fixation,NA,NA,NA,NA,NA,NA,sub16
d3-animate-choice,82,418930,0.0-61.0-0.7,TRUE,TRUE,FALSE,TRUE,"""event"",""trial"",""time""
""fullscreenenter"",""5"",""15185""
","
","
","""event"",""trial"",""time""
""fullscreenenter"",""5"",""15185""
","
",496.3500000012573,NA,48,NA,NA,3000,1,NA,NA,images/earth.jpg,images/tutrocket1,images/tutrocket2,null,images/tutrocket1,NA,1,practice,null,2,NA,NA,NA,sub16
d3-animate-choice,83,421451,0.0-61.0-1.7,TRUE,TRUE,FALSE,TRUE,"""event"",""trial"",""time""
""fullscreenenter"",""5"",""15185""
","
","
","""event"",""trial"",""time""
""fullscreenenter"",""5"",""15185""
","
",516.1650000081863,NA,49,NA,NA,3000,1,NA,NA,images/tutgreenplanet.jpg,images/tutalien2,images/tutalien1,images/tutrocket1,images/tutalien1,images/nothing.png,2,practice,true,1,common,0,2020-06-12T19:53:27Z,sub16
two-step-fixation,84,422457,0.0-61.0-2.7,TRUE,TRUE,FALSE,TRUE,"""event"",""trial"",""time""
""fullscreenenter"",""5"",""15185""
","
","
","""event"",""trial"",""time""
""fullscreenenter"",""5"",""15185""
","
",NA,images/earth.jpg,NA,NA,NA,NA,NA,NA,NA,NA,NA,NA,NA,NA,NA,fixation,NA,NA,NA,NA,NA,NA,sub16
d3-animate-choice,85,424916,0.0-61.0-0.8,TRUE,TRUE,FALSE,TRUE,"""event"",""trial"",""time""
""fullscreenenter"",""5"",""15185""
","
","
","""event"",""trial"",""time""
""fullscreenenter"",""5"",""15185""
","
",450.795000011567,NA,48,NA,NA,3000,1,NA,NA,images/earth.jpg,images/tutrocket1,images/tutrocket2,null,images/tutrocket1,NA,1,practice,null,2,NA,NA,NA,sub16
d3-animate-choice,86,428803,0.0-61.0-1.8,TRUE,TRUE,FALSE,TRUE,"""event"",""trial"",""time""
""fullscreenenter"",""5"",""15185""
","
","
","""event"",""trial"",""time""
""fullscreenenter"",""5"",""15185""
","
",1883.1950000021607,NA,48,NA,NA,3000,1,NA,NA,images/tutyellowplanet.jpg,images/tutalien4,images/tutalien3,images/tutrocket1,images/tutalien4,images/t.png,2,practice,false,2,rare,1,2020-06-12T19:53:34Z,sub16
two-step-fixation,87,429808,0.0-61.0-2.8,TRUE,TRUE,FALSE,TRUE,"""event"",""trial"",""time""
""fullscreenenter"",""5"",""15185""
","
","
","""event"",""trial"",""time""
""fullscreenenter"",""5"",""15185""
","
",NA,images/earth.jpg,NA,NA,NA,NA,NA,NA,NA,NA,NA,NA,NA,NA,NA,fixation,NA,NA,NA,NA,NA,NA,sub16
d3-animate-choice,88,432212,0.0-61.0-0.9,TRUE,TRUE,FALSE,TRUE,"""event"",""trial"",""time""
""fullscreenenter"",""5"",""15185""
","
","
","""event"",""trial"",""time""
""fullscreenenter"",""5"",""15185""
","
",398.6800000129733,NA,48,NA,NA,3000,1,NA,NA,images/earth.jpg,images/tutrocket1,images/tutrocket2,null,images/tutrocket1,NA,1,practice,null,2,NA,NA,NA,sub16
d3-animate-choice,89,434697,0.0-61.0-1.9,TRUE,TRUE,FALSE,TRUE,"""event"",""trial"",""time""
""fullscreenenter"",""5"",""15185""
","
","
","""event"",""trial"",""time""
""fullscreenenter"",""5"",""15185""
","
",481.12499999115244,NA,48,NA,NA,3000,1,NA,NA,images/tutyellowplanet.jpg,images/tutalien4,images/tutalien3,images/tutrocket1,images/tutalien4,images/nothing.png,2,practice,false,2,rare,0,2020-06-12T19:53:40Z,sub16
two-step-fixation,90,435705,0.0-61.0-2.9,TRUE,TRUE,FALSE,TRUE,"""event"",""trial"",""time""
""fullscreenenter"",""5"",""15185""
","
","
","""event"",""trial"",""time""
""fullscreenenter"",""5"",""15185""
","
",NA,images/earth.jpg,NA,NA,NA,NA,NA,NA,NA,NA,NA,NA,NA,NA,NA,fixation,NA,NA,NA,NA,NA,NA,sub16
d3-animate-choice,91,438300,0.0-61.0-0.10,TRUE,TRUE,FALSE,TRUE,"""event"",""trial"",""time""
""fullscreenenter"",""5"",""15185""
","
","
","""event"",""trial"",""time""
""fullscreenenter"",""5"",""15185""
","
",589.8800000140909,NA,48,NA,NA,3000,1,NA,NA,images/earth.jpg,images/tutrocket1,images/tutrocket2,null,images/tutrocket1,NA,1,practice,null,2,NA,NA,NA,sub16
d3-animate-choice,92,440714,0.0-61.0-1.10,TRUE,TRUE,FALSE,TRUE,"""event"",""trial"",""time""
""fullscreenenter"",""5"",""15185""
","
","
","""event"",""trial"",""time""
""fullscreenenter"",""5"",""15185""
","
",407.53500000573695,NA,48,NA,NA,3000,1,NA,NA,images/tutgreenplanet.jpg,images/tutalien2,images/tutalien1,images/tutrocket1,images/tutalien2,images/nothing.png,2,practice,true,2,common,0,2020-06-12T19:53:46Z,sub16
two-step-fixation,93,441722,0.0-61.0-2.10,TRUE,TRUE,FALSE,TRUE,"""event"",""trial"",""time""
""fullscreenenter"",""5"",""15185""
","
","
","""event"",""trial"",""time""
""fullscreenenter"",""5"",""15185""
","
",NA,images/earth.jpg,NA,NA,NA,NA,NA,NA,NA,NA,NA,NA,NA,NA,NA,fixation,NA,NA,NA,NA,NA,NA,sub16
d3-animate-choice,94,444655,0.0-61.0-0.11,TRUE,TRUE,FALSE,TRUE,"""event"",""trial"",""time""
""fullscreenenter"",""5"",""15185""
","
","
","""event"",""trial"",""time""
""fullscreenenter"",""5"",""15185""
","
",927.0700000051875,NA,48,NA,NA,3000,1,NA,NA,images/earth.jpg,images/tutrocket1,images/tutrocket2,null,images/tutrocket1,NA,1,practice,null,2,NA,NA,NA,sub16
d3-animate-choice,95,447295,0.0-61.0-1.11,TRUE,TRUE,FALSE,TRUE,"""event"",""trial"",""time""
""fullscreenenter"",""5"",""15185""
","
","
","""event"",""trial"",""time""
""fullscreenenter"",""5"",""15185""
","
",636.2650000082795,NA,48,NA,NA,3000,1,NA,NA,images/tutyellowplanet.jpg,images/tutalien4,images/tutalien3,images/tutrocket1,images/tutalien4,images/t.png,2,practice,false,2,rare,1,2020-06-12T19:53:52Z,sub16
two-step-fixation,96,448298,0.0-61.0-2.11,TRUE,TRUE,FALSE,TRUE,"""event"",""trial"",""time""
""fullscreenenter"",""5"",""15185""
","
","
","""event"",""trial"",""time""
""fullscreenenter"",""5"",""15185""
","
",NA,images/earth.jpg,NA,NA,NA,NA,NA,NA,NA,NA,NA,NA,NA,NA,NA,fixation,NA,NA,NA,NA,NA,NA,sub16
d3-animate-choice,97,452309,0.0-61.0-0.12,TRUE,TRUE,FALSE,TRUE,"""event"",""trial"",""time""
""fullscreenenter"",""5"",""15185""
","
","
","""event"",""trial"",""time""
""fullscreenenter"",""5"",""15185""
","
",null,NA,null,NA,NA,3000,0,NA,NA,images/earth.jpg,images/tutrocket1,images/tutrocket2,null,NA,NA,1,practice,null,NA,NA,NA,NA,sub16
d3-animate-choice,98,453317,0.0-61.0-1.12,TRUE,TRUE,FALSE,TRUE,"""event"",""trial"",""time""
""fullscreenenter"",""5"",""15185""
","
","
","""event"",""trial"",""time""
""fullscreenenter"",""5"",""15185""
","
",null,NA,null,NA,NA,0,0,NA,NA,images/earth.jpg,images/tutrocket1,images/tutrocket2,null,NA,NA,2,practice,null,NA,NA,0,2020-06-12T19:53:58Z,sub16
two-step-fixation,99,454320,0.0-61.0-2.12,TRUE,TRUE,FALSE,TRUE,"""event"",""trial"",""time""
""fullscreenenter"",""5"",""15185""
","
","
","""event"",""trial"",""time""
""fullscreenenter"",""5"",""15185""
","
",NA,images/earth.jpg,NA,NA,NA,NA,NA,NA,NA,NA,NA,NA,NA,NA,NA,fixation,NA,NA,NA,NA,NA,NA,sub16
d3-animate-choice,100,457311,0.0-61.0-0.13,TRUE,TRUE,FALSE,TRUE,"""event"",""trial"",""time""
""fullscreenenter"",""5"",""15185""
","
","
","""event"",""trial"",""time""
""fullscreenenter"",""5"",""15185""
","
",986.4400000078604,NA,49,NA,NA,3000,1,NA,NA,images/earth.jpg,images/tutrocket1,images/tutrocket2,null,images/tutrocket2,NA,1,practice,null,1,NA,NA,NA,sub16
d3-animate-choice,101,460922,0.0-61.0-1.13,TRUE,TRUE,FALSE,TRUE,"""event"",""trial"",""time""
""fullscreenenter"",""5"",""15185""
","
","
","""event"",""trial"",""time""
""fullscreenenter"",""5"",""15185""
","
",1605.7049999944866,NA,49,NA,NA,3000,1,NA,NA,images/tutyellowplanet.jpg,images/tutalien4,images/tutalien3,images/tutrocket2,images/tutalien3,images/t.png,2,practice,true,1,common,1,2020-06-12T19:54:06Z,sub16
two-step-fixation,102,461927,0.0-61.0-2.13,TRUE,TRUE,FALSE,TRUE,"""event"",""trial"",""time""
""fullscreenenter"",""5"",""15185""
","
","
","""event"",""trial"",""time""
""fullscreenenter"",""5"",""15185""
","
",NA,images/earth.jpg,NA,NA,NA,NA,NA,NA,NA,NA,NA,NA,NA,NA,NA,fixation,NA,NA,NA,NA,NA,NA,sub16
d3-animate-choice,103,465933,0.0-61.0-0.14,TRUE,TRUE,FALSE,TRUE,"""event"",""trial"",""time""
""fullscreenenter"",""5"",""15185""
","
","
","""event"",""trial"",""time""
""fullscreenenter"",""5"",""15185""
","
",2474.4399999908637,NA,48,NA,NA,3000,1,NA,NA,images/earth.jpg,images/tutrocket1,images/tutrocket2,null,images/tutrocket1,NA,1,practice,null,2,NA,NA,NA,sub16
d3-animate-choice,104,469939,0.0-61.0-1.14,TRUE,TRUE,FALSE,TRUE,"""event"",""trial"",""time""
""fullscreenenter"",""5"",""15185""
","
","
","""event"",""trial"",""time""
""fullscreenenter"",""5"",""15185""
","
",2219.180000014603,NA,49,NA,NA,3000,1,NA,NA,images/tutyellowplanet.jpg,images/tutalien4,images/tutalien3,images/tutrocket1,images/tutalien3,images/nothing.png,2,practice,false,1,rare,0,2020-06-12T19:54:15Z,sub16
two-step-fixation,105,470944,0.0-61.0-2.14,TRUE,TRUE,FALSE,TRUE,"""event"",""trial"",""time""
""fullscreenenter"",""5"",""15185""
","
","
","""event"",""trial"",""time""
""fullscreenenter"",""5"",""15185""
","
",NA,images/earth.jpg,NA,NA,NA,NA,NA,NA,NA,NA,NA,NA,NA,NA,NA,fixation,NA,NA,NA,NA,NA,NA,sub16
d3-animate-choice,106,473584,0.0-61.0-0.15,TRUE,TRUE,FALSE,TRUE,"""event"",""trial"",""time""
""fullscreenenter"",""5"",""15185""
","
","
","""event"",""trial"",""time""
""fullscreenenter"",""5"",""15185""
","
",635.4899999860208,NA,48,NA,NA,3000,1,NA,NA,images/earth.jpg,images/tutrocket1,images/tutrocket2,null,images/tutrocket1,NA,1,practice,null,2,NA,NA,NA,sub16
d3-animate-choice,107,477589,0.0-61.0-1.15,TRUE,TRUE,FALSE,TRUE,"""event"",""trial"",""time""
""fullscreenenter"",""5"",""15185""
","
","
","""event"",""trial"",""time""
""fullscreenenter"",""5"",""15185""
","
",2170.415000000503,NA,49,NA,NA,3000,1,NA,NA,images/tutyellowplanet.jpg,images/tutalien4,images/tutalien3,images/tutrocket1,images/tutalien3,images/t.png,2,practice,false,1,rare,1,2020-06-12T19:54:23Z,sub16
two-step-fixation,108,478595,0.0-61.0-2.15,TRUE,TRUE,FALSE,TRUE,"""event"",""trial"",""time""
""fullscreenenter"",""5"",""15185""
","
","
","""event"",""trial"",""time""
""fullscreenenter"",""5"",""15185""
","
",NA,images/earth.jpg,NA,NA,NA,NA,NA,NA,NA,NA,NA,NA,NA,NA,NA,fixation,NA,NA,NA,NA,NA,NA,sub16
d3-animate-choice,109,481215,0.0-61.0-0.16,TRUE,TRUE,FALSE,TRUE,"""event"",""trial"",""time""
""fullscreenenter"",""5"",""15185""
","
","
","""event"",""trial"",""time""
""fullscreenenter"",""5"",""15185""
","
",611.4999999990687,NA,48,NA,NA,3000,1,NA,NA,images/earth.jpg,images/tutrocket1,images/tutrocket2,null,images/tutrocket1,NA,1,practice,null,2,NA,NA,NA,sub16
d3-animate-choice,110,483957,0.0-61.0-1.16,TRUE,TRUE,FALSE,TRUE,"""event"",""trial"",""time""
""fullscreenenter"",""5"",""15185""
","
","
","""event"",""trial"",""time""
""fullscreenenter"",""5"",""15185""
","
",736.6850000107661,NA,49,NA,NA,3000,1,NA,NA,images/tutgreenplanet.jpg,images/tutalien2,images/tutalien1,images/tutrocket1,images/tutalien1,images/nothing.png,2,practice,true,1,common,0,2020-06-12T19:54:29Z,sub16
two-step-fixation,111,484962,0.0-61.0-2.16,TRUE,TRUE,FALSE,TRUE,"""event"",""trial"",""time""
""fullscreenenter"",""5"",""15185""
","
","
","""event"",""trial"",""time""
""fullscreenenter"",""5"",""15185""
","
",NA,images/earth.jpg,NA,NA,NA,NA,NA,NA,NA,NA,NA,NA,NA,NA,NA,fixation,NA,NA,NA,NA,NA,NA,sub16
d3-animate-choice,112,487395,0.0-61.0-0.17,TRUE,TRUE,FALSE,TRUE,"""event"",""trial"",""time""
""fullscreenenter"",""5"",""15185""
","
","
","""event"",""trial"",""time""
""fullscreenenter"",""5"",""15185""
","
",427.5649999908637,NA,48,NA,NA,3000,1,NA,NA,images/earth.jpg,images/tutrocket1,images/tutrocket2,null,images/tutrocket1,NA,1,practice,null,2,NA,NA,NA,sub16
d3-animate-choice,113,489961,0.0-61.0-1.17,TRUE,TRUE,FALSE,TRUE,"""event"",""trial"",""time""
""fullscreenenter"",""5"",""15185""
","
","
","""event"",""trial"",""time""
""fullscreenenter"",""5"",""15185""
","
",562.019999983022,NA,48,NA,NA,3000,1,NA,NA,images/tutyellowplanet.jpg,images/tutalien4,images/tutalien3,images/tutrocket1,images/tutalien4,images/t.png,2,practice,false,2,rare,1,2020-06-12T19:54:35Z,sub16
two-step-fixation,114,490965,0.0-61.0-2.17,TRUE,TRUE,FALSE,TRUE,"""event"",""trial"",""time""
""fullscreenenter"",""5"",""15185""
","
","
","""event"",""trial"",""time""
""fullscreenenter"",""5"",""15185""
","
",NA,images/earth.jpg,NA,NA,NA,NA,NA,NA,NA,NA,NA,NA,NA,NA,NA,fixation,NA,NA,NA,NA,NA,NA,sub16
d3-animate-choice,115,493466,0.0-61.0-0.18,TRUE,TRUE,FALSE,TRUE,"""event"",""trial"",""time""
""fullscreenenter"",""5"",""15185""
","
","
","""event"",""trial"",""time""
""fullscreenenter"",""5"",""15185""
","
",494.4400000094902,NA,48,NA,NA,3000,1,NA,NA,images/earth.jpg,images/tutrocket1,images/tutrocket2,null,images/tutrocket1,NA,1,practice,null,2,NA,NA,NA,sub16
d3-animate-choice,116,496351,0.0-61.0-1.18,TRUE,TRUE,FALSE,TRUE,"""event"",""trial"",""time""
""fullscreenenter"",""5"",""15185""
","
","
","""event"",""trial"",""time""
""fullscreenenter"",""5"",""15185""
","
",880.814999982249,NA,48,NA,NA,3000,1,NA,NA,images/tutgreenplanet.jpg,images/tutalien2,images/tutalien1,images/tutrocket1,images/tutalien2,images/t.png,2,practice,true,2,common,1,2020-06-12T19:54:41Z,sub16
two-step-fixation,117,497355,0.0-61.0-2.18,TRUE,TRUE,FALSE,TRUE,"""event"",""trial"",""time""
""fullscreenenter"",""5"",""15185""
","
","
","""event"",""trial"",""time""
""fullscreenenter"",""5"",""15185""
","
",NA,images/earth.jpg,NA,NA,NA,NA,NA,NA,NA,NA,NA,NA,NA,NA,NA,fixation,NA,NA,NA,NA,NA,NA,sub16
d3-animate-choice,118,501360,0.0-61.0-0.19,TRUE,TRUE,FALSE,TRUE,"""event"",""trial"",""time""
""fullscreenenter"",""5"",""15185""
","
","
","""event"",""trial"",""time""
""fullscreenenter"",""5"",""15185""
","
",2040.64500000095,NA,48,NA,NA,3000,1,NA,NA,images/earth.jpg,images/tutrocket1,images/tutrocket2,null,images/tutrocket1,NA,1,practice,null,2,NA,NA,NA,sub16
d3-animate-choice,119,504823,0.0-61.0-1.19,TRUE,TRUE,FALSE,TRUE,"""event"",""trial"",""time""
""fullscreenenter"",""5"",""15185""
","
","
","""event"",""trial"",""time""
""fullscreenenter"",""5"",""15185""
","
",1458.165000018198,NA,48,NA,NA,3000,1,NA,NA,images/tutgreenplanet.jpg,images/tutalien2,images/tutalien1,images/tutrocket1,images/tutalien2,images/nothing.png,2,practice,true,2,common,0,2020-06-12T19:54:50Z,sub16
two-step-fixation,120,505828,0.0-61.0-2.19,TRUE,TRUE,FALSE,TRUE,"""event"",""trial"",""time""
""fullscreenenter"",""5"",""15185""
","
","
","""event"",""trial"",""time""
""fullscreenenter"",""5"",""15185""
","
",NA,images/earth.jpg,NA,NA,NA,NA,NA,NA,NA,NA,NA,NA,NA,NA,NA,fixation,NA,NA,NA,NA,NA,NA,sub16
d3-instructions,121,511204,0.0-62.0,TRUE,TRUE,FALSE,TRUE,"""event"",""trial"",""time""
""fullscreenenter"",""5"",""15185""
","
","
","""event"",""trial"",""time""
""fullscreenenter"",""5"",""15185""
","
",NA,NA,NA,NA,NA,NA,NA,NA,NA,NA,NA,NA,NA,NA,NA,NA,NA,NA,NA,NA,NA,NA,sub16
audio-keyboard-response,122,513426,0.0-63.0,TRUE,TRUE,FALSE,TRUE,"""event"",""trial"",""time""
""fullscreenenter"",""5"",""15185""
","
","
","""event"",""trial"",""time""
""fullscreenenter"",""5"",""15185""
","
",2219,audio/instructions/treasure_feedback.wav,32,NA,NA,NA,NA,NA,NA,NA,NA,NA,NA,NA,NA,NA,NA,NA,NA,NA,NA,NA,sub16
d3-instructions,123,522974,0.0-64.0,TRUE,TRUE,FALSE,TRUE,"""event"",""trial"",""time""
""fullscreenenter"",""5"",""15185""
","
","
","""event"",""trial"",""time""
""fullscreenenter"",""5"",""15185""
","
",NA,NA,NA,NA,NA,NA,NA,NA,NA,NA,NA,NA,NA,NA,NA,NA,NA,NA,NA,NA,NA,NA,sub16
d3-instructions,124,537514,0.0-65.0,TRUE,TRUE,FALSE,TRUE,"""event"",""trial"",""time""
""fullscreenenter"",""5"",""15185""
","
","
","""event"",""trial"",""time""
""fullscreenenter"",""5"",""15185""
","
",NA,NA,NA,NA,NA,NA,NA,NA,NA,NA,NA,NA,NA,NA,NA,NA,NA,NA,NA,NA,NA,NA,sub16
d3-instructions,125,559843,0.0-66.0,TRUE,TRUE,FALSE,TRUE,"""event"",""trial"",""time""
""fullscreenenter"",""5"",""15185""
","
","
","""event"",""trial"",""time""
""fullscreenenter"",""5"",""15185""
","
",NA,NA,NA,NA,NA,NA,NA,NA,NA,NA,NA,NA,NA,NA,NA,NA,NA,NA,NA,NA,NA,NA,sub16
d3-instructions,126,573441,0.0-67.0,TRUE,TRUE,FALSE,TRUE,"""event"",""trial"",""time""
""fullscreenenter"",""5"",""15185""
","
","
","""event"",""trial"",""time""
""fullscreenenter"",""5"",""15185""
","
",NA,NA,NA,NA,NA,NA,NA,NA,NA,NA,NA,NA,NA,NA,NA,NA,NA,NA,NA,NA,NA,NA,sub16
d3-instructions,127,577907,0.0-68.0,TRUE,TRUE,FALSE,TRUE,"""event"",""trial"",""time""
""fullscreenenter"",""5"",""15185""
","
","
","""event"",""trial"",""time""
""fullscreenenter"",""5"",""15185""
","
",NA,NA,NA,NA,NA,NA,NA,NA,NA,NA,NA,NA,NA,NA,NA,NA,NA,NA,NA,NA,NA,NA,sub16
instructions-quiz,128,581201,0.0-69.0,TRUE,TRUE,FALSE,TRUE,"""event"",""trial"",""time""
""fullscreenenter"",""5"",""15185""
","
","
","""event"",""trial"",""time""
""fullscreenenter"",""5"",""15185""
","
",3292.504999990342,audio/quiz/Q1_Prompt.wav,NA,1,NA,NA,NA,NA,NA,NA,NA,NA,NA,NA,NA,NA,NA,NA,NA,NA,NA,NA,sub16
audio-keyboard-response,129,582724,0.0-70.0,TRUE,TRUE,FALSE,TRUE,"""event"",""trial"",""time""
""fullscreenenter"",""5"",""15185""
","
","
","""event"",""trial"",""time""
""fullscreenenter"",""5"",""15185""
","
",1525,audio/quiz/Q1_Correct.wav,32,NA,NA,NA,NA,NA,NA,NA,NA,NA,NA,NA,NA,NA,NA,NA,NA,NA,NA,NA,sub16
instructions-quiz,130,590062,0.0-71.0,TRUE,TRUE,FALSE,TRUE,"""event"",""trial"",""time""
""fullscreenenter"",""5"",""15185""
","
","
","""event"",""trial"",""time""
""fullscreenenter"",""5"",""15185""
","
",7336.230000015348,audio/quiz/Q2_Prompt.wav,NA,0,NA,NA,NA,NA,NA,NA,NA,NA,NA,NA,NA,NA,NA,NA,NA,NA,NA,NA,sub16
audio-keyboard-response,131,596452,0.0-72.0,TRUE,TRUE,FALSE,TRUE,"""event"",""trial"",""time""
""fullscreenenter"",""5"",""15185""
","
","
","""event"",""trial"",""time""
""fullscreenenter"",""5"",""15185""
","
",6389,audio/quiz/Q2_Correct.wav,32,NA,NA,NA,NA,NA,NA,NA,NA,NA,NA,NA,NA,NA,NA,NA,NA,NA,NA,NA,sub16
instructions-quiz,132,598777,0.0-73.0,TRUE,TRUE,FALSE,TRUE,"""event"",""trial"",""time""
""fullscreenenter"",""5"",""15185""
","
","
","""event"",""trial"",""time""
""fullscreenenter"",""5"",""15185""
","
",2323.6050000123214,audio/quiz/Q3_Prompt.wav,NA,1,NA,NA,NA,NA,NA,NA,NA,NA,NA,NA,NA,NA,NA,NA,NA,NA,NA,NA,sub16
audio-keyboard-response,133,599424,0.0-74.0,TRUE,TRUE,FALSE,TRUE,"""event"",""trial"",""time""
""fullscreenenter"",""5"",""15185""
","
","
","""event"",""trial"",""time""
""fullscreenenter"",""5"",""15185""
","
",645,audio/quiz/Q3_Correct.wav,32,NA,NA,NA,NA,NA,NA,NA,NA,NA,NA,NA,NA,NA,NA,NA,NA,NA,NA,NA,sub16
d3-instructions,134,610437,0.0-75.0,TRUE,TRUE,FALSE,TRUE,"""event"",""trial"",""time""
""fullscreenenter"",""5"",""15185""
","
","
","""event"",""trial"",""time""
""fullscreenenter"",""5"",""15185""
","
",NA,NA,NA,NA,NA,NA,NA,NA,NA,NA,NA,NA,NA,NA,NA,NA,NA,NA,NA,NA,NA,NA,sub16
d3-animate-choice,135,614057,0.0-76.0-0.0,TRUE,TRUE,FALSE,TRUE,"""event"",""trial"",""time""
""fullscreenenter"",""5"",""15185""
","
","
","""event"",""trial"",""time""
""fullscreenenter"",""5"",""15185""
","
",1614.8000000102911,NA,49,NA,NA,3000,1,NA,NA,images/earth.jpg,images/rocket2,images/rocket1,null,images/rocket1,NA,1,real,null,1,NA,NA,NA,sub16
d3-animate-choice,136,617115,0.0-76.0-1.0,TRUE,TRUE,FALSE,TRUE,"""event"",""trial"",""time""
""fullscreenenter"",""5"",""15185""
","
","
","""event"",""trial"",""time""
""fullscreenenter"",""5"",""15185""
","
",1053.3249999862164,NA,49,NA,NA,3000,1,NA,NA,images/redplanet1.jpg,images/alien2,images/alien1,images/rocket1,images/alien1,images/nothing.png,2,real,true,1,common,0,2020-06-12T19:56:42Z,sub16
two-step-fixation,137,618118,0.0-76.0-2.0,TRUE,TRUE,FALSE,TRUE,"""event"",""trial"",""time""
""fullscreenenter"",""5"",""15185""
","
","
","""event"",""trial"",""time""
""fullscreenenter"",""5"",""15185""
","
",NA,images/earth.jpg,NA,NA,NA,NA,NA,NA,NA,NA,NA,NA,NA,NA,NA,fixation,NA,NA,NA,NA,NA,NA,sub16
d3-animate-choice,138,620449,0.0-76.0-0.1,TRUE,TRUE,FALSE,TRUE,"""event"",""trial"",""time""
""fullscreenenter"",""5"",""15185""
","
","
","""event"",""trial"",""time""
""fullscreenenter"",""5"",""15185""
","
",329.05999998911284,NA,49,NA,NA,3000,1,NA,NA,images/earth.jpg,images/rocket2,images/rocket1,null,images/rocket1,NA,1,real,null,1,NA,NA,NA,sub16
d3-animate-choice,139,623769,0.0-76.0-1.1,TRUE,TRUE,FALSE,TRUE,"""event"",""trial"",""time""
""fullscreenenter"",""5"",""15185""
","
","
","""event"",""trial"",""time""
""fullscreenenter"",""5"",""15185""
","
",1314.329999993788,NA,49,NA,NA,3000,1,NA,NA,images/redplanet1.jpg,images/alien2,images/alien1,images/rocket1,images/alien1,images/t.png,2,real,true,1,common,1,2020-06-12T19:56:49Z,sub16
two-step-fixation,140,624772,0.0-76.0-2.1,TRUE,TRUE,FALSE,TRUE,"""event"",""trial"",""time""
""fullscreenenter"",""5"",""15185""
","
","
","""event"",""trial"",""time""
""fullscreenenter"",""5"",""15185""
","
",NA,images/earth.jpg,NA,NA,NA,NA,NA,NA,NA,NA,NA,NA,NA,NA,NA,fixation,NA,NA,NA,NA,NA,NA,sub16
d3-animate-choice,141,627230,0.0-76.0-0.2,TRUE,TRUE,FALSE,TRUE,"""event"",""trial"",""time""
""fullscreenenter"",""5"",""15185""
","
","
","""event"",""trial"",""time""
""fullscreenenter"",""5"",""15185""
","
",455.164999992121,NA,49,NA,NA,3000,1,NA,NA,images/earth.jpg,images/rocket2,images/rocket1,null,images/rocket1,NA,1,real,null,1,NA,NA,NA,sub16
d3-animate-choice,142,629897,0.0-76.0-1.2,TRUE,TRUE,FALSE,TRUE,"""event"",""trial"",""time""
""fullscreenenter"",""5"",""15185""
","
","
","""event"",""trial"",""time""
""fullscreenenter"",""5"",""15185""
","
",664.7550000052433,NA,49,NA,NA,3000,1,NA,NA,images/redplanet1.jpg,images/alien2,images/alien1,images/rocket1,images/alien1,images/nothing.png,2,real,true,1,common,0,2020-06-12T19:56:55Z,sub16
two-step-fixation,143,630899,0.0-76.0-2.2,TRUE,TRUE,FALSE,TRUE,"""event"",""trial"",""time""
""fullscreenenter"",""5"",""15185""
","
","
","""event"",""trial"",""time""
""fullscreenenter"",""5"",""15185""
","
",NA,images/earth.jpg,NA,NA,NA,NA,NA,NA,NA,NA,NA,NA,NA,NA,NA,fixation,NA,NA,NA,NA,NA,NA,sub16
d3-animate-choice,144,633219,0.0-76.0-0.3,TRUE,TRUE,FALSE,TRUE,"""event"",""trial"",""time""
""fullscreenenter"",""5"",""15185""
","
","
","""event"",""trial"",""time""
""fullscreenenter"",""5"",""15185""
","
",314.4949999987148,NA,49,NA,NA,3000,1,NA,NA,images/earth.jpg,images/rocket2,images/rocket1,null,images/rocket1,NA,1,real,null,1,NA,NA,NA,sub16
d3-animate-choice,145,635723,0.0-76.0-1.3,TRUE,TRUE,FALSE,TRUE,"""event"",""trial"",""time""
""fullscreenenter"",""5"",""15185""
","
","
","""event"",""trial"",""time""
""fullscreenenter"",""5"",""15185""
","
",500.82000001566485,NA,48,NA,NA,3000,1,NA,NA,images/redplanet1.jpg,images/alien2,images/alien1,images/rocket1,images/alien2,images/nothing.png,2,real,true,2,common,0,2020-06-12T19:57:01Z,sub16
two-step-fixation,146,636725,0.0-76.0-2.3,TRUE,TRUE,FALSE,TRUE,"""event"",""trial"",""time""
""fullscreenenter"",""5"",""15185""
","
","
","""event"",""trial"",""time""
""fullscreenenter"",""5"",""15185""
","
",NA,images/earth.jpg,NA,NA,NA,NA,NA,NA,NA,NA,NA,NA,NA,NA,NA,fixation,NA,NA,NA,NA,NA,NA,sub16
d3-animate-choice,147,639251,0.0-76.0-0.4,TRUE,TRUE,FALSE,TRUE,"""event"",""trial"",""time""
""fullscreenenter"",""5"",""15185""
","
","
","""event"",""trial"",""time""
""fullscreenenter"",""5"",""15185""
","
",522.4149999849033,NA,49,NA,NA,3000,1,NA,NA,images/earth.jpg,images/rocket2,images/rocket1,null,images/rocket1,NA,1,real,null,1,NA,NA,NA,sub16
d3-animate-choice,148,641785,0.0-76.0-1.4,TRUE,TRUE,FALSE,TRUE,"""event"",""trial"",""time""
""fullscreenenter"",""5"",""15185""
","
","
","""event"",""trial"",""time""
""fullscreenenter"",""5"",""15185""
","
",529.0800000075251,NA,48,NA,NA,3000,1,NA,NA,images/redplanet1.jpg,images/alien2,images/alien1,images/rocket1,images/alien2,images/t.png,2,real,true,2,common,1,2020-06-12T19:57:07Z,sub16
two-step-fixation,149,642794,0.0-76.0-2.4,TRUE,TRUE,FALSE,TRUE,"""event"",""trial"",""time""
""fullscreenenter"",""5"",""15185""
","
","
","""event"",""trial"",""time""
""fullscreenenter"",""5"",""15185""
","
",NA,images/earth.jpg,NA,NA,NA,NA,NA,NA,NA,NA,NA,NA,NA,NA,NA,fixation,NA,NA,NA,NA,NA,NA,sub16
d3-animate-choice,150,645124,0.0-76.0-0.5,TRUE,TRUE,FALSE,TRUE,"""event"",""trial"",""time""
""fullscreenenter"",""5"",""15185""
","
","
","""event"",""trial"",""time""
""fullscreenenter"",""5"",""15185""
","
",325.1950000121724,NA,49,NA,NA,3000,1,NA,NA,images/earth.jpg,images/rocket2,images/rocket1,null,images/rocket1,NA,1,real,null,1,NA,NA,NA,sub16
d3-animate-choice,151,648000,0.0-76.0-1.5,TRUE,TRUE,FALSE,TRUE,"""event"",""trial"",""time""
""fullscreenenter"",""5"",""15185""
","
","
","""event"",""trial"",""time""
""fullscreenenter"",""5"",""15185""
","
",867.0600000186823,NA,49,NA,NA,3000,1,NA,NA,images/purpleplanet.jpg,images/alien4,images/alien3,images/rocket1,images/alien3,images/nothing.png,2,real,false,1,rare,0,2020-06-12T19:57:13Z,sub16
two-step-fixation,152,649008,0.0-76.0-2.5,TRUE,TRUE,FALSE,TRUE,"""event"",""trial"",""time""
""fullscreenenter"",""5"",""15185""
","
","
","""event"",""trial"",""time""
""fullscreenenter"",""5"",""15185""
","
",NA,images/earth.jpg,NA,NA,NA,NA,NA,NA,NA,NA,NA,NA,NA,NA,NA,fixation,NA,NA,NA,NA,NA,NA,sub16
d3-animate-choice,153,651275,0.0-76.0-0.6,TRUE,TRUE,FALSE,TRUE,"""event"",""trial"",""time""
""fullscreenenter"",""5"",""15185""
","
","
","""event"",""trial"",""time""
""fullscreenenter"",""5"",""15185""
","
",262.3400000156835,NA,49,NA,NA,3000,1,NA,NA,images/earth.jpg,images/rocket2,images/rocket1,null,images/rocket1,NA,1,real,null,1,NA,NA,NA,sub16
d3-animate-choice,154,653955,0.0-76.0-1.6,TRUE,TRUE,FALSE,TRUE,"""event"",""trial"",""time""
""fullscreenenter"",""5"",""15185""
","
","
","""event"",""trial"",""time""
""fullscreenenter"",""5"",""15185""
","
",673.5800000024028,NA,48,NA,NA,3000,1,NA,NA,images/redplanet1.jpg,images/alien2,images/alien1,images/rocket1,images/alien2,images/t.png,2,real,true,2,common,1,2020-06-12T19:57:19Z,sub16
two-step-fixation,155,654959,0.0-76.0-2.6,TRUE,TRUE,FALSE,TRUE,"""event"",""trial"",""time""
""fullscreenenter"",""5"",""15185""
","
","
","""event"",""trial"",""time""
""fullscreenenter"",""5"",""15185""
","
",NA,images/earth.jpg,NA,NA,NA,NA,NA,NA,NA,NA,NA,NA,NA,NA,NA,fixation,NA,NA,NA,NA,NA,NA,sub16
d3-animate-choice,156,657993,0.0-76.0-0.7,TRUE,TRUE,FALSE,TRUE,"""event"",""trial"",""time""
""fullscreenenter"",""5"",""15185""
","
","
","""event"",""trial"",""time""
""fullscreenenter"",""5"",""15185""
","
",1024.6550000156276,NA,49,NA,NA,3000,1,NA,NA,images/earth.jpg,images/rocket2,images/rocket1,null,images/rocket1,NA,1,real,null,1,NA,NA,NA,sub16
d3-animate-choice,157,660943,0.0-76.0-1.7,TRUE,TRUE,FALSE,TRUE,"""event"",""trial"",""time""
""fullscreenenter"",""5"",""15185""
","
","
","""event"",""trial"",""time""
""fullscreenenter"",""5"",""15185""
","
",945.6650000065565,NA,48,NA,NA,3000,1,NA,NA,images/purpleplanet.jpg,images/alien4,images/alien3,images/rocket1,images/alien4,images/t.png,2,real,false,2,rare,1,2020-06-12T19:57:26Z,sub16
two-step-fixation,158,661948,0.0-76.0-2.7,TRUE,TRUE,FALSE,TRUE,"""event"",""trial"",""time""
""fullscreenenter"",""5"",""15185""
","
","
","""event"",""trial"",""time""
""fullscreenenter"",""5"",""15185""
","
",NA,images/earth.jpg,NA,NA,NA,NA,NA,NA,NA,NA,NA,NA,NA,NA,NA,fixation,NA,NA,NA,NA,NA,NA,sub16
d3-animate-choice,159,664223,0.0-76.0-0.8,TRUE,TRUE,FALSE,TRUE,"""event"",""trial"",""time""
""fullscreenenter"",""5"",""15185""
","
","
","""event"",""trial"",""time""
""fullscreenenter"",""5"",""15185""
","
",267.39999998244457,NA,48,NA,NA,3000,1,NA,NA,images/earth.jpg,images/rocket2,images/rocket1,null,images/rocket2,NA,1,real,null,2,NA,NA,NA,sub16
d3-animate-choice,160,666657,0.0-76.0-1.8,TRUE,TRUE,FALSE,TRUE,"""event"",""trial"",""time""
""fullscreenenter"",""5"",""15185""
","
","
","""event"",""trial"",""time""
""fullscreenenter"",""5"",""15185""
","
",428.27000000397675,NA,48,NA,NA,3000,1,NA,NA,images/purpleplanet.jpg,images/alien4,images/alien3,images/rocket2,images/alien4,images/t.png,2,real,true,2,common,1,2020-06-12T19:57:32Z,sub16
two-step-fixation,161,667665,0.0-76.0-2.8,TRUE,TRUE,FALSE,TRUE,"""event"",""trial"",""time""
""fullscreenenter"",""5"",""15185""
","
","
","""event"",""trial"",""time""
""fullscreenenter"",""5"",""15185""
","
",NA,images/earth.jpg,NA,NA,NA,NA,NA,NA,NA,NA,NA,NA,NA,NA,NA,fixation,NA,NA,NA,NA,NA,NA,sub16
d3-animate-choice,162,669952,0.0-76.0-0.9,TRUE,TRUE,FALSE,TRUE,"""event"",""trial"",""time""
""fullscreenenter"",""5"",""15185""
","
","
","""event"",""trial"",""time""
""fullscreenenter"",""5"",""15185""
","
",282.3999999964144,NA,48,NA,NA,3000,1,NA,NA,images/earth.jpg,images/rocket2,images/rocket1,null,images/rocket2,NA,1,real,null,2,NA,NA,NA,sub16
d3-animate-choice,163,672301,0.0-76.0-1.9,TRUE,TRUE,FALSE,TRUE,"""event"",""trial"",""time""
""fullscreenenter"",""5"",""15185""
","
","
","""event"",""trial"",""time""
""fullscreenenter"",""5"",""15185""
","
",342.7500000107102,NA,48,NA,NA,3000,1,NA,NA,images/purpleplanet.jpg,images/alien4,images/alien3,images/rocket2,images/alien4,images/t.png,2,real,true,2,common,1,2020-06-12T19:57:37Z,sub16
two-step-fixation,164,673305,0.0-76.0-2.9,TRUE,TRUE,FALSE,TRUE,"""event"",""trial"",""time""
""fullscreenenter"",""5"",""15185""
","
","
","""event"",""trial"",""time""
""fullscreenenter"",""5"",""15185""
","
",NA,images/earth.jpg,NA,NA,NA,NA,NA,NA,NA,NA,NA,NA,NA,NA,NA,fixation,NA,NA,NA,NA,NA,NA,sub16
d3-animate-choice,165,675592,0.0-76.0-0.10,TRUE,TRUE,FALSE,TRUE,"""event"",""trial"",""time""
""fullscreenenter"",""5"",""15185""
","
","
","""event"",""trial"",""time""
""fullscreenenter"",""5"",""15185""
","
",279.8999999940861,NA,48,NA,NA,3000,1,NA,NA,images/earth.jpg,images/rocket2,images/rocket1,null,images/rocket2,NA,1,real,null,2,NA,NA,NA,sub16
d3-animate-choice,166,678032,0.0-76.0-1.10,TRUE,TRUE,FALSE,TRUE,"""event"",""trial"",""time""
""fullscreenenter"",""5"",""15185""
","
","
","""event"",""trial"",""time""
""fullscreenenter"",""5"",""15185""
","
",434.689999994589,NA,48,NA,NA,3000,1,NA,NA,images/redplanet1.jpg,images/alien2,images/alien1,images/rocket2,images/alien2,images/nothing.png,2,real,false,2,rare,0,2020-06-12T19:57:43Z,sub16
two-step-fixation,167,679040,0.0-76.0-2.10,TRUE,TRUE,FALSE,TRUE,"""event"",""trial"",""time""
""fullscreenenter"",""5"",""15185""
","
","
","""event"",""trial"",""time""
""fullscreenenter"",""5"",""15185""
","
",NA,images/earth.jpg,NA,NA,NA,NA,NA,NA,NA,NA,NA,NA,NA,NA,NA,fixation,NA,NA,NA,NA,NA,NA,sub16
d3-animate-choice,168,681298,0.0-76.0-0.11,TRUE,TRUE,FALSE,TRUE,"""event"",""trial"",""time""
""fullscreenenter"",""5"",""15185""
","
","
","""event"",""trial"",""time""
""fullscreenenter"",""5"",""15185""
","
",252.9999999969732,NA,48,NA,NA,3000,1,NA,NA,images/earth.jpg,images/rocket2,images/rocket1,null,images/rocket2,NA,1,real,null,2,NA,NA,NA,sub16
d3-animate-choice,169,683654,0.0-76.0-1.11,TRUE,TRUE,FALSE,TRUE,"""event"",""trial"",""time""
""fullscreenenter"",""5"",""15185""
","
","
","""event"",""trial"",""time""
""fullscreenenter"",""5"",""15185""
","
",347.9499999957625,NA,48,NA,NA,3000,1,NA,NA,images/redplanet1.jpg,images/alien2,images/alien1,images/rocket2,images/alien2,images/t.png,2,real,false,2,rare,1,2020-06-12T19:57:49Z,sub16
two-step-fixation,170,684664,0.0-76.0-2.11,TRUE,TRUE,FALSE,TRUE,"""event"",""trial"",""time""
""fullscreenenter"",""5"",""15185""
","
","
","""event"",""trial"",""time""
""fullscreenenter"",""5"",""15185""
","
",NA,images/earth.jpg,NA,NA,NA,NA,NA,NA,NA,NA,NA,NA,NA,NA,NA,fixation,NA,NA,NA,NA,NA,NA,sub16
d3-animate-choice,171,686944,0.0-76.0-0.12,TRUE,TRUE,FALSE,TRUE,"""event"",""trial"",""time""
""fullscreenenter"",""5"",""15185""
","
","
","""event"",""trial"",""time""
""fullscreenenter"",""5"",""15185""
","
",274.9049999983981,NA,48,NA,NA,3000,1,NA,NA,images/earth.jpg,images/rocket2,images/rocket1,null,images/rocket2,NA,1,real,null,2,NA,NA,NA,sub16
d3-animate-choice,172,689482,0.0-76.0-1.12,TRUE,TRUE,FALSE,TRUE,"""event"",""trial"",""time""
""fullscreenenter"",""5"",""15185""
","
","
","""event"",""trial"",""time""
""fullscreenenter"",""5"",""15185""
","
",529.5050000131596,NA,48,NA,NA,3000,1,NA,NA,images/purpleplanet.jpg,images/alien4,images/alien3,images/rocket2,images/alien4,images/nothing.png,2,real,true,2,common,0,2020-06-12T19:57:55Z,sub16
two-step-fixation,173,690487,0.0-76.0-2.12,TRUE,TRUE,FALSE,TRUE,"""event"",""trial"",""time""
""fullscreenenter"",""5"",""15185""
","
","
","""event"",""trial"",""time""
""fullscreenenter"",""5"",""15185""
","
",NA,images/earth.jpg,NA,NA,NA,NA,NA,NA,NA,NA,NA,NA,NA,NA,NA,fixation,NA,NA,NA,NA,NA,NA,sub16
d3-animate-choice,174,692864,0.0-76.0-0.13,TRUE,TRUE,FALSE,TRUE,"""event"",""trial"",""time""
""fullscreenenter"",""5"",""15185""
","
","
","""event"",""trial"",""time""
""fullscreenenter"",""5"",""15185""
","
",371.7649999889545,NA,48,NA,NA,3000,1,NA,NA,images/earth.jpg,images/rocket2,images/rocket1,null,images/rocket2,NA,1,real,null,2,NA,NA,NA,sub16
d3-animate-choice,175,695172,0.0-76.0-1.13,TRUE,TRUE,FALSE,TRUE,"""event"",""trial"",""time""
""fullscreenenter"",""5"",""15185""
","
","
","""event"",""trial"",""time""
""fullscreenenter"",""5"",""15185""
","
",301.1350000160746,NA,48,NA,NA,3000,1,NA,NA,images/purpleplanet.jpg,images/alien4,images/alien3,images/rocket2,images/alien4,images/t.png,2,real,true,2,common,1,2020-06-12T19:58:00Z,sub16
two-step-fixation,176,696176,0.0-76.0-2.13,TRUE,TRUE,FALSE,TRUE,"""event"",""trial"",""time""
""fullscreenenter"",""5"",""15185""
","
","
","""event"",""trial"",""time""
""fullscreenenter"",""5"",""15185""
","
",NA,images/earth.jpg,NA,NA,NA,NA,NA,NA,NA,NA,NA,NA,NA,NA,NA,fixation,NA,NA,NA,NA,NA,NA,sub16
d3-animate-choice,177,698501,0.0-76.0-0.14,TRUE,TRUE,FALSE,TRUE,"""event"",""trial"",""time""
""fullscreenenter"",""5"",""15185""
","
","
","""event"",""trial"",""time""
""fullscreenenter"",""5"",""15185""
","
",319.7400000062771,NA,48,NA,NA,3000,1,NA,NA,images/earth.jpg,images/rocket2,images/rocket1,null,images/rocket2,NA,1,real,null,2,NA,NA,NA,sub16
d3-animate-choice,178,700879,0.0-76.0-1.14,TRUE,TRUE,FALSE,TRUE,"""event"",""trial"",""time""
""fullscreenenter"",""5"",""15185""
","
","
","""event"",""trial"",""time""
""fullscreenenter"",""5"",""15185""
","
",369.4050000049174,NA,48,NA,NA,3000,1,NA,NA,images/purpleplanet.jpg,images/alien4,images/alien3,images/rocket2,images/alien4,images/t.png,2,real,true,2,common,1,2020-06-12T19:58:06Z,sub16
two-step-fixation,179,701888,0.0-76.0-2.14,TRUE,TRUE,FALSE,TRUE,"""event"",""trial"",""time""
""fullscreenenter"",""5"",""15185""
","
","
","""event"",""trial"",""time""
""fullscreenenter"",""5"",""15185""
","
",NA,images/earth.jpg,NA,NA,NA,NA,NA,NA,NA,NA,NA,NA,NA,NA,NA,fixation,NA,NA,NA,NA,NA,NA,sub16
d3-animate-choice,180,704278,0.0-76.0-0.15,TRUE,TRUE,FALSE,TRUE,"""event"",""trial"",""time""
""fullscreenenter"",""5"",""15185""
","
","
","""event"",""trial"",""time""
""fullscreenenter"",""5"",""15185""
","
",382.97000000602566,NA,48,NA,NA,3000,1,NA,NA,images/earth.jpg,images/rocket2,images/rocket1,null,images/rocket2,NA,1,real,null,2,NA,NA,NA,sub16
d3-animate-choice,181,706694,0.0-76.0-1.15,TRUE,TRUE,FALSE,TRUE,"""event"",""trial"",""time""
""fullscreenenter"",""5"",""15185""
","
","
","""event"",""trial"",""time""
""fullscreenenter"",""5"",""15185""
","
",410.4200000001583,NA,48,NA,NA,3000,1,NA,NA,images/redplanet1.jpg,images/alien2,images/alien1,images/rocket2,images/alien2,images/t.png,2,real,false,2,rare,1,2020-06-12T19:58:12Z,sub16
two-step-fixation,182,707702,0.0-76.0-2.15,TRUE,TRUE,FALSE,TRUE,"""event"",""trial"",""time""
""fullscreenenter"",""5"",""15185""
","
","
","""event"",""trial"",""time""
""fullscreenenter"",""5"",""15185""
","
",NA,images/earth.jpg,NA,NA,NA,NA,NA,NA,NA,NA,NA,NA,NA,NA,NA,fixation,NA,NA,NA,NA,NA,NA,sub16
d3-animate-choice,183,710244,0.0-76.0-0.16,TRUE,TRUE,FALSE,TRUE,"""event"",""trial"",""time""
""fullscreenenter"",""5"",""15185""
","
","
","""event"",""trial"",""time""
""fullscreenenter"",""5"",""15185""
","
",536.6650000214577,NA,48,NA,NA,3000,1,NA,NA,images/earth.jpg,images/rocket2,images/rocket1,null,images/rocket2,NA,1,real,null,2,NA,NA,NA,sub16
d3-animate-choice,184,712656,0.0-76.0-1.16,TRUE,TRUE,FALSE,TRUE,"""event"",""trial"",""time""
""fullscreenenter"",""5"",""15185""
","
","
","""event"",""trial"",""time""
""fullscreenenter"",""5"",""15185""
","
",402.23999999579974,NA,48,NA,NA,3000,1,NA,NA,images/redplanet1.jpg,images/alien2,images/alien1,images/rocket2,images/alien2,images/nothing.png,2,real,false,2,rare,0,2020-06-12T19:58:18Z,sub16
two-step-fixation,185,713661,0.0-76.0-2.16,TRUE,TRUE,FALSE,TRUE,"""event"",""trial"",""time""
""fullscreenenter"",""5"",""15185""
","
","
","""event"",""trial"",""time""
""fullscreenenter"",""5"",""15185""
","
",NA,images/earth.jpg,NA,NA,NA,NA,NA,NA,NA,NA,NA,NA,NA,NA,NA,fixation,NA,NA,NA,NA,NA,NA,sub16
d3-animate-choice,186,715955,0.0-76.0-0.17,TRUE,TRUE,FALSE,TRUE,"""event"",""trial"",""time""
""fullscreenenter"",""5"",""15185""
","
","
","""event"",""trial"",""time""
""fullscreenenter"",""5"",""15185""
","
",288.24499997426756,NA,48,NA,NA,3000,1,NA,NA,images/earth.jpg,images/rocket2,images/rocket1,null,images/rocket2,NA,1,real,null,2,NA,NA,NA,sub16
d3-animate-choice,187,718384,0.0-76.0-1.17,TRUE,TRUE,FALSE,TRUE,"""event"",""trial"",""time""
""fullscreenenter"",""5"",""15185""
","
","
","""event"",""trial"",""time""
""fullscreenenter"",""5"",""15185""
","
",421.12000001361594,NA,48,NA,NA,3000,1,NA,NA,images/purpleplanet.jpg,images/alien4,images/alien3,images/rocket2,images/alien4,images/t.png,2,real,true,2,common,1,2020-06-12T19:58:24Z,sub16
two-step-fixation,188,719391,0.0-76.0-2.17,TRUE,TRUE,FALSE,TRUE,"""event"",""trial"",""time""
""fullscreenenter"",""5"",""15185""
","
","
","""event"",""trial"",""time""
""fullscreenenter"",""5"",""15185""
","
",NA,images/earth.jpg,NA,NA,NA,NA,NA,NA,NA,NA,NA,NA,NA,NA,NA,fixation,NA,NA,NA,NA,NA,NA,sub16
d3-animate-choice,189,721737,0.0-76.0-0.18,TRUE,TRUE,FALSE,TRUE,"""event"",""trial"",""time""
""fullscreenenter"",""5"",""15185""
","
","
","""event"",""trial"",""time""
""fullscreenenter"",""5"",""15185""
","
",339.3449999857694,NA,48,NA,NA,3000,1,NA,NA,images/earth.jpg,images/rocket2,images/rocket1,null,images/rocket2,NA,1,real,null,2,NA,NA,NA,sub16
d3-animate-choice,190,724138,0.0-76.0-1.18,TRUE,TRUE,FALSE,TRUE,"""event"",""trial"",""time""
""fullscreenenter"",""5"",""15185""
","
","
","""event"",""trial"",""time""
""fullscreenenter"",""5"",""15185""
","
",394.59500001976267,NA,48,NA,NA,3000,1,NA,NA,images/purpleplanet.jpg,images/alien4,images/alien3,images/rocket2,images/alien4,images/nothing.png,2,real,true,2,common,0,2020-06-12T19:58:29Z,sub16
two-step-fixation,191,725143,0.0-76.0-2.18,TRUE,TRUE,FALSE,TRUE,"""event"",""trial"",""time""
""fullscreenenter"",""5"",""15185""
","
","
","""event"",""trial"",""time""
""fullscreenenter"",""5"",""15185""
","
",NA,images/earth.jpg,NA,NA,NA,NA,NA,NA,NA,NA,NA,NA,NA,NA,NA,fixation,NA,NA,NA,NA,NA,NA,sub16
d3-animate-choice,192,727277,0.0-76.0-0.19,TRUE,TRUE,FALSE,TRUE,"""event"",""trial"",""time""
""fullscreenenter"",""5"",""15185""
","
","
","""event"",""trial"",""time""
""fullscreenenter"",""5"",""15185""
","
",129.52500002575107,NA,48,NA,NA,3000,1,NA,NA,images/earth.jpg,images/rocket2,images/rocket1,null,images/rocket2,NA,1,real,null,2,NA,NA,NA,sub16
d3-animate-choice,193,729894,0.0-76.0-1.19,TRUE,TRUE,FALSE,TRUE,"""event"",""trial"",""time""
""fullscreenenter"",""5"",""15185""
","
","
","""event"",""trial"",""time""
""fullscreenenter"",""5"",""15185""
","
",612.3950000037439,NA,48,NA,NA,3000,1,NA,NA,images/redplanet1.jpg,images/alien2,images/alien1,images/rocket2,images/alien2,images/t.png,2,real,false,2,rare,1,2020-06-12T19:58:35Z,sub16
two-step-fixation,194,730899,0.0-76.0-2.19,TRUE,TRUE,FALSE,TRUE,"""event"",""trial"",""time""
""fullscreenenter"",""5"",""15185""
","
","
","""event"",""trial"",""time""
""fullscreenenter"",""5"",""15185""
","
",NA,images/earth.jpg,NA,NA,NA,NA,NA,NA,NA,NA,NA,NA,NA,NA,NA,fixation,NA,NA,NA,NA,NA,NA,sub16
d3-animate-choice,195,733157,0.0-76.0-0.20,TRUE,TRUE,FALSE,TRUE,"""event"",""trial"",""time""
""fullscreenenter"",""5"",""15185""
","
","
","""event"",""trial"",""time""
""fullscreenenter"",""5"",""15185""
","
",252.2049999970477,NA,48,NA,NA,3000,1,NA,NA,images/earth.jpg,images/rocket2,images/rocket1,null,images/rocket2,NA,1,real,null,2,NA,NA,NA,sub16
d3-animate-choice,196,735756,0.0-76.0-1.20,TRUE,TRUE,FALSE,TRUE,"""event"",""trial"",""time""
""fullscreenenter"",""5"",""15185""
","
","
","""event"",""trial"",""time""
""fullscreenenter"",""5"",""15185""
","
",594.054999994114,NA,48,NA,NA,3000,1,NA,NA,images/redplanet1.jpg,images/alien2,images/alien1,images/rocket2,images/alien2,images/nothing.png,2,real,false,2,rare,0,2020-06-12T19:58:41Z,sub16
two-step-fixation,197,736761,0.0-76.0-2.20,TRUE,TRUE,FALSE,TRUE,"""event"",""trial"",""time""
""fullscreenenter"",""5"",""15185""
","
","
","""event"",""trial"",""time""
""fullscreenenter"",""5"",""15185""
","
",NA,images/earth.jpg,NA,NA,NA,NA,NA,NA,NA,NA,NA,NA,NA,NA,NA,fixation,NA,NA,NA,NA,NA,NA,sub16
d3-animate-choice,198,739257,0.0-76.0-0.21,TRUE,TRUE,FALSE,TRUE,"""event"",""trial"",""time""
""fullscreenenter"",""5"",""15185""
","
","
","""event"",""trial"",""time""
""fullscreenenter"",""5"",""15185""
","
",491.039999993518,NA,48,NA,NA,3000,1,NA,NA,images/earth.jpg,images/rocket2,images/rocket1,null,images/rocket2,NA,1,real,null,2,NA,NA,NA,sub16
d3-animate-choice,199,741773,0.0-76.0-1.21,TRUE,TRUE,FALSE,TRUE,"""event"",""trial"",""time""
""fullscreenenter"",""5"",""15185""
","
","
","""event"",""trial"",""time""
""fullscreenenter"",""5"",""15185""
","
",509.08000001800247,NA,48,NA,NA,3000,1,NA,NA,images/purpleplanet.jpg,images/alien4,images/alien3,images/rocket2,images/alien4,images/t.png,2,real,true,2,common,1,2020-06-12T19:58:47Z,sub16
two-step-fixation,200,742778,0.0-76.0-2.21,TRUE,TRUE,FALSE,TRUE,"""event"",""trial"",""time""
""fullscreenenter"",""5"",""15185""
","
","
","""event"",""trial"",""time""
""fullscreenenter"",""5"",""15185""
","
",NA,images/earth.jpg,NA,NA,NA,NA,NA,NA,NA,NA,NA,NA,NA,NA,NA,fixation,NA,NA,NA,NA,NA,NA,sub16
d3-animate-choice,201,745424,0.0-76.0-0.22,TRUE,TRUE,FALSE,TRUE,"""event"",""trial"",""time""
""fullscreenenter"",""5"",""15185""
","
","
","""event"",""trial"",""time""
""fullscreenenter"",""5"",""15185""
","
",642.0400000060908,NA,48,NA,NA,3000,1,NA,NA,images/earth.jpg,images/rocket2,images/rocket1,null,images/rocket2,NA,1,real,null,2,NA,NA,NA,sub16
d3-animate-choice,202,748046,0.0-76.0-1.22,TRUE,TRUE,FALSE,TRUE,"""event"",""trial"",""time""
""fullscreenenter"",""5"",""15185""
","
","
","""event"",""trial"",""time""
""fullscreenenter"",""5"",""15185""
","
",616.7399999976624,NA,48,NA,NA,3000,1,NA,NA,images/purpleplanet.jpg,images/alien4,images/alien3,images/rocket2,images/alien4,images/t.png,2,real,true,2,common,1,2020-06-12T19:58:53Z,sub16
two-step-fixation,203,749051,0.0-76.0-2.22,TRUE,TRUE,FALSE,TRUE,"""event"",""trial"",""time""
""fullscreenenter"",""5"",""15185""
","
","
","""event"",""trial"",""time""
""fullscreenenter"",""5"",""15185""
","
",NA,images/earth.jpg,NA,NA,NA,NA,NA,NA,NA,NA,NA,NA,NA,NA,NA,fixation,NA,NA,NA,NA,NA,NA,sub16
d3-animate-choice,204,751480,0.0-76.0-0.23,TRUE,TRUE,FALSE,TRUE,"""event"",""trial"",""time""
""fullscreenenter"",""5"",""15185""
","
","
","""event"",""trial"",""time""
""fullscreenenter"",""5"",""15185""
","
",423.97999999229796,NA,48,NA,NA,3000,1,NA,NA,images/earth.jpg,images/rocket2,images/rocket1,null,images/rocket2,NA,1,real,null,2,NA,NA,NA,sub16
d3-animate-choice,205,754058,0.0-76.0-1.23,TRUE,TRUE,FALSE,TRUE,"""event"",""trial"",""time""
""fullscreenenter"",""5"",""15185""
","
","
","""event"",""trial"",""time""
""fullscreenenter"",""5"",""15185""
","
",571.5199999976903,NA,49,NA,NA,3000,1,NA,NA,images/redplanet1.jpg,images/alien2,images/alien1,images/rocket2,images/alien1,images/t.png,2,real,false,1,rare,1,2020-06-12T19:58:59Z,sub16
two-step-fixation,206,755063,0.0-76.0-2.23,TRUE,TRUE,FALSE,TRUE,"""event"",""trial"",""time""
""fullscreenenter"",""5"",""15185""
","
","
","""event"",""trial"",""time""
""fullscreenenter"",""5"",""15185""
","
",NA,images/earth.jpg,NA,NA,NA,NA,NA,NA,NA,NA,NA,NA,NA,NA,NA,fixation,NA,NA,NA,NA,NA,NA,sub16
d3-animate-choice,207,757665,0.0-76.0-0.24,TRUE,TRUE,FALSE,TRUE,"""event"",""trial"",""time""
""fullscreenenter"",""5"",""15185""
","
","
","""event"",""trial"",""time""
""fullscreenenter"",""5"",""15185""
","
",597.5399999879301,NA,48,NA,NA,3000,1,NA,NA,images/earth.jpg,images/rocket2,images/rocket1,null,images/rocket2,NA,1,real,null,2,NA,NA,NA,sub16
d3-animate-choice,208,760333,0.0-76.0-1.24,TRUE,TRUE,FALSE,TRUE,"""event"",""trial"",""time""
""fullscreenenter"",""5"",""15185""
","
","
","""event"",""trial"",""time""
""fullscreenenter"",""5"",""15185""
","
",662.6399999950081,NA,49,NA,NA,3000,1,NA,NA,images/redplanet1.jpg,images/alien2,images/alien1,images/rocket2,images/alien1,images/t.png,2,real,false,1,rare,1,2020-06-12T19:59:05Z,sub16
two-step-fixation,209,761340,0.0-76.0-2.24,TRUE,TRUE,FALSE,TRUE,"""event"",""trial"",""time""
""fullscreenenter"",""5"",""15185""
","
","
","""event"",""trial"",""time""
""fullscreenenter"",""5"",""15185""
","
",NA,images/earth.jpg,NA,NA,NA,NA,NA,NA,NA,NA,NA,NA,NA,NA,NA,fixation,NA,NA,NA,NA,NA,NA,sub16
d3-animate-choice,210,763711,0.0-76.0-0.25,TRUE,TRUE,FALSE,TRUE,"""event"",""trial"",""time""
""fullscreenenter"",""5"",""15185""
","
","
","""event"",""trial"",""time""
""fullscreenenter"",""5"",""15185""
","
",366.19999998947605,NA,48,NA,NA,3000,1,NA,NA,images/earth.jpg,images/rocket2,images/rocket1,null,images/rocket2,NA,1,real,null,2,NA,NA,NA,sub16
d3-animate-choice,211,766262,0.0-76.0-1.25,TRUE,TRUE,FALSE,TRUE,"""event"",""trial"",""time""
""fullscreenenter"",""5"",""15185""
","
","
","""event"",""trial"",""time""
""fullscreenenter"",""5"",""15185""
","
",545.2199999999721,NA,48,NA,NA,3000,1,NA,NA,images/purpleplanet.jpg,images/alien4,images/alien3,images/rocket2,images/alien4,images/t.png,2,real,true,2,common,1,2020-06-12T19:59:11Z,sub16
two-step-fixation,212,767267,0.0-76.0-2.25,TRUE,TRUE,FALSE,TRUE,"""event"",""trial"",""time""
""fullscreenenter"",""5"",""15185""
","
","
","""event"",""trial"",""time""
""fullscreenenter"",""5"",""15185""
","
",NA,images/earth.jpg,NA,NA,NA,NA,NA,NA,NA,NA,NA,NA,NA,NA,NA,fixation,NA,NA,NA,NA,NA,NA,sub16
d3-animate-choice,213,769648,0.0-76.0-0.26,TRUE,TRUE,FALSE,TRUE,"""event"",""trial"",""time""
""fullscreenenter"",""5"",""15185""
","
","
","""event"",""trial"",""time""
""fullscreenenter"",""5"",""15185""
","
",372.93500002124347,NA,48,NA,NA,3000,1,NA,NA,images/earth.jpg,images/rocket2,images/rocket1,null,images/rocket2,NA,1,real,null,2,NA,NA,NA,sub16
d3-animate-choice,214,772427,0.0-76.0-1.26,TRUE,TRUE,FALSE,TRUE,"""event"",""trial"",""time""
""fullscreenenter"",""5"",""15185""
","
","
","""event"",""trial"",""time""
""fullscreenenter"",""5"",""15185""
","
",773.3949999965262,NA,49,NA,NA,3000,1,NA,NA,images/redplanet1.jpg,images/alien2,images/alien1,images/rocket2,images/alien1,images/t.png,2,real,false,1,rare,1,2020-06-12T19:59:18Z,sub16
two-step-fixation,215,773431,0.0-76.0-2.26,TRUE,TRUE,FALSE,TRUE,"""event"",""trial"",""time""
""fullscreenenter"",""5"",""15185""
","
","
","""event"",""trial"",""time""
""fullscreenenter"",""5"",""15185""
","
",NA,images/earth.jpg,NA,NA,NA,NA,NA,NA,NA,NA,NA,NA,NA,NA,NA,fixation,NA,NA,NA,NA,NA,NA,sub16
d3-animate-choice,216,775884,0.0-76.0-0.27,TRUE,TRUE,FALSE,TRUE,"""event"",""trial"",""time""
""fullscreenenter"",""5"",""15185""
","
","
","""event"",""trial"",""time""
""fullscreenenter"",""5"",""15185""
","
",447.41500000236556,NA,48,NA,NA,3000,1,NA,NA,images/earth.jpg,images/rocket2,images/rocket1,null,images/rocket2,NA,1,real,null,2,NA,NA,NA,sub16
d3-animate-choice,217,778501,0.0-76.0-1.27,TRUE,TRUE,FALSE,TRUE,"""event"",""trial"",""time""
""fullscreenenter"",""5"",""15185""
","
","
","""event"",""trial"",""time""
""fullscreenenter"",""5"",""15185""
","
",610.4100000229664,NA,48,NA,NA,3000,1,NA,NA,images/purpleplanet.jpg,images/alien4,images/alien3,images/rocket2,images/alien4,images/t.png,2,real,true,2,common,1,2020-06-12T19:59:24Z,sub16
two-step-fixation,218,779506,0.0-76.0-2.27,TRUE,TRUE,FALSE,TRUE,"""event"",""trial"",""time""
""fullscreenenter"",""5"",""15185""
","
","
","""event"",""trial"",""time""
""fullscreenenter"",""5"",""15185""
","
",NA,images/earth.jpg,NA,NA,NA,NA,NA,NA,NA,NA,NA,NA,NA,NA,NA,fixation,NA,NA,NA,NA,NA,NA,sub16
d3-animate-choice,219,781885,0.0-76.0-0.28,TRUE,TRUE,FALSE,TRUE,"""event"",""trial"",""time""
""fullscreenenter"",""5"",""15185""
","
","
","""event"",""trial"",""time""
""fullscreenenter"",""5"",""15185""
","
",372.91999999433756,NA,48,NA,NA,3000,1,NA,NA,images/earth.jpg,images/rocket2,images/rocket1,null,images/rocket2,NA,1,real,null,2,NA,NA,NA,sub16
d3-animate-choice,220,784428,0.0-76.0-1.28,TRUE,TRUE,FALSE,TRUE,"""event"",""trial"",""time""
""fullscreenenter"",""5"",""15185""
","
","
","""event"",""trial"",""time""
""fullscreenenter"",""5"",""15185""
","
",538.6099999886937,NA,48,NA,NA,3000,1,NA,NA,images/purpleplanet.jpg,images/alien4,images/alien3,images/rocket2,images/alien4,images/nothing.png,2,real,true,2,common,0,2020-06-12T19:59:30Z,sub16
two-step-fixation,221,785434,0.0-76.0-2.28,TRUE,TRUE,FALSE,TRUE,"""event"",""trial"",""time""
""fullscreenenter"",""5"",""15185""
","
","
","""event"",""trial"",""time""
""fullscreenenter"",""5"",""15185""
","
",NA,images/earth.jpg,NA,NA,NA,NA,NA,NA,NA,NA,NA,NA,NA,NA,NA,fixation,NA,NA,NA,NA,NA,NA,sub16
d3-animate-choice,222,788008,0.0-76.0-0.29,TRUE,TRUE,FALSE,TRUE,"""event"",""trial"",""time""
""fullscreenenter"",""5"",""15185""
","
","
","""event"",""trial"",""time""
""fullscreenenter"",""5"",""15185""
","
",564.5049999875482,NA,48,NA,NA,3000,1,NA,NA,images/earth.jpg,images/rocket2,images/rocket1,null,images/rocket2,NA,1,real,null,2,NA,NA,NA,sub16
d3-animate-choice,223,790649,0.0-76.0-1.29,TRUE,TRUE,FALSE,TRUE,"""event"",""trial"",""time""
""fullscreenenter"",""5"",""15185""
","
","
","""event"",""trial"",""time""
""fullscreenenter"",""5"",""15185""
","
",637.9500000039116,NA,48,NA,NA,3000,1,NA,NA,images/purpleplanet.jpg,images/alien4,images/alien3,images/rocket2,images/alien4,images/t.png,2,real,true,2,common,1,2020-06-12T19:59:36Z,sub16
two-step-fixation,224,791658,0.0-76.0-2.29,TRUE,TRUE,FALSE,TRUE,"""event"",""trial"",""time""
""fullscreenenter"",""5"",""15185""
","
","
","""event"",""trial"",""time""
""fullscreenenter"",""5"",""15185""
","
",NA,images/earth.jpg,NA,NA,NA,NA,NA,NA,NA,NA,NA,NA,NA,NA,NA,fixation,NA,NA,NA,NA,NA,NA,sub16
d3-animate-choice,225,794150,0.0-76.0-0.30,TRUE,TRUE,FALSE,TRUE,"""event"",""trial"",""time""
""fullscreenenter"",""5"",""15185""
","
","
","""event"",""trial"",""time""
""fullscreenenter"",""5"",""15185""
","
",486.83000000892207,NA,48,NA,NA,3000,1,NA,NA,images/earth.jpg,images/rocket2,images/rocket1,null,images/rocket2,NA,1,real,null,2,NA,NA,NA,sub16
d3-animate-choice,226,796688,0.0-76.0-1.30,TRUE,TRUE,FALSE,TRUE,"""event"",""trial"",""time""
""fullscreenenter"",""5"",""15185""
","
","
","""event"",""trial"",""time""
""fullscreenenter"",""5"",""15185""
","
",533.5249999770895,NA,48,NA,NA,3000,1,NA,NA,images/purpleplanet.jpg,images/alien4,images/alien3,images/rocket2,images/alien4,images/t.png,2,real,true,2,common,1,2020-06-12T19:59:42Z,sub16
two-step-fixation,227,797694,0.0-76.0-2.30,TRUE,TRUE,FALSE,TRUE,"""event"",""trial"",""time""
""fullscreenenter"",""5"",""15185""
","
","
","""event"",""trial"",""time""
""fullscreenenter"",""5"",""15185""
","
",NA,images/earth.jpg,NA,NA,NA,NA,NA,NA,NA,NA,NA,NA,NA,NA,NA,fixation,NA,NA,NA,NA,NA,NA,sub16
d3-animate-choice,228,800125,0.0-76.0-0.31,TRUE,TRUE,FALSE,TRUE,"""event"",""trial"",""time""
""fullscreenenter"",""5"",""15185""
","
","
","""event"",""trial"",""time""
""fullscreenenter"",""5"",""15185""
","
",426.84500000905246,NA,48,NA,NA,3000,1,NA,NA,images/earth.jpg,images/rocket2,images/rocket1,null,images/rocket2,NA,1,real,null,2,NA,NA,NA,sub16
d3-animate-choice,229,802554,0.0-76.0-1.31,TRUE,TRUE,FALSE,TRUE,"""event"",""trial"",""time""
""fullscreenenter"",""5"",""15185""
","
","
","""event"",""trial"",""time""
""fullscreenenter"",""5"",""15185""
","
",423.57000001356937,NA,48,NA,NA,3000,1,NA,NA,images/purpleplanet.jpg,images/alien4,images/alien3,images/rocket2,images/alien4,images/nothing.png,2,real,true,2,common,0,2020-06-12T19:59:48Z,sub16
two-step-fixation,230,803559,0.0-76.0-2.31,TRUE,TRUE,FALSE,TRUE,"""event"",""trial"",""time""
""fullscreenenter"",""5"",""15185""
","
","
","""event"",""trial"",""time""
""fullscreenenter"",""5"",""15185""
","
",NA,images/earth.jpg,NA,NA,NA,NA,NA,NA,NA,NA,NA,NA,NA,NA,NA,fixation,NA,NA,NA,NA,NA,NA,sub16
d3-animate-choice,231,805904,0.0-76.0-0.32,TRUE,TRUE,FALSE,TRUE,"""event"",""trial"",""time""
""fullscreenenter"",""5"",""15185""
","
","
","""event"",""trial"",""time""
""fullscreenenter"",""5"",""15185""
","
",339.81499998481013,NA,48,NA,NA,3000,1,NA,NA,images/earth.jpg,images/rocket2,images/rocket1,null,images/rocket2,NA,1,real,null,2,NA,NA,NA,sub16
d3-animate-choice,232,808400,0.0-76.0-1.32,TRUE,TRUE,FALSE,TRUE,"""event"",""trial"",""time""
""fullscreenenter"",""5"",""15185""
","
","
","""event"",""trial"",""time""
""fullscreenenter"",""5"",""15185""
","
",491.4050000079442,NA,48,NA,NA,3000,1,NA,NA,images/purpleplanet.jpg,images/alien4,images/alien3,images/rocket2,images/alien4,images/t.png,2,real,true,2,common,1,2020-06-12T19:59:54Z,sub16
two-step-fixation,233,809404,0.0-76.0-2.32,TRUE,TRUE,FALSE,TRUE,"""event"",""trial"",""time""
""fullscreenenter"",""5"",""15185""
","
","
","""event"",""trial"",""time""
""fullscreenenter"",""5"",""15185""
","
",NA,images/earth.jpg,NA,NA,NA,NA,NA,NA,NA,NA,NA,NA,NA,NA,NA,fixation,NA,NA,NA,NA,NA,NA,sub16
d3-animate-choice,234,811735,0.0-76.0-0.33,TRUE,TRUE,FALSE,TRUE,"""event"",""trial"",""time""
""fullscreenenter"",""5"",""15185""
","
","
","""event"",""trial"",""time""
""fullscreenenter"",""5"",""15185""
","
",325.69499997771345,NA,48,NA,NA,3000,1,NA,NA,images/earth.jpg,images/rocket2,images/rocket1,null,images/rocket2,NA,1,real,null,2,NA,NA,NA,sub16
d3-animate-choice,235,814322,0.0-76.0-1.33,TRUE,TRUE,FALSE,TRUE,"""event"",""trial"",""time""
""fullscreenenter"",""5"",""15185""
","
","
","""event"",""trial"",""time""
""fullscreenenter"",""5"",""15185""
","
",579.9049999914132,NA,48,NA,NA,3000,1,NA,NA,images/purpleplanet.jpg,images/alien4,images/alien3,images/rocket2,images/alien4,images/t.png,2,real,true,2,common,1,2020-06-12T19:59:59Z,sub16
two-step-fixation,236,815332,0.0-76.0-2.33,TRUE,TRUE,FALSE,TRUE,"""event"",""trial"",""time""
""fullscreenenter"",""5"",""15185""
","
","
","""event"",""trial"",""time""
""fullscreenenter"",""5"",""15185""
","
",NA,images/earth.jpg,NA,NA,NA,NA,NA,NA,NA,NA,NA,NA,NA,NA,NA,fixation,NA,NA,NA,NA,NA,NA,sub16
d3-animate-choice,237,817672,0.0-76.0-0.34,TRUE,TRUE,FALSE,TRUE,"""event"",""trial"",""time""
""fullscreenenter"",""5"",""15185""
","
","
","""event"",""trial"",""time""
""fullscreenenter"",""5"",""15185""
","
",332.9150000063237,NA,48,NA,NA,3000,1,NA,NA,images/earth.jpg,images/rocket2,images/rocket1,null,images/rocket2,NA,1,real,null,2,NA,NA,NA,sub16
d3-animate-choice,238,820498,0.0-76.0-1.34,TRUE,TRUE,FALSE,TRUE,"""event"",""trial"",""time""
""fullscreenenter"",""5"",""15185""
","
","
","""event"",""trial"",""time""
""fullscreenenter"",""5"",""15185""
","
",820.9999999962747,NA,49,NA,NA,3000,1,NA,NA,images/redplanet1.jpg,images/alien2,images/alien1,images/rocket2,images/alien1,images/nothing.png,2,real,false,1,rare,0,2020-06-12T20:00:06Z,sub16
two-step-fixation,239,821504,0.0-76.0-2.34,TRUE,TRUE,FALSE,TRUE,"""event"",""trial"",""time""
""fullscreenenter"",""5"",""15185""
","
","
","""event"",""trial"",""time""
""fullscreenenter"",""5"",""15185""
","
",NA,images/earth.jpg,NA,NA,NA,NA,NA,NA,NA,NA,NA,NA,NA,NA,NA,fixation,NA,NA,NA,NA,NA,NA,sub16
d3-animate-choice,240,823943,0.0-76.0-0.35,TRUE,TRUE,FALSE,TRUE,"""event"",""trial"",""time""
""fullscreenenter"",""5"",""15185""
","
","
","""event"",""trial"",""time""
""fullscreenenter"",""5"",""15185""
","
",435.12000000919215,NA,48,NA,NA,3000,1,NA,NA,images/earth.jpg,images/rocket2,images/rocket1,null,images/rocket2,NA,1,real,null,2,NA,NA,NA,sub16
d3-animate-choice,241,826467,0.0-76.0-1.35,TRUE,TRUE,FALSE,TRUE,"""event"",""trial"",""time""
""fullscreenenter"",""5"",""15185""
","
","
","""event"",""trial"",""time""
""fullscreenenter"",""5"",""15185""
","
",519.3849999923259,NA,48,NA,NA,3000,1,NA,NA,images/purpleplanet.jpg,images/alien4,images/alien3,images/rocket2,images/alien4,images/t.png,2,real,true,2,common,1,2020-06-12T20:00:12Z,sub16
two-step-fixation,242,827473,0.0-76.0-2.35,TRUE,TRUE,FALSE,TRUE,"""event"",""trial"",""time""
""fullscreenenter"",""5"",""15185""
","
","
","""event"",""trial"",""time""
""fullscreenenter"",""5"",""15185""
","
",NA,images/earth.jpg,NA,NA,NA,NA,NA,NA,NA,NA,NA,NA,NA,NA,NA,fixation,NA,NA,NA,NA,NA,NA,sub16
d3-animate-choice,243,829850,0.0-76.0-0.36,TRUE,TRUE,FALSE,TRUE,"""event"",""trial"",""time""
""fullscreenenter"",""5"",""15185""
","
","
","""event"",""trial"",""time""
""fullscreenenter"",""5"",""15185""
","
",370.3399999940302,NA,48,NA,NA,3000,1,NA,NA,images/earth.jpg,images/rocket2,images/rocket1,null,images/rocket2,NA,1,real,null,2,NA,NA,NA,sub16
d3-animate-choice,244,832384,0.0-76.0-1.36,TRUE,TRUE,FALSE,TRUE,"""event"",""trial"",""time""
""fullscreenenter"",""5"",""15185""
","
","
","""event"",""trial"",""time""
""fullscreenenter"",""5"",""15185""
","
",527.5450000190176,NA,48,NA,NA,3000,1,NA,NA,images/purpleplanet.jpg,images/alien4,images/alien3,images/rocket2,images/alien4,images/t.png,2,real,true,2,common,1,2020-06-12T20:00:18Z,sub16
two-step-fixation,245,833388,0.0-76.0-2.36,TRUE,TRUE,FALSE,TRUE,"""event"",""trial"",""time""
""fullscreenenter"",""5"",""15185""
","
","
","""event"",""trial"",""time""
""fullscreenenter"",""5"",""15185""
","
",NA,images/earth.jpg,NA,NA,NA,NA,NA,NA,NA,NA,NA,NA,NA,NA,NA,fixation,NA,NA,NA,NA,NA,NA,sub16
d3-animate-choice,246,835903,0.0-76.0-0.37,TRUE,TRUE,FALSE,TRUE,"""event"",""trial"",""time""
""fullscreenenter"",""5"",""15185""
","
","
","""event"",""trial"",""time""
""fullscreenenter"",""5"",""15185""
","
",509.4950000056997,NA,48,NA,NA,3000,1,NA,NA,images/earth.jpg,images/rocket2,images/rocket1,null,images/rocket2,NA,1,real,null,2,NA,NA,NA,sub16
d3-animate-choice,247,838398,0.0-76.0-1.37,TRUE,TRUE,FALSE,TRUE,"""event"",""trial"",""time""
""fullscreenenter"",""5"",""15185""
","
","
","""event"",""trial"",""time""
""fullscreenenter"",""5"",""15185""
","
",490.4800000076648,NA,48,NA,NA,3000,1,NA,NA,images/purpleplanet.jpg,images/alien4,images/alien3,images/rocket2,images/alien4,images/t.png,2,real,true,2,common,1,2020-06-12T20:00:24Z,sub16
two-step-fixation,248,839403,0.0-76.0-2.37,TRUE,TRUE,FALSE,TRUE,"""event"",""trial"",""time""
""fullscreenenter"",""5"",""15185""
","
","
","""event"",""trial"",""time""
""fullscreenenter"",""5"",""15185""
","
",NA,images/earth.jpg,NA,NA,NA,NA,NA,NA,NA,NA,NA,NA,NA,NA,NA,fixation,NA,NA,NA,NA,NA,NA,sub16
d3-animate-choice,249,842136,0.0-76.0-0.38,TRUE,TRUE,FALSE,TRUE,"""event"",""trial"",""time""
""fullscreenenter"",""5"",""15185""
","
","
","""event"",""trial"",""time""
""fullscreenenter"",""5"",""15185""
","
",727.5850000150967,NA,48,NA,NA,3000,1,NA,NA,images/earth.jpg,images/rocket2,images/rocket1,null,images/rocket2,NA,1,real,null,2,NA,NA,NA,sub16
d3-animate-choice,250,844714,0.0-76.0-1.38,TRUE,TRUE,FALSE,TRUE,"""event"",""trial"",""time""
""fullscreenenter"",""5"",""15185""
","
","
","""event"",""trial"",""time""
""fullscreenenter"",""5"",""15185""
","
",572.3799999977928,NA,48,NA,NA,3000,1,NA,NA,images/purpleplanet.jpg,images/alien4,images/alien3,images/rocket2,images/alien4,images/nothing.png,2,real,true,2,common,0,2020-06-12T20:00:30Z,sub16
two-step-fixation,251,845719,0.0-76.0-2.38,TRUE,TRUE,FALSE,TRUE,"""event"",""trial"",""time""
""fullscreenenter"",""5"",""15185""
","
","
","""event"",""trial"",""time""
""fullscreenenter"",""5"",""15185""
","
",NA,images/earth.jpg,NA,NA,NA,NA,NA,NA,NA,NA,NA,NA,NA,NA,NA,fixation,NA,NA,NA,NA,NA,NA,sub16
d3-animate-choice,252,848263,0.0-76.0-0.39,TRUE,TRUE,FALSE,TRUE,"""event"",""trial"",""time""
""fullscreenenter"",""5"",""15185""
","
","
","""event"",""trial"",""time""
""fullscreenenter"",""5"",""15185""
","
",536.515000014333,NA,48,NA,NA,3000,1,NA,NA,images/earth.jpg,images/rocket2,images/rocket1,null,images/rocket2,NA,1,real,null,2,NA,NA,NA,sub16
d3-animate-choice,253,850789,0.0-76.0-1.39,TRUE,TRUE,FALSE,TRUE,"""event"",""trial"",""time""
""fullscreenenter"",""5"",""15185""
","
","
","""event"",""trial"",""time""
""fullscreenenter"",""5"",""15185""
","
",520.1100000122096,NA,48,NA,NA,3000,1,NA,NA,images/purpleplanet.jpg,images/alien4,images/alien3,images/rocket2,images/alien4,images/t.png,2,real,true,2,common,1,2020-06-12T20:00:36Z,sub16
two-step-fixation,254,851793,0.0-76.0-2.39,TRUE,TRUE,FALSE,TRUE,"""event"",""trial"",""time""
""fullscreenenter"",""5"",""15185""
","
","
","""event"",""trial"",""time""
""fullscreenenter"",""5"",""15185""
","
",NA,images/earth.jpg,NA,NA,NA,NA,NA,NA,NA,NA,NA,NA,NA,NA,NA,fixation,NA,NA,NA,NA,NA,NA,sub16
d3-animate-choice,255,854692,0.0-76.0-0.40,TRUE,TRUE,FALSE,TRUE,"""event"",""trial"",""time""
""fullscreenenter"",""5"",""15185""
","
","
","""event"",""trial"",""time""
""fullscreenenter"",""5"",""15185""
","
",894.0350000048056,NA,48,NA,NA,3000,1,NA,NA,images/earth.jpg,images/rocket2,images/rocket1,null,images/rocket2,NA,1,real,null,2,NA,NA,NA,sub16
d3-animate-choice,256,857424,0.0-76.0-1.40,TRUE,TRUE,FALSE,TRUE,"""event"",""trial"",""time""
""fullscreenenter"",""5"",""15185""
","
","
","""event"",""trial"",""time""
""fullscreenenter"",""5"",""15185""
","
",728.4349999972619,NA,49,NA,NA,3000,1,NA,NA,images/redplanet1.jpg,images/alien2,images/alien1,images/rocket2,images/alien1,images/t.png,2,real,false,1,rare,1,2020-06-12T20:00:43Z,sub16
two-step-fixation,257,858429,0.0-76.0-2.40,TRUE,TRUE,FALSE,TRUE,"""event"",""trial"",""time""
""fullscreenenter"",""5"",""15185""
","
","
","""event"",""trial"",""time""
""fullscreenenter"",""5"",""15185""
","
",NA,images/earth.jpg,NA,NA,NA,NA,NA,NA,NA,NA,NA,NA,NA,NA,NA,fixation,NA,NA,NA,NA,NA,NA,sub16
d3-animate-choice,258,860853,0.0-76.0-0.41,TRUE,TRUE,FALSE,TRUE,"""event"",""trial"",""time""
""fullscreenenter"",""5"",""15185""
","
","
","""event"",""trial"",""time""
""fullscreenenter"",""5"",""15185""
","
",419.2249999905471,NA,48,NA,NA,3000,1,NA,NA,images/earth.jpg,images/rocket2,images/rocket1,null,images/rocket2,NA,1,real,null,2,NA,NA,NA,sub16
d3-animate-choice,259,863630,0.0-76.0-1.41,TRUE,TRUE,FALSE,TRUE,"""event"",""trial"",""time""
""fullscreenenter"",""5"",""15185""
","
","
","""event"",""trial"",""time""
""fullscreenenter"",""5"",""15185""
","
",767.9099999950267,NA,48,NA,NA,3000,1,NA,NA,images/purpleplanet.jpg,images/alien4,images/alien3,images/rocket2,images/alien4,images/t.png,2,real,true,2,common,1,2020-06-12T20:00:49Z,sub16
two-step-fixation,260,864634,0.0-76.0-2.41,TRUE,TRUE,FALSE,TRUE,"""event"",""trial"",""time""
""fullscreenenter"",""5"",""15185""
","
","
","""event"",""trial"",""time""
""fullscreenenter"",""5"",""15185""
","
",NA,images/earth.jpg,NA,NA,NA,NA,NA,NA,NA,NA,NA,NA,NA,NA,NA,fixation,NA,NA,NA,NA,NA,NA,sub16
d3-animate-choice,261,867074,0.0-76.0-0.42,TRUE,TRUE,FALSE,TRUE,"""event"",""trial"",""time""
""fullscreenenter"",""5"",""15185""
","
","
","""event"",""trial"",""time""
""fullscreenenter"",""5"",""15185""
","
",433.6900000052992,NA,48,NA,NA,3000,1,NA,NA,images/earth.jpg,images/rocket2,images/rocket1,null,images/rocket2,NA,1,real,null,2,NA,NA,NA,sub16
d3-animate-choice,262,869929,0.0-76.0-1.42,TRUE,TRUE,FALSE,TRUE,"""event"",""trial"",""time""
""fullscreenenter"",""5"",""15185""
","
","
","""event"",""trial"",""time""
""fullscreenenter"",""5"",""15185""
","
",850.1749999995809,NA,49,NA,NA,3000,1,NA,NA,images/redplanet1.jpg,images/alien2,images/alien1,images/rocket2,images/alien1,images/nothing.png,2,real,false,1,rare,0,2020-06-12T20:00:55Z,sub16
two-step-fixation,263,870936,0.0-76.0-2.42,TRUE,TRUE,FALSE,TRUE,"""event"",""trial"",""time""
""fullscreenenter"",""5"",""15185""
","
","
","""event"",""trial"",""time""
""fullscreenenter"",""5"",""15185""
","
",NA,images/earth.jpg,NA,NA,NA,NA,NA,NA,NA,NA,NA,NA,NA,NA,NA,fixation,NA,NA,NA,NA,NA,NA,sub16
d3-animate-choice,264,873452,0.0-76.0-0.43,TRUE,TRUE,FALSE,TRUE,"""event"",""trial"",""time""
""fullscreenenter"",""5"",""15185""
","
","
","""event"",""trial"",""time""
""fullscreenenter"",""5"",""15185""
","
",508.73499998124316,NA,48,NA,NA,3000,1,NA,NA,images/earth.jpg,images/rocket2,images/rocket1,null,images/rocket2,NA,1,real,null,2,NA,NA,NA,sub16
d3-animate-choice,265,876015,0.0-76.0-1.43,TRUE,TRUE,FALSE,TRUE,"""event"",""trial"",""time""
""fullscreenenter"",""5"",""15185""
","
","
","""event"",""trial"",""time""
""fullscreenenter"",""5"",""15185""
","
",557.0649999717716,NA,48,NA,NA,3000,1,NA,NA,images/purpleplanet.jpg,images/alien4,images/alien3,images/rocket2,images/alien4,images/nothing.png,2,real,true,2,common,0,2020-06-12T20:01:01Z,sub16
two-step-fixation,266,877021,0.0-76.0-2.43,TRUE,TRUE,FALSE,TRUE,"""event"",""trial"",""time""
""fullscreenenter"",""5"",""15185""
","
","
","""event"",""trial"",""time""
""fullscreenenter"",""5"",""15185""
","
",NA,images/earth.jpg,NA,NA,NA,NA,NA,NA,NA,NA,NA,NA,NA,NA,NA,fixation,NA,NA,NA,NA,NA,NA,sub16
d3-animate-choice,267,879381,0.0-76.0-0.44,TRUE,TRUE,FALSE,TRUE,"""event"",""trial"",""time""
""fullscreenenter"",""5"",""15185""
","
","
","""event"",""trial"",""time""
""fullscreenenter"",""5"",""15185""
","
",355.03000000608154,NA,48,NA,NA,3000,1,NA,NA,images/earth.jpg,images/rocket2,images/rocket1,null,images/rocket2,NA,1,real,null,2,NA,NA,NA,sub16
d3-animate-choice,268,881768,0.0-76.0-1.44,TRUE,TRUE,FALSE,TRUE,"""event"",""trial"",""time""
""fullscreenenter"",""5"",""15185""
","
","
","""event"",""trial"",""time""
""fullscreenenter"",""5"",""15185""
","
",383.43000001623295,NA,48,NA,NA,3000,1,NA,NA,images/redplanet1.jpg,images/alien2,images/alien1,images/rocket2,images/alien2,images/nothing.png,2,real,false,2,rare,0,2020-06-12T20:01:07Z,sub16
two-step-fixation,269,882775,0.0-76.0-2.44,TRUE,TRUE,FALSE,TRUE,"""event"",""trial"",""time""
""fullscreenenter"",""5"",""15185""
","
","
","""event"",""trial"",""time""
""fullscreenenter"",""5"",""15185""
","
",NA,images/earth.jpg,NA,NA,NA,NA,NA,NA,NA,NA,NA,NA,NA,NA,NA,fixation,NA,NA,NA,NA,NA,NA,sub16
d3-animate-choice,270,885327,0.0-76.0-0.45,TRUE,TRUE,FALSE,TRUE,"""event"",""trial"",""time""
""fullscreenenter"",""5"",""15185""
","
","
","""event"",""trial"",""time""
""fullscreenenter"",""5"",""15185""
","
",546.9950000115205,NA,48,NA,NA,3000,1,NA,NA,images/earth.jpg,images/rocket2,images/rocket1,null,images/rocket2,NA,1,real,null,2,NA,NA,NA,sub16
d3-animate-choice,271,887719,0.0-76.0-1.45,TRUE,TRUE,FALSE,TRUE,"""event"",""trial"",""time""
""fullscreenenter"",""5"",""15185""
","
","
","""event"",""trial"",""time""
""fullscreenenter"",""5"",""15185""
","
",385.97000000299886,NA,48,NA,NA,3000,1,NA,NA,images/purpleplanet.jpg,images/alien4,images/alien3,images/rocket2,images/alien4,images/t.png,2,real,true,2,common,1,2020-06-12T20:01:13Z,sub16
two-step-fixation,272,888723,0.0-76.0-2.45,TRUE,TRUE,FALSE,TRUE,"""event"",""trial"",""time""
""fullscreenenter"",""5"",""15185""
","
","
","""event"",""trial"",""time""
""fullscreenenter"",""5"",""15185""
","
",NA,images/earth.jpg,NA,NA,NA,NA,NA,NA,NA,NA,NA,NA,NA,NA,NA,fixation,NA,NA,NA,NA,NA,NA,sub16
d3-animate-choice,273,891320,0.0-76.0-0.46,TRUE,TRUE,FALSE,TRUE,"""event"",""trial"",""time""
""fullscreenenter"",""5"",""15185""
","
","
","""event"",""trial"",""time""
""fullscreenenter"",""5"",""15185""
","
",590.1500000036322,NA,48,NA,NA,3000,1,NA,NA,images/earth.jpg,images/rocket2,images/rocket1,null,images/rocket2,NA,1,real,null,2,NA,NA,NA,sub16
d3-animate-choice,274,893843,0.0-76.0-1.46,TRUE,TRUE,FALSE,TRUE,"""event"",""trial"",""time""
""fullscreenenter"",""5"",""15185""
","
","
","""event"",""trial"",""time""
""fullscreenenter"",""5"",""15185""
","
",518.0950000067241,NA,49,NA,NA,3000,1,NA,NA,images/redplanet1.jpg,images/alien2,images/alien1,images/rocket2,images/alien1,images/t.png,2,real,false,1,rare,1,2020-06-12T20:01:19Z,sub16
two-step-fixation,275,894850,0.0-76.0-2.46,TRUE,TRUE,FALSE,TRUE,"""event"",""trial"",""time""
""fullscreenenter"",""5"",""15185""
","
","
","""event"",""trial"",""time""
""fullscreenenter"",""5"",""15185""
","
",NA,images/earth.jpg,NA,NA,NA,NA,NA,NA,NA,NA,NA,NA,NA,NA,NA,fixation,NA,NA,NA,NA,NA,NA,sub16
d3-animate-choice,276,897343,0.0-76.0-0.47,TRUE,TRUE,FALSE,TRUE,"""event"",""trial"",""time""
""fullscreenenter"",""5"",""15185""
","
","
","""event"",""trial"",""time""
""fullscreenenter"",""5"",""15185""
","
",488.47499999101274,NA,48,NA,NA,3000,1,NA,NA,images/earth.jpg,images/rocket2,images/rocket1,null,images/rocket2,NA,1,real,null,2,NA,NA,NA,sub16
d3-animate-choice,277,900038,0.0-76.0-1.47,TRUE,TRUE,FALSE,TRUE,"""event"",""trial"",""time""
""fullscreenenter"",""5"",""15185""
","
","
","""event"",""trial"",""time""
""fullscreenenter"",""5"",""15185""
","
",689.9900000134949,NA,48,NA,NA,3000,1,NA,NA,images/purpleplanet.jpg,images/alien4,images/alien3,images/rocket2,images/alien4,images/t.png,2,real,true,2,common,1,2020-06-12T20:01:25Z,sub16
two-step-fixation,278,901042,0.0-76.0-2.47,TRUE,TRUE,FALSE,TRUE,"""event"",""trial"",""time""
""fullscreenenter"",""5"",""15185""
","
","
","""event"",""trial"",""time""
""fullscreenenter"",""5"",""15185""
","
",NA,images/earth.jpg,NA,NA,NA,NA,NA,NA,NA,NA,NA,NA,NA,NA,NA,fixation,NA,NA,NA,NA,NA,NA,sub16
d3-animate-choice,279,903575,0.0-76.0-0.48,TRUE,TRUE,FALSE,TRUE,"""event"",""trial"",""time""
""fullscreenenter"",""5"",""15185""
","
","
","""event"",""trial"",""time""
""fullscreenenter"",""5"",""15185""
","
",527.6849999791011,NA,48,NA,NA,3000,1,NA,NA,images/earth.jpg,images/rocket2,images/rocket1,null,images/rocket2,NA,1,real,null,2,NA,NA,NA,sub16
d3-animate-choice,280,906160,0.0-76.0-1.48,TRUE,TRUE,FALSE,TRUE,"""event"",""trial"",""time""
""fullscreenenter"",""5"",""15185""
","
","
","""event"",""trial"",""time""
""fullscreenenter"",""5"",""15185""
","
",581.1150000081398,NA,48,NA,NA,3000,1,NA,NA,images/purpleplanet.jpg,images/alien4,images/alien3,images/rocket2,images/alien4,images/t.png,2,real,true,2,common,1,2020-06-12T20:01:31Z,sub16
two-step-fixation,281,907165,0.0-76.0-2.48,TRUE,TRUE,FALSE,TRUE,"""event"",""trial"",""time""
""fullscreenenter"",""5"",""15185""
","
","
","""event"",""trial"",""time""
""fullscreenenter"",""5"",""15185""
","
",NA,images/earth.jpg,NA,NA,NA,NA,NA,NA,NA,NA,NA,NA,NA,NA,NA,fixation,NA,NA,NA,NA,NA,NA,sub16
d3-animate-choice,282,909650,0.0-76.0-0.49,TRUE,TRUE,FALSE,TRUE,"""event"",""trial"",""time""
""fullscreenenter"",""5"",""15185""
","
","
","""event"",""trial"",""time""
""fullscreenenter"",""5"",""15185""
","
",478.9150000142399,NA,48,NA,NA,3000,1,NA,NA,images/earth.jpg,images/rocket2,images/rocket1,null,images/rocket2,NA,1,real,null,2,NA,NA,NA,sub16
d3-animate-choice,283,913051,0.0-76.0-1.49,TRUE,TRUE,FALSE,TRUE,"""event"",""trial"",""time""
""fullscreenenter"",""5"",""15185""
","
","
","""event"",""trial"",""time""
""fullscreenenter"",""5"",""15185""
","
",1394.7550000157207,NA,48,NA,NA,3000,1,NA,NA,images/purpleplanet.jpg,images/alien4,images/alien3,images/rocket2,images/alien4,images/t.png,2,real,true,2,common,1,2020-06-12T20:01:38Z,sub16
two-step-fixation,284,914056,0.0-76.0-2.49,TRUE,TRUE,FALSE,TRUE,"""event"",""trial"",""time""
""fullscreenenter"",""5"",""15185""
","
","
","""event"",""trial"",""time""
""fullscreenenter"",""5"",""15185""
","
