trial_type,trial_index,time_elapsed,internal_node_id,rocket_sides,red_planet_first_rocket,red_display_order,purple_display_order,interactions,blur_events,focus_events,fullscreenenter_events,fullscreenexit_events,rt,stimulus,key_press,button_pressed,success,duration,valid_pressed,rts,keys,planet_text,right_text,left_text,center_text,chosen_text,reward_text,trial_stage,practice_trial,transition_type,choice,transition,reward,timestamp,subject_id
pavlovia,0,7,0.0-0.0,TRUE,FALSE,TRUE,FALSE,"
","
","
","
","
",NA,NA,NA,NA,NA,NA,NA,NA,NA,NA,NA,NA,NA,NA,NA,NA,NA,NA,NA,NA,NA,NA,sub44
html-keyboard-response,1,2136,0.0-1.0,TRUE,FALSE,TRUE,FALSE,"
","
","
","
","
",2126.4899999951012,Welcome! Press the space bar to begin.,32,NA,NA,NA,NA,NA,NA,NA,NA,NA,NA,NA,NA,NA,NA,NA,NA,NA,NA,NA,sub44
audio-keyboard-response,2,4501,0.0-2.0,TRUE,FALSE,TRUE,FALSE,"
","
","
","
","
",2251,audio/beep_loop.wav,32,NA,NA,NA,NA,NA,NA,NA,NA,NA,NA,NA,NA,NA,NA,NA,NA,NA,NA,NA,sub44
audio-button-response,3,6313,0.0-3.0,TRUE,FALSE,TRUE,FALSE,"
","
","
","
","
",NaN,audio/fish.mp3,NA,1,NA,NA,NA,NA,NA,NA,NA,NA,NA,NA,NA,NA,NA,NA,NA,NA,NA,NA,sub44
audio-button-response,4,12828,0.0-4.0,TRUE,FALSE,TRUE,FALSE,"""event"",""trial"",""time""
""fullscreenenter"",""5"",""21997""
","
","
","""event"",""trial"",""time""
""fullscreenenter"",""5"",""21997""
","
",NaN,audio/tiger.mp3,NA,4,NA,NA,NA,NA,NA,NA,NA,NA,NA,NA,NA,NA,NA,NA,NA,NA,NA,NA,sub44
fullscreen,5,22977,0.0-5.0,TRUE,FALSE,TRUE,FALSE,"""event"",""trial"",""time""
""fullscreenenter"",""5"",""21997""
","
","
","""event"",""trial"",""time""
""fullscreenenter"",""5"",""21997""
","
",NA,NA,NA,NA,TRUE,NA,NA,NA,NA,NA,NA,NA,NA,NA,NA,NA,NA,NA,NA,NA,NA,NA,sub44
d3-instructions,6,25296,0.0-6.0,TRUE,FALSE,TRUE,FALSE,"""event"",""trial"",""time""
""fullscreenenter"",""5"",""21997""
","
","
","""event"",""trial"",""time""
""fullscreenenter"",""5"",""21997""
","
",NA,NA,NA,NA,NA,NA,NA,NA,NA,NA,NA,NA,NA,NA,NA,NA,NA,NA,NA,NA,NA,NA,sub44
d3-instructions,7,28731,0.0-7.0,TRUE,FALSE,TRUE,FALSE,"""event"",""trial"",""time""
""fullscreenenter"",""5"",""21997""
","
","
","""event"",""trial"",""time""
""fullscreenenter"",""5"",""21997""
","
",NA,NA,NA,NA,NA,NA,NA,NA,NA,NA,NA,NA,NA,NA,NA,NA,NA,NA,NA,NA,NA,NA,sub44
d3-instructions,8,33276,0.0-8.0,TRUE,FALSE,TRUE,FALSE,"""event"",""trial"",""time""
""fullscreenenter"",""5"",""21997""
","
","
","""event"",""trial"",""time""
""fullscreenenter"",""5"",""21997""
","
",NA,NA,NA,NA,NA,NA,NA,NA,NA,NA,NA,NA,NA,NA,NA,NA,NA,NA,NA,NA,NA,NA,sub44
d3-instructions,9,51919,0.0-9.0,TRUE,FALSE,TRUE,FALSE,"""event"",""trial"",""time""
""fullscreenenter"",""5"",""21997""
","
","
","""event"",""trial"",""time""
""fullscreenenter"",""5"",""21997""
","
",NA,NA,NA,NA,NA,NA,NA,NA,NA,NA,NA,NA,NA,NA,NA,NA,NA,NA,NA,NA,NA,NA,sub44
d3-instructions,10,75220,0.0-10.0,TRUE,FALSE,TRUE,FALSE,"""event"",""trial"",""time""
""fullscreenenter"",""5"",""21997""
","
","
","""event"",""trial"",""time""
""fullscreenenter"",""5"",""21997""
","
",NA,NA,NA,NA,NA,NA,NA,NA,NA,NA,NA,NA,NA,NA,NA,NA,NA,NA,NA,NA,NA,NA,sub44
d3-animate-choice,11,79139,0.0-11.0,TRUE,FALSE,TRUE,FALSE,"""event"",""trial"",""time""
""fullscreenenter"",""5"",""21997""
","
","
","""event"",""trial"",""time""
""fullscreenenter"",""5"",""21997""
","
",1899.9349999940023,NA,49,NA,NA,3000,1,3335.205000010319,48,images/tutgreenplanet.jpg,images/tutalien1,images/tutalien2,null,images/tutalien2,NA,NA,practice,null,NA,NA,NA,NA,sub44
d3-animate-choice,12,81213,0.0-12.0,TRUE,FALSE,TRUE,FALSE,"""event"",""trial"",""time""
""fullscreenenter"",""5"",""21997""
","
","
","""event"",""trial"",""time""
""fullscreenenter"",""5"",""21997""
","
",59.0799999772571,NA,48,NA,NA,3000,1,NA,NA,images/tutgreenplanet.jpg,images/tutalien1,images/tutalien2,null,images/tutalien1,NA,NA,practice,null,NA,NA,NA,NA,sub44
d3-animate-choice,13,86127,0.0-13.0,TRUE,FALSE,TRUE,FALSE,"""event"",""trial"",""time""
""fullscreenenter"",""5"",""21997""
","
","
","""event"",""trial"",""time""
""fullscreenenter"",""5"",""21997""
","
",2895.714999991469,NA,49,NA,NA,3000,1,4627.830000012182,48,images/tutgreenplanet.jpg,images/tutalien1,images/tutalien2,null,images/tutalien2,NA,NA,practice,null,NA,NA,NA,NA,sub44
d3-animate-choice,14,88891,0.0-14.0,TRUE,FALSE,TRUE,FALSE,"""event"",""trial"",""time""
""fullscreenenter"",""5"",""21997""
","
","
","""event"",""trial"",""time""
""fullscreenenter"",""5"",""21997""
","
",742.67999996664,NA,48,NA,NA,3000,1,NA,NA,images/tutgreenplanet.jpg,images/tutalien1,images/tutalien2,null,images/tutalien1,NA,NA,practice,null,NA,NA,NA,NA,sub44
d3-instructions,15,100868,0.0-15.0,TRUE,FALSE,TRUE,FALSE,"""event"",""trial"",""time""
""fullscreenenter"",""5"",""21997""
","
","
","""event"",""trial"",""time""
""fullscreenenter"",""5"",""21997""
","
",NA,NA,NA,NA,NA,NA,NA,NA,NA,NA,NA,NA,NA,NA,NA,NA,NA,NA,NA,NA,NA,NA,sub44
d3-instructions,16,108367,0.0-16.0,TRUE,FALSE,TRUE,FALSE,"""event"",""trial"",""time""
""fullscreenenter"",""5"",""21997""
","
","
","""event"",""trial"",""time""
""fullscreenenter"",""5"",""21997""
","
",NA,NA,NA,NA,NA,NA,NA,NA,NA,NA,NA,NA,NA,NA,NA,NA,NA,NA,NA,NA,NA,NA,sub44
d3-instructions,17,147570,0.0-17.0,TRUE,FALSE,TRUE,FALSE,"""event"",""trial"",""time""
""fullscreenenter"",""5"",""21997""
","
","
","""event"",""trial"",""time""
""fullscreenenter"",""5"",""21997""
","
",NA,NA,NA,NA,NA,NA,NA,NA,NA,NA,NA,NA,NA,NA,NA,NA,NA,NA,NA,NA,NA,NA,sub44
d3-instructions,18,161283,0.0-18.0,TRUE,FALSE,TRUE,FALSE,"""event"",""trial"",""time""
""fullscreenenter"",""5"",""21997""
","
","
","""event"",""trial"",""time""
""fullscreenenter"",""5"",""21997""
","
",NA,NA,NA,NA,NA,NA,NA,NA,NA,NA,NA,NA,NA,NA,NA,NA,NA,NA,NA,NA,NA,NA,sub44
d3-instructions,19,177108,0.0-19.0,TRUE,FALSE,TRUE,FALSE,"""event"",""trial"",""time""
""fullscreenenter"",""5"",""21997""
","
","
","""event"",""trial"",""time""
""fullscreenenter"",""5"",""21997""
","
",NA,NA,NA,NA,NA,NA,NA,NA,NA,NA,NA,NA,NA,NA,NA,NA,NA,NA,NA,NA,NA,NA,sub44
d3-animate-choice,20,180268,0.0-20.0,TRUE,FALSE,TRUE,FALSE,"""event"",""trial"",""time""
""fullscreenenter"",""5"",""21997""
","
","
","""event"",""trial"",""time""
""fullscreenenter"",""5"",""21997""
","
",1144.3349999608472,NA,49,NA,NA,3000,1,NA,NA,images/tutyellowplanet.jpg,null,images/tutalien3,null,images/tutalien3,images/t.png,NA,practice,null,NA,NA,NA,NA,sub44
d3-animate-choice,21,183744,0.0-21.0,TRUE,FALSE,TRUE,FALSE,"""event"",""trial"",""time""
""fullscreenenter"",""5"",""21997""
","
","
","""event"",""trial"",""time""
""fullscreenenter"",""5"",""21997""
","
",1461.5099999937229,NA,49,NA,NA,3000,1,NA,NA,images/tutyellowplanet.jpg,null,images/tutalien3,null,images/tutalien3,images/t.png,NA,practice,null,NA,NA,NA,NA,sub44
d3-animate-choice,22,186932,0.0-22.0,TRUE,FALSE,TRUE,FALSE,"""event"",""trial"",""time""
""fullscreenenter"",""5"",""21997""
","
","
","""event"",""trial"",""time""
""fullscreenenter"",""5"",""21997""
","
",1175.1100000110455,NA,49,NA,NA,3000,1,NA,NA,images/tutyellowplanet.jpg,null,images/tutalien3,null,images/tutalien3,images/t.png,NA,practice,null,NA,NA,NA,NA,sub44
d3-animate-choice,23,190884,0.0-23.0,TRUE,FALSE,TRUE,FALSE,"""event"",""trial"",""time""
""fullscreenenter"",""5"",""21997""
","
","
","""event"",""trial"",""time""
""fullscreenenter"",""5"",""21997""
","
",1937.1049999608658,NA,49,NA,NA,3000,1,NA,NA,images/tutyellowplanet.jpg,null,images/tutalien3,null,images/tutalien3,images/t.png,NA,practice,null,NA,NA,NA,NA,sub44
d3-animate-choice,24,195008,0.0-24.0,TRUE,FALSE,TRUE,FALSE,"""event"",""trial"",""time""
""fullscreenenter"",""5"",""21997""
","
","
","""event"",""trial"",""time""
""fullscreenenter"",""5"",""21997""
","
",2112.6449999865144,NA,49,NA,NA,3000,1,NA,NA,images/tutyellowplanet.jpg,null,images/tutalien3,null,images/tutalien3,images/nothing.png,NA,practice,null,NA,NA,NA,NA,sub44
d3-animate-choice,25,198068,0.0-25.0,TRUE,FALSE,TRUE,FALSE,"""event"",""trial"",""time""
""fullscreenenter"",""5"",""21997""
","
","
","""event"",""trial"",""time""
""fullscreenenter"",""5"",""21997""
","
",1046.6400000150315,NA,49,NA,NA,3000,1,NA,NA,images/tutyellowplanet.jpg,null,images/tutalien3,null,images/tutalien3,images/t.png,NA,practice,null,NA,NA,NA,NA,sub44
d3-animate-choice,26,201108,0.0-26.0,TRUE,FALSE,TRUE,FALSE,"""event"",""trial"",""time""
""fullscreenenter"",""5"",""21997""
","
","
","""event"",""trial"",""time""
""fullscreenenter"",""5"",""21997""
","
",1029.2049999698065,NA,49,NA,NA,3000,1,NA,NA,images/tutyellowplanet.jpg,null,images/tutalien3,null,images/tutalien3,images/nothing.png,NA,practice,null,NA,NA,NA,NA,sub44
d3-animate-choice,27,203870,0.0-27.0,TRUE,FALSE,TRUE,FALSE,"""event"",""trial"",""time""
""fullscreenenter"",""5"",""21997""
","
","
","""event"",""trial"",""time""
""fullscreenenter"",""5"",""21997""
","
",749.0400000242516,NA,49,NA,NA,3000,1,NA,NA,images/tutyellowplanet.jpg,null,images/tutalien3,null,images/tutalien3,images/nothing.png,NA,practice,null,NA,NA,NA,NA,sub44
d3-animate-choice,28,207365,0.0-28.0,TRUE,FALSE,TRUE,FALSE,"""event"",""trial"",""time""
""fullscreenenter"",""5"",""21997""
","
","
","""event"",""trial"",""time""
""fullscreenenter"",""5"",""21997""
","
",1482.399999978952,NA,49,NA,NA,3000,1,NA,NA,images/tutyellowplanet.jpg,null,images/tutalien3,null,images/tutalien3,images/t.png,NA,practice,null,NA,NA,NA,NA,sub44
d3-animate-choice,29,210344,0.0-29.0,TRUE,FALSE,TRUE,FALSE,"""event"",""trial"",""time""
""fullscreenenter"",""5"",""21997""
","
","
","""event"",""trial"",""time""
""fullscreenenter"",""5"",""21997""
","
",966.489999962505,NA,49,NA,NA,3000,1,NA,NA,images/tutyellowplanet.jpg,null,images/tutalien3,null,images/tutalien3,images/t.png,NA,practice,null,NA,NA,NA,NA,sub44
d3-instructions,30,217879,0.0-30.0,TRUE,FALSE,TRUE,FALSE,"""event"",""trial"",""time""
""fullscreenenter"",""5"",""21997""
","
","
","""event"",""trial"",""time""
""fullscreenenter"",""5"",""21997""
","
",NA,NA,NA,NA,NA,NA,NA,NA,NA,NA,NA,NA,NA,NA,NA,NA,NA,NA,NA,NA,NA,NA,sub44
d3-instructions,31,229014,0.0-31.0,TRUE,FALSE,TRUE,FALSE,"""event"",""trial"",""time""
""fullscreenenter"",""5"",""21997""
","
","
","""event"",""trial"",""time""
""fullscreenenter"",""5"",""21997""
","
",NA,NA,NA,NA,NA,NA,NA,NA,NA,NA,NA,NA,NA,NA,NA,NA,NA,NA,NA,NA,NA,NA,sub44
d3-instructions,32,262511,0.0-32.0,TRUE,FALSE,TRUE,FALSE,"""event"",""trial"",""time""
""fullscreenenter"",""5"",""21997""
","
","
","""event"",""trial"",""time""
""fullscreenenter"",""5"",""21997""
","
",NA,NA,NA,NA,NA,NA,NA,NA,NA,NA,NA,NA,NA,NA,NA,NA,NA,NA,NA,NA,NA,NA,sub44
d3-instructions,33,280545,0.0-33.0,TRUE,FALSE,TRUE,FALSE,"""event"",""trial"",""time""
""fullscreenenter"",""5"",""21997""
","
","
","""event"",""trial"",""time""
""fullscreenenter"",""5"",""21997""
","
",NA,NA,NA,NA,NA,NA,NA,NA,NA,NA,NA,NA,NA,NA,NA,NA,NA,NA,NA,NA,NA,NA,sub44
d3-animate-choice,34,284004,0.0-34.0,TRUE,FALSE,TRUE,FALSE,"""event"",""trial"",""time""
""fullscreenenter"",""5"",""21997""
","
","
","""event"",""trial"",""time""
""fullscreenenter"",""5"",""21997""
","
",1445.099999953527,NA,49,NA,NA,3000,1,NA,NA,images/tutgreenplanet.jpg,images/tutalien1,images/tutalien2,null,images/tutalien2,images/t.png,NA,practice,null,NA,NA,NA,NA,sub44
d3-animate-choice,35,286391,0.0-35.0,TRUE,FALSE,TRUE,FALSE,"""event"",""trial"",""time""
""fullscreenenter"",""5"",""21997""
","
","
","""event"",""trial"",""time""
""fullscreenenter"",""5"",""21997""
","
",370.73500000406057,NA,48,NA,NA,3000,1,NA,NA,images/tutgreenplanet.jpg,images/tutalien1,images/tutalien2,null,images/tutalien1,images/nothing.png,NA,practice,null,NA,NA,NA,NA,sub44
d3-animate-choice,36,288968,0.0-36.0,TRUE,FALSE,TRUE,FALSE,"""event"",""trial"",""time""
""fullscreenenter"",""5"",""21997""
","
","
","""event"",""trial"",""time""
""fullscreenenter"",""5"",""21997""
","
",559.8750000353903,NA,49,NA,NA,3000,1,NA,NA,images/tutgreenplanet.jpg,images/tutalien1,images/tutalien2,null,images/tutalien2,images/t.png,NA,practice,null,NA,NA,NA,NA,sub44
d3-animate-choice,37,291518,0.0-37.0,TRUE,FALSE,TRUE,FALSE,"""event"",""trial"",""time""
""fullscreenenter"",""5"",""21997""
","
","
","""event"",""trial"",""time""
""fullscreenenter"",""5"",""21997""
","
",537.5200000125915,NA,48,NA,NA,3000,1,NA,NA,images/tutgreenplanet.jpg,images/tutalien1,images/tutalien2,null,images/tutalien1,images/nothing.png,NA,practice,null,NA,NA,NA,NA,sub44
d3-animate-choice,38,294273,0.0-38.0,TRUE,FALSE,TRUE,FALSE,"""event"",""trial"",""time""
""fullscreenenter"",""5"",""21997""
","
","
","""event"",""trial"",""time""
""fullscreenenter"",""5"",""21997""
","
",742.4949999549426,NA,49,NA,NA,3000,1,NA,NA,images/tutgreenplanet.jpg,images/tutalien1,images/tutalien2,null,images/tutalien2,images/t.png,NA,practice,null,NA,NA,NA,NA,sub44
d3-animate-choice,39,296703,0.0-39.0,TRUE,FALSE,TRUE,FALSE,"""event"",""trial"",""time""
""fullscreenenter"",""5"",""21997""
","
","
","""event"",""trial"",""time""
""fullscreenenter"",""5"",""21997""
","
",417.02500003157184,NA,48,NA,NA,3000,1,NA,NA,images/tutgreenplanet.jpg,images/tutalien1,images/tutalien2,null,images/tutalien1,images/nothing.png,NA,practice,null,NA,NA,NA,NA,sub44
d3-animate-choice,40,299138,0.0-40.0,TRUE,FALSE,TRUE,FALSE,"""event"",""trial"",""time""
""fullscreenenter"",""5"",""21997""
","
","
","""event"",""trial"",""time""
""fullscreenenter"",""5"",""21997""
","
",421.5649999678135,NA,49,NA,NA,3000,1,NA,NA,images/tutgreenplanet.jpg,images/tutalien1,images/tutalien2,null,images/tutalien2,images/t.png,NA,practice,null,NA,NA,NA,NA,sub44
d3-animate-choice,41,301960,0.0-41.0,TRUE,FALSE,TRUE,FALSE,"""event"",""trial"",""time""
""fullscreenenter"",""5"",""21997""
","
","
","""event"",""trial"",""time""
""fullscreenenter"",""5"",""21997""
","
",808.2900000154041,NA,48,NA,NA,3000,1,NA,NA,images/tutgreenplanet.jpg,images/tutalien1,images/tutalien2,null,images/tutalien1,images/t.png,NA,practice,null,NA,NA,NA,NA,sub44
d3-animate-choice,42,304370,0.0-42.0,TRUE,FALSE,TRUE,FALSE,"""event"",""trial"",""time""
""fullscreenenter"",""5"",""21997""
","
","
","""event"",""trial"",""time""
""fullscreenenter"",""5"",""21997""
","
",396.00499998778105,NA,49,NA,NA,3000,1,NA,NA,images/tutgreenplanet.jpg,images/tutalien1,images/tutalien2,null,images/tutalien2,images/t.png,NA,practice,null,NA,NA,NA,NA,sub44
d3-animate-choice,43,307077,0.0-43.0,TRUE,FALSE,TRUE,FALSE,"""event"",""trial"",""time""
""fullscreenenter"",""5"",""21997""
","
","
","""event"",""trial"",""time""
""fullscreenenter"",""5"",""21997""
","
",695.949999964796,NA,48,NA,NA,3000,1,NA,NA,images/tutgreenplanet.jpg,images/tutalien1,images/tutalien2,null,images/tutalien1,images/nothing.png,NA,practice,null,NA,NA,NA,NA,sub44
d3-instructions,44,321939,0.0-44.0,TRUE,FALSE,TRUE,FALSE,"""event"",""trial"",""time""
""fullscreenenter"",""5"",""21997""
","
","
","""event"",""trial"",""time""
""fullscreenenter"",""5"",""21997""
","
",NA,NA,NA,NA,NA,NA,NA,NA,NA,NA,NA,NA,NA,NA,NA,NA,NA,NA,NA,NA,NA,NA,sub44
d3-instructions,45,328185,0.0-45.0,TRUE,FALSE,TRUE,FALSE,"""event"",""trial"",""time""
""fullscreenenter"",""5"",""21997""
","
","
","""event"",""trial"",""time""
""fullscreenenter"",""5"",""21997""
","
",NA,NA,NA,NA,NA,NA,NA,NA,NA,NA,NA,NA,NA,NA,NA,NA,NA,NA,NA,NA,NA,NA,sub44
d3-instructions,46,380287,0.0-46.0,TRUE,FALSE,TRUE,FALSE,"""event"",""trial"",""time""
""fullscreenenter"",""5"",""21997""
","
","
","""event"",""trial"",""time""
""fullscreenenter"",""5"",""21997""
","
",NA,NA,NA,NA,NA,NA,NA,NA,NA,NA,NA,NA,NA,NA,NA,NA,NA,NA,NA,NA,NA,NA,sub44
d3-instructions,47,460743,0.0-47.0,TRUE,FALSE,TRUE,FALSE,"""event"",""trial"",""time""
""fullscreenenter"",""5"",""21997""
","
","
","""event"",""trial"",""time""
""fullscreenenter"",""5"",""21997""
","
",NA,NA,NA,NA,NA,NA,NA,NA,NA,NA,NA,NA,NA,NA,NA,NA,NA,NA,NA,NA,NA,NA,sub44
d3-instructions,48,472546,0.0-48.0,TRUE,FALSE,TRUE,FALSE,"""event"",""trial"",""time""
""fullscreenenter"",""5"",""21997""
","
","
","""event"",""trial"",""time""
""fullscreenenter"",""5"",""21997""
","
",NA,NA,NA,NA,NA,NA,NA,NA,NA,NA,NA,NA,NA,NA,NA,NA,NA,NA,NA,NA,NA,NA,sub44
d3-instructions,49,493229,0.0-49.0,TRUE,FALSE,TRUE,FALSE,"""event"",""trial"",""time""
""fullscreenenter"",""5"",""21997""
","
","
","""event"",""trial"",""time""
""fullscreenenter"",""5"",""21997""
","
",NA,NA,NA,NA,NA,NA,NA,NA,NA,NA,NA,NA,NA,NA,NA,NA,NA,NA,NA,NA,NA,NA,sub44
d3-instructions,50,504609,0.0-50.0,TRUE,FALSE,TRUE,FALSE,"""event"",""trial"",""time""
""fullscreenenter"",""5"",""21997""
","
","
","""event"",""trial"",""time""
""fullscreenenter"",""5"",""21997""
","
",NA,NA,NA,NA,NA,NA,NA,NA,NA,NA,NA,NA,NA,NA,NA,NA,NA,NA,NA,NA,NA,NA,sub44
d3-instructions,51,507898,0.0-51.0,TRUE,FALSE,TRUE,FALSE,"""event"",""trial"",""time""
""fullscreenenter"",""5"",""21997""
","
","
","""event"",""trial"",""time""
""fullscreenenter"",""5"",""21997""
","
",NA,NA,NA,NA,NA,NA,NA,NA,NA,NA,NA,NA,NA,NA,NA,NA,NA,NA,NA,NA,NA,NA,sub44
d3-instructions,52,512508,0.0-52.0,TRUE,FALSE,TRUE,FALSE,"""event"",""trial"",""time""
""fullscreenenter"",""5"",""21997""
","
","
","""event"",""trial"",""time""
""fullscreenenter"",""5"",""21997""
","
",NA,NA,NA,NA,NA,NA,NA,NA,NA,NA,NA,NA,NA,NA,NA,NA,NA,NA,NA,NA,NA,NA,sub44
d3-instructions,53,528817,0.0-53.0,TRUE,FALSE,TRUE,FALSE,"""event"",""trial"",""time""
""fullscreenenter"",""5"",""21997""
","
","
","""event"",""trial"",""time""
""fullscreenenter"",""5"",""21997""
","
",NA,NA,NA,NA,NA,NA,NA,NA,NA,NA,NA,NA,NA,NA,NA,NA,NA,NA,NA,NA,NA,NA,sub44
d3-instructions,54,545191,0.0-54.0,TRUE,FALSE,TRUE,FALSE,"""event"",""trial"",""time""
""fullscreenenter"",""5"",""21997""
","
","
","""event"",""trial"",""time""
""fullscreenenter"",""5"",""21997""
","
",NA,NA,NA,NA,NA,NA,NA,NA,NA,NA,NA,NA,NA,NA,NA,NA,NA,NA,NA,NA,NA,NA,sub44
d3-instructions,55,558434,0.0-55.0,TRUE,FALSE,TRUE,FALSE,"""event"",""trial"",""time""
""fullscreenenter"",""5"",""21997""
","
","
","""event"",""trial"",""time""
""fullscreenenter"",""5"",""21997""
","
",NA,NA,NA,NA,NA,NA,NA,NA,NA,NA,NA,NA,NA,NA,NA,NA,NA,NA,NA,NA,NA,NA,sub44
d3-instructions,56,568140,0.0-56.0,TRUE,FALSE,TRUE,FALSE,"""event"",""trial"",""time""
""fullscreenenter"",""5"",""21997""
","
","
","""event"",""trial"",""time""
""fullscreenenter"",""5"",""21997""
","
",NA,NA,NA,NA,NA,NA,NA,NA,NA,NA,NA,NA,NA,NA,NA,NA,NA,NA,NA,NA,NA,NA,sub44
d3-instructions,57,579506,0.0-57.0,TRUE,FALSE,TRUE,FALSE,"""event"",""trial"",""time""
""fullscreenenter"",""5"",""21997""
","
","
","""event"",""trial"",""time""
""fullscreenenter"",""5"",""21997""
","
",NA,NA,NA,NA,NA,NA,NA,NA,NA,NA,NA,NA,NA,NA,NA,NA,NA,NA,NA,NA,NA,NA,sub44
d3-instructions,58,594205,0.0-58.0,TRUE,FALSE,TRUE,FALSE,"""event"",""trial"",""time""
""fullscreenenter"",""5"",""21997""
","
","
","""event"",""trial"",""time""
""fullscreenenter"",""5"",""21997""
","
",NA,NA,NA,NA,NA,NA,NA,NA,NA,NA,NA,NA,NA,NA,NA,NA,NA,NA,NA,NA,NA,NA,sub44
d3-instructions,59,600865,0.0-59.0,TRUE,FALSE,TRUE,FALSE,"""event"",""trial"",""time""
""fullscreenenter"",""5"",""21997""
","
","
","""event"",""trial"",""time""
""fullscreenenter"",""5"",""21997""
","
",NA,NA,NA,NA,NA,NA,NA,NA,NA,NA,NA,NA,NA,NA,NA,NA,NA,NA,NA,NA,NA,NA,sub44
d3-instructions,60,608182,0.0-60.0,TRUE,FALSE,TRUE,FALSE,"""event"",""trial"",""time""
""fullscreenenter"",""5"",""21997""
","
","
","""event"",""trial"",""time""
""fullscreenenter"",""5"",""21997""
","
",NA,NA,NA,NA,NA,NA,NA,NA,NA,NA,NA,NA,NA,NA,NA,NA,NA,NA,NA,NA,NA,NA,sub44
d3-animate-choice,61,611457,0.0-61.0-0.0,TRUE,FALSE,TRUE,FALSE,"""event"",""trial"",""time""
""fullscreenenter"",""5"",""21997""
","
","
","""event"",""trial"",""time""
""fullscreenenter"",""5"",""21997""
","
",1255.5900000152178,NA,49,NA,NA,3000,1,3050.7099999813363,48,images/earth.jpg,images/tutrocket1,images/tutrocket2,null,images/tutrocket2,NA,1,practice,null,1,NA,NA,NA,sub44
d3-animate-choice,62,615458,0.0-61.0-1.0,TRUE,FALSE,TRUE,FALSE,"""event"",""trial"",""time""
""fullscreenenter"",""5"",""21997""
","
","
","""event"",""trial"",""time""
""fullscreenenter"",""5"",""21997""
","
",1982.6999999932013,NA,48,NA,NA,3000,1,NA,NA,images/tutyellowplanet.jpg,images/tutalien4,images/tutalien3,images/tutrocket2,images/tutalien4,images/nothing.png,2,practice,false,2,rare,0,2020-06-11T20:03:00Z,sub44
two-step-fixation,63,616467,0.0-61.0-2.0,TRUE,FALSE,TRUE,FALSE,"""event"",""trial"",""time""
""fullscreenenter"",""5"",""21997""
","
","
","""event"",""trial"",""time""
""fullscreenenter"",""5"",""21997""
","
",NA,images/earth.jpg,NA,NA,NA,NA,NA,NA,NA,NA,NA,NA,NA,NA,NA,fixation,NA,NA,NA,NA,NA,NA,sub44
d3-animate-choice,64,619394,0.0-61.0-0.1,TRUE,FALSE,TRUE,FALSE,"""event"",""trial"",""time""
""fullscreenenter"",""5"",""21997""
","
","
","""event"",""trial"",""time""
""fullscreenenter"",""5"",""21997""
","
",913.985000050161,NA,48,NA,NA,3000,1,NA,NA,images/earth.jpg,images/tutrocket1,images/tutrocket2,null,images/tutrocket1,NA,1,practice,null,2,NA,NA,NA,sub44
d3-animate-choice,65,622019,0.0-61.0-1.1,TRUE,FALSE,TRUE,FALSE,"""event"",""trial"",""time""
""fullscreenenter"",""5"",""21997""
","
","
","""event"",""trial"",""time""
""fullscreenenter"",""5"",""21997""
","
",614.2999999574386,NA,49,NA,NA,3000,1,NA,NA,images/tutyellowplanet.jpg,images/tutalien4,images/tutalien3,images/tutrocket1,images/tutalien3,images/nothing.png,2,practice,true,1,common,0,2020-06-11T20:03:07Z,sub44
two-step-fixation,66,623026,0.0-61.0-2.1,TRUE,FALSE,TRUE,FALSE,"""event"",""trial"",""time""
""fullscreenenter"",""5"",""21997""
","
","
","""event"",""trial"",""time""
""fullscreenenter"",""5"",""21997""
","
",NA,images/earth.jpg,NA,NA,NA,NA,NA,NA,NA,NA,NA,NA,NA,NA,NA,fixation,NA,NA,NA,NA,NA,NA,sub44
d3-animate-choice,67,625593,0.0-61.0-0.2,TRUE,FALSE,TRUE,FALSE,"""event"",""trial"",""time""
""fullscreenenter"",""5"",""21997""
","
","
","""event"",""trial"",""time""
""fullscreenenter"",""5"",""21997""
","
",550.1649999641813,NA,49,NA,NA,3000,1,NA,NA,images/earth.jpg,images/tutrocket1,images/tutrocket2,null,images/tutrocket2,NA,1,practice,null,1,NA,NA,NA,sub44
d3-animate-choice,68,628051,0.0-61.0-1.2,TRUE,FALSE,TRUE,FALSE,"""event"",""trial"",""time""
""fullscreenenter"",""5"",""21997""
","
","
","""event"",""trial"",""time""
""fullscreenenter"",""5"",""21997""
","
",442.74500000756234,NA,49,NA,NA,3000,1,NA,NA,images/tutyellowplanet.jpg,images/tutalien4,images/tutalien3,images/tutrocket2,images/tutalien3,images/nothing.png,2,practice,false,1,rare,0,2020-06-11T20:03:13Z,sub44
two-step-fixation,69,629057,0.0-61.0-2.2,TRUE,FALSE,TRUE,FALSE,"""event"",""trial"",""time""
""fullscreenenter"",""5"",""21997""
","
","
","""event"",""trial"",""time""
""fullscreenenter"",""5"",""21997""
","
",NA,images/earth.jpg,NA,NA,NA,NA,NA,NA,NA,NA,NA,NA,NA,NA,NA,fixation,NA,NA,NA,NA,NA,NA,sub44
d3-animate-choice,70,631409,0.0-61.0-0.3,TRUE,FALSE,TRUE,FALSE,"""event"",""trial"",""time""
""fullscreenenter"",""5"",""21997""
","
","
","""event"",""trial"",""time""
""fullscreenenter"",""5"",""21997""
","
",336.06499998131767,NA,48,NA,NA,3000,1,NA,NA,images/earth.jpg,images/tutrocket1,images/tutrocket2,null,images/tutrocket1,NA,1,practice,null,2,NA,NA,NA,sub44
d3-animate-choice,71,634407,0.0-61.0-1.3,TRUE,FALSE,TRUE,FALSE,"""event"",""trial"",""time""
""fullscreenenter"",""5"",""21997""
","
","
","""event"",""trial"",""time""
""fullscreenenter"",""5"",""21997""
","
",961.9900000398047,NA,188,NA,NA,3000,1,985.4550000163727,48,images/tutyellowplanet.jpg,images/tutalien4,images/tutalien3,images/tutrocket1,images/tutalien4,images/t.png,2,practice,true,NA,common,1,2020-06-11T20:03:19Z,sub44
two-step-fixation,72,635413,0.0-61.0-2.3,TRUE,FALSE,TRUE,FALSE,"""event"",""trial"",""time""
""fullscreenenter"",""5"",""21997""
","
","
","""event"",""trial"",""time""
""fullscreenenter"",""5"",""21997""
","
",NA,images/earth.jpg,NA,NA,NA,NA,NA,NA,NA,NA,NA,NA,NA,NA,NA,fixation,NA,NA,NA,NA,NA,NA,sub44
d3-animate-choice,73,637923,0.0-61.0-0.4,TRUE,FALSE,TRUE,FALSE,"""event"",""trial"",""time""
""fullscreenenter"",""5"",""21997""
","
","
","""event"",""trial"",""time""
""fullscreenenter"",""5"",""21997""
","
",496.1500000208616,NA,49,NA,NA,3000,1,NA,NA,images/earth.jpg,images/tutrocket1,images/tutrocket2,null,images/tutrocket2,NA,1,practice,null,1,NA,NA,NA,sub44
d3-animate-choice,74,640972,0.0-61.0-1.4,TRUE,FALSE,TRUE,FALSE,"""event"",""trial"",""time""
""fullscreenenter"",""5"",""21997""
","
","
","""event"",""trial"",""time""
""fullscreenenter"",""5"",""21997""
","
",1032.9899999778718,NA,48,NA,NA,3000,1,NA,NA,images/tutgreenplanet.jpg,images/tutalien2,images/tutalien1,images/tutrocket2,images/tutalien2,images/nothing.png,2,practice,true,2,common,0,2020-06-11T20:03:26Z,sub44
two-step-fixation,75,641981,0.0-61.0-2.4,TRUE,FALSE,TRUE,FALSE,"""event"",""trial"",""time""
""fullscreenenter"",""5"",""21997""
","
","
","""event"",""trial"",""time""
""fullscreenenter"",""5"",""21997""
","
",NA,images/earth.jpg,NA,NA,NA,NA,NA,NA,NA,NA,NA,NA,NA,NA,NA,fixation,NA,NA,NA,NA,NA,NA,sub44
d3-animate-choice,76,644715,0.0-61.0-0.5,TRUE,FALSE,TRUE,FALSE,"""event"",""trial"",""time""
""fullscreenenter"",""5"",""21997""
","
","
","""event"",""trial"",""time""
""fullscreenenter"",""5"",""21997""
","
",716.2850000313483,NA,49,NA,NA,3000,1,NA,NA,images/earth.jpg,images/tutrocket1,images/tutrocket2,null,images/tutrocket2,NA,1,practice,null,1,NA,NA,NA,sub44
d3-animate-choice,77,647354,0.0-61.0-1.5,TRUE,FALSE,TRUE,FALSE,"""event"",""trial"",""time""
""fullscreenenter"",""5"",""21997""
","
","
","""event"",""trial"",""time""
""fullscreenenter"",""5"",""21997""
","
",622.4299999885261,NA,49,NA,NA,3000,1,NA,NA,images/tutgreenplanet.jpg,images/tutalien2,images/tutalien1,images/tutrocket2,images/tutalien1,images/t.png,2,practice,true,1,common,1,2020-06-11T20:03:32Z,sub44
two-step-fixation,78,648362,0.0-61.0-2.5,TRUE,FALSE,TRUE,FALSE,"""event"",""trial"",""time""
""fullscreenenter"",""5"",""21997""
","
","
","""event"",""trial"",""time""
""fullscreenenter"",""5"",""21997""
","
",NA,images/earth.jpg,NA,NA,NA,NA,NA,NA,NA,NA,NA,NA,NA,NA,NA,fixation,NA,NA,NA,NA,NA,NA,sub44
d3-animate-choice,79,650752,0.0-61.0-0.6,TRUE,FALSE,TRUE,FALSE,"""event"",""trial"",""time""
""fullscreenenter"",""5"",""21997""
","
","
","""event"",""trial"",""time""
""fullscreenenter"",""5"",""21997""
","
",376.4049999881536,NA,48,NA,NA,3000,1,NA,NA,images/earth.jpg,images/tutrocket1,images/tutrocket2,null,images/tutrocket1,NA,1,practice,null,2,NA,NA,NA,sub44
d3-animate-choice,80,653103,0.0-61.0-1.6,TRUE,FALSE,TRUE,FALSE,"""event"",""trial"",""time""
""fullscreenenter"",""5"",""21997""
","
","
","""event"",""trial"",""time""
""fullscreenenter"",""5"",""21997""
","
",335.74000000953674,NA,49,NA,NA,3000,1,NA,NA,images/tutyellowplanet.jpg,images/tutalien4,images/tutalien3,images/tutrocket1,images/tutalien3,images/nothing.png,2,practice,true,1,common,0,2020-06-11T20:03:38Z,sub44
two-step-fixation,81,654110,0.0-61.0-2.6,TRUE,FALSE,TRUE,FALSE,"""event"",""trial"",""time""
""fullscreenenter"",""5"",""21997""
","
","
","""event"",""trial"",""time""
""fullscreenenter"",""5"",""21997""
","
",NA,images/earth.jpg,NA,NA,NA,NA,NA,NA,NA,NA,NA,NA,NA,NA,NA,fixation,NA,NA,NA,NA,NA,NA,sub44
d3-animate-choice,82,656593,0.0-61.0-0.7,TRUE,FALSE,TRUE,FALSE,"""event"",""trial"",""time""
""fullscreenenter"",""5"",""21997""
","
","
","""event"",""trial"",""time""
""fullscreenenter"",""5"",""21997""
","
",470.03999998560175,NA,49,NA,NA,3000,1,NA,NA,images/earth.jpg,images/tutrocket1,images/tutrocket2,null,images/tutrocket2,NA,1,practice,null,1,NA,NA,NA,sub44
d3-animate-choice,83,659251,0.0-61.0-1.7,TRUE,FALSE,TRUE,FALSE,"""event"",""trial"",""time""
""fullscreenenter"",""5"",""21997""
","
","
","""event"",""trial"",""time""
""fullscreenenter"",""5"",""21997""
","
",642.5349999917671,NA,48,NA,NA,3000,1,NA,NA,images/tutgreenplanet.jpg,images/tutalien2,images/tutalien1,images/tutrocket2,images/tutalien2,images/t.png,2,practice,true,2,common,1,2020-06-11T20:03:44Z,sub44
two-step-fixation,84,660260,0.0-61.0-2.7,TRUE,FALSE,TRUE,FALSE,"""event"",""trial"",""time""
""fullscreenenter"",""5"",""21997""
","
","
","""event"",""trial"",""time""
""fullscreenenter"",""5"",""21997""
","
",NA,images/earth.jpg,NA,NA,NA,NA,NA,NA,NA,NA,NA,NA,NA,NA,NA,fixation,NA,NA,NA,NA,NA,NA,sub44
d3-animate-choice,85,662777,0.0-61.0-0.8,TRUE,FALSE,TRUE,FALSE,"""event"",""trial"",""time""
""fullscreenenter"",""5"",""21997""
","
","
","""event"",""trial"",""time""
""fullscreenenter"",""5"",""21997""
","
",498.51000000489876,NA,49,NA,NA,3000,1,NA,NA,images/earth.jpg,images/tutrocket1,images/tutrocket2,null,images/tutrocket2,NA,1,practice,null,1,NA,NA,NA,sub44
d3-animate-choice,86,665812,0.0-61.0-1.8,TRUE,FALSE,TRUE,FALSE,"""event"",""trial"",""time""
""fullscreenenter"",""5"",""21997""
","
","
","""event"",""trial"",""time""
""fullscreenenter"",""5"",""21997""
","
",1018.4199999785051,NA,48,NA,NA,3000,1,NA,NA,images/tutyellowplanet.jpg,images/tutalien4,images/tutalien3,images/tutrocket2,images/tutalien4,images/nothing.png,2,practice,false,2,rare,0,2020-06-11T20:03:51Z,sub44
two-step-fixation,87,666820,0.0-61.0-2.8,TRUE,FALSE,TRUE,FALSE,"""event"",""trial"",""time""
""fullscreenenter"",""5"",""21997""
","
","
","""event"",""trial"",""time""
""fullscreenenter"",""5"",""21997""
","
",NA,images/earth.jpg,NA,NA,NA,NA,NA,NA,NA,NA,NA,NA,NA,NA,NA,fixation,NA,NA,NA,NA,NA,NA,sub44
d3-animate-choice,88,670156,0.0-61.0-0.9,TRUE,FALSE,TRUE,FALSE,"""event"",""trial"",""time""
""fullscreenenter"",""5"",""21997""
","
","
","""event"",""trial"",""time""
""fullscreenenter"",""5"",""21997""
","
",1321.959999972023,NA,49,NA,NA,3000,1,NA,NA,images/earth.jpg,images/tutrocket1,images/tutrocket2,null,images/tutrocket2,NA,1,practice,null,1,NA,NA,NA,sub44
d3-animate-choice,89,673469,0.0-61.0-1.9,TRUE,FALSE,TRUE,FALSE,"""event"",""trial"",""time""
""fullscreenenter"",""5"",""21997""
","
","
","""event"",""trial"",""time""
""fullscreenenter"",""5"",""21997""
","
",1305.6499999947846,NA,49,NA,NA,3000,1,NA,NA,images/tutgreenplanet.jpg,images/tutalien2,images/tutalien1,images/tutrocket2,images/tutalien1,images/t.png,2,practice,true,1,common,1,2020-06-11T20:03:58Z,sub44
two-step-fixation,90,674477,0.0-61.0-2.9,TRUE,FALSE,TRUE,FALSE,"""event"",""trial"",""time""
""fullscreenenter"",""5"",""21997""
","
","
","""event"",""trial"",""time""
""fullscreenenter"",""5"",""21997""
","
",NA,images/earth.jpg,NA,NA,NA,NA,NA,NA,NA,NA,NA,NA,NA,NA,NA,fixation,NA,NA,NA,NA,NA,NA,sub44
d3-animate-choice,91,676928,0.0-61.0-0.10,TRUE,FALSE,TRUE,FALSE,"""event"",""trial"",""time""
""fullscreenenter"",""5"",""21997""
","
","
","""event"",""trial"",""time""
""fullscreenenter"",""5"",""21997""
","
",437.20499996561557,NA,48,NA,NA,3000,1,NA,NA,images/earth.jpg,images/tutrocket1,images/tutrocket2,null,images/tutrocket1,NA,1,practice,null,2,NA,NA,NA,sub44
d3-animate-choice,92,680206,0.0-61.0-1.10,TRUE,FALSE,TRUE,FALSE,"""event"",""trial"",""time""
""fullscreenenter"",""5"",""21997""
","
","
","""event"",""trial"",""time""
""fullscreenenter"",""5"",""21997""
","
",1263.730000006035,NA,49,NA,NA,3000,1,NA,NA,images/tutgreenplanet.jpg,images/tutalien2,images/tutalien1,images/tutrocket1,images/tutalien1,images/t.png,2,practice,false,1,rare,1,2020-06-11T20:04:05Z,sub44
two-step-fixation,93,681212,0.0-61.0-2.10,TRUE,FALSE,TRUE,FALSE,"""event"",""trial"",""time""
""fullscreenenter"",""5"",""21997""
","
","
","""event"",""trial"",""time""
""fullscreenenter"",""5"",""21997""
","
",NA,images/earth.jpg,NA,NA,NA,NA,NA,NA,NA,NA,NA,NA,NA,NA,NA,fixation,NA,NA,NA,NA,NA,NA,sub44
d3-animate-choice,94,683404,0.0-61.0-0.11,TRUE,FALSE,TRUE,FALSE,"""event"",""trial"",""time""
""fullscreenenter"",""5"",""21997""
","
","
","""event"",""trial"",""time""
""fullscreenenter"",""5"",""21997""
","
",174.3700000224635,NA,49,NA,NA,3000,1,NA,NA,images/earth.jpg,images/tutrocket1,images/tutrocket2,null,images/tutrocket2,NA,1,practice,null,1,NA,NA,NA,sub44
d3-animate-choice,95,686279,0.0-61.0-1.11,TRUE,FALSE,TRUE,FALSE,"""event"",""trial"",""time""
""fullscreenenter"",""5"",""21997""
","
","
","""event"",""trial"",""time""
""fullscreenenter"",""5"",""21997""
","
",859.3649999820627,NA,48,NA,NA,3000,1,NA,NA,images/tutyellowplanet.jpg,images/tutalien4,images/tutalien3,images/tutrocket2,images/tutalien4,images/t.png,2,practice,false,2,rare,1,2020-06-11T20:04:11Z,sub44
two-step-fixation,96,687288,0.0-61.0-2.11,TRUE,FALSE,TRUE,FALSE,"""event"",""trial"",""time""
""fullscreenenter"",""5"",""21997""
","
","
","""event"",""trial"",""time""
""fullscreenenter"",""5"",""21997""
","
",NA,images/earth.jpg,NA,NA,NA,NA,NA,NA,NA,NA,NA,NA,NA,NA,NA,fixation,NA,NA,NA,NA,NA,NA,sub44
d3-animate-choice,97,690540,0.0-61.0-0.12,TRUE,FALSE,TRUE,FALSE,"""event"",""trial"",""time""
""fullscreenenter"",""5"",""21997""
","
","
","""event"",""trial"",""time""
""fullscreenenter"",""5"",""21997""
","
",1234.6750000142492,NA,49,NA,NA,3000,1,NA,NA,images/earth.jpg,images/tutrocket1,images/tutrocket2,null,images/tutrocket2,NA,1,practice,null,1,NA,NA,NA,sub44
d3-animate-choice,98,693171,0.0-61.0-1.12,TRUE,FALSE,TRUE,FALSE,"""event"",""trial"",""time""
""fullscreenenter"",""5"",""21997""
","
","
","""event"",""trial"",""time""
""fullscreenenter"",""5"",""21997""
","
",616.4449999923818,NA,49,NA,NA,3000,1,NA,NA,images/tutgreenplanet.jpg,images/tutalien2,images/tutalien1,images/tutrocket2,images/tutalien1,images/t.png,2,practice,true,1,common,1,2020-06-11T20:04:18Z,sub44
two-step-fixation,99,694175,0.0-61.0-2.12,TRUE,FALSE,TRUE,FALSE,"""event"",""trial"",""time""
""fullscreenenter"",""5"",""21997""
","
","
","""event"",""trial"",""time""
""fullscreenenter"",""5"",""21997""
","
",NA,images/earth.jpg,NA,NA,NA,NA,NA,NA,NA,NA,NA,NA,NA,NA,NA,fixation,NA,NA,NA,NA,NA,NA,sub44
d3-animate-choice,100,697006,0.0-61.0-0.13,TRUE,FALSE,TRUE,FALSE,"""event"",""trial"",""time""
""fullscreenenter"",""5"",""21997""
","
","
","""event"",""trial"",""time""
""fullscreenenter"",""5"",""21997""
","
",815.7549999887124,NA,48,NA,NA,3000,1,NA,NA,images/earth.jpg,images/tutrocket1,images/tutrocket2,null,images/tutrocket1,NA,1,practice,null,2,NA,NA,NA,sub44
d3-animate-choice,101,699715,0.0-61.0-1.13,TRUE,FALSE,TRUE,FALSE,"""event"",""trial"",""time""
""fullscreenenter"",""5"",""21997""
","
","
","""event"",""trial"",""time""
""fullscreenenter"",""5"",""21997""
","
",691.3049999857321,NA,48,NA,NA,3000,1,NA,NA,images/tutyellowplanet.jpg,images/tutalien4,images/tutalien3,images/tutrocket1,images/tutalien4,images/t.png,2,practice,true,2,common,1,2020-06-11T20:04:25Z,sub44
two-step-fixation,102,700722,0.0-61.0-2.13,TRUE,FALSE,TRUE,FALSE,"""event"",""trial"",""time""
""fullscreenenter"",""5"",""21997""
","
","
","""event"",""trial"",""time""
""fullscreenenter"",""5"",""21997""
","
",NA,images/earth.jpg,NA,NA,NA,NA,NA,NA,NA,NA,NA,NA,NA,NA,NA,fixation,NA,NA,NA,NA,NA,NA,sub44
d3-animate-choice,103,703856,0.0-61.0-0.14,TRUE,FALSE,TRUE,FALSE,"""event"",""trial"",""time""
""fullscreenenter"",""5"",""21997""
","
","
","""event"",""trial"",""time""
""fullscreenenter"",""5"",""21997""
","
",1116.1599999759346,NA,49,NA,NA,3000,1,NA,NA,images/earth.jpg,images/tutrocket1,images/tutrocket2,null,images/tutrocket2,NA,1,practice,null,1,NA,NA,NA,sub44
d3-animate-choice,104,706385,0.0-61.0-1.14,TRUE,FALSE,TRUE,FALSE,"""event"",""trial"",""time""
""fullscreenenter"",""5"",""21997""
","
","
","""event"",""trial"",""time""
""fullscreenenter"",""5"",""21997""
","
",516.4649999933317,NA,49,NA,NA,3000,1,NA,NA,images/tutgreenplanet.jpg,images/tutalien2,images/tutalien1,images/tutrocket2,images/tutalien1,images/nothing.png,2,practice,true,1,common,0,2020-06-11T20:04:31Z,sub44
two-step-fixation,105,707392,0.0-61.0-2.14,TRUE,FALSE,TRUE,FALSE,"""event"",""trial"",""time""
""fullscreenenter"",""5"",""21997""
","
","
","""event"",""trial"",""time""
""fullscreenenter"",""5"",""21997""
","
",NA,images/earth.jpg,NA,NA,NA,NA,NA,NA,NA,NA,NA,NA,NA,NA,NA,fixation,NA,NA,NA,NA,NA,NA,sub44
d3-animate-choice,106,710155,0.0-61.0-0.15,TRUE,FALSE,TRUE,FALSE,"""event"",""trial"",""time""
""fullscreenenter"",""5"",""21997""
","
","
","""event"",""trial"",""time""
""fullscreenenter"",""5"",""21997""
","
",754.0999999619089,NA,48,NA,NA,3000,1,NA,NA,images/earth.jpg,images/tutrocket1,images/tutrocket2,null,images/tutrocket1,NA,1,practice,null,2,NA,NA,NA,sub44
d3-animate-choice,107,713137,0.0-61.0-1.15,TRUE,FALSE,TRUE,FALSE,"""event"",""trial"",""time""
""fullscreenenter"",""5"",""21997""
","
","
","""event"",""trial"",""time""
""fullscreenenter"",""5"",""21997""
","
",969.9249999830499,NA,48,NA,NA,3000,1,NA,NA,images/tutyellowplanet.jpg,images/tutalien4,images/tutalien3,images/tutrocket1,images/tutalien4,images/nothing.png,2,practice,true,2,common,0,2020-06-11T20:04:38Z,sub44
two-step-fixation,108,714146,0.0-61.0-2.15,TRUE,FALSE,TRUE,FALSE,"""event"",""trial"",""time""
""fullscreenenter"",""5"",""21997""
","
","
","""event"",""trial"",""time""
""fullscreenenter"",""5"",""21997""
","
",NA,images/earth.jpg,NA,NA,NA,NA,NA,NA,NA,NA,NA,NA,NA,NA,NA,fixation,NA,NA,NA,NA,NA,NA,sub44
d3-animate-choice,109,717311,0.0-61.0-0.16,TRUE,FALSE,TRUE,FALSE,"""event"",""trial"",""time""
""fullscreenenter"",""5"",""21997""
","
","
","""event"",""trial"",""time""
""fullscreenenter"",""5"",""21997""
","
",1151.8499999656342,NA,49,NA,NA,3000,1,NA,NA,images/earth.jpg,images/tutrocket1,images/tutrocket2,null,images/tutrocket2,NA,1,practice,null,1,NA,NA,NA,sub44
d3-animate-choice,110,720752,0.0-61.0-1.16,TRUE,FALSE,TRUE,FALSE,"""event"",""trial"",""time""
""fullscreenenter"",""5"",""21997""
","
","
","""event"",""trial"",""time""
""fullscreenenter"",""5"",""21997""
","
",1428.5849999869242,NA,48,NA,NA,3000,1,NA,NA,images/tutgreenplanet.jpg,images/tutalien2,images/tutalien1,images/tutrocket2,images/tutalien2,images/t.png,2,practice,true,2,common,1,2020-06-11T20:04:46Z,sub44
two-step-fixation,111,721758,0.0-61.0-2.16,TRUE,FALSE,TRUE,FALSE,"""event"",""trial"",""time""
""fullscreenenter"",""5"",""21997""
","
","
","""event"",""trial"",""time""
""fullscreenenter"",""5"",""21997""
","
",NA,images/earth.jpg,NA,NA,NA,NA,NA,NA,NA,NA,NA,NA,NA,NA,NA,fixation,NA,NA,NA,NA,NA,NA,sub44
d3-animate-choice,112,724578,0.0-61.0-0.17,TRUE,FALSE,TRUE,FALSE,"""event"",""trial"",""time""
""fullscreenenter"",""5"",""21997""
","
","
","""event"",""trial"",""time""
""fullscreenenter"",""5"",""21997""
","
",807.474999979604,NA,49,NA,NA,3000,1,NA,NA,images/earth.jpg,images/tutrocket1,images/tutrocket2,null,images/tutrocket2,NA,1,practice,null,1,NA,NA,NA,sub44
d3-animate-choice,113,727705,0.0-61.0-1.17,TRUE,FALSE,TRUE,FALSE,"""event"",""trial"",""time""
""fullscreenenter"",""5"",""21997""
","
","
","""event"",""trial"",""time""
""fullscreenenter"",""5"",""21997""
","
",1112.7949999645352,NA,49,NA,NA,3000,1,NA,NA,images/tutgreenplanet.jpg,images/tutalien2,images/tutalien1,images/tutrocket2,images/tutalien1,images/t.png,2,practice,true,1,common,1,2020-06-11T20:04:53Z,sub44
two-step-fixation,114,728713,0.0-61.0-2.17,TRUE,FALSE,TRUE,FALSE,"""event"",""trial"",""time""
""fullscreenenter"",""5"",""21997""
","
","
","""event"",""trial"",""time""
""fullscreenenter"",""5"",""21997""
","
",NA,images/earth.jpg,NA,NA,NA,NA,NA,NA,NA,NA,NA,NA,NA,NA,NA,fixation,NA,NA,NA,NA,NA,NA,sub44
d3-animate-choice,115,731621,0.0-61.0-0.18,TRUE,FALSE,TRUE,FALSE,"""event"",""trial"",""time""
""fullscreenenter"",""5"",""21997""
","
","
","""event"",""trial"",""time""
""fullscreenenter"",""5"",""21997""
","
",886.0449999920093,NA,48,NA,NA,3000,1,NA,NA,images/earth.jpg,images/tutrocket1,images/tutrocket2,null,images/tutrocket1,NA,1,practice,null,2,NA,NA,NA,sub44
d3-animate-choice,116,734938,0.0-61.0-1.18,TRUE,FALSE,TRUE,FALSE,"""event"",""trial"",""time""
""fullscreenenter"",""5"",""21997""
","
","
","""event"",""trial"",""time""
""fullscreenenter"",""5"",""21997""
","
",1304.1299999458715,NA,48,NA,NA,3000,1,3141.479999991134,49,images/tutgreenplanet.jpg,images/tutalien2,images/tutalien1,images/tutrocket1,images/tutalien2,images/nothing.png,2,practice,false,2,rare,0,2020-06-11T20:05:00Z,sub44
two-step-fixation,117,735944,0.0-61.0-2.18,TRUE,FALSE,TRUE,FALSE,"""event"",""trial"",""time""
""fullscreenenter"",""5"",""21997""
","
","
","""event"",""trial"",""time""
""fullscreenenter"",""5"",""21997""
","
",NA,images/earth.jpg,NA,NA,NA,NA,NA,NA,NA,NA,NA,NA,NA,NA,NA,fixation,NA,NA,NA,NA,NA,NA,sub44
d3-animate-choice,118,738497,0.0-61.0-0.19,TRUE,FALSE,TRUE,FALSE,"""event"",""trial"",""time""
""fullscreenenter"",""5"",""21997""
","
","
","""event"",""trial"",""time""
""fullscreenenter"",""5"",""21997""
","
",538.3450000081211,NA,49,NA,NA,3000,1,NA,NA,images/earth.jpg,images/tutrocket1,images/tutrocket2,null,images/tutrocket2,NA,1,practice,null,1,NA,NA,NA,sub44
d3-animate-choice,119,741767,0.0-61.0-1.19,TRUE,FALSE,TRUE,FALSE,"""event"",""trial"",""time""
""fullscreenenter"",""5"",""21997""
","
","
","""event"",""trial"",""time""
""fullscreenenter"",""5"",""21997""
","
",1262.5049999915063,NA,49,NA,NA,3000,1,NA,NA,images/tutgreenplanet.jpg,images/tutalien2,images/tutalien1,images/tutrocket2,images/tutalien1,images/t.png,2,practice,true,1,common,1,2020-06-11T20:05:07Z,sub44
two-step-fixation,120,742771,0.0-61.0-2.19,TRUE,FALSE,TRUE,FALSE,"""event"",""trial"",""time""
""fullscreenenter"",""5"",""21997""
","
","
","""event"",""trial"",""time""
""fullscreenenter"",""5"",""21997""
","
",NA,images/earth.jpg,NA,NA,NA,NA,NA,NA,NA,NA,NA,NA,NA,NA,NA,fixation,NA,NA,NA,NA,NA,NA,sub44
d3-instructions,121,749699,0.0-62.0,TRUE,FALSE,TRUE,FALSE,"""event"",""trial"",""time""
""fullscreenenter"",""5"",""21997""
","
","
","""event"",""trial"",""time""
""fullscreenenter"",""5"",""21997""
","
",NA,NA,NA,NA,NA,NA,NA,NA,NA,NA,NA,NA,NA,NA,NA,NA,NA,NA,NA,NA,NA,NA,sub44
audio-keyboard-response,122,754538,0.0-63.0,TRUE,FALSE,TRUE,FALSE,"""event"",""trial"",""time""
""fullscreenenter"",""5"",""21997""
","
","
","""event"",""trial"",""time""
""fullscreenenter"",""5"",""21997""
","
",4832,audio/instructions/treasure_feedback.wav,32,NA,NA,NA,NA,NA,NA,NA,NA,NA,NA,NA,NA,NA,NA,NA,NA,NA,NA,NA,sub44
d3-instructions,123,773826,0.0-64.0,TRUE,FALSE,TRUE,FALSE,"""event"",""trial"",""time""
""fullscreenenter"",""5"",""21997""
","
","
","""event"",""trial"",""time""
""fullscreenenter"",""5"",""21997""
","
",NA,NA,NA,NA,NA,NA,NA,NA,NA,NA,NA,NA,NA,NA,NA,NA,NA,NA,NA,NA,NA,NA,sub44
d3-instructions,124,790639,0.0-65.0,TRUE,FALSE,TRUE,FALSE,"""event"",""trial"",""time""
""fullscreenenter"",""5"",""21997""
","
","
","""event"",""trial"",""time""
""fullscreenenter"",""5"",""21997""
","
",NA,NA,NA,NA,NA,NA,NA,NA,NA,NA,NA,NA,NA,NA,NA,NA,NA,NA,NA,NA,NA,NA,sub44
d3-instructions,125,815927,0.0-66.0,TRUE,FALSE,TRUE,FALSE,"""event"",""trial"",""time""
""fullscreenenter"",""5"",""21997""
","
","
","""event"",""trial"",""time""
""fullscreenenter"",""5"",""21997""
","
",NA,NA,NA,NA,NA,NA,NA,NA,NA,NA,NA,NA,NA,NA,NA,NA,NA,NA,NA,NA,NA,NA,sub44
d3-instructions,126,852786,0.0-67.0,TRUE,FALSE,TRUE,FALSE,"""event"",""trial"",""time""
""fullscreenenter"",""5"",""21997""
","
","
","""event"",""trial"",""time""
""fullscreenenter"",""5"",""21997""
","
",NA,NA,NA,NA,NA,NA,NA,NA,NA,NA,NA,NA,NA,NA,NA,NA,NA,NA,NA,NA,NA,NA,sub44
d3-instructions,127,862851,0.0-68.0,TRUE,FALSE,TRUE,FALSE,"""event"",""trial"",""time""
""fullscreenenter"",""5"",""21997""
","
","
","""event"",""trial"",""time""
""fullscreenenter"",""5"",""21997""
","
",NA,NA,NA,NA,NA,NA,NA,NA,NA,NA,NA,NA,NA,NA,NA,NA,NA,NA,NA,NA,NA,NA,sub44
instructions-quiz,128,874828,0.0-69.0,TRUE,FALSE,TRUE,FALSE,"""event"",""trial"",""time""
""fullscreenenter"",""5"",""21997""
","
","
","""event"",""trial"",""time""
""fullscreenenter"",""5"",""21997""
","
",11968.990000023041,audio/quiz/Q1_Prompt.wav,NA,0,NA,NA,NA,NA,NA,NA,NA,NA,NA,NA,NA,NA,NA,NA,NA,NA,NA,NA,sub44
audio-keyboard-response,129,885105,0.0-70.0,TRUE,FALSE,TRUE,FALSE,"""event"",""trial"",""time""
""fullscreenenter"",""5"",""21997""
","
","
","""event"",""trial"",""time""
""fullscreenenter"",""5"",""21997""
","
",null,audio/quiz/Q1_Incorrect.wav,null,NA,NA,NA,NA,NA,NA,NA,NA,NA,NA,NA,NA,NA,NA,NA,NA,NA,NA,NA,sub44
instructions-quiz,130,894369,0.0-71.0,TRUE,FALSE,TRUE,FALSE,"""event"",""trial"",""time""
""fullscreenenter"",""5"",""21997""
","
","
","""event"",""trial"",""time""
""fullscreenenter"",""5"",""21997""
","
",9256.205000041518,audio/quiz/Q2_Prompt.wav,NA,0,NA,NA,NA,NA,NA,NA,NA,NA,NA,NA,NA,NA,NA,NA,NA,NA,NA,NA,sub44
audio-keyboard-response,131,907247,0.0-72.0,TRUE,FALSE,TRUE,FALSE,"""event"",""trial"",""time""
""fullscreenenter"",""5"",""21997""
","
","
","""event"",""trial"",""time""
""fullscreenenter"",""5"",""21997""
","
",null,audio/quiz/Q2_Correct.wav,null,NA,NA,NA,NA,NA,NA,NA,NA,NA,NA,NA,NA,NA,NA,NA,NA,NA,NA,NA,sub44
instructions-quiz,132,912894,0.0-73.0,TRUE,FALSE,TRUE,FALSE,"""event"",""trial"",""time""
""fullscreenenter"",""5"",""21997""
","
","
","""event"",""trial"",""time""
""fullscreenenter"",""5"",""21997""
","
",5639.844999997877,audio/quiz/Q3_Prompt.wav,NA,1,NA,NA,NA,NA,NA,NA,NA,NA,NA,NA,NA,NA,NA,NA,NA,NA,NA,NA,sub44
audio-keyboard-response,133,918693,0.0-74.0,TRUE,FALSE,TRUE,FALSE,"""event"",""trial"",""time""
""fullscreenenter"",""5"",""21997""
","
","
","""event"",""trial"",""time""
""fullscreenenter"",""5"",""21997""
","
",null,audio/quiz/Q3_Correct.wav,null,NA,NA,NA,NA,NA,NA,NA,NA,NA,NA,NA,NA,NA,NA,NA,NA,NA,NA,NA,sub44
d3-instructions,134,932015,0.0-75.0,TRUE,FALSE,TRUE,FALSE,"""event"",""trial"",""time""
""fullscreenenter"",""5"",""21997""
","
","
","""event"",""trial"",""time""
""fullscreenenter"",""5"",""21997""
","
",NA,NA,NA,NA,NA,NA,NA,NA,NA,NA,NA,NA,NA,NA,NA,NA,NA,NA,NA,NA,NA,NA,sub44
d3-animate-choice,135,935559,0.0-76.0-0.0,TRUE,FALSE,TRUE,FALSE,"""event"",""trial"",""time""
""fullscreenenter"",""5"",""21997""
","
","
","""event"",""trial"",""time""
""fullscreenenter"",""5"",""21997""
","
",1526.624999998603,NA,49,NA,NA,3000,1,NA,NA,images/earth.jpg,images/rocket2,images/rocket1,null,images/rocket1,NA,1,real,null,1,NA,NA,NA,sub44
d3-animate-choice,136,938161,0.0-76.0-1.0,TRUE,FALSE,TRUE,FALSE,"""event"",""trial"",""time""
""fullscreenenter"",""5"",""21997""
","
","
","""event"",""trial"",""time""
""fullscreenenter"",""5"",""21997""
","
",587.9500000155531,NA,48,NA,NA,3000,1,NA,NA,images/purpleplanet.jpg,images/alien4,images/alien3,images/rocket1,images/alien4,images/t.png,2,real,true,2,common,1,2020-06-11T20:08:23Z,sub44
two-step-fixation,137,939165,0.0-76.0-2.0,TRUE,FALSE,TRUE,FALSE,"""event"",""trial"",""time""
""fullscreenenter"",""5"",""21997""
","
","
","""event"",""trial"",""time""
""fullscreenenter"",""5"",""21997""
","
",NA,images/earth.jpg,NA,NA,NA,NA,NA,NA,NA,NA,NA,NA,NA,NA,NA,fixation,NA,NA,NA,NA,NA,NA,sub44
d3-animate-choice,138,941510,0.0-76.0-0.1,TRUE,FALSE,TRUE,FALSE,"""event"",""trial"",""time""
""fullscreenenter"",""5"",""21997""
","
","
","""event"",""trial"",""time""
""fullscreenenter"",""5"",""21997""
","
",336.1849999637343,NA,49,NA,NA,3000,1,NA,NA,images/earth.jpg,images/rocket2,images/rocket1,null,images/rocket1,NA,1,real,null,1,NA,NA,NA,sub44
d3-animate-choice,139,944134,0.0-76.0-1.1,TRUE,FALSE,TRUE,FALSE,"""event"",""trial"",""time""
""fullscreenenter"",""5"",""21997""
","
","
","""event"",""trial"",""time""
""fullscreenenter"",""5"",""21997""
","
",611.8800000404008,NA,48,NA,NA,3000,1,NA,NA,images/purpleplanet.jpg,images/alien4,images/alien3,images/rocket1,images/alien4,images/t.png,2,real,true,2,common,1,2020-06-11T20:08:29Z,sub44
two-step-fixation,140,945144,0.0-76.0-2.1,TRUE,FALSE,TRUE,FALSE,"""event"",""trial"",""time""
""fullscreenenter"",""5"",""21997""
","
","
","""event"",""trial"",""time""
""fullscreenenter"",""5"",""21997""
","
",NA,images/earth.jpg,NA,NA,NA,NA,NA,NA,NA,NA,NA,NA,NA,NA,NA,fixation,NA,NA,NA,NA,NA,NA,sub44
d3-animate-choice,141,947502,0.0-76.0-0.2,TRUE,FALSE,TRUE,FALSE,"""event"",""trial"",""time""
""fullscreenenter"",""5"",""21997""
","
","
","""event"",""trial"",""time""
""fullscreenenter"",""5"",""21997""
","
",346.0000000195578,NA,48,NA,NA,3000,1,NA,NA,images/earth.jpg,images/rocket2,images/rocket1,null,images/rocket2,NA,1,real,null,2,NA,NA,NA,sub44
d3-animate-choice,142,950056,0.0-76.0-1.2,TRUE,FALSE,TRUE,FALSE,"""event"",""trial"",""time""
""fullscreenenter"",""5"",""21997""
","
","
","""event"",""trial"",""time""
""fullscreenenter"",""5"",""21997""
","
",543.7699999893084,NA,49,NA,NA,3000,1,NA,NA,images/redplanet1.jpg,images/alien2,images/alien1,images/rocket2,images/alien1,images/nothing.png,2,real,true,1,common,0,2020-06-11T20:08:35Z,sub44
two-step-fixation,143,951061,0.0-76.0-2.2,TRUE,FALSE,TRUE,FALSE,"""event"",""trial"",""time""
""fullscreenenter"",""5"",""21997""
","
","
","""event"",""trial"",""time""
""fullscreenenter"",""5"",""21997""
","
",NA,images/earth.jpg,NA,NA,NA,NA,NA,NA,NA,NA,NA,NA,NA,NA,NA,fixation,NA,NA,NA,NA,NA,NA,sub44
d3-animate-choice,144,953515,0.0-76.0-0.3,TRUE,FALSE,TRUE,FALSE,"""event"",""trial"",""time""
""fullscreenenter"",""5"",""21997""
","
","
","""event"",""trial"",""time""
""fullscreenenter"",""5"",""21997""
","
",439.37500001629815,NA,48,NA,NA,3000,1,NA,NA,images/earth.jpg,images/rocket2,images/rocket1,null,images/rocket2,NA,1,real,null,2,NA,NA,NA,sub44
d3-animate-choice,145,955945,0.0-76.0-1.3,TRUE,FALSE,TRUE,FALSE,"""event"",""trial"",""time""
""fullscreenenter"",""5"",""21997""
","
","
","""event"",""trial"",""time""
""fullscreenenter"",""5"",""21997""
","
",416.97999997995794,NA,48,NA,NA,3000,1,NA,NA,images/purpleplanet.jpg,images/alien4,images/alien3,images/rocket2,images/alien4,images/t.png,2,real,false,2,rare,1,2020-06-11T20:08:41Z,sub44
two-step-fixation,146,956953,0.0-76.0-2.3,TRUE,FALSE,TRUE,FALSE,"""event"",""trial"",""time""
""fullscreenenter"",""5"",""21997""
","
","
","""event"",""trial"",""time""
""fullscreenenter"",""5"",""21997""
","
",NA,images/earth.jpg,NA,NA,NA,NA,NA,NA,NA,NA,NA,NA,NA,NA,NA,fixation,NA,NA,NA,NA,NA,NA,sub44
d3-animate-choice,147,959590,0.0-76.0-0.4,TRUE,FALSE,TRUE,FALSE,"""event"",""trial"",""time""
""fullscreenenter"",""5"",""21997""
","
","
","""event"",""trial"",""time""
""fullscreenenter"",""5"",""21997""
","
",620.1399999554269,NA,49,NA,NA,3000,1,NA,NA,images/earth.jpg,images/rocket2,images/rocket1,null,images/rocket1,NA,1,real,null,1,NA,NA,NA,sub44
d3-animate-choice,148,962052,0.0-76.0-1.4,TRUE,FALSE,TRUE,FALSE,"""event"",""trial"",""time""
""fullscreenenter"",""5"",""21997""
","
","
","""event"",""trial"",""time""
""fullscreenenter"",""5"",""21997""
","
",448.86000000406057,NA,49,NA,NA,3000,1,NA,NA,images/purpleplanet.jpg,images/alien4,images/alien3,images/rocket1,images/alien3,images/nothing.png,2,real,true,1,common,0,2020-06-11T20:08:47Z,sub44
two-step-fixation,149,963061,0.0-76.0-2.4,TRUE,FALSE,TRUE,FALSE,"""event"",""trial"",""time""
""fullscreenenter"",""5"",""21997""
","
","
","""event"",""trial"",""time""
""fullscreenenter"",""5"",""21997""
","
",NA,images/earth.jpg,NA,NA,NA,NA,NA,NA,NA,NA,NA,NA,NA,NA,NA,fixation,NA,NA,NA,NA,NA,NA,sub44
d3-animate-choice,150,965646,0.0-76.0-0.5,TRUE,FALSE,TRUE,FALSE,"""event"",""trial"",""time""
""fullscreenenter"",""5"",""21997""
","
","
","""event"",""trial"",""time""
""fullscreenenter"",""5"",""21997""
","
",567.2049999702722,NA,48,NA,NA,3000,1,NA,NA,images/earth.jpg,images/rocket2,images/rocket1,null,images/rocket2,NA,1,real,null,2,NA,NA,NA,sub44
d3-animate-choice,151,968132,0.0-76.0-1.5,TRUE,FALSE,TRUE,FALSE,"""event"",""trial"",""time""
""fullscreenenter"",""5"",""21997""
","
","
","""event"",""trial"",""time""
""fullscreenenter"",""5"",""21997""
","
",473.375000001397,NA,49,NA,NA,3000,1,NA,NA,images/redplanet1.jpg,images/alien2,images/alien1,images/rocket2,images/alien1,images/nothing.png,2,real,true,1,common,0,2020-06-11T20:08:53Z,sub44
two-step-fixation,152,969142,0.0-76.0-2.5,TRUE,FALSE,TRUE,FALSE,"""event"",""trial"",""time""
""fullscreenenter"",""5"",""21997""
","
","
","""event"",""trial"",""time""
""fullscreenenter"",""5"",""21997""
","
",NA,images/earth.jpg,NA,NA,NA,NA,NA,NA,NA,NA,NA,NA,NA,NA,NA,fixation,NA,NA,NA,NA,NA,NA,sub44
d3-animate-choice,153,971823,0.0-76.0-0.6,TRUE,FALSE,TRUE,FALSE,"""event"",""trial"",""time""
""fullscreenenter"",""5"",""21997""
","
","
","""event"",""trial"",""time""
""fullscreenenter"",""5"",""21997""
","
",668.3399999747053,NA,49,NA,NA,3000,1,NA,NA,images/earth.jpg,images/rocket2,images/rocket1,null,images/rocket1,NA,1,real,null,1,NA,NA,NA,sub44
d3-animate-choice,154,974173,0.0-76.0-1.6,TRUE,FALSE,TRUE,FALSE,"""event"",""trial"",""time""
""fullscreenenter"",""5"",""21997""
","
","
","""event"",""trial"",""time""
""fullscreenenter"",""5"",""21997""
","
",339.4500000285916,NA,48,NA,NA,3000,1,NA,NA,images/purpleplanet.jpg,images/alien4,images/alien3,images/rocket1,images/alien4,images/t.png,2,real,true,2,common,1,2020-06-11T20:08:59Z,sub44
two-step-fixation,155,975178,0.0-76.0-2.6,TRUE,FALSE,TRUE,FALSE,"""event"",""trial"",""time""
""fullscreenenter"",""5"",""21997""
","
","
","""event"",""trial"",""time""
""fullscreenenter"",""5"",""21997""
","
",NA,images/earth.jpg,NA,NA,NA,NA,NA,NA,NA,NA,NA,NA,NA,NA,NA,fixation,NA,NA,NA,NA,NA,NA,sub44
d3-animate-choice,156,977774,0.0-76.0-0.7,TRUE,FALSE,TRUE,FALSE,"""event"",""trial"",""time""
""fullscreenenter"",""5"",""21997""
","
","
","""event"",""trial"",""time""
""fullscreenenter"",""5"",""21997""
","
",579.1749999625608,NA,48,NA,NA,3000,1,NA,NA,images/earth.jpg,images/rocket2,images/rocket1,null,images/rocket2,NA,1,real,null,2,NA,NA,NA,sub44
d3-animate-choice,157,980233,0.0-76.0-1.7,TRUE,FALSE,TRUE,FALSE,"""event"",""trial"",""time""
""fullscreenenter"",""5"",""21997""
","
","
","""event"",""trial"",""time""
""fullscreenenter"",""5"",""21997""
","
",446.4450000086799,NA,48,NA,NA,3000,1,NA,NA,images/redplanet1.jpg,images/alien2,images/alien1,images/rocket2,images/alien2,images/t.png,2,real,true,2,common,1,2020-06-11T20:09:05Z,sub44
two-step-fixation,158,981239,0.0-76.0-2.7,TRUE,FALSE,TRUE,FALSE,"""event"",""trial"",""time""
""fullscreenenter"",""5"",""21997""
","
","
","""event"",""trial"",""time""
""fullscreenenter"",""5"",""21997""
","
",NA,images/earth.jpg,NA,NA,NA,NA,NA,NA,NA,NA,NA,NA,NA,NA,NA,fixation,NA,NA,NA,NA,NA,NA,sub44
d3-animate-choice,159,983833,0.0-76.0-0.8,TRUE,FALSE,TRUE,FALSE,"""event"",""trial"",""time""
""fullscreenenter"",""5"",""21997""
","
","
","""event"",""trial"",""time""
""fullscreenenter"",""5"",""21997""
","
",577.3449999978766,NA,48,NA,NA,3000,1,NA,NA,images/earth.jpg,images/rocket2,images/rocket1,null,images/rocket2,NA,1,real,null,2,NA,NA,NA,sub44
d3-animate-choice,160,986479,0.0-76.0-1.8,TRUE,FALSE,TRUE,FALSE,"""event"",""trial"",""time""
""fullscreenenter"",""5"",""21997""
","
","
","""event"",""trial"",""time""
""fullscreenenter"",""5"",""21997""
","
",632.175000035204,NA,48,NA,NA,3000,1,NA,NA,images/redplanet1.jpg,images/alien2,images/alien1,images/rocket2,images/alien2,images/t.png,2,real,true,2,common,1,2020-06-11T20:09:11Z,sub44
two-step-fixation,161,987488,0.0-76.0-2.8,TRUE,FALSE,TRUE,FALSE,"""event"",""trial"",""time""
""fullscreenenter"",""5"",""21997""
","
","
","""event"",""trial"",""time""
""fullscreenenter"",""5"",""21997""
","
",NA,images/earth.jpg,NA,NA,NA,NA,NA,NA,NA,NA,NA,NA,NA,NA,NA,fixation,NA,NA,NA,NA,NA,NA,sub44
d3-animate-choice,162,989897,0.0-76.0-0.9,TRUE,FALSE,TRUE,FALSE,"""event"",""trial"",""time""
""fullscreenenter"",""5"",""21997""
","
","
","""event"",""trial"",""time""
""fullscreenenter"",""5"",""21997""
","
",391.98000001488253,NA,49,NA,NA,3000,1,NA,NA,images/earth.jpg,images/rocket2,images/rocket1,null,images/rocket1,NA,1,real,null,1,NA,NA,NA,sub44
d3-animate-choice,163,992540,0.0-76.0-1.9,TRUE,FALSE,TRUE,FALSE,"""event"",""trial"",""time""
""fullscreenenter"",""5"",""21997""
","
","
","""event"",""trial"",""time""
""fullscreenenter"",""5"",""21997""
","
",626.9249999895692,NA,48,NA,NA,3000,1,NA,NA,images/purpleplanet.jpg,images/alien4,images/alien3,images/rocket1,images/alien4,images/t.png,2,real,true,2,common,1,2020-06-11T20:09:18Z,sub44
two-step-fixation,164,993550,0.0-76.0-2.9,TRUE,FALSE,TRUE,FALSE,"""event"",""trial"",""time""
""fullscreenenter"",""5"",""21997""
","
","
","""event"",""trial"",""time""
""fullscreenenter"",""5"",""21997""
","
",NA,images/earth.jpg,NA,NA,NA,NA,NA,NA,NA,NA,NA,NA,NA,NA,NA,fixation,NA,NA,NA,NA,NA,NA,sub44
d3-animate-choice,165,996032,0.0-76.0-0.10,TRUE,FALSE,TRUE,FALSE,"""event"",""trial"",""time""
""fullscreenenter"",""5"",""21997""
","
","
","""event"",""trial"",""time""
""fullscreenenter"",""5"",""21997""
","
",465.22000001277775,NA,48,NA,NA,3000,1,NA,NA,images/earth.jpg,images/rocket2,images/rocket1,null,images/rocket2,NA,1,real,null,2,NA,NA,NA,sub44
d3-animate-choice,166,998667,0.0-76.0-1.10,TRUE,FALSE,TRUE,FALSE,"""event"",""trial"",""time""
""fullscreenenter"",""5"",""21997""
","
","
","""event"",""trial"",""time""
""fullscreenenter"",""5"",""21997""
","
",618.7800000188872,NA,48,NA,NA,3000,1,NA,NA,images/redplanet1.jpg,images/alien2,images/alien1,images/rocket2,images/alien2,images/t.png,2,real,true,2,common,1,2020-06-11T20:09:24Z,sub44
two-step-fixation,167,999677,0.0-76.0-2.10,TRUE,FALSE,TRUE,FALSE,"""event"",""trial"",""time""
""fullscreenenter"",""5"",""21997""
","
","
","""event"",""trial"",""time""
""fullscreenenter"",""5"",""21997""
","
",NA,images/earth.jpg,NA,NA,NA,NA,NA,NA,NA,NA,NA,NA,NA,NA,NA,fixation,NA,NA,NA,NA,NA,NA,sub44
d3-animate-choice,168,1002822,0.0-76.0-0.11,TRUE,FALSE,TRUE,FALSE,"""event"",""trial"",""time""
""fullscreenenter"",""5"",""21997""
","
","
","""event"",""trial"",""time""
""fullscreenenter"",""5"",""21997""
","
",1127.280000015162,NA,49,NA,NA,3000,1,NA,NA,images/earth.jpg,images/rocket2,images/rocket1,null,images/rocket1,NA,1,real,null,1,NA,NA,NA,sub44
d3-animate-choice,169,1005276,0.0-76.0-1.11,TRUE,FALSE,TRUE,FALSE,"""event"",""trial"",""time""
""fullscreenenter"",""5"",""21997""
","
","
","""event"",""trial"",""time""
""fullscreenenter"",""5"",""21997""
","
",439.4650000031106,NA,48,NA,NA,3000,1,NA,NA,images/purpleplanet.jpg,images/alien4,images/alien3,images/rocket1,images/alien4,images/t.png,2,real,true,2,common,1,2020-06-11T20:09:30Z,sub44
two-step-fixation,170,1006281,0.0-76.0-2.11,TRUE,FALSE,TRUE,FALSE,"""event"",""trial"",""time""
""fullscreenenter"",""5"",""21997""
","
","
","""event"",""trial"",""time""
""fullscreenenter"",""5"",""21997""
","
",NA,images/earth.jpg,NA,NA,NA,NA,NA,NA,NA,NA,NA,NA,NA,NA,NA,fixation,NA,NA,NA,NA,NA,NA,sub44
d3-animate-choice,171,1008877,0.0-76.0-0.12,TRUE,FALSE,TRUE,FALSE,"""event"",""trial"",""time""
""fullscreenenter"",""5"",""21997""
","
","
","""event"",""trial"",""time""
""fullscreenenter"",""5"",""21997""
","
",578.0399999930523,NA,48,NA,NA,3000,1,NA,NA,images/earth.jpg,images/rocket2,images/rocket1,null,images/rocket2,NA,1,real,null,2,NA,NA,NA,sub44
d3-animate-choice,172,1011459,0.0-76.0-1.12,TRUE,FALSE,TRUE,FALSE,"""event"",""trial"",""time""
""fullscreenenter"",""5"",""21997""
","
","
","""event"",""trial"",""time""
""fullscreenenter"",""5"",""21997""
","
",565.4750000103377,NA,48,NA,NA,3000,1,NA,NA,images/purpleplanet.jpg,images/alien4,images/alien3,images/rocket2,images/alien4,images/t.png,2,real,false,2,rare,1,2020-06-11T20:09:36Z,sub44
two-step-fixation,173,1012469,0.0-76.0-2.12,TRUE,FALSE,TRUE,FALSE,"""event"",""trial"",""time""
""fullscreenenter"",""5"",""21997""
","
","
","""event"",""trial"",""time""
""fullscreenenter"",""5"",""21997""
","
",NA,images/earth.jpg,NA,NA,NA,NA,NA,NA,NA,NA,NA,NA,NA,NA,NA,fixation,NA,NA,NA,NA,NA,NA,sub44
d3-animate-choice,174,1015164,0.0-76.0-0.13,TRUE,FALSE,TRUE,FALSE,"""event"",""trial"",""time""
""fullscreenenter"",""5"",""21997""
","
","
","""event"",""trial"",""time""
""fullscreenenter"",""5"",""21997""
","
",683.5149999824353,NA,49,NA,NA,3000,1,NA,NA,images/earth.jpg,images/rocket2,images/rocket1,null,images/rocket1,NA,1,real,null,1,NA,NA,NA,sub44
d3-animate-choice,175,1018003,0.0-76.0-1.13,TRUE,FALSE,TRUE,FALSE,"""event"",""trial"",""time""
""fullscreenenter"",""5"",""21997""
","
","
","""event"",""trial"",""time""
""fullscreenenter"",""5"",""21997""
","
",823.5749999876134,NA,48,NA,NA,3000,1,NA,NA,images/redplanet1.jpg,images/alien2,images/alien1,images/rocket1,images/alien2,images/nothing.png,2,real,false,2,rare,0,2020-06-11T20:09:43Z,sub44
two-step-fixation,176,1019011,0.0-76.0-2.13,TRUE,FALSE,TRUE,FALSE,"""event"",""trial"",""time""
""fullscreenenter"",""5"",""21997""
","
","
","""event"",""trial"",""time""
""fullscreenenter"",""5"",""21997""
","
",NA,images/earth.jpg,NA,NA,NA,NA,NA,NA,NA,NA,NA,NA,NA,NA,NA,fixation,NA,NA,NA,NA,NA,NA,sub44
d3-animate-choice,177,1021646,0.0-76.0-0.14,TRUE,FALSE,TRUE,FALSE,"""event"",""trial"",""time""
""fullscreenenter"",""5"",""21997""
","
","
","""event"",""trial"",""time""
""fullscreenenter"",""5"",""21997""
","
",618.9499999745749,NA,48,NA,NA,3000,1,NA,NA,images/earth.jpg,images/rocket2,images/rocket1,null,images/rocket2,NA,1,real,null,2,NA,NA,NA,sub44
d3-animate-choice,178,1024316,0.0-76.0-1.14,TRUE,FALSE,TRUE,FALSE,"""event"",""trial"",""time""
""fullscreenenter"",""5"",""21997""
","
","
","""event"",""trial"",""time""
""fullscreenenter"",""5"",""21997""
","
",656.2750000157394,NA,48,NA,NA,3000,1,NA,NA,images/purpleplanet.jpg,images/alien4,images/alien3,images/rocket2,images/alien4,images/nothing.png,2,real,false,2,rare,0,2020-06-11T20:09:49Z,sub44
two-step-fixation,179,1025323,0.0-76.0-2.14,TRUE,FALSE,TRUE,FALSE,"""event"",""trial"",""time""
""fullscreenenter"",""5"",""21997""
","
","
","""event"",""trial"",""time""
""fullscreenenter"",""5"",""21997""
","
",NA,images/earth.jpg,NA,NA,NA,NA,NA,NA,NA,NA,NA,NA,NA,NA,NA,fixation,NA,NA,NA,NA,NA,NA,sub44
d3-animate-choice,180,1027801,0.0-76.0-0.15,TRUE,FALSE,TRUE,FALSE,"""event"",""trial"",""time""
""fullscreenenter"",""5"",""21997""
","
","
","""event"",""trial"",""time""
""fullscreenenter"",""5"",""21997""
","
",465.1000000303611,NA,49,NA,NA,3000,1,NA,NA,images/earth.jpg,images/rocket2,images/rocket1,null,images/rocket1,NA,1,real,null,1,NA,NA,NA,sub44
d3-animate-choice,181,1030276,0.0-76.0-1.15,TRUE,FALSE,TRUE,FALSE,"""event"",""trial"",""time""
""fullscreenenter"",""5"",""21997""
","
","
","""event"",""trial"",""time""
""fullscreenenter"",""5"",""21997""
","
",458.9799999957904,NA,49,NA,NA,3000,1,NA,NA,images/purpleplanet.jpg,images/alien4,images/alien3,images/rocket1,images/alien3,images/nothing.png,2,real,true,1,common,0,2020-06-11T20:09:55Z,sub44
two-step-fixation,182,1031283,0.0-76.0-2.15,TRUE,FALSE,TRUE,FALSE,"""event"",""trial"",""time""
""fullscreenenter"",""5"",""21997""
","
","
","""event"",""trial"",""time""
""fullscreenenter"",""5"",""21997""
","
",NA,images/earth.jpg,NA,NA,NA,NA,NA,NA,NA,NA,NA,NA,NA,NA,NA,fixation,NA,NA,NA,NA,NA,NA,sub44
d3-animate-choice,183,1033816,0.0-76.0-0.16,TRUE,FALSE,TRUE,FALSE,"""event"",""trial"",""time""
""fullscreenenter"",""5"",""21997""
","
","
","""event"",""trial"",""time""
""fullscreenenter"",""5"",""21997""
","
",515.9400000120513,NA,48,NA,NA,3000,1,NA,NA,images/earth.jpg,images/rocket2,images/rocket1,null,images/rocket2,NA,1,real,null,2,NA,NA,NA,sub44
d3-animate-choice,184,1036679,0.0-76.0-1.16,TRUE,FALSE,TRUE,FALSE,"""event"",""trial"",""time""
""fullscreenenter"",""5"",""21997""
","
","
","""event"",""trial"",""time""
""fullscreenenter"",""5"",""21997""
","
",846.5500000165775,NA,48,NA,NA,3000,1,NA,NA,images/redplanet1.jpg,images/alien2,images/alien1,images/rocket2,images/alien2,images/t.png,2,real,true,2,common,1,2020-06-11T20:10:02Z,sub44
two-step-fixation,185,1037689,0.0-76.0-2.16,TRUE,FALSE,TRUE,FALSE,"""event"",""trial"",""time""
""fullscreenenter"",""5"",""21997""
","
","
","""event"",""trial"",""time""
""fullscreenenter"",""5"",""21997""
","
",NA,images/earth.jpg,NA,NA,NA,NA,NA,NA,NA,NA,NA,NA,NA,NA,NA,fixation,NA,NA,NA,NA,NA,NA,sub44
d3-animate-choice,186,1040331,0.0-76.0-0.17,TRUE,FALSE,TRUE,FALSE,"""event"",""trial"",""time""
""fullscreenenter"",""5"",""21997""
","
","
","""event"",""trial"",""time""
""fullscreenenter"",""5"",""21997""
","
",628.9700000197627,NA,49,NA,NA,3000,1,NA,NA,images/earth.jpg,images/rocket2,images/rocket1,null,images/rocket1,NA,1,real,null,1,NA,NA,NA,sub44
d3-animate-choice,187,1043777,0.0-76.0-1.17,TRUE,FALSE,TRUE,FALSE,"""event"",""trial"",""time""
""fullscreenenter"",""5"",""21997""
","
","
","""event"",""trial"",""time""
""fullscreenenter"",""5"",""21997""
","
",1429.8999999882653,NA,48,NA,NA,3000,1,NA,NA,images/purpleplanet.jpg,images/alien4,images/alien3,images/rocket1,images/alien4,images/t.png,2,real,true,2,common,1,2020-06-11T20:10:09Z,sub44
two-step-fixation,188,1044786,0.0-76.0-2.17,TRUE,FALSE,TRUE,FALSE,"""event"",""trial"",""time""
""fullscreenenter"",""5"",""21997""
","
","
","""event"",""trial"",""time""
""fullscreenenter"",""5"",""21997""
","
",NA,images/earth.jpg,NA,NA,NA,NA,NA,NA,NA,NA,NA,NA,NA,NA,NA,fixation,NA,NA,NA,NA,NA,NA,sub44
d3-animate-choice,189,1047223,0.0-76.0-0.18,TRUE,FALSE,TRUE,FALSE,"""event"",""trial"",""time""
""fullscreenenter"",""5"",""21997""
","
","
","""event"",""trial"",""time""
""fullscreenenter"",""5"",""21997""
","
",420.1699999975972,NA,48,NA,NA,3000,1,NA,NA,images/earth.jpg,images/rocket2,images/rocket1,null,images/rocket2,NA,1,real,null,2,NA,NA,NA,sub44
d3-animate-choice,190,1050199,0.0-76.0-1.18,TRUE,FALSE,TRUE,FALSE,"""event"",""trial"",""time""
""fullscreenenter"",""5"",""21997""
","
","
","""event"",""trial"",""time""
""fullscreenenter"",""5"",""21997""
","
",962.8800000064075,NA,48,NA,NA,3000,1,NA,NA,images/redplanet1.jpg,images/alien2,images/alien1,images/rocket2,images/alien2,images/t.png,2,real,true,2,common,1,2020-06-11T20:10:15Z,sub44
two-step-fixation,191,1051206,0.0-76.0-2.18,TRUE,FALSE,TRUE,FALSE,"""event"",""trial"",""time""
""fullscreenenter"",""5"",""21997""
","
","
","""event"",""trial"",""time""
""fullscreenenter"",""5"",""21997""
","
",NA,images/earth.jpg,NA,NA,NA,NA,NA,NA,NA,NA,NA,NA,NA,NA,NA,fixation,NA,NA,NA,NA,NA,NA,sub44
d3-animate-choice,192,1053600,0.0-76.0-0.19,TRUE,FALSE,TRUE,FALSE,"""event"",""trial"",""time""
""fullscreenenter"",""5"",""21997""
","
","
","""event"",""trial"",""time""
""fullscreenenter"",""5"",""21997""
","
",379.2200000025332,NA,49,NA,NA,3000,1,NA,NA,images/earth.jpg,images/rocket2,images/rocket1,null,images/rocket1,NA,1,real,null,1,NA,NA,NA,sub44
d3-animate-choice,193,1056608,0.0-76.0-1.19,TRUE,FALSE,TRUE,FALSE,"""event"",""trial"",""time""
""fullscreenenter"",""5"",""21997""
","
","
","""event"",""trial"",""time""
""fullscreenenter"",""5"",""21997""
","
",993.1399999768473,NA,48,NA,NA,3000,1,NA,NA,images/purpleplanet.jpg,images/alien4,images/alien3,images/rocket1,images/alien4,images/nothing.png,2,real,true,2,common,0,2020-06-11T20:10:22Z,sub44
two-step-fixation,194,1057618,0.0-76.0-2.19,TRUE,FALSE,TRUE,FALSE,"""event"",""trial"",""time""
""fullscreenenter"",""5"",""21997""
","
","
","""event"",""trial"",""time""
""fullscreenenter"",""5"",""21997""
","
",NA,images/earth.jpg,NA,NA,NA,NA,NA,NA,NA,NA,NA,NA,NA,NA,NA,fixation,NA,NA,NA,NA,NA,NA,sub44
d3-animate-choice,195,1060149,0.0-76.0-0.20,TRUE,FALSE,TRUE,FALSE,"""event"",""trial"",""time""
""fullscreenenter"",""5"",""21997""
","
","
","""event"",""trial"",""time""
""fullscreenenter"",""5"",""21997""
","
",514.5100000081584,NA,48,NA,NA,3000,1,NA,NA,images/earth.jpg,images/rocket2,images/rocket1,null,images/rocket2,NA,1,real,null,2,NA,NA,NA,sub44
d3-animate-choice,196,1062580,0.0-76.0-1.20,TRUE,FALSE,TRUE,FALSE,"""event"",""trial"",""time""
""fullscreenenter"",""5"",""21997""
","
","
","""event"",""trial"",""time""
""fullscreenenter"",""5"",""21997""
","
",416.23000003164634,NA,48,NA,NA,3000,1,NA,NA,images/purpleplanet.jpg,images/alien4,images/alien3,images/rocket2,images/alien4,images/nothing.png,2,real,false,2,rare,0,2020-06-11T20:10:28Z,sub44
two-step-fixation,197,1063590,0.0-76.0-2.20,TRUE,FALSE,TRUE,FALSE,"""event"",""trial"",""time""
""fullscreenenter"",""5"",""21997""
","
","
","""event"",""trial"",""time""
""fullscreenenter"",""5"",""21997""
","
",NA,images/earth.jpg,NA,NA,NA,NA,NA,NA,NA,NA,NA,NA,NA,NA,NA,fixation,NA,NA,NA,NA,NA,NA,sub44
d3-animate-choice,198,1066009,0.0-76.0-0.21,TRUE,FALSE,TRUE,FALSE,"""event"",""trial"",""time""
""fullscreenenter"",""5"",""21997""
","
","
","""event"",""trial"",""time""
""fullscreenenter"",""5"",""21997""
","
",405.0549999810755,NA,48,NA,NA,3000,1,NA,NA,images/earth.jpg,images/rocket2,images/rocket1,null,images/rocket2,NA,1,real,null,2,NA,NA,NA,sub44
d3-animate-choice,199,1068873,0.0-76.0-1.21,TRUE,FALSE,TRUE,FALSE,"""event"",""trial"",""time""
""fullscreenenter"",""5"",""21997""
","
","
","""event"",""trial"",""time""
""fullscreenenter"",""5"",""21997""
","
",849.7449999558739,NA,48,NA,NA,3000,1,NA,NA,images/redplanet1.jpg,images/alien2,images/alien1,images/rocket2,images/alien2,images/t.png,2,real,true,2,common,1,2020-06-11T20:10:34Z,sub44
two-step-fixation,200,1069880,0.0-76.0-2.21,TRUE,FALSE,TRUE,FALSE,"""event"",""trial"",""time""
""fullscreenenter"",""5"",""21997""
","
","
","""event"",""trial"",""time""
""fullscreenenter"",""5"",""21997""
","
",NA,images/earth.jpg,NA,NA,NA,NA,NA,NA,NA,NA,NA,NA,NA,NA,NA,fixation,NA,NA,NA,NA,NA,NA,sub44
d3-animate-choice,201,1073046,0.0-76.0-0.22,TRUE,FALSE,TRUE,FALSE,"""event"",""trial"",""time""
""fullscreenenter"",""5"",""21997""
","
","
","""event"",""trial"",""time""
""fullscreenenter"",""5"",""21997""
","
",1149.8450000071898,NA,49,NA,NA,3000,1,NA,NA,images/earth.jpg,images/rocket2,images/rocket1,null,images/rocket1,NA,1,real,null,1,NA,NA,NA,sub44
d3-animate-choice,202,1076186,0.0-76.0-1.22,TRUE,FALSE,TRUE,FALSE,"""event"",""trial"",""time""
""fullscreenenter"",""5"",""21997""
","
","
","""event"",""trial"",""time""
""fullscreenenter"",""5"",""21997""
","
",1122.9650000459515,NA,48,NA,NA,3000,1,NA,NA,images/redplanet1.jpg,images/alien2,images/alien1,images/rocket1,images/alien2,images/t.png,2,real,false,2,rare,1,2020-06-11T20:10:41Z,sub44
two-step-fixation,203,1077195,0.0-76.0-2.22,TRUE,FALSE,TRUE,FALSE,"""event"",""trial"",""time""
""fullscreenenter"",""5"",""21997""
","
","
","""event"",""trial"",""time""
""fullscreenenter"",""5"",""21997""
","
",NA,images/earth.jpg,NA,NA,NA,NA,NA,NA,NA,NA,NA,NA,NA,NA,NA,fixation,NA,NA,NA,NA,NA,NA,sub44
d3-animate-choice,204,1079970,0.0-76.0-0.23,TRUE,FALSE,TRUE,FALSE,"""event"",""trial"",""time""
""fullscreenenter"",""5"",""21997""
","
","
","""event"",""trial"",""time""
""fullscreenenter"",""5"",""21997""
","
",756.7900000140071,NA,49,NA,NA,3000,1,NA,NA,images/earth.jpg,images/rocket2,images/rocket1,null,images/rocket1,NA,1,real,null,1,NA,NA,NA,sub44
d3-animate-choice,205,1082986,0.0-76.0-1.23,TRUE,FALSE,TRUE,FALSE,"""event"",""trial"",""time""
""fullscreenenter"",""5"",""21997""
","
","
","""event"",""trial"",""time""
""fullscreenenter"",""5"",""21997""
","
",1003.7550000124611,NA,48,NA,NA,3000,1,NA,NA,images/purpleplanet.jpg,images/alien4,images/alien3,images/rocket1,images/alien4,images/t.png,2,real,true,2,common,1,2020-06-11T20:10:48Z,sub44
two-step-fixation,206,1083992,0.0-76.0-2.23,TRUE,FALSE,TRUE,FALSE,"""event"",""trial"",""time""
""fullscreenenter"",""5"",""21997""
","
","
","""event"",""trial"",""time""
""fullscreenenter"",""5"",""21997""
","
",NA,images/earth.jpg,NA,NA,NA,NA,NA,NA,NA,NA,NA,NA,NA,NA,NA,fixation,NA,NA,NA,NA,NA,NA,sub44
d3-animate-choice,207,1086763,0.0-76.0-0.24,TRUE,FALSE,TRUE,FALSE,"""event"",""trial"",""time""
""fullscreenenter"",""5"",""21997""
","
","
","""event"",""trial"",""time""
""fullscreenenter"",""5"",""21997""
","
",756.7450000206009,NA,49,NA,NA,3000,1,NA,NA,images/earth.jpg,images/rocket2,images/rocket1,null,images/rocket1,NA,1,real,null,1,NA,NA,NA,sub44
d3-animate-choice,208,1089829,0.0-76.0-1.24,TRUE,FALSE,TRUE,FALSE,"""event"",""trial"",""time""
""fullscreenenter"",""5"",""21997""
","
","
","""event"",""trial"",""time""
""fullscreenenter"",""5"",""21997""
","
",1053.7999999942258,NA,48,NA,NA,3000,1,NA,NA,images/purpleplanet.jpg,images/alien4,images/alien3,images/rocket1,images/alien4,images/t.png,2,real,true,2,common,1,2020-06-11T20:10:55Z,sub44
two-step-fixation,209,1090839,0.0-76.0-2.24,TRUE,FALSE,TRUE,FALSE,"""event"",""trial"",""time""
""fullscreenenter"",""5"",""21997""
","
","
","""event"",""trial"",""time""
""fullscreenenter"",""5"",""21997""
","
",NA,images/earth.jpg,NA,NA,NA,NA,NA,NA,NA,NA,NA,NA,NA,NA,NA,fixation,NA,NA,NA,NA,NA,NA,sub44
d3-animate-choice,210,1093300,0.0-76.0-0.25,TRUE,FALSE,TRUE,FALSE,"""event"",""trial"",""time""
""fullscreenenter"",""5"",""21997""
","
","
","""event"",""trial"",""time""
""fullscreenenter"",""5"",""21997""
","
",443.5749999829568,NA,48,NA,NA,3000,1,NA,NA,images/earth.jpg,images/rocket2,images/rocket1,null,images/rocket2,NA,1,real,null,2,NA,NA,NA,sub44
d3-animate-choice,211,1095977,0.0-76.0-1.25,TRUE,FALSE,TRUE,FALSE,"""event"",""trial"",""time""
""fullscreenenter"",""5"",""21997""
","
","
","""event"",""trial"",""time""
""fullscreenenter"",""5"",""21997""
","
",660.5400000116788,NA,48,NA,NA,3000,1,NA,NA,images/purpleplanet.jpg,images/alien4,images/alien3,images/rocket2,images/alien4,images/nothing.png,2,real,false,2,rare,0,2020-06-11T20:11:01Z,sub44
two-step-fixation,212,1096985,0.0-76.0-2.25,TRUE,FALSE,TRUE,FALSE,"""event"",""trial"",""time""
""fullscreenenter"",""5"",""21997""
","
","
","""event"",""trial"",""time""
""fullscreenenter"",""5"",""21997""
","
",NA,images/earth.jpg,NA,NA,NA,NA,NA,NA,NA,NA,NA,NA,NA,NA,NA,fixation,NA,NA,NA,NA,NA,NA,sub44
d3-animate-choice,213,1100753,0.0-76.0-0.26,TRUE,FALSE,TRUE,FALSE,"""event"",""trial"",""time""
""fullscreenenter"",""5"",""21997""
","
","
","""event"",""trial"",""time""
""fullscreenenter"",""5"",""21997""
","
",1752.0449999719858,NA,49,NA,NA,3000,1,NA,NA,images/earth.jpg,images/rocket2,images/rocket1,null,images/rocket1,NA,1,real,null,1,NA,NA,NA,sub44
d3-animate-choice,214,1103805,0.0-76.0-1.26,TRUE,FALSE,TRUE,FALSE,"""event"",""trial"",""time""
""fullscreenenter"",""5"",""21997""
","
","
","""event"",""trial"",""time""
""fullscreenenter"",""5"",""21997""
","
",1031.970000010915,NA,48,NA,NA,3000,1,NA,NA,images/redplanet1.jpg,images/alien2,images/alien1,images/rocket1,images/alien2,images/nothing.png,2,real,false,2,rare,0,2020-06-11T20:11:09Z,sub44
two-step-fixation,215,1104815,0.0-76.0-2.26,TRUE,FALSE,TRUE,FALSE,"""event"",""trial"",""time""
""fullscreenenter"",""5"",""21997""
","
","
","""event"",""trial"",""time""
""fullscreenenter"",""5"",""21997""
","
",NA,images/earth.jpg,NA,NA,NA,NA,NA,NA,NA,NA,NA,NA,NA,NA,NA,fixation,NA,NA,NA,NA,NA,NA,sub44
d3-animate-choice,216,1107506,0.0-76.0-0.27,TRUE,FALSE,TRUE,FALSE,"""event"",""trial"",""time""
""fullscreenenter"",""5"",""21997""
","
","
","""event"",""trial"",""time""
""fullscreenenter"",""5"",""21997""
","
",673.1099999742582,NA,48,NA,NA,3000,1,NA,NA,images/earth.jpg,images/rocket2,images/rocket1,null,images/rocket2,NA,1,real,null,2,NA,NA,NA,sub44
d3-animate-choice,217,1110112,0.0-76.0-1.27,TRUE,FALSE,TRUE,FALSE,"""event"",""trial"",""time""
""fullscreenenter"",""5"",""21997""
","
","
","""event"",""trial"",""time""
""fullscreenenter"",""5"",""21997""
","
",591.9100000173785,NA,48,NA,NA,3000,1,941.640000033658,188,images/purpleplanet.jpg,images/alien4,images/alien3,images/rocket2,images/alien4,images/t.png,2,real,false,2,rare,1,2020-06-11T20:11:15Z,sub44
two-step-fixation,218,1111119,0.0-76.0-2.27,TRUE,FALSE,TRUE,FALSE,"""event"",""trial"",""time""
""fullscreenenter"",""5"",""21997""
","
","
","""event"",""trial"",""time""
""fullscreenenter"",""5"",""21997""
","
",NA,images/earth.jpg,NA,NA,NA,NA,NA,NA,NA,NA,NA,NA,NA,NA,NA,fixation,NA,NA,NA,NA,NA,NA,sub44
d3-animate-choice,219,1113560,0.0-76.0-0.28,TRUE,FALSE,TRUE,FALSE,"""event"",""trial"",""time""
""fullscreenenter"",""5"",""21997""
","
","
","""event"",""trial"",""time""
""fullscreenenter"",""5"",""21997""
","
",426.9649999914691,NA,48,NA,NA,3000,1,NA,NA,images/earth.jpg,images/rocket2,images/rocket1,null,images/rocket2,NA,1,real,null,2,NA,NA,NA,sub44
d3-animate-choice,220,1116537,0.0-76.0-1.28,TRUE,FALSE,TRUE,FALSE,"""event"",""trial"",""time""
""fullscreenenter"",""5"",""21997""
","
","
","""event"",""trial"",""time""
""fullscreenenter"",""5"",""21997""
","
",960.6149999890476,NA,48,NA,NA,3000,1,NA,NA,images/redplanet1.jpg,images/alien2,images/alien1,images/rocket2,images/alien2,images/t.png,2,real,true,2,common,1,2020-06-11T20:11:22Z,sub44
two-step-fixation,221,1117547,0.0-76.0-2.28,TRUE,FALSE,TRUE,FALSE,"""event"",""trial"",""time""
""fullscreenenter"",""5"",""21997""
","
","
","""event"",""trial"",""time""
""fullscreenenter"",""5"",""21997""
","
",NA,images/earth.jpg,NA,NA,NA,NA,NA,NA,NA,NA,NA,NA,NA,NA,NA,fixation,NA,NA,NA,NA,NA,NA,sub44
d3-animate-choice,222,1120095,0.0-76.0-0.29,TRUE,FALSE,TRUE,FALSE,"""event"",""trial"",""time""
""fullscreenenter"",""5"",""21997""
","
","
","""event"",""trial"",""time""
""fullscreenenter"",""5"",""21997""
","
",531.9000000017695,NA,49,NA,NA,3000,1,NA,NA,images/earth.jpg,images/rocket2,images/rocket1,null,images/rocket1,NA,1,real,null,1,NA,NA,NA,sub44
d3-animate-choice,223,1123196,0.0-76.0-1.29,TRUE,FALSE,TRUE,FALSE,"""event"",""trial"",""time""
""fullscreenenter"",""5"",""21997""
","
","
","""event"",""trial"",""time""
""fullscreenenter"",""5"",""21997""
","
",1088.2349999737926,NA,48,NA,NA,3000,1,NA,NA,images/purpleplanet.jpg,images/alien4,images/alien3,images/rocket1,images/alien4,images/t.png,2,real,true,2,common,1,2020-06-11T20:11:28Z,sub44
two-step-fixation,224,1124202,0.0-76.0-2.29,TRUE,FALSE,TRUE,FALSE,"""event"",""trial"",""time""
""fullscreenenter"",""5"",""21997""
","
","
","""event"",""trial"",""time""
""fullscreenenter"",""5"",""21997""
","
",NA,images/earth.jpg,NA,NA,NA,NA,NA,NA,NA,NA,NA,NA,NA,NA,NA,fixation,NA,NA,NA,NA,NA,NA,sub44
d3-animate-choice,225,1127438,0.0-76.0-0.30,TRUE,FALSE,TRUE,FALSE,"""event"",""trial"",""time""
""fullscreenenter"",""5"",""21997""
","
","
","""event"",""trial"",""time""
""fullscreenenter"",""5"",""21997""
","
",1220.404999970924,NA,48,NA,NA,3000,1,NA,NA,images/earth.jpg,images/rocket2,images/rocket1,null,images/rocket2,NA,1,real,null,2,NA,NA,NA,sub44
d3-animate-choice,226,1130165,0.0-76.0-1.30,TRUE,FALSE,TRUE,FALSE,"""event"",""trial"",""time""
""fullscreenenter"",""5"",""21997""
","
","
","""event"",""trial"",""time""
""fullscreenenter"",""5"",""21997""
","
",716.2099999841303,NA,48,NA,NA,3000,1,NA,NA,images/redplanet1.jpg,images/alien2,images/alien1,images/rocket2,images/alien2,images/nothing.png,2,real,true,2,common,0,2020-06-11T20:11:35Z,sub44
two-step-fixation,227,1131169,0.0-76.0-2.30,TRUE,FALSE,TRUE,FALSE,"""event"",""trial"",""time""
""fullscreenenter"",""5"",""21997""
","
","
","""event"",""trial"",""time""
""fullscreenenter"",""5"",""21997""
","
",NA,images/earth.jpg,NA,NA,NA,NA,NA,NA,NA,NA,NA,NA,NA,NA,NA,fixation,NA,NA,NA,NA,NA,NA,sub44
d3-animate-choice,228,1134082,0.0-76.0-0.31,TRUE,FALSE,TRUE,FALSE,"""event"",""trial"",""time""
""fullscreenenter"",""5"",""21997""
","
","
","""event"",""trial"",""time""
""fullscreenenter"",""5"",""21997""
","
",903.2550000119954,NA,49,NA,NA,3000,1,NA,NA,images/earth.jpg,images/rocket2,images/rocket1,null,images/rocket1,NA,1,real,null,1,NA,NA,NA,sub44
d3-animate-choice,229,1136715,0.0-76.0-1.31,TRUE,FALSE,TRUE,FALSE,"""event"",""trial"",""time""
""fullscreenenter"",""5"",""21997""
","
","
","""event"",""trial"",""time""
""fullscreenenter"",""5"",""21997""
","
",616.9349999981932,NA,49,NA,NA,3000,1,NA,NA,images/purpleplanet.jpg,images/alien4,images/alien3,images/rocket1,images/alien3,images/nothing.png,2,real,true,1,common,0,2020-06-11T20:11:42Z,sub44
two-step-fixation,230,1137725,0.0-76.0-2.31,TRUE,FALSE,TRUE,FALSE,"""event"",""trial"",""time""
""fullscreenenter"",""5"",""21997""
","
","
","""event"",""trial"",""time""
""fullscreenenter"",""5"",""21997""
","
",NA,images/earth.jpg,NA,NA,NA,NA,NA,NA,NA,NA,NA,NA,NA,NA,NA,fixation,NA,NA,NA,NA,NA,NA,sub44
d3-animate-choice,231,1140147,0.0-76.0-0.32,TRUE,FALSE,TRUE,FALSE,"""event"",""trial"",""time""
""fullscreenenter"",""5"",""21997""
","
","
","""event"",""trial"",""time""
""fullscreenenter"",""5"",""21997""
","
",403.98499998264015,NA,48,NA,NA,3000,1,NA,NA,images/earth.jpg,images/rocket2,images/rocket1,null,images/rocket2,NA,1,real,null,2,NA,NA,NA,sub44
d3-animate-choice,232,1143260,0.0-76.0-1.32,TRUE,FALSE,TRUE,FALSE,"""event"",""trial"",""time""
""fullscreenenter"",""5"",""21997""
","
","
","""event"",""trial"",""time""
""fullscreenenter"",""5"",""21997""
","
",1101.1750000179745,NA,49,NA,NA,3000,1,NA,NA,images/redplanet1.jpg,images/alien2,images/alien1,images/rocket2,images/alien1,images/t.png,2,real,true,1,common,1,2020-06-11T20:11:48Z,sub44
two-step-fixation,233,1144271,0.0-76.0-2.32,TRUE,FALSE,TRUE,FALSE,"""event"",""trial"",""time""
""fullscreenenter"",""5"",""21997""
","
","
","""event"",""trial"",""time""
""fullscreenenter"",""5"",""21997""
","
",NA,images/earth.jpg,NA,NA,NA,NA,NA,NA,NA,NA,NA,NA,NA,NA,NA,fixation,NA,NA,NA,NA,NA,NA,sub44
d3-animate-choice,234,1146925,0.0-76.0-0.33,TRUE,FALSE,TRUE,FALSE,"""event"",""trial"",""time""
""fullscreenenter"",""5"",""21997""
","
","
","""event"",""trial"",""time""
""fullscreenenter"",""5"",""21997""
","
",640.9100000164472,NA,49,NA,NA,3000,1,NA,NA,images/earth.jpg,images/rocket2,images/rocket1,null,images/rocket1,NA,1,real,null,1,NA,NA,NA,sub44
d3-animate-choice,235,1149865,0.0-76.0-1.33,TRUE,FALSE,TRUE,FALSE,"""event"",""trial"",""time""
""fullscreenenter"",""5"",""21997""
","
","
","""event"",""trial"",""time""
""fullscreenenter"",""5"",""21997""
","
",920.1350000221282,NA,49,NA,NA,3000,1,NA,NA,images/redplanet1.jpg,images/alien2,images/alien1,images/rocket1,images/alien1,images/nothing.png,2,real,false,1,rare,0,2020-06-11T20:11:55Z,sub44
two-step-fixation,236,1150875,0.0-76.0-2.33,TRUE,FALSE,TRUE,FALSE,"""event"",""trial"",""time""
""fullscreenenter"",""5"",""21997""
","
","
","""event"",""trial"",""time""
""fullscreenenter"",""5"",""21997""
","
",NA,images/earth.jpg,NA,NA,NA,NA,NA,NA,NA,NA,NA,NA,NA,NA,NA,fixation,NA,NA,NA,NA,NA,NA,sub44
d3-animate-choice,237,1154423,0.0-76.0-0.34,TRUE,FALSE,TRUE,FALSE,"""event"",""trial"",""time""
""fullscreenenter"",""5"",""21997""
","
","
","""event"",""trial"",""time""
""fullscreenenter"",""5"",""21997""
","
",1529.6850000158884,NA,49,NA,NA,3000,1,NA,NA,images/earth.jpg,images/rocket2,images/rocket1,null,images/rocket1,NA,1,real,null,1,NA,NA,NA,sub44
d3-animate-choice,238,1157474,0.0-76.0-1.34,TRUE,FALSE,TRUE,FALSE,"""event"",""trial"",""time""
""fullscreenenter"",""5"",""21997""
","
","
","""event"",""trial"",""time""
""fullscreenenter"",""5"",""21997""
","
",1035.2449999772944,NA,48,NA,NA,3000,1,NA,NA,images/redplanet1.jpg,images/alien2,images/alien1,images/rocket1,images/alien2,images/t.png,2,real,false,2,rare,1,2020-06-11T20:12:02Z,sub44
two-step-fixation,239,1158484,0.0-76.0-2.34,TRUE,FALSE,TRUE,FALSE,"""event"",""trial"",""time""
""fullscreenenter"",""5"",""21997""
","
","
","""event"",""trial"",""time""
""fullscreenenter"",""5"",""21997""
","
",NA,images/earth.jpg,NA,NA,NA,NA,NA,NA,NA,NA,NA,NA,NA,NA,NA,fixation,NA,NA,NA,NA,NA,NA,sub44
d3-animate-choice,240,1160930,0.0-76.0-0.35,TRUE,FALSE,TRUE,FALSE,"""event"",""trial"",""time""
""fullscreenenter"",""5"",""21997""
","
","
","""event"",""trial"",""time""
""fullscreenenter"",""5"",""21997""
","
",429.7899999655783,NA,48,NA,NA,3000,1,NA,NA,images/earth.jpg,images/rocket2,images/rocket1,null,images/rocket2,NA,1,real,null,2,NA,NA,NA,sub44
d3-animate-choice,241,1164319,0.0-76.0-1.35,TRUE,FALSE,TRUE,FALSE,"""event"",""trial"",""time""
""fullscreenenter"",""5"",""21997""
","
","
","""event"",""trial"",""time""
""fullscreenenter"",""5"",""21997""
","
",1377.0900000235997,NA,49,NA,NA,3000,1,NA,NA,images/purpleplanet.jpg,images/alien4,images/alien3,images/rocket2,images/alien3,images/nothing.png,2,real,false,1,rare,0,2020-06-11T20:12:09Z,sub44
two-step-fixation,242,1165328,0.0-76.0-2.35,TRUE,FALSE,TRUE,FALSE,"""event"",""trial"",""time""
""fullscreenenter"",""5"",""21997""
","
","
","""event"",""trial"",""time""
""fullscreenenter"",""5"",""21997""
","
",NA,images/earth.jpg,NA,NA,NA,NA,NA,NA,NA,NA,NA,NA,NA,NA,NA,fixation,NA,NA,NA,NA,NA,NA,sub44
d3-animate-choice,243,1168081,0.0-76.0-0.36,TRUE,FALSE,TRUE,FALSE,"""event"",""trial"",""time""
""fullscreenenter"",""5"",""21997""
","
","
","""event"",""trial"",""time""
""fullscreenenter"",""5"",""21997""
","
",737.9599999985658,NA,48,NA,NA,3000,1,NA,NA,images/earth.jpg,images/rocket2,images/rocket1,null,images/rocket2,NA,1,real,null,2,NA,NA,NA,sub44
d3-animate-choice,244,1170644,0.0-76.0-1.36,TRUE,FALSE,TRUE,FALSE,"""event"",""trial"",""time""
""fullscreenenter"",""5"",""21997""
","
","
","""event"",""trial"",""time""
""fullscreenenter"",""5"",""21997""
","
",547.1599999582395,NA,48,NA,NA,3000,1,NA,NA,images/redplanet1.jpg,images/alien2,images/alien1,images/rocket2,images/alien2,images/t.png,2,real,true,2,common,1,2020-06-11T20:12:16Z,sub44
two-step-fixation,245,1171653,0.0-76.0-2.36,TRUE,FALSE,TRUE,FALSE,"""event"",""trial"",""time""
""fullscreenenter"",""5"",""21997""
","
","
","""event"",""trial"",""time""
""fullscreenenter"",""5"",""21997""
","
",NA,images/earth.jpg,NA,NA,NA,NA,NA,NA,NA,NA,NA,NA,NA,NA,NA,fixation,NA,NA,NA,NA,NA,NA,sub44
d3-animate-choice,246,1174305,0.0-76.0-0.37,TRUE,FALSE,TRUE,FALSE,"""event"",""trial"",""time""
""fullscreenenter"",""5"",""21997""
","
","
","""event"",""trial"",""time""
""fullscreenenter"",""5"",""21997""
","
",637.2350000310689,NA,49,NA,NA,3000,1,NA,NA,images/earth.jpg,images/rocket2,images/rocket1,null,images/rocket1,NA,1,real,null,1,NA,NA,NA,sub44
d3-animate-choice,247,1176864,0.0-76.0-1.37,TRUE,FALSE,TRUE,FALSE,"""event"",""trial"",""time""
""fullscreenenter"",""5"",""21997""
","
","
","""event"",""trial"",""time""
""fullscreenenter"",""5"",""21997""
","
",543.9100000075996,NA,48,NA,NA,3000,1,NA,NA,images/purpleplanet.jpg,images/alien4,images/alien3,images/rocket1,images/alien4,images/t.png,2,real,true,2,common,1,2020-06-11T20:12:22Z,sub44
two-step-fixation,248,1177872,0.0-76.0-2.37,TRUE,FALSE,TRUE,FALSE,"""event"",""trial"",""time""
""fullscreenenter"",""5"",""21997""
","
","
","""event"",""trial"",""time""
""fullscreenenter"",""5"",""21997""
","
",NA,images/earth.jpg,NA,NA,NA,NA,NA,NA,NA,NA,NA,NA,NA,NA,NA,fixation,NA,NA,NA,NA,NA,NA,sub44
d3-animate-choice,249,1181232,0.0-76.0-0.38,TRUE,FALSE,TRUE,FALSE,"""event"",""trial"",""time""
""fullscreenenter"",""5"",""21997""
","
","
","""event"",""trial"",""time""
""fullscreenenter"",""5"",""21997""
","
",1343.6799999908544,NA,48,NA,NA,3000,1,NA,NA,images/earth.jpg,images/rocket2,images/rocket1,null,images/rocket2,NA,1,real,null,2,NA,NA,NA,sub44
d3-animate-choice,250,1183778,0.0-76.0-1.38,TRUE,FALSE,TRUE,FALSE,"""event"",""trial"",""time""
""fullscreenenter"",""5"",""21997""
","
","
","""event"",""trial"",""time""
""fullscreenenter"",""5"",""21997""
","
",531.0400000307709,NA,48,NA,NA,3000,1,NA,NA,images/redplanet1.jpg,images/alien2,images/alien1,images/rocket2,images/alien2,images/t.png,2,real,true,2,common,1,2020-06-11T20:12:29Z,sub44
two-step-fixation,251,1184786,0.0-76.0-2.38,TRUE,FALSE,TRUE,FALSE,"""event"",""trial"",""time""
""fullscreenenter"",""5"",""21997""
","
","
","""event"",""trial"",""time""
""fullscreenenter"",""5"",""21997""
","
",NA,images/earth.jpg,NA,NA,NA,NA,NA,NA,NA,NA,NA,NA,NA,NA,NA,fixation,NA,NA,NA,NA,NA,NA,sub44
d3-animate-choice,252,1188800,0.0-76.0-0.39,TRUE,FALSE,TRUE,FALSE,"""event"",""trial"",""time""
""fullscreenenter"",""5"",""21997""
","
","
","""event"",""trial"",""time""
""fullscreenenter"",""5"",""21997""
","
",2467.2300000092946,NA,48,NA,NA,3000,1,NA,NA,images/earth.jpg,images/rocket2,images/rocket1,null,images/rocket2,NA,1,real,null,2,NA,NA,NA,sub44
d3-animate-choice,253,1191983,0.0-76.0-1.39,TRUE,FALSE,TRUE,FALSE,"""event"",""trial"",""time""
""fullscreenenter"",""5"",""21997""
","
","
","""event"",""trial"",""time""
""fullscreenenter"",""5"",""21997""
","
",1167.8949999623,NA,48,NA,NA,3000,1,NA,NA,images/purpleplanet.jpg,images/alien4,images/alien3,images/rocket2,images/alien4,images/t.png,2,real,false,2,rare,1,2020-06-11T20:12:37Z,sub44
two-step-fixation,254,1192991,0.0-76.0-2.39,TRUE,FALSE,TRUE,FALSE,"""event"",""trial"",""time""
""fullscreenenter"",""5"",""21997""
","
","
","""event"",""trial"",""time""
""fullscreenenter"",""5"",""21997""
","
",NA,images/earth.jpg,NA,NA,NA,NA,NA,NA,NA,NA,NA,NA,NA,NA,NA,fixation,NA,NA,NA,NA,NA,NA,sub44
d3-animate-choice,255,1197005,0.0-76.0-0.40,TRUE,FALSE,TRUE,FALSE,"""event"",""trial"",""time""
""fullscreenenter"",""5"",""21997""
","
","
","""event"",""trial"",""time""
""fullscreenenter"",""5"",""21997""
","
",null,NA,null,NA,NA,3000,0,NA,NA,images/earth.jpg,images/rocket2,images/rocket1,null,NA,NA,1,real,null,NA,NA,NA,NA,sub44
d3-animate-choice,256,1198021,0.0-76.0-1.40,TRUE,FALSE,TRUE,FALSE,"""event"",""trial"",""time""
""fullscreenenter"",""5"",""21997""
","
","
","""event"",""trial"",""time""
""fullscreenenter"",""5"",""21997""
","
",null,NA,null,NA,NA,0,0,NA,NA,images/earth.jpg,images/rocket2,images/rocket1,null,NA,NA,2,real,null,NA,NA,0,2020-06-11T20:12:43Z,sub44
two-step-fixation,257,1199028,0.0-76.0-2.40,TRUE,FALSE,TRUE,FALSE,"""event"",""trial"",""time""
""fullscreenenter"",""5"",""21997""
","
","
","""event"",""trial"",""time""
""fullscreenenter"",""5"",""21997""
","
",NA,images/earth.jpg,NA,NA,NA,NA,NA,NA,NA,NA,NA,NA,NA,NA,NA,fixation,NA,NA,NA,NA,NA,NA,sub44
d3-animate-choice,258,1201450,0.0-76.0-0.41,TRUE,FALSE,TRUE,FALSE,"""event"",""trial"",""time""
""fullscreenenter"",""5"",""21997""
","
","
","""event"",""trial"",""time""
""fullscreenenter"",""5"",""21997""
","
",405.22999997483566,NA,49,NA,NA,3000,1,NA,NA,images/earth.jpg,images/rocket2,images/rocket1,null,images/rocket1,NA,1,real,null,1,NA,NA,NA,sub44
d3-animate-choice,259,1204305,0.0-76.0-1.41,TRUE,FALSE,TRUE,FALSE,"""event"",""trial"",""time""
""fullscreenenter"",""5"",""21997""
","
","
","""event"",""trial"",""time""
""fullscreenenter"",""5"",""21997""
","
",839.2500000190921,NA,48,NA,NA,3000,1,NA,NA,images/purpleplanet.jpg,images/alien4,images/alien3,images/rocket1,images/alien4,images/nothing.png,2,real,true,2,common,0,2020-06-11T20:12:49Z,sub44
two-step-fixation,260,1205315,0.0-76.0-2.41,TRUE,FALSE,TRUE,FALSE,"""event"",""trial"",""time""
""fullscreenenter"",""5"",""21997""
","
","
","""event"",""trial"",""time""
""fullscreenenter"",""5"",""21997""
","
",NA,images/earth.jpg,NA,NA,NA,NA,NA,NA,NA,NA,NA,NA,NA,NA,NA,fixation,NA,NA,NA,NA,NA,NA,sub44
d3-animate-choice,261,1207751,0.0-76.0-0.42,TRUE,FALSE,TRUE,FALSE,"""event"",""trial"",""time""
""fullscreenenter"",""5"",""21997""
","
","
","""event"",""trial"",""time""
""fullscreenenter"",""5"",""21997""
","
",419.3550000200048,NA,48,NA,NA,3000,1,NA,NA,images/earth.jpg,images/rocket2,images/rocket1,null,images/rocket2,NA,1,real,null,2,NA,NA,NA,sub44
d3-animate-choice,262,1210514,0.0-76.0-1.42,TRUE,FALSE,TRUE,FALSE,"""event"",""trial"",""time""
""fullscreenenter"",""5"",""21997""
","
","
","""event"",""trial"",""time""
""fullscreenenter"",""5"",""21997""
","
",748.299999977462,NA,49,NA,NA,3000,1,NA,NA,images/purpleplanet.jpg,images/alien4,images/alien3,images/rocket2,images/alien3,images/nothing.png,2,real,false,1,rare,0,2020-06-11T20:12:56Z,sub44
two-step-fixation,263,1211522,0.0-76.0-2.42,TRUE,FALSE,TRUE,FALSE,"""event"",""trial"",""time""
""fullscreenenter"",""5"",""21997""
","
","
","""event"",""trial"",""time""
""fullscreenenter"",""5"",""21997""
","
",NA,images/earth.jpg,NA,NA,NA,NA,NA,NA,NA,NA,NA,NA,NA,NA,NA,fixation,NA,NA,NA,NA,NA,NA,sub44
d3-animate-choice,264,1214208,0.0-76.0-0.43,TRUE,FALSE,TRUE,FALSE,"""event"",""trial"",""time""
""fullscreenenter"",""5"",""21997""
","
","
","""event"",""trial"",""time""
""fullscreenenter"",""5"",""21997""
","
",669.6099999826401,NA,49,NA,NA,3000,1,NA,NA,images/earth.jpg,images/rocket2,images/rocket1,null,images/rocket1,NA,1,real,null,1,NA,NA,NA,sub44
d3-animate-choice,265,1217015,0.0-76.0-1.43,TRUE,FALSE,TRUE,FALSE,"""event"",""trial"",""time""
""fullscreenenter"",""5"",""21997""
","
","
","""event"",""trial"",""time""
""fullscreenenter"",""5"",""21997""
","
",790.5500000342727,NA,48,NA,NA,3000,1,NA,NA,images/purpleplanet.jpg,images/alien4,images/alien3,images/rocket1,images/alien4,images/t.png,2,real,true,2,common,1,2020-06-11T20:13:02Z,sub44
two-step-fixation,266,1218025,0.0-76.0-2.43,TRUE,FALSE,TRUE,FALSE,"""event"",""trial"",""time""
""fullscreenenter"",""5"",""21997""
","
","
","""event"",""trial"",""time""
""fullscreenenter"",""5"",""21997""
","
",NA,images/earth.jpg,NA,NA,NA,NA,NA,NA,NA,NA,NA,NA,NA,NA,NA,fixation,NA,NA,NA,NA,NA,NA,sub44
d3-animate-choice,267,1220998,0.0-76.0-0.44,TRUE,FALSE,TRUE,FALSE,"""event"",""trial"",""time""
""fullscreenenter"",""5"",""21997""
","
","
","""event"",""trial"",""time""
""fullscreenenter"",""5"",""21997""
","
",958.1800000160001,NA,48,NA,NA,3000,1,NA,NA,images/earth.jpg,images/rocket2,images/rocket1,null,images/rocket2,NA,1,real,null,2,NA,NA,NA,sub44
d3-animate-choice,268,1223810,0.0-76.0-1.44,TRUE,FALSE,TRUE,FALSE,"""event"",""trial"",""time""
""fullscreenenter"",""5"",""21997""
","
","
","""event"",""trial"",""time""
""fullscreenenter"",""5"",""21997""
","
",797.0349999959581,NA,48,NA,NA,3000,1,NA,NA,images/redplanet1.jpg,images/alien2,images/alien1,images/rocket2,images/alien2,images/t.png,2,real,true,2,common,1,2020-06-11T20:13:09Z,sub44
two-step-fixation,269,1224817,0.0-76.0-2.44,TRUE,FALSE,TRUE,FALSE,"""event"",""trial"",""time""
""fullscreenenter"",""5"",""21997""
","
","
","""event"",""trial"",""time""
""fullscreenenter"",""5"",""21997""
","
",NA,images/earth.jpg,NA,NA,NA,NA,NA,NA,NA,NA,NA,NA,NA,NA,NA,fixation,NA,NA,NA,NA,NA,NA,sub44
d3-animate-choice,270,1227282,0.0-76.0-0.45,TRUE,FALSE,TRUE,FALSE,"""event"",""trial"",""time""
""fullscreenenter"",""5"",""21997""
","
","
","""event"",""trial"",""time""
""fullscreenenter"",""5"",""21997""
","
",449.155000038445,NA,49,NA,NA,3000,1,NA,NA,images/earth.jpg,images/rocket2,images/rocket1,null,images/rocket1,NA,1,real,null,1,NA,NA,NA,sub44
d3-animate-choice,271,1230014,0.0-76.0-1.45,TRUE,FALSE,TRUE,FALSE,"""event"",""trial"",""time""
""fullscreenenter"",""5"",""21997""
","
","
","""event"",""trial"",""time""
""fullscreenenter"",""5"",""21997""
","
",714.8349999915808,NA,48,NA,NA,3000,1,NA,NA,images/purpleplanet.jpg,images/alien4,images/alien3,images/rocket1,images/alien4,images/t.png,2,real,true,2,common,1,2020-06-11T20:13:15Z,sub44
two-step-fixation,272,1231023,0.0-76.0-2.45,TRUE,FALSE,TRUE,FALSE,"""event"",""trial"",""time""
""fullscreenenter"",""5"",""21997""
","
","
","""event"",""trial"",""time""
""fullscreenenter"",""5"",""21997""
","
",NA,images/earth.jpg,NA,NA,NA,NA,NA,NA,NA,NA,NA,NA,NA,NA,NA,fixation,NA,NA,NA,NA,NA,NA,sub44
d3-animate-choice,273,1233491,0.0-76.0-0.46,TRUE,FALSE,TRUE,FALSE,"""event"",""trial"",""time""
""fullscreenenter"",""5"",""21997""
","
","
","""event"",""trial"",""time""
""fullscreenenter"",""5"",""21997""
","
",453.4849999472499,NA,48,NA,NA,3000,1,NA,NA,images/earth.jpg,images/rocket2,images/rocket1,null,images/rocket2,NA,1,real,null,2,NA,NA,NA,sub44
d3-animate-choice,274,1236153,0.0-76.0-1.46,TRUE,FALSE,TRUE,FALSE,"""event"",""trial"",""time""
""fullscreenenter"",""5"",""21997""
","
","
","""event"",""trial"",""time""
""fullscreenenter"",""5"",""21997""
","
",647.6700000348501,NA,48,NA,NA,3000,1,NA,NA,images/purpleplanet.jpg,images/alien4,images/alien3,images/rocket2,images/alien4,images/nothing.png,2,real,false,2,rare,0,2020-06-11T20:13:21Z,sub44
two-step-fixation,275,1237158,0.0-76.0-2.46,TRUE,FALSE,TRUE,FALSE,"""event"",""trial"",""time""
""fullscreenenter"",""5"",""21997""
","
","
","""event"",""trial"",""time""
""fullscreenenter"",""5"",""21997""
","
",NA,images/earth.jpg,NA,NA,NA,NA,NA,NA,NA,NA,NA,NA,NA,NA,NA,fixation,NA,NA,NA,NA,NA,NA,sub44
d3-animate-choice,276,1240290,0.0-76.0-0.47,TRUE,FALSE,TRUE,FALSE,"""event"",""trial"",""time""
""fullscreenenter"",""5"",""21997""
","
","
","""event"",""trial"",""time""
""fullscreenenter"",""5"",""21997""
","
",1118.640000000596,NA,48,NA,NA,3000,1,NA,NA,images/earth.jpg,images/rocket2,images/rocket1,null,images/rocket2,NA,1,real,null,2,NA,NA,NA,sub44
d3-animate-choice,277,1244306,0.0-76.0-1.47,TRUE,FALSE,TRUE,FALSE,"""event"",""trial"",""time""
""fullscreenenter"",""5"",""21997""
","
","
","""event"",""trial"",""time""
""fullscreenenter"",""5"",""21997""
","
",2309.3449999578297,NA,48,NA,NA,3000,1,NA,NA,images/purpleplanet.jpg,images/alien4,images/alien3,images/rocket2,images/alien4,images/t.png,2,real,false,2,rare,1,2020-06-11T20:13:29Z,sub44
two-step-fixation,278,1245317,0.0-76.0-2.47,TRUE,FALSE,TRUE,FALSE,"""event"",""trial"",""time""
""fullscreenenter"",""5"",""21997""
","
","
","""event"",""trial"",""time""
""fullscreenenter"",""5"",""21997""
","
",NA,images/earth.jpg,NA,NA,NA,NA,NA,NA,NA,NA,NA,NA,NA,NA,NA,fixation,NA,NA,NA,NA,NA,NA,sub44
d3-animate-choice,279,1248679,0.0-76.0-0.48,TRUE,FALSE,TRUE,FALSE,"""event"",""trial"",""time""
""fullscreenenter"",""5"",""21997""
","
","
","""event"",""trial"",""time""
""fullscreenenter"",""5"",""21997""
","
",1349.2900000419468,NA,48,NA,NA,3000,1,NA,NA,images/earth.jpg,images/rocket2,images/rocket1,null,images/rocket2,NA,1,real,null,2,NA,NA,NA,sub44
d3-animate-choice,280,1251984,0.0-76.0-1.48,TRUE,FALSE,TRUE,FALSE,"""event"",""trial"",""time""
""fullscreenenter"",""5"",""21997""
","
","
","""event"",""trial"",""time""
""fullscreenenter"",""5"",""21997""
","
",1289.5249999710359,NA,49,NA,NA,3000,1,NA,NA,images/redplanet1.jpg,images/alien2,images/alien1,images/rocket2,images/alien1,images/t.png,2,real,true,1,common,1,2020-06-11T20:13:37Z,sub44
two-step-fixation,281,1252994,0.0-76.0-2.48,TRUE,FALSE,TRUE,FALSE,"""event"",""trial"",""time""
""fullscreenenter"",""5"",""21997""
","
","
","""event"",""trial"",""time""
""fullscreenenter"",""5"",""21997""
","
",NA,images/earth.jpg,NA,NA,NA,NA,NA,NA,NA,NA,NA,NA,NA,NA,NA,fixation,NA,NA,NA,NA,NA,NA,sub44
d3-animate-choice,282,1255819,0.0-76.0-0.49,TRUE,FALSE,TRUE,FALSE,"""event"",""trial"",""time""
""fullscreenenter"",""5"",""21997""
","
","
","""event"",""trial"",""time""
""fullscreenenter"",""5"",""21997""
","
",811.2049999763258,NA,48,NA,NA,3000,1,NA,NA,images/earth.jpg,images/rocket2,images/rocket1,null,images/rocket2,NA,1,real,null,2,NA,NA,NA,sub44
d3-animate-choice,283,1259607,0.0-76.0-1.49,TRUE,FALSE,TRUE,FALSE,"""event"",""trial"",""time""
""fullscreenenter"",""5"",""21997""
","
","
","""event"",""trial"",""time""
""fullscreenenter"",""5"",""21997""
","
