trial_type,trial_index,time_elapsed,internal_node_id,rocket_sides,red_planet_first_rocket,red_display_order,purple_display_order,interactions,blur_events,focus_events,fullscreenenter_events,fullscreenexit_events,rt,stimulus,key_press,button_pressed,success,duration,valid_pressed,rts,keys,planet_text,right_text,left_text,center_text,chosen_text,reward_text,trial_stage,practice_trial,transition_type,choice,transition,reward,timestamp,subject_id
pavlovia,0,4,0.0-0.0,FALSE,FALSE,FALSE,FALSE,"
","
","
","
","
",NA,NA,NA,NA,NA,NA,NA,NA,NA,NA,NA,NA,NA,NA,NA,NA,NA,NA,NA,NA,NA,NA,sub98
html-keyboard-response,1,2278,0.0-1.0,FALSE,FALSE,FALSE,FALSE,"
","
","
","
","
",2272.355000022799,Welcome! Press the space bar to begin.,32,NA,NA,NA,NA,NA,NA,NA,NA,NA,NA,NA,NA,NA,NA,NA,NA,NA,NA,NA,sub98
audio-keyboard-response,2,5627,0.0-2.0,FALSE,FALSE,FALSE,FALSE,"
","
","
","
","
",3175,audio/beep_loop.wav,32,NA,NA,NA,NA,NA,NA,NA,NA,NA,NA,NA,NA,NA,NA,NA,NA,NA,NA,NA,sub98
audio-button-response,3,7760,0.0-3.0,FALSE,FALSE,FALSE,FALSE,"
","
","
","
","
",NaN,audio/fish.mp3,NA,1,NA,NA,NA,NA,NA,NA,NA,NA,NA,NA,NA,NA,NA,NA,NA,NA,NA,NA,sub98
audio-button-response,4,10812,0.0-4.0,FALSE,FALSE,FALSE,FALSE,"""event"",""trial"",""time""
""fullscreenenter"",""5"",""16722""
","
","
","""event"",""trial"",""time""
""fullscreenenter"",""5"",""16722""
","
",NaN,audio/tiger.mp3,NA,4,NA,NA,NA,NA,NA,NA,NA,NA,NA,NA,NA,NA,NA,NA,NA,NA,NA,NA,sub98
fullscreen,5,17704,0.0-5.0,FALSE,FALSE,FALSE,FALSE,"""event"",""trial"",""time""
""fullscreenenter"",""5"",""16722""
","
","
","""event"",""trial"",""time""
""fullscreenenter"",""5"",""16722""
","
",NA,NA,NA,NA,TRUE,NA,NA,NA,NA,NA,NA,NA,NA,NA,NA,NA,NA,NA,NA,NA,NA,NA,sub98
d3-instructions,6,27293,0.0-6.0,FALSE,FALSE,FALSE,FALSE,"""event"",""trial"",""time""
""fullscreenenter"",""5"",""16722""
","
","
","""event"",""trial"",""time""
""fullscreenenter"",""5"",""16722""
","
",NA,NA,NA,NA,NA,NA,NA,NA,NA,NA,NA,NA,NA,NA,NA,NA,NA,NA,NA,NA,NA,NA,sub98
d3-instructions,7,37224,0.0-7.0,FALSE,FALSE,FALSE,FALSE,"""event"",""trial"",""time""
""fullscreenenter"",""5"",""16722""
","
","
","""event"",""trial"",""time""
""fullscreenenter"",""5"",""16722""
","
",NA,NA,NA,NA,NA,NA,NA,NA,NA,NA,NA,NA,NA,NA,NA,NA,NA,NA,NA,NA,NA,NA,sub98
d3-instructions,8,44972,0.0-8.0,FALSE,FALSE,FALSE,FALSE,"""event"",""trial"",""time""
""fullscreenenter"",""5"",""16722""
","
","
","""event"",""trial"",""time""
""fullscreenenter"",""5"",""16722""
","
",NA,NA,NA,NA,NA,NA,NA,NA,NA,NA,NA,NA,NA,NA,NA,NA,NA,NA,NA,NA,NA,NA,sub98
d3-instructions,9,62944,0.0-9.0,FALSE,FALSE,FALSE,FALSE,"""event"",""trial"",""time""
""fullscreenenter"",""5"",""16722""
","
","
","""event"",""trial"",""time""
""fullscreenenter"",""5"",""16722""
","
",NA,NA,NA,NA,NA,NA,NA,NA,NA,NA,NA,NA,NA,NA,NA,NA,NA,NA,NA,NA,NA,NA,sub98
d3-instructions,10,91433,0.0-10.0,FALSE,FALSE,FALSE,FALSE,"""event"",""trial"",""time""
""fullscreenenter"",""5"",""16722""
","
","
","""event"",""trial"",""time""
""fullscreenenter"",""5"",""16722""
","
",NA,NA,NA,NA,NA,NA,NA,NA,NA,NA,NA,NA,NA,NA,NA,NA,NA,NA,NA,NA,NA,NA,sub98
d3-animate-choice,11,95257,0.0-11.0,FALSE,FALSE,FALSE,FALSE,"""event"",""trial"",""time""
""fullscreenenter"",""5"",""16722""
","
","
","""event"",""trial"",""time""
""fullscreenenter"",""5"",""16722""
","
",1818.3749999734573,NA,49,NA,NA,3000,1,3249.324999982491,48,images/tutgreenplanet.jpg,images/tutalien1,images/tutalien2,null,images/tutalien2,NA,NA,practice,null,NA,NA,NA,NA,sub98
d3-animate-choice,12,98070,0.0-12.0,FALSE,FALSE,FALSE,FALSE,"""event"",""trial"",""time""
""fullscreenenter"",""5"",""16722""
","
","
","""event"",""trial"",""time""
""fullscreenenter"",""5"",""16722""
","
",811.0949999827426,NA,48,NA,NA,3000,1,NA,NA,images/tutgreenplanet.jpg,images/tutalien1,images/tutalien2,null,images/tutalien1,NA,NA,practice,null,NA,NA,NA,NA,sub98
d3-animate-choice,13,101083,0.0-13.0,FALSE,FALSE,FALSE,FALSE,"""event"",""trial"",""time""
""fullscreenenter"",""5"",""16722""
","
","
","""event"",""trial"",""time""
""fullscreenenter"",""5"",""16722""
","
",1006.9950000033714,NA,49,NA,NA,3000,1,NA,NA,images/tutgreenplanet.jpg,images/tutalien1,images/tutalien2,null,images/tutalien2,NA,NA,practice,null,NA,NA,NA,NA,sub98
d3-animate-choice,14,103538,0.0-14.0,FALSE,FALSE,FALSE,FALSE,"""event"",""trial"",""time""
""fullscreenenter"",""5"",""16722""
","
","
","""event"",""trial"",""time""
""fullscreenenter"",""5"",""16722""
","
",453.830000013113,NA,48,NA,NA,3000,1,NA,NA,images/tutgreenplanet.jpg,images/tutalien1,images/tutalien2,null,images/tutalien1,NA,NA,practice,null,NA,NA,NA,NA,sub98
d3-instructions,15,110100,0.0-15.0,FALSE,FALSE,FALSE,FALSE,"""event"",""trial"",""time""
""fullscreenenter"",""5"",""16722""
","
","
","""event"",""trial"",""time""
""fullscreenenter"",""5"",""16722""
","
",NA,NA,NA,NA,NA,NA,NA,NA,NA,NA,NA,NA,NA,NA,NA,NA,NA,NA,NA,NA,NA,NA,sub98
d3-instructions,16,116183,0.0-16.0,FALSE,FALSE,FALSE,FALSE,"""event"",""trial"",""time""
""fullscreenenter"",""5"",""16722""
","
","
","""event"",""trial"",""time""
""fullscreenenter"",""5"",""16722""
","
",NA,NA,NA,NA,NA,NA,NA,NA,NA,NA,NA,NA,NA,NA,NA,NA,NA,NA,NA,NA,NA,NA,sub98
d3-instructions,17,124374,0.0-17.0,FALSE,FALSE,FALSE,FALSE,"""event"",""trial"",""time""
""fullscreenenter"",""5"",""16722""
","
","
","""event"",""trial"",""time""
""fullscreenenter"",""5"",""16722""
","
",NA,NA,NA,NA,NA,NA,NA,NA,NA,NA,NA,NA,NA,NA,NA,NA,NA,NA,NA,NA,NA,NA,sub98
d3-instructions,18,135159,0.0-18.0,FALSE,FALSE,FALSE,FALSE,"""event"",""trial"",""time""
""fullscreenenter"",""5"",""16722""
","
","
","""event"",""trial"",""time""
""fullscreenenter"",""5"",""16722""
","
",NA,NA,NA,NA,NA,NA,NA,NA,NA,NA,NA,NA,NA,NA,NA,NA,NA,NA,NA,NA,NA,NA,sub98
d3-instructions,19,150236,0.0-19.0,FALSE,FALSE,FALSE,FALSE,"""event"",""trial"",""time""
""fullscreenenter"",""5"",""16722""
","
","
","""event"",""trial"",""time""
""fullscreenenter"",""5"",""16722""
","
",NA,NA,NA,NA,NA,NA,NA,NA,NA,NA,NA,NA,NA,NA,NA,NA,NA,NA,NA,NA,NA,NA,sub98
d3-animate-choice,20,153949,0.0-20.0,FALSE,FALSE,FALSE,FALSE,"""event"",""trial"",""time""
""fullscreenenter"",""5"",""16722""
","
","
","""event"",""trial"",""time""
""fullscreenenter"",""5"",""16722""
","
",1706.239999999525,NA,49,NA,NA,3000,1,NA,NA,images/tutyellowplanet.jpg,null,images/tutalien3,null,images/tutalien3,images/nothing.png,NA,practice,null,NA,NA,NA,NA,sub98
d3-animate-choice,21,156480,0.0-21.0,FALSE,FALSE,FALSE,FALSE,"""event"",""trial"",""time""
""fullscreenenter"",""5"",""16722""
","
","
","""event"",""trial"",""time""
""fullscreenenter"",""5"",""16722""
","
",525.1400000124704,NA,49,NA,NA,3000,1,NA,NA,images/tutyellowplanet.jpg,null,images/tutalien3,null,images/tutalien3,images/t.png,NA,practice,null,NA,NA,NA,NA,sub98
d3-animate-choice,22,158982,0.0-22.0,FALSE,FALSE,FALSE,FALSE,"""event"",""trial"",""time""
""fullscreenenter"",""5"",""16722""
","
","
","""event"",""trial"",""time""
""fullscreenenter"",""5"",""16722""
","
",498.0599999835249,NA,49,NA,NA,3000,1,NA,NA,images/tutyellowplanet.jpg,null,images/tutalien3,null,images/tutalien3,images/t.png,NA,practice,null,NA,NA,NA,NA,sub98
d3-animate-choice,23,161634,0.0-23.0,FALSE,FALSE,FALSE,FALSE,"""event"",""trial"",""time""
""fullscreenenter"",""5"",""16722""
","
","
","""event"",""trial"",""time""
""fullscreenenter"",""5"",""16722""
","
",645.5900000000838,NA,49,NA,NA,3000,1,NA,NA,images/tutyellowplanet.jpg,null,images/tutalien3,null,images/tutalien3,images/t.png,NA,practice,null,NA,NA,NA,NA,sub98
d3-animate-choice,24,163940,0.0-24.0,FALSE,FALSE,FALSE,FALSE,"""event"",""trial"",""time""
""fullscreenenter"",""5"",""16722""
","
","
","""event"",""trial"",""time""
""fullscreenenter"",""5"",""16722""
","
",298.7049999937881,NA,49,NA,NA,3000,1,NA,NA,images/tutyellowplanet.jpg,null,images/tutalien3,null,images/tutalien3,images/nothing.png,NA,practice,null,NA,NA,NA,NA,sub98
d3-animate-choice,25,166401,0.0-25.0,FALSE,FALSE,FALSE,FALSE,"""event"",""trial"",""time""
""fullscreenenter"",""5"",""16722""
","
","
","""event"",""trial"",""time""
""fullscreenenter"",""5"",""16722""
","
",456.09999998123385,NA,49,NA,NA,3000,1,NA,NA,images/tutyellowplanet.jpg,null,images/tutalien3,null,images/tutalien3,images/nothing.png,NA,practice,null,NA,NA,NA,NA,sub98
d3-animate-choice,26,168926,0.0-26.0,FALSE,FALSE,FALSE,FALSE,"""event"",""trial"",""time""
""fullscreenenter"",""5"",""16722""
","
","
","""event"",""trial"",""time""
""fullscreenenter"",""5"",""16722""
","
",522.2549999889452,NA,49,NA,NA,3000,1,NA,NA,images/tutyellowplanet.jpg,null,images/tutalien3,null,images/tutalien3,images/t.png,NA,practice,null,NA,NA,NA,NA,sub98
d3-animate-choice,27,171492,0.0-27.0,FALSE,FALSE,FALSE,FALSE,"""event"",""trial"",""time""
""fullscreenenter"",""5"",""16722""
","
","
","""event"",""trial"",""time""
""fullscreenenter"",""5"",""16722""
","
",562.2999999905005,NA,49,NA,NA,3000,1,NA,NA,images/tutyellowplanet.jpg,null,images/tutalien3,null,images/tutalien3,images/nothing.png,NA,practice,null,NA,NA,NA,NA,sub98
d3-animate-choice,28,173913,0.0-28.0,FALSE,FALSE,FALSE,FALSE,"""event"",""trial"",""time""
""fullscreenenter"",""5"",""16722""
","
","
","""event"",""trial"",""time""
""fullscreenenter"",""5"",""16722""
","
",417.45999999693595,NA,49,NA,NA,3000,1,NA,NA,images/tutyellowplanet.jpg,null,images/tutalien3,null,images/tutalien3,images/t.png,NA,practice,null,NA,NA,NA,NA,sub98
d3-animate-choice,29,176246,0.0-29.0,FALSE,FALSE,FALSE,FALSE,"""event"",""trial"",""time""
""fullscreenenter"",""5"",""16722""
","
","
","""event"",""trial"",""time""
""fullscreenenter"",""5"",""16722""
","
",327.46999998926185,NA,49,NA,NA,3000,1,NA,NA,images/tutyellowplanet.jpg,null,images/tutalien3,null,images/tutalien3,images/t.png,NA,practice,null,NA,NA,NA,NA,sub98
d3-instructions,30,183143,0.0-30.0,FALSE,FALSE,FALSE,FALSE,"""event"",""trial"",""time""
""fullscreenenter"",""5"",""16722""
","
","
","""event"",""trial"",""time""
""fullscreenenter"",""5"",""16722""
","
",NA,NA,NA,NA,NA,NA,NA,NA,NA,NA,NA,NA,NA,NA,NA,NA,NA,NA,NA,NA,NA,NA,sub98
d3-instructions,31,192711,0.0-31.0,FALSE,FALSE,FALSE,FALSE,"""event"",""trial"",""time""
""fullscreenenter"",""5"",""16722""
","
","
","""event"",""trial"",""time""
""fullscreenenter"",""5"",""16722""
","
",NA,NA,NA,NA,NA,NA,NA,NA,NA,NA,NA,NA,NA,NA,NA,NA,NA,NA,NA,NA,NA,NA,sub98
d3-instructions,32,199141,0.0-32.0,FALSE,FALSE,FALSE,FALSE,"""event"",""trial"",""time""
""fullscreenenter"",""5"",""16722""
","
","
","""event"",""trial"",""time""
""fullscreenenter"",""5"",""16722""
","
",NA,NA,NA,NA,NA,NA,NA,NA,NA,NA,NA,NA,NA,NA,NA,NA,NA,NA,NA,NA,NA,NA,sub98
d3-instructions,33,202840,0.0-33.0,FALSE,FALSE,FALSE,FALSE,"""event"",""trial"",""time""
""fullscreenenter"",""5"",""16722""
","
","
","""event"",""trial"",""time""
""fullscreenenter"",""5"",""16722""
","
",NA,NA,NA,NA,NA,NA,NA,NA,NA,NA,NA,NA,NA,NA,NA,NA,NA,NA,NA,NA,NA,NA,sub98
d3-animate-choice,34,206943,0.0-34.0,FALSE,FALSE,FALSE,FALSE,"""event"",""trial"",""time""
""fullscreenenter"",""5"",""16722""
","
","
","""event"",""trial"",""time""
""fullscreenenter"",""5"",""16722""
","
",2101.445000007516,NA,49,NA,NA,3000,1,NA,NA,images/tutgreenplanet.jpg,images/tutalien1,images/tutalien2,null,images/tutalien2,images/t.png,NA,practice,null,NA,NA,NA,NA,sub98
d3-animate-choice,35,210716,0.0-35.0,FALSE,FALSE,FALSE,FALSE,"""event"",""trial"",""time""
""fullscreenenter"",""5"",""16722""
","
","
","""event"",""trial"",""time""
""fullscreenenter"",""5"",""16722""
","
",1765.8299999893643,NA,48,NA,NA,3000,1,NA,NA,images/tutgreenplanet.jpg,images/tutalien1,images/tutalien2,null,images/tutalien1,images/nothing.png,NA,practice,null,NA,NA,NA,NA,sub98
d3-animate-choice,36,213416,0.0-36.0,FALSE,FALSE,FALSE,FALSE,"""event"",""trial"",""time""
""fullscreenenter"",""5"",""16722""
","
","
","""event"",""trial"",""time""
""fullscreenenter"",""5"",""16722""
","
",695.1500000141095,NA,49,NA,NA,3000,1,NA,NA,images/tutgreenplanet.jpg,images/tutalien1,images/tutalien2,null,images/tutalien2,images/t.png,NA,practice,null,NA,NA,NA,NA,sub98
d3-animate-choice,37,215862,0.0-37.0,FALSE,FALSE,FALSE,FALSE,"""event"",""trial"",""time""
""fullscreenenter"",""5"",""16722""
","
","
","""event"",""trial"",""time""
""fullscreenenter"",""5"",""16722""
","
",442.1600000059698,NA,48,NA,NA,3000,1,NA,NA,images/tutgreenplanet.jpg,images/tutalien1,images/tutalien2,null,images/tutalien1,images/nothing.png,NA,practice,null,NA,NA,NA,NA,sub98
d3-animate-choice,38,218983,0.0-38.0,FALSE,FALSE,FALSE,FALSE,"""event"",""trial"",""time""
""fullscreenenter"",""5"",""16722""
","
","
","""event"",""trial"",""time""
""fullscreenenter"",""5"",""16722""
","
",1117.3300000082236,NA,49,NA,NA,3000,1,NA,NA,images/tutgreenplanet.jpg,images/tutalien1,images/tutalien2,null,images/tutalien2,images/nothing.png,NA,practice,null,NA,NA,NA,NA,sub98
d3-animate-choice,39,221485,0.0-39.0,FALSE,FALSE,FALSE,FALSE,"""event"",""trial"",""time""
""fullscreenenter"",""5"",""16722""
","
","
","""event"",""trial"",""time""
""fullscreenenter"",""5"",""16722""
","
",499.74500000826083,NA,49,NA,NA,3000,1,NA,NA,images/tutgreenplanet.jpg,images/tutalien1,images/tutalien2,null,images/tutalien2,images/t.png,NA,practice,null,NA,NA,NA,NA,sub98
d3-animate-choice,40,223766,0.0-40.0,FALSE,FALSE,FALSE,FALSE,"""event"",""trial"",""time""
""fullscreenenter"",""5"",""16722""
","
","
","""event"",""trial"",""time""
""fullscreenenter"",""5"",""16722""
","
",278.1949999916833,NA,48,NA,NA,3000,1,NA,NA,images/tutgreenplanet.jpg,images/tutalien1,images/tutalien2,null,images/tutalien1,images/t.png,NA,practice,null,NA,NA,NA,NA,sub98
d3-animate-choice,41,226122,0.0-41.0,FALSE,FALSE,FALSE,FALSE,"""event"",""trial"",""time""
""fullscreenenter"",""5"",""16722""
","
","
","""event"",""trial"",""time""
""fullscreenenter"",""5"",""16722""
","
",352.0799999823794,NA,48,NA,NA,3000,1,NA,NA,images/tutgreenplanet.jpg,images/tutalien1,images/tutalien2,null,images/tutalien1,images/nothing.png,NA,practice,null,NA,NA,NA,NA,sub98
d3-animate-choice,42,230906,0.0-42.0,FALSE,FALSE,FALSE,FALSE,"""event"",""trial"",""time""
""fullscreenenter"",""5"",""16722""
","
","
","""event"",""trial"",""time""
""fullscreenenter"",""5"",""16722""
","
",2781.285000004573,NA,49,NA,NA,3000,1,NA,NA,images/tutgreenplanet.jpg,images/tutalien1,images/tutalien2,null,images/tutalien2,images/t.png,NA,practice,null,NA,NA,NA,NA,sub98
d3-animate-choice,43,233393,0.0-43.0,FALSE,FALSE,FALSE,FALSE,"""event"",""trial"",""time""
""fullscreenenter"",""5"",""16722""
","
","
","""event"",""trial"",""time""
""fullscreenenter"",""5"",""16722""
","
",481.23999999370426,NA,48,NA,NA,3000,1,NA,NA,images/tutgreenplanet.jpg,images/tutalien1,images/tutalien2,null,images/tutalien1,images/nothing.png,NA,practice,null,NA,NA,NA,NA,sub98
d3-instructions,44,246086,0.0-44.0,FALSE,FALSE,FALSE,FALSE,"""event"",""trial"",""time""
""fullscreenenter"",""5"",""16722""
","
","
","""event"",""trial"",""time""
""fullscreenenter"",""5"",""16722""
","
",NA,NA,NA,NA,NA,NA,NA,NA,NA,NA,NA,NA,NA,NA,NA,NA,NA,NA,NA,NA,NA,NA,sub98
d3-instructions,45,252294,0.0-45.0,FALSE,FALSE,FALSE,FALSE,"""event"",""trial"",""time""
""fullscreenenter"",""5"",""16722""
","
","
","""event"",""trial"",""time""
""fullscreenenter"",""5"",""16722""
","
",NA,NA,NA,NA,NA,NA,NA,NA,NA,NA,NA,NA,NA,NA,NA,NA,NA,NA,NA,NA,NA,NA,sub98
d3-instructions,46,257209,0.0-46.0,FALSE,FALSE,FALSE,FALSE,"""event"",""trial"",""time""
""fullscreenenter"",""5"",""16722""
","
","
","""event"",""trial"",""time""
""fullscreenenter"",""5"",""16722""
","
",NA,NA,NA,NA,NA,NA,NA,NA,NA,NA,NA,NA,NA,NA,NA,NA,NA,NA,NA,NA,NA,NA,sub98
d3-instructions,47,273920,0.0-47.0,FALSE,FALSE,FALSE,FALSE,"""event"",""trial"",""time""
""fullscreenenter"",""5"",""16722""
","
","
","""event"",""trial"",""time""
""fullscreenenter"",""5"",""16722""
","
",NA,NA,NA,NA,NA,NA,NA,NA,NA,NA,NA,NA,NA,NA,NA,NA,NA,NA,NA,NA,NA,NA,sub98
d3-instructions,48,280312,0.0-48.0,FALSE,FALSE,FALSE,FALSE,"""event"",""trial"",""time""
""fullscreenenter"",""5"",""16722""
","
","
","""event"",""trial"",""time""
""fullscreenenter"",""5"",""16722""
","
",NA,NA,NA,NA,NA,NA,NA,NA,NA,NA,NA,NA,NA,NA,NA,NA,NA,NA,NA,NA,NA,NA,sub98
d3-instructions,49,291597,0.0-49.0,FALSE,FALSE,FALSE,FALSE,"""event"",""trial"",""time""
""fullscreenenter"",""5"",""16722""
","
","
","""event"",""trial"",""time""
""fullscreenenter"",""5"",""16722""
","
",NA,NA,NA,NA,NA,NA,NA,NA,NA,NA,NA,NA,NA,NA,NA,NA,NA,NA,NA,NA,NA,NA,sub98
d3-instructions,50,312680,0.0-50.0,FALSE,FALSE,FALSE,FALSE,"""event"",""trial"",""time""
""fullscreenenter"",""5"",""16722""
","
","
","""event"",""trial"",""time""
""fullscreenenter"",""5"",""16722""
","
",NA,NA,NA,NA,NA,NA,NA,NA,NA,NA,NA,NA,NA,NA,NA,NA,NA,NA,NA,NA,NA,NA,sub98
d3-instructions,51,316454,0.0-51.0,FALSE,FALSE,FALSE,FALSE,"""event"",""trial"",""time""
""fullscreenenter"",""5"",""16722""
","
","
","""event"",""trial"",""time""
""fullscreenenter"",""5"",""16722""
","
",NA,NA,NA,NA,NA,NA,NA,NA,NA,NA,NA,NA,NA,NA,NA,NA,NA,NA,NA,NA,NA,NA,sub98
d3-instructions,52,321207,0.0-52.0,FALSE,FALSE,FALSE,FALSE,"""event"",""trial"",""time""
""fullscreenenter"",""5"",""16722""
","
","
","""event"",""trial"",""time""
""fullscreenenter"",""5"",""16722""
","
",NA,NA,NA,NA,NA,NA,NA,NA,NA,NA,NA,NA,NA,NA,NA,NA,NA,NA,NA,NA,NA,NA,sub98
d3-instructions,53,334813,0.0-53.0,FALSE,FALSE,FALSE,FALSE,"""event"",""trial"",""time""
""fullscreenenter"",""5"",""16722""
","
","
","""event"",""trial"",""time""
""fullscreenenter"",""5"",""16722""
","
",NA,NA,NA,NA,NA,NA,NA,NA,NA,NA,NA,NA,NA,NA,NA,NA,NA,NA,NA,NA,NA,NA,sub98
d3-instructions,54,348219,0.0-54.0,FALSE,FALSE,FALSE,FALSE,"""event"",""trial"",""time""
""fullscreenenter"",""5"",""16722""
","
","
","""event"",""trial"",""time""
""fullscreenenter"",""5"",""16722""
","
",NA,NA,NA,NA,NA,NA,NA,NA,NA,NA,NA,NA,NA,NA,NA,NA,NA,NA,NA,NA,NA,NA,sub98
d3-instructions,55,355365,0.0-55.0,FALSE,FALSE,FALSE,FALSE,"""event"",""trial"",""time""
""fullscreenenter"",""5"",""16722""
","
","
","""event"",""trial"",""time""
""fullscreenenter"",""5"",""16722""
","
",NA,NA,NA,NA,NA,NA,NA,NA,NA,NA,NA,NA,NA,NA,NA,NA,NA,NA,NA,NA,NA,NA,sub98
d3-instructions,56,364295,0.0-56.0,FALSE,FALSE,FALSE,FALSE,"""event"",""trial"",""time""
""fullscreenenter"",""5"",""16722""
","
","
","""event"",""trial"",""time""
""fullscreenenter"",""5"",""16722""
","
",NA,NA,NA,NA,NA,NA,NA,NA,NA,NA,NA,NA,NA,NA,NA,NA,NA,NA,NA,NA,NA,NA,sub98
d3-instructions,57,375422,0.0-57.0,FALSE,FALSE,FALSE,FALSE,"""event"",""trial"",""time""
""fullscreenenter"",""5"",""16722""
","
","
","""event"",""trial"",""time""
""fullscreenenter"",""5"",""16722""
","
",NA,NA,NA,NA,NA,NA,NA,NA,NA,NA,NA,NA,NA,NA,NA,NA,NA,NA,NA,NA,NA,NA,sub98
d3-instructions,58,387842,0.0-58.0,FALSE,FALSE,FALSE,FALSE,"""event"",""trial"",""time""
""fullscreenenter"",""5"",""16722""
","
","
","""event"",""trial"",""time""
""fullscreenenter"",""5"",""16722""
","
",NA,NA,NA,NA,NA,NA,NA,NA,NA,NA,NA,NA,NA,NA,NA,NA,NA,NA,NA,NA,NA,NA,sub98
d3-instructions,59,395868,0.0-59.0,FALSE,FALSE,FALSE,FALSE,"""event"",""trial"",""time""
""fullscreenenter"",""5"",""16722""
","
","
","""event"",""trial"",""time""
""fullscreenenter"",""5"",""16722""
","
",NA,NA,NA,NA,NA,NA,NA,NA,NA,NA,NA,NA,NA,NA,NA,NA,NA,NA,NA,NA,NA,NA,sub98
d3-instructions,60,399878,0.0-60.0,FALSE,FALSE,FALSE,FALSE,"""event"",""trial"",""time""
""fullscreenenter"",""5"",""16722""
","
","
","""event"",""trial"",""time""
""fullscreenenter"",""5"",""16722""
","
",NA,NA,NA,NA,NA,NA,NA,NA,NA,NA,NA,NA,NA,NA,NA,NA,NA,NA,NA,NA,NA,NA,sub98
d3-animate-choice,61,403144,0.0-61.0-0.0,FALSE,FALSE,FALSE,FALSE,"""event"",""trial"",""time""
""fullscreenenter"",""5"",""16722""
","
","
","""event"",""trial"",""time""
""fullscreenenter"",""5"",""16722""
","
",1261.354999995092,NA,49,NA,NA,3000,1,NA,NA,images/earth.jpg,images/tutrocket2,images/tutrocket1,null,images/tutrocket1,NA,1,practice,null,1,NA,NA,NA,sub98
d3-animate-choice,62,406580,0.0-61.0-1.0,FALSE,FALSE,FALSE,FALSE,"""event"",""trial"",""time""
""fullscreenenter"",""5"",""16722""
","
","
","""event"",""trial"",""time""
""fullscreenenter"",""5"",""16722""
","
",1431.2149999896064,NA,49,NA,NA,3000,1,NA,NA,images/tutyellowplanet.jpg,images/tutalien4,images/tutalien3,images/tutrocket1,images/tutalien3,images/nothing.png,2,practice,true,1,common,0,2020-06-25T01:56:25Z,sub98
two-step-fixation,63,407585,0.0-61.0-2.0,FALSE,FALSE,FALSE,FALSE,"""event"",""trial"",""time""
""fullscreenenter"",""5"",""16722""
","
","
","""event"",""trial"",""time""
""fullscreenenter"",""5"",""16722""
","
",NA,images/earth.jpg,NA,NA,NA,NA,NA,NA,NA,NA,NA,NA,NA,NA,NA,fixation,NA,NA,NA,NA,NA,NA,sub98
d3-animate-choice,64,410792,0.0-61.0-0.1,FALSE,FALSE,FALSE,FALSE,"""event"",""trial"",""time""
""fullscreenenter"",""5"",""16722""
","
","
","""event"",""trial"",""time""
""fullscreenenter"",""5"",""16722""
","
",1203.4700000076555,NA,48,NA,NA,3000,1,NA,NA,images/earth.jpg,images/tutrocket2,images/tutrocket1,null,images/tutrocket2,NA,1,practice,null,2,NA,NA,NA,sub98
d3-animate-choice,65,413402,0.0-61.0-1.1,FALSE,FALSE,FALSE,FALSE,"""event"",""trial"",""time""
""fullscreenenter"",""5"",""16722""
","
","
","""event"",""trial"",""time""
""fullscreenenter"",""5"",""16722""
","
",607.5699999928474,NA,48,NA,NA,3000,1,NA,NA,images/tutgreenplanet.jpg,images/tutalien2,images/tutalien1,images/tutrocket2,images/tutalien2,images/t.png,2,practice,true,2,common,1,2020-06-25T01:56:32Z,sub98
two-step-fixation,66,414406,0.0-61.0-2.1,FALSE,FALSE,FALSE,FALSE,"""event"",""trial"",""time""
""fullscreenenter"",""5"",""16722""
","
","
","""event"",""trial"",""time""
""fullscreenenter"",""5"",""16722""
","
",NA,images/earth.jpg,NA,NA,NA,NA,NA,NA,NA,NA,NA,NA,NA,NA,NA,fixation,NA,NA,NA,NA,NA,NA,sub98
d3-animate-choice,67,418139,0.0-61.0-0.2,FALSE,FALSE,FALSE,FALSE,"""event"",""trial"",""time""
""fullscreenenter"",""5"",""16722""
","
","
","""event"",""trial"",""time""
""fullscreenenter"",""5"",""16722""
","
",1728.125000023283,NA,48,NA,NA,3000,1,NA,NA,images/earth.jpg,images/tutrocket2,images/tutrocket1,null,images/tutrocket2,NA,1,practice,null,2,NA,NA,NA,sub98
d3-animate-choice,68,420983,0.0-61.0-1.2,FALSE,FALSE,FALSE,FALSE,"""event"",""trial"",""time""
""fullscreenenter"",""5"",""16722""
","
","
","""event"",""trial"",""time""
""fullscreenenter"",""5"",""16722""
","
",841.275000013411,NA,48,NA,NA,3000,1,NA,NA,images/tutgreenplanet.jpg,images/tutalien2,images/tutalien1,images/tutrocket2,images/tutalien2,images/nothing.png,2,practice,true,2,common,0,2020-06-25T01:56:40Z,sub98
two-step-fixation,69,421987,0.0-61.0-2.2,FALSE,FALSE,FALSE,FALSE,"""event"",""trial"",""time""
""fullscreenenter"",""5"",""16722""
","
","
","""event"",""trial"",""time""
""fullscreenenter"",""5"",""16722""
","
",NA,images/earth.jpg,NA,NA,NA,NA,NA,NA,NA,NA,NA,NA,NA,NA,NA,fixation,NA,NA,NA,NA,NA,NA,sub98
d3-animate-choice,70,425041,0.0-61.0-0.3,FALSE,FALSE,FALSE,FALSE,"""event"",""trial"",""time""
""fullscreenenter"",""5"",""16722""
","
","
","""event"",""trial"",""time""
""fullscreenenter"",""5"",""16722""
","
",1049.799999978859,NA,48,NA,NA,3000,1,NA,NA,images/earth.jpg,images/tutrocket2,images/tutrocket1,null,images/tutrocket2,NA,1,practice,null,2,NA,NA,NA,sub98
d3-animate-choice,71,429044,0.0-61.0-1.3,FALSE,FALSE,FALSE,FALSE,"""event"",""trial"",""time""
""fullscreenenter"",""5"",""16722""
","
","
","""event"",""trial"",""time""
""fullscreenenter"",""5"",""16722""
","
",2047.7249999821652,NA,49,NA,NA,3000,1,NA,NA,images/tutyellowplanet.jpg,images/tutalien4,images/tutalien3,images/tutrocket2,images/tutalien3,images/nothing.png,2,practice,false,1,rare,0,2020-06-25T01:56:48Z,sub98
two-step-fixation,72,430046,0.0-61.0-2.3,FALSE,FALSE,FALSE,FALSE,"""event"",""trial"",""time""
""fullscreenenter"",""5"",""16722""
","
","
","""event"",""trial"",""time""
""fullscreenenter"",""5"",""16722""
","
",NA,images/earth.jpg,NA,NA,NA,NA,NA,NA,NA,NA,NA,NA,NA,NA,NA,fixation,NA,NA,NA,NA,NA,NA,sub98
d3-animate-choice,73,432684,0.0-61.0-0.4,FALSE,FALSE,FALSE,FALSE,"""event"",""trial"",""time""
""fullscreenenter"",""5"",""16722""
","
","
","""event"",""trial"",""time""
""fullscreenenter"",""5"",""16722""
","
",630.5799999972805,NA,48,NA,NA,3000,1,NA,NA,images/earth.jpg,images/tutrocket2,images/tutrocket1,null,images/tutrocket2,NA,1,practice,null,2,NA,NA,NA,sub98
d3-animate-choice,74,436469,0.0-61.0-1.4,FALSE,FALSE,FALSE,FALSE,"""event"",""trial"",""time""
""fullscreenenter"",""5"",""16722""
","
","
","""event"",""trial"",""time""
""fullscreenenter"",""5"",""16722""
","
",1778.4699999901932,NA,48,NA,NA,3000,1,NA,NA,images/tutgreenplanet.jpg,images/tutalien2,images/tutalien1,images/tutrocket2,images/tutalien2,images/t.png,2,practice,true,2,common,1,2020-06-25T01:56:55Z,sub98
two-step-fixation,75,437477,0.0-61.0-2.4,FALSE,FALSE,FALSE,FALSE,"""event"",""trial"",""time""
""fullscreenenter"",""5"",""16722""
","
","
","""event"",""trial"",""time""
""fullscreenenter"",""5"",""16722""
","
",NA,images/earth.jpg,NA,NA,NA,NA,NA,NA,NA,NA,NA,NA,NA,NA,NA,fixation,NA,NA,NA,NA,NA,NA,sub98
d3-animate-choice,76,441088,0.0-61.0-0.5,FALSE,FALSE,FALSE,FALSE,"""event"",""trial"",""time""
""fullscreenenter"",""5"",""16722""
","
","
","""event"",""trial"",""time""
""fullscreenenter"",""5"",""16722""
","
",1604.5699999958742,NA,48,NA,NA,3000,1,NA,NA,images/earth.jpg,images/tutrocket2,images/tutrocket1,null,images/tutrocket2,NA,1,practice,null,2,NA,NA,NA,sub98
d3-animate-choice,77,445094,0.0-61.0-1.5,FALSE,FALSE,FALSE,FALSE,"""event"",""trial"",""time""
""fullscreenenter"",""5"",""16722""
","
","
","""event"",""trial"",""time""
""fullscreenenter"",""5"",""16722""
","
",2181.429999996908,NA,49,NA,NA,3000,1,NA,NA,images/tutyellowplanet.jpg,images/tutalien4,images/tutalien3,images/tutrocket2,images/tutalien3,images/nothing.png,2,practice,false,1,rare,0,2020-06-25T01:57:04Z,sub98
two-step-fixation,78,446100,0.0-61.0-2.5,FALSE,FALSE,FALSE,FALSE,"""event"",""trial"",""time""
""fullscreenenter"",""5"",""16722""
","
","
","""event"",""trial"",""time""
""fullscreenenter"",""5"",""16722""
","
",NA,images/earth.jpg,NA,NA,NA,NA,NA,NA,NA,NA,NA,NA,NA,NA,NA,fixation,NA,NA,NA,NA,NA,NA,sub98
d3-animate-choice,79,448551,0.0-61.0-0.6,FALSE,FALSE,FALSE,FALSE,"""event"",""trial"",""time""
""fullscreenenter"",""5"",""16722""
","
","
","""event"",""trial"",""time""
""fullscreenenter"",""5"",""16722""
","
",446.6750000137836,NA,48,NA,NA,3000,1,NA,NA,images/earth.jpg,images/tutrocket2,images/tutrocket1,null,images/tutrocket2,NA,1,practice,null,2,NA,NA,NA,sub98
d3-animate-choice,80,451588,0.0-61.0-1.6,FALSE,FALSE,FALSE,FALSE,"""event"",""trial"",""time""
""fullscreenenter"",""5"",""16722""
","
","
","""event"",""trial"",""time""
""fullscreenenter"",""5"",""16722""
","
",1032.390000007581,NA,48,NA,NA,3000,1,NA,NA,images/tutgreenplanet.jpg,images/tutalien2,images/tutalien1,images/tutrocket2,images/tutalien2,images/nothing.png,2,practice,true,2,common,0,2020-06-25T01:57:10Z,sub98
two-step-fixation,81,452593,0.0-61.0-2.6,FALSE,FALSE,FALSE,FALSE,"""event"",""trial"",""time""
""fullscreenenter"",""5"",""16722""
","
","
","""event"",""trial"",""time""
""fullscreenenter"",""5"",""16722""
","
",NA,images/earth.jpg,NA,NA,NA,NA,NA,NA,NA,NA,NA,NA,NA,NA,NA,fixation,NA,NA,NA,NA,NA,NA,sub98
d3-animate-choice,82,455931,0.0-61.0-0.7,FALSE,FALSE,FALSE,FALSE,"""event"",""trial"",""time""
""fullscreenenter"",""5"",""16722""
","
","
","""event"",""trial"",""time""
""fullscreenenter"",""5"",""16722""
","
",1330.8250000118278,NA,49,NA,NA,3000,1,NA,NA,images/earth.jpg,images/tutrocket2,images/tutrocket1,null,images/tutrocket1,NA,1,practice,null,1,NA,NA,NA,sub98
d3-animate-choice,83,458830,0.0-61.0-1.7,FALSE,FALSE,FALSE,FALSE,"""event"",""trial"",""time""
""fullscreenenter"",""5"",""16722""
","
","
","""event"",""trial"",""time""
""fullscreenenter"",""5"",""16722""
","
",893.8749999797437,NA,48,NA,NA,3000,1,NA,NA,images/tutyellowplanet.jpg,images/tutalien4,images/tutalien3,images/tutrocket1,images/tutalien4,images/t.png,2,practice,true,2,common,1,2020-06-25T01:57:18Z,sub98
two-step-fixation,84,459835,0.0-61.0-2.7,FALSE,FALSE,FALSE,FALSE,"""event"",""trial"",""time""
""fullscreenenter"",""5"",""16722""
","
","
","""event"",""trial"",""time""
""fullscreenenter"",""5"",""16722""
","
",NA,images/earth.jpg,NA,NA,NA,NA,NA,NA,NA,NA,NA,NA,NA,NA,NA,fixation,NA,NA,NA,NA,NA,NA,sub98
d3-animate-choice,85,463131,0.0-61.0-0.8,FALSE,FALSE,FALSE,FALSE,"""event"",""trial"",""time""
""fullscreenenter"",""5"",""16722""
","
","
","""event"",""trial"",""time""
""fullscreenenter"",""5"",""16722""
","
",1287.6650000107475,NA,49,NA,NA,3000,1,NA,NA,images/earth.jpg,images/tutrocket2,images/tutrocket1,null,images/tutrocket1,NA,1,practice,null,1,NA,NA,NA,sub98
d3-animate-choice,86,466299,0.0-61.0-1.8,FALSE,FALSE,FALSE,FALSE,"""event"",""trial"",""time""
""fullscreenenter"",""5"",""16722""
","
","
","""event"",""trial"",""time""
""fullscreenenter"",""5"",""16722""
","
",1161.4650000119582,NA,48,NA,NA,3000,1,NA,NA,images/tutyellowplanet.jpg,images/tutalien4,images/tutalien3,images/tutrocket1,images/tutalien4,images/t.png,2,practice,true,2,common,1,2020-06-25T01:57:25Z,sub98
two-step-fixation,87,467308,0.0-61.0-2.8,FALSE,FALSE,FALSE,FALSE,"""event"",""trial"",""time""
""fullscreenenter"",""5"",""16722""
","
","
","""event"",""trial"",""time""
""fullscreenenter"",""5"",""16722""
","
",NA,images/earth.jpg,NA,NA,NA,NA,NA,NA,NA,NA,NA,NA,NA,NA,NA,fixation,NA,NA,NA,NA,NA,NA,sub98
d3-animate-choice,88,470597,0.0-61.0-0.9,FALSE,FALSE,FALSE,FALSE,"""event"",""trial"",""time""
""fullscreenenter"",""5"",""16722""
","
","
","""event"",""trial"",""time""
""fullscreenenter"",""5"",""16722""
","
",1284.3050000083167,NA,48,NA,NA,3000,1,NA,NA,images/earth.jpg,images/tutrocket2,images/tutrocket1,null,images/tutrocket2,NA,1,practice,null,2,NA,NA,NA,sub98
d3-animate-choice,89,474170,0.0-61.0-1.9,FALSE,FALSE,FALSE,FALSE,"""event"",""trial"",""time""
""fullscreenenter"",""5"",""16722""
","
","
","""event"",""trial"",""time""
""fullscreenenter"",""5"",""16722""
","
",1568.3449999778531,NA,48,NA,NA,3000,1,NA,NA,images/tutgreenplanet.jpg,images/tutalien2,images/tutalien1,images/tutrocket2,images/tutalien2,images/nothing.png,2,practice,true,2,common,0,2020-06-25T01:57:33Z,sub98
two-step-fixation,90,475178,0.0-61.0-2.9,FALSE,FALSE,FALSE,FALSE,"""event"",""trial"",""time""
""fullscreenenter"",""5"",""16722""
","
","
","""event"",""trial"",""time""
""fullscreenenter"",""5"",""16722""
","
",NA,images/earth.jpg,NA,NA,NA,NA,NA,NA,NA,NA,NA,NA,NA,NA,NA,fixation,NA,NA,NA,NA,NA,NA,sub98
d3-animate-choice,91,479186,0.0-61.0-0.10,FALSE,FALSE,FALSE,FALSE,"""event"",""trial"",""time""
""fullscreenenter"",""5"",""16722""
","
","
","""event"",""trial"",""time""
""fullscreenenter"",""5"",""16722""
","
",2138.8549999974202,NA,49,NA,NA,3000,1,NA,NA,images/earth.jpg,images/tutrocket2,images/tutrocket1,null,images/tutrocket1,NA,1,practice,null,1,NA,NA,NA,sub98
d3-animate-choice,92,482388,0.0-61.0-1.10,FALSE,FALSE,FALSE,FALSE,"""event"",""trial"",""time""
""fullscreenenter"",""5"",""16722""
","
","
","""event"",""trial"",""time""
""fullscreenenter"",""5"",""16722""
","
",1192.8200000256766,NA,48,NA,NA,3000,1,NA,NA,images/tutgreenplanet.jpg,images/tutalien2,images/tutalien1,images/tutrocket1,images/tutalien2,images/t.png,2,practice,false,2,rare,1,2020-06-25T01:57:41Z,sub98
two-step-fixation,93,483395,0.0-61.0-2.10,FALSE,FALSE,FALSE,FALSE,"""event"",""trial"",""time""
""fullscreenenter"",""5"",""16722""
","
","
","""event"",""trial"",""time""
""fullscreenenter"",""5"",""16722""
","
",NA,images/earth.jpg,NA,NA,NA,NA,NA,NA,NA,NA,NA,NA,NA,NA,NA,fixation,NA,NA,NA,NA,NA,NA,sub98
d3-animate-choice,94,486551,0.0-61.0-0.11,FALSE,FALSE,FALSE,FALSE,"""event"",""trial"",""time""
""fullscreenenter"",""5"",""16722""
","
","
","""event"",""trial"",""time""
""fullscreenenter"",""5"",""16722""
","
",1151.400000002468,NA,48,NA,NA,3000,1,NA,NA,images/earth.jpg,images/tutrocket2,images/tutrocket1,null,images/tutrocket2,NA,1,practice,null,2,NA,NA,NA,sub98
d3-animate-choice,95,489296,0.0-61.0-1.11,FALSE,FALSE,FALSE,FALSE,"""event"",""trial"",""time""
""fullscreenenter"",""5"",""16722""
","
","
","""event"",""trial"",""time""
""fullscreenenter"",""5"",""16722""
","
",738.4149999998044,NA,48,NA,NA,3000,1,NA,NA,images/tutgreenplanet.jpg,images/tutalien2,images/tutalien1,images/tutrocket2,images/tutalien2,images/nothing.png,2,practice,true,2,common,0,2020-06-25T01:57:48Z,sub98
two-step-fixation,96,490303,0.0-61.0-2.11,FALSE,FALSE,FALSE,FALSE,"""event"",""trial"",""time""
""fullscreenenter"",""5"",""16722""
","
","
","""event"",""trial"",""time""
""fullscreenenter"",""5"",""16722""
","
",NA,images/earth.jpg,NA,NA,NA,NA,NA,NA,NA,NA,NA,NA,NA,NA,NA,fixation,NA,NA,NA,NA,NA,NA,sub98
d3-animate-choice,97,492843,0.0-61.0-0.12,FALSE,FALSE,FALSE,FALSE,"""event"",""trial"",""time""
""fullscreenenter"",""5"",""16722""
","
","
","""event"",""trial"",""time""
""fullscreenenter"",""5"",""16722""
","
",535.9400000015739,NA,49,NA,NA,3000,1,NA,NA,images/earth.jpg,images/tutrocket2,images/tutrocket1,null,images/tutrocket1,NA,1,practice,null,1,NA,NA,NA,sub98
d3-animate-choice,98,496849,0.0-61.0-1.12,FALSE,FALSE,FALSE,FALSE,"""event"",""trial"",""time""
""fullscreenenter"",""5"",""16722""
","
","
","""event"",""trial"",""time""
""fullscreenenter"",""5"",""16722""
","
",2256.089999980759,NA,48,NA,NA,3000,1,NA,NA,images/tutyellowplanet.jpg,images/tutalien4,images/tutalien3,images/tutrocket1,images/tutalien4,images/t.png,2,practice,true,2,common,1,2020-06-25T01:57:56Z,sub98
two-step-fixation,99,497857,0.0-61.0-2.12,FALSE,FALSE,FALSE,FALSE,"""event"",""trial"",""time""
""fullscreenenter"",""5"",""16722""
","
","
","""event"",""trial"",""time""
""fullscreenenter"",""5"",""16722""
","
",NA,images/earth.jpg,NA,NA,NA,NA,NA,NA,NA,NA,NA,NA,NA,NA,NA,fixation,NA,NA,NA,NA,NA,NA,sub98
d3-animate-choice,100,501018,0.0-61.0-0.13,FALSE,FALSE,FALSE,FALSE,"""event"",""trial"",""time""
""fullscreenenter"",""5"",""16722""
","
","
","""event"",""trial"",""time""
""fullscreenenter"",""5"",""16722""
","
",1157.2750000050291,NA,48,NA,NA,3000,1,NA,NA,images/earth.jpg,images/tutrocket2,images/tutrocket1,null,images/tutrocket2,NA,1,practice,null,2,NA,NA,NA,sub98
d3-animate-choice,101,504212,0.0-61.0-1.13,FALSE,FALSE,FALSE,FALSE,"""event"",""trial"",""time""
""fullscreenenter"",""5"",""16722""
","
","
","""event"",""trial"",""time""
""fullscreenenter"",""5"",""16722""
","
",1187.5,NA,49,NA,NA,3000,1,NA,NA,images/tutgreenplanet.jpg,images/tutalien2,images/tutalien1,images/tutrocket2,images/tutalien1,images/nothing.png,2,practice,true,1,common,0,2020-06-25T01:58:03Z,sub98
two-step-fixation,102,505219,0.0-61.0-2.13,FALSE,FALSE,FALSE,FALSE,"""event"",""trial"",""time""
""fullscreenenter"",""5"",""16722""
","
","
","""event"",""trial"",""time""
""fullscreenenter"",""5"",""16722""
","
",NA,images/earth.jpg,NA,NA,NA,NA,NA,NA,NA,NA,NA,NA,NA,NA,NA,fixation,NA,NA,NA,NA,NA,NA,sub98
d3-animate-choice,103,507821,0.0-61.0-0.14,FALSE,FALSE,FALSE,FALSE,"""event"",""trial"",""time""
""fullscreenenter"",""5"",""16722""
","
","
","""event"",""trial"",""time""
""fullscreenenter"",""5"",""16722""
","
",597.6349999837112,NA,48,NA,NA,3000,1,NA,NA,images/earth.jpg,images/tutrocket2,images/tutrocket1,null,images/tutrocket2,NA,1,practice,null,2,NA,NA,NA,sub98
d3-animate-choice,104,510648,0.0-61.0-1.14,FALSE,FALSE,FALSE,FALSE,"""event"",""trial"",""time""
""fullscreenenter"",""5"",""16722""
","
","
","""event"",""trial"",""time""
""fullscreenenter"",""5"",""16722""
","
",822.970000008354,NA,48,NA,NA,3000,1,NA,NA,images/tutgreenplanet.jpg,images/tutalien2,images/tutalien1,images/tutrocket2,images/tutalien2,images/nothing.png,2,practice,true,2,common,0,2020-06-25T01:58:10Z,sub98
two-step-fixation,105,511654,0.0-61.0-2.14,FALSE,FALSE,FALSE,FALSE,"""event"",""trial"",""time""
""fullscreenenter"",""5"",""16722""
","
","
","""event"",""trial"",""time""
""fullscreenenter"",""5"",""16722""
","
",NA,images/earth.jpg,NA,NA,NA,NA,NA,NA,NA,NA,NA,NA,NA,NA,NA,fixation,NA,NA,NA,NA,NA,NA,sub98
d3-animate-choice,106,514059,0.0-61.0-0.15,FALSE,FALSE,FALSE,FALSE,"""event"",""trial"",""time""
""fullscreenenter"",""5"",""16722""
","
","
","""event"",""trial"",""time""
""fullscreenenter"",""5"",""16722""
","
",399.955000000773,NA,49,NA,NA,3000,1,NA,NA,images/earth.jpg,images/tutrocket2,images/tutrocket1,null,images/tutrocket1,NA,1,practice,null,1,NA,NA,NA,sub98
d3-animate-choice,107,517196,0.0-61.0-1.15,FALSE,FALSE,FALSE,FALSE,"""event"",""trial"",""time""
""fullscreenenter"",""5"",""16722""
","
","
","""event"",""trial"",""time""
""fullscreenenter"",""5"",""16722""
","
",1132.4650000024121,NA,48,NA,NA,3000,1,NA,NA,images/tutyellowplanet.jpg,images/tutalien4,images/tutalien3,images/tutrocket1,images/tutalien4,images/nothing.png,2,practice,true,2,common,0,2020-06-25T01:58:16Z,sub98
two-step-fixation,108,518200,0.0-61.0-2.15,FALSE,FALSE,FALSE,FALSE,"""event"",""trial"",""time""
""fullscreenenter"",""5"",""16722""
","
","
","""event"",""trial"",""time""
""fullscreenenter"",""5"",""16722""
","
",NA,images/earth.jpg,NA,NA,NA,NA,NA,NA,NA,NA,NA,NA,NA,NA,NA,fixation,NA,NA,NA,NA,NA,NA,sub98
d3-animate-choice,109,520895,0.0-61.0-0.16,FALSE,FALSE,FALSE,FALSE,"""event"",""trial"",""time""
""fullscreenenter"",""5"",""16722""
","
","
","""event"",""trial"",""time""
""fullscreenenter"",""5"",""16722""
","
",688.4650000138208,NA,48,NA,NA,3000,1,NA,NA,images/earth.jpg,images/tutrocket2,images/tutrocket1,null,images/tutrocket2,NA,1,practice,null,2,NA,NA,NA,sub98
d3-animate-choice,110,523815,0.0-61.0-1.16,FALSE,FALSE,FALSE,FALSE,"""event"",""trial"",""time""
""fullscreenenter"",""5"",""16722""
","
","
","""event"",""trial"",""time""
""fullscreenenter"",""5"",""16722""
","
",914.5250000001397,NA,48,NA,NA,3000,1,NA,NA,images/tutgreenplanet.jpg,images/tutalien2,images/tutalien1,images/tutrocket2,images/tutalien2,images/nothing.png,2,practice,true,2,common,0,2020-06-25T01:58:23Z,sub98
two-step-fixation,111,524819,0.0-61.0-2.16,FALSE,FALSE,FALSE,FALSE,"""event"",""trial"",""time""
""fullscreenenter"",""5"",""16722""
","
","
","""event"",""trial"",""time""
""fullscreenenter"",""5"",""16722""
","
",NA,images/earth.jpg,NA,NA,NA,NA,NA,NA,NA,NA,NA,NA,NA,NA,NA,fixation,NA,NA,NA,NA,NA,NA,sub98
d3-animate-choice,112,527277,0.0-61.0-0.17,FALSE,FALSE,FALSE,FALSE,"""event"",""trial"",""time""
""fullscreenenter"",""5"",""16722""
","
","
","""event"",""trial"",""time""
""fullscreenenter"",""5"",""16722""
","
",453.7399999971967,NA,49,NA,NA,3000,1,NA,NA,images/earth.jpg,images/tutrocket2,images/tutrocket1,null,images/tutrocket1,NA,1,practice,null,1,NA,NA,NA,sub98
d3-animate-choice,113,530054,0.0-61.0-1.17,FALSE,FALSE,FALSE,FALSE,"""event"",""trial"",""time""
""fullscreenenter"",""5"",""16722""
","
","
","""event"",""trial"",""time""
""fullscreenenter"",""5"",""16722""
","
",772.3199999891222,NA,48,NA,NA,3000,1,NA,NA,images/tutyellowplanet.jpg,images/tutalien4,images/tutalien3,images/tutrocket1,images/tutalien4,images/t.png,2,practice,true,2,common,1,2020-06-25T01:58:29Z,sub98
two-step-fixation,114,531060,0.0-61.0-2.17,FALSE,FALSE,FALSE,FALSE,"""event"",""trial"",""time""
""fullscreenenter"",""5"",""16722""
","
","
","""event"",""trial"",""time""
""fullscreenenter"",""5"",""16722""
","
",NA,images/earth.jpg,NA,NA,NA,NA,NA,NA,NA,NA,NA,NA,NA,NA,NA,fixation,NA,NA,NA,NA,NA,NA,sub98
d3-animate-choice,115,533771,0.0-61.0-0.18,FALSE,FALSE,FALSE,FALSE,"""event"",""trial"",""time""
""fullscreenenter"",""5"",""16722""
","
","
","""event"",""trial"",""time""
""fullscreenenter"",""5"",""16722""
","
",705.9799999988172,NA,48,NA,NA,3000,1,NA,NA,images/earth.jpg,images/tutrocket2,images/tutrocket1,null,images/tutrocket2,NA,1,practice,null,2,NA,NA,NA,sub98
d3-animate-choice,116,537776,0.0-61.0-1.18,FALSE,FALSE,FALSE,FALSE,"""event"",""trial"",""time""
""fullscreenenter"",""5"",""16722""
","
","
","""event"",""trial"",""time""
""fullscreenenter"",""5"",""16722""
","
",2005.799999984447,NA,48,NA,NA,3000,1,NA,NA,images/tutyellowplanet.jpg,images/tutalien4,images/tutalien3,images/tutrocket2,images/tutalien4,images/nothing.png,2,practice,false,2,rare,0,2020-06-25T01:58:37Z,sub98
two-step-fixation,117,538782,0.0-61.0-2.18,FALSE,FALSE,FALSE,FALSE,"""event"",""trial"",""time""
""fullscreenenter"",""5"",""16722""
","
","
","""event"",""trial"",""time""
""fullscreenenter"",""5"",""16722""
","
",NA,images/earth.jpg,NA,NA,NA,NA,NA,NA,NA,NA,NA,NA,NA,NA,NA,fixation,NA,NA,NA,NA,NA,NA,sub98
d3-animate-choice,118,541367,0.0-61.0-0.19,FALSE,FALSE,FALSE,FALSE,"""event"",""trial"",""time""
""fullscreenenter"",""5"",""16722""
","
","
","""event"",""trial"",""time""
""fullscreenenter"",""5"",""16722""
","
",579.7050000110175,NA,49,NA,NA,3000,1,NA,NA,images/earth.jpg,images/tutrocket2,images/tutrocket1,null,images/tutrocket1,NA,1,practice,null,1,NA,NA,NA,sub98
d3-animate-choice,119,544510,0.0-61.0-1.19,FALSE,FALSE,FALSE,FALSE,"""event"",""trial"",""time""
""fullscreenenter"",""5"",""16722""
","
","
","""event"",""trial"",""time""
""fullscreenenter"",""5"",""16722""
","
",1138.024999992922,NA,48,NA,NA,3000,1,NA,NA,images/tutgreenplanet.jpg,images/tutalien2,images/tutalien1,images/tutrocket1,images/tutalien2,images/t.png,2,practice,false,2,rare,1,2020-06-25T01:58:43Z,sub98
two-step-fixation,120,545515,0.0-61.0-2.19,FALSE,FALSE,FALSE,FALSE,"""event"",""trial"",""time""
""fullscreenenter"",""5"",""16722""
","
","
","""event"",""trial"",""time""
""fullscreenenter"",""5"",""16722""
","
",NA,images/earth.jpg,NA,NA,NA,NA,NA,NA,NA,NA,NA,NA,NA,NA,NA,fixation,NA,NA,NA,NA,NA,NA,sub98
d3-instructions,121,550703,0.0-62.0,FALSE,FALSE,FALSE,FALSE,"""event"",""trial"",""time""
""fullscreenenter"",""5"",""16722""
","
","
","""event"",""trial"",""time""
""fullscreenenter"",""5"",""16722""
","
",NA,NA,NA,NA,NA,NA,NA,NA,NA,NA,NA,NA,NA,NA,NA,NA,NA,NA,NA,NA,NA,NA,sub98
audio-keyboard-response,122,554177,0.0-63.0,FALSE,FALSE,FALSE,FALSE,"""event"",""trial"",""time""
""fullscreenenter"",""5"",""16722""
","
","
","""event"",""trial"",""time""
""fullscreenenter"",""5"",""16722""
","
",3471,audio/instructions/treasure_feedback.wav,32,NA,NA,NA,NA,NA,NA,NA,NA,NA,NA,NA,NA,NA,NA,NA,NA,NA,NA,NA,sub98
d3-instructions,123,567402,0.0-64.0,FALSE,FALSE,FALSE,FALSE,"""event"",""trial"",""time""
""fullscreenenter"",""5"",""16722""
","
","
","""event"",""trial"",""time""
""fullscreenenter"",""5"",""16722""
","
",NA,NA,NA,NA,NA,NA,NA,NA,NA,NA,NA,NA,NA,NA,NA,NA,NA,NA,NA,NA,NA,NA,sub98
d3-instructions,124,577633,0.0-65.0,FALSE,FALSE,FALSE,FALSE,"""event"",""trial"",""time""
""fullscreenenter"",""5"",""16722""
","
","
","""event"",""trial"",""time""
""fullscreenenter"",""5"",""16722""
","
",NA,NA,NA,NA,NA,NA,NA,NA,NA,NA,NA,NA,NA,NA,NA,NA,NA,NA,NA,NA,NA,NA,sub98
d3-instructions,125,603871,0.0-66.0,FALSE,FALSE,FALSE,FALSE,"""event"",""trial"",""time""
""fullscreenenter"",""5"",""16722""
","
","
","""event"",""trial"",""time""
""fullscreenenter"",""5"",""16722""
","
",NA,NA,NA,NA,NA,NA,NA,NA,NA,NA,NA,NA,NA,NA,NA,NA,NA,NA,NA,NA,NA,NA,sub98
d3-instructions,126,631500,0.0-67.0,FALSE,FALSE,FALSE,FALSE,"""event"",""trial"",""time""
""fullscreenenter"",""5"",""16722""
","
","
","""event"",""trial"",""time""
""fullscreenenter"",""5"",""16722""
","
",NA,NA,NA,NA,NA,NA,NA,NA,NA,NA,NA,NA,NA,NA,NA,NA,NA,NA,NA,NA,NA,NA,sub98
d3-instructions,127,636425,0.0-68.0,FALSE,FALSE,FALSE,FALSE,"""event"",""trial"",""time""
""fullscreenenter"",""5"",""16722""
","
","
","""event"",""trial"",""time""
""fullscreenenter"",""5"",""16722""
","
",NA,NA,NA,NA,NA,NA,NA,NA,NA,NA,NA,NA,NA,NA,NA,NA,NA,NA,NA,NA,NA,NA,sub98
instructions-quiz,128,639623,0.0-69.0,FALSE,FALSE,FALSE,FALSE,"""event"",""trial"",""time""
""fullscreenenter"",""5"",""16722""
","
","
","""event"",""trial"",""time""
""fullscreenenter"",""5"",""16722""
","
",3197.119999997085,audio/quiz/Q1_Prompt.wav,NA,1,NA,NA,NA,NA,NA,NA,NA,NA,NA,NA,NA,NA,NA,NA,NA,NA,NA,NA,sub98
audio-keyboard-response,129,641092,0.0-70.0,FALSE,FALSE,FALSE,FALSE,"""event"",""trial"",""time""
""fullscreenenter"",""5"",""16722""
","
","
","""event"",""trial"",""time""
""fullscreenenter"",""5"",""16722""
","
",1469,audio/quiz/Q1_Correct.wav,32,NA,NA,NA,NA,NA,NA,NA,NA,NA,NA,NA,NA,NA,NA,NA,NA,NA,NA,NA,sub98
instructions-quiz,130,645978,0.0-71.0,FALSE,FALSE,FALSE,FALSE,"""event"",""trial"",""time""
""fullscreenenter"",""5"",""16722""
","
","
","""event"",""trial"",""time""
""fullscreenenter"",""5"",""16722""
","
",4885.24000000325,audio/quiz/Q2_Prompt.wav,NA,0,NA,NA,NA,NA,NA,NA,NA,NA,NA,NA,NA,NA,NA,NA,NA,NA,NA,NA,sub98
audio-keyboard-response,131,651597,0.0-72.0,FALSE,FALSE,FALSE,FALSE,"""event"",""trial"",""time""
""fullscreenenter"",""5"",""16722""
","
","
","""event"",""trial"",""time""
""fullscreenenter"",""5"",""16722""
","
",5613,audio/quiz/Q2_Correct.wav,32,NA,NA,NA,NA,NA,NA,NA,NA,NA,NA,NA,NA,NA,NA,NA,NA,NA,NA,NA,sub98
instructions-quiz,132,654925,0.0-73.0,FALSE,FALSE,FALSE,FALSE,"""event"",""trial"",""time""
""fullscreenenter"",""5"",""16722""
","
","
","""event"",""trial"",""time""
""fullscreenenter"",""5"",""16722""
","
",3327.3300000000745,audio/quiz/Q3_Prompt.wav,NA,1,NA,NA,NA,NA,NA,NA,NA,NA,NA,NA,NA,NA,NA,NA,NA,NA,NA,NA,sub98
audio-keyboard-response,133,660724,0.0-74.0,FALSE,FALSE,FALSE,FALSE,"""event"",""trial"",""time""
""fullscreenenter"",""5"",""16722""
","
","
","""event"",""trial"",""time""
""fullscreenenter"",""5"",""16722""
","
",null,audio/quiz/Q3_Correct.wav,null,NA,NA,NA,NA,NA,NA,NA,NA,NA,NA,NA,NA,NA,NA,NA,NA,NA,NA,NA,sub98
d3-instructions,134,673451,0.0-75.0,FALSE,FALSE,FALSE,FALSE,"""event"",""trial"",""time""
""fullscreenenter"",""5"",""16722""
","
","
","""event"",""trial"",""time""
""fullscreenenter"",""5"",""16722""
","
",NA,NA,NA,NA,NA,NA,NA,NA,NA,NA,NA,NA,NA,NA,NA,NA,NA,NA,NA,NA,NA,NA,sub98
d3-animate-choice,135,677457,0.0-76.0-0.0,FALSE,FALSE,FALSE,FALSE,"""event"",""trial"",""time""
""fullscreenenter"",""5"",""16722""
","
","
","""event"",""trial"",""time""
""fullscreenenter"",""5"",""16722""
","
",null,NA,null,NA,NA,3000,0,NA,NA,images/earth.jpg,images/rocket1,images/rocket2,null,NA,NA,1,real,null,NA,NA,NA,NA,sub98
d3-animate-choice,136,678462,0.0-76.0-1.0,FALSE,FALSE,FALSE,FALSE,"""event"",""trial"",""time""
""fullscreenenter"",""5"",""16722""
","
","
","""event"",""trial"",""time""
""fullscreenenter"",""5"",""16722""
","
",null,NA,null,NA,NA,0,0,NA,NA,images/earth.jpg,images/rocket1,images/rocket2,null,NA,NA,2,real,null,NA,NA,0,2020-06-25T02:00:57Z,sub98
two-step-fixation,137,679464,0.0-76.0-2.0,FALSE,FALSE,FALSE,FALSE,"""event"",""trial"",""time""
""fullscreenenter"",""5"",""16722""
","
","
","""event"",""trial"",""time""
""fullscreenenter"",""5"",""16722""
","
",NA,images/earth.jpg,NA,NA,NA,NA,NA,NA,NA,NA,NA,NA,NA,NA,NA,fixation,NA,NA,NA,NA,NA,NA,sub98
d3-animate-choice,138,682197,0.0-76.0-0.1,FALSE,FALSE,FALSE,FALSE,"""event"",""trial"",""time""
""fullscreenenter"",""5"",""16722""
","
","
","""event"",""trial"",""time""
""fullscreenenter"",""5"",""16722""
","
",729.155000008177,NA,48,NA,NA,3000,1,NA,NA,images/earth.jpg,images/rocket1,images/rocket2,null,images/rocket1,NA,1,real,null,2,NA,NA,NA,sub98
d3-animate-choice,139,685059,0.0-76.0-1.1,FALSE,FALSE,FALSE,FALSE,"""event"",""trial"",""time""
""fullscreenenter"",""5"",""16722""
","
","
","""event"",""trial"",""time""
""fullscreenenter"",""5"",""16722""
","
",858.8799999852199,NA,49,NA,NA,3000,1,NA,NA,images/purpleplanet.jpg,images/alien4,images/alien3,images/rocket1,images/alien3,images/nothing.png,2,real,true,1,common,0,2020-06-25T02:01:04Z,sub98
two-step-fixation,140,686063,0.0-76.0-2.1,FALSE,FALSE,FALSE,FALSE,"""event"",""trial"",""time""
""fullscreenenter"",""5"",""16722""
","
","
","""event"",""trial"",""time""
""fullscreenenter"",""5"",""16722""
","
",NA,images/earth.jpg,NA,NA,NA,NA,NA,NA,NA,NA,NA,NA,NA,NA,NA,fixation,NA,NA,NA,NA,NA,NA,sub98
d3-animate-choice,141,689041,0.0-76.0-0.2,FALSE,FALSE,FALSE,FALSE,"""event"",""trial"",""time""
""fullscreenenter"",""5"",""16722""
","
","
","""event"",""trial"",""time""
""fullscreenenter"",""5"",""16722""
","
",974.6100000047591,NA,48,NA,NA,3000,1,NA,NA,images/earth.jpg,images/rocket1,images/rocket2,null,images/rocket1,NA,1,real,null,2,NA,NA,NA,sub98
d3-animate-choice,142,692263,0.0-76.0-1.2,FALSE,FALSE,FALSE,FALSE,"""event"",""trial"",""time""
""fullscreenenter"",""5"",""16722""
","
","
","""event"",""trial"",""time""
""fullscreenenter"",""5"",""16722""
","
",1218.5649999883026,NA,48,NA,NA,3000,1,NA,NA,images/purpleplanet.jpg,images/alien4,images/alien3,images/rocket1,images/alien4,images/t.png,2,real,true,2,common,1,2020-06-25T02:01:11Z,sub98
two-step-fixation,143,693267,0.0-76.0-2.2,FALSE,FALSE,FALSE,FALSE,"""event"",""trial"",""time""
""fullscreenenter"",""5"",""16722""
","
","
","""event"",""trial"",""time""
""fullscreenenter"",""5"",""16722""
","
",NA,images/earth.jpg,NA,NA,NA,NA,NA,NA,NA,NA,NA,NA,NA,NA,NA,fixation,NA,NA,NA,NA,NA,NA,sub98
d3-animate-choice,144,696291,0.0-76.0-0.3,FALSE,FALSE,FALSE,FALSE,"""event"",""trial"",""time""
""fullscreenenter"",""5"",""16722""
","
","
","""event"",""trial"",""time""
""fullscreenenter"",""5"",""16722""
","
",1022.0550000085495,NA,49,NA,NA,3000,1,NA,NA,images/earth.jpg,images/rocket1,images/rocket2,null,images/rocket2,NA,1,real,null,1,NA,NA,NA,sub98
d3-animate-choice,145,699629,0.0-76.0-1.3,FALSE,FALSE,FALSE,FALSE,"""event"",""trial"",""time""
""fullscreenenter"",""5"",""16722""
","
","
","""event"",""trial"",""time""
""fullscreenenter"",""5"",""16722""
","
",1330.1849999988917,NA,49,NA,NA,3000,1,NA,NA,images/redplanet1.jpg,images/alien2,images/alien1,images/rocket2,images/alien1,images/t.png,2,real,true,1,common,1,2020-06-25T02:01:18Z,sub98
two-step-fixation,146,700634,0.0-76.0-2.3,FALSE,FALSE,FALSE,FALSE,"""event"",""trial"",""time""
""fullscreenenter"",""5"",""16722""
","
","
","""event"",""trial"",""time""
""fullscreenenter"",""5"",""16722""
","
",NA,images/earth.jpg,NA,NA,NA,NA,NA,NA,NA,NA,NA,NA,NA,NA,NA,fixation,NA,NA,NA,NA,NA,NA,sub98
d3-animate-choice,147,703295,0.0-76.0-0.4,FALSE,FALSE,FALSE,FALSE,"""event"",""trial"",""time""
""fullscreenenter"",""5"",""16722""
","
","
","""event"",""trial"",""time""
""fullscreenenter"",""5"",""16722""
","
",655.0599999900442,NA,49,NA,NA,3000,1,NA,NA,images/earth.jpg,images/rocket1,images/rocket2,null,images/rocket2,NA,1,real,null,1,NA,NA,NA,sub98
d3-animate-choice,148,707300,0.0-76.0-1.4,FALSE,FALSE,FALSE,FALSE,"""event"",""trial"",""time""
""fullscreenenter"",""5"",""16722""
","
","
","""event"",""trial"",""time""
""fullscreenenter"",""5"",""16722""
","
",2570.429999992484,NA,48,NA,NA,3000,1,NA,NA,images/purpleplanet.jpg,images/alien4,images/alien3,images/rocket2,images/alien4,images/t.png,2,real,false,2,rare,1,2020-06-25T02:01:26Z,sub98
two-step-fixation,149,708308,0.0-76.0-2.4,FALSE,FALSE,FALSE,FALSE,"""event"",""trial"",""time""
""fullscreenenter"",""5"",""16722""
","
","
","""event"",""trial"",""time""
""fullscreenenter"",""5"",""16722""
","
",NA,images/earth.jpg,NA,NA,NA,NA,NA,NA,NA,NA,NA,NA,NA,NA,NA,fixation,NA,NA,NA,NA,NA,NA,sub98
d3-animate-choice,150,711265,0.0-76.0-0.5,FALSE,FALSE,FALSE,FALSE,"""event"",""trial"",""time""
""fullscreenenter"",""5"",""16722""
","
","
","""event"",""trial"",""time""
""fullscreenenter"",""5"",""16722""
","
",951.5500000270549,NA,48,NA,NA,3000,1,NA,NA,images/earth.jpg,images/rocket1,images/rocket2,null,images/rocket1,NA,1,real,null,2,NA,NA,NA,sub98
d3-animate-choice,151,714627,0.0-76.0-1.5,FALSE,FALSE,FALSE,FALSE,"""event"",""trial"",""time""
""fullscreenenter"",""5"",""16722""
","
","
","""event"",""trial"",""time""
""fullscreenenter"",""5"",""16722""
","
",1358.234999992419,NA,49,NA,NA,3000,1,NA,NA,images/redplanet1.jpg,images/alien2,images/alien1,images/rocket1,images/alien1,images/nothing.png,2,real,false,1,rare,0,2020-06-25T02:01:33Z,sub98
two-step-fixation,152,715632,0.0-76.0-2.5,FALSE,FALSE,FALSE,FALSE,"""event"",""trial"",""time""
""fullscreenenter"",""5"",""16722""
","
","
","""event"",""trial"",""time""
""fullscreenenter"",""5"",""16722""
","
",NA,images/earth.jpg,NA,NA,NA,NA,NA,NA,NA,NA,NA,NA,NA,NA,NA,fixation,NA,NA,NA,NA,NA,NA,sub98
d3-animate-choice,153,718311,0.0-76.0-0.6,FALSE,FALSE,FALSE,FALSE,"""event"",""trial"",""time""
""fullscreenenter"",""5"",""16722""
","
","
","""event"",""trial"",""time""
""fullscreenenter"",""5"",""16722""
","
",673.49999997532,NA,48,NA,NA,3000,1,NA,NA,images/earth.jpg,images/rocket1,images/rocket2,null,images/rocket1,NA,1,real,null,2,NA,NA,NA,sub98
d3-animate-choice,154,721058,0.0-76.0-1.6,FALSE,FALSE,FALSE,FALSE,"""event"",""trial"",""time""
""fullscreenenter"",""5"",""16722""
","
","
","""event"",""trial"",""time""
""fullscreenenter"",""5"",""16722""
","
",740.9850000112783,NA,49,NA,NA,3000,1,NA,NA,images/redplanet1.jpg,images/alien2,images/alien1,images/rocket1,images/alien1,images/t.png,2,real,false,1,rare,1,2020-06-25T02:01:40Z,sub98
two-step-fixation,155,722062,0.0-76.0-2.6,FALSE,FALSE,FALSE,FALSE,"""event"",""trial"",""time""
""fullscreenenter"",""5"",""16722""
","
","
","""event"",""trial"",""time""
""fullscreenenter"",""5"",""16722""
","
",NA,images/earth.jpg,NA,NA,NA,NA,NA,NA,NA,NA,NA,NA,NA,NA,NA,fixation,NA,NA,NA,NA,NA,NA,sub98
d3-animate-choice,156,724513,0.0-76.0-0.7,FALSE,FALSE,FALSE,FALSE,"""event"",""trial"",""time""
""fullscreenenter"",""5"",""16722""
","
","
","""event"",""trial"",""time""
""fullscreenenter"",""5"",""16722""
","
",444.93499997770414,NA,48,NA,NA,3000,1,NA,NA,images/earth.jpg,images/rocket1,images/rocket2,null,images/rocket1,NA,1,real,null,2,NA,NA,NA,sub98
d3-animate-choice,157,727802,0.0-76.0-1.7,FALSE,FALSE,FALSE,FALSE,"""event"",""trial"",""time""
""fullscreenenter"",""5"",""16722""
","
","
","""event"",""trial"",""time""
""fullscreenenter"",""5"",""16722""
","
",1281.3049999822397,NA,48,NA,NA,3000,1,NA,NA,images/purpleplanet.jpg,images/alien4,images/alien3,images/rocket1,images/alien4,images/t.png,2,real,true,2,common,1,2020-06-25T02:01:47Z,sub98
two-step-fixation,158,728807,0.0-76.0-2.7,FALSE,FALSE,FALSE,FALSE,"""event"",""trial"",""time""
""fullscreenenter"",""5"",""16722""
","
","
","""event"",""trial"",""time""
""fullscreenenter"",""5"",""16722""
","
",NA,images/earth.jpg,NA,NA,NA,NA,NA,NA,NA,NA,NA,NA,NA,NA,NA,fixation,NA,NA,NA,NA,NA,NA,sub98
d3-animate-choice,159,731230,0.0-76.0-0.8,FALSE,FALSE,FALSE,FALSE,"""event"",""trial"",""time""
""fullscreenenter"",""5"",""16722""
","
","
","""event"",""trial"",""time""
""fullscreenenter"",""5"",""16722""
","
",417.844999989029,NA,48,NA,NA,3000,1,NA,NA,images/earth.jpg,images/rocket1,images/rocket2,null,images/rocket1,NA,1,real,null,2,NA,NA,NA,sub98
d3-animate-choice,160,734760,0.0-76.0-1.8,FALSE,FALSE,FALSE,FALSE,"""event"",""trial"",""time""
""fullscreenenter"",""5"",""16722""
","
","
","""event"",""trial"",""time""
""fullscreenenter"",""5"",""16722""
","
",1524.604999984149,NA,48,NA,NA,3000,1,NA,NA,images/purpleplanet.jpg,images/alien4,images/alien3,images/rocket1,images/alien4,images/t.png,2,real,true,2,common,1,2020-06-25T02:01:54Z,sub98
two-step-fixation,161,735766,0.0-76.0-2.8,FALSE,FALSE,FALSE,FALSE,"""event"",""trial"",""time""
""fullscreenenter"",""5"",""16722""
","
","
","""event"",""trial"",""time""
""fullscreenenter"",""5"",""16722""
","
",NA,images/earth.jpg,NA,NA,NA,NA,NA,NA,NA,NA,NA,NA,NA,NA,NA,fixation,NA,NA,NA,NA,NA,NA,sub98
d3-animate-choice,162,738126,0.0-76.0-0.9,FALSE,FALSE,FALSE,FALSE,"""event"",""trial"",""time""
""fullscreenenter"",""5"",""16722""
","
","
","""event"",""trial"",""time""
""fullscreenenter"",""5"",""16722""
","
",352.6750000019092,NA,48,NA,NA,3000,1,NA,NA,images/earth.jpg,images/rocket1,images/rocket2,null,images/rocket1,NA,1,real,null,2,NA,NA,NA,sub98
d3-animate-choice,163,740823,0.0-76.0-1.9,FALSE,FALSE,FALSE,FALSE,"""event"",""trial"",""time""
""fullscreenenter"",""5"",""16722""
","
","
","""event"",""trial"",""time""
""fullscreenenter"",""5"",""16722""
","
",692.414999997709,NA,48,NA,NA,3000,1,NA,NA,images/purpleplanet.jpg,images/alien4,images/alien3,images/rocket1,images/alien4,images/t.png,2,real,true,2,common,1,2020-06-25T02:02:00Z,sub98
two-step-fixation,164,741827,0.0-76.0-2.9,FALSE,FALSE,FALSE,FALSE,"""event"",""trial"",""time""
""fullscreenenter"",""5"",""16722""
","
","
","""event"",""trial"",""time""
""fullscreenenter"",""5"",""16722""
","
",NA,images/earth.jpg,NA,NA,NA,NA,NA,NA,NA,NA,NA,NA,NA,NA,NA,fixation,NA,NA,NA,NA,NA,NA,sub98
d3-animate-choice,165,744220,0.0-76.0-0.10,FALSE,FALSE,FALSE,FALSE,"""event"",""trial"",""time""
""fullscreenenter"",""5"",""16722""
","
","
","""event"",""trial"",""time""
""fullscreenenter"",""5"",""16722""
","
",387.02500000363216,NA,48,NA,NA,3000,1,NA,NA,images/earth.jpg,images/rocket1,images/rocket2,null,images/rocket1,NA,1,real,null,2,NA,NA,NA,sub98
d3-animate-choice,166,746811,0.0-76.0-1.10,FALSE,FALSE,FALSE,FALSE,"""event"",""trial"",""time""
""fullscreenenter"",""5"",""16722""
","
","
","""event"",""trial"",""time""
""fullscreenenter"",""5"",""16722""
","
",584.900000016205,NA,48,NA,NA,3000,1,2381.7950000229757,48,images/purpleplanet.jpg,images/alien4,images/alien3,images/rocket1,images/alien4,images/t.png,2,real,true,2,common,1,2020-06-25T02:02:06Z,sub98
two-step-fixation,167,747815,0.0-76.0-2.10,FALSE,FALSE,FALSE,FALSE,"""event"",""trial"",""time""
""fullscreenenter"",""5"",""16722""
","
","
","""event"",""trial"",""time""
""fullscreenenter"",""5"",""16722""
","
",NA,images/earth.jpg,NA,NA,NA,NA,NA,NA,NA,NA,NA,NA,NA,NA,NA,fixation,NA,NA,NA,NA,NA,NA,sub98
d3-animate-choice,168,750236,0.0-76.0-0.11,FALSE,FALSE,FALSE,FALSE,"""event"",""trial"",""time""
""fullscreenenter"",""5"",""16722""
","
","
","""event"",""trial"",""time""
""fullscreenenter"",""5"",""16722""
","
",416.50499997194856,NA,48,NA,NA,3000,1,NA,NA,images/earth.jpg,images/rocket1,images/rocket2,null,images/rocket1,NA,1,real,null,2,NA,NA,NA,sub98
d3-animate-choice,169,752982,0.0-76.0-1.11,FALSE,FALSE,FALSE,FALSE,"""event"",""trial"",""time""
""fullscreenenter"",""5"",""16722""
","
","
","""event"",""trial"",""time""
""fullscreenenter"",""5"",""16722""
","
",740.4099999985192,NA,48,NA,NA,3000,1,NA,NA,images/purpleplanet.jpg,images/alien4,images/alien3,images/rocket1,images/alien4,images/t.png,2,real,true,2,common,1,2020-06-25T02:02:12Z,sub98
two-step-fixation,170,753986,0.0-76.0-2.11,FALSE,FALSE,FALSE,FALSE,"""event"",""trial"",""time""
""fullscreenenter"",""5"",""16722""
","
","
","""event"",""trial"",""time""
""fullscreenenter"",""5"",""16722""
","
",NA,images/earth.jpg,NA,NA,NA,NA,NA,NA,NA,NA,NA,NA,NA,NA,NA,fixation,NA,NA,NA,NA,NA,NA,sub98
d3-animate-choice,171,756455,0.0-76.0-0.12,FALSE,FALSE,FALSE,FALSE,"""event"",""trial"",""time""
""fullscreenenter"",""5"",""16722""
","
","
","""event"",""trial"",""time""
""fullscreenenter"",""5"",""16722""
","
",464.20499999658205,NA,48,NA,NA,3000,1,NA,NA,images/earth.jpg,images/rocket1,images/rocket2,null,images/rocket1,NA,1,real,null,2,NA,NA,NA,sub98
d3-animate-choice,172,758965,0.0-76.0-1.12,FALSE,FALSE,FALSE,FALSE,"""event"",""trial"",""time""
""fullscreenenter"",""5"",""16722""
","
","
","""event"",""trial"",""time""
""fullscreenenter"",""5"",""16722""
","
",506.7900000140071,NA,48,NA,NA,3000,1,NA,NA,images/purpleplanet.jpg,images/alien4,images/alien3,images/rocket1,images/alien4,images/t.png,2,real,true,2,common,1,2020-06-25T02:02:18Z,sub98
two-step-fixation,173,759970,0.0-76.0-2.12,FALSE,FALSE,FALSE,FALSE,"""event"",""trial"",""time""
""fullscreenenter"",""5"",""16722""
","
","
","""event"",""trial"",""time""
""fullscreenenter"",""5"",""16722""
","
",NA,images/earth.jpg,NA,NA,NA,NA,NA,NA,NA,NA,NA,NA,NA,NA,NA,fixation,NA,NA,NA,NA,NA,NA,sub98
d3-animate-choice,174,762384,0.0-76.0-0.13,FALSE,FALSE,FALSE,FALSE,"""event"",""trial"",""time""
""fullscreenenter"",""5"",""16722""
","
","
","""event"",""trial"",""time""
""fullscreenenter"",""5"",""16722""
","
",404.06000000075437,NA,48,NA,NA,3000,1,NA,NA,images/earth.jpg,images/rocket1,images/rocket2,null,images/rocket1,NA,1,real,null,2,NA,NA,NA,sub98
d3-animate-choice,175,765350,0.0-76.0-1.13,FALSE,FALSE,FALSE,FALSE,"""event"",""trial"",""time""
""fullscreenenter"",""5"",""16722""
","
","
","""event"",""trial"",""time""
""fullscreenenter"",""5"",""16722""
","
",961.3750000135042,NA,49,NA,NA,3000,1,NA,NA,images/redplanet1.jpg,images/alien2,images/alien1,images/rocket1,images/alien1,images/nothing.png,2,real,false,1,rare,0,2020-06-25T02:02:24Z,sub98
two-step-fixation,176,766356,0.0-76.0-2.13,FALSE,FALSE,FALSE,FALSE,"""event"",""trial"",""time""
""fullscreenenter"",""5"",""16722""
","
","
","""event"",""trial"",""time""
""fullscreenenter"",""5"",""16722""
","
",NA,images/earth.jpg,NA,NA,NA,NA,NA,NA,NA,NA,NA,NA,NA,NA,NA,fixation,NA,NA,NA,NA,NA,NA,sub98
d3-animate-choice,177,768920,0.0-76.0-0.14,FALSE,FALSE,FALSE,FALSE,"""event"",""trial"",""time""
""fullscreenenter"",""5"",""16722""
","
","
","""event"",""trial"",""time""
""fullscreenenter"",""5"",""16722""
","
",558.4749999979977,NA,49,NA,NA,3000,1,NA,NA,images/earth.jpg,images/rocket1,images/rocket2,null,images/rocket2,NA,1,real,null,1,NA,NA,NA,sub98
d3-animate-choice,178,771721,0.0-76.0-1.14,FALSE,FALSE,FALSE,FALSE,"""event"",""trial"",""time""
""fullscreenenter"",""5"",""16722""
","
","
","""event"",""trial"",""time""
""fullscreenenter"",""5"",""16722""
","
",796.3899999740534,NA,49,NA,NA,3000,1,NA,NA,images/redplanet1.jpg,images/alien2,images/alien1,images/rocket2,images/alien1,images/nothing.png,2,real,true,1,common,0,2020-06-25T02:02:31Z,sub98
two-step-fixation,179,772727,0.0-76.0-2.14,FALSE,FALSE,FALSE,FALSE,"""event"",""trial"",""time""
""fullscreenenter"",""5"",""16722""
","
","
","""event"",""trial"",""time""
""fullscreenenter"",""5"",""16722""
","
",NA,images/earth.jpg,NA,NA,NA,NA,NA,NA,NA,NA,NA,NA,NA,NA,NA,fixation,NA,NA,NA,NA,NA,NA,sub98
d3-animate-choice,180,775114,0.0-76.0-0.15,FALSE,FALSE,FALSE,FALSE,"""event"",""trial"",""time""
""fullscreenenter"",""5"",""16722""
","
","
","""event"",""trial"",""time""
""fullscreenenter"",""5"",""16722""
","
",382.11999999475665,NA,48,NA,NA,3000,1,NA,NA,images/earth.jpg,images/rocket1,images/rocket2,null,images/rocket1,NA,1,real,null,2,NA,NA,NA,sub98
d3-animate-choice,181,778626,0.0-76.0-1.15,FALSE,FALSE,FALSE,FALSE,"""event"",""trial"",""time""
""fullscreenenter"",""5"",""16722""
","
","
","""event"",""trial"",""time""
""fullscreenenter"",""5"",""16722""
","
",1507.3049999773502,NA,48,NA,NA,3000,1,NA,NA,images/purpleplanet.jpg,images/alien4,images/alien3,images/rocket1,images/alien4,images/nothing.png,2,real,true,2,common,0,2020-06-25T02:02:37Z,sub98
two-step-fixation,182,779630,0.0-76.0-2.15,FALSE,FALSE,FALSE,FALSE,"""event"",""trial"",""time""
""fullscreenenter"",""5"",""16722""
","
","
","""event"",""trial"",""time""
""fullscreenenter"",""5"",""16722""
","
",NA,images/earth.jpg,NA,NA,NA,NA,NA,NA,NA,NA,NA,NA,NA,NA,NA,fixation,NA,NA,NA,NA,NA,NA,sub98
d3-animate-choice,183,781996,0.0-76.0-0.16,FALSE,FALSE,FALSE,FALSE,"""event"",""trial"",""time""
""fullscreenenter"",""5"",""16722""
","
","
","""event"",""trial"",""time""
""fullscreenenter"",""5"",""16722""
","
",359.21500000404194,NA,48,NA,NA,3000,1,NA,NA,images/earth.jpg,images/rocket1,images/rocket2,null,images/rocket1,NA,1,real,null,2,NA,NA,NA,sub98
d3-animate-choice,184,784516,0.0-76.0-1.16,FALSE,FALSE,FALSE,FALSE,"""event"",""trial"",""time""
""fullscreenenter"",""5"",""16722""
","
","
","""event"",""trial"",""time""
""fullscreenenter"",""5"",""16722""
","
",513.360000011744,NA,48,NA,NA,3000,1,NA,NA,images/purpleplanet.jpg,images/alien4,images/alien3,images/rocket1,images/alien4,images/t.png,2,real,true,2,common,1,2020-06-25T02:02:43Z,sub98
two-step-fixation,185,785521,0.0-76.0-2.16,FALSE,FALSE,FALSE,FALSE,"""event"",""trial"",""time""
""fullscreenenter"",""5"",""16722""
","
","
","""event"",""trial"",""time""
""fullscreenenter"",""5"",""16722""
","
",NA,images/earth.jpg,NA,NA,NA,NA,NA,NA,NA,NA,NA,NA,NA,NA,NA,fixation,NA,NA,NA,NA,NA,NA,sub98
d3-animate-choice,186,787965,0.0-76.0-0.17,FALSE,FALSE,FALSE,FALSE,"""event"",""trial"",""time""
""fullscreenenter"",""5"",""16722""
","
","
","""event"",""trial"",""time""
""fullscreenenter"",""5"",""16722""
","
",437.34499998390675,NA,48,NA,NA,3000,1,NA,NA,images/earth.jpg,images/rocket1,images/rocket2,null,images/rocket1,NA,1,real,null,2,NA,NA,NA,sub98
d3-animate-choice,187,790662,0.0-76.0-1.17,FALSE,FALSE,FALSE,FALSE,"""event"",""trial"",""time""
""fullscreenenter"",""5"",""16722""
","
","
","""event"",""trial"",""time""
""fullscreenenter"",""5"",""16722""
","
",691.8600000208244,NA,49,NA,NA,3000,1,NA,NA,images/redplanet1.jpg,images/alien2,images/alien1,images/rocket1,images/alien1,images/nothing.png,2,real,false,1,rare,0,2020-06-25T02:02:50Z,sub98
two-step-fixation,188,791668,0.0-76.0-2.17,FALSE,FALSE,FALSE,FALSE,"""event"",""trial"",""time""
""fullscreenenter"",""5"",""16722""
","
","
","""event"",""trial"",""time""
""fullscreenenter"",""5"",""16722""
","
",NA,images/earth.jpg,NA,NA,NA,NA,NA,NA,NA,NA,NA,NA,NA,NA,NA,fixation,NA,NA,NA,NA,NA,NA,sub98
d3-animate-choice,189,794114,0.0-76.0-0.18,FALSE,FALSE,FALSE,FALSE,"""event"",""trial"",""time""
""fullscreenenter"",""5"",""16722""
","
","
","""event"",""trial"",""time""
""fullscreenenter"",""5"",""16722""
","
",440.1850000140257,NA,48,NA,NA,3000,1,NA,NA,images/earth.jpg,images/rocket1,images/rocket2,null,images/rocket1,NA,1,real,null,2,NA,NA,NA,sub98
d3-animate-choice,190,796892,0.0-76.0-1.18,FALSE,FALSE,FALSE,FALSE,"""event"",""trial"",""time""
""fullscreenenter"",""5"",""16722""
","
","
","""event"",""trial"",""time""
""fullscreenenter"",""5"",""16722""
","
",773.0049999954645,NA,48,NA,NA,3000,1,NA,NA,images/purpleplanet.jpg,images/alien4,images/alien3,images/rocket1,images/alien4,images/nothing.png,2,real,true,2,common,0,2020-06-25T02:02:56Z,sub98
two-step-fixation,191,797897,0.0-76.0-2.18,FALSE,FALSE,FALSE,FALSE,"""event"",""trial"",""time""
""fullscreenenter"",""5"",""16722""
","
","
","""event"",""trial"",""time""
""fullscreenenter"",""5"",""16722""
","
",NA,images/earth.jpg,NA,NA,NA,NA,NA,NA,NA,NA,NA,NA,NA,NA,NA,fixation,NA,NA,NA,NA,NA,NA,sub98
d3-animate-choice,192,800219,0.0-76.0-0.19,FALSE,FALSE,FALSE,FALSE,"""event"",""trial"",""time""
""fullscreenenter"",""5"",""16722""
","
","
","""event"",""trial"",""time""
""fullscreenenter"",""5"",""16722""
","
",317.74999998742715,NA,48,NA,NA,3000,1,NA,NA,images/earth.jpg,images/rocket1,images/rocket2,null,images/rocket1,NA,1,real,null,2,NA,NA,NA,sub98
d3-animate-choice,193,802781,0.0-76.0-1.19,FALSE,FALSE,FALSE,FALSE,"""event"",""trial"",""time""
""fullscreenenter"",""5"",""16722""
","
","
","""event"",""trial"",""time""
""fullscreenenter"",""5"",""16722""
","
",555.5349999922328,NA,48,NA,NA,3000,1,NA,NA,images/purpleplanet.jpg,images/alien4,images/alien3,images/rocket1,images/alien4,images/t.png,2,real,true,2,common,1,2020-06-25T02:03:02Z,sub98
two-step-fixation,194,803785,0.0-76.0-2.19,FALSE,FALSE,FALSE,FALSE,"""event"",""trial"",""time""
""fullscreenenter"",""5"",""16722""
","
","
","""event"",""trial"",""time""
""fullscreenenter"",""5"",""16722""
","
",NA,images/earth.jpg,NA,NA,NA,NA,NA,NA,NA,NA,NA,NA,NA,NA,NA,fixation,NA,NA,NA,NA,NA,NA,sub98
d3-animate-choice,195,806310,0.0-76.0-0.20,FALSE,FALSE,FALSE,FALSE,"""event"",""trial"",""time""
""fullscreenenter"",""5"",""16722""
","
","
","""event"",""trial"",""time""
""fullscreenenter"",""5"",""16722""
","
",519.3100000033155,NA,48,NA,NA,3000,1,NA,NA,images/earth.jpg,images/rocket1,images/rocket2,null,images/rocket1,NA,1,real,null,2,NA,NA,NA,sub98
d3-animate-choice,196,808849,0.0-76.0-1.20,FALSE,FALSE,FALSE,FALSE,"""event"",""trial"",""time""
""fullscreenenter"",""5"",""16722""
","
","
","""event"",""trial"",""time""
""fullscreenenter"",""5"",""16722""
","
",534.6849999914411,NA,48,NA,NA,3000,1,NA,NA,images/purpleplanet.jpg,images/alien4,images/alien3,images/rocket1,images/alien4,images/t.png,2,real,true,2,common,1,2020-06-25T02:03:08Z,sub98
two-step-fixation,197,809853,0.0-76.0-2.20,FALSE,FALSE,FALSE,FALSE,"""event"",""trial"",""time""
""fullscreenenter"",""5"",""16722""
","
","
","""event"",""trial"",""time""
""fullscreenenter"",""5"",""16722""
","
",NA,images/earth.jpg,NA,NA,NA,NA,NA,NA,NA,NA,NA,NA,NA,NA,NA,fixation,NA,NA,NA,NA,NA,NA,sub98
d3-animate-choice,198,812241,0.0-76.0-0.21,FALSE,FALSE,FALSE,FALSE,"""event"",""trial"",""time""
""fullscreenenter"",""5"",""16722""
","
","
","""event"",""trial"",""time""
""fullscreenenter"",""5"",""16722""
","
",383.479999989504,NA,49,NA,NA,3000,1,NA,NA,images/earth.jpg,images/rocket1,images/rocket2,null,images/rocket2,NA,1,real,null,1,NA,NA,NA,sub98
d3-animate-choice,199,815236,0.0-76.0-1.21,FALSE,FALSE,FALSE,FALSE,"""event"",""trial"",""time""
""fullscreenenter"",""5"",""16722""
","
","
","""event"",""trial"",""time""
""fullscreenenter"",""5"",""16722""
","
",987.9899999941699,NA,49,NA,NA,3000,1,NA,NA,images/redplanet1.jpg,images/alien2,images/alien1,images/rocket2,images/alien1,images/t.png,2,real,true,1,common,1,2020-06-25T02:03:14Z,sub98
two-step-fixation,200,816240,0.0-76.0-2.21,FALSE,FALSE,FALSE,FALSE,"""event"",""trial"",""time""
""fullscreenenter"",""5"",""16722""
","
","
","""event"",""trial"",""time""
""fullscreenenter"",""5"",""16722""
","
",NA,images/earth.jpg,NA,NA,NA,NA,NA,NA,NA,NA,NA,NA,NA,NA,NA,fixation,NA,NA,NA,NA,NA,NA,sub98
d3-animate-choice,201,818470,0.0-76.0-0.22,FALSE,FALSE,FALSE,FALSE,"""event"",""trial"",""time""
""fullscreenenter"",""5"",""16722""
","
","
","""event"",""trial"",""time""
""fullscreenenter"",""5"",""16722""
","
",223.90499999164604,NA,49,NA,NA,3000,1,NA,NA,images/earth.jpg,images/rocket1,images/rocket2,null,images/rocket2,NA,1,real,null,1,NA,NA,NA,sub98
d3-animate-choice,202,821444,0.0-76.0-1.22,FALSE,FALSE,FALSE,FALSE,"""event"",""trial"",""time""
""fullscreenenter"",""5"",""16722""
","
","
","""event"",""trial"",""time""
""fullscreenenter"",""5"",""16722""
","
",968.0099999823142,NA,48,NA,NA,3000,1,NA,NA,images/purpleplanet.jpg,images/alien4,images/alien3,images/rocket2,images/alien4,images/t.png,2,real,false,2,rare,1,2020-06-25T02:03:20Z,sub98
two-step-fixation,203,822449,0.0-76.0-2.22,FALSE,FALSE,FALSE,FALSE,"""event"",""trial"",""time""
""fullscreenenter"",""5"",""16722""
","
","
","""event"",""trial"",""time""
""fullscreenenter"",""5"",""16722""
","
",NA,images/earth.jpg,NA,NA,NA,NA,NA,NA,NA,NA,NA,NA,NA,NA,NA,fixation,NA,NA,NA,NA,NA,NA,sub98
d3-animate-choice,204,824941,0.0-76.0-0.23,FALSE,FALSE,FALSE,FALSE,"""event"",""trial"",""time""
""fullscreenenter"",""5"",""16722""
","
","
","""event"",""trial"",""time""
""fullscreenenter"",""5"",""16722""
","
",488.5450000001583,NA,49,NA,NA,3000,1,NA,NA,images/earth.jpg,images/rocket1,images/rocket2,null,images/rocket2,NA,1,real,null,1,NA,NA,NA,sub98
d3-animate-choice,205,828215,0.0-76.0-1.23,FALSE,FALSE,FALSE,FALSE,"""event"",""trial"",""time""
""fullscreenenter"",""5"",""16722""
","
","
","""event"",""trial"",""time""
""fullscreenenter"",""5"",""16722""
","
",1269.6999999752734,NA,49,NA,NA,3000,1,NA,NA,images/redplanet1.jpg,images/alien2,images/alien1,images/rocket2,images/alien1,images/t.png,2,real,true,1,common,1,2020-06-25T02:03:27Z,sub98
two-step-fixation,206,829219,0.0-76.0-2.23,FALSE,FALSE,FALSE,FALSE,"""event"",""trial"",""time""
""fullscreenenter"",""5"",""16722""
","
","
","""event"",""trial"",""time""
""fullscreenenter"",""5"",""16722""
","
",NA,images/earth.jpg,NA,NA,NA,NA,NA,NA,NA,NA,NA,NA,NA,NA,NA,fixation,NA,NA,NA,NA,NA,NA,sub98
d3-animate-choice,207,831690,0.0-76.0-0.24,FALSE,FALSE,FALSE,FALSE,"""event"",""trial"",""time""
""fullscreenenter"",""5"",""16722""
","
","
","""event"",""trial"",""time""
""fullscreenenter"",""5"",""16722""
","
",464.5299999974668,NA,48,NA,NA,3000,1,NA,NA,images/earth.jpg,images/rocket1,images/rocket2,null,images/rocket1,NA,1,real,null,2,NA,NA,NA,sub98
d3-animate-choice,208,834296,0.0-76.0-1.24,FALSE,FALSE,FALSE,FALSE,"""event"",""trial"",""time""
""fullscreenenter"",""5"",""16722""
","
","
","""event"",""trial"",""time""
""fullscreenenter"",""5"",""16722""
","
",599.5849999890197,NA,48,NA,NA,3000,1,NA,NA,images/purpleplanet.jpg,images/alien4,images/alien3,images/rocket1,images/alien4,images/nothing.png,2,real,true,2,common,0,2020-06-25T02:03:33Z,sub98
two-step-fixation,209,835303,0.0-76.0-2.24,FALSE,FALSE,FALSE,FALSE,"""event"",""trial"",""time""
""fullscreenenter"",""5"",""16722""
","
","
","""event"",""trial"",""time""
""fullscreenenter"",""5"",""16722""
","
",NA,images/earth.jpg,NA,NA,NA,NA,NA,NA,NA,NA,NA,NA,NA,NA,NA,fixation,NA,NA,NA,NA,NA,NA,sub98
d3-animate-choice,210,837666,0.0-76.0-0.25,FALSE,FALSE,FALSE,FALSE,"""event"",""trial"",""time""
""fullscreenenter"",""5"",""16722""
","
","
","""event"",""trial"",""time""
""fullscreenenter"",""5"",""16722""
","
",356.5299999900162,NA,48,NA,NA,3000,1,NA,NA,images/earth.jpg,images/rocket1,images/rocket2,null,images/rocket1,NA,1,real,null,2,NA,NA,NA,sub98
d3-animate-choice,211,840199,0.0-76.0-1.25,FALSE,FALSE,FALSE,FALSE,"""event"",""trial"",""time""
""fullscreenenter"",""5"",""16722""
","
","
","""event"",""trial"",""time""
""fullscreenenter"",""5"",""16722""
","
",527.4100000096951,NA,48,NA,NA,3000,1,NA,NA,images/purpleplanet.jpg,images/alien4,images/alien3,images/rocket1,images/alien4,images/t.png,2,real,true,2,common,1,2020-06-25T02:03:39Z,sub98
two-step-fixation,212,841204,0.0-76.0-2.25,FALSE,FALSE,FALSE,FALSE,"""event"",""trial"",""time""
""fullscreenenter"",""5"",""16722""
","
","
","""event"",""trial"",""time""
""fullscreenenter"",""5"",""16722""
","
",NA,images/earth.jpg,NA,NA,NA,NA,NA,NA,NA,NA,NA,NA,NA,NA,NA,fixation,NA,NA,NA,NA,NA,NA,sub98
d3-animate-choice,213,843866,0.0-76.0-0.26,FALSE,FALSE,FALSE,FALSE,"""event"",""trial"",""time""
""fullscreenenter"",""5"",""16722""
","
","
","""event"",""trial"",""time""
""fullscreenenter"",""5"",""16722""
","
",653.1949999916833,NA,48,NA,NA,3000,1,2135.5099999927916,48,images/earth.jpg,images/rocket1,images/rocket2,null,images/rocket1,NA,1,real,null,2,NA,NA,NA,sub98
d3-animate-choice,214,846549,0.0-76.0-1.26,FALSE,FALSE,FALSE,FALSE,"""event"",""trial"",""time""
""fullscreenenter"",""5"",""16722""
","
","
","""event"",""trial"",""time""
""fullscreenenter"",""5"",""16722""
","
",677.624999982072,NA,48,NA,NA,3000,1,NA,NA,images/purpleplanet.jpg,images/alien4,images/alien3,images/rocket1,images/alien4,images/t.png,2,real,true,2,common,1,2020-06-25T02:03:45Z,sub98
two-step-fixation,215,847554,0.0-76.0-2.26,FALSE,FALSE,FALSE,FALSE,"""event"",""trial"",""time""
""fullscreenenter"",""5"",""16722""
","
","
","""event"",""trial"",""time""
""fullscreenenter"",""5"",""16722""
","
",NA,images/earth.jpg,NA,NA,NA,NA,NA,NA,NA,NA,NA,NA,NA,NA,NA,fixation,NA,NA,NA,NA,NA,NA,sub98
d3-animate-choice,216,849973,0.0-76.0-0.27,FALSE,FALSE,FALSE,FALSE,"""event"",""trial"",""time""
""fullscreenenter"",""5"",""16722""
","
","
","""event"",""trial"",""time""
""fullscreenenter"",""5"",""16722""
","
",413.8700000185054,NA,48,NA,NA,3000,1,NA,NA,images/earth.jpg,images/rocket1,images/rocket2,null,images/rocket1,NA,1,real,null,2,NA,NA,NA,sub98
d3-animate-choice,217,852802,0.0-76.0-1.27,FALSE,FALSE,FALSE,FALSE,"""event"",""trial"",""time""
""fullscreenenter"",""5"",""16722""
","
","
","""event"",""trial"",""time""
""fullscreenenter"",""5"",""16722""
","
",823.0000000039581,NA,48,NA,NA,3000,1,NA,NA,images/purpleplanet.jpg,images/alien4,images/alien3,images/rocket1,images/alien4,images/t.png,2,real,true,2,common,1,2020-06-25T02:03:52Z,sub98
two-step-fixation,218,853811,0.0-76.0-2.27,FALSE,FALSE,FALSE,FALSE,"""event"",""trial"",""time""
""fullscreenenter"",""5"",""16722""
","
","
","""event"",""trial"",""time""
""fullscreenenter"",""5"",""16722""
","
",NA,images/earth.jpg,NA,NA,NA,NA,NA,NA,NA,NA,NA,NA,NA,NA,NA,fixation,NA,NA,NA,NA,NA,NA,sub98
d3-animate-choice,219,856325,0.0-76.0-0.28,FALSE,FALSE,FALSE,FALSE,"""event"",""trial"",""time""
""fullscreenenter"",""5"",""16722""
","
","
","""event"",""trial"",""time""
""fullscreenenter"",""5"",""16722""
","
",509.1799999936484,NA,48,NA,NA,3000,1,NA,NA,images/earth.jpg,images/rocket1,images/rocket2,null,images/rocket1,NA,1,real,null,2,NA,NA,NA,sub98
d3-animate-choice,220,859798,0.0-76.0-1.28,FALSE,FALSE,FALSE,FALSE,"""event"",""trial"",""time""
""fullscreenenter"",""5"",""16722""
","
","
","""event"",""trial"",""time""
""fullscreenenter"",""5"",""16722""
","
",1466.0450000083074,NA,49,NA,NA,3000,1,NA,NA,images/redplanet1.jpg,images/alien2,images/alien1,images/rocket1,images/alien1,images/t.png,2,real,false,1,rare,1,2020-06-25T02:03:59Z,sub98
two-step-fixation,221,860805,0.0-76.0-2.28,FALSE,FALSE,FALSE,FALSE,"""event"",""trial"",""time""
""fullscreenenter"",""5"",""16722""
","
","
","""event"",""trial"",""time""
""fullscreenenter"",""5"",""16722""
","
",NA,images/earth.jpg,NA,NA,NA,NA,NA,NA,NA,NA,NA,NA,NA,NA,NA,fixation,NA,NA,NA,NA,NA,NA,sub98
d3-animate-choice,222,863674,0.0-76.0-0.29,FALSE,FALSE,FALSE,FALSE,"""event"",""trial"",""time""
""fullscreenenter"",""5"",""16722""
","
","
","""event"",""trial"",""time""
""fullscreenenter"",""5"",""16722""
","
",864.7150000033434,NA,48,NA,NA,3000,1,NA,NA,images/earth.jpg,images/rocket1,images/rocket2,null,images/rocket1,NA,1,real,null,2,NA,NA,NA,sub98
d3-animate-choice,223,867082,0.0-76.0-1.29,FALSE,FALSE,FALSE,FALSE,"""event"",""trial"",""time""
""fullscreenenter"",""5"",""16722""
","
","
","""event"",""trial"",""time""
""fullscreenenter"",""5"",""16722""
","
",1402.0100000198,NA,48,NA,NA,3000,1,NA,NA,images/purpleplanet.jpg,images/alien4,images/alien3,images/rocket1,images/alien4,images/t.png,2,real,true,2,common,1,2020-06-25T02:04:06Z,sub98
two-step-fixation,224,868087,0.0-76.0-2.29,FALSE,FALSE,FALSE,FALSE,"""event"",""trial"",""time""
""fullscreenenter"",""5"",""16722""
","
","
","""event"",""trial"",""time""
""fullscreenenter"",""5"",""16722""
","
",NA,images/earth.jpg,NA,NA,NA,NA,NA,NA,NA,NA,NA,NA,NA,NA,NA,fixation,NA,NA,NA,NA,NA,NA,sub98
d3-animate-choice,225,870445,0.0-76.0-0.30,FALSE,FALSE,FALSE,FALSE,"""event"",""trial"",""time""
""fullscreenenter"",""5"",""16722""
","
","
","""event"",""trial"",""time""
""fullscreenenter"",""5"",""16722""
","
",352.58999999496154,NA,48,NA,NA,3000,1,NA,NA,images/earth.jpg,images/rocket1,images/rocket2,null,images/rocket1,NA,1,real,null,2,NA,NA,NA,sub98
d3-animate-choice,226,873005,0.0-76.0-1.30,FALSE,FALSE,FALSE,FALSE,"""event"",""trial"",""time""
""fullscreenenter"",""5"",""16722""
","
","
","""event"",""trial"",""time""
""fullscreenenter"",""5"",""16722""
","
",553.3500000019558,NA,48,NA,NA,3000,1,NA,NA,images/purpleplanet.jpg,images/alien4,images/alien3,images/rocket1,images/alien4,images/nothing.png,2,real,true,2,common,0,2020-06-25T02:04:12Z,sub98
two-step-fixation,227,874009,0.0-76.0-2.30,FALSE,FALSE,FALSE,FALSE,"""event"",""trial"",""time""
""fullscreenenter"",""5"",""16722""
","
","
","""event"",""trial"",""time""
""fullscreenenter"",""5"",""16722""
","
",NA,images/earth.jpg,NA,NA,NA,NA,NA,NA,NA,NA,NA,NA,NA,NA,NA,fixation,NA,NA,NA,NA,NA,NA,sub98
d3-animate-choice,228,877726,0.0-76.0-0.31,FALSE,FALSE,FALSE,FALSE,"""event"",""trial"",""time""
""fullscreenenter"",""5"",""16722""
","
","
","""event"",""trial"",""time""
""fullscreenenter"",""5"",""16722""
","
",1711.814999987837,NA,48,NA,NA,3000,1,NA,NA,images/earth.jpg,images/rocket1,images/rocket2,null,images/rocket1,NA,1,real,null,2,NA,NA,NA,sub98
d3-animate-choice,229,880771,0.0-76.0-1.31,FALSE,FALSE,FALSE,FALSE,"""event"",""trial"",""time""
""fullscreenenter"",""5"",""16722""
","
","
","""event"",""trial"",""time""
""fullscreenenter"",""5"",""16722""
","
",1040.7049999921583,NA,49,NA,NA,3000,1,NA,NA,images/redplanet1.jpg,images/alien2,images/alien1,images/rocket1,images/alien1,images/nothing.png,2,real,false,1,rare,0,2020-06-25T02:04:20Z,sub98
two-step-fixation,230,881776,0.0-76.0-2.31,FALSE,FALSE,FALSE,FALSE,"""event"",""trial"",""time""
""fullscreenenter"",""5"",""16722""
","
","
","""event"",""trial"",""time""
""fullscreenenter"",""5"",""16722""
","
",NA,images/earth.jpg,NA,NA,NA,NA,NA,NA,NA,NA,NA,NA,NA,NA,NA,fixation,NA,NA,NA,NA,NA,NA,sub98
d3-animate-choice,231,884331,0.0-76.0-0.32,FALSE,FALSE,FALSE,FALSE,"""event"",""trial"",""time""
""fullscreenenter"",""5"",""16722""
","
","
","""event"",""trial"",""time""
""fullscreenenter"",""5"",""16722""
","
",550.7250000082422,NA,48,NA,NA,3000,1,NA,NA,images/earth.jpg,images/rocket1,images/rocket2,null,images/rocket1,NA,1,real,null,2,NA,NA,NA,sub98
d3-animate-choice,232,887140,0.0-76.0-1.32,FALSE,FALSE,FALSE,FALSE,"""event"",""trial"",""time""
""fullscreenenter"",""5"",""16722""
","
","
","""event"",""trial"",""time""
""fullscreenenter"",""5"",""16722""
","
",803.7250000052154,NA,48,NA,NA,3000,1,NA,NA,images/purpleplanet.jpg,images/alien4,images/alien3,images/rocket1,images/alien4,images/t.png,2,real,true,2,common,1,2020-06-25T02:04:26Z,sub98
two-step-fixation,233,888144,0.0-76.0-2.32,FALSE,FALSE,FALSE,FALSE,"""event"",""trial"",""time""
""fullscreenenter"",""5"",""16722""
","
","
","""event"",""trial"",""time""
""fullscreenenter"",""5"",""16722""
","
",NA,images/earth.jpg,NA,NA,NA,NA,NA,NA,NA,NA,NA,NA,NA,NA,NA,fixation,NA,NA,NA,NA,NA,NA,sub98
d3-animate-choice,234,891359,0.0-76.0-0.33,FALSE,FALSE,FALSE,FALSE,"""event"",""trial"",""time""
""fullscreenenter"",""5"",""16722""
","
","
","""event"",""trial"",""time""
""fullscreenenter"",""5"",""16722""
","
",1209.2800000100397,NA,49,NA,NA,3000,1,NA,NA,images/earth.jpg,images/rocket1,images/rocket2,null,images/rocket2,NA,1,real,null,1,NA,NA,NA,sub98
d3-animate-choice,235,894719,0.0-76.0-1.33,FALSE,FALSE,FALSE,FALSE,"""event"",""trial"",""time""
""fullscreenenter"",""5"",""16722""
","
","
","""event"",""trial"",""time""
""fullscreenenter"",""5"",""16722""
","
",1354.4800000090618,NA,49,NA,NA,3000,1,NA,NA,images/purpleplanet.jpg,images/alien4,images/alien3,images/rocket2,images/alien3,images/t.png,2,real,false,1,rare,1,2020-06-25T02:04:34Z,sub98
two-step-fixation,236,895724,0.0-76.0-2.33,FALSE,FALSE,FALSE,FALSE,"""event"",""trial"",""time""
""fullscreenenter"",""5"",""16722""
","
","
","""event"",""trial"",""time""
""fullscreenenter"",""5"",""16722""
","
",NA,images/earth.jpg,NA,NA,NA,NA,NA,NA,NA,NA,NA,NA,NA,NA,NA,fixation,NA,NA,NA,NA,NA,NA,sub98
d3-animate-choice,237,898372,0.0-76.0-0.34,FALSE,FALSE,FALSE,FALSE,"""event"",""trial"",""time""
""fullscreenenter"",""5"",""16722""
","
","
","""event"",""trial"",""time""
""fullscreenenter"",""5"",""16722""
","
",641.3900000043213,NA,49,NA,NA,3000,1,NA,NA,images/earth.jpg,images/rocket1,images/rocket2,null,images/rocket2,NA,1,real,null,1,NA,NA,NA,sub98
d3-animate-choice,238,900843,0.0-76.0-1.34,FALSE,FALSE,FALSE,FALSE,"""event"",""trial"",""time""
""fullscreenenter"",""5"",""16722""
","
","
","""event"",""trial"",""time""
""fullscreenenter"",""5"",""16722""
","
",466.8250000104308,NA,49,NA,NA,3000,1,NA,NA,images/purpleplanet.jpg,images/alien4,images/alien3,images/rocket2,images/alien3,images/nothing.png,2,real,false,1,rare,0,2020-06-25T02:04:40Z,sub98
two-step-fixation,239,901848,0.0-76.0-2.34,FALSE,FALSE,FALSE,FALSE,"""event"",""trial"",""time""
""fullscreenenter"",""5"",""16722""
","
","
","""event"",""trial"",""time""
""fullscreenenter"",""5"",""16722""
","
",NA,images/earth.jpg,NA,NA,NA,NA,NA,NA,NA,NA,NA,NA,NA,NA,NA,fixation,NA,NA,NA,NA,NA,NA,sub98
d3-animate-choice,240,904263,0.0-76.0-0.35,FALSE,FALSE,FALSE,FALSE,"""event"",""trial"",""time""
""fullscreenenter"",""5"",""16722""
","
","
","""event"",""trial"",""time""
""fullscreenenter"",""5"",""16722""
","
",410.05499998573214,NA,49,NA,NA,3000,1,NA,NA,images/earth.jpg,images/rocket1,images/rocket2,null,images/rocket2,NA,1,real,null,1,NA,NA,NA,sub98
d3-animate-choice,241,906762,0.0-76.0-1.35,FALSE,FALSE,FALSE,FALSE,"""event"",""trial"",""time""
""fullscreenenter"",""5"",""16722""
","
","
","""event"",""trial"",""time""
""fullscreenenter"",""5"",""16722""
","
",493.5150000092108,NA,48,NA,NA,3000,1,NA,NA,images/purpleplanet.jpg,images/alien4,images/alien3,images/rocket2,images/alien4,images/t.png,2,real,false,2,rare,1,2020-06-25T02:04:46Z,sub98
two-step-fixation,242,907767,0.0-76.0-2.35,FALSE,FALSE,FALSE,FALSE,"""event"",""trial"",""time""
""fullscreenenter"",""5"",""16722""
","
","
","""event"",""trial"",""time""
""fullscreenenter"",""5"",""16722""
","
",NA,images/earth.jpg,NA,NA,NA,NA,NA,NA,NA,NA,NA,NA,NA,NA,NA,fixation,NA,NA,NA,NA,NA,NA,sub98
d3-animate-choice,243,910670,0.0-76.0-0.36,FALSE,FALSE,FALSE,FALSE,"""event"",""trial"",""time""
""fullscreenenter"",""5"",""16722""
","
","
","""event"",""trial"",""time""
""fullscreenenter"",""5"",""16722""
","
",897.7449999947567,NA,49,NA,NA,3000,1,NA,NA,images/earth.jpg,images/rocket1,images/rocket2,null,images/rocket2,NA,1,real,null,1,NA,NA,NA,sub98
d3-animate-choice,244,913885,0.0-76.0-1.36,FALSE,FALSE,FALSE,FALSE,"""event"",""trial"",""time""
""fullscreenenter"",""5"",""16722""
","
","
","""event"",""trial"",""time""
""fullscreenenter"",""5"",""16722""
","
",1211.9450000172947,NA,48,NA,NA,3000,1,NA,NA,images/redplanet1.jpg,images/alien2,images/alien1,images/rocket2,images/alien2,images/nothing.png,2,real,true,2,common,0,2020-06-25T02:04:53Z,sub98
two-step-fixation,245,914891,0.0-76.0-2.36,FALSE,FALSE,FALSE,FALSE,"""event"",""trial"",""time""
""fullscreenenter"",""5"",""16722""
","
","
","""event"",""trial"",""time""
""fullscreenenter"",""5"",""16722""
","
",NA,images/earth.jpg,NA,NA,NA,NA,NA,NA,NA,NA,NA,NA,NA,NA,NA,fixation,NA,NA,NA,NA,NA,NA,sub98
d3-animate-choice,246,917015,0.0-76.0-0.37,FALSE,FALSE,FALSE,FALSE,"""event"",""trial"",""time""
""fullscreenenter"",""5"",""16722""
","
","
","""event"",""trial"",""time""
""fullscreenenter"",""5"",""16722""
","
",117.32999997911975,NA,49,NA,NA,3000,1,NA,NA,images/earth.jpg,images/rocket1,images/rocket2,null,images/rocket2,NA,1,real,null,1,NA,NA,NA,sub98
d3-animate-choice,247,920201,0.0-76.0-1.37,FALSE,FALSE,FALSE,FALSE,"""event"",""trial"",""time""
""fullscreenenter"",""5"",""16722""
","
","
","""event"",""trial"",""time""
""fullscreenenter"",""5"",""16722""
","
",1181.8499999935739,NA,48,NA,NA,3000,1,NA,NA,images/purpleplanet.jpg,images/alien4,images/alien3,images/rocket2,images/alien4,images/t.png,2,real,false,2,rare,1,2020-06-25T02:04:59Z,sub98
two-step-fixation,248,921206,0.0-76.0-2.37,FALSE,FALSE,FALSE,FALSE,"""event"",""trial"",""time""
""fullscreenenter"",""5"",""16722""
","
","
","""event"",""trial"",""time""
""fullscreenenter"",""5"",""16722""
","
",NA,images/earth.jpg,NA,NA,NA,NA,NA,NA,NA,NA,NA,NA,NA,NA,NA,fixation,NA,NA,NA,NA,NA,NA,sub98
d3-animate-choice,249,923576,0.0-76.0-0.38,FALSE,FALSE,FALSE,FALSE,"""event"",""trial"",""time""
""fullscreenenter"",""5"",""16722""
","
","
","""event"",""trial"",""time""
""fullscreenenter"",""5"",""16722""
","
",364.2600000021048,NA,48,NA,NA,3000,1,NA,NA,images/earth.jpg,images/rocket1,images/rocket2,null,images/rocket1,NA,1,real,null,2,NA,NA,NA,sub98
d3-animate-choice,250,926915,0.0-76.0-1.38,FALSE,FALSE,FALSE,FALSE,"""event"",""trial"",""time""
""fullscreenenter"",""5"",""16722""
","
","
","""event"",""trial"",""time""
""fullscreenenter"",""5"",""16722""
","
",1334.3849999946542,NA,48,NA,NA,3000,1,NA,NA,images/purpleplanet.jpg,images/alien4,images/alien3,images/rocket1,images/alien4,images/t.png,2,real,true,2,common,1,2020-06-25T02:05:06Z,sub98
two-step-fixation,251,927919,0.0-76.0-2.38,FALSE,FALSE,FALSE,FALSE,"""event"",""trial"",""time""
""fullscreenenter"",""5"",""16722""
","
","
","""event"",""trial"",""time""
""fullscreenenter"",""5"",""16722""
","
",NA,images/earth.jpg,NA,NA,NA,NA,NA,NA,NA,NA,NA,NA,NA,NA,NA,fixation,NA,NA,NA,NA,NA,NA,sub98
d3-animate-choice,252,930591,0.0-76.0-0.39,FALSE,FALSE,FALSE,FALSE,"""event"",""trial"",""time""
""fullscreenenter"",""5"",""16722""
","
","
","""event"",""trial"",""time""
""fullscreenenter"",""5"",""16722""
","
",668.2950000104029,NA,48,NA,NA,3000,1,NA,NA,images/earth.jpg,images/rocket1,images/rocket2,null,images/rocket1,NA,1,real,null,2,NA,NA,NA,sub98
d3-animate-choice,253,933876,0.0-76.0-1.39,FALSE,FALSE,FALSE,FALSE,"""event"",""trial"",""time""
""fullscreenenter"",""5"",""16722""
","
","
","""event"",""trial"",""time""
""fullscreenenter"",""5"",""16722""
","
",1280.3400000266265,NA,49,NA,NA,3000,1,NA,NA,images/redplanet1.jpg,images/alien2,images/alien1,images/rocket1,images/alien1,images/t.png,2,real,false,1,rare,1,2020-06-25T02:05:13Z,sub98
two-step-fixation,254,934881,0.0-76.0-2.39,FALSE,FALSE,FALSE,FALSE,"""event"",""trial"",""time""
""fullscreenenter"",""5"",""16722""
","
","
","""event"",""trial"",""time""
""fullscreenenter"",""5"",""16722""
","
",NA,images/earth.jpg,NA,NA,NA,NA,NA,NA,NA,NA,NA,NA,NA,NA,NA,fixation,NA,NA,NA,NA,NA,NA,sub98
d3-animate-choice,255,937515,0.0-76.0-0.40,FALSE,FALSE,FALSE,FALSE,"""event"",""trial"",""time""
""fullscreenenter"",""5"",""16722""
","
","
","""event"",""trial"",""time""
""fullscreenenter"",""5"",""16722""
","
",629.4249999918975,NA,48,NA,NA,3000,1,NA,NA,images/earth.jpg,images/rocket1,images/rocket2,null,images/rocket1,NA,1,real,null,2,NA,NA,NA,sub98
d3-animate-choice,256,940121,0.0-76.0-1.40,FALSE,FALSE,FALSE,FALSE,"""event"",""trial"",""time""
""fullscreenenter"",""5"",""16722""
","
","
","""event"",""trial"",""time""
""fullscreenenter"",""5"",""16722""
","
",600.3649999911431,NA,48,NA,NA,3000,1,NA,NA,images/purpleplanet.jpg,images/alien4,images/alien3,images/rocket1,images/alien4,images/t.png,2,real,true,2,common,1,2020-06-25T02:05:19Z,sub98
two-step-fixation,257,941126,0.0-76.0-2.40,FALSE,FALSE,FALSE,FALSE,"""event"",""trial"",""time""
""fullscreenenter"",""5"",""16722""
","
","
","""event"",""trial"",""time""
""fullscreenenter"",""5"",""16722""
","
",NA,images/earth.jpg,NA,NA,NA,NA,NA,NA,NA,NA,NA,NA,NA,NA,NA,fixation,NA,NA,NA,NA,NA,NA,sub98
d3-animate-choice,258,944031,0.0-76.0-0.41,FALSE,FALSE,FALSE,FALSE,"""event"",""trial"",""time""
""fullscreenenter"",""5"",""16722""
","
","
","""event"",""trial"",""time""
""fullscreenenter"",""5"",""16722""
","
",901.4200000092387,NA,49,NA,NA,3000,1,NA,NA,images/earth.jpg,images/rocket1,images/rocket2,null,images/rocket2,NA,1,real,null,1,NA,NA,NA,sub98
d3-animate-choice,259,947121,0.0-76.0-1.41,FALSE,FALSE,FALSE,FALSE,"""event"",""trial"",""time""
""fullscreenenter"",""5"",""16722""
","
","
","""event"",""trial"",""time""
""fullscreenenter"",""5"",""16722""
","
",1083.9449999912176,NA,49,NA,NA,3000,1,NA,NA,images/redplanet1.jpg,images/alien2,images/alien1,images/rocket2,images/alien1,images/t.png,2,real,true,1,common,1,2020-06-25T02:05:26Z,sub98
two-step-fixation,260,948126,0.0-76.0-2.41,FALSE,FALSE,FALSE,FALSE,"""event"",""trial"",""time""
""fullscreenenter"",""5"",""16722""
","
","
","""event"",""trial"",""time""
""fullscreenenter"",""5"",""16722""
","
",NA,images/earth.jpg,NA,NA,NA,NA,NA,NA,NA,NA,NA,NA,NA,NA,NA,fixation,NA,NA,NA,NA,NA,NA,sub98
d3-animate-choice,261,950539,0.0-76.0-0.42,FALSE,FALSE,FALSE,FALSE,"""event"",""trial"",""time""
""fullscreenenter"",""5"",""16722""
","
","
","""event"",""trial"",""time""
""fullscreenenter"",""5"",""16722""
","
",409.11000000778586,NA,48,NA,NA,3000,1,NA,NA,images/earth.jpg,images/rocket1,images/rocket2,null,images/rocket1,NA,1,real,null,2,NA,NA,NA,sub98
d3-animate-choice,262,953286,0.0-76.0-1.42,FALSE,FALSE,FALSE,FALSE,"""event"",""trial"",""time""
""fullscreenenter"",""5"",""16722""
","
","
","""event"",""trial"",""time""
""fullscreenenter"",""5"",""16722""
","
",739.8800000082701,NA,48,NA,NA,3000,1,NA,NA,images/purpleplanet.jpg,images/alien4,images/alien3,images/rocket1,images/alien4,images/nothing.png,2,real,true,2,common,0,2020-06-25T02:05:32Z,sub98
two-step-fixation,263,954291,0.0-76.0-2.42,FALSE,FALSE,FALSE,FALSE,"""event"",""trial"",""time""
""fullscreenenter"",""5"",""16722""
","
","
","""event"",""trial"",""time""
""fullscreenenter"",""5"",""16722""
","
",NA,images/earth.jpg,NA,NA,NA,NA,NA,NA,NA,NA,NA,NA,NA,NA,NA,fixation,NA,NA,NA,NA,NA,NA,sub98
d3-animate-choice,264,957010,0.0-76.0-0.43,FALSE,FALSE,FALSE,FALSE,"""event"",""trial"",""time""
""fullscreenenter"",""5"",""16722""
","
","
","""event"",""trial"",""time""
""fullscreenenter"",""5"",""16722""
","
",715.6299999915063,NA,48,NA,NA,3000,1,NA,NA,images/earth.jpg,images/rocket1,images/rocket2,null,images/rocket1,NA,1,real,null,2,NA,NA,NA,sub98
d3-animate-choice,265,960405,0.0-76.0-1.43,FALSE,FALSE,FALSE,FALSE,"""event"",""trial"",""time""
""fullscreenenter"",""5"",""16722""
","
","
","""event"",""trial"",""time""
""fullscreenenter"",""5"",""16722""
","
",1387.6450000097975,NA,49,NA,NA,3000,1,NA,NA,images/redplanet1.jpg,images/alien2,images/alien1,images/rocket1,images/alien1,images/t.png,2,real,false,1,rare,1,2020-06-25T02:05:39Z,sub98
two-step-fixation,266,961412,0.0-76.0-2.43,FALSE,FALSE,FALSE,FALSE,"""event"",""trial"",""time""
""fullscreenenter"",""5"",""16722""
","
","
","""event"",""trial"",""time""
""fullscreenenter"",""5"",""16722""
","
",NA,images/earth.jpg,NA,NA,NA,NA,NA,NA,NA,NA,NA,NA,NA,NA,NA,fixation,NA,NA,NA,NA,NA,NA,sub98
d3-animate-choice,267,963775,0.0-76.0-0.44,FALSE,FALSE,FALSE,FALSE,"""event"",""trial"",""time""
""fullscreenenter"",""5"",""16722""
","
","
","""event"",""trial"",""time""
""fullscreenenter"",""5"",""16722""
","
",356.8249999952968,NA,48,NA,NA,3000,1,NA,NA,images/earth.jpg,images/rocket1,images/rocket2,null,images/rocket1,NA,1,real,null,2,NA,NA,NA,sub98
d3-animate-choice,268,967048,0.0-76.0-1.44,FALSE,FALSE,FALSE,FALSE,"""event"",""trial"",""time""
""fullscreenenter"",""5"",""16722""
","
","
","""event"",""trial"",""time""
""fullscreenenter"",""5"",""16722""
","
",1268.6099999991711,NA,49,NA,NA,3000,1,NA,NA,images/redplanet1.jpg,images/alien2,images/alien1,images/rocket1,images/alien1,images/nothing.png,2,real,false,1,rare,0,2020-06-25T02:05:46Z,sub98
two-step-fixation,269,968053,0.0-76.0-2.44,FALSE,FALSE,FALSE,FALSE,"""event"",""trial"",""time""
""fullscreenenter"",""5"",""16722""
","
","
","""event"",""trial"",""time""
""fullscreenenter"",""5"",""16722""
","
",NA,images/earth.jpg,NA,NA,NA,NA,NA,NA,NA,NA,NA,NA,NA,NA,NA,fixation,NA,NA,NA,NA,NA,NA,sub98
d3-animate-choice,270,970914,0.0-76.0-0.45,FALSE,FALSE,FALSE,FALSE,"""event"",""trial"",""time""
""fullscreenenter"",""5"",""16722""
","
","
","""event"",""trial"",""time""
""fullscreenenter"",""5"",""16722""
","
",857.0449999824632,NA,48,NA,NA,3000,1,NA,NA,images/earth.jpg,images/rocket1,images/rocket2,null,images/rocket1,NA,1,real,null,2,NA,NA,NA,sub98
d3-animate-choice,271,973563,0.0-76.0-1.45,FALSE,FALSE,FALSE,FALSE,"""event"",""trial"",""time""
""fullscreenenter"",""5"",""16722""
","
","
","""event"",""trial"",""time""
""fullscreenenter"",""5"",""16722""
","
",641.9950000126846,NA,48,NA,NA,3000,1,NA,NA,images/purpleplanet.jpg,images/alien4,images/alien3,images/rocket1,images/alien4,images/t.png,2,real,true,2,common,1,2020-06-25T02:05:52Z,sub98
two-step-fixation,272,974568,0.0-76.0-2.45,FALSE,FALSE,FALSE,FALSE,"""event"",""trial"",""time""
""fullscreenenter"",""5"",""16722""
","
","
","""event"",""trial"",""time""
""fullscreenenter"",""5"",""16722""
","
",NA,images/earth.jpg,NA,NA,NA,NA,NA,NA,NA,NA,NA,NA,NA,NA,NA,fixation,NA,NA,NA,NA,NA,NA,sub98
d3-animate-choice,273,976971,0.0-76.0-0.46,FALSE,FALSE,FALSE,FALSE,"""event"",""trial"",""time""
""fullscreenenter"",""5"",""16722""
","
","
","""event"",""trial"",""time""
""fullscreenenter"",""5"",""16722""
","
",398.31000001868233,NA,48,NA,NA,3000,1,NA,NA,images/earth.jpg,images/rocket1,images/rocket2,null,images/rocket1,NA,1,real,null,2,NA,NA,NA,sub98
d3-animate-choice,274,979680,0.0-76.0-1.46,FALSE,FALSE,FALSE,FALSE,"""event"",""trial"",""time""
""fullscreenenter"",""5"",""16722""
","
","
","""event"",""trial"",""time""
""fullscreenenter"",""5"",""16722""
","
",704.7850000089966,NA,48,NA,NA,3000,1,NA,NA,images/purpleplanet.jpg,images/alien4,images/alien3,images/rocket1,images/alien4,images/nothing.png,2,real,true,2,common,0,2020-06-25T02:05:59Z,sub98
two-step-fixation,275,980687,0.0-76.0-2.46,FALSE,FALSE,FALSE,FALSE,"""event"",""trial"",""time""
""fullscreenenter"",""5"",""16722""
","
","
","""event"",""trial"",""time""
""fullscreenenter"",""5"",""16722""
","
",NA,images/earth.jpg,NA,NA,NA,NA,NA,NA,NA,NA,NA,NA,NA,NA,NA,fixation,NA,NA,NA,NA,NA,NA,sub98
d3-animate-choice,276,983504,0.0-76.0-0.47,FALSE,FALSE,FALSE,FALSE,"""event"",""trial"",""time""
""fullscreenenter"",""5"",""16722""
","
","
","""event"",""trial"",""time""
""fullscreenenter"",""5"",""16722""
","
",812.3349999950733,NA,48,NA,NA,3000,1,NA,NA,images/earth.jpg,images/rocket1,images/rocket2,null,images/rocket1,NA,1,real,null,2,NA,NA,NA,sub98
d3-animate-choice,277,986156,0.0-76.0-1.47,FALSE,FALSE,FALSE,FALSE,"""event"",""trial"",""time""
""fullscreenenter"",""5"",""16722""
","
","
","""event"",""trial"",""time""
""fullscreenenter"",""5"",""16722""
","
",647.0200000039767,NA,48,NA,NA,3000,1,NA,NA,images/purpleplanet.jpg,images/alien4,images/alien3,images/rocket1,images/alien4,images/t.png,2,real,true,2,common,1,2020-06-25T02:06:05Z,sub98
two-step-fixation,278,987160,0.0-76.0-2.47,FALSE,FALSE,FALSE,FALSE,"""event"",""trial"",""time""
""fullscreenenter"",""5"",""16722""
","
","
","""event"",""trial"",""time""
""fullscreenenter"",""5"",""16722""
","
",NA,images/earth.jpg,NA,NA,NA,NA,NA,NA,NA,NA,NA,NA,NA,NA,NA,fixation,NA,NA,NA,NA,NA,NA,sub98
d3-animate-choice,279,989726,0.0-76.0-0.48,FALSE,FALSE,FALSE,FALSE,"""event"",""trial"",""time""
""fullscreenenter"",""5"",""16722""
","
","
","""event"",""trial"",""time""
""fullscreenenter"",""5"",""16722""
","
",561.344999994617,NA,48,NA,NA,3000,1,NA,NA,images/earth.jpg,images/rocket1,images/rocket2,null,images/rocket1,NA,1,real,null,2,NA,NA,NA,sub98
d3-animate-choice,280,992852,0.0-76.0-1.48,FALSE,FALSE,FALSE,FALSE,"""event"",""trial"",""time""
""fullscreenenter"",""5"",""16722""
","
","
","""event"",""trial"",""time""
""fullscreenenter"",""5"",""16722""
","
",1120.4100000031758,NA,48,NA,NA,3000,1,NA,NA,images/purpleplanet.jpg,images/alien4,images/alien3,images/rocket1,images/alien4,images/nothing.png,2,real,true,2,common,0,2020-06-25T02:06:12Z,sub98
two-step-fixation,281,993859,0.0-76.0-2.48,FALSE,FALSE,FALSE,FALSE,"""event"",""trial"",""time""
""fullscreenenter"",""5"",""16722""
","
","
","""event"",""trial"",""time""
""fullscreenenter"",""5"",""16722""
","
",NA,images/earth.jpg,NA,NA,NA,NA,NA,NA,NA,NA,NA,NA,NA,NA,NA,fixation,NA,NA,NA,NA,NA,NA,sub98
d3-animate-choice,282,996229,0.0-76.0-0.49,FALSE,FALSE,FALSE,FALSE,"""event"",""trial"",""time""
""fullscreenenter"",""5"",""16722""
","
","
","""event"",""trial"",""time""
""fullscreenenter"",""5"",""16722""
","
