trial_type,trial_index,time_elapsed,internal_node_id,rocket_sides,red_planet_first_rocket,red_display_order,purple_display_order,interactions,blur_events,focus_events,fullscreenenter_events,fullscreenexit_events,rt,stimulus,key_press,button_pressed,success,duration,valid_pressed,rts,keys,planet_text,right_text,left_text,center_text,chosen_text,reward_text,trial_stage,practice_trial,transition_type,choice,transition,reward,timestamp,subject_id
pavlovia,0,5,0.0-0.0,TRUE,TRUE,TRUE,FALSE,"
","
","
","
","
",NA,NA,NA,NA,NA,NA,NA,NA,NA,NA,NA,NA,NA,NA,NA,NA,NA,NA,NA,NA,NA,NA,sub23
html-keyboard-response,1,1809,0.0-1.0,TRUE,TRUE,TRUE,FALSE,"
","
","
","
","
",1803.299999999581,Welcome! Press the space bar to begin.,32,NA,NA,NA,NA,NA,NA,NA,NA,NA,NA,NA,NA,NA,NA,NA,NA,NA,NA,NA,sub23
audio-keyboard-response,2,4074,0.0-2.0,TRUE,TRUE,TRUE,FALSE,"
","
","
","
","
",2141,audio/beep_loop.wav,32,NA,NA,NA,NA,NA,NA,NA,NA,NA,NA,NA,NA,NA,NA,NA,NA,NA,NA,NA,sub23
audio-button-response,3,6043,0.0-3.0,TRUE,TRUE,TRUE,FALSE,"
","
","
","
","
",NaN,audio/fish.mp3,NA,1,NA,NA,NA,NA,NA,NA,NA,NA,NA,NA,NA,NA,NA,NA,NA,NA,NA,NA,sub23
audio-button-response,4,9479,0.0-4.0,TRUE,TRUE,TRUE,FALSE,"""event"",""trial"",""time""
""fullscreenenter"",""5"",""21736""
","
","
","""event"",""trial"",""time""
""fullscreenenter"",""5"",""21736""
","
",NaN,audio/tiger.mp3,NA,4,NA,NA,NA,NA,NA,NA,NA,NA,NA,NA,NA,NA,NA,NA,NA,NA,NA,NA,sub23
fullscreen,5,22690,0.0-5.0,TRUE,TRUE,TRUE,FALSE,"""event"",""trial"",""time""
""fullscreenenter"",""5"",""21736""
","
","
","""event"",""trial"",""time""
""fullscreenenter"",""5"",""21736""
","
",NA,NA,NA,NA,TRUE,NA,NA,NA,NA,NA,NA,NA,NA,NA,NA,NA,NA,NA,NA,NA,NA,NA,sub23
d3-instructions,6,36502,0.0-6.0,TRUE,TRUE,TRUE,FALSE,"""event"",""trial"",""time""
""fullscreenenter"",""5"",""21736""
","
","
","""event"",""trial"",""time""
""fullscreenenter"",""5"",""21736""
","
",NA,NA,NA,NA,NA,NA,NA,NA,NA,NA,NA,NA,NA,NA,NA,NA,NA,NA,NA,NA,NA,NA,sub23
d3-instructions,7,44087,0.0-7.0,TRUE,TRUE,TRUE,FALSE,"""event"",""trial"",""time""
""fullscreenenter"",""5"",""21736""
","
","
","""event"",""trial"",""time""
""fullscreenenter"",""5"",""21736""
","
",NA,NA,NA,NA,NA,NA,NA,NA,NA,NA,NA,NA,NA,NA,NA,NA,NA,NA,NA,NA,NA,NA,sub23
d3-instructions,8,51029,0.0-8.0,TRUE,TRUE,TRUE,FALSE,"""event"",""trial"",""time""
""fullscreenenter"",""5"",""21736""
","
","
","""event"",""trial"",""time""
""fullscreenenter"",""5"",""21736""
","
",NA,NA,NA,NA,NA,NA,NA,NA,NA,NA,NA,NA,NA,NA,NA,NA,NA,NA,NA,NA,NA,NA,sub23
d3-instructions,9,62068,0.0-9.0,TRUE,TRUE,TRUE,FALSE,"""event"",""trial"",""time""
""fullscreenenter"",""5"",""21736""
","
","
","""event"",""trial"",""time""
""fullscreenenter"",""5"",""21736""
","
",NA,NA,NA,NA,NA,NA,NA,NA,NA,NA,NA,NA,NA,NA,NA,NA,NA,NA,NA,NA,NA,NA,sub23
d3-instructions,10,81496,0.0-10.0,TRUE,TRUE,TRUE,FALSE,"""event"",""trial"",""time""
""fullscreenenter"",""5"",""21736""
","
","
","""event"",""trial"",""time""
""fullscreenenter"",""5"",""21736""
","
",NA,NA,NA,NA,NA,NA,NA,NA,NA,NA,NA,NA,NA,NA,NA,NA,NA,NA,NA,NA,NA,NA,sub23
d3-animate-choice,11,85739,0.0-11.0,TRUE,TRUE,TRUE,FALSE,"""event"",""trial"",""time""
""fullscreenenter"",""5"",""21736""
","
","
","""event"",""trial"",""time""
""fullscreenenter"",""5"",""21736""
","
",2228.739999991376,NA,49,NA,NA,3000,1,NA,NA,images/tutgreenplanet.jpg,images/tutalien1,images/tutalien2,null,images/tutalien2,NA,NA,practice,null,NA,NA,NA,NA,sub23
d3-animate-choice,12,88621,0.0-12.0,TRUE,TRUE,TRUE,FALSE,"""event"",""trial"",""time""
""fullscreenenter"",""5"",""21736""
","
","
","""event"",""trial"",""time""
""fullscreenenter"",""5"",""21736""
","
",877.4499999999534,NA,48,NA,NA,3000,1,2563.4250000002794,49,images/tutgreenplanet.jpg,images/tutalien1,images/tutalien2,null,images/tutalien1,NA,NA,practice,null,NA,NA,NA,NA,sub23
d3-animate-choice,13,91282,0.0-13.0,TRUE,TRUE,TRUE,FALSE,"""event"",""trial"",""time""
""fullscreenenter"",""5"",""21736""
","
","
","""event"",""trial"",""time""
""fullscreenenter"",""5"",""21736""
","
",657.1350000158418,NA,48,NA,NA,3000,1,NA,NA,images/tutgreenplanet.jpg,images/tutalien1,images/tutalien2,null,images/tutalien1,NA,NA,practice,null,NA,NA,NA,NA,sub23
d3-animate-choice,14,93894,0.0-14.0,TRUE,TRUE,TRUE,FALSE,"""event"",""trial"",""time""
""fullscreenenter"",""5"",""21736""
","
","
","""event"",""trial"",""time""
""fullscreenenter"",""5"",""21736""
","
",605.4600000206847,NA,49,NA,NA,3000,1,NA,NA,images/tutgreenplanet.jpg,images/tutalien1,images/tutalien2,null,images/tutalien2,NA,NA,practice,null,NA,NA,NA,NA,sub23
d3-instructions,15,101679,0.0-15.0,TRUE,TRUE,TRUE,FALSE,"""event"",""trial"",""time""
""fullscreenenter"",""5"",""21736""
","
","
","""event"",""trial"",""time""
""fullscreenenter"",""5"",""21736""
","
",NA,NA,NA,NA,NA,NA,NA,NA,NA,NA,NA,NA,NA,NA,NA,NA,NA,NA,NA,NA,NA,NA,sub23
d3-instructions,16,110882,0.0-16.0,TRUE,TRUE,TRUE,FALSE,"""event"",""trial"",""time""
""fullscreenenter"",""5"",""21736""
","
","
","""event"",""trial"",""time""
""fullscreenenter"",""5"",""21736""
","
",NA,NA,NA,NA,NA,NA,NA,NA,NA,NA,NA,NA,NA,NA,NA,NA,NA,NA,NA,NA,NA,NA,sub23
d3-instructions,17,121398,0.0-17.0,TRUE,TRUE,TRUE,FALSE,"""event"",""trial"",""time""
""fullscreenenter"",""5"",""21736""
","
","
","""event"",""trial"",""time""
""fullscreenenter"",""5"",""21736""
","
",NA,NA,NA,NA,NA,NA,NA,NA,NA,NA,NA,NA,NA,NA,NA,NA,NA,NA,NA,NA,NA,NA,sub23
d3-instructions,18,134544,0.0-18.0,TRUE,TRUE,TRUE,FALSE,"""event"",""trial"",""time""
""fullscreenenter"",""5"",""21736""
","
","
","""event"",""trial"",""time""
""fullscreenenter"",""5"",""21736""
","
",NA,NA,NA,NA,NA,NA,NA,NA,NA,NA,NA,NA,NA,NA,NA,NA,NA,NA,NA,NA,NA,NA,sub23
d3-instructions,19,149820,0.0-19.0,TRUE,TRUE,TRUE,FALSE,"""event"",""trial"",""time""
""fullscreenenter"",""5"",""21736""
","
","
","""event"",""trial"",""time""
""fullscreenenter"",""5"",""21736""
","
",NA,NA,NA,NA,NA,NA,NA,NA,NA,NA,NA,NA,NA,NA,NA,NA,NA,NA,NA,NA,NA,NA,sub23
d3-animate-choice,20,153603,0.0-20.0,TRUE,TRUE,TRUE,FALSE,"""event"",""trial"",""time""
""fullscreenenter"",""5"",""21736""
","
","
","""event"",""trial"",""time""
""fullscreenenter"",""5"",""21736""
","
",1779.0549999917857,NA,49,NA,NA,3000,1,3540.099999983795,49,images/tutyellowplanet.jpg,null,images/tutalien3,null,images/tutalien3,images/nothing.png,NA,practice,null,NA,NA,NA,NA,sub23
d3-animate-choice,21,156147,0.0-21.0,TRUE,TRUE,TRUE,FALSE,"""event"",""trial"",""time""
""fullscreenenter"",""5"",""21736""
","
","
","""event"",""trial"",""time""
""fullscreenenter"",""5"",""21736""
","
",540.4200000048149,NA,49,NA,NA,3000,1,NA,NA,images/tutyellowplanet.jpg,null,images/tutalien3,null,images/tutalien3,images/t.png,NA,practice,null,NA,NA,NA,NA,sub23
d3-animate-choice,22,158526,0.0-22.0,TRUE,TRUE,TRUE,FALSE,"""event"",""trial"",""time""
""fullscreenenter"",""5"",""21736""
","
","
","""event"",""trial"",""time""
""fullscreenenter"",""5"",""21736""
","
",376.1100000119768,NA,49,NA,NA,3000,1,NA,NA,images/tutyellowplanet.jpg,null,images/tutalien3,null,images/tutalien3,images/t.png,NA,practice,null,NA,NA,NA,NA,sub23
d3-animate-choice,23,161003,0.0-23.0,TRUE,TRUE,TRUE,FALSE,"""event"",""trial"",""time""
""fullscreenenter"",""5"",""21736""
","
","
","""event"",""trial"",""time""
""fullscreenenter"",""5"",""21736""
","
",473.2500000100117,NA,49,NA,NA,3000,1,NA,NA,images/tutyellowplanet.jpg,null,images/tutalien3,null,images/tutalien3,images/nothing.png,NA,practice,null,NA,NA,NA,NA,sub23
d3-animate-choice,24,163450,0.0-24.0,TRUE,TRUE,TRUE,FALSE,"""event"",""trial"",""time""
""fullscreenenter"",""5"",""21736""
","
","
","""event"",""trial"",""time""
""fullscreenenter"",""5"",""21736""
","
",442.8500000212807,NA,49,NA,NA,3000,1,NA,NA,images/tutyellowplanet.jpg,null,images/tutalien3,null,images/tutalien3,images/t.png,NA,practice,null,NA,NA,NA,NA,sub23
d3-animate-choice,25,165858,0.0-25.0,TRUE,TRUE,TRUE,FALSE,"""event"",""trial"",""time""
""fullscreenenter"",""5"",""21736""
","
","
","""event"",""trial"",""time""
""fullscreenenter"",""5"",""21736""
","
",403.5699999949429,NA,49,NA,NA,3000,1,NA,NA,images/tutyellowplanet.jpg,null,images/tutalien3,null,images/tutalien3,images/nothing.png,NA,practice,null,NA,NA,NA,NA,sub23
d3-animate-choice,26,168178,0.0-26.0,TRUE,TRUE,TRUE,FALSE,"""event"",""trial"",""time""
""fullscreenenter"",""5"",""21736""
","
","
","""event"",""trial"",""time""
""fullscreenenter"",""5"",""21736""
","
",313.69000000995584,NA,49,NA,NA,3000,1,NA,NA,images/tutyellowplanet.jpg,null,images/tutalien3,null,images/tutalien3,images/t.png,NA,practice,null,NA,NA,NA,NA,sub23
d3-animate-choice,27,170521,0.0-27.0,TRUE,TRUE,TRUE,FALSE,"""event"",""trial"",""time""
""fullscreenenter"",""5"",""21736""
","
","
","""event"",""trial"",""time""
""fullscreenenter"",""5"",""21736""
","
",338.4049999876879,NA,49,NA,NA,3000,1,NA,NA,images/tutyellowplanet.jpg,null,images/tutalien3,null,images/tutalien3,images/nothing.png,NA,practice,null,NA,NA,NA,NA,sub23
d3-animate-choice,28,172923,0.0-28.0,TRUE,TRUE,TRUE,FALSE,"""event"",""trial"",""time""
""fullscreenenter"",""5"",""21736""
","
","
","""event"",""trial"",""time""
""fullscreenenter"",""5"",""21736""
","
",397.63500000117347,NA,49,NA,NA,3000,1,NA,NA,images/tutyellowplanet.jpg,null,images/tutalien3,null,images/tutalien3,images/t.png,NA,practice,null,NA,NA,NA,NA,sub23
d3-animate-choice,29,175355,0.0-29.0,TRUE,TRUE,TRUE,FALSE,"""event"",""trial"",""time""
""fullscreenenter"",""5"",""21736""
","
","
","""event"",""trial"",""time""
""fullscreenenter"",""5"",""21736""
","
",427.5099999795202,NA,49,NA,NA,3000,1,NA,NA,images/tutyellowplanet.jpg,null,images/tutalien3,null,images/tutalien3,images/nothing.png,NA,practice,null,NA,NA,NA,NA,sub23
d3-instructions,30,183741,0.0-30.0,TRUE,TRUE,TRUE,FALSE,"""event"",""trial"",""time""
""fullscreenenter"",""5"",""21736""
","
","
","""event"",""trial"",""time""
""fullscreenenter"",""5"",""21736""
","
",NA,NA,NA,NA,NA,NA,NA,NA,NA,NA,NA,NA,NA,NA,NA,NA,NA,NA,NA,NA,NA,NA,sub23
d3-instructions,31,194036,0.0-31.0,TRUE,TRUE,TRUE,FALSE,"""event"",""trial"",""time""
""fullscreenenter"",""5"",""21736""
","
","
","""event"",""trial"",""time""
""fullscreenenter"",""5"",""21736""
","
",NA,NA,NA,NA,NA,NA,NA,NA,NA,NA,NA,NA,NA,NA,NA,NA,NA,NA,NA,NA,NA,NA,sub23
d3-instructions,32,202096,0.0-32.0,TRUE,TRUE,TRUE,FALSE,"""event"",""trial"",""time""
""fullscreenenter"",""5"",""21736""
","
","
","""event"",""trial"",""time""
""fullscreenenter"",""5"",""21736""
","
",NA,NA,NA,NA,NA,NA,NA,NA,NA,NA,NA,NA,NA,NA,NA,NA,NA,NA,NA,NA,NA,NA,sub23
d3-instructions,33,213496,0.0-33.0,TRUE,TRUE,TRUE,FALSE,"""event"",""trial"",""time""
""fullscreenenter"",""5"",""21736""
","
","
","""event"",""trial"",""time""
""fullscreenenter"",""5"",""21736""
","
",NA,NA,NA,NA,NA,NA,NA,NA,NA,NA,NA,NA,NA,NA,NA,NA,NA,NA,NA,NA,NA,NA,sub23
d3-animate-choice,34,218076,0.0-34.0,TRUE,TRUE,TRUE,FALSE,"""event"",""trial"",""time""
""fullscreenenter"",""5"",""21736""
","
","
","""event"",""trial"",""time""
""fullscreenenter"",""5"",""21736""
","
",2574.735000001965,NA,49,NA,NA,3000,1,NA,NA,images/tutgreenplanet.jpg,images/tutalien1,images/tutalien2,null,images/tutalien2,images/nothing.png,NA,practice,null,NA,NA,NA,NA,sub23
d3-animate-choice,35,220949,0.0-35.0,TRUE,TRUE,TRUE,FALSE,"""event"",""trial"",""time""
""fullscreenenter"",""5"",""21736""
","
","
","""event"",""trial"",""time""
""fullscreenenter"",""5"",""21736""
","
",866.1600000050385,NA,49,NA,NA,3000,1,NA,NA,images/tutgreenplanet.jpg,images/tutalien1,images/tutalien2,null,images/tutalien2,images/t.png,NA,practice,null,NA,NA,NA,NA,sub23
d3-animate-choice,36,223835,0.0-36.0,TRUE,TRUE,TRUE,FALSE,"""event"",""trial"",""time""
""fullscreenenter"",""5"",""21736""
","
","
","""event"",""trial"",""time""
""fullscreenenter"",""5"",""21736""
","
",880.2750000031665,NA,49,NA,NA,3000,1,NA,NA,images/tutgreenplanet.jpg,images/tutalien1,images/tutalien2,null,images/tutalien2,images/t.png,NA,practice,null,NA,NA,NA,NA,sub23
d3-animate-choice,37,226537,0.0-37.0,TRUE,TRUE,TRUE,FALSE,"""event"",""trial"",""time""
""fullscreenenter"",""5"",""21736""
","
","
","""event"",""trial"",""time""
""fullscreenenter"",""5"",""21736""
","
",696.8449999985751,NA,49,NA,NA,3000,1,NA,NA,images/tutgreenplanet.jpg,images/tutalien1,images/tutalien2,null,images/tutalien2,images/t.png,NA,practice,null,NA,NA,NA,NA,sub23
d3-animate-choice,38,229199,0.0-38.0,TRUE,TRUE,TRUE,FALSE,"""event"",""trial"",""time""
""fullscreenenter"",""5"",""21736""
","
","
","""event"",""trial"",""time""
""fullscreenenter"",""5"",""21736""
","
",655.4949999845121,NA,49,NA,NA,3000,1,NA,NA,images/tutgreenplanet.jpg,images/tutalien1,images/tutalien2,null,images/tutalien2,images/t.png,NA,practice,null,NA,NA,NA,NA,sub23
d3-animate-choice,39,231642,0.0-39.0,TRUE,TRUE,TRUE,FALSE,"""event"",""trial"",""time""
""fullscreenenter"",""5"",""21736""
","
","
","""event"",""trial"",""time""
""fullscreenenter"",""5"",""21736""
","
",437.1650000102818,NA,49,NA,NA,3000,1,NA,NA,images/tutgreenplanet.jpg,images/tutalien1,images/tutalien2,null,images/tutalien2,images/t.png,NA,practice,null,NA,NA,NA,NA,sub23
d3-animate-choice,40,234133,0.0-40.0,TRUE,TRUE,TRUE,FALSE,"""event"",""trial"",""time""
""fullscreenenter"",""5"",""21736""
","
","
","""event"",""trial"",""time""
""fullscreenenter"",""5"",""21736""
","
",486.0249999910593,NA,49,NA,NA,3000,1,NA,NA,images/tutgreenplanet.jpg,images/tutalien1,images/tutalien2,null,images/tutalien2,images/t.png,NA,practice,null,NA,NA,NA,NA,sub23
d3-animate-choice,41,236536,0.0-41.0,TRUE,TRUE,TRUE,FALSE,"""event"",""trial"",""time""
""fullscreenenter"",""5"",""21736""
","
","
","""event"",""trial"",""time""
""fullscreenenter"",""5"",""21736""
","
",397.4950000119861,NA,49,NA,NA,3000,1,NA,NA,images/tutgreenplanet.jpg,images/tutalien1,images/tutalien2,null,images/tutalien2,images/t.png,NA,practice,null,NA,NA,NA,NA,sub23
d3-animate-choice,42,239072,0.0-42.0,TRUE,TRUE,TRUE,FALSE,"""event"",""trial"",""time""
""fullscreenenter"",""5"",""21736""
","
","
","""event"",""trial"",""time""
""fullscreenenter"",""5"",""21736""
","
",530.4250000044703,NA,49,NA,NA,3000,1,NA,NA,images/tutgreenplanet.jpg,images/tutalien1,images/tutalien2,null,images/tutalien2,images/nothing.png,NA,practice,null,NA,NA,NA,NA,sub23
d3-animate-choice,43,241546,0.0-43.0,TRUE,TRUE,TRUE,FALSE,"""event"",""trial"",""time""
""fullscreenenter"",""5"",""21736""
","
","
","""event"",""trial"",""time""
""fullscreenenter"",""5"",""21736""
","
",465.3999999864027,NA,49,NA,NA,3000,1,NA,NA,images/tutgreenplanet.jpg,images/tutalien1,images/tutalien2,null,images/tutalien2,images/t.png,NA,practice,null,NA,NA,NA,NA,sub23
d3-instructions,44,255322,0.0-44.0,TRUE,TRUE,TRUE,FALSE,"""event"",""trial"",""time""
""fullscreenenter"",""5"",""21736""
","
","
","""event"",""trial"",""time""
""fullscreenenter"",""5"",""21736""
","
",NA,NA,NA,NA,NA,NA,NA,NA,NA,NA,NA,NA,NA,NA,NA,NA,NA,NA,NA,NA,NA,NA,sub23
d3-instructions,45,261900,0.0-45.0,TRUE,TRUE,TRUE,FALSE,"""event"",""trial"",""time""
""fullscreenenter"",""5"",""21736""
","
","
","""event"",""trial"",""time""
""fullscreenenter"",""5"",""21736""
","
",NA,NA,NA,NA,NA,NA,NA,NA,NA,NA,NA,NA,NA,NA,NA,NA,NA,NA,NA,NA,NA,NA,sub23
d3-instructions,46,267270,0.0-46.0,TRUE,TRUE,TRUE,FALSE,"""event"",""trial"",""time""
""fullscreenenter"",""5"",""21736""
","
","
","""event"",""trial"",""time""
""fullscreenenter"",""5"",""21736""
","
",NA,NA,NA,NA,NA,NA,NA,NA,NA,NA,NA,NA,NA,NA,NA,NA,NA,NA,NA,NA,NA,NA,sub23
d3-instructions,47,284591,0.0-47.0,TRUE,TRUE,TRUE,FALSE,"""event"",""trial"",""time""
""fullscreenenter"",""5"",""21736""
","
","
","""event"",""trial"",""time""
""fullscreenenter"",""5"",""21736""
","
",NA,NA,NA,NA,NA,NA,NA,NA,NA,NA,NA,NA,NA,NA,NA,NA,NA,NA,NA,NA,NA,NA,sub23
d3-instructions,48,291580,0.0-48.0,TRUE,TRUE,TRUE,FALSE,"""event"",""trial"",""time""
""fullscreenenter"",""5"",""21736""
","
","
","""event"",""trial"",""time""
""fullscreenenter"",""5"",""21736""
","
",NA,NA,NA,NA,NA,NA,NA,NA,NA,NA,NA,NA,NA,NA,NA,NA,NA,NA,NA,NA,NA,NA,sub23
d3-instructions,49,302594,0.0-49.0,TRUE,TRUE,TRUE,FALSE,"""event"",""trial"",""time""
""fullscreenenter"",""5"",""21736""
","
","
","""event"",""trial"",""time""
""fullscreenenter"",""5"",""21736""
","
",NA,NA,NA,NA,NA,NA,NA,NA,NA,NA,NA,NA,NA,NA,NA,NA,NA,NA,NA,NA,NA,NA,sub23
d3-instructions,50,311794,0.0-50.0,TRUE,TRUE,TRUE,FALSE,"""event"",""trial"",""time""
""fullscreenenter"",""5"",""21736""
","
","
","""event"",""trial"",""time""
""fullscreenenter"",""5"",""21736""
","
",NA,NA,NA,NA,NA,NA,NA,NA,NA,NA,NA,NA,NA,NA,NA,NA,NA,NA,NA,NA,NA,NA,sub23
d3-instructions,51,314729,0.0-51.0,TRUE,TRUE,TRUE,FALSE,"""event"",""trial"",""time""
""fullscreenenter"",""5"",""21736""
","
","
","""event"",""trial"",""time""
""fullscreenenter"",""5"",""21736""
","
",NA,NA,NA,NA,NA,NA,NA,NA,NA,NA,NA,NA,NA,NA,NA,NA,NA,NA,NA,NA,NA,NA,sub23
d3-instructions,52,318172,0.0-52.0,TRUE,TRUE,TRUE,FALSE,"""event"",""trial"",""time""
""fullscreenenter"",""5"",""21736""
","
","
","""event"",""trial"",""time""
""fullscreenenter"",""5"",""21736""
","
",NA,NA,NA,NA,NA,NA,NA,NA,NA,NA,NA,NA,NA,NA,NA,NA,NA,NA,NA,NA,NA,NA,sub23
d3-instructions,53,330449,0.0-53.0,TRUE,TRUE,TRUE,FALSE,"""event"",""trial"",""time""
""fullscreenenter"",""5"",""21736""
","
","
","""event"",""trial"",""time""
""fullscreenenter"",""5"",""21736""
","
",NA,NA,NA,NA,NA,NA,NA,NA,NA,NA,NA,NA,NA,NA,NA,NA,NA,NA,NA,NA,NA,NA,sub23
d3-instructions,54,343268,0.0-54.0,TRUE,TRUE,TRUE,FALSE,"""event"",""trial"",""time""
""fullscreenenter"",""5"",""21736""
","
","
","""event"",""trial"",""time""
""fullscreenenter"",""5"",""21736""
","
",NA,NA,NA,NA,NA,NA,NA,NA,NA,NA,NA,NA,NA,NA,NA,NA,NA,NA,NA,NA,NA,NA,sub23
d3-instructions,55,353632,0.0-55.0,TRUE,TRUE,TRUE,FALSE,"""event"",""trial"",""time""
""fullscreenenter"",""5"",""21736""
","
","
","""event"",""trial"",""time""
""fullscreenenter"",""5"",""21736""
","
",NA,NA,NA,NA,NA,NA,NA,NA,NA,NA,NA,NA,NA,NA,NA,NA,NA,NA,NA,NA,NA,NA,sub23
d3-instructions,56,362107,0.0-56.0,TRUE,TRUE,TRUE,FALSE,"""event"",""trial"",""time""
""fullscreenenter"",""5"",""21736""
","
","
","""event"",""trial"",""time""
""fullscreenenter"",""5"",""21736""
","
",NA,NA,NA,NA,NA,NA,NA,NA,NA,NA,NA,NA,NA,NA,NA,NA,NA,NA,NA,NA,NA,NA,sub23
d3-instructions,57,372752,0.0-57.0,TRUE,TRUE,TRUE,FALSE,"""event"",""trial"",""time""
""fullscreenenter"",""5"",""21736""
","
","
","""event"",""trial"",""time""
""fullscreenenter"",""5"",""21736""
","
",NA,NA,NA,NA,NA,NA,NA,NA,NA,NA,NA,NA,NA,NA,NA,NA,NA,NA,NA,NA,NA,NA,sub23
d3-instructions,58,384793,0.0-58.0,TRUE,TRUE,TRUE,FALSE,"""event"",""trial"",""time""
""fullscreenenter"",""5"",""21736""
","
","
","""event"",""trial"",""time""
""fullscreenenter"",""5"",""21736""
","
",NA,NA,NA,NA,NA,NA,NA,NA,NA,NA,NA,NA,NA,NA,NA,NA,NA,NA,NA,NA,NA,NA,sub23
d3-instructions,59,390085,0.0-59.0,TRUE,TRUE,TRUE,FALSE,"""event"",""trial"",""time""
""fullscreenenter"",""5"",""21736""
","
","
","""event"",""trial"",""time""
""fullscreenenter"",""5"",""21736""
","
",NA,NA,NA,NA,NA,NA,NA,NA,NA,NA,NA,NA,NA,NA,NA,NA,NA,NA,NA,NA,NA,NA,sub23
d3-instructions,60,397646,0.0-60.0,TRUE,TRUE,TRUE,FALSE,"""event"",""trial"",""time""
""fullscreenenter"",""5"",""21736""
","
","
","""event"",""trial"",""time""
""fullscreenenter"",""5"",""21736""
","
",NA,NA,NA,NA,NA,NA,NA,NA,NA,NA,NA,NA,NA,NA,NA,NA,NA,NA,NA,NA,NA,NA,sub23
d3-animate-choice,61,400345,0.0-61.0-0.0,TRUE,TRUE,TRUE,FALSE,"""event"",""trial"",""time""
""fullscreenenter"",""5"",""21736""
","
","
","""event"",""trial"",""time""
""fullscreenenter"",""5"",""21736""
","
",694.420000014361,NA,48,NA,NA,3000,1,NA,NA,images/earth.jpg,images/tutrocket2,images/tutrocket1,null,images/tutrocket2,NA,1,practice,null,2,NA,NA,NA,sub23
d3-animate-choice,62,403866,0.0-61.0-1.0,TRUE,TRUE,TRUE,FALSE,"""event"",""trial"",""time""
""fullscreenenter"",""5"",""21736""
","
","
","""event"",""trial"",""time""
""fullscreenenter"",""5"",""21736""
","
",1514.2649999761488,NA,48,NA,NA,3000,1,NA,NA,images/tutyellowplanet.jpg,images/tutalien4,images/tutalien3,images/tutrocket2,images/tutalien4,images/nothing.png,2,practice,true,2,common,0,2020-06-12T18:31:40Z,sub23
two-step-fixation,63,404877,0.0-61.0-2.0,TRUE,TRUE,TRUE,FALSE,"""event"",""trial"",""time""
""fullscreenenter"",""5"",""21736""
","
","
","""event"",""trial"",""time""
""fullscreenenter"",""5"",""21736""
","
",NA,images/earth.jpg,NA,NA,NA,NA,NA,NA,NA,NA,NA,NA,NA,NA,NA,fixation,NA,NA,NA,NA,NA,NA,sub23
d3-animate-choice,64,407806,0.0-61.0-0.1,TRUE,TRUE,TRUE,FALSE,"""event"",""trial"",""time""
""fullscreenenter"",""5"",""21736""
","
","
","""event"",""trial"",""time""
""fullscreenenter"",""5"",""21736""
","
",920.6600000034086,NA,48,NA,NA,3000,1,NA,NA,images/earth.jpg,images/tutrocket2,images/tutrocket1,null,images/tutrocket2,NA,1,practice,null,2,NA,NA,NA,sub23
d3-animate-choice,65,410905,0.0-61.0-1.1,TRUE,TRUE,TRUE,FALSE,"""event"",""trial"",""time""
""fullscreenenter"",""5"",""21736""
","
","
","""event"",""trial"",""time""
""fullscreenenter"",""5"",""21736""
","
",1094.5249999931548,NA,48,NA,NA,3000,1,NA,NA,images/tutgreenplanet.jpg,images/tutalien2,images/tutalien1,images/tutrocket2,images/tutalien2,images/nothing.png,2,practice,false,2,rare,0,2020-06-12T18:31:47Z,sub23
two-step-fixation,66,411912,0.0-61.0-2.1,TRUE,TRUE,TRUE,FALSE,"""event"",""trial"",""time""
""fullscreenenter"",""5"",""21736""
","
","
","""event"",""trial"",""time""
""fullscreenenter"",""5"",""21736""
","
",NA,images/earth.jpg,NA,NA,NA,NA,NA,NA,NA,NA,NA,NA,NA,NA,NA,fixation,NA,NA,NA,NA,NA,NA,sub23
d3-animate-choice,67,414771,0.0-61.0-0.2,TRUE,TRUE,TRUE,FALSE,"""event"",""trial"",""time""
""fullscreenenter"",""5"",""21736""
","
","
","""event"",""trial"",""time""
""fullscreenenter"",""5"",""21736""
","
",852.2750000120141,NA,48,NA,NA,3000,1,NA,NA,images/earth.jpg,images/tutrocket2,images/tutrocket1,null,images/tutrocket2,NA,1,practice,null,2,NA,NA,NA,sub23
d3-animate-choice,68,417766,0.0-61.0-1.2,TRUE,TRUE,TRUE,FALSE,"""event"",""trial"",""time""
""fullscreenenter"",""5"",""21736""
","
","
","""event"",""trial"",""time""
""fullscreenenter"",""5"",""21736""
","
",989.4449999846984,NA,49,NA,NA,3000,1,NA,NA,images/tutyellowplanet.jpg,images/tutalien4,images/tutalien3,images/tutrocket2,images/tutalien3,images/nothing.png,2,practice,true,1,common,0,2020-06-12T18:31:54Z,sub23
two-step-fixation,69,418770,0.0-61.0-2.2,TRUE,TRUE,TRUE,FALSE,"""event"",""trial"",""time""
""fullscreenenter"",""5"",""21736""
","
","
","""event"",""trial"",""time""
""fullscreenenter"",""5"",""21736""
","
",NA,images/earth.jpg,NA,NA,NA,NA,NA,NA,NA,NA,NA,NA,NA,NA,NA,fixation,NA,NA,NA,NA,NA,NA,sub23
d3-animate-choice,70,421997,0.0-61.0-0.3,TRUE,TRUE,TRUE,FALSE,"""event"",""trial"",""time""
""fullscreenenter"",""5"",""21736""
","
","
","""event"",""trial"",""time""
""fullscreenenter"",""5"",""21736""
","
",1222.2049999982119,NA,49,NA,NA,3000,1,NA,NA,images/earth.jpg,images/tutrocket2,images/tutrocket1,null,images/tutrocket1,NA,1,practice,null,1,NA,NA,NA,sub23
d3-animate-choice,71,424520,0.0-61.0-1.3,TRUE,TRUE,TRUE,FALSE,"""event"",""trial"",""time""
""fullscreenenter"",""5"",""21736""
","
","
","""event"",""trial"",""time""
""fullscreenenter"",""5"",""21736""
","
",515.2900000102818,NA,49,NA,NA,3000,1,NA,NA,images/tutgreenplanet.jpg,images/tutalien2,images/tutalien1,images/tutrocket1,images/tutalien1,images/t.png,2,practice,true,1,common,1,2020-06-12T18:32:01Z,sub23
two-step-fixation,72,425524,0.0-61.0-2.3,TRUE,TRUE,TRUE,FALSE,"""event"",""trial"",""time""
""fullscreenenter"",""5"",""21736""
","
","
","""event"",""trial"",""time""
""fullscreenenter"",""5"",""21736""
","
",NA,images/earth.jpg,NA,NA,NA,NA,NA,NA,NA,NA,NA,NA,NA,NA,NA,fixation,NA,NA,NA,NA,NA,NA,sub23
d3-animate-choice,73,428403,0.0-61.0-0.4,TRUE,TRUE,TRUE,FALSE,"""event"",""trial"",""time""
""fullscreenenter"",""5"",""21736""
","
","
","""event"",""trial"",""time""
""fullscreenenter"",""5"",""21736""
","
",870.7599999906961,NA,49,NA,NA,3000,1,NA,NA,images/earth.jpg,images/tutrocket2,images/tutrocket1,null,images/tutrocket1,NA,1,practice,null,1,NA,NA,NA,sub23
d3-animate-choice,74,431444,0.0-61.0-1.4,TRUE,TRUE,TRUE,FALSE,"""event"",""trial"",""time""
""fullscreenenter"",""5"",""21736""
","
","
","""event"",""trial"",""time""
""fullscreenenter"",""5"",""21736""
","
",1033.1700000097044,NA,49,NA,NA,3000,1,NA,NA,images/tutgreenplanet.jpg,images/tutalien2,images/tutalien1,images/tutrocket1,images/tutalien1,images/nothing.png,2,practice,true,1,common,0,2020-06-12T18:32:08Z,sub23
two-step-fixation,75,432449,0.0-61.0-2.4,TRUE,TRUE,TRUE,FALSE,"""event"",""trial"",""time""
""fullscreenenter"",""5"",""21736""
","
","
","""event"",""trial"",""time""
""fullscreenenter"",""5"",""21736""
","
",NA,images/earth.jpg,NA,NA,NA,NA,NA,NA,NA,NA,NA,NA,NA,NA,NA,fixation,NA,NA,NA,NA,NA,NA,sub23
d3-animate-choice,76,435090,0.0-61.0-0.5,TRUE,TRUE,TRUE,FALSE,"""event"",""trial"",""time""
""fullscreenenter"",""5"",""21736""
","
","
","""event"",""trial"",""time""
""fullscreenenter"",""5"",""21736""
","
",635.2650000189897,NA,49,NA,NA,3000,1,NA,NA,images/earth.jpg,images/tutrocket2,images/tutrocket1,null,images/tutrocket1,NA,1,practice,null,1,NA,NA,NA,sub23
d3-animate-choice,77,437819,0.0-61.0-1.5,TRUE,TRUE,TRUE,FALSE,"""event"",""trial"",""time""
""fullscreenenter"",""5"",""21736""
","
","
","""event"",""trial"",""time""
""fullscreenenter"",""5"",""21736""
","
",723.8000000070315,NA,49,NA,NA,3000,1,NA,NA,images/tutgreenplanet.jpg,images/tutalien2,images/tutalien1,images/tutrocket1,images/tutalien1,images/t.png,2,practice,true,1,common,1,2020-06-12T18:32:14Z,sub23
two-step-fixation,78,438823,0.0-61.0-2.5,TRUE,TRUE,TRUE,FALSE,"""event"",""trial"",""time""
""fullscreenenter"",""5"",""21736""
","
","
","""event"",""trial"",""time""
""fullscreenenter"",""5"",""21736""
","
",NA,images/earth.jpg,NA,NA,NA,NA,NA,NA,NA,NA,NA,NA,NA,NA,NA,fixation,NA,NA,NA,NA,NA,NA,sub23
d3-animate-choice,79,441449,0.0-61.0-0.6,TRUE,TRUE,TRUE,FALSE,"""event"",""trial"",""time""
""fullscreenenter"",""5"",""21736""
","
","
","""event"",""trial"",""time""
""fullscreenenter"",""5"",""21736""
","
",621.6949999798089,NA,49,NA,NA,3000,1,NA,NA,images/earth.jpg,images/tutrocket2,images/tutrocket1,null,images/tutrocket1,NA,1,practice,null,1,NA,NA,NA,sub23
d3-animate-choice,80,443982,0.0-61.0-1.6,TRUE,TRUE,TRUE,FALSE,"""event"",""trial"",""time""
""fullscreenenter"",""5"",""21736""
","
","
","""event"",""trial"",""time""
""fullscreenenter"",""5"",""21736""
","
",527.8250000264961,NA,49,NA,NA,3000,1,NA,NA,images/tutgreenplanet.jpg,images/tutalien2,images/tutalien1,images/tutrocket1,images/tutalien1,images/t.png,2,practice,true,1,common,1,2020-06-12T18:32:20Z,sub23
two-step-fixation,81,444986,0.0-61.0-2.6,TRUE,TRUE,TRUE,FALSE,"""event"",""trial"",""time""
""fullscreenenter"",""5"",""21736""
","
","
","""event"",""trial"",""time""
""fullscreenenter"",""5"",""21736""
","
",NA,images/earth.jpg,NA,NA,NA,NA,NA,NA,NA,NA,NA,NA,NA,NA,NA,fixation,NA,NA,NA,NA,NA,NA,sub23
d3-animate-choice,82,447353,0.0-61.0-0.7,TRUE,TRUE,TRUE,FALSE,"""event"",""trial"",""time""
""fullscreenenter"",""5"",""21736""
","
","
","""event"",""trial"",""time""
""fullscreenenter"",""5"",""21736""
","
",361.7950000043493,NA,49,NA,NA,3000,1,NA,NA,images/earth.jpg,images/tutrocket2,images/tutrocket1,null,images/tutrocket1,NA,1,practice,null,1,NA,NA,NA,sub23
d3-animate-choice,83,449745,0.0-61.0-1.7,TRUE,TRUE,TRUE,FALSE,"""event"",""trial"",""time""
""fullscreenenter"",""5"",""21736""
","
","
","""event"",""trial"",""time""
""fullscreenenter"",""5"",""21736""
","
",387.7150000189431,NA,49,NA,NA,3000,1,NA,NA,images/tutgreenplanet.jpg,images/tutalien2,images/tutalien1,images/tutrocket1,images/tutalien1,images/nothing.png,2,practice,true,1,common,0,2020-06-12T18:32:26Z,sub23
two-step-fixation,84,450751,0.0-61.0-2.7,TRUE,TRUE,TRUE,FALSE,"""event"",""trial"",""time""
""fullscreenenter"",""5"",""21736""
","
","
","""event"",""trial"",""time""
""fullscreenenter"",""5"",""21736""
","
",NA,images/earth.jpg,NA,NA,NA,NA,NA,NA,NA,NA,NA,NA,NA,NA,NA,fixation,NA,NA,NA,NA,NA,NA,sub23
d3-animate-choice,85,453305,0.0-61.0-0.8,TRUE,TRUE,TRUE,FALSE,"""event"",""trial"",""time""
""fullscreenenter"",""5"",""21736""
","
","
","""event"",""trial"",""time""
""fullscreenenter"",""5"",""21736""
","
",549.31500001112,NA,49,NA,NA,3000,1,NA,NA,images/earth.jpg,images/tutrocket2,images/tutrocket1,null,images/tutrocket1,NA,1,practice,null,1,NA,NA,NA,sub23
d3-animate-choice,86,455860,0.0-61.0-1.8,TRUE,TRUE,TRUE,FALSE,"""event"",""trial"",""time""
""fullscreenenter"",""5"",""21736""
","
","
","""event"",""trial"",""time""
""fullscreenenter"",""5"",""21736""
","
",549.4000000180677,NA,49,NA,NA,3000,1,NA,NA,images/tutgreenplanet.jpg,images/tutalien2,images/tutalien1,images/tutrocket1,images/tutalien1,images/nothing.png,2,practice,true,1,common,0,2020-06-12T18:32:32Z,sub23
two-step-fixation,87,456865,0.0-61.0-2.8,TRUE,TRUE,TRUE,FALSE,"""event"",""trial"",""time""
""fullscreenenter"",""5"",""21736""
","
","
","""event"",""trial"",""time""
""fullscreenenter"",""5"",""21736""
","
",NA,images/earth.jpg,NA,NA,NA,NA,NA,NA,NA,NA,NA,NA,NA,NA,NA,fixation,NA,NA,NA,NA,NA,NA,sub23
d3-animate-choice,88,459435,0.0-61.0-0.9,TRUE,TRUE,TRUE,FALSE,"""event"",""trial"",""time""
""fullscreenenter"",""5"",""21736""
","
","
","""event"",""trial"",""time""
""fullscreenenter"",""5"",""21736""
","
",564.425000018673,NA,49,NA,NA,3000,1,NA,NA,images/earth.jpg,images/tutrocket2,images/tutrocket1,null,images/tutrocket1,NA,1,practice,null,1,NA,NA,NA,sub23
d3-animate-choice,89,461971,0.0-61.0-1.9,TRUE,TRUE,TRUE,FALSE,"""event"",""trial"",""time""
""fullscreenenter"",""5"",""21736""
","
","
","""event"",""trial"",""time""
""fullscreenenter"",""5"",""21736""
","
",528.5100000037346,NA,48,NA,NA,3000,1,NA,NA,images/tutgreenplanet.jpg,images/tutalien2,images/tutalien1,images/tutrocket1,images/tutalien2,images/t.png,2,practice,true,2,common,1,2020-06-12T18:32:38Z,sub23
two-step-fixation,90,462975,0.0-61.0-2.9,TRUE,TRUE,TRUE,FALSE,"""event"",""trial"",""time""
""fullscreenenter"",""5"",""21736""
","
","
","""event"",""trial"",""time""
""fullscreenenter"",""5"",""21736""
","
",NA,images/earth.jpg,NA,NA,NA,NA,NA,NA,NA,NA,NA,NA,NA,NA,NA,fixation,NA,NA,NA,NA,NA,NA,sub23
d3-animate-choice,91,466081,0.0-61.0-0.10,TRUE,TRUE,TRUE,FALSE,"""event"",""trial"",""time""
""fullscreenenter"",""5"",""21736""
","
","
","""event"",""trial"",""time""
""fullscreenenter"",""5"",""21736""
","
",1100.0500000081956,NA,49,NA,NA,3000,1,NA,NA,images/earth.jpg,images/tutrocket2,images/tutrocket1,null,images/tutrocket1,NA,1,practice,null,1,NA,NA,NA,sub23
d3-animate-choice,92,468594,0.0-61.0-1.10,TRUE,TRUE,TRUE,FALSE,"""event"",""trial"",""time""
""fullscreenenter"",""5"",""21736""
","
","
","""event"",""trial"",""time""
""fullscreenenter"",""5"",""21736""
","
",508.479999989504,NA,48,NA,NA,3000,1,NA,NA,images/tutyellowplanet.jpg,images/tutalien4,images/tutalien3,images/tutrocket1,images/tutalien4,images/nothing.png,2,practice,false,2,rare,0,2020-06-12T18:32:45Z,sub23
two-step-fixation,93,469598,0.0-61.0-2.10,TRUE,TRUE,TRUE,FALSE,"""event"",""trial"",""time""
""fullscreenenter"",""5"",""21736""
","
","
","""event"",""trial"",""time""
""fullscreenenter"",""5"",""21736""
","
",NA,images/earth.jpg,NA,NA,NA,NA,NA,NA,NA,NA,NA,NA,NA,NA,NA,fixation,NA,NA,NA,NA,NA,NA,sub23
d3-animate-choice,94,471974,0.0-61.0-0.11,TRUE,TRUE,TRUE,FALSE,"""event"",""trial"",""time""
""fullscreenenter"",""5"",""21736""
","
","
","""event"",""trial"",""time""
""fullscreenenter"",""5"",""21736""
","
",369.555000012042,NA,49,NA,NA,3000,1,NA,NA,images/earth.jpg,images/tutrocket2,images/tutrocket1,null,images/tutrocket1,NA,1,practice,null,1,NA,NA,NA,sub23
d3-animate-choice,95,474491,0.0-61.0-1.11,TRUE,TRUE,TRUE,FALSE,"""event"",""trial"",""time""
""fullscreenenter"",""5"",""21736""
","
","
","""event"",""trial"",""time""
""fullscreenenter"",""5"",""21736""
","
",509.26500000059605,NA,49,NA,NA,3000,1,NA,NA,images/tutgreenplanet.jpg,images/tutalien2,images/tutalien1,images/tutrocket1,images/tutalien1,images/t.png,2,practice,true,1,common,1,2020-06-12T18:32:51Z,sub23
two-step-fixation,96,475498,0.0-61.0-2.11,TRUE,TRUE,TRUE,FALSE,"""event"",""trial"",""time""
""fullscreenenter"",""5"",""21736""
","
","
","""event"",""trial"",""time""
""fullscreenenter"",""5"",""21736""
","
",NA,images/earth.jpg,NA,NA,NA,NA,NA,NA,NA,NA,NA,NA,NA,NA,NA,fixation,NA,NA,NA,NA,NA,NA,sub23
d3-animate-choice,97,478001,0.0-61.0-0.12,TRUE,TRUE,TRUE,FALSE,"""event"",""trial"",""time""
""fullscreenenter"",""5"",""21736""
","
","
","""event"",""trial"",""time""
""fullscreenenter"",""5"",""21736""
","
",495.47500000335276,NA,49,NA,NA,3000,1,NA,NA,images/earth.jpg,images/tutrocket2,images/tutrocket1,null,images/tutrocket1,NA,1,practice,null,1,NA,NA,NA,sub23
d3-animate-choice,98,481347,0.0-61.0-1.12,TRUE,TRUE,TRUE,FALSE,"""event"",""trial"",""time""
""fullscreenenter"",""5"",""21736""
","
","
","""event"",""trial"",""time""
""fullscreenenter"",""5"",""21736""
","
",1341.935000004014,NA,49,NA,NA,3000,1,NA,NA,images/tutyellowplanet.jpg,images/tutalien4,images/tutalien3,images/tutrocket1,images/tutalien3,images/nothing.png,2,practice,false,1,rare,0,2020-06-12T18:32:58Z,sub23
two-step-fixation,99,482354,0.0-61.0-2.12,TRUE,TRUE,TRUE,FALSE,"""event"",""trial"",""time""
""fullscreenenter"",""5"",""21736""
","
","
","""event"",""trial"",""time""
""fullscreenenter"",""5"",""21736""
","
",NA,images/earth.jpg,NA,NA,NA,NA,NA,NA,NA,NA,NA,NA,NA,NA,NA,fixation,NA,NA,NA,NA,NA,NA,sub23
d3-animate-choice,100,484757,0.0-61.0-0.13,TRUE,TRUE,TRUE,FALSE,"""event"",""trial"",""time""
""fullscreenenter"",""5"",""21736""
","
","
","""event"",""trial"",""time""
""fullscreenenter"",""5"",""21736""
","
",394.9500000162516,NA,49,NA,NA,3000,1,NA,NA,images/earth.jpg,images/tutrocket2,images/tutrocket1,null,images/tutrocket1,NA,1,practice,null,1,NA,NA,NA,sub23
d3-animate-choice,101,488081,0.0-61.0-1.13,TRUE,TRUE,TRUE,FALSE,"""event"",""trial"",""time""
""fullscreenenter"",""5"",""21736""
","
","
","""event"",""trial"",""time""
""fullscreenenter"",""5"",""21736""
","
",1317.0899999968242,NA,48,NA,NA,3000,1,NA,NA,images/tutgreenplanet.jpg,images/tutalien2,images/tutalien1,images/tutrocket1,images/tutalien2,images/t.png,2,practice,true,2,common,1,2020-06-12T18:33:04Z,sub23
two-step-fixation,102,489086,0.0-61.0-2.13,TRUE,TRUE,TRUE,FALSE,"""event"",""trial"",""time""
""fullscreenenter"",""5"",""21736""
","
","
","""event"",""trial"",""time""
""fullscreenenter"",""5"",""21736""
","
",NA,images/earth.jpg,NA,NA,NA,NA,NA,NA,NA,NA,NA,NA,NA,NA,NA,fixation,NA,NA,NA,NA,NA,NA,sub23
d3-animate-choice,103,491566,0.0-61.0-0.14,TRUE,TRUE,TRUE,FALSE,"""event"",""trial"",""time""
""fullscreenenter"",""5"",""21736""
","
","
","""event"",""trial"",""time""
""fullscreenenter"",""5"",""21736""
","
",472.5650000036694,NA,49,NA,NA,3000,1,NA,NA,images/earth.jpg,images/tutrocket2,images/tutrocket1,null,images/tutrocket1,NA,1,practice,null,1,NA,NA,NA,sub23
d3-animate-choice,104,494981,0.0-61.0-1.14,TRUE,TRUE,TRUE,FALSE,"""event"",""trial"",""time""
""fullscreenenter"",""5"",""21736""
","
","
","""event"",""trial"",""time""
""fullscreenenter"",""5"",""21736""
","
",1408.5699999995995,NA,49,NA,NA,3000,1,NA,NA,images/tutyellowplanet.jpg,images/tutalien4,images/tutalien3,images/tutrocket1,images/tutalien3,images/nothing.png,2,practice,false,1,rare,0,2020-06-12T18:33:11Z,sub23
two-step-fixation,105,495985,0.0-61.0-2.14,TRUE,TRUE,TRUE,FALSE,"""event"",""trial"",""time""
""fullscreenenter"",""5"",""21736""
","
","
","""event"",""trial"",""time""
""fullscreenenter"",""5"",""21736""
","
",NA,images/earth.jpg,NA,NA,NA,NA,NA,NA,NA,NA,NA,NA,NA,NA,NA,fixation,NA,NA,NA,NA,NA,NA,sub23
d3-animate-choice,106,498408,0.0-61.0-0.15,TRUE,TRUE,TRUE,FALSE,"""event"",""trial"",""time""
""fullscreenenter"",""5"",""21736""
","
","
","""event"",""trial"",""time""
""fullscreenenter"",""5"",""21736""
","
",417.4899999925401,NA,49,NA,NA,3000,1,NA,NA,images/earth.jpg,images/tutrocket2,images/tutrocket1,null,images/tutrocket1,NA,1,practice,null,1,NA,NA,NA,sub23
d3-animate-choice,107,501415,0.0-61.0-1.15,TRUE,TRUE,TRUE,FALSE,"""event"",""trial"",""time""
""fullscreenenter"",""5"",""21736""
","
","
","""event"",""trial"",""time""
""fullscreenenter"",""5"",""21736""
","
",1001.8500000005588,NA,48,NA,NA,3000,1,NA,NA,images/tutyellowplanet.jpg,images/tutalien4,images/tutalien3,images/tutrocket1,images/tutalien4,images/t.png,2,practice,false,2,rare,1,2020-06-12T18:33:18Z,sub23
two-step-fixation,108,502419,0.0-61.0-2.15,TRUE,TRUE,TRUE,FALSE,"""event"",""trial"",""time""
""fullscreenenter"",""5"",""21736""
","
","
","""event"",""trial"",""time""
""fullscreenenter"",""5"",""21736""
","
",NA,images/earth.jpg,NA,NA,NA,NA,NA,NA,NA,NA,NA,NA,NA,NA,NA,fixation,NA,NA,NA,NA,NA,NA,sub23
d3-animate-choice,109,504923,0.0-61.0-0.16,TRUE,TRUE,TRUE,FALSE,"""event"",""trial"",""time""
""fullscreenenter"",""5"",""21736""
","
","
","""event"",""trial"",""time""
""fullscreenenter"",""5"",""21736""
","
",496.7250000045169,NA,49,NA,NA,3000,1,NA,NA,images/earth.jpg,images/tutrocket2,images/tutrocket1,null,images/tutrocket1,NA,1,practice,null,1,NA,NA,NA,sub23
d3-animate-choice,110,507478,0.0-61.0-1.16,TRUE,TRUE,TRUE,FALSE,"""event"",""trial"",""time""
""fullscreenenter"",""5"",""21736""
","
","
","""event"",""trial"",""time""
""fullscreenenter"",""5"",""21736""
","
",548.3449999883305,NA,48,NA,NA,3000,1,NA,NA,images/tutyellowplanet.jpg,images/tutalien4,images/tutalien3,images/tutrocket1,images/tutalien4,images/t.png,2,practice,false,2,rare,1,2020-06-12T18:33:24Z,sub23
two-step-fixation,111,508485,0.0-61.0-2.16,TRUE,TRUE,TRUE,FALSE,"""event"",""trial"",""time""
""fullscreenenter"",""5"",""21736""
","
","
","""event"",""trial"",""time""
""fullscreenenter"",""5"",""21736""
","
",NA,images/earth.jpg,NA,NA,NA,NA,NA,NA,NA,NA,NA,NA,NA,NA,NA,fixation,NA,NA,NA,NA,NA,NA,sub23
d3-animate-choice,112,510896,0.0-61.0-0.17,TRUE,TRUE,TRUE,FALSE,"""event"",""trial"",""time""
""fullscreenenter"",""5"",""21736""
","
","
","""event"",""trial"",""time""
""fullscreenenter"",""5"",""21736""
","
",403.3249999920372,NA,49,NA,NA,3000,1,NA,NA,images/earth.jpg,images/tutrocket2,images/tutrocket1,null,images/tutrocket1,NA,1,practice,null,1,NA,NA,NA,sub23
d3-animate-choice,113,513416,0.0-61.0-1.17,TRUE,TRUE,TRUE,FALSE,"""event"",""trial"",""time""
""fullscreenenter"",""5"",""21736""
","
","
","""event"",""trial"",""time""
""fullscreenenter"",""5"",""21736""
","
",513.730000006035,NA,48,NA,NA,3000,1,NA,NA,images/tutgreenplanet.jpg,images/tutalien2,images/tutalien1,images/tutrocket1,images/tutalien2,images/t.png,2,practice,true,2,common,1,2020-06-12T18:33:30Z,sub23
two-step-fixation,114,514422,0.0-61.0-2.17,TRUE,TRUE,TRUE,FALSE,"""event"",""trial"",""time""
""fullscreenenter"",""5"",""21736""
","
","
","""event"",""trial"",""time""
""fullscreenenter"",""5"",""21736""
","
",NA,images/earth.jpg,NA,NA,NA,NA,NA,NA,NA,NA,NA,NA,NA,NA,NA,fixation,NA,NA,NA,NA,NA,NA,sub23
d3-animate-choice,115,517126,0.0-61.0-0.18,TRUE,TRUE,TRUE,FALSE,"""event"",""trial"",""time""
""fullscreenenter"",""5"",""21736""
","
","
","""event"",""trial"",""time""
""fullscreenenter"",""5"",""21736""
","
",699.319999985164,NA,49,NA,NA,3000,1,NA,NA,images/earth.jpg,images/tutrocket2,images/tutrocket1,null,images/tutrocket1,NA,1,practice,null,1,NA,NA,NA,sub23
d3-animate-choice,116,519649,0.0-61.0-1.18,TRUE,TRUE,TRUE,FALSE,"""event"",""trial"",""time""
""fullscreenenter"",""5"",""21736""
","
","
","""event"",""trial"",""time""
""fullscreenenter"",""5"",""21736""
","
",516.1450000014156,NA,48,NA,NA,3000,1,NA,NA,images/tutgreenplanet.jpg,images/tutalien2,images/tutalien1,images/tutrocket1,images/tutalien2,images/t.png,2,practice,true,2,common,1,2020-06-12T18:33:36Z,sub23
two-step-fixation,117,520653,0.0-61.0-2.18,TRUE,TRUE,TRUE,FALSE,"""event"",""trial"",""time""
""fullscreenenter"",""5"",""21736""
","
","
","""event"",""trial"",""time""
""fullscreenenter"",""5"",""21736""
","
",NA,images/earth.jpg,NA,NA,NA,NA,NA,NA,NA,NA,NA,NA,NA,NA,NA,fixation,NA,NA,NA,NA,NA,NA,sub23
d3-animate-choice,118,523009,0.0-61.0-0.19,TRUE,TRUE,TRUE,FALSE,"""event"",""trial"",""time""
""fullscreenenter"",""5"",""21736""
","
","
","""event"",""trial"",""time""
""fullscreenenter"",""5"",""21736""
","
",348.93999999621883,NA,49,NA,NA,3000,1,NA,NA,images/earth.jpg,images/tutrocket2,images/tutrocket1,null,images/tutrocket1,NA,1,practice,null,1,NA,NA,NA,sub23
d3-animate-choice,119,525650,0.0-61.0-1.19,TRUE,TRUE,TRUE,FALSE,"""event"",""trial"",""time""
""fullscreenenter"",""5"",""21736""
","
","
","""event"",""trial"",""time""
""fullscreenenter"",""5"",""21736""
","
",634.8749999888241,NA,48,NA,NA,3000,1,NA,NA,images/tutyellowplanet.jpg,images/tutalien4,images/tutalien3,images/tutrocket1,images/tutalien4,images/t.png,2,practice,false,2,rare,1,2020-06-12T18:33:42Z,sub23
two-step-fixation,120,526658,0.0-61.0-2.19,TRUE,TRUE,TRUE,FALSE,"""event"",""trial"",""time""
""fullscreenenter"",""5"",""21736""
","
","
","""event"",""trial"",""time""
""fullscreenenter"",""5"",""21736""
","
",NA,images/earth.jpg,NA,NA,NA,NA,NA,NA,NA,NA,NA,NA,NA,NA,NA,fixation,NA,NA,NA,NA,NA,NA,sub23
d3-instructions,121,533965,0.0-62.0,TRUE,TRUE,TRUE,FALSE,"""event"",""trial"",""time""
""fullscreenenter"",""5"",""21736""
","
","
","""event"",""trial"",""time""
""fullscreenenter"",""5"",""21736""
","
",NA,NA,NA,NA,NA,NA,NA,NA,NA,NA,NA,NA,NA,NA,NA,NA,NA,NA,NA,NA,NA,NA,sub23
audio-keyboard-response,122,539542,0.0-63.0,TRUE,TRUE,TRUE,FALSE,"""event"",""trial"",""time""
""fullscreenenter"",""5"",""21736""
","
","
","""event"",""trial"",""time""
""fullscreenenter"",""5"",""21736""
","
",5571,audio/instructions/treasure_feedback.wav,32,NA,NA,NA,NA,NA,NA,NA,NA,NA,NA,NA,NA,NA,NA,NA,NA,NA,NA,NA,sub23
d3-instructions,123,559297,0.0-64.0,TRUE,TRUE,TRUE,FALSE,"""event"",""trial"",""time""
""fullscreenenter"",""5"",""21736""
","
","
","""event"",""trial"",""time""
""fullscreenenter"",""5"",""21736""
","
",NA,NA,NA,NA,NA,NA,NA,NA,NA,NA,NA,NA,NA,NA,NA,NA,NA,NA,NA,NA,NA,NA,sub23
d3-instructions,124,573909,0.0-65.0,TRUE,TRUE,TRUE,FALSE,"""event"",""trial"",""time""
""fullscreenenter"",""5"",""21736""
","
","
","""event"",""trial"",""time""
""fullscreenenter"",""5"",""21736""
","
",NA,NA,NA,NA,NA,NA,NA,NA,NA,NA,NA,NA,NA,NA,NA,NA,NA,NA,NA,NA,NA,NA,sub23
d3-instructions,125,598935,0.0-66.0,TRUE,TRUE,TRUE,FALSE,"""event"",""trial"",""time""
""fullscreenenter"",""5"",""21736""
","
","
","""event"",""trial"",""time""
""fullscreenenter"",""5"",""21736""
","
",NA,NA,NA,NA,NA,NA,NA,NA,NA,NA,NA,NA,NA,NA,NA,NA,NA,NA,NA,NA,NA,NA,sub23
d3-instructions,126,616984,0.0-67.0,TRUE,TRUE,TRUE,FALSE,"""event"",""trial"",""time""
""fullscreenenter"",""5"",""21736""
","
","
","""event"",""trial"",""time""
""fullscreenenter"",""5"",""21736""
","
",NA,NA,NA,NA,NA,NA,NA,NA,NA,NA,NA,NA,NA,NA,NA,NA,NA,NA,NA,NA,NA,NA,sub23
d3-instructions,127,626407,0.0-68.0,TRUE,TRUE,TRUE,FALSE,"""event"",""trial"",""time""
""fullscreenenter"",""5"",""21736""
","
","
","""event"",""trial"",""time""
""fullscreenenter"",""5"",""21736""
","
",NA,NA,NA,NA,NA,NA,NA,NA,NA,NA,NA,NA,NA,NA,NA,NA,NA,NA,NA,NA,NA,NA,sub23
instructions-quiz,128,629430,0.0-69.0,TRUE,TRUE,TRUE,FALSE,"""event"",""trial"",""time""
""fullscreenenter"",""5"",""21736""
","
","
","""event"",""trial"",""time""
""fullscreenenter"",""5"",""21736""
","
",3020.429999975022,audio/quiz/Q1_Prompt.wav,NA,1,NA,NA,NA,NA,NA,NA,NA,NA,NA,NA,NA,NA,NA,NA,NA,NA,NA,NA,sub23
audio-keyboard-response,129,638594,0.0-70.0,TRUE,TRUE,TRUE,FALSE,"""event"",""trial"",""time""
""fullscreenenter"",""5"",""21736""
","
","
","""event"",""trial"",""time""
""fullscreenenter"",""5"",""21736""
","
",null,audio/quiz/Q1_Correct.wav,null,NA,NA,NA,NA,NA,NA,NA,NA,NA,NA,NA,NA,NA,NA,NA,NA,NA,NA,NA,sub23
instructions-quiz,130,644550,0.0-71.0,TRUE,TRUE,TRUE,FALSE,"""event"",""trial"",""time""
""fullscreenenter"",""5"",""21736""
","
","
","""event"",""trial"",""time""
""fullscreenenter"",""5"",""21736""
","
",5952.350000006845,audio/quiz/Q2_Prompt.wav,NA,0,NA,NA,NA,NA,NA,NA,NA,NA,NA,NA,NA,NA,NA,NA,NA,NA,NA,NA,sub23
audio-keyboard-response,131,657414,0.0-72.0,TRUE,TRUE,TRUE,FALSE,"""event"",""trial"",""time""
""fullscreenenter"",""5"",""21736""
","
","
","""event"",""trial"",""time""
""fullscreenenter"",""5"",""21736""
","
",null,audio/quiz/Q2_Correct.wav,null,NA,NA,NA,NA,NA,NA,NA,NA,NA,NA,NA,NA,NA,NA,NA,NA,NA,NA,NA,sub23
instructions-quiz,132,660055,0.0-73.0,TRUE,TRUE,TRUE,FALSE,"""event"",""trial"",""time""
""fullscreenenter"",""5"",""21736""
","
","
","""event"",""trial"",""time""
""fullscreenenter"",""5"",""21736""
","
",2638.7899999972433,audio/quiz/Q3_Prompt.wav,NA,1,NA,NA,NA,NA,NA,NA,NA,NA,NA,NA,NA,NA,NA,NA,NA,NA,NA,NA,sub23
audio-keyboard-response,133,665853,0.0-74.0,TRUE,TRUE,TRUE,FALSE,"""event"",""trial"",""time""
""fullscreenenter"",""5"",""21736""
","
","
","""event"",""trial"",""time""
""fullscreenenter"",""5"",""21736""
","
",null,audio/quiz/Q3_Correct.wav,null,NA,NA,NA,NA,NA,NA,NA,NA,NA,NA,NA,NA,NA,NA,NA,NA,NA,NA,NA,sub23
d3-instructions,134,679143,0.0-75.0,TRUE,TRUE,TRUE,FALSE,"""event"",""trial"",""time""
""fullscreenenter"",""5"",""21736""
","
","
","""event"",""trial"",""time""
""fullscreenenter"",""5"",""21736""
","
",NA,NA,NA,NA,NA,NA,NA,NA,NA,NA,NA,NA,NA,NA,NA,NA,NA,NA,NA,NA,NA,NA,sub23
d3-animate-choice,135,683139,0.0-76.0-0.0,TRUE,TRUE,TRUE,FALSE,"""event"",""trial"",""time""
""fullscreenenter"",""5"",""21736""
","
","
","""event"",""trial"",""time""
""fullscreenenter"",""5"",""21736""
","
",1990.445000003092,NA,48,NA,NA,3000,1,NA,NA,images/earth.jpg,images/rocket2,images/rocket1,null,images/rocket2,NA,1,real,null,2,NA,NA,NA,sub23
d3-animate-choice,136,685939,0.0-76.0-1.0,TRUE,TRUE,TRUE,FALSE,"""event"",""trial"",""time""
""fullscreenenter"",""5"",""21736""
","
","
","""event"",""trial"",""time""
""fullscreenenter"",""5"",""21736""
","
",794.7200000053272,NA,49,NA,NA,3000,1,NA,NA,images/redplanet1.jpg,images/alien2,images/alien1,images/rocket2,images/alien1,images/nothing.png,2,real,false,1,rare,0,2020-06-12T18:36:22Z,sub23
two-step-fixation,137,686944,0.0-76.0-2.0,TRUE,TRUE,TRUE,FALSE,"""event"",""trial"",""time""
""fullscreenenter"",""5"",""21736""
","
","
","""event"",""trial"",""time""
""fullscreenenter"",""5"",""21736""
","
",NA,images/earth.jpg,NA,NA,NA,NA,NA,NA,NA,NA,NA,NA,NA,NA,NA,fixation,NA,NA,NA,NA,NA,NA,sub23
d3-animate-choice,138,689497,0.0-76.0-0.1,TRUE,TRUE,TRUE,FALSE,"""event"",""trial"",""time""
""fullscreenenter"",""5"",""21736""
","
","
","""event"",""trial"",""time""
""fullscreenenter"",""5"",""21736""
","
",548.6300000047777,NA,48,NA,NA,3000,1,NA,NA,images/earth.jpg,images/rocket2,images/rocket1,null,images/rocket2,NA,1,real,null,2,NA,NA,NA,sub23
d3-animate-choice,139,692164,0.0-76.0-1.1,TRUE,TRUE,TRUE,FALSE,"""event"",""trial"",""time""
""fullscreenenter"",""5"",""21736""
","
","
","""event"",""trial"",""time""
""fullscreenenter"",""5"",""21736""
","
",660.394999984419,NA,49,NA,NA,3000,1,NA,NA,images/redplanet1.jpg,images/alien2,images/alien1,images/rocket2,images/alien1,images/nothing.png,2,real,false,1,rare,0,2020-06-12T18:36:28Z,sub23
two-step-fixation,140,693172,0.0-76.0-2.1,TRUE,TRUE,TRUE,FALSE,"""event"",""trial"",""time""
""fullscreenenter"",""5"",""21736""
","
","
","""event"",""trial"",""time""
""fullscreenenter"",""5"",""21736""
","
",NA,images/earth.jpg,NA,NA,NA,NA,NA,NA,NA,NA,NA,NA,NA,NA,NA,fixation,NA,NA,NA,NA,NA,NA,sub23
d3-animate-choice,141,695551,0.0-76.0-0.2,TRUE,TRUE,TRUE,FALSE,"""event"",""trial"",""time""
""fullscreenenter"",""5"",""21736""
","
","
","""event"",""trial"",""time""
""fullscreenenter"",""5"",""21736""
","
",371.41999998129904,NA,48,NA,NA,3000,1,NA,NA,images/earth.jpg,images/rocket2,images/rocket1,null,images/rocket2,NA,1,real,null,2,NA,NA,NA,sub23
d3-animate-choice,142,698886,0.0-76.0-1.2,TRUE,TRUE,TRUE,FALSE,"""event"",""trial"",""time""
""fullscreenenter"",""5"",""21736""
","
","
","""event"",""trial"",""time""
""fullscreenenter"",""5"",""21736""
","
",1329.4549999991432,NA,48,NA,NA,3000,1,NA,NA,images/purpleplanet.jpg,images/alien4,images/alien3,images/rocket2,images/alien4,images/t.png,2,real,true,2,common,1,2020-06-12T18:36:35Z,sub23
two-step-fixation,143,699890,0.0-76.0-2.2,TRUE,TRUE,TRUE,FALSE,"""event"",""trial"",""time""
""fullscreenenter"",""5"",""21736""
","
","
","""event"",""trial"",""time""
""fullscreenenter"",""5"",""21736""
","
",NA,images/earth.jpg,NA,NA,NA,NA,NA,NA,NA,NA,NA,NA,NA,NA,NA,fixation,NA,NA,NA,NA,NA,NA,sub23
d3-animate-choice,144,702312,0.0-76.0-0.3,TRUE,TRUE,TRUE,FALSE,"""event"",""trial"",""time""
""fullscreenenter"",""5"",""21736""
","
","
","""event"",""trial"",""time""
""fullscreenenter"",""5"",""21736""
","
",417.82999999122694,NA,48,NA,NA,3000,1,NA,NA,images/earth.jpg,images/rocket2,images/rocket1,null,images/rocket2,NA,1,real,null,2,NA,NA,NA,sub23
d3-animate-choice,145,705233,0.0-76.0-1.3,TRUE,TRUE,TRUE,FALSE,"""event"",""trial"",""time""
""fullscreenenter"",""5"",""21736""
","
","
","""event"",""trial"",""time""
""fullscreenenter"",""5"",""21736""
","
",915.9799999906681,NA,48,NA,NA,3000,1,NA,NA,images/purpleplanet.jpg,images/alien4,images/alien3,images/rocket2,images/alien4,images/t.png,2,real,true,2,common,1,2020-06-12T18:36:42Z,sub23
two-step-fixation,146,706240,0.0-76.0-2.3,TRUE,TRUE,TRUE,FALSE,"""event"",""trial"",""time""
""fullscreenenter"",""5"",""21736""
","
","
","""event"",""trial"",""time""
""fullscreenenter"",""5"",""21736""
","
",NA,images/earth.jpg,NA,NA,NA,NA,NA,NA,NA,NA,NA,NA,NA,NA,NA,fixation,NA,NA,NA,NA,NA,NA,sub23
d3-animate-choice,147,708673,0.0-76.0-0.4,TRUE,TRUE,TRUE,FALSE,"""event"",""trial"",""time""
""fullscreenenter"",""5"",""21736""
","
","
","""event"",""trial"",""time""
""fullscreenenter"",""5"",""21736""
","
",425.7750000106171,NA,48,NA,NA,3000,1,NA,NA,images/earth.jpg,images/rocket2,images/rocket1,null,images/rocket2,NA,1,real,null,2,NA,NA,NA,sub23
d3-animate-choice,148,711917,0.0-76.0-1.4,TRUE,TRUE,TRUE,FALSE,"""event"",""trial"",""time""
""fullscreenenter"",""5"",""21736""
","
","
","""event"",""trial"",""time""
""fullscreenenter"",""5"",""21736""
","
",1235.7149999879766,NA,48,NA,NA,3000,1,NA,NA,images/purpleplanet.jpg,images/alien4,images/alien3,images/rocket2,images/alien4,images/t.png,2,real,true,2,common,1,2020-06-12T18:36:48Z,sub23
two-step-fixation,149,712926,0.0-76.0-2.4,TRUE,TRUE,TRUE,FALSE,"""event"",""trial"",""time""
""fullscreenenter"",""5"",""21736""
","
","
","""event"",""trial"",""time""
""fullscreenenter"",""5"",""21736""
","
",NA,images/earth.jpg,NA,NA,NA,NA,NA,NA,NA,NA,NA,NA,NA,NA,NA,fixation,NA,NA,NA,NA,NA,NA,sub23
d3-animate-choice,150,715288,0.0-76.0-0.5,TRUE,TRUE,TRUE,FALSE,"""event"",""trial"",""time""
""fullscreenenter"",""5"",""21736""
","
","
","""event"",""trial"",""time""
""fullscreenenter"",""5"",""21736""
","
",354.3750000244472,NA,48,NA,NA,3000,1,NA,NA,images/earth.jpg,images/rocket2,images/rocket1,null,images/rocket2,NA,1,real,null,2,NA,NA,NA,sub23
d3-animate-choice,151,717733,0.0-76.0-1.5,TRUE,TRUE,TRUE,FALSE,"""event"",""trial"",""time""
""fullscreenenter"",""5"",""21736""
","
","
","""event"",""trial"",""time""
""fullscreenenter"",""5"",""21736""
","
",437.67499999376014,NA,48,NA,NA,3000,1,NA,NA,images/purpleplanet.jpg,images/alien4,images/alien3,images/rocket2,images/alien4,images/t.png,2,real,true,2,common,1,2020-06-12T18:36:54Z,sub23
two-step-fixation,152,718740,0.0-76.0-2.5,TRUE,TRUE,TRUE,FALSE,"""event"",""trial"",""time""
""fullscreenenter"",""5"",""21736""
","
","
","""event"",""trial"",""time""
""fullscreenenter"",""5"",""21736""
","
",NA,images/earth.jpg,NA,NA,NA,NA,NA,NA,NA,NA,NA,NA,NA,NA,NA,fixation,NA,NA,NA,NA,NA,NA,sub23
d3-animate-choice,153,721077,0.0-76.0-0.6,TRUE,TRUE,TRUE,FALSE,"""event"",""trial"",""time""
""fullscreenenter"",""5"",""21736""
","
","
","""event"",""trial"",""time""
""fullscreenenter"",""5"",""21736""
","
",331.01500000339,NA,48,NA,NA,3000,1,NA,NA,images/earth.jpg,images/rocket2,images/rocket1,null,images/rocket2,NA,1,real,null,2,NA,NA,NA,sub23
d3-animate-choice,154,723515,0.0-76.0-1.6,TRUE,TRUE,TRUE,FALSE,"""event"",""trial"",""time""
""fullscreenenter"",""5"",""21736""
","
","
","""event"",""trial"",""time""
""fullscreenenter"",""5"",""21736""
","
",434.41499999607913,NA,48,NA,NA,3000,1,NA,NA,images/purpleplanet.jpg,images/alien4,images/alien3,images/rocket2,images/alien4,images/nothing.png,2,real,true,2,common,0,2020-06-12T18:37:00Z,sub23
two-step-fixation,155,724521,0.0-76.0-2.6,TRUE,TRUE,TRUE,FALSE,"""event"",""trial"",""time""
""fullscreenenter"",""5"",""21736""
","
","
","""event"",""trial"",""time""
""fullscreenenter"",""5"",""21736""
","
",NA,images/earth.jpg,NA,NA,NA,NA,NA,NA,NA,NA,NA,NA,NA,NA,NA,fixation,NA,NA,NA,NA,NA,NA,sub23
d3-animate-choice,156,727164,0.0-76.0-0.7,TRUE,TRUE,TRUE,FALSE,"""event"",""trial"",""time""
""fullscreenenter"",""5"",""21736""
","
","
","""event"",""trial"",""time""
""fullscreenenter"",""5"",""21736""
","
",637.8750000149012,NA,48,NA,NA,3000,1,NA,NA,images/earth.jpg,images/rocket2,images/rocket1,null,images/rocket2,NA,1,real,null,2,NA,NA,NA,sub23
d3-animate-choice,157,729545,0.0-76.0-1.7,TRUE,TRUE,TRUE,FALSE,"""event"",""trial"",""time""
""fullscreenenter"",""5"",""21736""
","
","
","""event"",""trial"",""time""
""fullscreenenter"",""5"",""21736""
","
",377.31999999959953,NA,48,NA,NA,3000,1,NA,NA,images/redplanet1.jpg,images/alien2,images/alien1,images/rocket2,images/alien2,images/t.png,2,real,false,2,rare,1,2020-06-12T18:37:06Z,sub23
two-step-fixation,158,730550,0.0-76.0-2.7,TRUE,TRUE,TRUE,FALSE,"""event"",""trial"",""time""
""fullscreenenter"",""5"",""21736""
","
","
","""event"",""trial"",""time""
""fullscreenenter"",""5"",""21736""
","
",NA,images/earth.jpg,NA,NA,NA,NA,NA,NA,NA,NA,NA,NA,NA,NA,NA,fixation,NA,NA,NA,NA,NA,NA,sub23
d3-animate-choice,159,732932,0.0-76.0-0.8,TRUE,TRUE,TRUE,FALSE,"""event"",""trial"",""time""
""fullscreenenter"",""5"",""21736""
","
","
","""event"",""trial"",""time""
""fullscreenenter"",""5"",""21736""
","
",378.26500000664964,NA,48,NA,NA,3000,1,NA,NA,images/earth.jpg,images/rocket2,images/rocket1,null,images/rocket2,NA,1,real,null,2,NA,NA,NA,sub23
d3-animate-choice,160,735422,0.0-76.0-1.8,TRUE,TRUE,TRUE,FALSE,"""event"",""trial"",""time""
""fullscreenenter"",""5"",""21736""
","
","
","""event"",""trial"",""time""
""fullscreenenter"",""5"",""21736""
","
",485.4050000139978,NA,48,NA,NA,3000,1,NA,NA,images/purpleplanet.jpg,images/alien4,images/alien3,images/rocket2,images/alien4,images/t.png,2,real,true,2,common,1,2020-06-12T18:37:12Z,sub23
two-step-fixation,161,736429,0.0-76.0-2.8,TRUE,TRUE,TRUE,FALSE,"""event"",""trial"",""time""
""fullscreenenter"",""5"",""21736""
","
","
","""event"",""trial"",""time""
""fullscreenenter"",""5"",""21736""
","
",NA,images/earth.jpg,NA,NA,NA,NA,NA,NA,NA,NA,NA,NA,NA,NA,NA,fixation,NA,NA,NA,NA,NA,NA,sub23
d3-animate-choice,162,738812,0.0-76.0-0.9,TRUE,TRUE,TRUE,FALSE,"""event"",""trial"",""time""
""fullscreenenter"",""5"",""21736""
","
","
","""event"",""trial"",""time""
""fullscreenenter"",""5"",""21736""
","
",376.4849999861326,NA,48,NA,NA,3000,1,NA,NA,images/earth.jpg,images/rocket2,images/rocket1,null,images/rocket2,NA,1,real,null,2,NA,NA,NA,sub23
d3-animate-choice,163,741264,0.0-76.0-1.9,TRUE,TRUE,TRUE,FALSE,"""event"",""trial"",""time""
""fullscreenenter"",""5"",""21736""
","
","
","""event"",""trial"",""time""
""fullscreenenter"",""5"",""21736""
","
",444.6849999949336,NA,48,NA,NA,3000,1,NA,NA,images/purpleplanet.jpg,images/alien4,images/alien3,images/rocket2,images/alien4,images/t.png,2,real,true,2,common,1,2020-06-12T18:37:18Z,sub23
two-step-fixation,164,742268,0.0-76.0-2.9,TRUE,TRUE,TRUE,FALSE,"""event"",""trial"",""time""
""fullscreenenter"",""5"",""21736""
","
","
","""event"",""trial"",""time""
""fullscreenenter"",""5"",""21736""
","
",NA,images/earth.jpg,NA,NA,NA,NA,NA,NA,NA,NA,NA,NA,NA,NA,NA,fixation,NA,NA,NA,NA,NA,NA,sub23
d3-animate-choice,165,744589,0.0-76.0-0.10,TRUE,TRUE,TRUE,FALSE,"""event"",""trial"",""time""
""fullscreenenter"",""5"",""21736""
","
","
","""event"",""trial"",""time""
""fullscreenenter"",""5"",""21736""
","
",311.760000011418,NA,48,NA,NA,3000,1,NA,NA,images/earth.jpg,images/rocket2,images/rocket1,null,images/rocket2,NA,1,real,null,2,NA,NA,NA,sub23
d3-animate-choice,166,747153,0.0-76.0-1.10,TRUE,TRUE,TRUE,FALSE,"""event"",""trial"",""time""
""fullscreenenter"",""5"",""21736""
","
","
","""event"",""trial"",""time""
""fullscreenenter"",""5"",""21736""
","
",556.7450000089593,NA,48,NA,NA,3000,1,NA,NA,images/redplanet1.jpg,images/alien2,images/alien1,images/rocket2,images/alien2,images/t.png,2,real,false,2,rare,1,2020-06-12T18:37:23Z,sub23
two-step-fixation,167,748156,0.0-76.0-2.10,TRUE,TRUE,TRUE,FALSE,"""event"",""trial"",""time""
""fullscreenenter"",""5"",""21736""
","
","
","""event"",""trial"",""time""
""fullscreenenter"",""5"",""21736""
","
",NA,images/earth.jpg,NA,NA,NA,NA,NA,NA,NA,NA,NA,NA,NA,NA,NA,fixation,NA,NA,NA,NA,NA,NA,sub23
d3-animate-choice,168,750515,0.0-76.0-0.11,TRUE,TRUE,TRUE,FALSE,"""event"",""trial"",""time""
""fullscreenenter"",""5"",""21736""
","
","
","""event"",""trial"",""time""
""fullscreenenter"",""5"",""21736""
","
",352.7849999954924,NA,48,NA,NA,3000,1,NA,NA,images/earth.jpg,images/rocket2,images/rocket1,null,images/rocket2,NA,1,real,null,2,NA,NA,NA,sub23
d3-animate-choice,169,752950,0.0-76.0-1.11,TRUE,TRUE,TRUE,FALSE,"""event"",""trial"",""time""
""fullscreenenter"",""5"",""21736""
","
","
","""event"",""trial"",""time""
""fullscreenenter"",""5"",""21736""
","
",428.4449999977369,NA,48,NA,NA,3000,1,NA,NA,images/redplanet1.jpg,images/alien2,images/alien1,images/rocket2,images/alien2,images/nothing.png,2,real,false,2,rare,0,2020-06-12T18:37:29Z,sub23
two-step-fixation,170,753958,0.0-76.0-2.11,TRUE,TRUE,TRUE,FALSE,"""event"",""trial"",""time""
""fullscreenenter"",""5"",""21736""
","
","
","""event"",""trial"",""time""
""fullscreenenter"",""5"",""21736""
","
",NA,images/earth.jpg,NA,NA,NA,NA,NA,NA,NA,NA,NA,NA,NA,NA,NA,fixation,NA,NA,NA,NA,NA,NA,sub23
d3-animate-choice,171,756498,0.0-76.0-0.12,TRUE,TRUE,TRUE,FALSE,"""event"",""trial"",""time""
""fullscreenenter"",""5"",""21736""
","
","
","""event"",""trial"",""time""
""fullscreenenter"",""5"",""21736""
","
",532.7650000108406,NA,48,NA,NA,3000,1,NA,NA,images/earth.jpg,images/rocket2,images/rocket1,null,images/rocket2,NA,1,real,null,2,NA,NA,NA,sub23
d3-animate-choice,172,758927,0.0-76.0-1.12,TRUE,TRUE,TRUE,FALSE,"""event"",""trial"",""time""
""fullscreenenter"",""5"",""21736""
","
","
","""event"",""trial"",""time""
""fullscreenenter"",""5"",""21736""
","
",420.3050000069197,NA,48,NA,NA,3000,1,NA,NA,images/purpleplanet.jpg,images/alien4,images/alien3,images/rocket2,images/alien4,images/t.png,2,real,true,2,common,1,2020-06-12T18:37:35Z,sub23
two-step-fixation,173,759934,0.0-76.0-2.12,TRUE,TRUE,TRUE,FALSE,"""event"",""trial"",""time""
""fullscreenenter"",""5"",""21736""
","
","
","""event"",""trial"",""time""
""fullscreenenter"",""5"",""21736""
","
",NA,images/earth.jpg,NA,NA,NA,NA,NA,NA,NA,NA,NA,NA,NA,NA,NA,fixation,NA,NA,NA,NA,NA,NA,sub23
d3-animate-choice,174,762281,0.0-76.0-0.13,TRUE,TRUE,TRUE,FALSE,"""event"",""trial"",""time""
""fullscreenenter"",""5"",""21736""
","
","
","""event"",""trial"",""time""
""fullscreenenter"",""5"",""21736""
","
",341.8950000195764,NA,48,NA,NA,3000,1,NA,NA,images/earth.jpg,images/rocket2,images/rocket1,null,images/rocket2,NA,1,real,null,2,NA,NA,NA,sub23
d3-animate-choice,175,764775,0.0-76.0-1.13,TRUE,TRUE,TRUE,FALSE,"""event"",""trial"",""time""
""fullscreenenter"",""5"",""21736""
","
","
","""event"",""trial"",""time""
""fullscreenenter"",""5"",""21736""
","
",489.3949999823235,NA,48,NA,NA,3000,1,NA,NA,images/purpleplanet.jpg,images/alien4,images/alien3,images/rocket2,images/alien4,images/t.png,2,real,true,2,common,1,2020-06-12T18:37:41Z,sub23
two-step-fixation,176,765779,0.0-76.0-2.13,TRUE,TRUE,TRUE,FALSE,"""event"",""trial"",""time""
""fullscreenenter"",""5"",""21736""
","
","
","""event"",""trial"",""time""
""fullscreenenter"",""5"",""21736""
","
",NA,images/earth.jpg,NA,NA,NA,NA,NA,NA,NA,NA,NA,NA,NA,NA,NA,fixation,NA,NA,NA,NA,NA,NA,sub23
d3-animate-choice,177,768113,0.0-76.0-0.14,TRUE,TRUE,TRUE,FALSE,"""event"",""trial"",""time""
""fullscreenenter"",""5"",""21736""
","
","
","""event"",""trial"",""time""
""fullscreenenter"",""5"",""21736""
","
",329.72499998868443,NA,48,NA,NA,3000,1,NA,NA,images/earth.jpg,images/rocket2,images/rocket1,null,images/rocket2,NA,1,real,null,2,NA,NA,NA,sub23
d3-animate-choice,178,770732,0.0-76.0-1.14,TRUE,TRUE,TRUE,FALSE,"""event"",""trial"",""time""
""fullscreenenter"",""5"",""21736""
","
","
","""event"",""trial"",""time""
""fullscreenenter"",""5"",""21736""
","
",615.6849999970291,NA,48,NA,NA,3000,1,NA,NA,images/purpleplanet.jpg,images/alien4,images/alien3,images/rocket2,images/alien4,images/t.png,2,real,true,2,common,1,2020-06-12T18:37:47Z,sub23
two-step-fixation,179,771739,0.0-76.0-2.14,TRUE,TRUE,TRUE,FALSE,"""event"",""trial"",""time""
""fullscreenenter"",""5"",""21736""
","
","
","""event"",""trial"",""time""
""fullscreenenter"",""5"",""21736""
","
",NA,images/earth.jpg,NA,NA,NA,NA,NA,NA,NA,NA,NA,NA,NA,NA,NA,fixation,NA,NA,NA,NA,NA,NA,sub23
d3-animate-choice,180,774084,0.0-76.0-0.15,TRUE,TRUE,TRUE,FALSE,"""event"",""trial"",""time""
""fullscreenenter"",""5"",""21736""
","
","
","""event"",""trial"",""time""
""fullscreenenter"",""5"",""21736""
","
",339.4499999994878,NA,48,NA,NA,3000,1,NA,NA,images/earth.jpg,images/rocket2,images/rocket1,null,images/rocket2,NA,1,real,null,2,NA,NA,NA,sub23
d3-animate-choice,181,776956,0.0-76.0-1.15,TRUE,TRUE,TRUE,FALSE,"""event"",""trial"",""time""
""fullscreenenter"",""5"",""21736""
","
","
","""event"",""trial"",""time""
""fullscreenenter"",""5"",""21736""
","
",864.5399999804795,NA,48,NA,NA,3000,1,NA,NA,images/purpleplanet.jpg,images/alien4,images/alien3,images/rocket2,images/alien4,images/t.png,2,real,true,2,common,1,2020-06-12T18:37:53Z,sub23
two-step-fixation,182,777961,0.0-76.0-2.15,TRUE,TRUE,TRUE,FALSE,"""event"",""trial"",""time""
""fullscreenenter"",""5"",""21736""
","
","
","""event"",""trial"",""time""
""fullscreenenter"",""5"",""21736""
","
",NA,images/earth.jpg,NA,NA,NA,NA,NA,NA,NA,NA,NA,NA,NA,NA,NA,fixation,NA,NA,NA,NA,NA,NA,sub23
d3-animate-choice,183,780323,0.0-76.0-0.16,TRUE,TRUE,TRUE,FALSE,"""event"",""trial"",""time""
""fullscreenenter"",""5"",""21736""
","
","
","""event"",""trial"",""time""
""fullscreenenter"",""5"",""21736""
","
",357.929999998305,NA,48,NA,NA,3000,1,NA,NA,images/earth.jpg,images/rocket2,images/rocket1,null,images/rocket2,NA,1,real,null,2,NA,NA,NA,sub23
d3-animate-choice,184,783007,0.0-76.0-1.16,TRUE,TRUE,TRUE,FALSE,"""event"",""trial"",""time""
""fullscreenenter"",""5"",""21736""
","
","
","""event"",""trial"",""time""
""fullscreenenter"",""5"",""21736""
","
",678.0199999921024,NA,49,NA,NA,3000,1,NA,NA,images/redplanet1.jpg,images/alien2,images/alien1,images/rocket2,images/alien1,images/t.png,2,real,false,1,rare,1,2020-06-12T18:37:59Z,sub23
two-step-fixation,185,784011,0.0-76.0-2.16,TRUE,TRUE,TRUE,FALSE,"""event"",""trial"",""time""
""fullscreenenter"",""5"",""21736""
","
","
","""event"",""trial"",""time""
""fullscreenenter"",""5"",""21736""
","
",NA,images/earth.jpg,NA,NA,NA,NA,NA,NA,NA,NA,NA,NA,NA,NA,NA,fixation,NA,NA,NA,NA,NA,NA,sub23
d3-animate-choice,186,786549,0.0-76.0-0.17,TRUE,TRUE,TRUE,FALSE,"""event"",""trial"",""time""
""fullscreenenter"",""5"",""21736""
","
","
","""event"",""trial"",""time""
""fullscreenenter"",""5"",""21736""
","
",532.9700000002049,NA,48,NA,NA,3000,1,NA,NA,images/earth.jpg,images/rocket2,images/rocket1,null,images/rocket2,NA,1,real,null,2,NA,NA,NA,sub23
d3-animate-choice,187,789231,0.0-76.0-1.17,TRUE,TRUE,TRUE,FALSE,"""event"",""trial"",""time""
""fullscreenenter"",""5"",""21736""
","
","
","""event"",""trial"",""time""
""fullscreenenter"",""5"",""21736""
","
",675.134999997681,NA,48,NA,NA,3000,1,NA,NA,images/purpleplanet.jpg,images/alien4,images/alien3,images/rocket2,images/alien4,images/t.png,2,real,true,2,common,1,2020-06-12T18:38:06Z,sub23
two-step-fixation,188,790235,0.0-76.0-2.17,TRUE,TRUE,TRUE,FALSE,"""event"",""trial"",""time""
""fullscreenenter"",""5"",""21736""
","
","
","""event"",""trial"",""time""
""fullscreenenter"",""5"",""21736""
","
",NA,images/earth.jpg,NA,NA,NA,NA,NA,NA,NA,NA,NA,NA,NA,NA,NA,fixation,NA,NA,NA,NA,NA,NA,sub23
d3-animate-choice,189,792711,0.0-76.0-0.18,TRUE,TRUE,TRUE,FALSE,"""event"",""trial"",""time""
""fullscreenenter"",""5"",""21736""
","
","
","""event"",""trial"",""time""
""fullscreenenter"",""5"",""21736""
","
",467.96499998890795,NA,48,NA,NA,3000,1,NA,NA,images/earth.jpg,images/rocket2,images/rocket1,null,images/rocket2,NA,1,real,null,2,NA,NA,NA,sub23
d3-animate-choice,190,795393,0.0-76.0-1.18,TRUE,TRUE,TRUE,FALSE,"""event"",""trial"",""time""
""fullscreenenter"",""5"",""21736""
","
","
","""event"",""trial"",""time""
""fullscreenenter"",""5"",""21736""
","
",677.0350000006147,NA,49,NA,NA,3000,1,NA,NA,images/purpleplanet.jpg,images/alien4,images/alien3,images/rocket2,images/alien3,images/nothing.png,2,real,true,1,common,0,2020-06-12T18:38:12Z,sub23
two-step-fixation,191,796397,0.0-76.0-2.18,TRUE,TRUE,TRUE,FALSE,"""event"",""trial"",""time""
""fullscreenenter"",""5"",""21736""
","
","
","""event"",""trial"",""time""
""fullscreenenter"",""5"",""21736""
","
",NA,images/earth.jpg,NA,NA,NA,NA,NA,NA,NA,NA,NA,NA,NA,NA,NA,fixation,NA,NA,NA,NA,NA,NA,sub23
d3-animate-choice,192,798833,0.0-76.0-0.19,TRUE,TRUE,TRUE,FALSE,"""event"",""trial"",""time""
""fullscreenenter"",""5"",""21736""
","
","
","""event"",""trial"",""time""
""fullscreenenter"",""5"",""21736""
","
",431.21499998960644,NA,48,NA,NA,3000,1,NA,NA,images/earth.jpg,images/rocket2,images/rocket1,null,images/rocket2,NA,1,real,null,2,NA,NA,NA,sub23
d3-animate-choice,193,801504,0.0-76.0-1.19,TRUE,TRUE,TRUE,FALSE,"""event"",""trial"",""time""
""fullscreenenter"",""5"",""21736""
","
","
","""event"",""trial"",""time""
""fullscreenenter"",""5"",""21736""
","
",663.6799999978393,NA,48,NA,NA,3000,1,NA,NA,images/purpleplanet.jpg,images/alien4,images/alien3,images/rocket2,images/alien4,images/t.png,2,real,true,2,common,1,2020-06-12T18:38:18Z,sub23
two-step-fixation,194,802510,0.0-76.0-2.19,TRUE,TRUE,TRUE,FALSE,"""event"",""trial"",""time""
""fullscreenenter"",""5"",""21736""
","
","
","""event"",""trial"",""time""
""fullscreenenter"",""5"",""21736""
","
",NA,images/earth.jpg,NA,NA,NA,NA,NA,NA,NA,NA,NA,NA,NA,NA,NA,fixation,NA,NA,NA,NA,NA,NA,sub23
d3-animate-choice,195,804973,0.0-76.0-0.20,TRUE,TRUE,TRUE,FALSE,"""event"",""trial"",""time""
""fullscreenenter"",""5"",""21736""
","
","
","""event"",""trial"",""time""
""fullscreenenter"",""5"",""21736""
","
",457.85000000614673,NA,48,NA,NA,3000,1,NA,NA,images/earth.jpg,images/rocket2,images/rocket1,null,images/rocket2,NA,1,real,null,2,NA,NA,NA,sub23
d3-animate-choice,196,807976,0.0-76.0-1.20,TRUE,TRUE,TRUE,FALSE,"""event"",""trial"",""time""
""fullscreenenter"",""5"",""21736""
","
","
","""event"",""trial"",""time""
""fullscreenenter"",""5"",""21736""
","
",999.7800000128336,NA,49,NA,NA,3000,1,NA,NA,images/redplanet1.jpg,images/alien2,images/alien1,images/rocket2,images/alien1,images/t.png,2,real,false,1,rare,1,2020-06-12T18:38:24Z,sub23
two-step-fixation,197,808983,0.0-76.0-2.20,TRUE,TRUE,TRUE,FALSE,"""event"",""trial"",""time""
""fullscreenenter"",""5"",""21736""
","
","
","""event"",""trial"",""time""
""fullscreenenter"",""5"",""21736""
","
",NA,images/earth.jpg,NA,NA,NA,NA,NA,NA,NA,NA,NA,NA,NA,NA,NA,fixation,NA,NA,NA,NA,NA,NA,sub23
d3-animate-choice,198,811500,0.0-76.0-0.21,TRUE,TRUE,TRUE,FALSE,"""event"",""trial"",""time""
""fullscreenenter"",""5"",""21736""
","
","
","""event"",""trial"",""time""
""fullscreenenter"",""5"",""21736""
","
",509.15499997790903,NA,48,NA,NA,3000,1,NA,NA,images/earth.jpg,images/rocket2,images/rocket1,null,images/rocket2,NA,1,real,null,2,NA,NA,NA,sub23
d3-animate-choice,199,814033,0.0-76.0-1.21,TRUE,TRUE,TRUE,FALSE,"""event"",""trial"",""time""
""fullscreenenter"",""5"",""21736""
","
","
","""event"",""trial"",""time""
""fullscreenenter"",""5"",""21736""
","
",526.1499999905936,NA,48,NA,NA,3000,1,NA,NA,images/purpleplanet.jpg,images/alien4,images/alien3,images/rocket2,images/alien4,images/t.png,2,real,true,2,common,1,2020-06-12T18:38:30Z,sub23
two-step-fixation,200,815037,0.0-76.0-2.21,TRUE,TRUE,TRUE,FALSE,"""event"",""trial"",""time""
""fullscreenenter"",""5"",""21736""
","
","
","""event"",""trial"",""time""
""fullscreenenter"",""5"",""21736""
","
",NA,images/earth.jpg,NA,NA,NA,NA,NA,NA,NA,NA,NA,NA,NA,NA,NA,fixation,NA,NA,NA,NA,NA,NA,sub23
d3-animate-choice,201,817672,0.0-76.0-0.22,TRUE,TRUE,TRUE,FALSE,"""event"",""trial"",""time""
""fullscreenenter"",""5"",""21736""
","
","
","""event"",""trial"",""time""
""fullscreenenter"",""5"",""21736""
","
",630.3149999876041,NA,48,NA,NA,3000,1,NA,NA,images/earth.jpg,images/rocket2,images/rocket1,null,images/rocket2,NA,1,real,null,2,NA,NA,NA,sub23
d3-animate-choice,202,820148,0.0-76.0-1.22,TRUE,TRUE,TRUE,FALSE,"""event"",""trial"",""time""
""fullscreenenter"",""5"",""21736""
","
","
","""event"",""trial"",""time""
""fullscreenenter"",""5"",""21736""
","
",472.1399999980349,NA,48,NA,NA,3000,1,NA,NA,images/purpleplanet.jpg,images/alien4,images/alien3,images/rocket2,images/alien4,images/t.png,2,real,true,2,common,1,2020-06-12T18:38:36Z,sub23
two-step-fixation,203,821155,0.0-76.0-2.22,TRUE,TRUE,TRUE,FALSE,"""event"",""trial"",""time""
""fullscreenenter"",""5"",""21736""
","
","
","""event"",""trial"",""time""
""fullscreenenter"",""5"",""21736""
","
",NA,images/earth.jpg,NA,NA,NA,NA,NA,NA,NA,NA,NA,NA,NA,NA,NA,fixation,NA,NA,NA,NA,NA,NA,sub23
d3-animate-choice,204,823646,0.0-76.0-0.23,TRUE,TRUE,TRUE,FALSE,"""event"",""trial"",""time""
""fullscreenenter"",""5"",""21736""
","
","
","""event"",""trial"",""time""
""fullscreenenter"",""5"",""21736""
","
",484.8500000080094,NA,48,NA,NA,3000,1,NA,NA,images/earth.jpg,images/rocket2,images/rocket1,null,images/rocket2,NA,1,real,null,2,NA,NA,NA,sub23
d3-animate-choice,205,826192,0.0-76.0-1.23,TRUE,TRUE,TRUE,FALSE,"""event"",""trial"",""time""
""fullscreenenter"",""5"",""21736""
","
","
","""event"",""trial"",""time""
""fullscreenenter"",""5"",""21736""
","
",541.1200000089593,NA,48,NA,NA,3000,1,NA,NA,images/purpleplanet.jpg,images/alien4,images/alien3,images/rocket2,images/alien4,images/t.png,2,real,true,2,common,1,2020-06-12T18:38:43Z,sub23
two-step-fixation,206,827197,0.0-76.0-2.23,TRUE,TRUE,TRUE,FALSE,"""event"",""trial"",""time""
""fullscreenenter"",""5"",""21736""
","
","
","""event"",""trial"",""time""
""fullscreenenter"",""5"",""21736""
","
",NA,images/earth.jpg,NA,NA,NA,NA,NA,NA,NA,NA,NA,NA,NA,NA,NA,fixation,NA,NA,NA,NA,NA,NA,sub23
d3-animate-choice,207,829510,0.0-76.0-0.24,TRUE,TRUE,TRUE,FALSE,"""event"",""trial"",""time""
""fullscreenenter"",""5"",""21736""
","
","
","""event"",""trial"",""time""
""fullscreenenter"",""5"",""21736""
","
",308.6649999895599,NA,48,NA,NA,3000,1,NA,NA,images/earth.jpg,images/rocket2,images/rocket1,null,images/rocket2,NA,1,real,null,2,NA,NA,NA,sub23
d3-animate-choice,208,831996,0.0-76.0-1.24,TRUE,TRUE,TRUE,FALSE,"""event"",""trial"",""time""
""fullscreenenter"",""5"",""21736""
","
","
","""event"",""trial"",""time""
""fullscreenenter"",""5"",""21736""
","
",481.2850000162143,NA,48,NA,NA,3000,1,NA,NA,images/purpleplanet.jpg,images/alien4,images/alien3,images/rocket2,images/alien4,images/t.png,2,real,true,2,common,1,2020-06-12T18:38:48Z,sub23
two-step-fixation,209,833000,0.0-76.0-2.24,TRUE,TRUE,TRUE,FALSE,"""event"",""trial"",""time""
""fullscreenenter"",""5"",""21736""
","
","
","""event"",""trial"",""time""
""fullscreenenter"",""5"",""21736""
","
",NA,images/earth.jpg,NA,NA,NA,NA,NA,NA,NA,NA,NA,NA,NA,NA,NA,fixation,NA,NA,NA,NA,NA,NA,sub23
d3-animate-choice,210,835508,0.0-76.0-0.25,TRUE,TRUE,TRUE,FALSE,"""event"",""trial"",""time""
""fullscreenenter"",""5"",""21736""
","
","
","""event"",""trial"",""time""
""fullscreenenter"",""5"",""21736""
","
",502.8150000143796,NA,48,NA,NA,3000,1,NA,NA,images/earth.jpg,images/rocket2,images/rocket1,null,images/rocket2,NA,1,real,null,2,NA,NA,NA,sub23
d3-animate-choice,211,838005,0.0-76.0-1.25,TRUE,TRUE,TRUE,FALSE,"""event"",""trial"",""time""
""fullscreenenter"",""5"",""21736""
","
","
","""event"",""trial"",""time""
""fullscreenenter"",""5"",""21736""
","
",492.370000021765,NA,48,NA,NA,3000,1,NA,NA,images/purpleplanet.jpg,images/alien4,images/alien3,images/rocket2,images/alien4,images/t.png,2,real,true,2,common,1,2020-06-12T18:38:54Z,sub23
two-step-fixation,212,839009,0.0-76.0-2.25,TRUE,TRUE,TRUE,FALSE,"""event"",""trial"",""time""
""fullscreenenter"",""5"",""21736""
","
","
","""event"",""trial"",""time""
""fullscreenenter"",""5"",""21736""
","
",NA,images/earth.jpg,NA,NA,NA,NA,NA,NA,NA,NA,NA,NA,NA,NA,NA,fixation,NA,NA,NA,NA,NA,NA,sub23
d3-animate-choice,213,841420,0.0-76.0-0.26,TRUE,TRUE,TRUE,FALSE,"""event"",""trial"",""time""
""fullscreenenter"",""5"",""21736""
","
","
","""event"",""trial"",""time""
""fullscreenenter"",""5"",""21736""
","
",405.11500000138767,NA,48,NA,NA,3000,1,NA,NA,images/earth.jpg,images/rocket2,images/rocket1,null,images/rocket2,NA,1,real,null,2,NA,NA,NA,sub23
d3-animate-choice,214,843871,0.0-76.0-1.26,TRUE,TRUE,TRUE,FALSE,"""event"",""trial"",""time""
""fullscreenenter"",""5"",""21736""
","
","
","""event"",""trial"",""time""
""fullscreenenter"",""5"",""21736""
","
",444.13499999791384,NA,48,NA,NA,3000,1,NA,NA,images/purpleplanet.jpg,images/alien4,images/alien3,images/rocket2,images/alien4,images/t.png,2,real,true,2,common,1,2020-06-12T18:39:00Z,sub23
two-step-fixation,215,844876,0.0-76.0-2.26,TRUE,TRUE,TRUE,FALSE,"""event"",""trial"",""time""
""fullscreenenter"",""5"",""21736""
","
","
","""event"",""trial"",""time""
""fullscreenenter"",""5"",""21736""
","
",NA,images/earth.jpg,NA,NA,NA,NA,NA,NA,NA,NA,NA,NA,NA,NA,NA,fixation,NA,NA,NA,NA,NA,NA,sub23
d3-animate-choice,216,847197,0.0-76.0-0.27,TRUE,TRUE,TRUE,FALSE,"""event"",""trial"",""time""
""fullscreenenter"",""5"",""21736""
","
","
","""event"",""trial"",""time""
""fullscreenenter"",""5"",""21736""
","
",315.6650000018999,NA,48,NA,NA,3000,1,NA,NA,images/earth.jpg,images/rocket2,images/rocket1,null,images/rocket2,NA,1,real,null,2,NA,NA,NA,sub23
d3-animate-choice,217,849638,0.0-76.0-1.27,TRUE,TRUE,TRUE,FALSE,"""event"",""trial"",""time""
""fullscreenenter"",""5"",""21736""
","
","
","""event"",""trial"",""time""
""fullscreenenter"",""5"",""21736""
","
",434.7800000105053,NA,48,NA,NA,3000,1,NA,NA,images/purpleplanet.jpg,images/alien4,images/alien3,images/rocket2,images/alien4,images/t.png,2,real,true,2,common,1,2020-06-12T18:39:06Z,sub23
two-step-fixation,218,850642,0.0-76.0-2.27,TRUE,TRUE,TRUE,FALSE,"""event"",""trial"",""time""
""fullscreenenter"",""5"",""21736""
","
","
","""event"",""trial"",""time""
""fullscreenenter"",""5"",""21736""
","
",NA,images/earth.jpg,NA,NA,NA,NA,NA,NA,NA,NA,NA,NA,NA,NA,NA,fixation,NA,NA,NA,NA,NA,NA,sub23
d3-animate-choice,219,853006,0.0-76.0-0.28,TRUE,TRUE,TRUE,FALSE,"""event"",""trial"",""time""
""fullscreenenter"",""5"",""21736""
","
","
","""event"",""trial"",""time""
""fullscreenenter"",""5"",""21736""
","
",360.2400000090711,NA,48,NA,NA,3000,1,NA,NA,images/earth.jpg,images/rocket2,images/rocket1,null,images/rocket2,NA,1,real,null,2,NA,NA,NA,sub23
d3-animate-choice,220,855448,0.0-76.0-1.28,TRUE,TRUE,TRUE,FALSE,"""event"",""trial"",""time""
""fullscreenenter"",""5"",""21736""
","
","
","""event"",""trial"",""time""
""fullscreenenter"",""5"",""21736""
","
",439.0950000088196,NA,48,NA,NA,3000,1,NA,NA,images/purpleplanet.jpg,images/alien4,images/alien3,images/rocket2,images/alien4,images/t.png,2,real,true,2,common,1,2020-06-12T18:39:12Z,sub23
two-step-fixation,221,856452,0.0-76.0-2.28,TRUE,TRUE,TRUE,FALSE,"""event"",""trial"",""time""
""fullscreenenter"",""5"",""21736""
","
","
","""event"",""trial"",""time""
""fullscreenenter"",""5"",""21736""
","
",NA,images/earth.jpg,NA,NA,NA,NA,NA,NA,NA,NA,NA,NA,NA,NA,NA,fixation,NA,NA,NA,NA,NA,NA,sub23
d3-animate-choice,222,858812,0.0-76.0-0.29,TRUE,TRUE,TRUE,FALSE,"""event"",""trial"",""time""
""fullscreenenter"",""5"",""21736""
","
","
","""event"",""trial"",""time""
""fullscreenenter"",""5"",""21736""
","
",353.2650000124704,NA,48,NA,NA,3000,1,NA,NA,images/earth.jpg,images/rocket2,images/rocket1,null,images/rocket2,NA,1,real,null,2,NA,NA,NA,sub23
d3-animate-choice,223,861203,0.0-76.0-1.29,TRUE,TRUE,TRUE,FALSE,"""event"",""trial"",""time""
""fullscreenenter"",""5"",""21736""
","
","
","""event"",""trial"",""time""
""fullscreenenter"",""5"",""21736""
","
",387.39999997778796,NA,48,NA,NA,3000,1,NA,NA,images/redplanet1.jpg,images/alien2,images/alien1,images/rocket2,images/alien2,images/t.png,2,real,false,2,rare,1,2020-06-12T18:39:18Z,sub23
two-step-fixation,224,862207,0.0-76.0-2.29,TRUE,TRUE,TRUE,FALSE,"""event"",""trial"",""time""
""fullscreenenter"",""5"",""21736""
","
","
","""event"",""trial"",""time""
""fullscreenenter"",""5"",""21736""
","
",NA,images/earth.jpg,NA,NA,NA,NA,NA,NA,NA,NA,NA,NA,NA,NA,NA,fixation,NA,NA,NA,NA,NA,NA,sub23
d3-animate-choice,225,864716,0.0-76.0-0.30,TRUE,TRUE,TRUE,FALSE,"""event"",""trial"",""time""
""fullscreenenter"",""5"",""21736""
","
","
","""event"",""trial"",""time""
""fullscreenenter"",""5"",""21736""
","
",505.2549999963958,NA,48,NA,NA,3000,1,NA,NA,images/earth.jpg,images/rocket2,images/rocket1,null,images/rocket2,NA,1,real,null,2,NA,NA,NA,sub23
d3-animate-choice,226,867521,0.0-76.0-1.30,TRUE,TRUE,TRUE,FALSE,"""event"",""trial"",""time""
""fullscreenenter"",""5"",""21736""
","
","
","""event"",""trial"",""time""
""fullscreenenter"",""5"",""21736""
","
",801.5199999790639,NA,49,NA,NA,3000,1,NA,NA,images/redplanet1.jpg,images/alien2,images/alien1,images/rocket2,images/alien1,images/t.png,2,real,false,1,rare,1,2020-06-12T18:39:24Z,sub23
two-step-fixation,227,868526,0.0-76.0-2.30,TRUE,TRUE,TRUE,FALSE,"""event"",""trial"",""time""
""fullscreenenter"",""5"",""21736""
","
","
","""event"",""trial"",""time""
""fullscreenenter"",""5"",""21736""
","
",NA,images/earth.jpg,NA,NA,NA,NA,NA,NA,NA,NA,NA,NA,NA,NA,NA,fixation,NA,NA,NA,NA,NA,NA,sub23
d3-animate-choice,228,871020,0.0-76.0-0.31,TRUE,TRUE,TRUE,FALSE,"""event"",""trial"",""time""
""fullscreenenter"",""5"",""21736""
","
","
","""event"",""trial"",""time""
""fullscreenenter"",""5"",""21736""
","
",488.3200000040233,NA,48,NA,NA,3000,1,NA,NA,images/earth.jpg,images/rocket2,images/rocket1,null,images/rocket2,NA,1,real,null,2,NA,NA,NA,sub23
d3-animate-choice,229,873726,0.0-76.0-1.31,TRUE,TRUE,TRUE,FALSE,"""event"",""trial"",""time""
""fullscreenenter"",""5"",""21736""
","
","
","""event"",""trial"",""time""
""fullscreenenter"",""5"",""21736""
","
",700.5500000086613,NA,49,NA,NA,3000,1,NA,NA,images/redplanet1.jpg,images/alien2,images/alien1,images/rocket2,images/alien1,images/t.png,2,real,false,1,rare,1,2020-06-12T18:39:30Z,sub23
two-step-fixation,230,874729,0.0-76.0-2.31,TRUE,TRUE,TRUE,FALSE,"""event"",""trial"",""time""
""fullscreenenter"",""5"",""21736""
","
","
","""event"",""trial"",""time""
""fullscreenenter"",""5"",""21736""
","
",NA,images/earth.jpg,NA,NA,NA,NA,NA,NA,NA,NA,NA,NA,NA,NA,NA,fixation,NA,NA,NA,NA,NA,NA,sub23
d3-animate-choice,231,877240,0.0-76.0-0.32,TRUE,TRUE,TRUE,FALSE,"""event"",""trial"",""time""
""fullscreenenter"",""5"",""21736""
","
","
","""event"",""trial"",""time""
""fullscreenenter"",""5"",""21736""
","
",506.82000000961125,NA,48,NA,NA,3000,1,NA,NA,images/earth.jpg,images/rocket2,images/rocket1,null,images/rocket2,NA,1,real,null,2,NA,NA,NA,sub23
d3-animate-choice,232,879961,0.0-76.0-1.32,TRUE,TRUE,TRUE,FALSE,"""event"",""trial"",""time""
""fullscreenenter"",""5"",""21736""
","
","
","""event"",""trial"",""time""
""fullscreenenter"",""5"",""21736""
","
",714.7399999957997,NA,49,NA,NA,3000,1,NA,NA,images/redplanet1.jpg,images/alien2,images/alien1,images/rocket2,images/alien1,images/t.png,2,real,false,1,rare,1,2020-06-12T18:39:36Z,sub23
two-step-fixation,233,880965,0.0-76.0-2.32,TRUE,TRUE,TRUE,FALSE,"""event"",""trial"",""time""
""fullscreenenter"",""5"",""21736""
","
","
","""event"",""trial"",""time""
""fullscreenenter"",""5"",""21736""
","
",NA,images/earth.jpg,NA,NA,NA,NA,NA,NA,NA,NA,NA,NA,NA,NA,NA,fixation,NA,NA,NA,NA,NA,NA,sub23
d3-animate-choice,234,883470,0.0-76.0-0.33,TRUE,TRUE,TRUE,FALSE,"""event"",""trial"",""time""
""fullscreenenter"",""5"",""21736""
","
","
","""event"",""trial"",""time""
""fullscreenenter"",""5"",""21736""
","
",499.2050000000745,NA,48,NA,NA,3000,1,NA,NA,images/earth.jpg,images/rocket2,images/rocket1,null,images/rocket2,NA,1,real,null,2,NA,NA,NA,sub23
d3-animate-choice,235,886278,0.0-76.0-1.33,TRUE,TRUE,TRUE,FALSE,"""event"",""trial"",""time""
""fullscreenenter"",""5"",""21736""
","
","
","""event"",""trial"",""time""
""fullscreenenter"",""5"",""21736""
","
",802.6749999844469,NA,48,NA,NA,3000,1,NA,NA,images/purpleplanet.jpg,images/alien4,images/alien3,images/rocket2,images/alien4,images/t.png,2,real,true,2,common,1,2020-06-12T18:39:43Z,sub23
two-step-fixation,236,887286,0.0-76.0-2.33,TRUE,TRUE,TRUE,FALSE,"""event"",""trial"",""time""
""fullscreenenter"",""5"",""21736""
","
","
","""event"",""trial"",""time""
""fullscreenenter"",""5"",""21736""
","
",NA,images/earth.jpg,NA,NA,NA,NA,NA,NA,NA,NA,NA,NA,NA,NA,NA,fixation,NA,NA,NA,NA,NA,NA,sub23
d3-animate-choice,237,889900,0.0-76.0-0.34,TRUE,TRUE,TRUE,FALSE,"""event"",""trial"",""time""
""fullscreenenter"",""5"",""21736""
","
","
","""event"",""trial"",""time""
""fullscreenenter"",""5"",""21736""
","
",607.1499999961816,NA,48,NA,NA,3000,1,NA,NA,images/earth.jpg,images/rocket2,images/rocket1,null,images/rocket2,NA,1,real,null,2,NA,NA,NA,sub23
d3-animate-choice,238,892589,0.0-76.0-1.34,TRUE,TRUE,TRUE,FALSE,"""event"",""trial"",""time""
""fullscreenenter"",""5"",""21736""
","
","
","""event"",""trial"",""time""
""fullscreenenter"",""5"",""21736""
","
",683.1900000106543,NA,48,NA,NA,3000,1,NA,NA,images/purpleplanet.jpg,images/alien4,images/alien3,images/rocket2,images/alien4,images/t.png,2,real,true,2,common,1,2020-06-12T18:39:49Z,sub23
two-step-fixation,239,893596,0.0-76.0-2.34,TRUE,TRUE,TRUE,FALSE,"""event"",""trial"",""time""
""fullscreenenter"",""5"",""21736""
","
","
","""event"",""trial"",""time""
""fullscreenenter"",""5"",""21736""
","
",NA,images/earth.jpg,NA,NA,NA,NA,NA,NA,NA,NA,NA,NA,NA,NA,NA,fixation,NA,NA,NA,NA,NA,NA,sub23
d3-animate-choice,240,896068,0.0-76.0-0.35,TRUE,TRUE,TRUE,FALSE,"""event"",""trial"",""time""
""fullscreenenter"",""5"",""21736""
","
","
","""event"",""trial"",""time""
""fullscreenenter"",""5"",""21736""
","
",467.3950000142213,NA,48,NA,NA,3000,1,NA,NA,images/earth.jpg,images/rocket2,images/rocket1,null,images/rocket2,NA,1,real,null,2,NA,NA,NA,sub23
d3-animate-choice,241,898819,0.0-76.0-1.35,TRUE,TRUE,TRUE,FALSE,"""event"",""trial"",""time""
""fullscreenenter"",""5"",""21736""
","
","
","""event"",""trial"",""time""
""fullscreenenter"",""5"",""21736""
","
",747.0150000008289,NA,48,NA,NA,3000,1,NA,NA,images/purpleplanet.jpg,images/alien4,images/alien3,images/rocket2,images/alien4,images/t.png,2,real,true,2,common,1,2020-06-12T18:39:55Z,sub23
two-step-fixation,242,899826,0.0-76.0-2.35,TRUE,TRUE,TRUE,FALSE,"""event"",""trial"",""time""
""fullscreenenter"",""5"",""21736""
","
","
","""event"",""trial"",""time""
""fullscreenenter"",""5"",""21736""
","
",NA,images/earth.jpg,NA,NA,NA,NA,NA,NA,NA,NA,NA,NA,NA,NA,NA,fixation,NA,NA,NA,NA,NA,NA,sub23
d3-animate-choice,243,902111,0.0-76.0-0.36,TRUE,TRUE,TRUE,FALSE,"""event"",""trial"",""time""
""fullscreenenter"",""5"",""21736""
","
","
","""event"",""trial"",""time""
""fullscreenenter"",""5"",""21736""
","
",278.14999999827705,NA,48,NA,NA,3000,1,NA,NA,images/earth.jpg,images/rocket2,images/rocket1,null,images/rocket2,NA,1,real,null,2,NA,NA,NA,sub23
d3-animate-choice,244,904625,0.0-76.0-1.36,TRUE,TRUE,TRUE,FALSE,"""event"",""trial"",""time""
""fullscreenenter"",""5"",""21736""
","
","
","""event"",""trial"",""time""
""fullscreenenter"",""5"",""21736""
","
",508.590000012191,NA,48,NA,NA,3000,1,NA,NA,images/purpleplanet.jpg,images/alien4,images/alien3,images/rocket2,images/alien4,images/t.png,2,real,true,2,common,1,2020-06-12T18:40:01Z,sub23
two-step-fixation,245,905631,0.0-76.0-2.36,TRUE,TRUE,TRUE,FALSE,"""event"",""trial"",""time""
""fullscreenenter"",""5"",""21736""
","
","
","""event"",""trial"",""time""
""fullscreenenter"",""5"",""21736""
","
",NA,images/earth.jpg,NA,NA,NA,NA,NA,NA,NA,NA,NA,NA,NA,NA,NA,fixation,NA,NA,NA,NA,NA,NA,sub23
d3-animate-choice,246,908042,0.0-76.0-0.37,TRUE,TRUE,TRUE,FALSE,"""event"",""trial"",""time""
""fullscreenenter"",""5"",""21736""
","
","
","""event"",""trial"",""time""
""fullscreenenter"",""5"",""21736""
","
",404.18500002124347,NA,48,NA,NA,3000,1,NA,NA,images/earth.jpg,images/rocket2,images/rocket1,null,images/rocket2,NA,1,real,null,2,NA,NA,NA,sub23
d3-animate-choice,247,910612,0.0-76.0-1.37,TRUE,TRUE,TRUE,FALSE,"""event"",""trial"",""time""
""fullscreenenter"",""5"",""21736""
","
","
","""event"",""trial"",""time""
""fullscreenenter"",""5"",""21736""
","
",565.83999999566,NA,48,NA,NA,3000,1,NA,NA,images/redplanet1.jpg,images/alien2,images/alien1,images/rocket2,images/alien2,images/nothing.png,2,real,false,2,rare,0,2020-06-12T18:40:07Z,sub23
two-step-fixation,248,911620,0.0-76.0-2.37,TRUE,TRUE,TRUE,FALSE,"""event"",""trial"",""time""
""fullscreenenter"",""5"",""21736""
","
","
","""event"",""trial"",""time""
""fullscreenenter"",""5"",""21736""
","
",NA,images/earth.jpg,NA,NA,NA,NA,NA,NA,NA,NA,NA,NA,NA,NA,NA,fixation,NA,NA,NA,NA,NA,NA,sub23
d3-animate-choice,249,913964,0.0-76.0-0.38,TRUE,TRUE,TRUE,FALSE,"""event"",""trial"",""time""
""fullscreenenter"",""5"",""21736""
","
","
","""event"",""trial"",""time""
""fullscreenenter"",""5"",""21736""
","
",340.61499999370426,NA,48,NA,NA,3000,1,NA,NA,images/earth.jpg,images/rocket2,images/rocket1,null,images/rocket2,NA,1,real,null,2,NA,NA,NA,sub23
d3-animate-choice,250,916506,0.0-76.0-1.38,TRUE,TRUE,TRUE,FALSE,"""event"",""trial"",""time""
""fullscreenenter"",""5"",""21736""
","
","
","""event"",""trial"",""time""
""fullscreenenter"",""5"",""21736""
","
",539.2449999926612,NA,48,NA,NA,3000,1,NA,NA,images/purpleplanet.jpg,images/alien4,images/alien3,images/rocket2,images/alien4,images/t.png,2,real,true,2,common,1,2020-06-12T18:40:13Z,sub23
two-step-fixation,251,917511,0.0-76.0-2.38,TRUE,TRUE,TRUE,FALSE,"""event"",""trial"",""time""
""fullscreenenter"",""5"",""21736""
","
","
","""event"",""trial"",""time""
""fullscreenenter"",""5"",""21736""
","
",NA,images/earth.jpg,NA,NA,NA,NA,NA,NA,NA,NA,NA,NA,NA,NA,NA,fixation,NA,NA,NA,NA,NA,NA,sub23
d3-animate-choice,252,919847,0.0-76.0-0.39,TRUE,TRUE,TRUE,FALSE,"""event"",""trial"",""time""
""fullscreenenter"",""5"",""21736""
","
","
","""event"",""trial"",""time""
""fullscreenenter"",""5"",""21736""
","
",328.7550000241026,NA,48,NA,NA,3000,1,NA,NA,images/earth.jpg,images/rocket2,images/rocket1,null,images/rocket2,NA,1,real,null,2,NA,NA,NA,sub23
d3-animate-choice,253,922487,0.0-76.0-1.39,TRUE,TRUE,TRUE,FALSE,"""event"",""trial"",""time""
""fullscreenenter"",""5"",""21736""
","
","
","""event"",""trial"",""time""
""fullscreenenter"",""5"",""21736""
","
",633.8999999861699,NA,48,NA,NA,3000,1,NA,NA,images/purpleplanet.jpg,images/alien4,images/alien3,images/rocket2,images/alien4,images/t.png,2,real,true,2,common,1,2020-06-12T18:40:19Z,sub23
two-step-fixation,254,923491,0.0-76.0-2.39,TRUE,TRUE,TRUE,FALSE,"""event"",""trial"",""time""
""fullscreenenter"",""5"",""21736""
","
","
","""event"",""trial"",""time""
""fullscreenenter"",""5"",""21736""
","
",NA,images/earth.jpg,NA,NA,NA,NA,NA,NA,NA,NA,NA,NA,NA,NA,NA,fixation,NA,NA,NA,NA,NA,NA,sub23
d3-animate-choice,255,925867,0.0-76.0-0.40,TRUE,TRUE,TRUE,FALSE,"""event"",""trial"",""time""
""fullscreenenter"",""5"",""21736""
","
","
","""event"",""trial"",""time""
""fullscreenenter"",""5"",""21736""
","
",371.58000000636093,NA,48,NA,NA,3000,1,NA,NA,images/earth.jpg,images/rocket2,images/rocket1,null,images/rocket2,NA,1,real,null,2,NA,NA,NA,sub23
d3-animate-choice,256,928654,0.0-76.0-1.40,TRUE,TRUE,TRUE,FALSE,"""event"",""trial"",""time""
""fullscreenenter"",""5"",""21736""
","
","
","""event"",""trial"",""time""
""fullscreenenter"",""5"",""21736""
","
",782.3300000163727,NA,49,NA,NA,3000,1,NA,NA,images/redplanet1.jpg,images/alien2,images/alien1,images/rocket2,images/alien1,images/t.png,2,real,false,1,rare,1,2020-06-12T18:40:25Z,sub23
two-step-fixation,257,929662,0.0-76.0-2.40,TRUE,TRUE,TRUE,FALSE,"""event"",""trial"",""time""
""fullscreenenter"",""5"",""21736""
","
","
","""event"",""trial"",""time""
""fullscreenenter"",""5"",""21736""
","
",NA,images/earth.jpg,NA,NA,NA,NA,NA,NA,NA,NA,NA,NA,NA,NA,NA,fixation,NA,NA,NA,NA,NA,NA,sub23
d3-animate-choice,258,932022,0.0-76.0-0.41,TRUE,TRUE,TRUE,FALSE,"""event"",""trial"",""time""
""fullscreenenter"",""5"",""21736""
","
","
","""event"",""trial"",""time""
""fullscreenenter"",""5"",""21736""
","
",352.6950000086799,NA,48,NA,NA,3000,1,NA,NA,images/earth.jpg,images/rocket2,images/rocket1,null,images/rocket2,NA,1,real,null,2,NA,NA,NA,sub23
d3-animate-choice,259,935513,0.0-76.0-1.41,TRUE,TRUE,TRUE,FALSE,"""event"",""trial"",""time""
""fullscreenenter"",""5"",""21736""
","
","
","""event"",""trial"",""time""
""fullscreenenter"",""5"",""21736""
","
",1487.5299999839626,NA,49,NA,NA,3000,1,NA,NA,images/redplanet1.jpg,images/alien2,images/alien1,images/rocket2,images/alien1,images/t.png,2,real,false,1,rare,1,2020-06-12T18:40:32Z,sub23
two-step-fixation,260,936517,0.0-76.0-2.41,TRUE,TRUE,TRUE,FALSE,"""event"",""trial"",""time""
""fullscreenenter"",""5"",""21736""
","
","
","""event"",""trial"",""time""
""fullscreenenter"",""5"",""21736""
","
",NA,images/earth.jpg,NA,NA,NA,NA,NA,NA,NA,NA,NA,NA,NA,NA,NA,fixation,NA,NA,NA,NA,NA,NA,sub23
d3-animate-choice,261,939108,0.0-76.0-0.42,TRUE,TRUE,TRUE,FALSE,"""event"",""trial"",""time""
""fullscreenenter"",""5"",""21736""
","
","
","""event"",""trial"",""time""
""fullscreenenter"",""5"",""21736""
","
",586.4149999979418,NA,48,NA,NA,3000,1,NA,NA,images/earth.jpg,images/rocket2,images/rocket1,null,images/rocket2,NA,1,real,null,2,NA,NA,NA,sub23
d3-animate-choice,262,941743,0.0-76.0-1.42,TRUE,TRUE,TRUE,FALSE,"""event"",""trial"",""time""
""fullscreenenter"",""5"",""21736""
","
","
","""event"",""trial"",""time""
""fullscreenenter"",""5"",""21736""
","
",629.5800000079907,NA,48,NA,NA,3000,1,NA,NA,images/purpleplanet.jpg,images/alien4,images/alien3,images/rocket2,images/alien4,images/t.png,2,real,true,2,common,1,2020-06-12T18:40:38Z,sub23
two-step-fixation,263,942746,0.0-76.0-2.42,TRUE,TRUE,TRUE,FALSE,"""event"",""trial"",""time""
""fullscreenenter"",""5"",""21736""
","
","
","""event"",""trial"",""time""
""fullscreenenter"",""5"",""21736""
","
",NA,images/earth.jpg,NA,NA,NA,NA,NA,NA,NA,NA,NA,NA,NA,NA,NA,fixation,NA,NA,NA,NA,NA,NA,sub23
d3-animate-choice,264,945245,0.0-76.0-0.43,TRUE,TRUE,TRUE,FALSE,"""event"",""trial"",""time""
""fullscreenenter"",""5"",""21736""
","
","
","""event"",""trial"",""time""
""fullscreenenter"",""5"",""21736""
","
",493.77000000094995,NA,48,NA,NA,3000,1,NA,NA,images/earth.jpg,images/rocket2,images/rocket1,null,images/rocket2,NA,1,real,null,2,NA,NA,NA,sub23
d3-animate-choice,265,948086,0.0-76.0-1.43,TRUE,TRUE,TRUE,FALSE,"""event"",""trial"",""time""
""fullscreenenter"",""5"",""21736""
","
","
","""event"",""trial"",""time""
""fullscreenenter"",""5"",""21736""
","
",836.4949999959208,NA,48,NA,NA,3000,1,NA,NA,images/purpleplanet.jpg,images/alien4,images/alien3,images/rocket2,images/alien4,images/t.png,2,real,true,2,common,1,2020-06-12T18:40:44Z,sub23
two-step-fixation,266,949093,0.0-76.0-2.43,TRUE,TRUE,TRUE,FALSE,"""event"",""trial"",""time""
""fullscreenenter"",""5"",""21736""
","
","
","""event"",""trial"",""time""
""fullscreenenter"",""5"",""21736""
","
",NA,images/earth.jpg,NA,NA,NA,NA,NA,NA,NA,NA,NA,NA,NA,NA,NA,fixation,NA,NA,NA,NA,NA,NA,sub23
d3-animate-choice,267,951504,0.0-76.0-0.44,TRUE,TRUE,TRUE,FALSE,"""event"",""trial"",""time""
""fullscreenenter"",""5"",""21736""
","
","
","""event"",""trial"",""time""
""fullscreenenter"",""5"",""21736""
","
",406.9199999794364,NA,48,NA,NA,3000,1,NA,NA,images/earth.jpg,images/rocket2,images/rocket1,null,images/rocket2,NA,1,real,null,2,NA,NA,NA,sub23
d3-animate-choice,268,954042,0.0-76.0-1.44,TRUE,TRUE,TRUE,FALSE,"""event"",""trial"",""time""
""fullscreenenter"",""5"",""21736""
","
","
","""event"",""trial"",""time""
""fullscreenenter"",""5"",""21736""
","
",533.3900000259746,NA,48,NA,NA,3000,1,NA,NA,images/purpleplanet.jpg,images/alien4,images/alien3,images/rocket2,images/alien4,images/t.png,2,real,true,2,common,1,2020-06-12T18:40:50Z,sub23
two-step-fixation,269,955048,0.0-76.0-2.44,TRUE,TRUE,TRUE,FALSE,"""event"",""trial"",""time""
""fullscreenenter"",""5"",""21736""
","
","
","""event"",""trial"",""time""
""fullscreenenter"",""5"",""21736""
","
",NA,images/earth.jpg,NA,NA,NA,NA,NA,NA,NA,NA,NA,NA,NA,NA,NA,fixation,NA,NA,NA,NA,NA,NA,sub23
d3-animate-choice,270,957507,0.0-76.0-0.45,TRUE,TRUE,TRUE,FALSE,"""event"",""trial"",""time""
""fullscreenenter"",""5"",""21736""
","
","
","""event"",""trial"",""time""
""fullscreenenter"",""5"",""21736""
","
",455.1400000054855,NA,48,NA,NA,3000,1,NA,NA,images/earth.jpg,images/rocket2,images/rocket1,null,images/rocket2,NA,1,real,null,2,NA,NA,NA,sub23
d3-animate-choice,271,959982,0.0-76.0-1.45,TRUE,TRUE,TRUE,FALSE,"""event"",""trial"",""time""
""fullscreenenter"",""5"",""21736""
","
","
","""event"",""trial"",""time""
""fullscreenenter"",""5"",""21736""
","
",470.5699999758508,NA,48,NA,NA,3000,1,NA,NA,images/purpleplanet.jpg,images/alien4,images/alien3,images/rocket2,images/alien4,images/nothing.png,2,real,true,2,common,0,2020-06-12T18:40:56Z,sub23
two-step-fixation,272,960990,0.0-76.0-2.45,TRUE,TRUE,TRUE,FALSE,"""event"",""trial"",""time""
""fullscreenenter"",""5"",""21736""
","
","
","""event"",""trial"",""time""
""fullscreenenter"",""5"",""21736""
","
",NA,images/earth.jpg,NA,NA,NA,NA,NA,NA,NA,NA,NA,NA,NA,NA,NA,fixation,NA,NA,NA,NA,NA,NA,sub23
d3-animate-choice,273,963680,0.0-76.0-0.46,TRUE,TRUE,TRUE,FALSE,"""event"",""trial"",""time""
""fullscreenenter"",""5"",""21736""
","
","
","""event"",""trial"",""time""
""fullscreenenter"",""5"",""21736""
","
",685.4850000236183,NA,48,NA,NA,3000,1,NA,NA,images/earth.jpg,images/rocket2,images/rocket1,null,images/rocket2,NA,1,real,null,2,NA,NA,NA,sub23
d3-animate-choice,274,966663,0.0-76.0-1.46,TRUE,TRUE,TRUE,FALSE,"""event"",""trial"",""time""
""fullscreenenter"",""5"",""21736""
","
","
","""event"",""trial"",""time""
""fullscreenenter"",""5"",""21736""
","
",974.4099999952596,NA,49,NA,NA,3000,1,NA,NA,images/purpleplanet.jpg,images/alien4,images/alien3,images/rocket2,images/alien3,images/t.png,2,real,true,1,common,1,2020-06-12T18:41:03Z,sub23
two-step-fixation,275,967667,0.0-76.0-2.46,TRUE,TRUE,TRUE,FALSE,"""event"",""trial"",""time""
""fullscreenenter"",""5"",""21736""
","
","
","""event"",""trial"",""time""
""fullscreenenter"",""5"",""21736""
","
",NA,images/earth.jpg,NA,NA,NA,NA,NA,NA,NA,NA,NA,NA,NA,NA,NA,fixation,NA,NA,NA,NA,NA,NA,sub23
d3-animate-choice,276,970306,0.0-76.0-0.47,TRUE,TRUE,TRUE,FALSE,"""event"",""trial"",""time""
""fullscreenenter"",""5"",""21736""
","
","
","""event"",""trial"",""time""
""fullscreenenter"",""5"",""21736""
","
",634.6049999992829,NA,48,NA,NA,3000,1,NA,NA,images/earth.jpg,images/rocket2,images/rocket1,null,images/rocket2,NA,1,real,null,2,NA,NA,NA,sub23
d3-animate-choice,277,972745,0.0-76.0-1.47,TRUE,TRUE,TRUE,FALSE,"""event"",""trial"",""time""
""fullscreenenter"",""5"",""21736""
","
","
","""event"",""trial"",""time""
""fullscreenenter"",""5"",""21736""
","
",433.80500000785105,NA,49,NA,NA,3000,1,NA,NA,images/purpleplanet.jpg,images/alien4,images/alien3,images/rocket2,images/alien3,images/t.png,2,real,true,1,common,1,2020-06-12T18:41:09Z,sub23
two-step-fixation,278,973753,0.0-76.0-2.47,TRUE,TRUE,TRUE,FALSE,"""event"",""trial"",""time""
""fullscreenenter"",""5"",""21736""
","
","
","""event"",""trial"",""time""
""fullscreenenter"",""5"",""21736""
","
",NA,images/earth.jpg,NA,NA,NA,NA,NA,NA,NA,NA,NA,NA,NA,NA,NA,fixation,NA,NA,NA,NA,NA,NA,sub23
d3-animate-choice,279,976228,0.0-76.0-0.48,TRUE,TRUE,TRUE,FALSE,"""event"",""trial"",""time""
""fullscreenenter"",""5"",""21736""
","
","
","""event"",""trial"",""time""
""fullscreenenter"",""5"",""21736""
","
",470.33000001101755,NA,48,NA,NA,3000,1,NA,NA,images/earth.jpg,images/rocket2,images/rocket1,null,images/rocket2,NA,1,real,null,2,NA,NA,NA,sub23
d3-animate-choice,280,978767,0.0-76.0-1.48,TRUE,TRUE,TRUE,FALSE,"""event"",""trial"",""time""
""fullscreenenter"",""5"",""21736""
","
","
","""event"",""trial"",""time""
""fullscreenenter"",""5"",""21736""
","
",535.7749999966472,NA,49,NA,NA,3000,1,NA,NA,images/redplanet1.jpg,images/alien2,images/alien1,images/rocket2,images/alien1,images/nothing.png,2,real,false,1,rare,0,2020-06-12T18:41:15Z,sub23
two-step-fixation,281,979771,0.0-76.0-2.48,TRUE,TRUE,TRUE,FALSE,"""event"",""trial"",""time""
""fullscreenenter"",""5"",""21736""
","
","
","""event"",""trial"",""time""
""fullscreenenter"",""5"",""21736""
","
",NA,images/earth.jpg,NA,NA,NA,NA,NA,NA,NA,NA,NA,NA,NA,NA,NA,fixation,NA,NA,NA,NA,NA,NA,sub23
d3-animate-choice,282,982321,0.0-76.0-0.49,TRUE,TRUE,TRUE,FALSE,"""event"",""trial"",""time""
""fullscreenenter"",""5"",""21736""
","
","
","""event"",""trial"",""time""
""fullscreenenter"",""5"",""21736""
","
",544.3150000064634,NA,48,NA,NA,3000,1,NA,NA,images/earth.jpg,images/rocket2,images/rocket1,null,images/rocket2,NA,1,real,null,2,NA,NA,NA,sub23
d3-animate-choice,283,984771,0.0-76.0-1.49,TRUE,TRUE,TRUE,FALSE,"""event"",""trial"",""time""
""fullscreenenter"",""5"",""21736""
","
","
","""event"",""trial"",""time""
""fullscreenenter"",""5"",""21736""
","
",445.0000000069849,NA,48,NA,NA,3000,1,NA,NA,images/redplanet1.jpg,images/alien2,images/alien1,images/rocket2,images/alien2,images/t.png,2,real,false,2,rare,1,2020-06-12T18:41:21Z,sub23
two-step-fixation,284,985776,0.0-76.0-2.49,TRUE,TRUE,TRUE,FALSE,"""event"",""trial"",""time""
""fullscreenenter"",""5"",""21736""
","
","
","""event"",""trial"",""time""
""fullscreenenter"",""5"",""21736""
","
",NA,images/earth.jpg,NA,NA,NA,NA,NA,NA,NA,NA,NA,NA,NA,NA,NA,fixation,NA,NA,NA,NA,NA,NA,sub23
