trial_type,trial_index,time_elapsed,internal_node_id,rocket_sides,red_planet_first_rocket,red_display_order,purple_display_order,interactions,blur_events,focus_events,fullscreenenter_events,fullscreenexit_events,rt,stimulus,key_press,button_pressed,success,duration,valid_pressed,rts,keys,planet_text,right_text,left_text,center_text,chosen_text,reward_text,trial_stage,practice_trial,transition_type,choice,transition,reward,timestamp,subject_id
pavlovia,0,6,0.0-0.0,FALSE,TRUE,TRUE,FALSE,"
","
","
","
","
",NA,NA,NA,NA,NA,NA,NA,NA,NA,NA,NA,NA,NA,NA,NA,NA,NA,NA,NA,NA,NA,NA,sub72
html-keyboard-response,1,4682,0.0-1.0,FALSE,TRUE,TRUE,FALSE,"
","
","
","
","
",4674.014999996871,Welcome! Press the space bar to begin.,32,NA,NA,NA,NA,NA,NA,NA,NA,NA,NA,NA,NA,NA,NA,NA,NA,NA,NA,NA,sub72
audio-keyboard-response,2,7525,0.0-2.0,FALSE,TRUE,TRUE,FALSE,"
","
","
","
","
",2520,audio/beep_loop.wav,32,NA,NA,NA,NA,NA,NA,NA,NA,NA,NA,NA,NA,NA,NA,NA,NA,NA,NA,NA,sub72
audio-button-response,3,13281,0.0-3.0,FALSE,TRUE,TRUE,FALSE,"
","
","
","
","
",NaN,audio/fish.mp3,NA,1,NA,NA,NA,NA,NA,NA,NA,NA,NA,NA,NA,NA,NA,NA,NA,NA,NA,NA,sub72
audio-button-response,4,16265,0.0-4.0,FALSE,TRUE,TRUE,FALSE,"""event"",""trial"",""time""
""fullscreenenter"",""5"",""19344""
","
","
","""event"",""trial"",""time""
""fullscreenenter"",""5"",""19344""
","
",NaN,audio/tiger.mp3,NA,4,NA,NA,NA,NA,NA,NA,NA,NA,NA,NA,NA,NA,NA,NA,NA,NA,NA,NA,sub72
fullscreen,5,20269,0.0-5.0,FALSE,TRUE,TRUE,FALSE,"""event"",""trial"",""time""
""fullscreenenter"",""5"",""19344""
","
","
","""event"",""trial"",""time""
""fullscreenenter"",""5"",""19344""
","
",NA,NA,NA,NA,TRUE,NA,NA,NA,NA,NA,NA,NA,NA,NA,NA,NA,NA,NA,NA,NA,NA,NA,sub72
d3-instructions,6,33968,0.0-6.0,FALSE,TRUE,TRUE,FALSE,"""event"",""trial"",""time""
""fullscreenenter"",""5"",""19344""
","
","
","""event"",""trial"",""time""
""fullscreenenter"",""5"",""19344""
","
",NA,NA,NA,NA,NA,NA,NA,NA,NA,NA,NA,NA,NA,NA,NA,NA,NA,NA,NA,NA,NA,NA,sub72
d3-instructions,7,44241,0.0-7.0,FALSE,TRUE,TRUE,FALSE,"""event"",""trial"",""time""
""fullscreenenter"",""5"",""19344""
","
","
","""event"",""trial"",""time""
""fullscreenenter"",""5"",""19344""
","
",NA,NA,NA,NA,NA,NA,NA,NA,NA,NA,NA,NA,NA,NA,NA,NA,NA,NA,NA,NA,NA,NA,sub72
d3-instructions,8,50894,0.0-8.0,FALSE,TRUE,TRUE,FALSE,"""event"",""trial"",""time""
""fullscreenenter"",""5"",""19344""
","
","
","""event"",""trial"",""time""
""fullscreenenter"",""5"",""19344""
","
",NA,NA,NA,NA,NA,NA,NA,NA,NA,NA,NA,NA,NA,NA,NA,NA,NA,NA,NA,NA,NA,NA,sub72
d3-instructions,9,62317,0.0-9.0,FALSE,TRUE,TRUE,FALSE,"""event"",""trial"",""time""
""fullscreenenter"",""5"",""19344""
","
","
","""event"",""trial"",""time""
""fullscreenenter"",""5"",""19344""
","
",NA,NA,NA,NA,NA,NA,NA,NA,NA,NA,NA,NA,NA,NA,NA,NA,NA,NA,NA,NA,NA,NA,sub72
d3-instructions,10,81434,0.0-10.0,FALSE,TRUE,TRUE,FALSE,"""event"",""trial"",""time""
""fullscreenenter"",""5"",""19344""
","
","
","""event"",""trial"",""time""
""fullscreenenter"",""5"",""19344""
","
",NA,NA,NA,NA,NA,NA,NA,NA,NA,NA,NA,NA,NA,NA,NA,NA,NA,NA,NA,NA,NA,NA,sub72
d3-animate-choice,11,85363,0.0-11.0,FALSE,TRUE,TRUE,FALSE,"""event"",""trial"",""time""
""fullscreenenter"",""5"",""19344""
","
","
","""event"",""trial"",""time""
""fullscreenenter"",""5"",""19344""
","
",1910.4999999981374,NA,49,NA,NA,3000,1,"3098.3649999834597,3762.970000039786",4848,images/tutgreenplanet.jpg,images/tutalien1,images/tutalien2,null,images/tutalien2,NA,NA,practice,null,NA,NA,NA,NA,sub72
d3-animate-choice,12,88627,0.0-12.0,FALSE,TRUE,TRUE,FALSE,"""event"",""trial"",""time""
""fullscreenenter"",""5"",""19344""
","
","
","""event"",""trial"",""time""
""fullscreenenter"",""5"",""19344""
","
",1245.905000017956,NA,48,NA,NA,3000,1,NA,NA,images/tutgreenplanet.jpg,images/tutalien1,images/tutalien2,null,images/tutalien1,NA,NA,practice,null,NA,NA,NA,NA,sub72
d3-animate-choice,13,93084,0.0-13.0,FALSE,TRUE,TRUE,FALSE,"""event"",""trial"",""time""
""fullscreenenter"",""5"",""19344""
","
","
","""event"",""trial"",""time""
""fullscreenenter"",""5"",""19344""
","
",2443.2200000155717,NA,49,NA,NA,3000,1,NA,NA,images/tutgreenplanet.jpg,images/tutalien1,images/tutalien2,null,images/tutalien2,NA,NA,practice,null,NA,NA,NA,NA,sub72
d3-animate-choice,14,96377,0.0-14.0,FALSE,TRUE,TRUE,FALSE,"""event"",""trial"",""time""
""fullscreenenter"",""5"",""19344""
","
","
","""event"",""trial"",""time""
""fullscreenenter"",""5"",""19344""
","
",1279.5250000199303,NA,48,NA,NA,3000,1,NA,NA,images/tutgreenplanet.jpg,images/tutalien1,images/tutalien2,null,images/tutalien1,NA,NA,practice,null,NA,NA,NA,NA,sub72
d3-instructions,15,103160,0.0-15.0,FALSE,TRUE,TRUE,FALSE,"""event"",""trial"",""time""
""fullscreenenter"",""5"",""19344""
","
","
","""event"",""trial"",""time""
""fullscreenenter"",""5"",""19344""
","
",NA,NA,NA,NA,NA,NA,NA,NA,NA,NA,NA,NA,NA,NA,NA,NA,NA,NA,NA,NA,NA,NA,sub72
d3-instructions,16,110776,0.0-16.0,FALSE,TRUE,TRUE,FALSE,"""event"",""trial"",""time""
""fullscreenenter"",""5"",""19344""
","
","
","""event"",""trial"",""time""
""fullscreenenter"",""5"",""19344""
","
",NA,NA,NA,NA,NA,NA,NA,NA,NA,NA,NA,NA,NA,NA,NA,NA,NA,NA,NA,NA,NA,NA,sub72
d3-instructions,17,120089,0.0-17.0,FALSE,TRUE,TRUE,FALSE,"""event"",""trial"",""time""
""fullscreenenter"",""5"",""19344""
","
","
","""event"",""trial"",""time""
""fullscreenenter"",""5"",""19344""
","
",NA,NA,NA,NA,NA,NA,NA,NA,NA,NA,NA,NA,NA,NA,NA,NA,NA,NA,NA,NA,NA,NA,sub72
d3-instructions,18,133796,0.0-18.0,FALSE,TRUE,TRUE,FALSE,"""event"",""trial"",""time""
""fullscreenenter"",""5"",""19344""
","
","
","""event"",""trial"",""time""
""fullscreenenter"",""5"",""19344""
","
",NA,NA,NA,NA,NA,NA,NA,NA,NA,NA,NA,NA,NA,NA,NA,NA,NA,NA,NA,NA,NA,NA,sub72
d3-instructions,19,148282,0.0-19.0,FALSE,TRUE,TRUE,FALSE,"""event"",""trial"",""time""
""fullscreenenter"",""5"",""19344""
","
","
","""event"",""trial"",""time""
""fullscreenenter"",""5"",""19344""
","
",NA,NA,NA,NA,NA,NA,NA,NA,NA,NA,NA,NA,NA,NA,NA,NA,NA,NA,NA,NA,NA,NA,sub72
d3-animate-choice,20,151621,0.0-20.0,FALSE,TRUE,TRUE,FALSE,"""event"",""trial"",""time""
""fullscreenenter"",""5"",""19344""
","
","
","""event"",""trial"",""time""
""fullscreenenter"",""5"",""19344""
","
",1317.4550000112504,NA,49,NA,NA,3000,1,NA,NA,images/tutyellowplanet.jpg,null,images/tutalien3,null,images/tutalien3,images/t.png,NA,practice,null,NA,NA,NA,NA,sub72
d3-animate-choice,21,154525,0.0-21.0,FALSE,TRUE,TRUE,FALSE,"""event"",""trial"",""time""
""fullscreenenter"",""5"",""19344""
","
","
","""event"",""trial"",""time""
""fullscreenenter"",""5"",""19344""
","
",887.6999999629334,NA,49,NA,NA,3000,1,NA,NA,images/tutyellowplanet.jpg,null,images/tutalien3,null,images/tutalien3,images/t.png,NA,practice,null,NA,NA,NA,NA,sub72
d3-animate-choice,22,157162,0.0-22.0,FALSE,TRUE,TRUE,FALSE,"""event"",""trial"",""time""
""fullscreenenter"",""5"",""19344""
","
","
","""event"",""trial"",""time""
""fullscreenenter"",""5"",""19344""
","
",626.3999999500811,NA,49,NA,NA,3000,1,NA,NA,images/tutyellowplanet.jpg,null,images/tutalien3,null,images/tutalien3,images/t.png,NA,practice,null,NA,NA,NA,NA,sub72
d3-animate-choice,23,159793,0.0-23.0,FALSE,TRUE,TRUE,FALSE,"""event"",""trial"",""time""
""fullscreenenter"",""5"",""19344""
","
","
","""event"",""trial"",""time""
""fullscreenenter"",""5"",""19344""
","
",616.9499999377877,NA,49,NA,NA,3000,1,NA,NA,images/tutyellowplanet.jpg,null,images/tutalien3,null,images/tutalien3,images/nothing.png,NA,practice,null,NA,NA,NA,NA,sub72
d3-animate-choice,24,162313,0.0-24.0,FALSE,TRUE,TRUE,FALSE,"""event"",""trial"",""time""
""fullscreenenter"",""5"",""19344""
","
","
","""event"",""trial"",""time""
""fullscreenenter"",""5"",""19344""
","
",504.96000004932284,NA,49,NA,NA,3000,1,NA,NA,images/tutyellowplanet.jpg,null,images/tutalien3,null,images/tutalien3,images/t.png,NA,practice,null,NA,NA,NA,NA,sub72
d3-animate-choice,25,164904,0.0-25.0,FALSE,TRUE,TRUE,FALSE,"""event"",""trial"",""time""
""fullscreenenter"",""5"",""19344""
","
","
","""event"",""trial"",""time""
""fullscreenenter"",""5"",""19344""
","
",568.4849999379367,NA,49,NA,NA,3000,1,NA,NA,images/tutyellowplanet.jpg,null,images/tutalien3,null,images/tutalien3,images/t.png,NA,practice,null,NA,NA,NA,NA,sub72
d3-animate-choice,26,167545,0.0-26.0,FALSE,TRUE,TRUE,FALSE,"""event"",""trial"",""time""
""fullscreenenter"",""5"",""19344""
","
","
","""event"",""trial"",""time""
""fullscreenenter"",""5"",""19344""
","
",628.0750000150874,NA,49,NA,NA,3000,1,NA,NA,images/tutyellowplanet.jpg,null,images/tutalien3,null,images/tutalien3,images/t.png,NA,practice,null,NA,NA,NA,NA,sub72
d3-animate-choice,27,170141,0.0-27.0,FALSE,TRUE,TRUE,FALSE,"""event"",""trial"",""time""
""fullscreenenter"",""5"",""19344""
","
","
","""event"",""trial"",""time""
""fullscreenenter"",""5"",""19344""
","
",583.115000044927,NA,49,NA,NA,3000,1,NA,NA,images/tutyellowplanet.jpg,null,images/tutalien3,null,images/tutalien3,images/nothing.png,NA,practice,null,NA,NA,NA,NA,sub72
d3-animate-choice,28,172734,0.0-28.0,FALSE,TRUE,TRUE,FALSE,"""event"",""trial"",""time""
""fullscreenenter"",""5"",""19344""
","
","
","""event"",""trial"",""time""
""fullscreenenter"",""5"",""19344""
","
",580.3849999792874,NA,49,NA,NA,3000,1,NA,NA,images/tutyellowplanet.jpg,null,images/tutalien3,null,images/tutalien3,images/nothing.png,NA,practice,null,NA,NA,NA,NA,sub72
d3-animate-choice,29,175474,0.0-29.0,FALSE,TRUE,TRUE,FALSE,"""event"",""trial"",""time""
""fullscreenenter"",""5"",""19344""
","
","
","""event"",""trial"",""time""
""fullscreenenter"",""5"",""19344""
","
",731.2049999600276,NA,49,NA,NA,3000,1,NA,NA,images/tutyellowplanet.jpg,null,images/tutalien3,null,images/tutalien3,images/t.png,NA,practice,null,NA,NA,NA,NA,sub72
d3-instructions,30,182346,0.0-30.0,FALSE,TRUE,TRUE,FALSE,"""event"",""trial"",""time""
""fullscreenenter"",""5"",""19344""
","
","
","""event"",""trial"",""time""
""fullscreenenter"",""5"",""19344""
","
",NA,NA,NA,NA,NA,NA,NA,NA,NA,NA,NA,NA,NA,NA,NA,NA,NA,NA,NA,NA,NA,NA,sub72
d3-instructions,31,192655,0.0-31.0,FALSE,TRUE,TRUE,FALSE,"""event"",""trial"",""time""
""fullscreenenter"",""5"",""19344""
","
","
","""event"",""trial"",""time""
""fullscreenenter"",""5"",""19344""
","
",NA,NA,NA,NA,NA,NA,NA,NA,NA,NA,NA,NA,NA,NA,NA,NA,NA,NA,NA,NA,NA,NA,sub72
d3-instructions,32,200667,0.0-32.0,FALSE,TRUE,TRUE,FALSE,"""event"",""trial"",""time""
""fullscreenenter"",""5"",""19344""
","
","
","""event"",""trial"",""time""
""fullscreenenter"",""5"",""19344""
","
",NA,NA,NA,NA,NA,NA,NA,NA,NA,NA,NA,NA,NA,NA,NA,NA,NA,NA,NA,NA,NA,NA,sub72
d3-instructions,33,211628,0.0-33.0,FALSE,TRUE,TRUE,FALSE,"""event"",""trial"",""time""
""fullscreenenter"",""5"",""19344""
","
","
","""event"",""trial"",""time""
""fullscreenenter"",""5"",""19344""
","
",NA,NA,NA,NA,NA,NA,NA,NA,NA,NA,NA,NA,NA,NA,NA,NA,NA,NA,NA,NA,NA,NA,sub72
d3-animate-choice,34,216284,0.0-34.0,FALSE,TRUE,TRUE,FALSE,"""event"",""trial"",""time""
""fullscreenenter"",""5"",""19344""
","
","
","""event"",""trial"",""time""
""fullscreenenter"",""5"",""19344""
","
",2638.9600000111386,NA,49,NA,NA,3000,1,NA,NA,images/tutgreenplanet.jpg,images/tutalien1,images/tutalien2,null,images/tutalien2,images/t.png,NA,practice,null,NA,NA,NA,NA,sub72
d3-animate-choice,35,219164,0.0-35.0,FALSE,TRUE,TRUE,FALSE,"""event"",""trial"",""time""
""fullscreenenter"",""5"",""19344""
","
","
","""event"",""trial"",""time""
""fullscreenenter"",""5"",""19344""
","
",856.2350000720471,NA,49,NA,NA,3000,1,NA,NA,images/tutgreenplanet.jpg,images/tutalien1,images/tutalien2,null,images/tutalien2,images/t.png,NA,practice,null,NA,NA,NA,NA,sub72
d3-animate-choice,36,221884,0.0-36.0,FALSE,TRUE,TRUE,FALSE,"""event"",""trial"",""time""
""fullscreenenter"",""5"",""19344""
","
","
","""event"",""trial"",""time""
""fullscreenenter"",""5"",""19344""
","
",705.8249999536201,NA,49,NA,NA,3000,1,NA,NA,images/tutgreenplanet.jpg,images/tutalien1,images/tutalien2,null,images/tutalien2,images/t.png,NA,practice,null,NA,NA,NA,NA,sub72
d3-animate-choice,37,224533,0.0-37.0,FALSE,TRUE,TRUE,FALSE,"""event"",""trial"",""time""
""fullscreenenter"",""5"",""19344""
","
","
","""event"",""trial"",""time""
""fullscreenenter"",""5"",""19344""
","
",621.0750000318512,NA,49,NA,NA,3000,1,NA,NA,images/tutgreenplanet.jpg,images/tutalien1,images/tutalien2,null,images/tutalien2,images/t.png,NA,practice,null,NA,NA,NA,NA,sub72
d3-animate-choice,38,227173,0.0-38.0,FALSE,TRUE,TRUE,FALSE,"""event"",""trial"",""time""
""fullscreenenter"",""5"",""19344""
","
","
","""event"",""trial"",""time""
""fullscreenenter"",""5"",""19344""
","
",615.6600000103936,NA,49,NA,NA,3000,1,NA,NA,images/tutgreenplanet.jpg,images/tutalien1,images/tutalien2,null,images/tutalien2,images/t.png,NA,practice,null,NA,NA,NA,NA,sub72
d3-animate-choice,39,229863,0.0-39.0,FALSE,TRUE,TRUE,FALSE,"""event"",""trial"",""time""
""fullscreenenter"",""5"",""19344""
","
","
","""event"",""trial"",""time""
""fullscreenenter"",""5"",""19344""
","
",683.309999993071,NA,49,NA,NA,3000,1,NA,NA,images/tutgreenplanet.jpg,images/tutalien1,images/tutalien2,null,images/tutalien2,images/t.png,NA,practice,null,NA,NA,NA,NA,sub72
d3-animate-choice,40,232523,0.0-40.0,FALSE,TRUE,TRUE,FALSE,"""event"",""trial"",""time""
""fullscreenenter"",""5"",""19344""
","
","
","""event"",""trial"",""time""
""fullscreenenter"",""5"",""19344""
","
",638.9600000111386,NA,49,NA,NA,3000,1,NA,NA,images/tutgreenplanet.jpg,images/tutalien1,images/tutalien2,null,images/tutalien2,images/t.png,NA,practice,null,NA,NA,NA,NA,sub72
d3-animate-choice,41,235153,0.0-41.0,FALSE,TRUE,TRUE,FALSE,"""event"",""trial"",""time""
""fullscreenenter"",""5"",""19344""
","
","
","""event"",""trial"",""time""
""fullscreenenter"",""5"",""19344""
","
",618.9800000283867,NA,49,NA,NA,3000,1,NA,NA,images/tutgreenplanet.jpg,images/tutalien1,images/tutalien2,null,images/tutalien2,images/t.png,NA,practice,null,NA,NA,NA,NA,sub72
d3-animate-choice,42,237833,0.0-42.0,FALSE,TRUE,TRUE,FALSE,"""event"",""trial"",""time""
""fullscreenenter"",""5"",""19344""
","
","
","""event"",""trial"",""time""
""fullscreenenter"",""5"",""19344""
","
",662.0650000404567,NA,49,NA,NA,3000,1,NA,NA,images/tutgreenplanet.jpg,images/tutalien1,images/tutalien2,null,images/tutalien2,images/t.png,NA,practice,null,NA,NA,NA,NA,sub72
d3-animate-choice,43,240543,0.0-43.0,FALSE,TRUE,TRUE,FALSE,"""event"",""trial"",""time""
""fullscreenenter"",""5"",""19344""
","
","
","""event"",""trial"",""time""
""fullscreenenter"",""5"",""19344""
","
",700.3999999724329,NA,49,NA,NA,3000,1,NA,NA,images/tutgreenplanet.jpg,images/tutalien1,images/tutalien2,null,images/tutalien2,images/t.png,NA,practice,null,NA,NA,NA,NA,sub72
d3-instructions,44,254005,0.0-44.0,FALSE,TRUE,TRUE,FALSE,"""event"",""trial"",""time""
""fullscreenenter"",""5"",""19344""
","
","
","""event"",""trial"",""time""
""fullscreenenter"",""5"",""19344""
","
",NA,NA,NA,NA,NA,NA,NA,NA,NA,NA,NA,NA,NA,NA,NA,NA,NA,NA,NA,NA,NA,NA,sub72
d3-instructions,45,261332,0.0-45.0,FALSE,TRUE,TRUE,FALSE,"""event"",""trial"",""time""
""fullscreenenter"",""5"",""19344""
","
","
","""event"",""trial"",""time""
""fullscreenenter"",""5"",""19344""
","
",NA,NA,NA,NA,NA,NA,NA,NA,NA,NA,NA,NA,NA,NA,NA,NA,NA,NA,NA,NA,NA,NA,sub72
d3-instructions,46,267458,0.0-46.0,FALSE,TRUE,TRUE,FALSE,"""event"",""trial"",""time""
""fullscreenenter"",""5"",""19344""
","
","
","""event"",""trial"",""time""
""fullscreenenter"",""5"",""19344""
","
",NA,NA,NA,NA,NA,NA,NA,NA,NA,NA,NA,NA,NA,NA,NA,NA,NA,NA,NA,NA,NA,NA,sub72
d3-instructions,47,285326,0.0-47.0,FALSE,TRUE,TRUE,FALSE,"""event"",""trial"",""time""
""fullscreenenter"",""5"",""19344""
","
","
","""event"",""trial"",""time""
""fullscreenenter"",""5"",""19344""
","
",NA,NA,NA,NA,NA,NA,NA,NA,NA,NA,NA,NA,NA,NA,NA,NA,NA,NA,NA,NA,NA,NA,sub72
d3-instructions,48,291823,0.0-48.0,FALSE,TRUE,TRUE,FALSE,"""event"",""trial"",""time""
""fullscreenenter"",""5"",""19344""
","
","
","""event"",""trial"",""time""
""fullscreenenter"",""5"",""19344""
","
",NA,NA,NA,NA,NA,NA,NA,NA,NA,NA,NA,NA,NA,NA,NA,NA,NA,NA,NA,NA,NA,NA,sub72
d3-instructions,49,303306,0.0-49.0,FALSE,TRUE,TRUE,FALSE,"""event"",""trial"",""time""
""fullscreenenter"",""5"",""19344""
","
","
","""event"",""trial"",""time""
""fullscreenenter"",""5"",""19344""
","
",NA,NA,NA,NA,NA,NA,NA,NA,NA,NA,NA,NA,NA,NA,NA,NA,NA,NA,NA,NA,NA,NA,sub72
d3-instructions,50,311947,0.0-50.0,FALSE,TRUE,TRUE,FALSE,"""event"",""trial"",""time""
""fullscreenenter"",""5"",""19344""
","
","
","""event"",""trial"",""time""
""fullscreenenter"",""5"",""19344""
","
",NA,NA,NA,NA,NA,NA,NA,NA,NA,NA,NA,NA,NA,NA,NA,NA,NA,NA,NA,NA,NA,NA,sub72
d3-instructions,51,314479,0.0-51.0,FALSE,TRUE,TRUE,FALSE,"""event"",""trial"",""time""
""fullscreenenter"",""5"",""19344""
","
","
","""event"",""trial"",""time""
""fullscreenenter"",""5"",""19344""
","
",NA,NA,NA,NA,NA,NA,NA,NA,NA,NA,NA,NA,NA,NA,NA,NA,NA,NA,NA,NA,NA,NA,sub72
d3-instructions,52,317268,0.0-52.0,FALSE,TRUE,TRUE,FALSE,"""event"",""trial"",""time""
""fullscreenenter"",""5"",""19344""
","
","
","""event"",""trial"",""time""
""fullscreenenter"",""5"",""19344""
","
",NA,NA,NA,NA,NA,NA,NA,NA,NA,NA,NA,NA,NA,NA,NA,NA,NA,NA,NA,NA,NA,NA,sub72
d3-instructions,53,329297,0.0-53.0,FALSE,TRUE,TRUE,FALSE,"""event"",""trial"",""time""
""fullscreenenter"",""5"",""19344""
","
","
","""event"",""trial"",""time""
""fullscreenenter"",""5"",""19344""
","
",NA,NA,NA,NA,NA,NA,NA,NA,NA,NA,NA,NA,NA,NA,NA,NA,NA,NA,NA,NA,NA,NA,sub72
d3-instructions,54,341705,0.0-54.0,FALSE,TRUE,TRUE,FALSE,"""event"",""trial"",""time""
""fullscreenenter"",""5"",""19344""
","
","
","""event"",""trial"",""time""
""fullscreenenter"",""5"",""19344""
","
",NA,NA,NA,NA,NA,NA,NA,NA,NA,NA,NA,NA,NA,NA,NA,NA,NA,NA,NA,NA,NA,NA,sub72
d3-instructions,55,351674,0.0-55.0,FALSE,TRUE,TRUE,FALSE,"""event"",""trial"",""time""
""fullscreenenter"",""5"",""19344""
","
","
","""event"",""trial"",""time""
""fullscreenenter"",""5"",""19344""
","
",NA,NA,NA,NA,NA,NA,NA,NA,NA,NA,NA,NA,NA,NA,NA,NA,NA,NA,NA,NA,NA,NA,sub72
d3-instructions,56,360076,0.0-56.0,FALSE,TRUE,TRUE,FALSE,"""event"",""trial"",""time""
""fullscreenenter"",""5"",""19344""
","
","
","""event"",""trial"",""time""
""fullscreenenter"",""5"",""19344""
","
",NA,NA,NA,NA,NA,NA,NA,NA,NA,NA,NA,NA,NA,NA,NA,NA,NA,NA,NA,NA,NA,NA,sub72
d3-instructions,57,370308,0.0-57.0,FALSE,TRUE,TRUE,FALSE,"""event"",""trial"",""time""
""fullscreenenter"",""5"",""19344""
","
","
","""event"",""trial"",""time""
""fullscreenenter"",""5"",""19344""
","
",NA,NA,NA,NA,NA,NA,NA,NA,NA,NA,NA,NA,NA,NA,NA,NA,NA,NA,NA,NA,NA,NA,sub72
d3-instructions,58,380597,0.0-58.0,FALSE,TRUE,TRUE,FALSE,"""event"",""trial"",""time""
""fullscreenenter"",""5"",""19344""
","
","
","""event"",""trial"",""time""
""fullscreenenter"",""5"",""19344""
","
",NA,NA,NA,NA,NA,NA,NA,NA,NA,NA,NA,NA,NA,NA,NA,NA,NA,NA,NA,NA,NA,NA,sub72
d3-instructions,59,385220,0.0-59.0,FALSE,TRUE,TRUE,FALSE,"""event"",""trial"",""time""
""fullscreenenter"",""5"",""19344""
","
","
","""event"",""trial"",""time""
""fullscreenenter"",""5"",""19344""
","
",NA,NA,NA,NA,NA,NA,NA,NA,NA,NA,NA,NA,NA,NA,NA,NA,NA,NA,NA,NA,NA,NA,sub72
d3-instructions,60,391932,0.0-60.0,FALSE,TRUE,TRUE,FALSE,"""event"",""trial"",""time""
""fullscreenenter"",""5"",""19344""
","
","
","""event"",""trial"",""time""
""fullscreenenter"",""5"",""19344""
","
",NA,NA,NA,NA,NA,NA,NA,NA,NA,NA,NA,NA,NA,NA,NA,NA,NA,NA,NA,NA,NA,NA,sub72
d3-animate-choice,61,395243,0.0-61.0-0.0,FALSE,TRUE,TRUE,FALSE,"""event"",""trial"",""time""
""fullscreenenter"",""5"",""19344""
","
","
","""event"",""trial"",""time""
""fullscreenenter"",""5"",""19344""
","
",1287.8799999598414,NA,49,NA,NA,3000,1,NA,NA,images/earth.jpg,images/tutrocket1,images/tutrocket2,null,images/tutrocket2,NA,1,practice,null,1,NA,NA,NA,sub72
d3-animate-choice,62,399250,0.0-61.0-1.0,FALSE,TRUE,TRUE,FALSE,"""event"",""trial"",""time""
""fullscreenenter"",""5"",""19344""
","
","
","""event"",""trial"",""time""
""fullscreenenter"",""5"",""19344""
","
",2438.525000005029,NA,49,NA,NA,3000,1,NA,NA,images/tutgreenplanet.jpg,images/tutalien2,images/tutalien1,images/tutrocket2,images/tutalien1,images/nothing.png,2,practice,false,1,rare,0,2020-06-19T15:53:47Z,sub72
two-step-fixation,63,400258,0.0-61.0-2.0,FALSE,TRUE,TRUE,FALSE,"""event"",""trial"",""time""
""fullscreenenter"",""5"",""19344""
","
","
","""event"",""trial"",""time""
""fullscreenenter"",""5"",""19344""
","
",NA,images/earth.jpg,NA,NA,NA,NA,NA,NA,NA,NA,NA,NA,NA,NA,NA,fixation,NA,NA,NA,NA,NA,NA,sub72
d3-animate-choice,64,403699,0.0-61.0-0.1,FALSE,TRUE,TRUE,FALSE,"""event"",""trial"",""time""
""fullscreenenter"",""5"",""19344""
","
","
","""event"",""trial"",""time""
""fullscreenenter"",""5"",""19344""
","
",1420.4700000118464,NA,49,NA,NA,3000,1,NA,NA,images/earth.jpg,images/tutrocket1,images/tutrocket2,null,images/tutrocket2,NA,1,practice,null,1,NA,NA,NA,sub72
d3-animate-choice,65,406746,0.0-61.0-1.1,FALSE,TRUE,TRUE,FALSE,"""event"",""trial"",""time""
""fullscreenenter"",""5"",""19344""
","
","
","""event"",""trial"",""time""
""fullscreenenter"",""5"",""19344""
","
",1017.9899999639019,NA,49,NA,NA,3000,1,NA,NA,images/tutyellowplanet.jpg,images/tutalien4,images/tutalien3,images/tutrocket2,images/tutalien3,images/nothing.png,2,practice,true,1,common,0,2020-06-19T15:53:54Z,sub72
two-step-fixation,66,407754,0.0-61.0-2.1,FALSE,TRUE,TRUE,FALSE,"""event"",""trial"",""time""
""fullscreenenter"",""5"",""19344""
","
","
","""event"",""trial"",""time""
""fullscreenenter"",""5"",""19344""
","
",NA,images/earth.jpg,NA,NA,NA,NA,NA,NA,NA,NA,NA,NA,NA,NA,NA,fixation,NA,NA,NA,NA,NA,NA,sub72
d3-animate-choice,67,411319,0.0-61.0-0.2,FALSE,TRUE,TRUE,FALSE,"""event"",""trial"",""time""
""fullscreenenter"",""5"",""19344""
","
","
","""event"",""trial"",""time""
""fullscreenenter"",""5"",""19344""
","
",1545.4700000118464,NA,48,NA,NA,3000,1,NA,NA,images/earth.jpg,images/tutrocket1,images/tutrocket2,null,images/tutrocket1,NA,1,practice,null,2,NA,NA,NA,sub72
d3-animate-choice,68,414134,0.0-61.0-1.2,FALSE,TRUE,TRUE,FALSE,"""event"",""trial"",""time""
""fullscreenenter"",""5"",""19344""
","
","
","""event"",""trial"",""time""
""fullscreenenter"",""5"",""19344""
","
",808.7550000054762,NA,48,NA,NA,3000,1,NA,NA,images/tutgreenplanet.jpg,images/tutalien2,images/tutalien1,images/tutrocket1,images/tutalien2,images/nothing.png,2,practice,true,2,common,0,2020-06-19T15:54:02Z,sub72
two-step-fixation,69,415145,0.0-61.0-2.2,FALSE,TRUE,TRUE,FALSE,"""event"",""trial"",""time""
""fullscreenenter"",""5"",""19344""
","
","
","""event"",""trial"",""time""
""fullscreenenter"",""5"",""19344""
","
",NA,images/earth.jpg,NA,NA,NA,NA,NA,NA,NA,NA,NA,NA,NA,NA,NA,fixation,NA,NA,NA,NA,NA,NA,sub72
d3-animate-choice,70,417579,0.0-61.0-0.3,FALSE,TRUE,TRUE,FALSE,"""event"",""trial"",""time""
""fullscreenenter"",""5"",""19344""
","
","
","""event"",""trial"",""time""
""fullscreenenter"",""5"",""19344""
","
",413.5450000176206,NA,48,NA,NA,3000,1,NA,NA,images/earth.jpg,images/tutrocket1,images/tutrocket2,null,images/tutrocket1,NA,1,practice,null,2,NA,NA,NA,sub72
d3-animate-choice,71,420281,0.0-61.0-1.3,FALSE,TRUE,TRUE,FALSE,"""event"",""trial"",""time""
""fullscreenenter"",""5"",""19344""
","
","
","""event"",""trial"",""time""
""fullscreenenter"",""5"",""19344""
","
",696.2150000035763,NA,48,NA,NA,3000,1,NA,NA,images/tutgreenplanet.jpg,images/tutalien2,images/tutalien1,images/tutrocket1,images/tutalien2,images/t.png,2,practice,true,2,common,1,2020-06-19T15:54:08Z,sub72
two-step-fixation,72,421287,0.0-61.0-2.3,FALSE,TRUE,TRUE,FALSE,"""event"",""trial"",""time""
""fullscreenenter"",""5"",""19344""
","
","
","""event"",""trial"",""time""
""fullscreenenter"",""5"",""19344""
","
",NA,images/earth.jpg,NA,NA,NA,NA,NA,NA,NA,NA,NA,NA,NA,NA,NA,fixation,NA,NA,NA,NA,NA,NA,sub72
d3-animate-choice,73,423891,0.0-61.0-0.4,FALSE,TRUE,TRUE,FALSE,"""event"",""trial"",""time""
""fullscreenenter"",""5"",""19344""
","
","
","""event"",""trial"",""time""
""fullscreenenter"",""5"",""19344""
","
",588.385000010021,NA,48,NA,NA,3000,1,NA,NA,images/earth.jpg,images/tutrocket1,images/tutrocket2,null,images/tutrocket1,NA,1,practice,null,2,NA,NA,NA,sub72
d3-animate-choice,74,426499,0.0-61.0-1.4,FALSE,TRUE,TRUE,FALSE,"""event"",""trial"",""time""
""fullscreenenter"",""5"",""19344""
","
","
","""event"",""trial"",""time""
""fullscreenenter"",""5"",""19344""
","
",597.9900000384077,NA,48,NA,NA,3000,1,NA,NA,images/tutgreenplanet.jpg,images/tutalien2,images/tutalien1,images/tutrocket1,images/tutalien2,images/t.png,2,practice,true,2,common,1,2020-06-19T15:54:14Z,sub72
two-step-fixation,75,427516,0.0-61.0-2.4,FALSE,TRUE,TRUE,FALSE,"""event"",""trial"",""time""
""fullscreenenter"",""5"",""19344""
","
","
","""event"",""trial"",""time""
""fullscreenenter"",""5"",""19344""
","
",NA,images/earth.jpg,NA,NA,NA,NA,NA,NA,NA,NA,NA,NA,NA,NA,NA,fixation,NA,NA,NA,NA,NA,NA,sub72
d3-animate-choice,76,430333,0.0-61.0-0.5,FALSE,TRUE,TRUE,FALSE,"""event"",""trial"",""time""
""fullscreenenter"",""5"",""19344""
","
","
","""event"",""trial"",""time""
""fullscreenenter"",""5"",""19344""
","
",803.0150000704452,NA,48,NA,NA,3000,1,NA,NA,images/earth.jpg,images/tutrocket1,images/tutrocket2,null,images/tutrocket1,NA,1,practice,null,2,NA,NA,NA,sub72
d3-animate-choice,77,432922,0.0-61.0-1.5,FALSE,TRUE,TRUE,FALSE,"""event"",""trial"",""time""
""fullscreenenter"",""5"",""19344""
","
","
","""event"",""trial"",""time""
""fullscreenenter"",""5"",""19344""
","
",585.3750000242144,NA,48,NA,NA,3000,1,NA,NA,images/tutgreenplanet.jpg,images/tutalien2,images/tutalien1,images/tutrocket1,images/tutalien2,images/nothing.png,2,practice,true,2,common,0,2020-06-19T15:54:21Z,sub72
two-step-fixation,78,433929,0.0-61.0-2.5,FALSE,TRUE,TRUE,FALSE,"""event"",""trial"",""time""
""fullscreenenter"",""5"",""19344""
","
","
","""event"",""trial"",""time""
""fullscreenenter"",""5"",""19344""
","
",NA,images/earth.jpg,NA,NA,NA,NA,NA,NA,NA,NA,NA,NA,NA,NA,NA,fixation,NA,NA,NA,NA,NA,NA,sub72
d3-animate-choice,79,436426,0.0-61.0-0.6,FALSE,TRUE,TRUE,FALSE,"""event"",""trial"",""time""
""fullscreenenter"",""5"",""19344""
","
","
","""event"",""trial"",""time""
""fullscreenenter"",""5"",""19344""
","
",484.2150000622496,NA,49,NA,NA,3000,1,NA,NA,images/earth.jpg,images/tutrocket1,images/tutrocket2,null,images/tutrocket2,NA,1,practice,null,1,NA,NA,NA,sub72
d3-animate-choice,80,439002,0.0-61.0-1.6,FALSE,TRUE,TRUE,FALSE,"""event"",""trial"",""time""
""fullscreenenter"",""5"",""19344""
","
","
","""event"",""trial"",""time""
""fullscreenenter"",""5"",""19344""
","
",566.5449999505654,NA,49,NA,NA,3000,1,NA,NA,images/tutyellowplanet.jpg,images/tutalien4,images/tutalien3,images/tutrocket2,images/tutalien3,images/t.png,2,practice,true,1,common,1,2020-06-19T15:54:27Z,sub72
two-step-fixation,81,440009,0.0-61.0-2.6,FALSE,TRUE,TRUE,FALSE,"""event"",""trial"",""time""
""fullscreenenter"",""5"",""19344""
","
","
","""event"",""trial"",""time""
""fullscreenenter"",""5"",""19344""
","
",NA,images/earth.jpg,NA,NA,NA,NA,NA,NA,NA,NA,NA,NA,NA,NA,NA,fixation,NA,NA,NA,NA,NA,NA,sub72
d3-animate-choice,82,442457,0.0-61.0-0.7,FALSE,TRUE,TRUE,FALSE,"""event"",""trial"",""time""
""fullscreenenter"",""5"",""19344""
","
","
","""event"",""trial"",""time""
""fullscreenenter"",""5"",""19344""
","
",432.8100000275299,NA,49,NA,NA,3000,1,NA,NA,images/earth.jpg,images/tutrocket1,images/tutrocket2,null,images/tutrocket2,NA,1,practice,null,1,NA,NA,NA,sub72
d3-animate-choice,83,445399,0.0-61.0-1.7,FALSE,TRUE,TRUE,FALSE,"""event"",""trial"",""time""
""fullscreenenter"",""5"",""19344""
","
","
","""event"",""trial"",""time""
""fullscreenenter"",""5"",""19344""
","
",934.514999971725,NA,49,NA,NA,3000,1,NA,NA,images/tutgreenplanet.jpg,images/tutalien2,images/tutalien1,images/tutrocket2,images/tutalien1,images/nothing.png,2,practice,false,1,rare,0,2020-06-19T15:54:33Z,sub72
two-step-fixation,84,446415,0.0-61.0-2.7,FALSE,TRUE,TRUE,FALSE,"""event"",""trial"",""time""
""fullscreenenter"",""5"",""19344""
","
","
","""event"",""trial"",""time""
""fullscreenenter"",""5"",""19344""
","
",NA,images/earth.jpg,NA,NA,NA,NA,NA,NA,NA,NA,NA,NA,NA,NA,NA,fixation,NA,NA,NA,NA,NA,NA,sub72
d3-animate-choice,85,448939,0.0-61.0-0.8,FALSE,TRUE,TRUE,FALSE,"""event"",""trial"",""time""
""fullscreenenter"",""5"",""19344""
","
","
","""event"",""trial"",""time""
""fullscreenenter"",""5"",""19344""
","
",515.4150000307709,NA,49,NA,NA,3000,1,NA,NA,images/earth.jpg,images/tutrocket1,images/tutrocket2,null,images/tutrocket2,NA,1,practice,null,1,NA,NA,NA,sub72
d3-animate-choice,86,451512,0.0-61.0-1.8,FALSE,TRUE,TRUE,FALSE,"""event"",""trial"",""time""
""fullscreenenter"",""5"",""19344""
","
","
","""event"",""trial"",""time""
""fullscreenenter"",""5"",""19344""
","
",561.0600000945851,NA,49,NA,NA,3000,1,NA,NA,images/tutyellowplanet.jpg,images/tutalien4,images/tutalien3,images/tutrocket2,images/tutalien3,images/t.png,2,practice,true,1,common,1,2020-06-19T15:54:39Z,sub72
two-step-fixation,87,452529,0.0-61.0-2.8,FALSE,TRUE,TRUE,FALSE,"""event"",""trial"",""time""
""fullscreenenter"",""5"",""19344""
","
","
","""event"",""trial"",""time""
""fullscreenenter"",""5"",""19344""
","
",NA,images/earth.jpg,NA,NA,NA,NA,NA,NA,NA,NA,NA,NA,NA,NA,NA,fixation,NA,NA,NA,NA,NA,NA,sub72
d3-animate-choice,88,454982,0.0-61.0-0.9,FALSE,TRUE,TRUE,FALSE,"""event"",""trial"",""time""
""fullscreenenter"",""5"",""19344""
","
","
","""event"",""trial"",""time""
""fullscreenenter"",""5"",""19344""
","
",439.69999998807907,NA,49,NA,NA,3000,1,NA,NA,images/earth.jpg,images/tutrocket1,images/tutrocket2,null,images/tutrocket2,NA,1,practice,null,1,NA,NA,NA,sub72
d3-animate-choice,89,458191,0.0-61.0-1.9,FALSE,TRUE,TRUE,FALSE,"""event"",""trial"",""time""
""fullscreenenter"",""5"",""19344""
","
","
","""event"",""trial"",""time""
""fullscreenenter"",""5"",""19344""
","
",1197.054999996908,NA,48,NA,NA,3000,1,NA,NA,images/tutgreenplanet.jpg,images/tutalien2,images/tutalien1,images/tutrocket2,images/tutalien2,images/nothing.png,2,practice,false,2,rare,0,2020-06-19T15:54:46Z,sub72
two-step-fixation,90,459203,0.0-61.0-2.9,FALSE,TRUE,TRUE,FALSE,"""event"",""trial"",""time""
""fullscreenenter"",""5"",""19344""
","
","
","""event"",""trial"",""time""
""fullscreenenter"",""5"",""19344""
","
",NA,images/earth.jpg,NA,NA,NA,NA,NA,NA,NA,NA,NA,NA,NA,NA,NA,fixation,NA,NA,NA,NA,NA,NA,sub72
d3-animate-choice,91,461679,0.0-61.0-0.10,FALSE,TRUE,TRUE,FALSE,"""event"",""trial"",""time""
""fullscreenenter"",""5"",""19344""
","
","
","""event"",""trial"",""time""
""fullscreenenter"",""5"",""19344""
","
",466.2649999372661,NA,48,NA,NA,3000,1,NA,NA,images/earth.jpg,images/tutrocket1,images/tutrocket2,null,images/tutrocket1,NA,1,practice,null,2,NA,NA,NA,sub72
d3-animate-choice,92,464361,0.0-61.0-1.10,FALSE,TRUE,TRUE,FALSE,"""event"",""trial"",""time""
""fullscreenenter"",""5"",""19344""
","
","
","""event"",""trial"",""time""
""fullscreenenter"",""5"",""19344""
","
",671.2250000564381,NA,49,NA,NA,3000,1,NA,NA,images/tutyellowplanet.jpg,images/tutalien4,images/tutalien3,images/tutrocket1,images/tutalien3,images/t.png,2,practice,false,1,rare,1,2020-06-19T15:54:52Z,sub72
two-step-fixation,93,465369,0.0-61.0-2.10,FALSE,TRUE,TRUE,FALSE,"""event"",""trial"",""time""
""fullscreenenter"",""5"",""19344""
","
","
","""event"",""trial"",""time""
""fullscreenenter"",""5"",""19344""
","
",NA,images/earth.jpg,NA,NA,NA,NA,NA,NA,NA,NA,NA,NA,NA,NA,NA,fixation,NA,NA,NA,NA,NA,NA,sub72
d3-animate-choice,94,467853,0.0-61.0-0.11,FALSE,TRUE,TRUE,FALSE,"""event"",""trial"",""time""
""fullscreenenter"",""5"",""19344""
","
","
","""event"",""trial"",""time""
""fullscreenenter"",""5"",""19344""
","
",473.8149999175221,NA,48,NA,NA,3000,1,NA,NA,images/earth.jpg,images/tutrocket1,images/tutrocket2,null,images/tutrocket1,NA,1,practice,null,2,NA,NA,NA,sub72
d3-animate-choice,95,470474,0.0-61.0-1.11,FALSE,TRUE,TRUE,FALSE,"""event"",""trial"",""time""
""fullscreenenter"",""5"",""19344""
","
","
","""event"",""trial"",""time""
""fullscreenenter"",""5"",""19344""
","
",602.430000086315,NA,49,NA,NA,3000,1,NA,NA,images/tutyellowplanet.jpg,images/tutalien4,images/tutalien3,images/tutrocket1,images/tutalien3,images/nothing.png,2,practice,false,1,rare,0,2020-06-19T15:54:58Z,sub72
two-step-fixation,96,471488,0.0-61.0-2.11,FALSE,TRUE,TRUE,FALSE,"""event"",""trial"",""time""
""fullscreenenter"",""5"",""19344""
","
","
","""event"",""trial"",""time""
""fullscreenenter"",""5"",""19344""
","
",NA,images/earth.jpg,NA,NA,NA,NA,NA,NA,NA,NA,NA,NA,NA,NA,NA,fixation,NA,NA,NA,NA,NA,NA,sub72
d3-animate-choice,97,474055,0.0-61.0-0.12,FALSE,TRUE,TRUE,FALSE,"""event"",""trial"",""time""
""fullscreenenter"",""5"",""19344""
","
","
","""event"",""trial"",""time""
""fullscreenenter"",""5"",""19344""
","
",556.2749999808148,NA,48,NA,NA,3000,1,NA,NA,images/earth.jpg,images/tutrocket1,images/tutrocket2,null,images/tutrocket1,NA,1,practice,null,2,NA,NA,NA,sub72
d3-animate-choice,98,477177,0.0-61.0-1.12,FALSE,TRUE,TRUE,FALSE,"""event"",""trial"",""time""
""fullscreenenter"",""5"",""19344""
","
","
","""event"",""trial"",""time""
""fullscreenenter"",""5"",""19344""
","
",1112.169999978505,NA,48,NA,NA,3000,1,NA,NA,images/tutgreenplanet.jpg,images/tutalien2,images/tutalien1,images/tutrocket1,images/tutalien2,images/nothing.png,2,practice,true,2,common,0,2020-06-19T15:55:05Z,sub72
two-step-fixation,99,478188,0.0-61.0-2.12,FALSE,TRUE,TRUE,FALSE,"""event"",""trial"",""time""
""fullscreenenter"",""5"",""19344""
","
","
","""event"",""trial"",""time""
""fullscreenenter"",""5"",""19344""
","
",NA,images/earth.jpg,NA,NA,NA,NA,NA,NA,NA,NA,NA,NA,NA,NA,NA,fixation,NA,NA,NA,NA,NA,NA,sub72
d3-animate-choice,100,480733,0.0-61.0-0.13,FALSE,TRUE,TRUE,FALSE,"""event"",""trial"",""time""
""fullscreenenter"",""5"",""19344""
","
","
","""event"",""trial"",""time""
""fullscreenenter"",""5"",""19344""
","
",536.9100000243634,NA,48,NA,NA,3000,1,NA,NA,images/earth.jpg,images/tutrocket1,images/tutrocket2,null,images/tutrocket1,NA,1,practice,null,2,NA,NA,NA,sub72
d3-animate-choice,101,483856,0.0-61.0-1.13,FALSE,TRUE,TRUE,FALSE,"""event"",""trial"",""time""
""fullscreenenter"",""5"",""19344""
","
","
","""event"",""trial"",""time""
""fullscreenenter"",""5"",""19344""
","
",1113.4600000223145,NA,48,NA,NA,3000,1,NA,NA,images/tutgreenplanet.jpg,images/tutalien2,images/tutalien1,images/tutrocket1,images/tutalien2,images/nothing.png,2,practice,true,2,common,0,2020-06-19T15:55:11Z,sub72
two-step-fixation,102,484863,0.0-61.0-2.13,FALSE,TRUE,TRUE,FALSE,"""event"",""trial"",""time""
""fullscreenenter"",""5"",""19344""
","
","
","""event"",""trial"",""time""
""fullscreenenter"",""5"",""19344""
","
",NA,images/earth.jpg,NA,NA,NA,NA,NA,NA,NA,NA,NA,NA,NA,NA,NA,fixation,NA,NA,NA,NA,NA,NA,sub72
d3-animate-choice,103,487436,0.0-61.0-0.14,FALSE,TRUE,TRUE,FALSE,"""event"",""trial"",""time""
""fullscreenenter"",""5"",""19344""
","
","
","""event"",""trial"",""time""
""fullscreenenter"",""5"",""19344""
","
",563.2399999303743,NA,49,NA,NA,3000,1,NA,NA,images/earth.jpg,images/tutrocket1,images/tutrocket2,null,images/tutrocket2,NA,1,practice,null,1,NA,NA,NA,sub72
d3-animate-choice,104,490134,0.0-61.0-1.14,FALSE,TRUE,TRUE,FALSE,"""event"",""trial"",""time""
""fullscreenenter"",""5"",""19344""
","
","
","""event"",""trial"",""time""
""fullscreenenter"",""5"",""19344""
","
",690.5900000128895,NA,49,NA,NA,3000,1,NA,NA,images/tutyellowplanet.jpg,images/tutalien4,images/tutalien3,images/tutrocket2,images/tutalien3,images/nothing.png,2,practice,true,1,common,0,2020-06-19T15:55:18Z,sub72
two-step-fixation,105,491142,0.0-61.0-2.14,FALSE,TRUE,TRUE,FALSE,"""event"",""trial"",""time""
""fullscreenenter"",""5"",""19344""
","
","
","""event"",""trial"",""time""
""fullscreenenter"",""5"",""19344""
","
",NA,images/earth.jpg,NA,NA,NA,NA,NA,NA,NA,NA,NA,NA,NA,NA,NA,fixation,NA,NA,NA,NA,NA,NA,sub72
d3-animate-choice,106,493708,0.0-61.0-0.15,FALSE,TRUE,TRUE,FALSE,"""event"",""trial"",""time""
""fullscreenenter"",""5"",""19344""
","
","
","""event"",""trial"",""time""
""fullscreenenter"",""5"",""19344""
","
",552.9549999628216,NA,49,NA,NA,3000,1,NA,NA,images/earth.jpg,images/tutrocket1,images/tutrocket2,null,images/tutrocket2,NA,1,practice,null,1,NA,NA,NA,sub72
d3-animate-choice,107,496358,0.0-61.0-1.15,FALSE,TRUE,TRUE,FALSE,"""event"",""trial"",""time""
""fullscreenenter"",""5"",""19344""
","
","
","""event"",""trial"",""time""
""fullscreenenter"",""5"",""19344""
","
",635.1049999939278,NA,49,NA,NA,3000,1,NA,NA,images/tutyellowplanet.jpg,images/tutalien4,images/tutalien3,images/tutrocket2,images/tutalien3,images/nothing.png,2,practice,true,1,common,0,2020-06-19T15:55:24Z,sub72
two-step-fixation,108,497364,0.0-61.0-2.15,FALSE,TRUE,TRUE,FALSE,"""event"",""trial"",""time""
""fullscreenenter"",""5"",""19344""
","
","
","""event"",""trial"",""time""
""fullscreenenter"",""5"",""19344""
","
",NA,images/earth.jpg,NA,NA,NA,NA,NA,NA,NA,NA,NA,NA,NA,NA,NA,fixation,NA,NA,NA,NA,NA,NA,sub72
d3-animate-choice,109,499754,0.0-61.0-0.16,FALSE,TRUE,TRUE,FALSE,"""event"",""trial"",""time""
""fullscreenenter"",""5"",""19344""
","
","
","""event"",""trial"",""time""
""fullscreenenter"",""5"",""19344""
","
",382.98499991651624,NA,49,NA,NA,3000,1,NA,NA,images/earth.jpg,images/tutrocket1,images/tutrocket2,null,images/tutrocket2,NA,1,practice,null,1,NA,NA,NA,sub72
d3-animate-choice,110,502445,0.0-61.0-1.16,FALSE,TRUE,TRUE,FALSE,"""event"",""trial"",""time""
""fullscreenenter"",""5"",""19344""
","
","
","""event"",""trial"",""time""
""fullscreenenter"",""5"",""19344""
","
",681.6050000488758,NA,49,NA,NA,3000,1,NA,NA,images/tutgreenplanet.jpg,images/tutalien2,images/tutalien1,images/tutrocket2,images/tutalien1,images/nothing.png,2,practice,false,1,rare,0,2020-06-19T15:55:30Z,sub72
two-step-fixation,111,503452,0.0-61.0-2.16,FALSE,TRUE,TRUE,FALSE,"""event"",""trial"",""time""
""fullscreenenter"",""5"",""19344""
","
","
","""event"",""trial"",""time""
""fullscreenenter"",""5"",""19344""
","
",NA,images/earth.jpg,NA,NA,NA,NA,NA,NA,NA,NA,NA,NA,NA,NA,NA,fixation,NA,NA,NA,NA,NA,NA,sub72
d3-animate-choice,112,506418,0.0-61.0-0.17,FALSE,TRUE,TRUE,FALSE,"""event"",""trial"",""time""
""fullscreenenter"",""5"",""19344""
","
","
","""event"",""trial"",""time""
""fullscreenenter"",""5"",""19344""
","
",957.9750000266358,NA,48,NA,NA,3000,1,NA,NA,images/earth.jpg,images/tutrocket1,images/tutrocket2,null,images/tutrocket1,NA,1,practice,null,2,NA,NA,NA,sub72
d3-animate-choice,113,509972,0.0-61.0-1.17,FALSE,TRUE,TRUE,FALSE,"""event"",""trial"",""time""
""fullscreenenter"",""5"",""19344""
","
","
","""event"",""trial"",""time""
""fullscreenenter"",""5"",""19344""
","
",1536.6599999833852,NA,49,NA,NA,3000,1,NA,NA,images/tutgreenplanet.jpg,images/tutalien2,images/tutalien1,images/tutrocket1,images/tutalien1,images/nothing.png,2,practice,true,1,common,0,2020-06-19T15:55:38Z,sub72
two-step-fixation,114,510980,0.0-61.0-2.17,FALSE,TRUE,TRUE,FALSE,"""event"",""trial"",""time""
""fullscreenenter"",""5"",""19344""
","
","
","""event"",""trial"",""time""
""fullscreenenter"",""5"",""19344""
","
",NA,images/earth.jpg,NA,NA,NA,NA,NA,NA,NA,NA,NA,NA,NA,NA,NA,fixation,NA,NA,NA,NA,NA,NA,sub72
d3-animate-choice,115,513838,0.0-61.0-0.18,FALSE,TRUE,TRUE,FALSE,"""event"",""trial"",""time""
""fullscreenenter"",""5"",""19344""
","
","
","""event"",""trial"",""time""
""fullscreenenter"",""5"",""19344""
","
",852.9949999647215,NA,49,NA,NA,3000,1,NA,NA,images/earth.jpg,images/tutrocket1,images/tutrocket2,null,images/tutrocket2,NA,1,practice,null,1,NA,NA,NA,sub72
d3-animate-choice,116,516785,0.0-61.0-1.18,FALSE,TRUE,TRUE,FALSE,"""event"",""trial"",""time""
""fullscreenenter"",""5"",""19344""
","
","
","""event"",""trial"",""time""
""fullscreenenter"",""5"",""19344""
","
",931.1450000386685,NA,48,NA,NA,3000,1,NA,NA,images/tutyellowplanet.jpg,images/tutalien4,images/tutalien3,images/tutrocket2,images/tutalien4,images/nothing.png,2,practice,true,2,common,0,2020-06-19T15:55:44Z,sub72
two-step-fixation,117,517789,0.0-61.0-2.18,FALSE,TRUE,TRUE,FALSE,"""event"",""trial"",""time""
""fullscreenenter"",""5"",""19344""
","
","
","""event"",""trial"",""time""
""fullscreenenter"",""5"",""19344""
","
",NA,images/earth.jpg,NA,NA,NA,NA,NA,NA,NA,NA,NA,NA,NA,NA,NA,fixation,NA,NA,NA,NA,NA,NA,sub72
d3-animate-choice,118,520250,0.0-61.0-0.19,FALSE,TRUE,TRUE,FALSE,"""event"",""trial"",""time""
""fullscreenenter"",""5"",""19344""
","
","
","""event"",""trial"",""time""
""fullscreenenter"",""5"",""19344""
","
",451.37000002432615,NA,48,NA,NA,3000,1,NA,NA,images/earth.jpg,images/tutrocket1,images/tutrocket2,null,images/tutrocket1,NA,1,practice,null,2,NA,NA,NA,sub72
d3-animate-choice,119,523350,0.0-61.0-1.19,FALSE,TRUE,TRUE,FALSE,"""event"",""trial"",""time""
""fullscreenenter"",""5"",""19344""
","
","
","""event"",""trial"",""time""
""fullscreenenter"",""5"",""19344""
","
",1094.7100000921637,NA,49,NA,NA,3000,1,NA,NA,images/tutgreenplanet.jpg,images/tutalien2,images/tutalien1,images/tutrocket1,images/tutalien1,images/t.png,2,practice,true,1,common,1,2020-06-19T15:55:51Z,sub72
two-step-fixation,120,524355,0.0-61.0-2.19,FALSE,TRUE,TRUE,FALSE,"""event"",""trial"",""time""
""fullscreenenter"",""5"",""19344""
","
","
","""event"",""trial"",""time""
""fullscreenenter"",""5"",""19344""
","
",NA,images/earth.jpg,NA,NA,NA,NA,NA,NA,NA,NA,NA,NA,NA,NA,NA,fixation,NA,NA,NA,NA,NA,NA,sub72
d3-instructions,121,531638,0.0-62.0,FALSE,TRUE,TRUE,FALSE,"""event"",""trial"",""time""
""fullscreenenter"",""5"",""19344""
","
","
","""event"",""trial"",""time""
""fullscreenenter"",""5"",""19344""
","
",NA,NA,NA,NA,NA,NA,NA,NA,NA,NA,NA,NA,NA,NA,NA,NA,NA,NA,NA,NA,NA,NA,sub72
audio-keyboard-response,122,536225,0.0-63.0,FALSE,TRUE,TRUE,FALSE,"""event"",""trial"",""time""
""fullscreenenter"",""5"",""19344""
","
","
","""event"",""trial"",""time""
""fullscreenenter"",""5"",""19344""
","
",4579,audio/instructions/treasure_feedback.wav,32,NA,NA,NA,NA,NA,NA,NA,NA,NA,NA,NA,NA,NA,NA,NA,NA,NA,NA,NA,sub72
d3-instructions,123,557856,0.0-64.0,FALSE,TRUE,TRUE,FALSE,"""event"",""trial"",""time""
""fullscreenenter"",""5"",""19344""
","
","
","""event"",""trial"",""time""
""fullscreenenter"",""5"",""19344""
","
",NA,NA,NA,NA,NA,NA,NA,NA,NA,NA,NA,NA,NA,NA,NA,NA,NA,NA,NA,NA,NA,NA,sub72
d3-instructions,124,571831,0.0-65.0,FALSE,TRUE,TRUE,FALSE,"""event"",""trial"",""time""
""fullscreenenter"",""5"",""19344""
","
","
","""event"",""trial"",""time""
""fullscreenenter"",""5"",""19344""
","
",NA,NA,NA,NA,NA,NA,NA,NA,NA,NA,NA,NA,NA,NA,NA,NA,NA,NA,NA,NA,NA,NA,sub72
d3-instructions,125,596834,0.0-66.0,FALSE,TRUE,TRUE,FALSE,"""event"",""trial"",""time""
""fullscreenenter"",""5"",""19344""
","
","
","""event"",""trial"",""time""
""fullscreenenter"",""5"",""19344""
","
",NA,NA,NA,NA,NA,NA,NA,NA,NA,NA,NA,NA,NA,NA,NA,NA,NA,NA,NA,NA,NA,NA,sub72
d3-instructions,126,613290,0.0-67.0,FALSE,TRUE,TRUE,FALSE,"""event"",""trial"",""time""
""fullscreenenter"",""5"",""19344""
","
","
","""event"",""trial"",""time""
""fullscreenenter"",""5"",""19344""
","
",NA,NA,NA,NA,NA,NA,NA,NA,NA,NA,NA,NA,NA,NA,NA,NA,NA,NA,NA,NA,NA,NA,sub72
d3-instructions,127,622088,0.0-68.0,FALSE,TRUE,TRUE,FALSE,"""event"",""trial"",""time""
""fullscreenenter"",""5"",""19344""
","
","
","""event"",""trial"",""time""
""fullscreenenter"",""5"",""19344""
","
",NA,NA,NA,NA,NA,NA,NA,NA,NA,NA,NA,NA,NA,NA,NA,NA,NA,NA,NA,NA,NA,NA,sub72
instructions-quiz,128,624988,0.0-69.0,FALSE,TRUE,TRUE,FALSE,"""event"",""trial"",""time""
""fullscreenenter"",""5"",""19344""
","
","
","""event"",""trial"",""time""
""fullscreenenter"",""5"",""19344""
","
",2896.1600000038743,audio/quiz/Q1_Prompt.wav,NA,1,NA,NA,NA,NA,NA,NA,NA,NA,NA,NA,NA,NA,NA,NA,NA,NA,NA,NA,sub72
audio-keyboard-response,129,634156,0.0-70.0,FALSE,TRUE,TRUE,FALSE,"""event"",""trial"",""time""
""fullscreenenter"",""5"",""19344""
","
","
","""event"",""trial"",""time""
""fullscreenenter"",""5"",""19344""
","
",null,audio/quiz/Q1_Correct.wav,null,NA,NA,NA,NA,NA,NA,NA,NA,NA,NA,NA,NA,NA,NA,NA,NA,NA,NA,NA,sub72
instructions-quiz,130,639001,0.0-71.0,FALSE,TRUE,TRUE,FALSE,"""event"",""trial"",""time""
""fullscreenenter"",""5"",""19344""
","
","
","""event"",""trial"",""time""
""fullscreenenter"",""5"",""19344""
","
",4842.075000051409,audio/quiz/Q2_Prompt.wav,NA,0,NA,NA,NA,NA,NA,NA,NA,NA,NA,NA,NA,NA,NA,NA,NA,NA,NA,NA,sub72
audio-keyboard-response,131,644351,0.0-72.0,FALSE,TRUE,TRUE,FALSE,"""event"",""trial"",""time""
""fullscreenenter"",""5"",""19344""
","
","
","""event"",""trial"",""time""
""fullscreenenter"",""5"",""19344""
","
",5341,audio/quiz/Q2_Correct.wav,32,NA,NA,NA,NA,NA,NA,NA,NA,NA,NA,NA,NA,NA,NA,NA,NA,NA,NA,NA,sub72
instructions-quiz,132,648181,0.0-73.0,FALSE,TRUE,TRUE,FALSE,"""event"",""trial"",""time""
""fullscreenenter"",""5"",""19344""
","
","
","""event"",""trial"",""time""
""fullscreenenter"",""5"",""19344""
","
",3826.454999973066,audio/quiz/Q3_Prompt.wav,NA,1,NA,NA,NA,NA,NA,NA,NA,NA,NA,NA,NA,NA,NA,NA,NA,NA,NA,NA,sub72
audio-keyboard-response,133,652251,0.0-74.0,FALSE,TRUE,TRUE,FALSE,"""event"",""trial"",""time""
""fullscreenenter"",""5"",""19344""
","
","
","""event"",""trial"",""time""
""fullscreenenter"",""5"",""19344""
","
",4059,audio/quiz/Q3_Correct.wav,32,NA,NA,NA,NA,NA,NA,NA,NA,NA,NA,NA,NA,NA,NA,NA,NA,NA,NA,NA,sub72
d3-instructions,134,666089,0.0-75.0,FALSE,TRUE,TRUE,FALSE,"""event"",""trial"",""time""
""fullscreenenter"",""5"",""19344""
","
","
","""event"",""trial"",""time""
""fullscreenenter"",""5"",""19344""
","
",NA,NA,NA,NA,NA,NA,NA,NA,NA,NA,NA,NA,NA,NA,NA,NA,NA,NA,NA,NA,NA,NA,sub72
d3-animate-choice,135,670102,0.0-76.0-0.0,FALSE,TRUE,TRUE,FALSE,"""event"",""trial"",""time""
""fullscreenenter"",""5"",""19344""
","
","
","""event"",""trial"",""time""
""fullscreenenter"",""5"",""19344""
","
",2242.77000001166,NA,49,NA,NA,3000,1,NA,NA,images/earth.jpg,images/rocket1,images/rocket2,null,images/rocket2,NA,1,real,null,1,NA,NA,NA,sub72
d3-animate-choice,136,672803,0.0-76.0-1.0,FALSE,TRUE,TRUE,FALSE,"""event"",""trial"",""time""
""fullscreenenter"",""5"",""19344""
","
","
","""event"",""trial"",""time""
""fullscreenenter"",""5"",""19344""
","
",682.8800000948831,NA,49,NA,NA,3000,1,NA,NA,images/redplanet1.jpg,images/alien2,images/alien1,images/rocket2,images/alien1,images/nothing.png,2,real,false,1,rare,0,2020-06-19T15:58:20Z,sub72
two-step-fixation,137,673818,0.0-76.0-2.0,FALSE,TRUE,TRUE,FALSE,"""event"",""trial"",""time""
""fullscreenenter"",""5"",""19344""
","
","
","""event"",""trial"",""time""
""fullscreenenter"",""5"",""19344""
","
",NA,images/earth.jpg,NA,NA,NA,NA,NA,NA,NA,NA,NA,NA,NA,NA,NA,fixation,NA,NA,NA,NA,NA,NA,sub72
d3-animate-choice,138,676213,0.0-76.0-0.1,FALSE,TRUE,TRUE,FALSE,"""event"",""trial"",""time""
""fullscreenenter"",""5"",""19344""
","
","
","""event"",""trial"",""time""
""fullscreenenter"",""5"",""19344""
","
",385.85500000044703,NA,49,NA,NA,3000,1,NA,NA,images/earth.jpg,images/rocket1,images/rocket2,null,images/rocket2,NA,1,real,null,1,NA,NA,NA,sub72
d3-animate-choice,139,678682,0.0-76.0-1.1,FALSE,TRUE,TRUE,FALSE,"""event"",""trial"",""time""
""fullscreenenter"",""5"",""19344""
","
","
","""event"",""trial"",""time""
""fullscreenenter"",""5"",""19344""
","
",460.50500008277595,NA,48,NA,NA,3000,1,NA,NA,images/redplanet1.jpg,images/alien2,images/alien1,images/rocket2,images/alien2,images/nothing.png,2,real,false,2,rare,0,2020-06-19T15:58:26Z,sub72
two-step-fixation,140,679693,0.0-76.0-2.1,FALSE,TRUE,TRUE,FALSE,"""event"",""trial"",""time""
""fullscreenenter"",""5"",""19344""
","
","
","""event"",""trial"",""time""
""fullscreenenter"",""5"",""19344""
","
",NA,images/earth.jpg,NA,NA,NA,NA,NA,NA,NA,NA,NA,NA,NA,NA,NA,fixation,NA,NA,NA,NA,NA,NA,sub72
d3-animate-choice,141,682093,0.0-76.0-0.2,FALSE,TRUE,TRUE,FALSE,"""event"",""trial"",""time""
""fullscreenenter"",""5"",""19344""
","
","
","""event"",""trial"",""time""
""fullscreenenter"",""5"",""19344""
","
",384.67500009573996,NA,49,NA,NA,3000,1,NA,NA,images/earth.jpg,images/rocket1,images/rocket2,null,images/rocket2,NA,1,real,null,1,NA,NA,NA,sub72
d3-animate-choice,142,684974,0.0-76.0-1.2,FALSE,TRUE,TRUE,FALSE,"""event"",""trial"",""time""
""fullscreenenter"",""5"",""19344""
","
","
","""event"",""trial"",""time""
""fullscreenenter"",""5"",""19344""
","
",871.9549999805167,NA,49,NA,NA,3000,1,NA,NA,images/purpleplanet.jpg,images/alien4,images/alien3,images/rocket2,images/alien3,images/t.png,2,real,true,1,common,1,2020-06-19T15:58:33Z,sub72
two-step-fixation,143,685984,0.0-76.0-2.2,FALSE,TRUE,TRUE,FALSE,"""event"",""trial"",""time""
""fullscreenenter"",""5"",""19344""
","
","
","""event"",""trial"",""time""
""fullscreenenter"",""5"",""19344""
","
",NA,images/earth.jpg,NA,NA,NA,NA,NA,NA,NA,NA,NA,NA,NA,NA,NA,fixation,NA,NA,NA,NA,NA,NA,sub72
d3-animate-choice,144,689272,0.0-76.0-0.3,FALSE,TRUE,TRUE,FALSE,"""event"",""trial"",""time""
""fullscreenenter"",""5"",""19344""
","
","
","""event"",""trial"",""time""
""fullscreenenter"",""5"",""19344""
","
",1272.274999995716,NA,48,NA,NA,3000,1,NA,NA,images/earth.jpg,images/rocket1,images/rocket2,null,images/rocket1,NA,1,real,null,2,NA,NA,NA,sub72
d3-animate-choice,145,692172,0.0-76.0-1.3,FALSE,TRUE,TRUE,FALSE,"""event"",""trial"",""time""
""fullscreenenter"",""5"",""19344""
","
","
","""event"",""trial"",""time""
""fullscreenenter"",""5"",""19344""
","
",884.5200000796467,NA,49,NA,NA,3000,1,NA,NA,images/purpleplanet.jpg,images/alien4,images/alien3,images/rocket1,images/alien3,images/nothing.png,2,real,false,1,rare,0,2020-06-19T15:58:40Z,sub72
two-step-fixation,146,693195,0.0-76.0-2.3,FALSE,TRUE,TRUE,FALSE,"""event"",""trial"",""time""
""fullscreenenter"",""5"",""19344""
","
","
","""event"",""trial"",""time""
""fullscreenenter"",""5"",""19344""
","
",NA,images/earth.jpg,NA,NA,NA,NA,NA,NA,NA,NA,NA,NA,NA,NA,NA,fixation,NA,NA,NA,NA,NA,NA,sub72
d3-animate-choice,147,696002,0.0-76.0-0.4,FALSE,TRUE,TRUE,FALSE,"""event"",""trial"",""time""
""fullscreenenter"",""5"",""19344""
","
","
","""event"",""trial"",""time""
""fullscreenenter"",""5"",""19344""
","
",801.8050000537187,NA,48,NA,NA,3000,1,NA,NA,images/earth.jpg,images/rocket1,images/rocket2,null,images/rocket1,NA,1,real,null,2,NA,NA,NA,sub72
d3-animate-choice,148,698700,0.0-76.0-1.4,FALSE,TRUE,TRUE,FALSE,"""event"",""trial"",""time""
""fullscreenenter"",""5"",""19344""
","
","
","""event"",""trial"",""time""
""fullscreenenter"",""5"",""19344""
","
",679.950000019744,NA,48,NA,NA,3000,1,NA,NA,images/purpleplanet.jpg,images/alien4,images/alien3,images/rocket1,images/alien4,images/nothing.png,2,real,false,2,rare,0,2020-06-19T15:58:46Z,sub72
two-step-fixation,149,699709,0.0-76.0-2.4,FALSE,TRUE,TRUE,FALSE,"""event"",""trial"",""time""
""fullscreenenter"",""5"",""19344""
","
","
","""event"",""trial"",""time""
""fullscreenenter"",""5"",""19344""
","
",NA,images/earth.jpg,NA,NA,NA,NA,NA,NA,NA,NA,NA,NA,NA,NA,NA,fixation,NA,NA,NA,NA,NA,NA,sub72
d3-animate-choice,150,702348,0.0-76.0-0.5,FALSE,TRUE,TRUE,FALSE,"""event"",""trial"",""time""
""fullscreenenter"",""5"",""19344""
","
","
","""event"",""trial"",""time""
""fullscreenenter"",""5"",""19344""
","
",634.2449999647215,NA,48,NA,NA,3000,1,NA,NA,images/earth.jpg,images/rocket1,images/rocket2,null,images/rocket1,NA,1,real,null,2,NA,NA,NA,sub72
d3-animate-choice,151,705705,0.0-76.0-1.5,FALSE,TRUE,TRUE,FALSE,"""event"",""trial"",""time""
""fullscreenenter"",""5"",""19344""
","
","
","""event"",""trial"",""time""
""fullscreenenter"",""5"",""19344""
","
",1347.8500000201166,NA,48,NA,NA,3000,1,NA,NA,images/redplanet1.jpg,images/alien2,images/alien1,images/rocket1,images/alien2,images/t.png,2,real,true,2,common,1,2020-06-19T15:58:53Z,sub72
two-step-fixation,152,706710,0.0-76.0-2.5,FALSE,TRUE,TRUE,FALSE,"""event"",""trial"",""time""
""fullscreenenter"",""5"",""19344""
","
","
","""event"",""trial"",""time""
""fullscreenenter"",""5"",""19344""
","
",NA,images/earth.jpg,NA,NA,NA,NA,NA,NA,NA,NA,NA,NA,NA,NA,NA,fixation,NA,NA,NA,NA,NA,NA,sub72
d3-animate-choice,153,709278,0.0-76.0-0.6,FALSE,TRUE,TRUE,FALSE,"""event"",""trial"",""time""
""fullscreenenter"",""5"",""19344""
","
","
","""event"",""trial"",""time""
""fullscreenenter"",""5"",""19344""
","
",563.5499999625608,NA,48,NA,NA,3000,1,NA,NA,images/earth.jpg,images/rocket1,images/rocket2,null,images/rocket1,NA,1,real,null,2,NA,NA,NA,sub72
d3-animate-choice,154,711908,0.0-76.0-1.6,FALSE,TRUE,TRUE,FALSE,"""event"",""trial"",""time""
""fullscreenenter"",""5"",""19344""
","
","
","""event"",""trial"",""time""
""fullscreenenter"",""5"",""19344""
","
",622.1349999541417,NA,48,NA,NA,3000,1,NA,NA,images/redplanet1.jpg,images/alien2,images/alien1,images/rocket1,images/alien2,images/t.png,2,real,true,2,common,1,2020-06-19T15:59:00Z,sub72
two-step-fixation,155,712913,0.0-76.0-2.6,FALSE,TRUE,TRUE,FALSE,"""event"",""trial"",""time""
""fullscreenenter"",""5"",""19344""
","
","
","""event"",""trial"",""time""
""fullscreenenter"",""5"",""19344""
","
",NA,images/earth.jpg,NA,NA,NA,NA,NA,NA,NA,NA,NA,NA,NA,NA,NA,fixation,NA,NA,NA,NA,NA,NA,sub72
d3-animate-choice,156,715298,0.0-76.0-0.7,FALSE,TRUE,TRUE,FALSE,"""event"",""trial"",""time""
""fullscreenenter"",""5"",""19344""
","
","
","""event"",""trial"",""time""
""fullscreenenter"",""5"",""19344""
","
",372.71999998483807,NA,48,NA,NA,3000,1,NA,NA,images/earth.jpg,images/rocket1,images/rocket2,null,images/rocket1,NA,1,real,null,2,NA,NA,NA,sub72
d3-animate-choice,157,717932,0.0-76.0-1.7,FALSE,TRUE,TRUE,FALSE,"""event"",""trial"",""time""
""fullscreenenter"",""5"",""19344""
","
","
","""event"",""trial"",""time""
""fullscreenenter"",""5"",""19344""
","
",626.3899999903515,NA,48,NA,NA,3000,1,NA,NA,images/redplanet1.jpg,images/alien2,images/alien1,images/rocket1,images/alien2,images/nothing.png,2,real,true,2,common,0,2020-06-19T15:59:06Z,sub72
two-step-fixation,158,718948,0.0-76.0-2.7,FALSE,TRUE,TRUE,FALSE,"""event"",""trial"",""time""
""fullscreenenter"",""5"",""19344""
","
","
","""event"",""trial"",""time""
""fullscreenenter"",""5"",""19344""
","
",NA,images/earth.jpg,NA,NA,NA,NA,NA,NA,NA,NA,NA,NA,NA,NA,NA,fixation,NA,NA,NA,NA,NA,NA,sub72
d3-animate-choice,159,721516,0.0-76.0-0.8,FALSE,TRUE,TRUE,FALSE,"""event"",""trial"",""time""
""fullscreenenter"",""5"",""19344""
","
","
","""event"",""trial"",""time""
""fullscreenenter"",""5"",""19344""
","
",552.2150000324473,NA,48,NA,NA,3000,1,NA,NA,images/earth.jpg,images/rocket1,images/rocket2,null,images/rocket1,NA,1,real,null,2,NA,NA,NA,sub72
d3-animate-choice,160,724043,0.0-76.0-1.8,FALSE,TRUE,TRUE,FALSE,"""event"",""trial"",""time""
""fullscreenenter"",""5"",""19344""
","
","
","""event"",""trial"",""time""
""fullscreenenter"",""5"",""19344""
","
",517.3049999866635,NA,48,NA,NA,3000,1,NA,NA,images/redplanet1.jpg,images/alien2,images/alien1,images/rocket1,images/alien2,images/t.png,2,real,true,2,common,1,2020-06-19T15:59:12Z,sub72
two-step-fixation,161,725050,0.0-76.0-2.8,FALSE,TRUE,TRUE,FALSE,"""event"",""trial"",""time""
""fullscreenenter"",""5"",""19344""
","
","
","""event"",""trial"",""time""
""fullscreenenter"",""5"",""19344""
","
",NA,images/earth.jpg,NA,NA,NA,NA,NA,NA,NA,NA,NA,NA,NA,NA,NA,fixation,NA,NA,NA,NA,NA,NA,sub72
d3-animate-choice,162,727450,0.0-76.0-0.9,FALSE,TRUE,TRUE,FALSE,"""event"",""trial"",""time""
""fullscreenenter"",""5"",""19344""
","
","
","""event"",""trial"",""time""
""fullscreenenter"",""5"",""19344""
","
",387.45499996002764,NA,48,NA,NA,3000,1,NA,NA,images/earth.jpg,images/rocket1,images/rocket2,null,images/rocket1,NA,1,real,null,2,NA,NA,NA,sub72
d3-animate-choice,163,730760,0.0-76.0-1.9,FALSE,TRUE,TRUE,FALSE,"""event"",""trial"",""time""
""fullscreenenter"",""5"",""19344""
","
","
","""event"",""trial"",""time""
""fullscreenenter"",""5"",""19344""
","
",1303.1450000125915,NA,48,NA,NA,3000,1,NA,NA,images/purpleplanet.jpg,images/alien4,images/alien3,images/rocket1,images/alien4,images/nothing.png,2,real,false,2,rare,0,2020-06-19T15:59:18Z,sub72
two-step-fixation,164,731771,0.0-76.0-2.9,FALSE,TRUE,TRUE,FALSE,"""event"",""trial"",""time""
""fullscreenenter"",""5"",""19344""
","
","
","""event"",""trial"",""time""
""fullscreenenter"",""5"",""19344""
","
",NA,images/earth.jpg,NA,NA,NA,NA,NA,NA,NA,NA,NA,NA,NA,NA,NA,fixation,NA,NA,NA,NA,NA,NA,sub72
d3-animate-choice,165,734154,0.0-76.0-0.10,FALSE,TRUE,TRUE,FALSE,"""event"",""trial"",""time""
""fullscreenenter"",""5"",""19344""
","
","
","""event"",""trial"",""time""
""fullscreenenter"",""5"",""19344""
","
",375.58000010903925,NA,48,NA,NA,3000,1,NA,NA,images/earth.jpg,images/rocket1,images/rocket2,null,images/rocket1,NA,1,real,null,2,NA,NA,NA,sub72
d3-animate-choice,166,736642,0.0-76.0-1.10,FALSE,TRUE,TRUE,FALSE,"""event"",""trial"",""time""
""fullscreenenter"",""5"",""19344""
","
","
","""event"",""trial"",""time""
""fullscreenenter"",""5"",""19344""
","
",482.4750000843778,NA,48,NA,NA,3000,1,NA,NA,images/redplanet1.jpg,images/alien2,images/alien1,images/rocket1,images/alien2,images/t.png,2,real,true,2,common,1,2020-06-19T15:59:24Z,sub72
two-step-fixation,167,737650,0.0-76.0-2.10,FALSE,TRUE,TRUE,FALSE,"""event"",""trial"",""time""
""fullscreenenter"",""5"",""19344""
","
","
","""event"",""trial"",""time""
""fullscreenenter"",""5"",""19344""
","
",NA,images/earth.jpg,NA,NA,NA,NA,NA,NA,NA,NA,NA,NA,NA,NA,NA,fixation,NA,NA,NA,NA,NA,NA,sub72
d3-animate-choice,168,740000,0.0-76.0-0.11,FALSE,TRUE,TRUE,FALSE,"""event"",""trial"",""time""
""fullscreenenter"",""5"",""19344""
","
","
","""event"",""trial"",""time""
""fullscreenenter"",""5"",""19344""
","
",341.8349999701604,NA,48,NA,NA,3000,1,NA,NA,images/earth.jpg,images/rocket1,images/rocket2,null,images/rocket1,NA,1,real,null,2,NA,NA,NA,sub72
d3-animate-choice,169,742555,0.0-76.0-1.11,FALSE,TRUE,TRUE,FALSE,"""event"",""trial"",""time""
""fullscreenenter"",""5"",""19344""
","
","
","""event"",""trial"",""time""
""fullscreenenter"",""5"",""19344""
","
",543.9100000075996,NA,48,NA,NA,3000,1,NA,NA,images/redplanet1.jpg,images/alien2,images/alien1,images/rocket1,images/alien2,images/t.png,2,real,true,2,common,1,2020-06-19T15:59:30Z,sub72
two-step-fixation,170,743562,0.0-76.0-2.11,FALSE,TRUE,TRUE,FALSE,"""event"",""trial"",""time""
""fullscreenenter"",""5"",""19344""
","
","
","""event"",""trial"",""time""
""fullscreenenter"",""5"",""19344""
","
",NA,images/earth.jpg,NA,NA,NA,NA,NA,NA,NA,NA,NA,NA,NA,NA,NA,fixation,NA,NA,NA,NA,NA,NA,sub72
d3-animate-choice,171,745853,0.0-76.0-0.12,FALSE,TRUE,TRUE,FALSE,"""event"",""trial"",""time""
""fullscreenenter"",""5"",""19344""
","
","
","""event"",""trial"",""time""
""fullscreenenter"",""5"",""19344""
","
",286.21999989263713,NA,48,NA,NA,3000,1,NA,NA,images/earth.jpg,images/rocket1,images/rocket2,null,images/rocket1,NA,1,real,null,2,NA,NA,NA,sub72
d3-animate-choice,172,748428,0.0-76.0-1.12,FALSE,TRUE,TRUE,FALSE,"""event"",""trial"",""time""
""fullscreenenter"",""5"",""19344""
","
","
","""event"",""trial"",""time""
""fullscreenenter"",""5"",""19344""
","
",569.9499999172986,NA,48,NA,NA,3000,1,NA,NA,images/redplanet1.jpg,images/alien2,images/alien1,images/rocket1,images/alien2,images/t.png,2,real,true,2,common,1,2020-06-19T15:59:36Z,sub72
two-step-fixation,173,749435,0.0-76.0-2.12,FALSE,TRUE,TRUE,FALSE,"""event"",""trial"",""time""
""fullscreenenter"",""5"",""19344""
","
","
","""event"",""trial"",""time""
""fullscreenenter"",""5"",""19344""
","
",NA,images/earth.jpg,NA,NA,NA,NA,NA,NA,NA,NA,NA,NA,NA,NA,NA,fixation,NA,NA,NA,NA,NA,NA,sub72
d3-animate-choice,174,751711,0.0-76.0-0.13,FALSE,TRUE,TRUE,FALSE,"""event"",""trial"",""time""
""fullscreenenter"",""5"",""19344""
","
","
","""event"",""trial"",""time""
""fullscreenenter"",""5"",""19344""
","
",268.804999999702,NA,48,NA,NA,3000,1,NA,NA,images/earth.jpg,images/rocket1,images/rocket2,null,images/rocket1,NA,1,real,null,2,NA,NA,NA,sub72
d3-animate-choice,175,755014,0.0-76.0-1.13,FALSE,TRUE,TRUE,FALSE,"""event"",""trial"",""time""
""fullscreenenter"",""5"",""19344""
","
","
","""event"",""trial"",""time""
""fullscreenenter"",""5"",""19344""
","
",1296.265000011772,NA,49,NA,NA,3000,1,NA,NA,images/purpleplanet.jpg,images/alien4,images/alien3,images/rocket1,images/alien3,images/nothing.png,2,real,false,1,rare,0,2020-06-19T15:59:43Z,sub72
two-step-fixation,176,756025,0.0-76.0-2.13,FALSE,TRUE,TRUE,FALSE,"""event"",""trial"",""time""
""fullscreenenter"",""5"",""19344""
","
","
","""event"",""trial"",""time""
""fullscreenenter"",""5"",""19344""
","
",NA,images/earth.jpg,NA,NA,NA,NA,NA,NA,NA,NA,NA,NA,NA,NA,NA,fixation,NA,NA,NA,NA,NA,NA,sub72
d3-animate-choice,177,758329,0.0-76.0-0.14,FALSE,TRUE,TRUE,FALSE,"""event"",""trial"",""time""
""fullscreenenter"",""5"",""19344""
","
","
","""event"",""trial"",""time""
""fullscreenenter"",""5"",""19344""
","
",296.9600000651553,NA,48,NA,NA,3000,1,NA,NA,images/earth.jpg,images/rocket1,images/rocket2,null,images/rocket1,NA,1,real,null,2,NA,NA,NA,sub72
d3-animate-choice,178,761639,0.0-76.0-1.14,FALSE,TRUE,TRUE,FALSE,"""event"",""trial"",""time""
""fullscreenenter"",""5"",""19344""
","
","
","""event"",""trial"",""time""
""fullscreenenter"",""5"",""19344""
","
",1298.285000026226,NA,49,NA,NA,3000,1,NA,NA,images/purpleplanet.jpg,images/alien4,images/alien3,images/rocket1,images/alien3,images/t.png,2,real,false,1,rare,1,2020-06-19T15:59:49Z,sub72
two-step-fixation,179,762654,0.0-76.0-2.14,FALSE,TRUE,TRUE,FALSE,"""event"",""trial"",""time""
""fullscreenenter"",""5"",""19344""
","
","
","""event"",""trial"",""time""
""fullscreenenter"",""5"",""19344""
","
",NA,images/earth.jpg,NA,NA,NA,NA,NA,NA,NA,NA,NA,NA,NA,NA,NA,fixation,NA,NA,NA,NA,NA,NA,sub72
d3-animate-choice,180,764991,0.0-76.0-0.15,FALSE,TRUE,TRUE,FALSE,"""event"",""trial"",""time""
""fullscreenenter"",""5"",""19344""
","
","
","""event"",""trial"",""time""
""fullscreenenter"",""5"",""19344""
","
",325.4850000375882,NA,48,NA,NA,3000,1,NA,NA,images/earth.jpg,images/rocket1,images/rocket2,null,images/rocket1,NA,1,real,null,2,NA,NA,NA,sub72
d3-animate-choice,181,767575,0.0-76.0-1.15,FALSE,TRUE,TRUE,FALSE,"""event"",""trial"",""time""
""fullscreenenter"",""5"",""19344""
","
","
","""event"",""trial"",""time""
""fullscreenenter"",""5"",""19344""
","
",576.0250000748783,NA,48,NA,NA,3000,1,NA,NA,images/redplanet1.jpg,images/alien2,images/alien1,images/rocket1,images/alien2,images/t.png,2,real,true,2,common,1,2020-06-19T15:59:55Z,sub72
two-step-fixation,182,768583,0.0-76.0-2.15,FALSE,TRUE,TRUE,FALSE,"""event"",""trial"",""time""
""fullscreenenter"",""5"",""19344""
","
","
","""event"",""trial"",""time""
""fullscreenenter"",""5"",""19344""
","
",NA,images/earth.jpg,NA,NA,NA,NA,NA,NA,NA,NA,NA,NA,NA,NA,NA,fixation,NA,NA,NA,NA,NA,NA,sub72
d3-animate-choice,183,770912,0.0-76.0-0.16,FALSE,TRUE,TRUE,FALSE,"""event"",""trial"",""time""
""fullscreenenter"",""5"",""19344""
","
","
","""event"",""trial"",""time""
""fullscreenenter"",""5"",""19344""
","
",312.75499996263534,NA,48,NA,NA,3000,1,NA,NA,images/earth.jpg,images/rocket1,images/rocket2,null,images/rocket1,NA,1,real,null,2,NA,NA,NA,sub72
d3-animate-choice,184,773424,0.0-76.0-1.16,FALSE,TRUE,TRUE,FALSE,"""event"",""trial"",""time""
""fullscreenenter"",""5"",""19344""
","
","
","""event"",""trial"",""time""
""fullscreenenter"",""5"",""19344""
","
",498.67499992251396,NA,48,NA,NA,3000,1,NA,NA,images/redplanet1.jpg,images/alien2,images/alien1,images/rocket1,images/alien2,images/nothing.png,2,real,true,2,common,0,2020-06-19T16:00:01Z,sub72
two-step-fixation,185,774430,0.0-76.0-2.16,FALSE,TRUE,TRUE,FALSE,"""event"",""trial"",""time""
""fullscreenenter"",""5"",""19344""
","
","
","""event"",""trial"",""time""
""fullscreenenter"",""5"",""19344""
","
",NA,images/earth.jpg,NA,NA,NA,NA,NA,NA,NA,NA,NA,NA,NA,NA,NA,fixation,NA,NA,NA,NA,NA,NA,sub72
d3-animate-choice,186,776746,0.0-76.0-0.17,FALSE,TRUE,TRUE,FALSE,"""event"",""trial"",""time""
""fullscreenenter"",""5"",""19344""
","
","
","""event"",""trial"",""time""
""fullscreenenter"",""5"",""19344""
","
",307.314999983646,NA,48,NA,NA,3000,1,NA,NA,images/earth.jpg,images/rocket1,images/rocket2,null,images/rocket1,NA,1,real,null,2,NA,NA,NA,sub72
d3-animate-choice,187,779310,0.0-76.0-1.17,FALSE,TRUE,TRUE,FALSE,"""event"",""trial"",""time""
""fullscreenenter"",""5"",""19344""
","
","
","""event"",""trial"",""time""
""fullscreenenter"",""5"",""19344""
","
",552.4750000331551,NA,48,NA,NA,3000,1,NA,NA,images/redplanet1.jpg,images/alien2,images/alien1,images/rocket1,images/alien2,images/t.png,2,real,true,2,common,1,2020-06-19T16:00:07Z,sub72
two-step-fixation,188,780329,0.0-76.0-2.17,FALSE,TRUE,TRUE,FALSE,"""event"",""trial"",""time""
""fullscreenenter"",""5"",""19344""
","
","
","""event"",""trial"",""time""
""fullscreenenter"",""5"",""19344""
","
",NA,images/earth.jpg,NA,NA,NA,NA,NA,NA,NA,NA,NA,NA,NA,NA,NA,fixation,NA,NA,NA,NA,NA,NA,sub72
d3-animate-choice,189,782626,0.0-76.0-0.18,FALSE,TRUE,TRUE,FALSE,"""event"",""trial"",""time""
""fullscreenenter"",""5"",""19344""
","
","
","""event"",""trial"",""time""
""fullscreenenter"",""5"",""19344""
","
",289.18500000145286,NA,48,NA,NA,3000,1,NA,NA,images/earth.jpg,images/rocket1,images/rocket2,null,images/rocket1,NA,1,real,null,2,NA,NA,NA,sub72
d3-animate-choice,190,786255,0.0-76.0-1.18,FALSE,TRUE,TRUE,FALSE,"""event"",""trial"",""time""
""fullscreenenter"",""5"",""19344""
","
","
","""event"",""trial"",""time""
""fullscreenenter"",""5"",""19344""
","
",1617.3000000417233,NA,49,NA,NA,3000,1,NA,NA,images/purpleplanet.jpg,images/alien4,images/alien3,images/rocket1,images/alien3,images/nothing.png,2,real,false,1,rare,0,2020-06-19T16:00:14Z,sub72
two-step-fixation,191,787262,0.0-76.0-2.18,FALSE,TRUE,TRUE,FALSE,"""event"",""trial"",""time""
""fullscreenenter"",""5"",""19344""
","
","
","""event"",""trial"",""time""
""fullscreenenter"",""5"",""19344""
","
",NA,images/earth.jpg,NA,NA,NA,NA,NA,NA,NA,NA,NA,NA,NA,NA,NA,fixation,NA,NA,NA,NA,NA,NA,sub72
d3-animate-choice,192,789410,0.0-76.0-0.19,FALSE,TRUE,TRUE,FALSE,"""event"",""trial"",""time""
""fullscreenenter"",""5"",""19344""
","
","
","""event"",""trial"",""time""
""fullscreenenter"",""5"",""19344""
","
",136.91000000108033,NA,48,NA,NA,3000,1,NA,NA,images/earth.jpg,images/rocket1,images/rocket2,null,images/rocket1,NA,1,real,null,2,NA,NA,NA,sub72
d3-animate-choice,193,791853,0.0-76.0-1.19,FALSE,TRUE,TRUE,FALSE,"""event"",""trial"",""time""
""fullscreenenter"",""5"",""19344""
","
","
","""event"",""trial"",""time""
""fullscreenenter"",""5"",""19344""
","
",435.07500004488975,NA,48,NA,NA,3000,1,NA,NA,images/redplanet1.jpg,images/alien2,images/alien1,images/rocket1,images/alien2,images/t.png,2,real,true,2,common,1,2020-06-19T16:00:19Z,sub72
two-step-fixation,194,792869,0.0-76.0-2.19,FALSE,TRUE,TRUE,FALSE,"""event"",""trial"",""time""
""fullscreenenter"",""5"",""19344""
","
","
","""event"",""trial"",""time""
""fullscreenenter"",""5"",""19344""
","
",NA,images/earth.jpg,NA,NA,NA,NA,NA,NA,NA,NA,NA,NA,NA,NA,NA,fixation,NA,NA,NA,NA,NA,NA,sub72
d3-animate-choice,195,795554,0.0-76.0-0.20,FALSE,TRUE,TRUE,FALSE,"""event"",""trial"",""time""
""fullscreenenter"",""5"",""19344""
","
","
","""event"",""trial"",""time""
""fullscreenenter"",""5"",""19344""
","
",672.7699999464676,NA,48,NA,NA,3000,1,NA,NA,images/earth.jpg,images/rocket1,images/rocket2,null,images/rocket1,NA,1,real,null,2,NA,NA,NA,sub72
d3-animate-choice,196,797987,0.0-76.0-1.20,FALSE,TRUE,TRUE,FALSE,"""event"",""trial"",""time""
""fullscreenenter"",""5"",""19344""
","
","
","""event"",""trial"",""time""
""fullscreenenter"",""5"",""19344""
","
",423.6500000115484,NA,48,NA,NA,3000,1,NA,NA,images/redplanet1.jpg,images/alien2,images/alien1,images/rocket1,images/alien2,images/t.png,2,real,true,2,common,1,2020-06-19T16:00:26Z,sub72
two-step-fixation,197,798997,0.0-76.0-2.20,FALSE,TRUE,TRUE,FALSE,"""event"",""trial"",""time""
""fullscreenenter"",""5"",""19344""
","
","
","""event"",""trial"",""time""
""fullscreenenter"",""5"",""19344""
","
",NA,images/earth.jpg,NA,NA,NA,NA,NA,NA,NA,NA,NA,NA,NA,NA,NA,fixation,NA,NA,NA,NA,NA,NA,sub72
d3-animate-choice,198,801030,0.0-76.0-0.21,FALSE,TRUE,TRUE,FALSE,"""event"",""trial"",""time""
""fullscreenenter"",""5"",""19344""
","
","
","""event"",""trial"",""time""
""fullscreenenter"",""5"",""19344""
","
",22.955000051297247,NA,48,NA,NA,3000,1,NA,NA,images/earth.jpg,images/rocket1,images/rocket2,null,images/rocket1,NA,1,real,null,2,NA,NA,NA,sub72
d3-animate-choice,199,803411,0.0-76.0-1.21,FALSE,TRUE,TRUE,FALSE,"""event"",""trial"",""time""
""fullscreenenter"",""5"",""19344""
","
","
","""event"",""trial"",""time""
""fullscreenenter"",""5"",""19344""
","
",366.29500007256866,NA,48,NA,NA,3000,1,NA,NA,images/redplanet1.jpg,images/alien2,images/alien1,images/rocket1,images/alien2,images/t.png,2,real,true,2,common,1,2020-06-19T16:00:31Z,sub72
two-step-fixation,200,804418,0.0-76.0-2.21,FALSE,TRUE,TRUE,FALSE,"""event"",""trial"",""time""
""fullscreenenter"",""5"",""19344""
","
","
","""event"",""trial"",""time""
""fullscreenenter"",""5"",""19344""
","
",NA,images/earth.jpg,NA,NA,NA,NA,NA,NA,NA,NA,NA,NA,NA,NA,NA,fixation,NA,NA,NA,NA,NA,NA,sub72
d3-animate-choice,201,806975,0.0-76.0-0.22,FALSE,TRUE,TRUE,FALSE,"""event"",""trial"",""time""
""fullscreenenter"",""5"",""19344""
","
","
","""event"",""trial"",""time""
""fullscreenenter"",""5"",""19344""
","
",549.885000102222,NA,48,NA,NA,3000,1,NA,NA,images/earth.jpg,images/rocket1,images/rocket2,null,images/rocket1,NA,1,real,null,2,NA,NA,NA,sub72
d3-animate-choice,202,809441,0.0-76.0-1.22,FALSE,TRUE,TRUE,FALSE,"""event"",""trial"",""time""
""fullscreenenter"",""5"",""19344""
","
","
","""event"",""trial"",""time""
""fullscreenenter"",""5"",""19344""
","
",457.3750001145527,NA,48,NA,NA,3000,1,NA,NA,images/redplanet1.jpg,images/alien2,images/alien1,images/rocket1,images/alien2,images/t.png,2,real,true,2,common,1,2020-06-19T16:00:37Z,sub72
two-step-fixation,203,810447,0.0-76.0-2.22,FALSE,TRUE,TRUE,FALSE,"""event"",""trial"",""time""
""fullscreenenter"",""5"",""19344""
","
","
","""event"",""trial"",""time""
""fullscreenenter"",""5"",""19344""
","
",NA,images/earth.jpg,NA,NA,NA,NA,NA,NA,NA,NA,NA,NA,NA,NA,NA,fixation,NA,NA,NA,NA,NA,NA,sub72
d3-animate-choice,204,812858,0.0-76.0-0.23,FALSE,TRUE,TRUE,FALSE,"""event"",""trial"",""time""
""fullscreenenter"",""5"",""19344""
","
","
","""event"",""trial"",""time""
""fullscreenenter"",""5"",""19344""
","
",401.21999999973923,NA,48,NA,NA,3000,1,NA,NA,images/earth.jpg,images/rocket1,images/rocket2,null,images/rocket1,NA,1,real,null,2,NA,NA,NA,sub72
d3-animate-choice,205,816127,0.0-76.0-1.23,FALSE,TRUE,TRUE,FALSE,"""event"",""trial"",""time""
""fullscreenenter"",""5"",""19344""
","
","
","""event"",""trial"",""time""
""fullscreenenter"",""5"",""19344""
","
",1256.8500000052154,NA,48,NA,NA,3000,1,NA,NA,images/purpleplanet.jpg,images/alien4,images/alien3,images/rocket1,images/alien4,images/nothing.png,2,real,false,2,rare,0,2020-06-19T16:00:44Z,sub72
two-step-fixation,206,817139,0.0-76.0-2.23,FALSE,TRUE,TRUE,FALSE,"""event"",""trial"",""time""
""fullscreenenter"",""5"",""19344""
","
","
","""event"",""trial"",""time""
""fullscreenenter"",""5"",""19344""
","
",NA,images/earth.jpg,NA,NA,NA,NA,NA,NA,NA,NA,NA,NA,NA,NA,NA,fixation,NA,NA,NA,NA,NA,NA,sub72
d3-animate-choice,207,819454,0.0-76.0-0.24,FALSE,TRUE,TRUE,FALSE,"""event"",""trial"",""time""
""fullscreenenter"",""5"",""19344""
","
","
","""event"",""trial"",""time""
""fullscreenenter"",""5"",""19344""
","
",306.3299999339506,NA,48,NA,NA,3000,1,NA,NA,images/earth.jpg,images/rocket1,images/rocket2,null,images/rocket1,NA,1,real,null,2,NA,NA,NA,sub72
d3-animate-choice,208,821941,0.0-76.0-1.24,FALSE,TRUE,TRUE,FALSE,"""event"",""trial"",""time""
""fullscreenenter"",""5"",""19344""
","
","
","""event"",""trial"",""time""
""fullscreenenter"",""5"",""19344""
","
",478.02499996032566,NA,48,NA,NA,3000,1,NA,NA,images/redplanet1.jpg,images/alien2,images/alien1,images/rocket1,images/alien2,images/nothing.png,2,real,true,2,common,0,2020-06-19T16:00:50Z,sub72
two-step-fixation,209,822955,0.0-76.0-2.24,FALSE,TRUE,TRUE,FALSE,"""event"",""trial"",""time""
""fullscreenenter"",""5"",""19344""
","
","
","""event"",""trial"",""time""
""fullscreenenter"",""5"",""19344""
","
",NA,images/earth.jpg,NA,NA,NA,NA,NA,NA,NA,NA,NA,NA,NA,NA,NA,fixation,NA,NA,NA,NA,NA,NA,sub72
d3-animate-choice,210,825371,0.0-76.0-0.25,FALSE,TRUE,TRUE,FALSE,"""event"",""trial"",""time""
""fullscreenenter"",""5"",""19344""
","
","
","""event"",""trial"",""time""
""fullscreenenter"",""5"",""19344""
","
",402.70500001497567,NA,48,NA,NA,3000,1,NA,NA,images/earth.jpg,images/rocket1,images/rocket2,null,images/rocket1,NA,1,real,null,2,NA,NA,NA,sub72
d3-animate-choice,211,828687,0.0-76.0-1.25,FALSE,TRUE,TRUE,FALSE,"""event"",""trial"",""time""
""fullscreenenter"",""5"",""19344""
","
","
","""event"",""trial"",""time""
""fullscreenenter"",""5"",""19344""
","
",1307.8749999403954,NA,49,NA,NA,3000,1,NA,NA,images/purpleplanet.jpg,images/alien4,images/alien3,images/rocket1,images/alien3,images/nothing.png,2,real,false,1,rare,0,2020-06-19T16:00:56Z,sub72
two-step-fixation,212,829702,0.0-76.0-2.25,FALSE,TRUE,TRUE,FALSE,"""event"",""trial"",""time""
""fullscreenenter"",""5"",""19344""
","
","
","""event"",""trial"",""time""
""fullscreenenter"",""5"",""19344""
","
",NA,images/earth.jpg,NA,NA,NA,NA,NA,NA,NA,NA,NA,NA,NA,NA,NA,fixation,NA,NA,NA,NA,NA,NA,sub72
d3-animate-choice,213,833713,0.0-76.0-0.26,FALSE,TRUE,TRUE,FALSE,"""event"",""trial"",""time""
""fullscreenenter"",""5"",""19344""
","
","
","""event"",""trial"",""time""
""fullscreenenter"",""5"",""19344""
","
",2697.06999999471,NA,48,NA,NA,3000,1,NA,NA,images/earth.jpg,images/rocket1,images/rocket2,null,images/rocket1,NA,1,real,null,2,NA,NA,NA,sub72
d3-animate-choice,214,836298,0.0-76.0-1.26,FALSE,TRUE,TRUE,FALSE,"""event"",""trial"",""time""
""fullscreenenter"",""5"",""19344""
","
","
","""event"",""trial"",""time""
""fullscreenenter"",""5"",""19344""
","
",575.429999968037,NA,48,NA,NA,3000,1,NA,NA,images/redplanet1.jpg,images/alien2,images/alien1,images/rocket1,images/alien2,images/t.png,2,real,true,2,common,1,2020-06-19T16:01:04Z,sub72
two-step-fixation,215,837310,0.0-76.0-2.26,FALSE,TRUE,TRUE,FALSE,"""event"",""trial"",""time""
""fullscreenenter"",""5"",""19344""
","
","
","""event"",""trial"",""time""
""fullscreenenter"",""5"",""19344""
","
",NA,images/earth.jpg,NA,NA,NA,NA,NA,NA,NA,NA,NA,NA,NA,NA,NA,fixation,NA,NA,NA,NA,NA,NA,sub72
d3-animate-choice,216,839581,0.0-76.0-0.27,FALSE,TRUE,TRUE,FALSE,"""event"",""trial"",""time""
""fullscreenenter"",""5"",""19344""
","
","
","""event"",""trial"",""time""
""fullscreenenter"",""5"",""19344""
","
",258.12500005122274,NA,48,NA,NA,3000,1,NA,NA,images/earth.jpg,images/rocket1,images/rocket2,null,images/rocket1,NA,1,real,null,2,NA,NA,NA,sub72
d3-animate-choice,217,842751,0.0-76.0-1.27,FALSE,TRUE,TRUE,FALSE,"""event"",""trial"",""time""
""fullscreenenter"",""5"",""19344""
","
","
","""event"",""trial"",""time""
""fullscreenenter"",""5"",""19344""
","
",1159.1699999989942,NA,48,NA,NA,3000,1,NA,NA,images/purpleplanet.jpg,images/alien4,images/alien3,images/rocket1,images/alien4,images/t.png,2,real,false,2,rare,1,2020-06-19T16:01:10Z,sub72
two-step-fixation,218,843759,0.0-76.0-2.27,FALSE,TRUE,TRUE,FALSE,"""event"",""trial"",""time""
""fullscreenenter"",""5"",""19344""
","
","
","""event"",""trial"",""time""
""fullscreenenter"",""5"",""19344""
","
",NA,images/earth.jpg,NA,NA,NA,NA,NA,NA,NA,NA,NA,NA,NA,NA,NA,fixation,NA,NA,NA,NA,NA,NA,sub72
d3-animate-choice,219,846077,0.0-76.0-0.28,FALSE,TRUE,TRUE,FALSE,"""event"",""trial"",""time""
""fullscreenenter"",""5"",""19344""
","
","
","""event"",""trial"",""time""
""fullscreenenter"",""5"",""19344""
","
",304.6099999919534,NA,48,NA,NA,3000,1,NA,NA,images/earth.jpg,images/rocket1,images/rocket2,null,images/rocket1,NA,1,real,null,2,NA,NA,NA,sub72
d3-animate-choice,220,848702,0.0-76.0-1.28,FALSE,TRUE,TRUE,FALSE,"""event"",""trial"",""time""
""fullscreenenter"",""5"",""19344""
","
","
","""event"",""trial"",""time""
""fullscreenenter"",""5"",""19344""
","
",616.7900000000373,NA,48,NA,NA,3000,1,NA,NA,images/redplanet1.jpg,images/alien2,images/alien1,images/rocket1,images/alien2,images/t.png,2,real,true,2,common,1,2020-06-19T16:01:16Z,sub72
two-step-fixation,221,849721,0.0-76.0-2.28,FALSE,TRUE,TRUE,FALSE,"""event"",""trial"",""time""
""fullscreenenter"",""5"",""19344""
","
","
","""event"",""trial"",""time""
""fullscreenenter"",""5"",""19344""
","
",NA,images/earth.jpg,NA,NA,NA,NA,NA,NA,NA,NA,NA,NA,NA,NA,NA,fixation,NA,NA,NA,NA,NA,NA,sub72
d3-animate-choice,222,852056,0.0-76.0-0.29,FALSE,TRUE,TRUE,FALSE,"""event"",""trial"",""time""
""fullscreenenter"",""5"",""19344""
","
","
","""event"",""trial"",""time""
""fullscreenenter"",""5"",""19344""
","
",323.49999994039536,NA,48,NA,NA,3000,1,NA,NA,images/earth.jpg,images/rocket1,images/rocket2,null,images/rocket1,NA,1,real,null,2,NA,NA,NA,sub72
d3-animate-choice,223,854849,0.0-76.0-1.29,FALSE,TRUE,TRUE,FALSE,"""event"",""trial"",""time""
""fullscreenenter"",""5"",""19344""
","
","
","""event"",""trial"",""time""
""fullscreenenter"",""5"",""19344""
","
",776.8999999389052,NA,48,NA,NA,3000,1,NA,NA,images/purpleplanet.jpg,images/alien4,images/alien3,images/rocket1,images/alien4,images/nothing.png,2,real,false,2,rare,0,2020-06-19T16:01:22Z,sub72
two-step-fixation,224,855863,0.0-76.0-2.29,FALSE,TRUE,TRUE,FALSE,"""event"",""trial"",""time""
""fullscreenenter"",""5"",""19344""
","
","
","""event"",""trial"",""time""
""fullscreenenter"",""5"",""19344""
","
",NA,images/earth.jpg,NA,NA,NA,NA,NA,NA,NA,NA,NA,NA,NA,NA,NA,fixation,NA,NA,NA,NA,NA,NA,sub72
d3-animate-choice,225,858413,0.0-76.0-0.30,FALSE,TRUE,TRUE,FALSE,"""event"",""trial"",""time""
""fullscreenenter"",""5"",""19344""
","
","
","""event"",""trial"",""time""
""fullscreenenter"",""5"",""19344""
","
",540.3199999127537,NA,48,NA,NA,3000,1,NA,NA,images/earth.jpg,images/rocket1,images/rocket2,null,images/rocket1,NA,1,real,null,2,NA,NA,NA,sub72
d3-animate-choice,226,860978,0.0-76.0-1.30,FALSE,TRUE,TRUE,FALSE,"""event"",""trial"",""time""
""fullscreenenter"",""5"",""19344""
","
","
","""event"",""trial"",""time""
""fullscreenenter"",""5"",""19344""
","
",559.1100000310689,NA,48,NA,NA,3000,1,NA,NA,images/redplanet1.jpg,images/alien2,images/alien1,images/rocket1,images/alien2,images/nothing.png,2,real,true,2,common,0,2020-06-19T16:01:29Z,sub72
two-step-fixation,227,861983,0.0-76.0-2.30,FALSE,TRUE,TRUE,FALSE,"""event"",""trial"",""time""
""fullscreenenter"",""5"",""19344""
","
","
","""event"",""trial"",""time""
""fullscreenenter"",""5"",""19344""
","
",NA,images/earth.jpg,NA,NA,NA,NA,NA,NA,NA,NA,NA,NA,NA,NA,NA,fixation,NA,NA,NA,NA,NA,NA,sub72
d3-animate-choice,228,864347,0.0-76.0-0.31,FALSE,TRUE,TRUE,FALSE,"""event"",""trial"",""time""
""fullscreenenter"",""5"",""19344""
","
","
","""event"",""trial"",""time""
""fullscreenenter"",""5"",""19344""
","
",355.74499994982034,NA,48,NA,NA,3000,1,NA,NA,images/earth.jpg,images/rocket1,images/rocket2,null,images/rocket1,NA,1,real,null,2,NA,NA,NA,sub72
d3-animate-choice,229,867847,0.0-76.0-1.31,FALSE,TRUE,TRUE,FALSE,"""event"",""trial"",""time""
""fullscreenenter"",""5"",""19344""
","
","
","""event"",""trial"",""time""
""fullscreenenter"",""5"",""19344""
","
",1495.519999996759,NA,48,NA,NA,3000,1,NA,NA,images/purpleplanet.jpg,images/alien4,images/alien3,images/rocket1,images/alien4,images/nothing.png,2,real,false,2,rare,0,2020-06-19T16:01:35Z,sub72
two-step-fixation,230,868854,0.0-76.0-2.31,FALSE,TRUE,TRUE,FALSE,"""event"",""trial"",""time""
""fullscreenenter"",""5"",""19344""
","
","
","""event"",""trial"",""time""
""fullscreenenter"",""5"",""19344""
","
",NA,images/earth.jpg,NA,NA,NA,NA,NA,NA,NA,NA,NA,NA,NA,NA,NA,fixation,NA,NA,NA,NA,NA,NA,sub72
d3-animate-choice,231,871261,0.0-76.0-0.32,FALSE,TRUE,TRUE,FALSE,"""event"",""trial"",""time""
""fullscreenenter"",""5"",""19344""
","
","
","""event"",""trial"",""time""
""fullscreenenter"",""5"",""19344""
","
",402.5050000054762,NA,48,NA,NA,3000,1,NA,NA,images/earth.jpg,images/rocket1,images/rocket2,null,images/rocket1,NA,1,real,null,2,NA,NA,NA,sub72
d3-animate-choice,232,873980,0.0-76.0-1.32,FALSE,TRUE,TRUE,FALSE,"""event"",""trial"",""time""
""fullscreenenter"",""5"",""19344""
","
","
","""event"",""trial"",""time""
""fullscreenenter"",""5"",""19344""
","
",712.984999991022,NA,48,NA,NA,3000,1,NA,NA,images/redplanet1.jpg,images/alien2,images/alien1,images/rocket1,images/alien2,images/t.png,2,real,true,2,common,1,2020-06-19T16:01:42Z,sub72
two-step-fixation,233,874991,0.0-76.0-2.32,FALSE,TRUE,TRUE,FALSE,"""event"",""trial"",""time""
""fullscreenenter"",""5"",""19344""
","
","
","""event"",""trial"",""time""
""fullscreenenter"",""5"",""19344""
","
",NA,images/earth.jpg,NA,NA,NA,NA,NA,NA,NA,NA,NA,NA,NA,NA,NA,fixation,NA,NA,NA,NA,NA,NA,sub72
d3-animate-choice,234,877357,0.0-76.0-0.33,FALSE,TRUE,TRUE,FALSE,"""event"",""trial"",""time""
""fullscreenenter"",""5"",""19344""
","
","
","""event"",""trial"",""time""
""fullscreenenter"",""5"",""19344""
","
",354.2600000509992,NA,48,NA,NA,3000,1,NA,NA,images/earth.jpg,images/rocket1,images/rocket2,null,images/rocket1,NA,1,real,null,2,NA,NA,NA,sub72
d3-animate-choice,235,879932,0.0-76.0-1.33,FALSE,TRUE,TRUE,FALSE,"""event"",""trial"",""time""
""fullscreenenter"",""5"",""19344""
","
","
","""event"",""trial"",""time""
""fullscreenenter"",""5"",""19344""
","
",563.2700000423938,NA,48,NA,NA,3000,1,NA,NA,images/purpleplanet.jpg,images/alien4,images/alien3,images/rocket1,images/alien4,images/nothing.png,2,real,false,2,rare,0,2020-06-19T16:01:48Z,sub72
two-step-fixation,236,880948,0.0-76.0-2.33,FALSE,TRUE,TRUE,FALSE,"""event"",""trial"",""time""
""fullscreenenter"",""5"",""19344""
","
","
","""event"",""trial"",""time""
""fullscreenenter"",""5"",""19344""
","
",NA,images/earth.jpg,NA,NA,NA,NA,NA,NA,NA,NA,NA,NA,NA,NA,NA,fixation,NA,NA,NA,NA,NA,NA,sub72
d3-animate-choice,237,883284,0.0-76.0-0.34,FALSE,TRUE,TRUE,FALSE,"""event"",""trial"",""time""
""fullscreenenter"",""5"",""19344""
","
","
","""event"",""trial"",""time""
""fullscreenenter"",""5"",""19344""
","
",320.62500005122274,NA,48,NA,NA,3000,1,NA,NA,images/earth.jpg,images/rocket1,images/rocket2,null,images/rocket1,NA,1,real,null,2,NA,NA,NA,sub72
d3-animate-choice,238,885902,0.0-76.0-1.34,FALSE,TRUE,TRUE,FALSE,"""event"",""trial"",""time""
""fullscreenenter"",""5"",""19344""
","
","
","""event"",""trial"",""time""
""fullscreenenter"",""5"",""19344""
","
",610.1100000087172,NA,48,NA,NA,3000,1,NA,NA,images/redplanet1.jpg,images/alien2,images/alien1,images/rocket1,images/alien2,images/t.png,2,real,true,2,common,1,2020-06-19T16:01:54Z,sub72
two-step-fixation,239,886911,0.0-76.0-2.34,FALSE,TRUE,TRUE,FALSE,"""event"",""trial"",""time""
""fullscreenenter"",""5"",""19344""
","
","
","""event"",""trial"",""time""
""fullscreenenter"",""5"",""19344""
","
",NA,images/earth.jpg,NA,NA,NA,NA,NA,NA,NA,NA,NA,NA,NA,NA,NA,fixation,NA,NA,NA,NA,NA,NA,sub72
d3-animate-choice,240,889345,0.0-76.0-0.35,FALSE,TRUE,TRUE,FALSE,"""event"",""trial"",""time""
""fullscreenenter"",""5"",""19344""
","
","
","""event"",""trial"",""time""
""fullscreenenter"",""5"",""19344""
","
",422.34500008635223,NA,48,NA,NA,3000,1,NA,NA,images/earth.jpg,images/rocket1,images/rocket2,null,images/rocket1,NA,1,real,null,2,NA,NA,NA,sub72
d3-animate-choice,241,891926,0.0-76.0-1.35,FALSE,TRUE,TRUE,FALSE,"""event"",""trial"",""time""
""fullscreenenter"",""5"",""19344""
","
","
","""event"",""trial"",""time""
""fullscreenenter"",""5"",""19344""
","
",562.125000054948,NA,48,NA,NA,3000,1,NA,NA,images/redplanet1.jpg,images/alien2,images/alien1,images/rocket1,images/alien2,images/t.png,2,real,true,2,common,1,2020-06-19T16:02:00Z,sub72
two-step-fixation,242,892931,0.0-76.0-2.35,FALSE,TRUE,TRUE,FALSE,"""event"",""trial"",""time""
""fullscreenenter"",""5"",""19344""
","
","
","""event"",""trial"",""time""
""fullscreenenter"",""5"",""19344""
","
",NA,images/earth.jpg,NA,NA,NA,NA,NA,NA,NA,NA,NA,NA,NA,NA,NA,fixation,NA,NA,NA,NA,NA,NA,sub72
d3-animate-choice,243,895289,0.0-76.0-0.36,FALSE,TRUE,TRUE,FALSE,"""event"",""trial"",""time""
""fullscreenenter"",""5"",""19344""
","
","
","""event"",""trial"",""time""
""fullscreenenter"",""5"",""19344""
","
",343.28499995172024,NA,48,NA,NA,3000,1,NA,NA,images/earth.jpg,images/rocket1,images/rocket2,null,images/rocket1,NA,1,real,null,2,NA,NA,NA,sub72
d3-animate-choice,244,897888,0.0-76.0-1.36,FALSE,TRUE,TRUE,FALSE,"""event"",""trial"",""time""
""fullscreenenter"",""5"",""19344""
","
","
","""event"",""trial"",""time""
""fullscreenenter"",""5"",""19344""
","
",590.9499999834225,NA,48,NA,NA,3000,1,NA,NA,images/redplanet1.jpg,images/alien2,images/alien1,images/rocket1,images/alien2,images/t.png,2,real,true,2,common,1,2020-06-19T16:02:06Z,sub72
two-step-fixation,245,898895,0.0-76.0-2.36,FALSE,TRUE,TRUE,FALSE,"""event"",""trial"",""time""
""fullscreenenter"",""5"",""19344""
","
","
","""event"",""trial"",""time""
""fullscreenenter"",""5"",""19344""
","
",NA,images/earth.jpg,NA,NA,NA,NA,NA,NA,NA,NA,NA,NA,NA,NA,NA,fixation,NA,NA,NA,NA,NA,NA,sub72
d3-animate-choice,246,901380,0.0-76.0-0.37,FALSE,TRUE,TRUE,FALSE,"""event"",""trial"",""time""
""fullscreenenter"",""5"",""19344""
","
","
","""event"",""trial"",""time""
""fullscreenenter"",""5"",""19344""
","
",478.2399999676272,NA,48,NA,NA,3000,1,NA,NA,images/earth.jpg,images/rocket1,images/rocket2,null,images/rocket1,NA,1,real,null,2,NA,NA,NA,sub72
d3-animate-choice,247,903874,0.0-76.0-1.37,FALSE,TRUE,TRUE,FALSE,"""event"",""trial"",""time""
""fullscreenenter"",""5"",""19344""
","
","
","""event"",""trial"",""time""
""fullscreenenter"",""5"",""19344""
","
",485.0299999816343,NA,48,NA,NA,3000,1,NA,NA,images/redplanet1.jpg,images/alien2,images/alien1,images/rocket1,images/alien2,images/nothing.png,2,real,true,2,common,0,2020-06-19T16:02:11Z,sub72
two-step-fixation,248,904883,0.0-76.0-2.37,FALSE,TRUE,TRUE,FALSE,"""event"",""trial"",""time""
""fullscreenenter"",""5"",""19344""
","
","
","""event"",""trial"",""time""
""fullscreenenter"",""5"",""19344""
","
",NA,images/earth.jpg,NA,NA,NA,NA,NA,NA,NA,NA,NA,NA,NA,NA,NA,fixation,NA,NA,NA,NA,NA,NA,sub72
d3-animate-choice,249,907249,0.0-76.0-0.38,FALSE,TRUE,TRUE,FALSE,"""event"",""trial"",""time""
""fullscreenenter"",""5"",""19344""
","
","
","""event"",""trial"",""time""
""fullscreenenter"",""5"",""19344""
","
",353.98500005248934,NA,48,NA,NA,3000,1,NA,NA,images/earth.jpg,images/rocket1,images/rocket2,null,images/rocket1,NA,1,real,null,2,NA,NA,NA,sub72
d3-animate-choice,250,909820,0.0-76.0-1.38,FALSE,TRUE,TRUE,FALSE,"""event"",""trial"",""time""
""fullscreenenter"",""5"",""19344""
","
","
","""event"",""trial"",""time""
""fullscreenenter"",""5"",""19344""
","
",560.7099999906495,NA,48,NA,NA,3000,1,NA,NA,images/redplanet1.jpg,images/alien2,images/alien1,images/rocket1,images/alien2,images/nothing.png,2,real,true,2,common,0,2020-06-19T16:02:17Z,sub72
two-step-fixation,251,910830,0.0-76.0-2.38,FALSE,TRUE,TRUE,FALSE,"""event"",""trial"",""time""
""fullscreenenter"",""5"",""19344""
","
","
","""event"",""trial"",""time""
""fullscreenenter"",""5"",""19344""
","
",NA,images/earth.jpg,NA,NA,NA,NA,NA,NA,NA,NA,NA,NA,NA,NA,NA,fixation,NA,NA,NA,NA,NA,NA,sub72
d3-animate-choice,252,913212,0.0-76.0-0.39,FALSE,TRUE,TRUE,FALSE,"""event"",""trial"",""time""
""fullscreenenter"",""5"",""19344""
","
","
","""event"",""trial"",""time""
""fullscreenenter"",""5"",""19344""
","
",368.0949999252334,NA,48,NA,NA,3000,1,NA,NA,images/earth.jpg,images/rocket1,images/rocket2,null,images/rocket1,NA,1,real,null,2,NA,NA,NA,sub72
d3-animate-choice,253,915717,0.0-76.0-1.39,FALSE,TRUE,TRUE,FALSE,"""event"",""trial"",""time""
""fullscreenenter"",""5"",""19344""
","
","
","""event"",""trial"",""time""
""fullscreenenter"",""5"",""19344""
","
",495.94499997328967,NA,48,NA,NA,3000,1,NA,NA,images/redplanet1.jpg,images/alien2,images/alien1,images/rocket1,images/alien2,images/nothing.png,2,real,true,2,common,0,2020-06-19T16:02:23Z,sub72
two-step-fixation,254,916725,0.0-76.0-2.39,FALSE,TRUE,TRUE,FALSE,"""event"",""trial"",""time""
""fullscreenenter"",""5"",""19344""
","
","
","""event"",""trial"",""time""
""fullscreenenter"",""5"",""19344""
","
",NA,images/earth.jpg,NA,NA,NA,NA,NA,NA,NA,NA,NA,NA,NA,NA,NA,fixation,NA,NA,NA,NA,NA,NA,sub72
d3-animate-choice,255,919057,0.0-76.0-0.40,FALSE,TRUE,TRUE,FALSE,"""event"",""trial"",""time""
""fullscreenenter"",""5"",""19344""
","
","
","""event"",""trial"",""time""
""fullscreenenter"",""5"",""19344""
","
",326.09500002581626,NA,48,NA,NA,3000,1,NA,NA,images/earth.jpg,images/rocket1,images/rocket2,null,images/rocket1,NA,1,real,null,2,NA,NA,NA,sub72
d3-animate-choice,256,921497,0.0-76.0-1.40,FALSE,TRUE,TRUE,FALSE,"""event"",""trial"",""time""
""fullscreenenter"",""5"",""19344""
","
","
","""event"",""trial"",""time""
""fullscreenenter"",""5"",""19344""
","
",430.73000002186745,NA,49,NA,NA,3000,1,NA,NA,images/redplanet1.jpg,images/alien2,images/alien1,images/rocket1,images/alien1,images/t.png,2,real,true,1,common,1,2020-06-19T16:02:29Z,sub72
two-step-fixation,257,922505,0.0-76.0-2.40,FALSE,TRUE,TRUE,FALSE,"""event"",""trial"",""time""
""fullscreenenter"",""5"",""19344""
","
","
","""event"",""trial"",""time""
""fullscreenenter"",""5"",""19344""
","
",NA,images/earth.jpg,NA,NA,NA,NA,NA,NA,NA,NA,NA,NA,NA,NA,NA,fixation,NA,NA,NA,NA,NA,NA,sub72
d3-animate-choice,258,924854,0.0-76.0-0.41,FALSE,TRUE,TRUE,FALSE,"""event"",""trial"",""time""
""fullscreenenter"",""5"",""19344""
","
","
","""event"",""trial"",""time""
""fullscreenenter"",""5"",""19344""
","
",344.10500002559274,NA,48,NA,NA,3000,1,NA,NA,images/earth.jpg,images/rocket1,images/rocket2,null,images/rocket1,NA,1,real,null,2,NA,NA,NA,sub72
d3-animate-choice,259,927377,0.0-76.0-1.41,FALSE,TRUE,TRUE,FALSE,"""event"",""trial"",""time""
""fullscreenenter"",""5"",""19344""
","
","
","""event"",""trial"",""time""
""fullscreenenter"",""5"",""19344""
","
",513.5100000770763,NA,49,NA,NA,3000,1,NA,NA,images/redplanet1.jpg,images/alien2,images/alien1,images/rocket1,images/alien1,images/nothing.png,2,real,true,1,common,0,2020-06-19T16:02:35Z,sub72
two-step-fixation,260,928388,0.0-76.0-2.41,FALSE,TRUE,TRUE,FALSE,"""event"",""trial"",""time""
""fullscreenenter"",""5"",""19344""
","
","
","""event"",""trial"",""time""
""fullscreenenter"",""5"",""19344""
","
",NA,images/earth.jpg,NA,NA,NA,NA,NA,NA,NA,NA,NA,NA,NA,NA,NA,fixation,NA,NA,NA,NA,NA,NA,sub72
d3-animate-choice,261,930790,0.0-76.0-0.42,FALSE,TRUE,TRUE,FALSE,"""event"",""trial"",""time""
""fullscreenenter"",""5"",""19344""
","
","
","""event"",""trial"",""time""
""fullscreenenter"",""5"",""19344""
","
",397.5599999539554,NA,48,NA,NA,3000,1,NA,NA,images/earth.jpg,images/rocket1,images/rocket2,null,images/rocket1,NA,1,real,null,2,NA,NA,NA,sub72
d3-animate-choice,262,933417,0.0-76.0-1.42,FALSE,TRUE,TRUE,FALSE,"""event"",""trial"",""time""
""fullscreenenter"",""5"",""19344""
","
","
","""event"",""trial"",""time""
""fullscreenenter"",""5"",""19344""
","
",614.5199999446049,NA,49,NA,NA,3000,1,NA,NA,images/redplanet1.jpg,images/alien2,images/alien1,images/rocket1,images/alien1,images/t.png,2,real,true,1,common,1,2020-06-19T16:02:41Z,sub72
two-step-fixation,263,934434,0.0-76.0-2.42,FALSE,TRUE,TRUE,FALSE,"""event"",""trial"",""time""
""fullscreenenter"",""5"",""19344""
","
","
","""event"",""trial"",""time""
""fullscreenenter"",""5"",""19344""
","
",NA,images/earth.jpg,NA,NA,NA,NA,NA,NA,NA,NA,NA,NA,NA,NA,NA,fixation,NA,NA,NA,NA,NA,NA,sub72
d3-animate-choice,264,936797,0.0-76.0-0.43,FALSE,TRUE,TRUE,FALSE,"""event"",""trial"",""time""
""fullscreenenter"",""5"",""19344""
","
","
","""event"",""trial"",""time""
""fullscreenenter"",""5"",""19344""
","
",351.1250000447035,NA,48,NA,NA,3000,1,NA,NA,images/earth.jpg,images/rocket1,images/rocket2,null,images/rocket1,NA,1,real,null,2,NA,NA,NA,sub72
d3-animate-choice,265,939384,0.0-76.0-1.43,FALSE,TRUE,TRUE,FALSE,"""event"",""trial"",""time""
""fullscreenenter"",""5"",""19344""
","
","
","""event"",""trial"",""time""
""fullscreenenter"",""5"",""19344""
","
",566.1349999718368,NA,49,NA,NA,3000,1,NA,NA,images/redplanet1.jpg,images/alien2,images/alien1,images/rocket1,images/alien1,images/t.png,2,real,true,1,common,1,2020-06-19T16:02:47Z,sub72
two-step-fixation,266,940398,0.0-76.0-2.43,FALSE,TRUE,TRUE,FALSE,"""event"",""trial"",""time""
""fullscreenenter"",""5"",""19344""
","
","
","""event"",""trial"",""time""
""fullscreenenter"",""5"",""19344""
","
",NA,images/earth.jpg,NA,NA,NA,NA,NA,NA,NA,NA,NA,NA,NA,NA,NA,fixation,NA,NA,NA,NA,NA,NA,sub72
d3-animate-choice,267,942714,0.0-76.0-0.44,FALSE,TRUE,TRUE,FALSE,"""event"",""trial"",""time""
""fullscreenenter"",""5"",""19344""
","
","
","""event"",""trial"",""time""
""fullscreenenter"",""5"",""19344""
","
",301.7799999797717,NA,48,NA,NA,3000,1,NA,NA,images/earth.jpg,images/rocket1,images/rocket2,null,images/rocket1,NA,1,real,null,2,NA,NA,NA,sub72
d3-animate-choice,268,945326,0.0-76.0-1.44,FALSE,TRUE,TRUE,FALSE,"""event"",""trial"",""time""
""fullscreenenter"",""5"",""19344""
","
","
","""event"",""trial"",""time""
""fullscreenenter"",""5"",""19344""
","
",601.3100000564009,NA,49,NA,NA,3000,1,NA,NA,images/redplanet1.jpg,images/alien2,images/alien1,images/rocket1,images/alien1,images/nothing.png,2,real,true,1,common,0,2020-06-19T16:02:53Z,sub72
two-step-fixation,269,946340,0.0-76.0-2.44,FALSE,TRUE,TRUE,FALSE,"""event"",""trial"",""time""
""fullscreenenter"",""5"",""19344""
","
","
","""event"",""trial"",""time""
""fullscreenenter"",""5"",""19344""
","
",NA,images/earth.jpg,NA,NA,NA,NA,NA,NA,NA,NA,NA,NA,NA,NA,NA,fixation,NA,NA,NA,NA,NA,NA,sub72
d3-animate-choice,270,948647,0.0-76.0-0.45,FALSE,TRUE,TRUE,FALSE,"""event"",""trial"",""time""
""fullscreenenter"",""5"",""19344""
","
","
","""event"",""trial"",""time""
""fullscreenenter"",""5"",""19344""
","
",296.4650000212714,NA,48,NA,NA,3000,1,NA,NA,images/earth.jpg,images/rocket1,images/rocket2,null,images/rocket1,NA,1,real,null,2,NA,NA,NA,sub72
d3-animate-choice,271,951990,0.0-76.0-1.45,FALSE,TRUE,TRUE,FALSE,"""event"",""trial"",""time""
""fullscreenenter"",""5"",""19344""
","
","
","""event"",""trial"",""time""
""fullscreenenter"",""5"",""19344""
","
",1335.4850000469014,NA,48,NA,NA,3000,1,NA,NA,images/purpleplanet.jpg,images/alien4,images/alien3,images/rocket1,images/alien4,images/nothing.png,2,real,false,2,rare,0,2020-06-19T16:03:00Z,sub72
two-step-fixation,272,952994,0.0-76.0-2.45,FALSE,TRUE,TRUE,FALSE,"""event"",""trial"",""time""
""fullscreenenter"",""5"",""19344""
","
","
","""event"",""trial"",""time""
""fullscreenenter"",""5"",""19344""
","
",NA,images/earth.jpg,NA,NA,NA,NA,NA,NA,NA,NA,NA,NA,NA,NA,NA,fixation,NA,NA,NA,NA,NA,NA,sub72
d3-animate-choice,273,955390,0.0-76.0-0.46,FALSE,TRUE,TRUE,FALSE,"""event"",""trial"",""time""
""fullscreenenter"",""5"",""19344""
","
","
","""event"",""trial"",""time""
""fullscreenenter"",""5"",""19344""
","
",378.2349999528378,NA,48,NA,NA,3000,1,NA,NA,images/earth.jpg,images/rocket1,images/rocket2,null,images/rocket1,NA,1,real,null,2,NA,NA,NA,sub72
d3-animate-choice,274,958489,0.0-76.0-1.46,FALSE,TRUE,TRUE,FALSE,"""event"",""trial"",""time""
""fullscreenenter"",""5"",""19344""
","
","
","""event"",""trial"",""time""
""fullscreenenter"",""5"",""19344""
","
",1082.7549999812618,NA,49,NA,NA,3000,1,NA,NA,images/purpleplanet.jpg,images/alien4,images/alien3,images/rocket1,images/alien3,images/t.png,2,real,false,1,rare,1,2020-06-19T16:03:06Z,sub72
two-step-fixation,275,959500,0.0-76.0-2.46,FALSE,TRUE,TRUE,FALSE,"""event"",""trial"",""time""
""fullscreenenter"",""5"",""19344""
","
","
","""event"",""trial"",""time""
""fullscreenenter"",""5"",""19344""
","
",NA,images/earth.jpg,NA,NA,NA,NA,NA,NA,NA,NA,NA,NA,NA,NA,NA,fixation,NA,NA,NA,NA,NA,NA,sub72
d3-animate-choice,276,961918,0.0-76.0-0.47,FALSE,TRUE,TRUE,FALSE,"""event"",""trial"",""time""
""fullscreenenter"",""5"",""19344""
","
","
","""event"",""trial"",""time""
""fullscreenenter"",""5"",""19344""
","
",403.8450000807643,NA,48,NA,NA,3000,1,NA,NA,images/earth.jpg,images/rocket1,images/rocket2,null,images/rocket1,NA,1,real,null,2,NA,NA,NA,sub72
d3-animate-choice,277,964468,0.0-76.0-1.47,FALSE,TRUE,TRUE,FALSE,"""event"",""trial"",""time""
""fullscreenenter"",""5"",""19344""
","
","
","""event"",""trial"",""time""
""fullscreenenter"",""5"",""19344""
","
",540.8299999544397,NA,49,NA,NA,3000,1,NA,NA,images/purpleplanet.jpg,images/alien4,images/alien3,images/rocket1,images/alien3,images/nothing.png,2,real,false,1,rare,0,2020-06-19T16:03:12Z,sub72
two-step-fixation,278,965481,0.0-76.0-2.47,FALSE,TRUE,TRUE,FALSE,"""event"",""trial"",""time""
""fullscreenenter"",""5"",""19344""
","
","
","""event"",""trial"",""time""
""fullscreenenter"",""5"",""19344""
","
",NA,images/earth.jpg,NA,NA,NA,NA,NA,NA,NA,NA,NA,NA,NA,NA,NA,fixation,NA,NA,NA,NA,NA,NA,sub72
d3-animate-choice,279,967953,0.0-76.0-0.48,FALSE,TRUE,TRUE,FALSE,"""event"",""trial"",""time""
""fullscreenenter"",""5"",""19344""
","
","
","""event"",""trial"",""time""
""fullscreenenter"",""5"",""19344""
","
",462.6699999207631,NA,48,NA,NA,3000,1,NA,NA,images/earth.jpg,images/rocket1,images/rocket2,null,images/rocket1,NA,1,real,null,2,NA,NA,NA,sub72
d3-animate-choice,280,970709,0.0-76.0-1.48,FALSE,TRUE,TRUE,FALSE,"""event"",""trial"",""time""
""fullscreenenter"",""5"",""19344""
","
","
","""event"",""trial"",""time""
""fullscreenenter"",""5"",""19344""
","
",740.6750000081956,NA,49,NA,NA,3000,1,NA,NA,images/redplanet1.jpg,images/alien2,images/alien1,images/rocket1,images/alien1,images/nothing.png,2,real,true,1,common,0,2020-06-19T16:03:18Z,sub72
two-step-fixation,281,971716,0.0-76.0-2.48,FALSE,TRUE,TRUE,FALSE,"""event"",""trial"",""time""
""fullscreenenter"",""5"",""19344""
","
","
","""event"",""trial"",""time""
""fullscreenenter"",""5"",""19344""
","
",NA,images/earth.jpg,NA,NA,NA,NA,NA,NA,NA,NA,NA,NA,NA,NA,NA,fixation,NA,NA,NA,NA,NA,NA,sub72
d3-animate-choice,282,974074,0.0-76.0-0.49,FALSE,TRUE,TRUE,FALSE,"""event"",""trial"",""time""
""fullscreenenter"",""5"",""19344""
","
","
","""event"",""trial"",""time""
""fullscreenenter"",""5"",""19344""
","
",342.6949999993667,NA,48,NA,NA,3000,1,NA,NA,images/earth.jpg,images/rocket1,images/rocket2,null,images/rocket1,NA,1,real,null,2,NA,NA,NA,sub72
d3-animate-choice,283,976646,0.0-76.0-1.49,FALSE,TRUE,TRUE,FALSE,"""event"",""trial"",""time""
""fullscreenenter"",""5"",""19344""
","
","
","""event"",""trial"",""time""
""fullscreenenter"",""5"",""19344""
","
