trial_type,trial_index,time_elapsed,internal_node_id,rocket_sides,red_planet_first_rocket,red_display_order,purple_display_order,interactions,blur_events,focus_events,fullscreenenter_events,fullscreenexit_events,rt,stimulus,key_press,button_pressed,success,duration,valid_pressed,rts,keys,planet_text,right_text,left_text,center_text,chosen_text,reward_text,trial_stage,practice_trial,transition_type,choice,transition,reward,timestamp,subject_id
pavlovia,0,4,0.0-0.0,FALSE,TRUE,TRUE,FALSE,"
","
","
","
","
",NA,NA,NA,NA,NA,NA,NA,NA,NA,NA,NA,NA,NA,NA,NA,NA,NA,NA,NA,NA,NA,NA,sub29
html-keyboard-response,1,2788,0.0-1.0,FALSE,TRUE,TRUE,FALSE,"
","
","
","
","
",2781.7849999992177,Welcome! Press the space bar to begin.,32,NA,NA,NA,NA,NA,NA,NA,NA,NA,NA,NA,NA,NA,NA,NA,NA,NA,NA,NA,sub29
audio-keyboard-response,2,6220,0.0-2.0,FALSE,TRUE,TRUE,FALSE,"
","
","
","
","
",3229,audio/beep_loop.wav,32,NA,NA,NA,NA,NA,NA,NA,NA,NA,NA,NA,NA,NA,NA,NA,NA,NA,NA,NA,sub29
audio-button-response,3,11016,0.0-3.0,FALSE,TRUE,TRUE,FALSE,"
","
","
","
","
",NaN,audio/fish.mp3,NA,1,NA,NA,NA,NA,NA,NA,NA,NA,NA,NA,NA,NA,NA,NA,NA,NA,NA,NA,sub29
audio-button-response,4,13933,0.0-4.0,FALSE,TRUE,TRUE,FALSE,"""event"",""trial"",""time""
""fullscreenenter"",""5"",""17846""
","
","
","""event"",""trial"",""time""
""fullscreenenter"",""5"",""17846""
","
",NaN,audio/tiger.mp3,NA,4,NA,NA,NA,NA,NA,NA,NA,NA,NA,NA,NA,NA,NA,NA,NA,NA,NA,NA,sub29
fullscreen,5,18786,0.0-5.0,FALSE,TRUE,TRUE,FALSE,"""event"",""trial"",""time""
""fullscreenenter"",""5"",""17846""
","
","
","""event"",""trial"",""time""
""fullscreenenter"",""5"",""17846""
","
",NA,NA,NA,NA,TRUE,NA,NA,NA,NA,NA,NA,NA,NA,NA,NA,NA,NA,NA,NA,NA,NA,NA,sub29
d3-instructions,6,32956,0.0-6.0,FALSE,TRUE,TRUE,FALSE,"""event"",""trial"",""time""
""fullscreenenter"",""5"",""17846""
","
","
","""event"",""trial"",""time""
""fullscreenenter"",""5"",""17846""
","
",NA,NA,NA,NA,NA,NA,NA,NA,NA,NA,NA,NA,NA,NA,NA,NA,NA,NA,NA,NA,NA,NA,sub29
d3-instructions,7,41145,0.0-7.0,FALSE,TRUE,TRUE,FALSE,"""event"",""trial"",""time""
""fullscreenenter"",""5"",""17846""
","
","
","""event"",""trial"",""time""
""fullscreenenter"",""5"",""17846""
","
",NA,NA,NA,NA,NA,NA,NA,NA,NA,NA,NA,NA,NA,NA,NA,NA,NA,NA,NA,NA,NA,NA,sub29
d3-instructions,8,49804,0.0-8.0,FALSE,TRUE,TRUE,FALSE,"""event"",""trial"",""time""
""fullscreenenter"",""5"",""17846""
","
","
","""event"",""trial"",""time""
""fullscreenenter"",""5"",""17846""
","
",NA,NA,NA,NA,NA,NA,NA,NA,NA,NA,NA,NA,NA,NA,NA,NA,NA,NA,NA,NA,NA,NA,sub29
d3-instructions,9,61305,0.0-9.0,FALSE,TRUE,TRUE,FALSE,"""event"",""trial"",""time""
""fullscreenenter"",""5"",""17846""
","
","
","""event"",""trial"",""time""
""fullscreenenter"",""5"",""17846""
","
",NA,NA,NA,NA,NA,NA,NA,NA,NA,NA,NA,NA,NA,NA,NA,NA,NA,NA,NA,NA,NA,NA,sub29
d3-instructions,10,81096,0.0-10.0,FALSE,TRUE,TRUE,FALSE,"""event"",""trial"",""time""
""fullscreenenter"",""5"",""17846""
","
","
","""event"",""trial"",""time""
""fullscreenenter"",""5"",""17846""
","
",NA,NA,NA,NA,NA,NA,NA,NA,NA,NA,NA,NA,NA,NA,NA,NA,NA,NA,NA,NA,NA,NA,sub29
d3-animate-choice,11,84929,0.0-11.0,FALSE,TRUE,TRUE,FALSE,"""event"",""trial"",""time""
""fullscreenenter"",""5"",""17846""
","
","
","""event"",""trial"",""time""
""fullscreenenter"",""5"",""17846""
","
",1820.7499999552965,NA,49,NA,NA,3000,1,NA,NA,images/tutgreenplanet.jpg,images/tutalien1,images/tutalien2,null,images/tutalien2,NA,NA,practice,null,NA,NA,NA,NA,sub29
d3-animate-choice,12,86966,0.0-12.0,FALSE,TRUE,TRUE,FALSE,"""event"",""trial"",""time""
""fullscreenenter"",""5"",""17846""
","
","
","""event"",""trial"",""time""
""fullscreenenter"",""5"",""17846""
","
",30.13999998802319,NA,48,NA,NA,3000,1,"668.9599999808706,1591.0999999614432",4948,images/tutgreenplanet.jpg,images/tutalien1,images/tutalien2,null,images/tutalien1,NA,NA,practice,null,NA,NA,NA,NA,sub29
d3-animate-choice,13,89467,0.0-13.0,FALSE,TRUE,TRUE,FALSE,"""event"",""trial"",""time""
""fullscreenenter"",""5"",""17846""
","
","
","""event"",""trial"",""time""
""fullscreenenter"",""5"",""17846""
","
",493.95999999251217,NA,48,NA,NA,3000,1,"623.4149999800138,2084.0099999913946",4949,images/tutgreenplanet.jpg,images/tutalien1,images/tutalien2,null,images/tutalien1,NA,NA,practice,null,NA,NA,NA,NA,sub29
d3-animate-choice,14,91538,0.0-14.0,FALSE,TRUE,TRUE,FALSE,"""event"",""trial"",""time""
""fullscreenenter"",""5"",""17846""
","
","
","""event"",""trial"",""time""
""fullscreenenter"",""5"",""17846""
","
",62.440000008791685,NA,48,NA,NA,3000,1,NA,NA,images/tutgreenplanet.jpg,images/tutalien1,images/tutalien2,null,images/tutalien1,NA,NA,practice,null,NA,NA,NA,NA,sub29
d3-instructions,15,99316,0.0-15.0,FALSE,TRUE,TRUE,FALSE,"""event"",""trial"",""time""
""fullscreenenter"",""5"",""17846""
","
","
","""event"",""trial"",""time""
""fullscreenenter"",""5"",""17846""
","
",NA,NA,NA,NA,NA,NA,NA,NA,NA,NA,NA,NA,NA,NA,NA,NA,NA,NA,NA,NA,NA,NA,sub29
d3-instructions,16,108797,0.0-16.0,FALSE,TRUE,TRUE,FALSE,"""event"",""trial"",""time""
""fullscreenenter"",""5"",""17846""
","
","
","""event"",""trial"",""time""
""fullscreenenter"",""5"",""17846""
","
",NA,NA,NA,NA,NA,NA,NA,NA,NA,NA,NA,NA,NA,NA,NA,NA,NA,NA,NA,NA,NA,NA,sub29
d3-instructions,17,117436,0.0-17.0,FALSE,TRUE,TRUE,FALSE,"""event"",""trial"",""time""
""fullscreenenter"",""5"",""17846""
","
","
","""event"",""trial"",""time""
""fullscreenenter"",""5"",""17846""
","
",NA,NA,NA,NA,NA,NA,NA,NA,NA,NA,NA,NA,NA,NA,NA,NA,NA,NA,NA,NA,NA,NA,sub29
d3-instructions,18,130838,0.0-18.0,FALSE,TRUE,TRUE,FALSE,"""event"",""trial"",""time""
""fullscreenenter"",""5"",""17846""
","
","
","""event"",""trial"",""time""
""fullscreenenter"",""5"",""17846""
","
",NA,NA,NA,NA,NA,NA,NA,NA,NA,NA,NA,NA,NA,NA,NA,NA,NA,NA,NA,NA,NA,NA,sub29
d3-instructions,19,147286,0.0-19.0,FALSE,TRUE,TRUE,FALSE,"""event"",""trial"",""time""
""fullscreenenter"",""5"",""17846""
","
","
","""event"",""trial"",""time""
""fullscreenenter"",""5"",""17846""
","
",NA,NA,NA,NA,NA,NA,NA,NA,NA,NA,NA,NA,NA,NA,NA,NA,NA,NA,NA,NA,NA,NA,sub29
d3-animate-choice,20,150678,0.0-20.0,FALSE,TRUE,TRUE,FALSE,"""event"",""trial"",""time""
""fullscreenenter"",""5"",""17846""
","
","
","""event"",""trial"",""time""
""fullscreenenter"",""5"",""17846""
","
",1385.0350000429899,NA,49,NA,NA,3000,1,"1615.460000000894,1815.535000001546,2005.3049999987707,2215.3399999951944",49494949,images/tutyellowplanet.jpg,null,images/tutalien3,null,images/tutalien3,images/t.png,NA,practice,null,NA,NA,NA,NA,sub29
d3-animate-choice,21,153198,0.0-21.0,FALSE,TRUE,TRUE,FALSE,"""event"",""trial"",""time""
""fullscreenenter"",""5"",""17846""
","
","
","""event"",""trial"",""time""
""fullscreenenter"",""5"",""17846""
","
",513.6000000056811,NA,49,NA,NA,3000,1,NA,NA,images/tutyellowplanet.jpg,null,images/tutalien3,null,images/tutalien3,images/t.png,NA,practice,null,NA,NA,NA,NA,sub29
d3-animate-choice,22,155708,0.0-22.0,FALSE,TRUE,TRUE,FALSE,"""event"",""trial"",""time""
""fullscreenenter"",""5"",""17846""
","
","
","""event"",""trial"",""time""
""fullscreenenter"",""5"",""17846""
","
",505.4799999925308,NA,49,NA,NA,3000,1,NA,NA,images/tutyellowplanet.jpg,null,images/tutalien3,null,images/tutalien3,images/t.png,NA,practice,null,NA,NA,NA,NA,sub29
d3-animate-choice,23,158039,0.0-23.0,FALSE,TRUE,TRUE,FALSE,"""event"",""trial"",""time""
""fullscreenenter"",""5"",""17846""
","
","
","""event"",""trial"",""time""
""fullscreenenter"",""5"",""17846""
","
",324.33500001206994,NA,49,NA,NA,3000,1,NA,NA,images/tutyellowplanet.jpg,null,images/tutalien3,null,images/tutalien3,images/t.png,NA,practice,null,NA,NA,NA,NA,sub29
d3-animate-choice,24,160386,0.0-24.0,FALSE,TRUE,TRUE,FALSE,"""event"",""trial"",""time""
""fullscreenenter"",""5"",""17846""
","
","
","""event"",""trial"",""time""
""fullscreenenter"",""5"",""17846""
","
",341.48000000277534,NA,49,NA,NA,3000,1,NA,NA,images/tutyellowplanet.jpg,null,images/tutalien3,null,images/tutalien3,images/t.png,NA,practice,null,NA,NA,NA,NA,sub29
d3-animate-choice,25,162438,0.0-25.0,FALSE,TRUE,TRUE,FALSE,"""event"",""trial"",""time""
""fullscreenenter"",""5"",""17846""
","
","
","""event"",""trial"",""time""
""fullscreenenter"",""5"",""17846""
","
",46.990000002551824,NA,49,NA,NA,3000,1,"1296.6149999992922,1986.655000015162",4949,images/tutyellowplanet.jpg,null,images/tutalien3,null,images/tutalien3,images/t.png,NA,practice,null,NA,NA,NA,NA,sub29
d3-animate-choice,26,164958,0.0-26.0,FALSE,TRUE,TRUE,FALSE,"""event"",""trial"",""time""
""fullscreenenter"",""5"",""17846""
","
","
","""event"",""trial"",""time""
""fullscreenenter"",""5"",""17846""
","
",513.7650000397116,NA,49,NA,NA,3000,1,NA,NA,images/tutyellowplanet.jpg,null,images/tutalien3,null,images/tutalien3,images/t.png,NA,practice,null,NA,NA,NA,NA,sub29
d3-animate-choice,27,167059,0.0-27.0,FALSE,TRUE,TRUE,FALSE,"""event"",""trial"",""time""
""fullscreenenter"",""5"",""17846""
","
","
","""event"",""trial"",""time""
""fullscreenenter"",""5"",""17846""
","
",93.51000003516674,NA,49,NA,NA,3000,1,NA,NA,images/tutyellowplanet.jpg,null,images/tutalien3,null,images/tutalien3,images/t.png,NA,practice,null,NA,NA,NA,NA,sub29
d3-animate-choice,28,169187,0.0-28.0,FALSE,TRUE,TRUE,FALSE,"""event"",""trial"",""time""
""fullscreenenter"",""5"",""17846""
","
","
","""event"",""trial"",""time""
""fullscreenenter"",""5"",""17846""
","
",123.54000000050291,NA,49,NA,NA,3000,1,NA,NA,images/tutyellowplanet.jpg,null,images/tutalien3,null,images/tutalien3,images/t.png,NA,practice,null,NA,NA,NA,NA,sub29
d3-animate-choice,29,171408,0.0-29.0,FALSE,TRUE,TRUE,FALSE,"""event"",""trial"",""time""
""fullscreenenter"",""5"",""17846""
","
","
","""event"",""trial"",""time""
""fullscreenenter"",""5"",""17846""
","
",217.3849999671802,NA,49,NA,NA,3000,1,2096.2350000045262,49,images/tutyellowplanet.jpg,null,images/tutalien3,null,images/tutalien3,images/t.png,NA,practice,null,NA,NA,NA,NA,sub29
d3-instructions,30,179889,0.0-30.0,FALSE,TRUE,TRUE,FALSE,"""event"",""trial"",""time""
""fullscreenenter"",""5"",""17846""
","
","
","""event"",""trial"",""time""
""fullscreenenter"",""5"",""17846""
","
",NA,NA,NA,NA,NA,NA,NA,NA,NA,NA,NA,NA,NA,NA,NA,NA,NA,NA,NA,NA,NA,NA,sub29
d3-instructions,31,190347,0.0-31.0,FALSE,TRUE,TRUE,FALSE,"""event"",""trial"",""time""
""fullscreenenter"",""5"",""17846""
","
","
","""event"",""trial"",""time""
""fullscreenenter"",""5"",""17846""
","
",NA,NA,NA,NA,NA,NA,NA,NA,NA,NA,NA,NA,NA,NA,NA,NA,NA,NA,NA,NA,NA,NA,sub29
d3-instructions,32,199134,0.0-32.0,FALSE,TRUE,TRUE,FALSE,"""event"",""trial"",""time""
""fullscreenenter"",""5"",""17846""
","
","
","""event"",""trial"",""time""
""fullscreenenter"",""5"",""17846""
","
",NA,NA,NA,NA,NA,NA,NA,NA,NA,NA,NA,NA,NA,NA,NA,NA,NA,NA,NA,NA,NA,NA,sub29
d3-instructions,33,211380,0.0-33.0,FALSE,TRUE,TRUE,FALSE,"""event"",""trial"",""time""
""fullscreenenter"",""5"",""17846""
","
","
","""event"",""trial"",""time""
""fullscreenenter"",""5"",""17846""
","
",NA,NA,NA,NA,NA,NA,NA,NA,NA,NA,NA,NA,NA,NA,NA,NA,NA,NA,NA,NA,NA,NA,sub29
d3-animate-choice,34,215200,0.0-34.0,FALSE,TRUE,TRUE,FALSE,"""event"",""trial"",""time""
""fullscreenenter"",""5"",""17846""
","
","
","""event"",""trial"",""time""
""fullscreenenter"",""5"",""17846""
","
",1813.704999978654,NA,48,NA,NA,3000,1,NA,NA,images/tutgreenplanet.jpg,images/tutalien1,images/tutalien2,null,images/tutalien1,images/nothing.png,NA,practice,null,NA,NA,NA,NA,sub29
d3-animate-choice,35,217780,0.0-35.0,FALSE,TRUE,TRUE,FALSE,"""event"",""trial"",""time""
""fullscreenenter"",""5"",""17846""
","
","
","""event"",""trial"",""time""
""fullscreenenter"",""5"",""17846""
","
",573.595000023488,NA,48,NA,NA,3000,1,NA,NA,images/tutgreenplanet.jpg,images/tutalien1,images/tutalien2,null,images/tutalien1,images/nothing.png,NA,practice,null,NA,NA,NA,NA,sub29
d3-animate-choice,36,220169,0.0-36.0,FALSE,TRUE,TRUE,FALSE,"""event"",""trial"",""time""
""fullscreenenter"",""5"",""17846""
","
","
","""event"",""trial"",""time""
""fullscreenenter"",""5"",""17846""
","
",383.13999999081716,NA,49,NA,NA,3000,1,NA,NA,images/tutgreenplanet.jpg,images/tutalien1,images/tutalien2,null,images/tutalien2,images/t.png,NA,practice,null,NA,NA,NA,NA,sub29
d3-animate-choice,37,222527,0.0-37.0,FALSE,TRUE,TRUE,FALSE,"""event"",""trial"",""time""
""fullscreenenter"",""5"",""17846""
","
","
","""event"",""trial"",""time""
""fullscreenenter"",""5"",""17846""
","
",352.4600000237115,NA,49,NA,NA,3000,1,NA,NA,images/tutgreenplanet.jpg,images/tutalien1,images/tutalien2,null,images/tutalien2,images/t.png,NA,practice,null,NA,NA,NA,NA,sub29
d3-animate-choice,38,224970,0.0-38.0,FALSE,TRUE,TRUE,FALSE,"""event"",""trial"",""time""
""fullscreenenter"",""5"",""17846""
","
","
","""event"",""trial"",""time""
""fullscreenenter"",""5"",""17846""
","
",437.1849999879487,NA,48,NA,NA,3000,1,NA,NA,images/tutgreenplanet.jpg,images/tutalien1,images/tutalien2,null,images/tutalien1,images/nothing.png,NA,practice,null,NA,NA,NA,NA,sub29
d3-animate-choice,39,227470,0.0-39.0,FALSE,TRUE,TRUE,FALSE,"""event"",""trial"",""time""
""fullscreenenter"",""5"",""17846""
","
","
","""event"",""trial"",""time""
""fullscreenenter"",""5"",""17846""
","
",493.2799999951385,NA,49,NA,NA,3000,1,NA,NA,images/tutgreenplanet.jpg,images/tutalien1,images/tutalien2,null,images/tutalien2,images/t.png,NA,practice,null,NA,NA,NA,NA,sub29
d3-animate-choice,40,229829,0.0-40.0,FALSE,TRUE,TRUE,FALSE,"""event"",""trial"",""time""
""fullscreenenter"",""5"",""17846""
","
","
","""event"",""trial"",""time""
""fullscreenenter"",""5"",""17846""
","
",353.07499999180436,NA,49,NA,NA,3000,1,NA,NA,images/tutgreenplanet.jpg,images/tutalien1,images/tutalien2,null,images/tutalien2,images/t.png,NA,practice,null,NA,NA,NA,NA,sub29
d3-animate-choice,41,232160,0.0-41.0,FALSE,TRUE,TRUE,FALSE,"""event"",""trial"",""time""
""fullscreenenter"",""5"",""17846""
","
","
","""event"",""trial"",""time""
""fullscreenenter"",""5"",""17846""
","
",324.8200000380166,NA,49,NA,NA,3000,1,NA,NA,images/tutgreenplanet.jpg,images/tutalien1,images/tutalien2,null,images/tutalien2,images/t.png,NA,practice,null,NA,NA,NA,NA,sub29
d3-animate-choice,42,234521,0.0-42.0,FALSE,TRUE,TRUE,FALSE,"""event"",""trial"",""time""
""fullscreenenter"",""5"",""17846""
","
","
","""event"",""trial"",""time""
""fullscreenenter"",""5"",""17846""
","
",355.44999997364357,NA,49,NA,NA,3000,1,NA,NA,images/tutgreenplanet.jpg,images/tutalien1,images/tutalien2,null,images/tutalien2,images/t.png,NA,practice,null,NA,NA,NA,NA,sub29
d3-animate-choice,43,236890,0.0-43.0,FALSE,TRUE,TRUE,FALSE,"""event"",""trial"",""time""
""fullscreenenter"",""5"",""17846""
","
","
","""event"",""trial"",""time""
""fullscreenenter"",""5"",""17846""
","
",364.48499996913597,NA,49,NA,NA,3000,1,NA,NA,images/tutgreenplanet.jpg,images/tutalien1,images/tutalien2,null,images/tutalien2,images/t.png,NA,practice,null,NA,NA,NA,NA,sub29
d3-instructions,44,251488,0.0-44.0,FALSE,TRUE,TRUE,FALSE,"""event"",""trial"",""time""
""fullscreenenter"",""5"",""17846""
","
","
","""event"",""trial"",""time""
""fullscreenenter"",""5"",""17846""
","
",NA,NA,NA,NA,NA,NA,NA,NA,NA,NA,NA,NA,NA,NA,NA,NA,NA,NA,NA,NA,NA,NA,sub29
d3-instructions,45,258700,0.0-45.0,FALSE,TRUE,TRUE,FALSE,"""event"",""trial"",""time""
""fullscreenenter"",""5"",""17846""
","
","
","""event"",""trial"",""time""
""fullscreenenter"",""5"",""17846""
","
",NA,NA,NA,NA,NA,NA,NA,NA,NA,NA,NA,NA,NA,NA,NA,NA,NA,NA,NA,NA,NA,NA,sub29
d3-instructions,46,263601,0.0-46.0,FALSE,TRUE,TRUE,FALSE,"""event"",""trial"",""time""
""fullscreenenter"",""5"",""17846""
","
","
","""event"",""trial"",""time""
""fullscreenenter"",""5"",""17846""
","
",NA,NA,NA,NA,NA,NA,NA,NA,NA,NA,NA,NA,NA,NA,NA,NA,NA,NA,NA,NA,NA,NA,sub29
d3-instructions,47,280620,0.0-47.0,FALSE,TRUE,TRUE,FALSE,"""event"",""trial"",""time""
""fullscreenenter"",""5"",""17846""
","
","
","""event"",""trial"",""time""
""fullscreenenter"",""5"",""17846""
","
",NA,NA,NA,NA,NA,NA,NA,NA,NA,NA,NA,NA,NA,NA,NA,NA,NA,NA,NA,NA,NA,NA,sub29
d3-instructions,48,287331,0.0-48.0,FALSE,TRUE,TRUE,FALSE,"""event"",""trial"",""time""
""fullscreenenter"",""5"",""17846""
","
","
","""event"",""trial"",""time""
""fullscreenenter"",""5"",""17846""
","
",NA,NA,NA,NA,NA,NA,NA,NA,NA,NA,NA,NA,NA,NA,NA,NA,NA,NA,NA,NA,NA,NA,sub29
d3-instructions,49,299682,0.0-49.0,FALSE,TRUE,TRUE,FALSE,"""event"",""trial"",""time""
""fullscreenenter"",""5"",""17846""
","
","
","""event"",""trial"",""time""
""fullscreenenter"",""5"",""17846""
","
",NA,NA,NA,NA,NA,NA,NA,NA,NA,NA,NA,NA,NA,NA,NA,NA,NA,NA,NA,NA,NA,NA,sub29
d3-instructions,50,309179,0.0-50.0,FALSE,TRUE,TRUE,FALSE,"""event"",""trial"",""time""
""fullscreenenter"",""5"",""17846""
","
","
","""event"",""trial"",""time""
""fullscreenenter"",""5"",""17846""
","
",NA,NA,NA,NA,NA,NA,NA,NA,NA,NA,NA,NA,NA,NA,NA,NA,NA,NA,NA,NA,NA,NA,sub29
d3-instructions,51,312941,0.0-51.0,FALSE,TRUE,TRUE,FALSE,"""event"",""trial"",""time""
""fullscreenenter"",""5"",""17846""
","
","
","""event"",""trial"",""time""
""fullscreenenter"",""5"",""17846""
","
",NA,NA,NA,NA,NA,NA,NA,NA,NA,NA,NA,NA,NA,NA,NA,NA,NA,NA,NA,NA,NA,NA,sub29
d3-instructions,52,316412,0.0-52.0,FALSE,TRUE,TRUE,FALSE,"""event"",""trial"",""time""
""fullscreenenter"",""5"",""17846""
","
","
","""event"",""trial"",""time""
""fullscreenenter"",""5"",""17846""
","
",NA,NA,NA,NA,NA,NA,NA,NA,NA,NA,NA,NA,NA,NA,NA,NA,NA,NA,NA,NA,NA,NA,sub29
d3-instructions,53,327932,0.0-53.0,FALSE,TRUE,TRUE,FALSE,"""event"",""trial"",""time""
""fullscreenenter"",""5"",""17846""
","
","
","""event"",""trial"",""time""
""fullscreenenter"",""5"",""17846""
","
",NA,NA,NA,NA,NA,NA,NA,NA,NA,NA,NA,NA,NA,NA,NA,NA,NA,NA,NA,NA,NA,NA,sub29
d3-instructions,54,341641,0.0-54.0,FALSE,TRUE,TRUE,FALSE,"""event"",""trial"",""time""
""fullscreenenter"",""5"",""17846""
","
","
","""event"",""trial"",""time""
""fullscreenenter"",""5"",""17846""
","
",NA,NA,NA,NA,NA,NA,NA,NA,NA,NA,NA,NA,NA,NA,NA,NA,NA,NA,NA,NA,NA,NA,sub29
d3-instructions,55,351792,0.0-55.0,FALSE,TRUE,TRUE,FALSE,"""event"",""trial"",""time""
""fullscreenenter"",""5"",""17846""
","
","
","""event"",""trial"",""time""
""fullscreenenter"",""5"",""17846""
","
",NA,NA,NA,NA,NA,NA,NA,NA,NA,NA,NA,NA,NA,NA,NA,NA,NA,NA,NA,NA,NA,NA,sub29
d3-instructions,56,360042,0.0-56.0,FALSE,TRUE,TRUE,FALSE,"""event"",""trial"",""time""
""fullscreenenter"",""5"",""17846""
","
","
","""event"",""trial"",""time""
""fullscreenenter"",""5"",""17846""
","
",NA,NA,NA,NA,NA,NA,NA,NA,NA,NA,NA,NA,NA,NA,NA,NA,NA,NA,NA,NA,NA,NA,sub29
d3-instructions,57,372573,0.0-57.0,FALSE,TRUE,TRUE,FALSE,"""event"",""trial"",""time""
""fullscreenenter"",""5"",""17846""
","
","
","""event"",""trial"",""time""
""fullscreenenter"",""5"",""17846""
","
",NA,NA,NA,NA,NA,NA,NA,NA,NA,NA,NA,NA,NA,NA,NA,NA,NA,NA,NA,NA,NA,NA,sub29
d3-instructions,58,383403,0.0-58.0,FALSE,TRUE,TRUE,FALSE,"""event"",""trial"",""time""
""fullscreenenter"",""5"",""17846""
","
","
","""event"",""trial"",""time""
""fullscreenenter"",""5"",""17846""
","
",NA,NA,NA,NA,NA,NA,NA,NA,NA,NA,NA,NA,NA,NA,NA,NA,NA,NA,NA,NA,NA,NA,sub29
d3-instructions,59,387962,0.0-59.0,FALSE,TRUE,TRUE,FALSE,"""event"",""trial"",""time""
""fullscreenenter"",""5"",""17846""
","
","
","""event"",""trial"",""time""
""fullscreenenter"",""5"",""17846""
","
",NA,NA,NA,NA,NA,NA,NA,NA,NA,NA,NA,NA,NA,NA,NA,NA,NA,NA,NA,NA,NA,NA,sub29
d3-instructions,60,395334,0.0-60.0,FALSE,TRUE,TRUE,FALSE,"""event"",""trial"",""time""
""fullscreenenter"",""5"",""17846""
","
","
","""event"",""trial"",""time""
""fullscreenenter"",""5"",""17846""
","
",NA,NA,NA,NA,NA,NA,NA,NA,NA,NA,NA,NA,NA,NA,NA,NA,NA,NA,NA,NA,NA,NA,sub29
d3-animate-choice,61,398294,0.0-61.0-0.0,FALSE,TRUE,TRUE,FALSE,"""event"",""trial"",""time""
""fullscreenenter"",""5"",""17846""
","
","
","""event"",""trial"",""time""
""fullscreenenter"",""5"",""17846""
","
",950.8249999489635,NA,49,NA,NA,3000,1,NA,NA,images/earth.jpg,images/tutrocket2,images/tutrocket1,null,images/tutrocket1,NA,1,practice,null,1,NA,NA,NA,sub29
d3-animate-choice,62,401939,0.0-61.0-1.0,FALSE,TRUE,TRUE,FALSE,"""event"",""trial"",""time""
""fullscreenenter"",""5"",""17846""
","
","
","""event"",""trial"",""time""
""fullscreenenter"",""5"",""17846""
","
",1631.4750000019558,NA,49,NA,NA,3000,1,NA,NA,images/tutgreenplanet.jpg,images/tutalien2,images/tutalien1,images/tutrocket1,images/tutalien1,images/t.png,2,practice,true,1,common,1,2020-06-12T20:03:36Z,sub29
two-step-fixation,63,402950,0.0-61.0-2.0,FALSE,TRUE,TRUE,FALSE,"""event"",""trial"",""time""
""fullscreenenter"",""5"",""17846""
","
","
","""event"",""trial"",""time""
""fullscreenenter"",""5"",""17846""
","
",NA,images/earth.jpg,NA,NA,NA,NA,NA,NA,NA,NA,NA,NA,NA,NA,NA,fixation,NA,NA,NA,NA,NA,NA,sub29
d3-animate-choice,64,405865,0.0-61.0-0.1,FALSE,TRUE,TRUE,FALSE,"""event"",""trial"",""time""
""fullscreenenter"",""5"",""17846""
","
","
","""event"",""trial"",""time""
""fullscreenenter"",""5"",""17846""
","
",906.810000014957,NA,48,NA,NA,3000,1,NA,NA,images/earth.jpg,images/tutrocket2,images/tutrocket1,null,images/tutrocket2,NA,1,practice,null,2,NA,NA,NA,sub29
d3-animate-choice,65,408836,0.0-61.0-1.1,FALSE,TRUE,TRUE,FALSE,"""event"",""trial"",""time""
""fullscreenenter"",""5"",""17846""
","
","
","""event"",""trial"",""time""
""fullscreenenter"",""5"",""17846""
","
",965.8349999808706,NA,49,NA,NA,3000,1,NA,NA,images/tutgreenplanet.jpg,images/tutalien2,images/tutalien1,images/tutrocket2,images/tutalien1,images/nothing.png,2,practice,false,1,rare,0,2020-06-12T20:03:43Z,sub29
two-step-fixation,66,409843,0.0-61.0-2.1,FALSE,TRUE,TRUE,FALSE,"""event"",""trial"",""time""
""fullscreenenter"",""5"",""17846""
","
","
","""event"",""trial"",""time""
""fullscreenenter"",""5"",""17846""
","
",NA,images/earth.jpg,NA,NA,NA,NA,NA,NA,NA,NA,NA,NA,NA,NA,NA,fixation,NA,NA,NA,NA,NA,NA,sub29
d3-animate-choice,67,412485,0.0-61.0-0.2,FALSE,TRUE,TRUE,FALSE,"""event"",""trial"",""time""
""fullscreenenter"",""5"",""17846""
","
","
","""event"",""trial"",""time""
""fullscreenenter"",""5"",""17846""
","
",634.1100000427105,NA,48,NA,NA,3000,1,NA,NA,images/earth.jpg,images/tutrocket2,images/tutrocket1,null,images/tutrocket2,NA,1,practice,null,2,NA,NA,NA,sub29
d3-animate-choice,68,415214,0.0-61.0-1.2,FALSE,TRUE,TRUE,FALSE,"""event"",""trial"",""time""
""fullscreenenter"",""5"",""17846""
","
","
","""event"",""trial"",""time""
""fullscreenenter"",""5"",""17846""
","
",722.00500004692,NA,49,NA,NA,3000,1,NA,NA,images/tutgreenplanet.jpg,images/tutalien2,images/tutalien1,images/tutrocket2,images/tutalien1,images/nothing.png,2,practice,false,1,rare,0,2020-06-12T20:03:49Z,sub29
two-step-fixation,69,416223,0.0-61.0-2.2,FALSE,TRUE,TRUE,FALSE,"""event"",""trial"",""time""
""fullscreenenter"",""5"",""17846""
","
","
","""event"",""trial"",""time""
""fullscreenenter"",""5"",""17846""
","
",NA,images/earth.jpg,NA,NA,NA,NA,NA,NA,NA,NA,NA,NA,NA,NA,NA,fixation,NA,NA,NA,NA,NA,NA,sub29
d3-animate-choice,70,418732,0.0-61.0-0.3,FALSE,TRUE,TRUE,FALSE,"""event"",""trial"",""time""
""fullscreenenter"",""5"",""17846""
","
","
","""event"",""trial"",""time""
""fullscreenenter"",""5"",""17846""
","
",503.04000003961846,NA,49,NA,NA,3000,1,NA,NA,images/earth.jpg,images/tutrocket2,images/tutrocket1,null,images/tutrocket1,NA,1,practice,null,1,NA,NA,NA,sub29
d3-animate-choice,71,421705,0.0-61.0-1.3,FALSE,TRUE,TRUE,FALSE,"""event"",""trial"",""time""
""fullscreenenter"",""5"",""17846""
","
","
","""event"",""trial"",""time""
""fullscreenenter"",""5"",""17846""
","
",967.4699999741279,NA,48,NA,NA,3000,1,NA,NA,images/tutyellowplanet.jpg,images/tutalien4,images/tutalien3,images/tutrocket1,images/tutalien4,images/nothing.png,2,practice,false,2,rare,0,2020-06-12T20:03:56Z,sub29
two-step-fixation,72,422715,0.0-61.0-2.3,FALSE,TRUE,TRUE,FALSE,"""event"",""trial"",""time""
""fullscreenenter"",""5"",""17846""
","
","
","""event"",""trial"",""time""
""fullscreenenter"",""5"",""17846""
","
",NA,images/earth.jpg,NA,NA,NA,NA,NA,NA,NA,NA,NA,NA,NA,NA,NA,fixation,NA,NA,NA,NA,NA,NA,sub29
d3-animate-choice,73,425093,0.0-61.0-0.4,FALSE,TRUE,TRUE,FALSE,"""event"",""trial"",""time""
""fullscreenenter"",""5"",""17846""
","
","
","""event"",""trial"",""time""
""fullscreenenter"",""5"",""17846""
","
",369.3249999778345,NA,49,NA,NA,3000,1,NA,NA,images/earth.jpg,images/tutrocket2,images/tutrocket1,null,images/tutrocket1,NA,1,practice,null,1,NA,NA,NA,sub29
d3-animate-choice,74,427914,0.0-61.0-1.4,FALSE,TRUE,TRUE,FALSE,"""event"",""trial"",""time""
""fullscreenenter"",""5"",""17846""
","
","
","""event"",""trial"",""time""
""fullscreenenter"",""5"",""17846""
","
",813.6750000412576,NA,48,NA,NA,3000,1,NA,NA,images/tutgreenplanet.jpg,images/tutalien2,images/tutalien1,images/tutrocket1,images/tutalien2,images/nothing.png,2,practice,true,2,common,0,2020-06-12T20:04:02Z,sub29
two-step-fixation,75,428920,0.0-61.0-2.4,FALSE,TRUE,TRUE,FALSE,"""event"",""trial"",""time""
""fullscreenenter"",""5"",""17846""
","
","
","""event"",""trial"",""time""
""fullscreenenter"",""5"",""17846""
","
",NA,images/earth.jpg,NA,NA,NA,NA,NA,NA,NA,NA,NA,NA,NA,NA,NA,fixation,NA,NA,NA,NA,NA,NA,sub29
d3-animate-choice,76,431504,0.0-61.0-0.5,FALSE,TRUE,TRUE,FALSE,"""event"",""trial"",""time""
""fullscreenenter"",""5"",""17846""
","
","
","""event"",""trial"",""time""
""fullscreenenter"",""5"",""17846""
","
",578.1199999619275,NA,48,NA,NA,3000,1,NA,NA,images/earth.jpg,images/tutrocket2,images/tutrocket1,null,images/tutrocket2,NA,1,practice,null,2,NA,NA,NA,sub29
d3-animate-choice,77,434255,0.0-61.0-1.5,FALSE,TRUE,TRUE,FALSE,"""event"",""trial"",""time""
""fullscreenenter"",""5"",""17846""
","
","
","""event"",""trial"",""time""
""fullscreenenter"",""5"",""17846""
","
",743.6050000251271,NA,49,NA,NA,3000,1,NA,NA,images/tutyellowplanet.jpg,images/tutalien4,images/tutalien3,images/tutrocket2,images/tutalien3,images/nothing.png,2,practice,true,1,common,0,2020-06-12T20:04:08Z,sub29
two-step-fixation,78,435263,0.0-61.0-2.5,FALSE,TRUE,TRUE,FALSE,"""event"",""trial"",""time""
""fullscreenenter"",""5"",""17846""
","
","
","""event"",""trial"",""time""
""fullscreenenter"",""5"",""17846""
","
",NA,images/earth.jpg,NA,NA,NA,NA,NA,NA,NA,NA,NA,NA,NA,NA,NA,fixation,NA,NA,NA,NA,NA,NA,sub29
d3-animate-choice,79,437704,0.0-61.0-0.6,FALSE,TRUE,TRUE,FALSE,"""event"",""trial"",""time""
""fullscreenenter"",""5"",""17846""
","
","
","""event"",""trial"",""time""
""fullscreenenter"",""5"",""17846""
","
",434.5599999651313,NA,49,NA,NA,3000,1,NA,NA,images/earth.jpg,images/tutrocket2,images/tutrocket1,null,images/tutrocket1,NA,1,practice,null,1,NA,NA,NA,sub29
d3-animate-choice,80,440275,0.0-61.0-1.6,FALSE,TRUE,TRUE,FALSE,"""event"",""trial"",""time""
""fullscreenenter"",""5"",""17846""
","
","
","""event"",""trial"",""time""
""fullscreenenter"",""5"",""17846""
","
",564.6650000126101,NA,49,NA,NA,3000,1,NA,NA,images/tutgreenplanet.jpg,images/tutalien2,images/tutalien1,images/tutrocket1,images/tutalien1,images/nothing.png,2,practice,true,1,common,0,2020-06-12T20:04:14Z,sub29
two-step-fixation,81,441280,0.0-61.0-2.6,FALSE,TRUE,TRUE,FALSE,"""event"",""trial"",""time""
""fullscreenenter"",""5"",""17846""
","
","
","""event"",""trial"",""time""
""fullscreenenter"",""5"",""17846""
","
",NA,images/earth.jpg,NA,NA,NA,NA,NA,NA,NA,NA,NA,NA,NA,NA,NA,fixation,NA,NA,NA,NA,NA,NA,sub29
d3-animate-choice,82,443835,0.0-61.0-0.7,FALSE,TRUE,TRUE,FALSE,"""event"",""trial"",""time""
""fullscreenenter"",""5"",""17846""
","
","
","""event"",""trial"",""time""
""fullscreenenter"",""5"",""17846""
","
",548.3349999994971,NA,48,NA,NA,3000,1,NA,NA,images/earth.jpg,images/tutrocket2,images/tutrocket1,null,images/tutrocket2,NA,1,practice,null,2,NA,NA,NA,sub29
d3-animate-choice,83,446555,0.0-61.0-1.7,FALSE,TRUE,TRUE,FALSE,"""event"",""trial"",""time""
""fullscreenenter"",""5"",""17846""
","
","
","""event"",""trial"",""time""
""fullscreenenter"",""5"",""17846""
","
",713.7399999774061,NA,48,NA,NA,3000,1,NA,NA,images/tutgreenplanet.jpg,images/tutalien2,images/tutalien1,images/tutrocket2,images/tutalien2,images/nothing.png,2,practice,false,2,rare,0,2020-06-12T20:04:21Z,sub29
two-step-fixation,84,447561,0.0-61.0-2.7,FALSE,TRUE,TRUE,FALSE,"""event"",""trial"",""time""
""fullscreenenter"",""5"",""17846""
","
","
","""event"",""trial"",""time""
""fullscreenenter"",""5"",""17846""
","
",NA,images/earth.jpg,NA,NA,NA,NA,NA,NA,NA,NA,NA,NA,NA,NA,NA,fixation,NA,NA,NA,NA,NA,NA,sub29
d3-animate-choice,85,450073,0.0-61.0-0.8,FALSE,TRUE,TRUE,FALSE,"""event"",""trial"",""time""
""fullscreenenter"",""5"",""17846""
","
","
","""event"",""trial"",""time""
""fullscreenenter"",""5"",""17846""
","
",506.2099999631755,NA,49,NA,NA,3000,1,NA,NA,images/earth.jpg,images/tutrocket2,images/tutrocket1,null,images/tutrocket1,NA,1,practice,null,1,NA,NA,NA,sub29
d3-animate-choice,86,452755,0.0-61.0-1.8,FALSE,TRUE,TRUE,FALSE,"""event"",""trial"",""time""
""fullscreenenter"",""5"",""17846""
","
","
","""event"",""trial"",""time""
""fullscreenenter"",""5"",""17846""
","
",675.8499999996275,NA,48,NA,NA,3000,1,NA,NA,images/tutyellowplanet.jpg,images/tutalien4,images/tutalien3,images/tutrocket1,images/tutalien4,images/nothing.png,2,practice,false,2,rare,0,2020-06-12T20:04:27Z,sub29
two-step-fixation,87,453762,0.0-61.0-2.8,FALSE,TRUE,TRUE,FALSE,"""event"",""trial"",""time""
""fullscreenenter"",""5"",""17846""
","
","
","""event"",""trial"",""time""
""fullscreenenter"",""5"",""17846""
","
",NA,images/earth.jpg,NA,NA,NA,NA,NA,NA,NA,NA,NA,NA,NA,NA,NA,fixation,NA,NA,NA,NA,NA,NA,sub29
d3-animate-choice,88,456262,0.0-61.0-0.9,FALSE,TRUE,TRUE,FALSE,"""event"",""trial"",""time""
""fullscreenenter"",""5"",""17846""
","
","
","""event"",""trial"",""time""
""fullscreenenter"",""5"",""17846""
","
",494.1400000243448,NA,49,NA,NA,3000,1,NA,NA,images/earth.jpg,images/tutrocket2,images/tutrocket1,null,images/tutrocket1,NA,1,practice,null,1,NA,NA,NA,sub29
d3-animate-choice,89,458766,0.0-61.0-1.9,FALSE,TRUE,TRUE,FALSE,"""event"",""trial"",""time""
""fullscreenenter"",""5"",""17846""
","
","
","""event"",""trial"",""time""
""fullscreenenter"",""5"",""17846""
","
",499.3300000205636,NA,48,NA,NA,3000,1,NA,NA,images/tutgreenplanet.jpg,images/tutalien2,images/tutalien1,images/tutrocket1,images/tutalien2,images/nothing.png,2,practice,true,2,common,0,2020-06-12T20:04:33Z,sub29
two-step-fixation,90,459772,0.0-61.0-2.9,FALSE,TRUE,TRUE,FALSE,"""event"",""trial"",""time""
""fullscreenenter"",""5"",""17846""
","
","
","""event"",""trial"",""time""
""fullscreenenter"",""5"",""17846""
","
",NA,images/earth.jpg,NA,NA,NA,NA,NA,NA,NA,NA,NA,NA,NA,NA,NA,fixation,NA,NA,NA,NA,NA,NA,sub29
d3-animate-choice,91,462273,0.0-61.0-0.10,FALSE,TRUE,TRUE,FALSE,"""event"",""trial"",""time""
""fullscreenenter"",""5"",""17846""
","
","
","""event"",""trial"",""time""
""fullscreenenter"",""5"",""17846""
","
",494.75499999243766,NA,49,NA,NA,3000,1,NA,NA,images/earth.jpg,images/tutrocket2,images/tutrocket1,null,images/tutrocket1,NA,1,practice,null,1,NA,NA,NA,sub29
d3-animate-choice,92,464824,0.0-61.0-1.10,FALSE,TRUE,TRUE,FALSE,"""event"",""trial"",""time""
""fullscreenenter"",""5"",""17846""
","
","
","""event"",""trial"",""time""
""fullscreenenter"",""5"",""17846""
","
",544.129999994766,NA,49,NA,NA,3000,1,NA,NA,images/tutgreenplanet.jpg,images/tutalien2,images/tutalien1,images/tutrocket1,images/tutalien1,images/t.png,2,practice,true,1,common,1,2020-06-12T20:04:39Z,sub29
two-step-fixation,93,465831,0.0-61.0-2.10,FALSE,TRUE,TRUE,FALSE,"""event"",""trial"",""time""
""fullscreenenter"",""5"",""17846""
","
","
","""event"",""trial"",""time""
""fullscreenenter"",""5"",""17846""
","
",NA,images/earth.jpg,NA,NA,NA,NA,NA,NA,NA,NA,NA,NA,NA,NA,NA,fixation,NA,NA,NA,NA,NA,NA,sub29
d3-animate-choice,94,468202,0.0-61.0-0.11,FALSE,TRUE,TRUE,FALSE,"""event"",""trial"",""time""
""fullscreenenter"",""5"",""17846""
","
","
","""event"",""trial"",""time""
""fullscreenenter"",""5"",""17846""
","
",365.8200000063516,NA,48,NA,NA,3000,1,NA,NA,images/earth.jpg,images/tutrocket2,images/tutrocket1,null,images/tutrocket2,NA,1,practice,null,2,NA,NA,NA,sub29
d3-animate-choice,95,471405,0.0-61.0-1.11,FALSE,TRUE,TRUE,FALSE,"""event"",""trial"",""time""
""fullscreenenter"",""5"",""17846""
","
","
","""event"",""trial"",""time""
""fullscreenenter"",""5"",""17846""
","
",1199.289999960456,NA,48,NA,NA,3000,1,NA,NA,images/tutyellowplanet.jpg,images/tutalien4,images/tutalien3,images/tutrocket2,images/tutalien4,images/t.png,2,practice,true,2,common,1,2020-06-12T20:04:45Z,sub29
two-step-fixation,96,472410,0.0-61.0-2.11,FALSE,TRUE,TRUE,FALSE,"""event"",""trial"",""time""
""fullscreenenter"",""5"",""17846""
","
","
","""event"",""trial"",""time""
""fullscreenenter"",""5"",""17846""
","
",NA,images/earth.jpg,NA,NA,NA,NA,NA,NA,NA,NA,NA,NA,NA,NA,NA,fixation,NA,NA,NA,NA,NA,NA,sub29
d3-animate-choice,97,474765,0.0-61.0-0.12,FALSE,TRUE,TRUE,FALSE,"""event"",""trial"",""time""
""fullscreenenter"",""5"",""17846""
","
","
","""event"",""trial"",""time""
""fullscreenenter"",""5"",""17846""
","
",347.5450000260025,NA,48,NA,NA,3000,1,NA,NA,images/earth.jpg,images/tutrocket2,images/tutrocket1,null,images/tutrocket2,NA,1,practice,null,2,NA,NA,NA,sub29
d3-animate-choice,98,477226,0.0-61.0-1.12,FALSE,TRUE,TRUE,FALSE,"""event"",""trial"",""time""
""fullscreenenter"",""5"",""17846""
","
","
","""event"",""trial"",""time""
""fullscreenenter"",""5"",""17846""
","
",452.5450000073761,NA,48,NA,NA,3000,1,NA,NA,images/tutyellowplanet.jpg,images/tutalien4,images/tutalien3,images/tutrocket2,images/tutalien4,images/t.png,2,practice,true,2,common,1,2020-06-12T20:04:51Z,sub29
two-step-fixation,99,478232,0.0-61.0-2.12,FALSE,TRUE,TRUE,FALSE,"""event"",""trial"",""time""
""fullscreenenter"",""5"",""17846""
","
","
","""event"",""trial"",""time""
""fullscreenenter"",""5"",""17846""
","
",NA,images/earth.jpg,NA,NA,NA,NA,NA,NA,NA,NA,NA,NA,NA,NA,NA,fixation,NA,NA,NA,NA,NA,NA,sub29
d3-animate-choice,100,480925,0.0-61.0-0.13,FALSE,TRUE,TRUE,FALSE,"""event"",""trial"",""time""
""fullscreenenter"",""5"",""17846""
","
","
","""event"",""trial"",""time""
""fullscreenenter"",""5"",""17846""
","
",686.4799999748357,NA,48,NA,NA,3000,1,NA,NA,images/earth.jpg,images/tutrocket2,images/tutrocket1,null,images/tutrocket2,NA,1,practice,null,2,NA,NA,NA,sub29
d3-animate-choice,101,483905,0.0-61.0-1.13,FALSE,TRUE,TRUE,FALSE,"""event"",""trial"",""time""
""fullscreenenter"",""5"",""17846""
","
","
","""event"",""trial"",""time""
""fullscreenenter"",""5"",""17846""
","
",973.9399999962188,NA,48,NA,NA,3000,1,NA,NA,images/tutgreenplanet.jpg,images/tutalien2,images/tutalien1,images/tutrocket2,images/tutalien2,images/t.png,2,practice,false,2,rare,1,2020-06-12T20:04:58Z,sub29
two-step-fixation,102,484913,0.0-61.0-2.13,FALSE,TRUE,TRUE,FALSE,"""event"",""trial"",""time""
""fullscreenenter"",""5"",""17846""
","
","
","""event"",""trial"",""time""
""fullscreenenter"",""5"",""17846""
","
",NA,images/earth.jpg,NA,NA,NA,NA,NA,NA,NA,NA,NA,NA,NA,NA,NA,fixation,NA,NA,NA,NA,NA,NA,sub29
d3-animate-choice,103,487502,0.0-61.0-0.14,FALSE,TRUE,TRUE,FALSE,"""event"",""trial"",""time""
""fullscreenenter"",""5"",""17846""
","
","
","""event"",""trial"",""time""
""fullscreenenter"",""5"",""17846""
","
",583.9300000225194,NA,49,NA,NA,3000,1,NA,NA,images/earth.jpg,images/tutrocket2,images/tutrocket1,null,images/tutrocket1,NA,1,practice,null,1,NA,NA,NA,sub29
d3-animate-choice,104,490284,0.0-61.0-1.14,FALSE,TRUE,TRUE,FALSE,"""event"",""trial"",""time""
""fullscreenenter"",""5"",""17846""
","
","
","""event"",""trial"",""time""
""fullscreenenter"",""5"",""17846""
","
",775.290000019595,NA,48,NA,NA,3000,1,NA,NA,images/tutyellowplanet.jpg,images/tutalien4,images/tutalien3,images/tutrocket1,images/tutalien4,images/t.png,2,practice,false,2,rare,1,2020-06-12T20:05:04Z,sub29
two-step-fixation,105,491290,0.0-61.0-2.14,FALSE,TRUE,TRUE,FALSE,"""event"",""trial"",""time""
""fullscreenenter"",""5"",""17846""
","
","
","""event"",""trial"",""time""
""fullscreenenter"",""5"",""17846""
","
",NA,images/earth.jpg,NA,NA,NA,NA,NA,NA,NA,NA,NA,NA,NA,NA,NA,fixation,NA,NA,NA,NA,NA,NA,sub29
d3-animate-choice,106,493644,0.0-61.0-0.15,FALSE,TRUE,TRUE,FALSE,"""event"",""trial"",""time""
""fullscreenenter"",""5"",""17846""
","
","
","""event"",""trial"",""time""
""fullscreenenter"",""5"",""17846""
","
",349.45999999763444,NA,48,NA,NA,3000,1,NA,NA,images/earth.jpg,images/tutrocket2,images/tutrocket1,null,images/tutrocket2,NA,1,practice,null,2,NA,NA,NA,sub29
d3-animate-choice,107,496447,0.0-61.0-1.15,FALSE,TRUE,TRUE,FALSE,"""event"",""trial"",""time""
""fullscreenenter"",""5"",""17846""
","
","
","""event"",""trial"",""time""
""fullscreenenter"",""5"",""17846""
","
",797.9349999804981,NA,48,NA,NA,3000,1,NA,NA,images/tutyellowplanet.jpg,images/tutalien4,images/tutalien3,images/tutrocket2,images/tutalien4,images/t.png,2,practice,true,2,common,1,2020-06-12T20:05:10Z,sub29
two-step-fixation,108,497454,0.0-61.0-2.15,FALSE,TRUE,TRUE,FALSE,"""event"",""trial"",""time""
""fullscreenenter"",""5"",""17846""
","
","
","""event"",""trial"",""time""
""fullscreenenter"",""5"",""17846""
","
",NA,images/earth.jpg,NA,NA,NA,NA,NA,NA,NA,NA,NA,NA,NA,NA,NA,fixation,NA,NA,NA,NA,NA,NA,sub29
d3-animate-choice,109,500045,0.0-61.0-0.16,FALSE,TRUE,TRUE,FALSE,"""event"",""trial"",""time""
""fullscreenenter"",""5"",""17846""
","
","
","""event"",""trial"",""time""
""fullscreenenter"",""5"",""17846""
","
",584.4149999902584,NA,48,NA,NA,3000,1,NA,NA,images/earth.jpg,images/tutrocket2,images/tutrocket1,null,images/tutrocket2,NA,1,practice,null,2,NA,NA,NA,sub29
d3-animate-choice,110,502905,0.0-61.0-1.16,FALSE,TRUE,TRUE,FALSE,"""event"",""trial"",""time""
""fullscreenenter"",""5"",""17846""
","
","
","""event"",""trial"",""time""
""fullscreenenter"",""5"",""17846""
","
",276.3249999843538,NA,32,NA,NA,3000,1,"617.0249999850057,856.7700000130571,1818.2699999888428",324832,images/tutyellowplanet.jpg,images/tutalien4,images/tutalien3,images/tutrocket2,images/tutalien4,images/nothing.png,2,practice,true,NA,common,0,2020-06-12T20:05:17Z,sub29
two-step-fixation,111,503910,0.0-61.0-2.16,FALSE,TRUE,TRUE,FALSE,"""event"",""trial"",""time""
""fullscreenenter"",""5"",""17846""
","
","
","""event"",""trial"",""time""
""fullscreenenter"",""5"",""17846""
","
",NA,images/earth.jpg,NA,NA,NA,NA,NA,NA,NA,NA,NA,NA,NA,NA,NA,fixation,NA,NA,NA,NA,NA,NA,sub29
d3-animate-choice,112,506264,0.0-61.0-0.17,FALSE,TRUE,TRUE,FALSE,"""event"",""trial"",""time""
""fullscreenenter"",""5"",""17846""
","
","
","""event"",""trial"",""time""
""fullscreenenter"",""5"",""17846""
","
",347.4949999945238,NA,49,NA,NA,3000,1,NA,NA,images/earth.jpg,images/tutrocket2,images/tutrocket1,null,images/tutrocket1,NA,1,practice,null,1,NA,NA,NA,sub29
d3-animate-choice,113,508866,0.0-61.0-1.17,FALSE,TRUE,TRUE,FALSE,"""event"",""trial"",""time""
""fullscreenenter"",""5"",""17846""
","
","
","""event"",""trial"",""time""
""fullscreenenter"",""5"",""17846""
","
",594.0950000076555,NA,49,NA,NA,3000,1,NA,NA,images/tutyellowplanet.jpg,images/tutalien4,images/tutalien3,images/tutrocket1,images/tutalien3,images/t.png,2,practice,false,1,rare,1,2020-06-12T20:05:23Z,sub29
two-step-fixation,114,509872,0.0-61.0-2.17,FALSE,TRUE,TRUE,FALSE,"""event"",""trial"",""time""
""fullscreenenter"",""5"",""17846""
","
","
","""event"",""trial"",""time""
""fullscreenenter"",""5"",""17846""
","
",NA,images/earth.jpg,NA,NA,NA,NA,NA,NA,NA,NA,NA,NA,NA,NA,NA,fixation,NA,NA,NA,NA,NA,NA,sub29
d3-animate-choice,115,512476,0.0-61.0-0.18,FALSE,TRUE,TRUE,FALSE,"""event"",""trial"",""time""
""fullscreenenter"",""5"",""17846""
","
","
","""event"",""trial"",""time""
""fullscreenenter"",""5"",""17846""
","
",496.9600000185892,NA,32,NA,NA,3000,1,597.0949999755248,48,images/earth.jpg,images/tutrocket2,images/tutrocket1,null,images/tutrocket2,NA,1,practice,null,NA,NA,NA,NA,sub29
d3-animate-choice,116,515126,0.0-61.0-1.18,FALSE,TRUE,TRUE,FALSE,"""event"",""trial"",""time""
""fullscreenenter"",""5"",""17846""
","
","
","""event"",""trial"",""time""
""fullscreenenter"",""5"",""17846""
","
",643.8300000154413,NA,48,NA,NA,3000,1,NA,NA,images/tutyellowplanet.jpg,images/tutalien4,images/tutalien3,images/tutrocket2,images/tutalien4,images/nothing.png,2,practice,true,2,common,0,2020-06-12T20:05:29Z,sub29
two-step-fixation,117,516130,0.0-61.0-2.18,FALSE,TRUE,TRUE,FALSE,"""event"",""trial"",""time""
""fullscreenenter"",""5"",""17846""
","
","
","""event"",""trial"",""time""
""fullscreenenter"",""5"",""17846""
","
",NA,images/earth.jpg,NA,NA,NA,NA,NA,NA,NA,NA,NA,NA,NA,NA,NA,fixation,NA,NA,NA,NA,NA,NA,sub29
d3-animate-choice,118,518597,0.0-61.0-0.19,FALSE,TRUE,TRUE,FALSE,"""event"",""trial"",""time""
""fullscreenenter"",""5"",""17846""
","
","
","""event"",""trial"",""time""
""fullscreenenter"",""5"",""17846""
","
",459.9949999828823,NA,48,NA,NA,3000,1,NA,NA,images/earth.jpg,images/tutrocket2,images/tutrocket1,null,images/tutrocket2,NA,1,practice,null,2,NA,NA,NA,sub29
d3-animate-choice,119,521557,0.0-61.0-1.19,FALSE,TRUE,TRUE,FALSE,"""event"",""trial"",""time""
""fullscreenenter"",""5"",""17846""
","
","
","""event"",""trial"",""time""
""fullscreenenter"",""5"",""17846""
","
",953.5699999541976,NA,48,NA,NA,3000,1,NA,NA,images/tutgreenplanet.jpg,images/tutalien2,images/tutalien1,images/tutrocket2,images/tutalien2,images/t.png,2,practice,false,2,rare,1,2020-06-12T20:05:36Z,sub29
two-step-fixation,120,522562,0.0-61.0-2.19,FALSE,TRUE,TRUE,FALSE,"""event"",""trial"",""time""
""fullscreenenter"",""5"",""17846""
","
","
","""event"",""trial"",""time""
""fullscreenenter"",""5"",""17846""
","
",NA,images/earth.jpg,NA,NA,NA,NA,NA,NA,NA,NA,NA,NA,NA,NA,NA,fixation,NA,NA,NA,NA,NA,NA,sub29
d3-instructions,121,529257,0.0-62.0,FALSE,TRUE,TRUE,FALSE,"""event"",""trial"",""time""
""fullscreenenter"",""5"",""17846""
","
","
","""event"",""trial"",""time""
""fullscreenenter"",""5"",""17846""
","
",NA,NA,NA,NA,NA,NA,NA,NA,NA,NA,NA,NA,NA,NA,NA,NA,NA,NA,NA,NA,NA,NA,sub29
audio-keyboard-response,122,533945,0.0-63.0,FALSE,TRUE,TRUE,FALSE,"""event"",""trial"",""time""
""fullscreenenter"",""5"",""17846""
","
","
","""event"",""trial"",""time""
""fullscreenenter"",""5"",""17846""
","
",4680,audio/instructions/treasure_feedback.wav,32,NA,NA,NA,NA,NA,NA,NA,NA,NA,NA,NA,NA,NA,NA,NA,NA,NA,NA,NA,sub29
d3-instructions,123,552116,0.0-64.0,FALSE,TRUE,TRUE,FALSE,"""event"",""trial"",""time""
""fullscreenenter"",""5"",""17846""
","
","
","""event"",""trial"",""time""
""fullscreenenter"",""5"",""17846""
","
",NA,NA,NA,NA,NA,NA,NA,NA,NA,NA,NA,NA,NA,NA,NA,NA,NA,NA,NA,NA,NA,NA,sub29
d3-instructions,124,564969,0.0-65.0,FALSE,TRUE,TRUE,FALSE,"""event"",""trial"",""time""
""fullscreenenter"",""5"",""17846""
","
","
","""event"",""trial"",""time""
""fullscreenenter"",""5"",""17846""
","
",NA,NA,NA,NA,NA,NA,NA,NA,NA,NA,NA,NA,NA,NA,NA,NA,NA,NA,NA,NA,NA,NA,sub29
d3-instructions,125,585258,0.0-66.0,FALSE,TRUE,TRUE,FALSE,"""event"",""trial"",""time""
""fullscreenenter"",""5"",""17846""
","
","
","""event"",""trial"",""time""
""fullscreenenter"",""5"",""17846""
","
",NA,NA,NA,NA,NA,NA,NA,NA,NA,NA,NA,NA,NA,NA,NA,NA,NA,NA,NA,NA,NA,NA,sub29
d3-instructions,126,597149,0.0-67.0,FALSE,TRUE,TRUE,FALSE,"""event"",""trial"",""time""
""fullscreenenter"",""5"",""17846""
","
","
","""event"",""trial"",""time""
""fullscreenenter"",""5"",""17846""
","
",NA,NA,NA,NA,NA,NA,NA,NA,NA,NA,NA,NA,NA,NA,NA,NA,NA,NA,NA,NA,NA,NA,sub29
d3-instructions,127,606690,0.0-68.0,FALSE,TRUE,TRUE,FALSE,"""event"",""trial"",""time""
""fullscreenenter"",""5"",""17846""
","
","
","""event"",""trial"",""time""
""fullscreenenter"",""5"",""17846""
","
",NA,NA,NA,NA,NA,NA,NA,NA,NA,NA,NA,NA,NA,NA,NA,NA,NA,NA,NA,NA,NA,NA,sub29
instructions-quiz,128,609641,0.0-69.0,FALSE,TRUE,TRUE,FALSE,"""event"",""trial"",""time""
""fullscreenenter"",""5"",""17846""
","
","
","""event"",""trial"",""time""
""fullscreenenter"",""5"",""17846""
","
",2945.7199999596924,audio/quiz/Q1_Prompt.wav,NA,1,NA,NA,NA,NA,NA,NA,NA,NA,NA,NA,NA,NA,NA,NA,NA,NA,NA,NA,sub29
audio-keyboard-response,129,618809,0.0-70.0,FALSE,TRUE,TRUE,FALSE,"""event"",""trial"",""time""
""fullscreenenter"",""5"",""17846""
","
","
","""event"",""trial"",""time""
""fullscreenenter"",""5"",""17846""
","
",null,audio/quiz/Q1_Correct.wav,null,NA,NA,NA,NA,NA,NA,NA,NA,NA,NA,NA,NA,NA,NA,NA,NA,NA,NA,NA,sub29
instructions-quiz,130,625903,0.0-71.0,FALSE,TRUE,TRUE,FALSE,"""event"",""trial"",""time""
""fullscreenenter"",""5"",""17846""
","
","
","""event"",""trial"",""time""
""fullscreenenter"",""5"",""17846""
","
",7091.000000014901,audio/quiz/Q2_Prompt.wav,NA,0,NA,NA,NA,NA,NA,NA,NA,NA,NA,NA,NA,NA,NA,NA,NA,NA,NA,NA,sub29
audio-keyboard-response,131,638769,0.0-72.0,FALSE,TRUE,TRUE,FALSE,"""event"",""trial"",""time""
""fullscreenenter"",""5"",""17846""
","
","
","""event"",""trial"",""time""
""fullscreenenter"",""5"",""17846""
","
",null,audio/quiz/Q2_Correct.wav,null,NA,NA,NA,NA,NA,NA,NA,NA,NA,NA,NA,NA,NA,NA,NA,NA,NA,NA,NA,sub29
instructions-quiz,132,642312,0.0-73.0,FALSE,TRUE,TRUE,FALSE,"""event"",""trial"",""time""
""fullscreenenter"",""5"",""17846""
","
","
","""event"",""trial"",""time""
""fullscreenenter"",""5"",""17846""
","
",3539.694999984931,audio/quiz/Q3_Prompt.wav,NA,1,NA,NA,NA,NA,NA,NA,NA,NA,NA,NA,NA,NA,NA,NA,NA,NA,NA,NA,sub29
audio-keyboard-response,133,648109,0.0-74.0,FALSE,TRUE,TRUE,FALSE,"""event"",""trial"",""time""
""fullscreenenter"",""5"",""17846""
","
","
","""event"",""trial"",""time""
""fullscreenenter"",""5"",""17846""
","
",null,audio/quiz/Q3_Correct.wav,null,NA,NA,NA,NA,NA,NA,NA,NA,NA,NA,NA,NA,NA,NA,NA,NA,NA,NA,NA,sub29
d3-instructions,134,661870,0.0-75.0,FALSE,TRUE,TRUE,FALSE,"""event"",""trial"",""time""
""fullscreenenter"",""5"",""17846""
","
","
","""event"",""trial"",""time""
""fullscreenenter"",""5"",""17846""
","
",NA,NA,NA,NA,NA,NA,NA,NA,NA,NA,NA,NA,NA,NA,NA,NA,NA,NA,NA,NA,NA,NA,sub29
d3-animate-choice,135,665688,0.0-76.0-0.0,FALSE,TRUE,TRUE,FALSE,"""event"",""trial"",""time""
""fullscreenenter"",""5"",""17846""
","
","
","""event"",""trial"",""time""
""fullscreenenter"",""5"",""17846""
","
",1812.1599999722093,NA,48,NA,NA,3000,1,NA,NA,images/earth.jpg,images/rocket1,images/rocket2,null,images/rocket1,NA,1,real,null,2,NA,NA,NA,sub29
d3-animate-choice,136,668538,0.0-76.0-1.0,FALSE,TRUE,TRUE,FALSE,"""event"",""trial"",""time""
""fullscreenenter"",""5"",""17846""
","
","
","""event"",""trial"",""time""
""fullscreenenter"",""5"",""17846""
","
",847.2700000274926,NA,48,NA,NA,3000,1,NA,NA,images/purpleplanet.jpg,images/alien4,images/alien3,images/rocket1,images/alien4,images/t.png,2,real,false,2,rare,1,2020-06-12T20:08:03Z,sub29
two-step-fixation,137,669540,0.0-76.0-2.0,FALSE,TRUE,TRUE,FALSE,"""event"",""trial"",""time""
""fullscreenenter"",""5"",""17846""
","
","
","""event"",""trial"",""time""
""fullscreenenter"",""5"",""17846""
","
",NA,images/earth.jpg,NA,NA,NA,NA,NA,NA,NA,NA,NA,NA,NA,NA,NA,fixation,NA,NA,NA,NA,NA,NA,sub29
d3-animate-choice,138,671898,0.0-76.0-0.1,FALSE,TRUE,TRUE,FALSE,"""event"",""trial"",""time""
""fullscreenenter"",""5"",""17846""
","
","
","""event"",""trial"",""time""
""fullscreenenter"",""5"",""17846""
","
",354.8849999788217,NA,49,NA,NA,3000,1,NA,NA,images/earth.jpg,images/rocket1,images/rocket2,null,images/rocket2,NA,1,real,null,1,NA,NA,NA,sub29
d3-animate-choice,139,675261,0.0-76.0-1.1,FALSE,TRUE,TRUE,FALSE,"""event"",""trial"",""time""
""fullscreenenter"",""5"",""17846""
","
","
","""event"",""trial"",""time""
""fullscreenenter"",""5"",""17846""
","
",1356.0600000200793,NA,48,NA,NA,3000,1,NA,NA,images/redplanet1.jpg,images/alien2,images/alien1,images/rocket2,images/alien2,images/nothing.png,2,real,false,2,rare,0,2020-06-12T20:08:09Z,sub29
two-step-fixation,140,676266,0.0-76.0-2.1,FALSE,TRUE,TRUE,FALSE,"""event"",""trial"",""time""
""fullscreenenter"",""5"",""17846""
","
","
","""event"",""trial"",""time""
""fullscreenenter"",""5"",""17846""
","
",NA,images/earth.jpg,NA,NA,NA,NA,NA,NA,NA,NA,NA,NA,NA,NA,NA,fixation,NA,NA,NA,NA,NA,NA,sub29
d3-animate-choice,141,678608,0.0-76.0-0.2,FALSE,TRUE,TRUE,FALSE,"""event"",""trial"",""time""
""fullscreenenter"",""5"",""17846""
","
","
","""event"",""trial"",""time""
""fullscreenenter"",""5"",""17846""
","
",335.4200000176206,NA,49,NA,NA,3000,1,"555.4250000277534,637.0149999856949",19218,images/earth.jpg,images/rocket1,images/rocket2,null,images/rocket2,NA,1,real,null,1,NA,NA,NA,sub29
d3-animate-choice,142,682130,0.0-76.0-1.2,FALSE,TRUE,TRUE,FALSE,"""event"",""trial"",""time""
""fullscreenenter"",""5"",""17846""
","
","
","""event"",""trial"",""time""
""fullscreenenter"",""5"",""17846""
","
",1515.2949999901466,NA,48,NA,NA,3000,1,NA,NA,images/purpleplanet.jpg,images/alien4,images/alien3,images/rocket2,images/alien4,images/nothing.png,2,real,true,2,common,0,2020-06-12T20:08:16Z,sub29
two-step-fixation,143,683138,0.0-76.0-2.2,FALSE,TRUE,TRUE,FALSE,"""event"",""trial"",""time""
""fullscreenenter"",""5"",""17846""
","
","
","""event"",""trial"",""time""
""fullscreenenter"",""5"",""17846""
","
",NA,images/earth.jpg,NA,NA,NA,NA,NA,NA,NA,NA,NA,NA,NA,NA,NA,fixation,NA,NA,NA,NA,NA,NA,sub29
d3-animate-choice,144,685578,0.0-76.0-0.3,FALSE,TRUE,TRUE,FALSE,"""event"",""trial"",""time""
""fullscreenenter"",""5"",""17846""
","
","
","""event"",""trial"",""time""
""fullscreenenter"",""5"",""17846""
","
",435.88000000454485,NA,49,NA,NA,3000,1,NA,NA,images/earth.jpg,images/rocket1,images/rocket2,null,images/rocket2,NA,1,real,null,1,NA,NA,NA,sub29
d3-animate-choice,145,688261,0.0-76.0-1.3,FALSE,TRUE,TRUE,FALSE,"""event"",""trial"",""time""
""fullscreenenter"",""5"",""17846""
","
","
","""event"",""trial"",""time""
""fullscreenenter"",""5"",""17846""
","
",677.5999999954365,NA,49,NA,NA,3000,1,NA,NA,images/redplanet1.jpg,images/alien2,images/alien1,images/rocket2,images/alien1,images/t.png,2,real,false,1,rare,1,2020-06-12T20:08:22Z,sub29
two-step-fixation,146,689267,0.0-76.0-2.3,FALSE,TRUE,TRUE,FALSE,"""event"",""trial"",""time""
""fullscreenenter"",""5"",""17846""
","
","
","""event"",""trial"",""time""
""fullscreenenter"",""5"",""17846""
","
",NA,images/earth.jpg,NA,NA,NA,NA,NA,NA,NA,NA,NA,NA,NA,NA,NA,fixation,NA,NA,NA,NA,NA,NA,sub29
d3-animate-choice,147,691731,0.0-76.0-0.4,FALSE,TRUE,TRUE,FALSE,"""event"",""trial"",""time""
""fullscreenenter"",""5"",""17846""
","
","
","""event"",""trial"",""time""
""fullscreenenter"",""5"",""17846""
","
",457.31500000692904,NA,48,NA,NA,3000,1,NA,NA,images/earth.jpg,images/rocket1,images/rocket2,null,images/rocket1,NA,1,real,null,2,NA,NA,NA,sub29
d3-animate-choice,148,694358,0.0-76.0-1.4,FALSE,TRUE,TRUE,FALSE,"""event"",""trial"",""time""
""fullscreenenter"",""5"",""17846""
","
","
","""event"",""trial"",""time""
""fullscreenenter"",""5"",""17846""
","
",622.670000011567,NA,48,NA,NA,3000,1,NA,NA,images/redplanet1.jpg,images/alien2,images/alien1,images/rocket1,images/alien2,images/t.png,2,real,true,2,common,1,2020-06-12T20:08:28Z,sub29
two-step-fixation,149,695365,0.0-76.0-2.4,FALSE,TRUE,TRUE,FALSE,"""event"",""trial"",""time""
""fullscreenenter"",""5"",""17846""
","
","
","""event"",""trial"",""time""
""fullscreenenter"",""5"",""17846""
","
",NA,images/earth.jpg,NA,NA,NA,NA,NA,NA,NA,NA,NA,NA,NA,NA,NA,fixation,NA,NA,NA,NA,NA,NA,sub29
d3-animate-choice,150,697680,0.0-76.0-0.5,FALSE,TRUE,TRUE,FALSE,"""event"",""trial"",""time""
""fullscreenenter"",""5"",""17846""
","
","
","""event"",""trial"",""time""
""fullscreenenter"",""5"",""17846""
","
",307.8399999649264,NA,48,NA,NA,3000,1,NA,NA,images/earth.jpg,images/rocket1,images/rocket2,null,images/rocket1,NA,1,real,null,2,NA,NA,NA,sub29
d3-animate-choice,151,700400,0.0-76.0-1.5,FALSE,TRUE,TRUE,FALSE,"""event"",""trial"",""time""
""fullscreenenter"",""5"",""17846""
","
","
","""event"",""trial"",""time""
""fullscreenenter"",""5"",""17846""
","
",714.090000023134,NA,48,NA,NA,3000,1,NA,NA,images/redplanet1.jpg,images/alien2,images/alien1,images/rocket1,images/alien2,images/t.png,2,real,true,2,common,1,2020-06-12T20:08:34Z,sub29
two-step-fixation,152,701404,0.0-76.0-2.5,FALSE,TRUE,TRUE,FALSE,"""event"",""trial"",""time""
""fullscreenenter"",""5"",""17846""
","
","
","""event"",""trial"",""time""
""fullscreenenter"",""5"",""17846""
","
",NA,images/earth.jpg,NA,NA,NA,NA,NA,NA,NA,NA,NA,NA,NA,NA,NA,fixation,NA,NA,NA,NA,NA,NA,sub29
d3-animate-choice,153,703933,0.0-76.0-0.6,FALSE,TRUE,TRUE,FALSE,"""event"",""trial"",""time""
""fullscreenenter"",""5"",""17846""
","
","
","""event"",""trial"",""time""
""fullscreenenter"",""5"",""17846""
","
",522.0749999862164,NA,48,NA,NA,3000,1,NA,NA,images/earth.jpg,images/rocket1,images/rocket2,null,images/rocket1,NA,1,real,null,2,NA,NA,NA,sub29
d3-animate-choice,154,706651,0.0-76.0-1.6,FALSE,TRUE,TRUE,FALSE,"""event"",""trial"",""time""
""fullscreenenter"",""5"",""17846""
","
","
","""event"",""trial"",""time""
""fullscreenenter"",""5"",""17846""
","
",711.6500000120141,NA,48,NA,NA,3000,1,NA,NA,images/redplanet1.jpg,images/alien2,images/alien1,images/rocket1,images/alien2,images/t.png,2,real,true,2,common,1,2020-06-12T20:08:41Z,sub29
two-step-fixation,155,707654,0.0-76.0-2.6,FALSE,TRUE,TRUE,FALSE,"""event"",""trial"",""time""
""fullscreenenter"",""5"",""17846""
","
","
","""event"",""trial"",""time""
""fullscreenenter"",""5"",""17846""
","
",NA,images/earth.jpg,NA,NA,NA,NA,NA,NA,NA,NA,NA,NA,NA,NA,NA,fixation,NA,NA,NA,NA,NA,NA,sub29
d3-animate-choice,156,710282,0.0-76.0-0.7,FALSE,TRUE,TRUE,FALSE,"""event"",""trial"",""time""
""fullscreenenter"",""5"",""17846""
","
","
","""event"",""trial"",""time""
""fullscreenenter"",""5"",""17846""
","
",623.4450000338256,NA,48,NA,NA,3000,1,NA,NA,images/earth.jpg,images/rocket1,images/rocket2,null,images/rocket1,NA,1,real,null,2,NA,NA,NA,sub29
d3-animate-choice,157,713141,0.0-76.0-1.7,FALSE,TRUE,TRUE,FALSE,"""event"",""trial"",""time""
""fullscreenenter"",""5"",""17846""
","
","
","""event"",""trial"",""time""
""fullscreenenter"",""5"",""17846""
","
",853.2849999610335,NA,48,NA,NA,3000,1,NA,NA,images/purpleplanet.jpg,images/alien4,images/alien3,images/rocket1,images/alien4,images/t.png,2,real,false,2,rare,1,2020-06-12T20:08:47Z,sub29
two-step-fixation,158,714145,0.0-76.0-2.7,FALSE,TRUE,TRUE,FALSE,"""event"",""trial"",""time""
""fullscreenenter"",""5"",""17846""
","
","
","""event"",""trial"",""time""
""fullscreenenter"",""5"",""17846""
","
",NA,images/earth.jpg,NA,NA,NA,NA,NA,NA,NA,NA,NA,NA,NA,NA,NA,fixation,NA,NA,NA,NA,NA,NA,sub29
d3-animate-choice,159,716529,0.0-76.0-0.8,FALSE,TRUE,TRUE,FALSE,"""event"",""trial"",""time""
""fullscreenenter"",""5"",""17846""
","
","
","""event"",""trial"",""time""
""fullscreenenter"",""5"",""17846""
","
",378.9600000018254,NA,48,NA,NA,3000,1,NA,NA,images/earth.jpg,images/rocket1,images/rocket2,null,images/rocket1,NA,1,real,null,2,NA,NA,NA,sub29
d3-animate-choice,160,719921,0.0-76.0-1.8,FALSE,TRUE,TRUE,FALSE,"""event"",""trial"",""time""
""fullscreenenter"",""5"",""17846""
","
","
","""event"",""trial"",""time""
""fullscreenenter"",""5"",""17846""
","
",1386.0800000256859,NA,48,NA,NA,3000,1,NA,NA,images/redplanet1.jpg,images/alien2,images/alien1,images/rocket1,images/alien2,images/t.png,2,real,true,2,common,1,2020-06-12T20:08:54Z,sub29
two-step-fixation,161,720927,0.0-76.0-2.8,FALSE,TRUE,TRUE,FALSE,"""event"",""trial"",""time""
""fullscreenenter"",""5"",""17846""
","
","
","""event"",""trial"",""time""
""fullscreenenter"",""5"",""17846""
","
",NA,images/earth.jpg,NA,NA,NA,NA,NA,NA,NA,NA,NA,NA,NA,NA,NA,fixation,NA,NA,NA,NA,NA,NA,sub29
d3-animate-choice,162,723481,0.0-76.0-0.9,FALSE,TRUE,TRUE,FALSE,"""event"",""trial"",""time""
""fullscreenenter"",""5"",""17846""
","
","
","""event"",""trial"",""time""
""fullscreenenter"",""5"",""17846""
","
",548.8149999873713,NA,49,NA,NA,3000,1,NA,NA,images/earth.jpg,images/rocket1,images/rocket2,null,images/rocket2,NA,1,real,null,1,NA,NA,NA,sub29
d3-animate-choice,163,726101,0.0-76.0-1.9,FALSE,TRUE,TRUE,FALSE,"""event"",""trial"",""time""
""fullscreenenter"",""5"",""17846""
","
","
","""event"",""trial"",""time""
""fullscreenenter"",""5"",""17846""
","
",616.1549999960698,NA,48,NA,NA,3000,1,NA,NA,images/redplanet1.jpg,images/alien2,images/alien1,images/rocket2,images/alien2,images/t.png,2,real,false,2,rare,1,2020-06-12T20:09:00Z,sub29
two-step-fixation,164,727105,0.0-76.0-2.9,FALSE,TRUE,TRUE,FALSE,"""event"",""trial"",""time""
""fullscreenenter"",""5"",""17846""
","
","
","""event"",""trial"",""time""
""fullscreenenter"",""5"",""17846""
","
",NA,images/earth.jpg,NA,NA,NA,NA,NA,NA,NA,NA,NA,NA,NA,NA,NA,fixation,NA,NA,NA,NA,NA,NA,sub29
d3-animate-choice,165,729450,0.0-76.0-0.10,FALSE,TRUE,TRUE,FALSE,"""event"",""trial"",""time""
""fullscreenenter"",""5"",""17846""
","
","
","""event"",""trial"",""time""
""fullscreenenter"",""5"",""17846""
","
",338.18999998038635,NA,48,NA,NA,3000,1,NA,NA,images/earth.jpg,images/rocket1,images/rocket2,null,images/rocket1,NA,1,real,null,2,NA,NA,NA,sub29
d3-animate-choice,166,732051,0.0-76.0-1.10,FALSE,TRUE,TRUE,FALSE,"""event"",""trial"",""time""
""fullscreenenter"",""5"",""17846""
","
","
","""event"",""trial"",""time""
""fullscreenenter"",""5"",""17846""
","
",595.1200000126846,NA,48,NA,NA,3000,1,NA,NA,images/redplanet1.jpg,images/alien2,images/alien1,images/rocket1,images/alien2,images/t.png,2,real,true,2,common,1,2020-06-12T20:09:06Z,sub29
two-step-fixation,167,733057,0.0-76.0-2.10,FALSE,TRUE,TRUE,FALSE,"""event"",""trial"",""time""
""fullscreenenter"",""5"",""17846""
","
","
","""event"",""trial"",""time""
""fullscreenenter"",""5"",""17846""
","
",NA,images/earth.jpg,NA,NA,NA,NA,NA,NA,NA,NA,NA,NA,NA,NA,NA,fixation,NA,NA,NA,NA,NA,NA,sub29
d3-animate-choice,168,735421,0.0-76.0-0.11,FALSE,TRUE,TRUE,FALSE,"""event"",""trial"",""time""
""fullscreenenter"",""5"",""17846""
","
","
","""event"",""trial"",""time""
""fullscreenenter"",""5"",""17846""
","
",358.1399999675341,NA,48,NA,NA,3000,1,NA,NA,images/earth.jpg,images/rocket1,images/rocket2,null,images/rocket1,NA,1,real,null,2,NA,NA,NA,sub29
d3-animate-choice,169,737721,0.0-76.0-1.11,FALSE,TRUE,TRUE,FALSE,"""event"",""trial"",""time""
""fullscreenenter"",""5"",""17846""
","
","
","""event"",""trial"",""time""
""fullscreenenter"",""5"",""17846""
","
",293.54500002227724,NA,48,NA,NA,3000,1,NA,NA,images/redplanet1.jpg,images/alien2,images/alien1,images/rocket1,images/alien2,images/t.png,2,real,true,2,common,1,2020-06-12T20:09:12Z,sub29
two-step-fixation,170,738727,0.0-76.0-2.11,FALSE,TRUE,TRUE,FALSE,"""event"",""trial"",""time""
""fullscreenenter"",""5"",""17846""
","
","
","""event"",""trial"",""time""
""fullscreenenter"",""5"",""17846""
","
",NA,images/earth.jpg,NA,NA,NA,NA,NA,NA,NA,NA,NA,NA,NA,NA,NA,fixation,NA,NA,NA,NA,NA,NA,sub29
d3-animate-choice,171,741123,0.0-76.0-0.12,FALSE,TRUE,TRUE,FALSE,"""event"",""trial"",""time""
""fullscreenenter"",""5"",""17846""
","
","
","""event"",""trial"",""time""
""fullscreenenter"",""5"",""17846""
","
",387.5100000295788,NA,48,NA,NA,3000,1,NA,NA,images/earth.jpg,images/rocket1,images/rocket2,null,images/rocket1,NA,1,real,null,2,NA,NA,NA,sub29
d3-animate-choice,172,743481,0.0-76.0-1.12,FALSE,TRUE,TRUE,FALSE,"""event"",""trial"",""time""
""fullscreenenter"",""5"",""17846""
","
","
","""event"",""trial"",""time""
""fullscreenenter"",""5"",""17846""
","
",351.95500002009794,NA,48,NA,NA,3000,1,NA,NA,images/redplanet1.jpg,images/alien2,images/alien1,images/rocket1,images/alien2,images/nothing.png,2,real,true,2,common,0,2020-06-12T20:09:17Z,sub29
two-step-fixation,173,744484,0.0-76.0-2.12,FALSE,TRUE,TRUE,FALSE,"""event"",""trial"",""time""
""fullscreenenter"",""5"",""17846""
","
","
","""event"",""trial"",""time""
""fullscreenenter"",""5"",""17846""
","
",NA,images/earth.jpg,NA,NA,NA,NA,NA,NA,NA,NA,NA,NA,NA,NA,NA,fixation,NA,NA,NA,NA,NA,NA,sub29
d3-animate-choice,174,746822,0.0-76.0-0.13,FALSE,TRUE,TRUE,FALSE,"""event"",""trial"",""time""
""fullscreenenter"",""5"",""17846""
","
","
","""event"",""trial"",""time""
""fullscreenenter"",""5"",""17846""
","
",333.2199999713339,NA,49,NA,NA,3000,1,NA,NA,images/earth.jpg,images/rocket1,images/rocket2,null,images/rocket2,NA,1,real,null,1,NA,NA,NA,sub29
d3-animate-choice,175,749512,0.0-76.0-1.13,FALSE,TRUE,TRUE,FALSE,"""event"",""trial"",""time""
""fullscreenenter"",""5"",""17846""
","
","
","""event"",""trial"",""time""
""fullscreenenter"",""5"",""17846""
","
",683.324999990873,NA,48,NA,NA,3000,1,NA,NA,images/purpleplanet.jpg,images/alien4,images/alien3,images/rocket2,images/alien4,images/t.png,2,real,true,2,common,1,2020-06-12T20:09:24Z,sub29
two-step-fixation,176,750518,0.0-76.0-2.13,FALSE,TRUE,TRUE,FALSE,"""event"",""trial"",""time""
""fullscreenenter"",""5"",""17846""
","
","
","""event"",""trial"",""time""
""fullscreenenter"",""5"",""17846""
","
",NA,images/earth.jpg,NA,NA,NA,NA,NA,NA,NA,NA,NA,NA,NA,NA,NA,fixation,NA,NA,NA,NA,NA,NA,sub29
d3-animate-choice,177,752933,0.0-76.0-0.14,FALSE,TRUE,TRUE,FALSE,"""event"",""trial"",""time""
""fullscreenenter"",""5"",""17846""
","
","
","""event"",""trial"",""time""
""fullscreenenter"",""5"",""17846""
","
",409.5300000044517,NA,49,NA,NA,3000,1,NA,NA,images/earth.jpg,images/rocket1,images/rocket2,null,images/rocket2,NA,1,real,null,1,NA,NA,NA,sub29
d3-animate-choice,178,755352,0.0-76.0-1.14,FALSE,TRUE,TRUE,FALSE,"""event"",""trial"",""time""
""fullscreenenter"",""5"",""17846""
","
","
","""event"",""trial"",""time""
""fullscreenenter"",""5"",""17846""
","
",415.065000008326,NA,48,NA,NA,3000,1,NA,NA,images/purpleplanet.jpg,images/alien4,images/alien3,images/rocket2,images/alien4,images/t.png,2,real,true,2,common,1,2020-06-12T20:09:29Z,sub29
two-step-fixation,179,756358,0.0-76.0-2.14,FALSE,TRUE,TRUE,FALSE,"""event"",""trial"",""time""
""fullscreenenter"",""5"",""17846""
","
","
","""event"",""trial"",""time""
""fullscreenenter"",""5"",""17846""
","
",NA,images/earth.jpg,NA,NA,NA,NA,NA,NA,NA,NA,NA,NA,NA,NA,NA,fixation,NA,NA,NA,NA,NA,NA,sub29
d3-animate-choice,180,758740,0.0-76.0-0.15,FALSE,TRUE,TRUE,FALSE,"""event"",""trial"",""time""
""fullscreenenter"",""5"",""17846""
","
","
","""event"",""trial"",""time""
""fullscreenenter"",""5"",""17846""
","
",376.2049999786541,NA,49,NA,NA,3000,1,NA,NA,images/earth.jpg,images/rocket1,images/rocket2,null,images/rocket2,NA,1,real,null,1,NA,NA,NA,sub29
d3-animate-choice,181,761042,0.0-76.0-1.15,FALSE,TRUE,TRUE,FALSE,"""event"",""trial"",""time""
""fullscreenenter"",""5"",""17846""
","
","
","""event"",""trial"",""time""
""fullscreenenter"",""5"",""17846""
","
",295.6349999876693,NA,48,NA,NA,3000,1,NA,NA,images/purpleplanet.jpg,images/alien4,images/alien3,images/rocket2,images/alien4,images/t.png,2,real,true,2,common,1,2020-06-12T20:09:35Z,sub29
two-step-fixation,182,762046,0.0-76.0-2.15,FALSE,TRUE,TRUE,FALSE,"""event"",""trial"",""time""
""fullscreenenter"",""5"",""17846""
","
","
","""event"",""trial"",""time""
""fullscreenenter"",""5"",""17846""
","
",NA,images/earth.jpg,NA,NA,NA,NA,NA,NA,NA,NA,NA,NA,NA,NA,NA,fixation,NA,NA,NA,NA,NA,NA,sub29
d3-animate-choice,183,764501,0.0-76.0-0.16,FALSE,TRUE,TRUE,FALSE,"""event"",""trial"",""time""
""fullscreenenter"",""5"",""17846""
","
","
","""event"",""trial"",""time""
""fullscreenenter"",""5"",""17846""
","
",451.1400000192225,NA,49,NA,NA,3000,1,NA,NA,images/earth.jpg,images/rocket1,images/rocket2,null,images/rocket2,NA,1,real,null,1,NA,NA,NA,sub29
d3-animate-choice,184,767812,0.0-76.0-1.16,FALSE,TRUE,TRUE,FALSE,"""event"",""trial"",""time""
""fullscreenenter"",""5"",""17846""
","
","
","""event"",""trial"",""time""
""fullscreenenter"",""5"",""17846""
","
",1305.8450000244193,NA,49,NA,NA,3000,1,NA,NA,images/purpleplanet.jpg,images/alien4,images/alien3,images/rocket2,images/alien3,images/nothing.png,2,real,true,1,common,0,2020-06-12T20:09:42Z,sub29
two-step-fixation,185,768820,0.0-76.0-2.16,FALSE,TRUE,TRUE,FALSE,"""event"",""trial"",""time""
""fullscreenenter"",""5"",""17846""
","
","
","""event"",""trial"",""time""
""fullscreenenter"",""5"",""17846""
","
",NA,images/earth.jpg,NA,NA,NA,NA,NA,NA,NA,NA,NA,NA,NA,NA,NA,fixation,NA,NA,NA,NA,NA,NA,sub29
d3-animate-choice,186,771169,0.0-76.0-0.17,FALSE,TRUE,TRUE,FALSE,"""event"",""trial"",""time""
""fullscreenenter"",""5"",""17846""
","
","
","""event"",""trial"",""time""
""fullscreenenter"",""5"",""17846""
","
",342.73499995470047,NA,49,NA,NA,3000,1,NA,NA,images/earth.jpg,images/rocket1,images/rocket2,null,images/rocket2,NA,1,real,null,1,NA,NA,NA,sub29
d3-animate-choice,187,773811,0.0-76.0-1.17,FALSE,TRUE,TRUE,FALSE,"""event"",""trial"",""time""
""fullscreenenter"",""5"",""17846""
","
","
","""event"",""trial"",""time""
""fullscreenenter"",""5"",""17846""
","
",636.4700000267476,NA,48,NA,NA,3000,1,NA,NA,images/purpleplanet.jpg,images/alien4,images/alien3,images/rocket2,images/alien4,images/t.png,2,real,true,2,common,1,2020-06-12T20:09:48Z,sub29
two-step-fixation,188,774815,0.0-76.0-2.17,FALSE,TRUE,TRUE,FALSE,"""event"",""trial"",""time""
""fullscreenenter"",""5"",""17846""
","
","
","""event"",""trial"",""time""
""fullscreenenter"",""5"",""17846""
","
",NA,images/earth.jpg,NA,NA,NA,NA,NA,NA,NA,NA,NA,NA,NA,NA,NA,fixation,NA,NA,NA,NA,NA,NA,sub29
d3-animate-choice,189,777614,0.0-76.0-0.18,FALSE,TRUE,TRUE,FALSE,"""event"",""trial"",""time""
""fullscreenenter"",""5"",""17846""
","
","
","""event"",""trial"",""time""
""fullscreenenter"",""5"",""17846""
","
",792.1099999803118,NA,48,NA,NA,3000,1,NA,NA,images/earth.jpg,images/rocket1,images/rocket2,null,images/rocket1,NA,1,real,null,2,NA,NA,NA,sub29
d3-animate-choice,190,779922,0.0-76.0-1.18,FALSE,TRUE,TRUE,FALSE,"""event"",""trial"",""time""
""fullscreenenter"",""5"",""17846""
","
","
","""event"",""trial"",""time""
""fullscreenenter"",""5"",""17846""
","
",302.15500004123896,NA,48,NA,NA,3000,1,NA,NA,images/purpleplanet.jpg,images/alien4,images/alien3,images/rocket1,images/alien4,images/nothing.png,2,real,false,2,rare,0,2020-06-12T20:09:54Z,sub29
two-step-fixation,191,780927,0.0-76.0-2.18,FALSE,TRUE,TRUE,FALSE,"""event"",""trial"",""time""
""fullscreenenter"",""5"",""17846""
","
","
","""event"",""trial"",""time""
""fullscreenenter"",""5"",""17846""
","
",NA,images/earth.jpg,NA,NA,NA,NA,NA,NA,NA,NA,NA,NA,NA,NA,NA,fixation,NA,NA,NA,NA,NA,NA,sub29
d3-animate-choice,192,783354,0.0-76.0-0.19,FALSE,TRUE,TRUE,FALSE,"""event"",""trial"",""time""
""fullscreenenter"",""5"",""17846""
","
","
","""event"",""trial"",""time""
""fullscreenenter"",""5"",""17846""
","
",422.6699999999255,NA,48,NA,NA,3000,1,NA,NA,images/earth.jpg,images/rocket1,images/rocket2,null,images/rocket1,NA,1,real,null,2,NA,NA,NA,sub29
d3-animate-choice,193,785963,0.0-76.0-1.19,FALSE,TRUE,TRUE,FALSE,"""event"",""trial"",""time""
""fullscreenenter"",""5"",""17846""
","
","
","""event"",""trial"",""time""
""fullscreenenter"",""5"",""17846""
","
",603.0949999694712,NA,48,NA,NA,3000,1,NA,NA,images/purpleplanet.jpg,images/alien4,images/alien3,images/rocket1,images/alien4,images/t.png,2,real,false,2,rare,1,2020-06-12T20:10:00Z,sub29
two-step-fixation,194,786968,0.0-76.0-2.19,FALSE,TRUE,TRUE,FALSE,"""event"",""trial"",""time""
""fullscreenenter"",""5"",""17846""
","
","
","""event"",""trial"",""time""
""fullscreenenter"",""5"",""17846""
","
",NA,images/earth.jpg,NA,NA,NA,NA,NA,NA,NA,NA,NA,NA,NA,NA,NA,fixation,NA,NA,NA,NA,NA,NA,sub29
d3-animate-choice,195,789804,0.0-76.0-0.20,FALSE,TRUE,TRUE,FALSE,"""event"",""trial"",""time""
""fullscreenenter"",""5"",""17846""
","
","
","""event"",""trial"",""time""
""fullscreenenter"",""5"",""17846""
","
",829.1550000431016,NA,49,NA,NA,3000,1,NA,NA,images/earth.jpg,images/rocket1,images/rocket2,null,images/rocket2,NA,1,real,null,1,NA,NA,NA,sub29
d3-animate-choice,196,793132,0.0-76.0-1.20,FALSE,TRUE,TRUE,FALSE,"""event"",""trial"",""time""
""fullscreenenter"",""5"",""17846""
","
","
","""event"",""trial"",""time""
""fullscreenenter"",""5"",""17846""
","
",1322.0350000192411,NA,48,NA,NA,3000,1,NA,NA,images/purpleplanet.jpg,images/alien4,images/alien3,images/rocket2,images/alien4,images/t.png,2,real,true,2,common,1,2020-06-12T20:10:07Z,sub29
two-step-fixation,197,794138,0.0-76.0-2.20,FALSE,TRUE,TRUE,FALSE,"""event"",""trial"",""time""
""fullscreenenter"",""5"",""17846""
","
","
","""event"",""trial"",""time""
""fullscreenenter"",""5"",""17846""
","
",NA,images/earth.jpg,NA,NA,NA,NA,NA,NA,NA,NA,NA,NA,NA,NA,NA,fixation,NA,NA,NA,NA,NA,NA,sub29
d3-animate-choice,198,796912,0.0-76.0-0.21,FALSE,TRUE,TRUE,FALSE,"""event"",""trial"",""time""
""fullscreenenter"",""5"",""17846""
","
","
","""event"",""trial"",""time""
""fullscreenenter"",""5"",""17846""
","
",765.9750000457279,NA,48,NA,NA,3000,1,NA,NA,images/earth.jpg,images/rocket1,images/rocket2,null,images/rocket1,NA,1,real,null,2,NA,NA,NA,sub29
d3-animate-choice,199,799523,0.0-76.0-1.21,FALSE,TRUE,TRUE,FALSE,"""event"",""trial"",""time""
""fullscreenenter"",""5"",""17846""
","
","
","""event"",""trial"",""time""
""fullscreenenter"",""5"",""17846""
","
",604.7700000344776,NA,48,NA,NA,3000,1,NA,NA,images/redplanet1.jpg,images/alien2,images/alien1,images/rocket1,images/alien2,images/t.png,2,real,true,2,common,1,2020-06-12T20:10:14Z,sub29
two-step-fixation,200,800528,0.0-76.0-2.21,FALSE,TRUE,TRUE,FALSE,"""event"",""trial"",""time""
""fullscreenenter"",""5"",""17846""
","
","
","""event"",""trial"",""time""
""fullscreenenter"",""5"",""17846""
","
",NA,images/earth.jpg,NA,NA,NA,NA,NA,NA,NA,NA,NA,NA,NA,NA,NA,fixation,NA,NA,NA,NA,NA,NA,sub29
d3-animate-choice,201,802914,0.0-76.0-0.22,FALSE,TRUE,TRUE,FALSE,"""event"",""trial"",""time""
""fullscreenenter"",""5"",""17846""
","
","
","""event"",""trial"",""time""
""fullscreenenter"",""5"",""17846""
","
",382.0549999945797,NA,48,NA,NA,3000,1,NA,NA,images/earth.jpg,images/rocket1,images/rocket2,null,images/rocket1,NA,1,real,null,2,NA,NA,NA,sub29
d3-animate-choice,202,805304,0.0-76.0-1.22,FALSE,TRUE,TRUE,FALSE,"""event"",""trial"",""time""
""fullscreenenter"",""5"",""17846""
","
","
","""event"",""trial"",""time""
""fullscreenenter"",""5"",""17846""
","
",383.3000000449829,NA,48,NA,NA,3000,1,NA,NA,images/purpleplanet.jpg,images/alien4,images/alien3,images/rocket1,images/alien4,images/t.png,2,real,false,2,rare,1,2020-06-12T20:10:19Z,sub29
two-step-fixation,203,806308,0.0-76.0-2.22,FALSE,TRUE,TRUE,FALSE,"""event"",""trial"",""time""
""fullscreenenter"",""5"",""17846""
","
","
","""event"",""trial"",""time""
""fullscreenenter"",""5"",""17846""
","
",NA,images/earth.jpg,NA,NA,NA,NA,NA,NA,NA,NA,NA,NA,NA,NA,NA,fixation,NA,NA,NA,NA,NA,NA,sub29
d3-animate-choice,204,808654,0.0-76.0-0.23,FALSE,TRUE,TRUE,FALSE,"""event"",""trial"",""time""
""fullscreenenter"",""5"",""17846""
","
","
","""event"",""trial"",""time""
""fullscreenenter"",""5"",""17846""
","
",339.5549999549985,NA,49,NA,NA,3000,1,NA,NA,images/earth.jpg,images/rocket1,images/rocket2,null,images/rocket2,NA,1,real,null,1,NA,NA,NA,sub29
d3-animate-choice,205,811351,0.0-76.0-1.23,FALSE,TRUE,TRUE,FALSE,"""event"",""trial"",""time""
""fullscreenenter"",""5"",""17846""
","
","
","""event"",""trial"",""time""
""fullscreenenter"",""5"",""17846""
","
",691.2000000011176,NA,48,NA,NA,3000,1,NA,NA,images/redplanet1.jpg,images/alien2,images/alien1,images/rocket2,images/alien2,images/t.png,2,real,false,2,rare,1,2020-06-12T20:10:25Z,sub29
two-step-fixation,206,812357,0.0-76.0-2.23,FALSE,TRUE,TRUE,FALSE,"""event"",""trial"",""time""
""fullscreenenter"",""5"",""17846""
","
","
","""event"",""trial"",""time""
""fullscreenenter"",""5"",""17846""
","
",NA,images/earth.jpg,NA,NA,NA,NA,NA,NA,NA,NA,NA,NA,NA,NA,NA,fixation,NA,NA,NA,NA,NA,NA,sub29
d3-animate-choice,207,814785,0.0-76.0-0.24,FALSE,TRUE,TRUE,FALSE,"""event"",""trial"",""time""
""fullscreenenter"",""5"",""17846""
","
","
","""event"",""trial"",""time""
""fullscreenenter"",""5"",""17846""
","
",421.10999999567866,NA,48,NA,NA,3000,1,NA,NA,images/earth.jpg,images/rocket1,images/rocket2,null,images/rocket1,NA,1,real,null,2,NA,NA,NA,sub29
d3-animate-choice,208,817233,0.0-76.0-1.24,FALSE,TRUE,TRUE,FALSE,"""event"",""trial"",""time""
""fullscreenenter"",""5"",""17846""
","
","
","""event"",""trial"",""time""
""fullscreenenter"",""5"",""17846""
","
",441.35999999707565,NA,48,NA,NA,3000,1,NA,NA,images/purpleplanet.jpg,images/alien4,images/alien3,images/rocket1,images/alien4,images/t.png,2,real,false,2,rare,1,2020-06-12T20:10:31Z,sub29
two-step-fixation,209,818237,0.0-76.0-2.24,FALSE,TRUE,TRUE,FALSE,"""event"",""trial"",""time""
""fullscreenenter"",""5"",""17846""
","
","
","""event"",""trial"",""time""
""fullscreenenter"",""5"",""17846""
","
",NA,images/earth.jpg,NA,NA,NA,NA,NA,NA,NA,NA,NA,NA,NA,NA,NA,fixation,NA,NA,NA,NA,NA,NA,sub29
d3-animate-choice,210,820724,0.0-76.0-0.25,FALSE,TRUE,TRUE,FALSE,"""event"",""trial"",""time""
""fullscreenenter"",""5"",""17846""
","
","
","""event"",""trial"",""time""
""fullscreenenter"",""5"",""17846""
","
",481.4550000010058,NA,49,NA,NA,3000,1,NA,NA,images/earth.jpg,images/rocket1,images/rocket2,null,images/rocket2,NA,1,real,null,1,NA,NA,NA,sub29
d3-animate-choice,211,823065,0.0-76.0-1.25,FALSE,TRUE,TRUE,FALSE,"""event"",""trial"",""time""
""fullscreenenter"",""5"",""17846""
","
","
","""event"",""trial"",""time""
""fullscreenenter"",""5"",""17846""
","
",334.15000000968575,NA,48,NA,NA,3000,1,NA,NA,images/purpleplanet.jpg,images/alien4,images/alien3,images/rocket2,images/alien4,images/t.png,2,real,true,2,common,1,2020-06-12T20:10:37Z,sub29
two-step-fixation,212,824068,0.0-76.0-2.25,FALSE,TRUE,TRUE,FALSE,"""event"",""trial"",""time""
""fullscreenenter"",""5"",""17846""
","
","
","""event"",""trial"",""time""
""fullscreenenter"",""5"",""17846""
","
",NA,images/earth.jpg,NA,NA,NA,NA,NA,NA,NA,NA,NA,NA,NA,NA,NA,fixation,NA,NA,NA,NA,NA,NA,sub29
d3-animate-choice,213,826556,0.0-76.0-0.26,FALSE,TRUE,TRUE,FALSE,"""event"",""trial"",""time""
""fullscreenenter"",""5"",""17846""
","
","
","""event"",""trial"",""time""
""fullscreenenter"",""5"",""17846""
","
",480.78500002156943,NA,48,NA,NA,3000,1,NA,NA,images/earth.jpg,images/rocket1,images/rocket2,null,images/rocket1,NA,1,real,null,2,NA,NA,NA,sub29
d3-animate-choice,214,829115,0.0-76.0-1.26,FALSE,TRUE,TRUE,FALSE,"""event"",""trial"",""time""
""fullscreenenter"",""5"",""17846""
","
","
","""event"",""trial"",""time""
""fullscreenenter"",""5"",""17846""
","
",552.3750000284053,NA,48,NA,NA,3000,1,NA,NA,images/redplanet1.jpg,images/alien2,images/alien1,images/rocket1,images/alien2,images/t.png,2,real,true,2,common,1,2020-06-12T20:10:43Z,sub29
two-step-fixation,215,830121,0.0-76.0-2.26,FALSE,TRUE,TRUE,FALSE,"""event"",""trial"",""time""
""fullscreenenter"",""5"",""17846""
","
","
","""event"",""trial"",""time""
""fullscreenenter"",""5"",""17846""
","
",NA,images/earth.jpg,NA,NA,NA,NA,NA,NA,NA,NA,NA,NA,NA,NA,NA,fixation,NA,NA,NA,NA,NA,NA,sub29
d3-animate-choice,216,832433,0.0-76.0-0.27,FALSE,TRUE,TRUE,FALSE,"""event"",""trial"",""time""
""fullscreenenter"",""5"",""17846""
","
","
","""event"",""trial"",""time""
""fullscreenenter"",""5"",""17846""
","
",306.32999999215826,NA,48,NA,NA,3000,1,NA,NA,images/earth.jpg,images/rocket1,images/rocket2,null,images/rocket1,NA,1,real,null,2,NA,NA,NA,sub29
d3-animate-choice,217,834792,0.0-76.0-1.27,FALSE,TRUE,TRUE,FALSE,"""event"",""trial"",""time""
""fullscreenenter"",""5"",""17846""
","
","
","""event"",""trial"",""time""
""fullscreenenter"",""5"",""17846""
","
",352.370000036899,NA,48,NA,NA,3000,1,NA,NA,images/redplanet1.jpg,images/alien2,images/alien1,images/rocket1,images/alien2,images/t.png,2,real,true,2,common,1,2020-06-12T20:10:49Z,sub29
two-step-fixation,218,835798,0.0-76.0-2.27,FALSE,TRUE,TRUE,FALSE,"""event"",""trial"",""time""
""fullscreenenter"",""5"",""17846""
","
","
","""event"",""trial"",""time""
""fullscreenenter"",""5"",""17846""
","
",NA,images/earth.jpg,NA,NA,NA,NA,NA,NA,NA,NA,NA,NA,NA,NA,NA,fixation,NA,NA,NA,NA,NA,NA,sub29
d3-animate-choice,219,838106,0.0-76.0-0.28,FALSE,TRUE,TRUE,FALSE,"""event"",""trial"",""time""
""fullscreenenter"",""5"",""17846""
","
","
","""event"",""trial"",""time""
""fullscreenenter"",""5"",""17846""
","
",303.2700000330806,NA,48,NA,NA,3000,1,NA,NA,images/earth.jpg,images/rocket1,images/rocket2,null,images/rocket1,NA,1,real,null,2,NA,NA,NA,sub29
d3-animate-choice,220,840653,0.0-76.0-1.28,FALSE,TRUE,TRUE,FALSE,"""event"",""trial"",""time""
""fullscreenenter"",""5"",""17846""
","
","
","""event"",""trial"",""time""
""fullscreenenter"",""5"",""17846""
","
",543.2999999611638,NA,48,NA,NA,3000,1,NA,NA,images/redplanet1.jpg,images/alien2,images/alien1,images/rocket1,images/alien2,images/nothing.png,2,real,true,2,common,0,2020-06-12T20:10:55Z,sub29
two-step-fixation,221,841660,0.0-76.0-2.28,FALSE,TRUE,TRUE,FALSE,"""event"",""trial"",""time""
""fullscreenenter"",""5"",""17846""
","
","
","""event"",""trial"",""time""
""fullscreenenter"",""5"",""17846""
","
",NA,images/earth.jpg,NA,NA,NA,NA,NA,NA,NA,NA,NA,NA,NA,NA,NA,fixation,NA,NA,NA,NA,NA,NA,sub29
d3-animate-choice,222,844065,0.0-76.0-0.29,FALSE,TRUE,TRUE,FALSE,"""event"",""trial"",""time""
""fullscreenenter"",""5"",""17846""
","
","
","""event"",""trial"",""time""
""fullscreenenter"",""5"",""17846""
","
",398.83999997982755,NA,49,NA,NA,3000,1,1586.9049999746494,13,images/earth.jpg,images/rocket1,images/rocket2,null,images/rocket2,NA,1,real,null,1,NA,NA,NA,sub29
d3-animate-choice,223,847034,0.0-76.0-1.29,FALSE,TRUE,TRUE,FALSE,"""event"",""trial"",""time""
""fullscreenenter"",""5"",""17846""
","
","
","""event"",""trial"",""time""
""fullscreenenter"",""5"",""17846""
","
",962.2499999823049,NA,48,NA,NA,3000,1,2303.144999954384,48,images/purpleplanet.jpg,images/alien4,images/alien3,images/rocket2,images/alien4,images/t.png,2,real,true,2,common,1,2020-06-12T20:11:01Z,sub29
two-step-fixation,224,848040,0.0-76.0-2.29,FALSE,TRUE,TRUE,FALSE,"""event"",""trial"",""time""
""fullscreenenter"",""5"",""17846""
","
","
","""event"",""trial"",""time""
""fullscreenenter"",""5"",""17846""
","
",NA,images/earth.jpg,NA,NA,NA,NA,NA,NA,NA,NA,NA,NA,NA,NA,NA,fixation,NA,NA,NA,NA,NA,NA,sub29
d3-animate-choice,225,850602,0.0-76.0-0.30,FALSE,TRUE,TRUE,FALSE,"""event"",""trial"",""time""
""fullscreenenter"",""5"",""17846""
","
","
","""event"",""trial"",""time""
""fullscreenenter"",""5"",""17846""
","
",555.8850000379607,NA,48,NA,NA,3000,1,NA,NA,images/earth.jpg,images/rocket1,images/rocket2,null,images/rocket1,NA,1,real,null,2,NA,NA,NA,sub29
d3-animate-choice,226,853163,0.0-76.0-1.30,FALSE,TRUE,TRUE,FALSE,"""event"",""trial"",""time""
""fullscreenenter"",""5"",""17846""
","
","
","""event"",""trial"",""time""
""fullscreenenter"",""5"",""17846""
","
",556.1549999983981,NA,48,NA,NA,3000,1,NA,NA,images/redplanet1.jpg,images/alien2,images/alien1,images/rocket1,images/alien2,images/t.png,2,real,true,2,common,1,2020-06-12T20:11:07Z,sub29
two-step-fixation,227,854165,0.0-76.0-2.30,FALSE,TRUE,TRUE,FALSE,"""event"",""trial"",""time""
""fullscreenenter"",""5"",""17846""
","
","
","""event"",""trial"",""time""
""fullscreenenter"",""5"",""17846""
","
",NA,images/earth.jpg,NA,NA,NA,NA,NA,NA,NA,NA,NA,NA,NA,NA,NA,fixation,NA,NA,NA,NA,NA,NA,sub29
d3-animate-choice,228,856794,0.0-76.0-0.31,FALSE,TRUE,TRUE,FALSE,"""event"",""trial"",""time""
""fullscreenenter"",""5"",""17846""
","
","
","""event"",""trial"",""time""
""fullscreenenter"",""5"",""17846""
","
",622.2950000083074,NA,49,NA,NA,3000,1,NA,NA,images/earth.jpg,images/rocket1,images/rocket2,null,images/rocket2,NA,1,real,null,1,NA,NA,NA,sub29
d3-animate-choice,229,859296,0.0-76.0-1.31,FALSE,TRUE,TRUE,FALSE,"""event"",""trial"",""time""
""fullscreenenter"",""5"",""17846""
","
","
","""event"",""trial"",""time""
""fullscreenenter"",""5"",""17846""
","
",494.7350000147708,NA,48,NA,NA,3000,1,NA,NA,images/purpleplanet.jpg,images/alien4,images/alien3,images/rocket2,images/alien4,images/t.png,2,real,true,2,common,1,2020-06-12T20:11:13Z,sub29
two-step-fixation,230,860302,0.0-76.0-2.31,FALSE,TRUE,TRUE,FALSE,"""event"",""trial"",""time""
""fullscreenenter"",""5"",""17846""
","
","
","""event"",""trial"",""time""
""fullscreenenter"",""5"",""17846""
","
",NA,images/earth.jpg,NA,NA,NA,NA,NA,NA,NA,NA,NA,NA,NA,NA,NA,fixation,NA,NA,NA,NA,NA,NA,sub29
d3-animate-choice,231,862902,0.0-76.0-0.32,FALSE,TRUE,TRUE,FALSE,"""event"",""trial"",""time""
""fullscreenenter"",""5"",""17846""
","
","
","""event"",""trial"",""time""
""fullscreenenter"",""5"",""17846""
","
",594.2599999834783,NA,49,NA,NA,3000,1,NA,NA,images/earth.jpg,images/rocket1,images/rocket2,null,images/rocket2,NA,1,real,null,1,NA,NA,NA,sub29
d3-animate-choice,232,865516,0.0-76.0-1.32,FALSE,TRUE,TRUE,FALSE,"""event"",""trial"",""time""
""fullscreenenter"",""5"",""17846""
","
","
","""event"",""trial"",""time""
""fullscreenenter"",""5"",""17846""
","
",609.8950000014156,NA,48,NA,NA,3000,1,NA,NA,images/purpleplanet.jpg,images/alien4,images/alien3,images/rocket2,images/alien4,images/t.png,2,real,true,2,common,1,2020-06-12T20:11:20Z,sub29
two-step-fixation,233,866523,0.0-76.0-2.32,FALSE,TRUE,TRUE,FALSE,"""event"",""trial"",""time""
""fullscreenenter"",""5"",""17846""
","
","
","""event"",""trial"",""time""
""fullscreenenter"",""5"",""17846""
","
",NA,images/earth.jpg,NA,NA,NA,NA,NA,NA,NA,NA,NA,NA,NA,NA,NA,fixation,NA,NA,NA,NA,NA,NA,sub29
d3-animate-choice,234,868925,0.0-76.0-0.33,FALSE,TRUE,TRUE,FALSE,"""event"",""trial"",""time""
""fullscreenenter"",""5"",""17846""
","
","
","""event"",""trial"",""time""
""fullscreenenter"",""5"",""17846""
","
",395.699999993667,NA,48,NA,NA,3000,1,NA,NA,images/earth.jpg,images/rocket1,images/rocket2,null,images/rocket1,NA,1,real,null,2,NA,NA,NA,sub29
d3-animate-choice,235,871424,0.0-76.0-1.33,FALSE,TRUE,TRUE,FALSE,"""event"",""trial"",""time""
""fullscreenenter"",""5"",""17846""
","
","
","""event"",""trial"",""time""
""fullscreenenter"",""5"",""17846""
","
",492.86499997833744,NA,48,NA,NA,3000,1,NA,NA,images/redplanet1.jpg,images/alien2,images/alien1,images/rocket1,images/alien2,images/nothing.png,2,real,true,2,common,0,2020-06-12T20:11:25Z,sub29
two-step-fixation,236,872432,0.0-76.0-2.33,FALSE,TRUE,TRUE,FALSE,"""event"",""trial"",""time""
""fullscreenenter"",""5"",""17846""
","
","
","""event"",""trial"",""time""
""fullscreenenter"",""5"",""17846""
","
",NA,images/earth.jpg,NA,NA,NA,NA,NA,NA,NA,NA,NA,NA,NA,NA,NA,fixation,NA,NA,NA,NA,NA,NA,sub29
d3-animate-choice,237,874624,0.0-76.0-0.34,FALSE,TRUE,TRUE,FALSE,"""event"",""trial"",""time""
""fullscreenenter"",""5"",""17846""
","
","
","""event"",""trial"",""time""
""fullscreenenter"",""5"",""17846""
","
",184.57000004127622,NA,48,NA,NA,3000,1,NA,NA,images/earth.jpg,images/rocket1,images/rocket2,null,images/rocket1,NA,1,real,null,2,NA,NA,NA,sub29
d3-animate-choice,238,877045,0.0-76.0-1.34,FALSE,TRUE,TRUE,FALSE,"""event"",""trial"",""time""
""fullscreenenter"",""5"",""17846""
","
","
","""event"",""trial"",""time""
""fullscreenenter"",""5"",""17846""
","
",417.284999974072,NA,49,NA,NA,3000,1,NA,NA,images/redplanet1.jpg,images/alien2,images/alien1,images/rocket1,images/alien1,images/t.png,2,real,true,1,common,1,2020-06-12T20:11:31Z,sub29
two-step-fixation,239,878051,0.0-76.0-2.34,FALSE,TRUE,TRUE,FALSE,"""event"",""trial"",""time""
""fullscreenenter"",""5"",""17846""
","
","
","""event"",""trial"",""time""
""fullscreenenter"",""5"",""17846""
","
",NA,images/earth.jpg,NA,NA,NA,NA,NA,NA,NA,NA,NA,NA,NA,NA,NA,fixation,NA,NA,NA,NA,NA,NA,sub29
d3-animate-choice,240,880455,0.0-76.0-0.35,FALSE,TRUE,TRUE,FALSE,"""event"",""trial"",""time""
""fullscreenenter"",""5"",""17846""
","
","
","""event"",""trial"",""time""
""fullscreenenter"",""5"",""17846""
","
",398.3400000142865,NA,48,NA,NA,3000,1,NA,NA,images/earth.jpg,images/rocket1,images/rocket2,null,images/rocket1,NA,1,real,null,2,NA,NA,NA,sub29
d3-animate-choice,241,882856,0.0-76.0-1.35,FALSE,TRUE,TRUE,FALSE,"""event"",""trial"",""time""
""fullscreenenter"",""5"",""17846""
","
","
","""event"",""trial"",""time""
""fullscreenenter"",""5"",""17846""
","
",394.30499996524304,NA,49,NA,NA,3000,1,924.6649999986403,49,images/purpleplanet.jpg,images/alien4,images/alien3,images/rocket1,images/alien3,images/nothing.png,2,real,false,1,rare,0,2020-06-12T20:11:37Z,sub29
two-step-fixation,242,883862,0.0-76.0-2.35,FALSE,TRUE,TRUE,FALSE,"""event"",""trial"",""time""
""fullscreenenter"",""5"",""17846""
","
","
","""event"",""trial"",""time""
""fullscreenenter"",""5"",""17846""
","
",NA,images/earth.jpg,NA,NA,NA,NA,NA,NA,NA,NA,NA,NA,NA,NA,NA,fixation,NA,NA,NA,NA,NA,NA,sub29
d3-animate-choice,243,886317,0.0-76.0-0.36,FALSE,TRUE,TRUE,FALSE,"""event"",""trial"",""time""
""fullscreenenter"",""5"",""17846""
","
","
","""event"",""trial"",""time""
""fullscreenenter"",""5"",""17846""
","
",450.78999997349456,NA,49,NA,NA,3000,1,2109.7500000032596,49,images/earth.jpg,images/rocket1,images/rocket2,null,images/rocket2,NA,1,real,null,1,NA,NA,NA,sub29
d3-animate-choice,244,888745,0.0-76.0-1.36,FALSE,TRUE,TRUE,FALSE,"""event"",""trial"",""time""
""fullscreenenter"",""5"",""17846""
","
","
","""event"",""trial"",""time""
""fullscreenenter"",""5"",""17846""
","
",422.8400000138208,NA,48,NA,NA,3000,1,NA,NA,images/purpleplanet.jpg,images/alien4,images/alien3,images/rocket2,images/alien4,images/t.png,2,real,true,2,common,1,2020-06-12T20:11:43Z,sub29
two-step-fixation,245,889748,0.0-76.0-2.36,FALSE,TRUE,TRUE,FALSE,"""event"",""trial"",""time""
""fullscreenenter"",""5"",""17846""
","
","
","""event"",""trial"",""time""
""fullscreenenter"",""5"",""17846""
","
",NA,images/earth.jpg,NA,NA,NA,NA,NA,NA,NA,NA,NA,NA,NA,NA,NA,fixation,NA,NA,NA,NA,NA,NA,sub29
d3-animate-choice,246,892235,0.0-76.0-0.37,FALSE,TRUE,TRUE,FALSE,"""event"",""trial"",""time""
""fullscreenenter"",""5"",""17846""
","
","
","""event"",""trial"",""time""
""fullscreenenter"",""5"",""17846""
","
",481.25000001164153,NA,48,NA,NA,3000,1,NA,NA,images/earth.jpg,images/rocket1,images/rocket2,null,images/rocket1,NA,1,real,null,2,NA,NA,NA,sub29
d3-animate-choice,247,894668,0.0-76.0-1.37,FALSE,TRUE,TRUE,FALSE,"""event"",""trial"",""time""
""fullscreenenter"",""5"",""17846""
","
","
","""event"",""trial"",""time""
""fullscreenenter"",""5"",""17846""
","
",427.27499996544793,NA,49,NA,NA,3000,1,NA,NA,images/purpleplanet.jpg,images/alien4,images/alien3,images/rocket1,images/alien3,images/nothing.png,2,real,false,1,rare,0,2020-06-12T20:11:49Z,sub29
two-step-fixation,248,895674,0.0-76.0-2.37,FALSE,TRUE,TRUE,FALSE,"""event"",""trial"",""time""
""fullscreenenter"",""5"",""17846""
","
","
","""event"",""trial"",""time""
""fullscreenenter"",""5"",""17846""
","
",NA,images/earth.jpg,NA,NA,NA,NA,NA,NA,NA,NA,NA,NA,NA,NA,NA,fixation,NA,NA,NA,NA,NA,NA,sub29
d3-animate-choice,249,898006,0.0-76.0-0.38,FALSE,TRUE,TRUE,FALSE,"""event"",""trial"",""time""
""fullscreenenter"",""5"",""17846""
","
","
","""event"",""trial"",""time""
""fullscreenenter"",""5"",""17846""
","
",328.4350000321865,NA,49,NA,NA,3000,1,NA,NA,images/earth.jpg,images/rocket1,images/rocket2,null,images/rocket2,NA,1,real,null,1,NA,NA,NA,sub29
d3-animate-choice,250,900526,0.0-76.0-1.38,FALSE,TRUE,TRUE,FALSE,"""event"",""trial"",""time""
""fullscreenenter"",""5"",""17846""
","
","
","""event"",""trial"",""time""
""fullscreenenter"",""5"",""17846""
","
",516.3150000153109,NA,48,NA,NA,3000,1,NA,NA,images/purpleplanet.jpg,images/alien4,images/alien3,images/rocket2,images/alien4,images/t.png,2,real,true,2,common,1,2020-06-12T20:11:55Z,sub29
two-step-fixation,251,901532,0.0-76.0-2.38,FALSE,TRUE,TRUE,FALSE,"""event"",""trial"",""time""
""fullscreenenter"",""5"",""17846""
","
","
","""event"",""trial"",""time""
""fullscreenenter"",""5"",""17846""
","
",NA,images/earth.jpg,NA,NA,NA,NA,NA,NA,NA,NA,NA,NA,NA,NA,NA,fixation,NA,NA,NA,NA,NA,NA,sub29
d3-animate-choice,252,904005,0.0-76.0-0.39,FALSE,TRUE,TRUE,FALSE,"""event"",""trial"",""time""
""fullscreenenter"",""5"",""17846""
","
","
","""event"",""trial"",""time""
""fullscreenenter"",""5"",""17846""
","
",467.4300000187941,NA,48,NA,NA,3000,1,NA,NA,images/earth.jpg,images/rocket1,images/rocket2,null,images/rocket1,NA,1,real,null,2,NA,NA,NA,sub29
d3-animate-choice,253,906328,0.0-76.0-1.39,FALSE,TRUE,TRUE,FALSE,"""event"",""trial"",""time""
""fullscreenenter"",""5"",""17846""
","
","
","""event"",""trial"",""time""
""fullscreenenter"",""5"",""17846""
","
",317.3949999618344,NA,48,NA,NA,3000,1,NA,NA,images/redplanet1.jpg,images/alien2,images/alien1,images/rocket1,images/alien2,images/t.png,2,real,true,2,common,1,2020-06-12T20:12:00Z,sub29
two-step-fixation,254,907333,0.0-76.0-2.39,FALSE,TRUE,TRUE,FALSE,"""event"",""trial"",""time""
""fullscreenenter"",""5"",""17846""
","
","
","""event"",""trial"",""time""
""fullscreenenter"",""5"",""17846""
","
",NA,images/earth.jpg,NA,NA,NA,NA,NA,NA,NA,NA,NA,NA,NA,NA,NA,fixation,NA,NA,NA,NA,NA,NA,sub29
d3-animate-choice,255,909926,0.0-76.0-0.40,FALSE,TRUE,TRUE,FALSE,"""event"",""trial"",""time""
""fullscreenenter"",""5"",""17846""
","
","
","""event"",""trial"",""time""
""fullscreenenter"",""5"",""17846""
","
",586.5699999849312,NA,49,NA,NA,3000,1,NA,NA,images/earth.jpg,images/rocket1,images/rocket2,null,images/rocket2,NA,1,real,null,1,NA,NA,NA,sub29
d3-animate-choice,256,913046,0.0-76.0-1.40,FALSE,TRUE,TRUE,FALSE,"""event"",""trial"",""time""
""fullscreenenter"",""5"",""17846""
","
","
","""event"",""trial"",""time""
""fullscreenenter"",""5"",""17846""
","
",1113.275000010617,NA,48,NA,NA,3000,1,NA,NA,images/purpleplanet.jpg,images/alien4,images/alien3,images/rocket2,images/alien4,images/nothing.png,2,real,true,2,common,0,2020-06-12T20:12:07Z,sub29
two-step-fixation,257,914051,0.0-76.0-2.40,FALSE,TRUE,TRUE,FALSE,"""event"",""trial"",""time""
""fullscreenenter"",""5"",""17846""
","
","
","""event"",""trial"",""time""
""fullscreenenter"",""5"",""17846""
","
",NA,images/earth.jpg,NA,NA,NA,NA,NA,NA,NA,NA,NA,NA,NA,NA,NA,fixation,NA,NA,NA,NA,NA,NA,sub29
d3-animate-choice,258,916554,0.0-76.0-0.41,FALSE,TRUE,TRUE,FALSE,"""event"",""trial"",""time""
""fullscreenenter"",""5"",""17846""
","
","
","""event"",""trial"",""time""
""fullscreenenter"",""5"",""17846""
","
",496.9500000006519,NA,48,NA,NA,3000,1,NA,NA,images/earth.jpg,images/rocket1,images/rocket2,null,images/rocket1,NA,1,real,null,2,NA,NA,NA,sub29
d3-animate-choice,259,919166,0.0-76.0-1.41,FALSE,TRUE,TRUE,FALSE,"""event"",""trial"",""time""
""fullscreenenter"",""5"",""17846""
","
","
","""event"",""trial"",""time""
""fullscreenenter"",""5"",""17846""
","
",606.0750000178814,NA,48,NA,NA,3000,1,NA,NA,images/redplanet1.jpg,images/alien2,images/alien1,images/rocket1,images/alien2,images/nothing.png,2,real,true,2,common,0,2020-06-12T20:12:13Z,sub29
two-step-fixation,260,920173,0.0-76.0-2.41,FALSE,TRUE,TRUE,FALSE,"""event"",""trial"",""time""
""fullscreenenter"",""5"",""17846""
","
","
","""event"",""trial"",""time""
""fullscreenenter"",""5"",""17846""
","
",NA,images/earth.jpg,NA,NA,NA,NA,NA,NA,NA,NA,NA,NA,NA,NA,NA,fixation,NA,NA,NA,NA,NA,NA,sub29
d3-animate-choice,261,922226,0.0-76.0-0.42,FALSE,TRUE,TRUE,FALSE,"""event"",""trial"",""time""
""fullscreenenter"",""5"",""17846""
","
","
","""event"",""trial"",""time""
""fullscreenenter"",""5"",""17846""
","
",47.309999994467944,NA,48,NA,NA,3000,1,NA,NA,images/earth.jpg,images/rocket1,images/rocket2,null,images/rocket1,NA,1,real,null,2,NA,NA,NA,sub29
d3-animate-choice,262,924996,0.0-76.0-1.42,FALSE,TRUE,TRUE,FALSE,"""event"",""trial"",""time""
""fullscreenenter"",""5"",""17846""
","
","
","""event"",""trial"",""time""
""fullscreenenter"",""5"",""17846""
","
",764.5100000081584,NA,49,NA,NA,3000,1,NA,NA,images/redplanet1.jpg,images/alien2,images/alien1,images/rocket1,images/alien1,images/t.png,2,real,true,1,common,1,2020-06-12T20:12:19Z,sub29
two-step-fixation,263,926002,0.0-76.0-2.42,FALSE,TRUE,TRUE,FALSE,"""event"",""trial"",""time""
""fullscreenenter"",""5"",""17846""
","
","
","""event"",""trial"",""time""
""fullscreenenter"",""5"",""17846""
","
",NA,images/earth.jpg,NA,NA,NA,NA,NA,NA,NA,NA,NA,NA,NA,NA,NA,fixation,NA,NA,NA,NA,NA,NA,sub29
d3-animate-choice,264,928438,0.0-76.0-0.43,FALSE,TRUE,TRUE,FALSE,"""event"",""trial"",""time""
""fullscreenenter"",""5"",""17846""
","
","
","""event"",""trial"",""time""
""fullscreenenter"",""5"",""17846""
","
",429.00500004179776,NA,48,NA,NA,3000,1,NA,NA,images/earth.jpg,images/rocket1,images/rocket2,null,images/rocket1,NA,1,real,null,2,NA,NA,NA,sub29
d3-animate-choice,265,930837,0.0-76.0-1.43,FALSE,TRUE,TRUE,FALSE,"""event"",""trial"",""time""
""fullscreenenter"",""5"",""17846""
","
","
","""event"",""trial"",""time""
""fullscreenenter"",""5"",""17846""
","
",391.84499997645617,NA,49,NA,NA,3000,1,NA,NA,images/redplanet1.jpg,images/alien2,images/alien1,images/rocket1,images/alien1,images/t.png,2,real,true,1,common,1,2020-06-12T20:12:25Z,sub29
two-step-fixation,266,931842,0.0-76.0-2.43,FALSE,TRUE,TRUE,FALSE,"""event"",""trial"",""time""
""fullscreenenter"",""5"",""17846""
","
","
","""event"",""trial"",""time""
""fullscreenenter"",""5"",""17846""
","
",NA,images/earth.jpg,NA,NA,NA,NA,NA,NA,NA,NA,NA,NA,NA,NA,NA,fixation,NA,NA,NA,NA,NA,NA,sub29
d3-animate-choice,267,934308,0.0-76.0-0.44,FALSE,TRUE,TRUE,FALSE,"""event"",""trial"",""time""
""fullscreenenter"",""5"",""17846""
","
","
","""event"",""trial"",""time""
""fullscreenenter"",""5"",""17846""
","
",460.1200000033714,NA,48,NA,NA,3000,1,NA,NA,images/earth.jpg,images/rocket1,images/rocket2,null,images/rocket1,NA,1,real,null,2,NA,NA,NA,sub29
d3-animate-choice,268,936767,0.0-76.0-1.44,FALSE,TRUE,TRUE,FALSE,"""event"",""trial"",""time""
""fullscreenenter"",""5"",""17846""
","
","
","""event"",""trial"",""time""
""fullscreenenter"",""5"",""17846""
","
",451.56499999575317,NA,49,NA,NA,3000,1,NA,NA,images/redplanet1.jpg,images/alien2,images/alien1,images/rocket1,images/alien1,images/nothing.png,2,real,true,1,common,0,2020-06-12T20:12:31Z,sub29
two-step-fixation,269,937772,0.0-76.0-2.44,FALSE,TRUE,TRUE,FALSE,"""event"",""trial"",""time""
""fullscreenenter"",""5"",""17846""
","
","
","""event"",""trial"",""time""
""fullscreenenter"",""5"",""17846""
","
",NA,images/earth.jpg,NA,NA,NA,NA,NA,NA,NA,NA,NA,NA,NA,NA,NA,fixation,NA,NA,NA,NA,NA,NA,sub29
d3-animate-choice,270,939947,0.0-76.0-0.45,FALSE,TRUE,TRUE,FALSE,"""event"",""trial"",""time""
""fullscreenenter"",""5"",""17846""
","
","
","""event"",""trial"",""time""
""fullscreenenter"",""5"",""17846""
","
",168.54500002227724,NA,48,NA,NA,3000,1,NA,NA,images/earth.jpg,images/rocket1,images/rocket2,null,images/rocket1,NA,1,real,null,2,NA,NA,NA,sub29
d3-animate-choice,271,942537,0.0-76.0-1.45,FALSE,TRUE,TRUE,FALSE,"""event"",""trial"",""time""
""fullscreenenter"",""5"",""17846""
","
","
","""event"",""trial"",""time""
""fullscreenenter"",""5"",""17846""
","
",583.310000016354,NA,49,NA,NA,3000,1,NA,NA,images/purpleplanet.jpg,images/alien4,images/alien3,images/rocket1,images/alien3,images/nothing.png,2,real,false,1,rare,0,2020-06-12T20:12:37Z,sub29
two-step-fixation,272,943544,0.0-76.0-2.45,FALSE,TRUE,TRUE,FALSE,"""event"",""trial"",""time""
""fullscreenenter"",""5"",""17846""
","
","
","""event"",""trial"",""time""
""fullscreenenter"",""5"",""17846""
","
",NA,images/earth.jpg,NA,NA,NA,NA,NA,NA,NA,NA,NA,NA,NA,NA,NA,fixation,NA,NA,NA,NA,NA,NA,sub29
d3-animate-choice,273,946057,0.0-76.0-0.46,FALSE,TRUE,TRUE,FALSE,"""event"",""trial"",""time""
""fullscreenenter"",""5"",""17846""
","
","
","""event"",""trial"",""time""
""fullscreenenter"",""5"",""17846""
","
",507.61999998940155,NA,49,NA,NA,3000,1,NA,NA,images/earth.jpg,images/rocket1,images/rocket2,null,images/rocket2,NA,1,real,null,1,NA,NA,NA,sub29
d3-animate-choice,274,948786,0.0-76.0-1.46,FALSE,TRUE,TRUE,FALSE,"""event"",""trial"",""time""
""fullscreenenter"",""5"",""17846""
","
","
","""event"",""trial"",""time""
""fullscreenenter"",""5"",""17846""
","
",700.6550000514835,NA,191,NA,NA,3000,1,"720.7350000389852,2569.680000015069",4848,images/redplanet1.jpg,images/alien2,images/alien1,images/rocket2,images/alien2,images/t.png,2,real,false,NA,rare,1,2020-06-12T20:12:43Z,sub29
two-step-fixation,275,949789,0.0-76.0-2.46,FALSE,TRUE,TRUE,FALSE,"""event"",""trial"",""time""
""fullscreenenter"",""5"",""17846""
","
","
","""event"",""trial"",""time""
""fullscreenenter"",""5"",""17846""
","
",NA,images/earth.jpg,NA,NA,NA,NA,NA,NA,NA,NA,NA,NA,NA,NA,NA,fixation,NA,NA,NA,NA,NA,NA,sub29
d3-animate-choice,276,952207,0.0-76.0-0.47,FALSE,TRUE,TRUE,FALSE,"""event"",""trial"",""time""
""fullscreenenter"",""5"",""17846""
","
","
","""event"",""trial"",""time""
""fullscreenenter"",""5"",""17846""
","
",411.6700000013225,NA,49,NA,NA,3000,1,NA,NA,images/earth.jpg,images/rocket1,images/rocket2,null,images/rocket2,NA,1,real,null,1,NA,NA,NA,sub29
d3-animate-choice,277,954757,0.0-76.0-1.47,FALSE,TRUE,TRUE,FALSE,"""event"",""trial"",""time""
""fullscreenenter"",""5"",""17846""
","
","
","""event"",""trial"",""time""
""fullscreenenter"",""5"",""17846""
","
",543.245000008028,NA,48,NA,NA,3000,1,NA,NA,images/purpleplanet.jpg,images/alien4,images/alien3,images/rocket2,images/alien4,images/nothing.png,2,real,true,2,common,0,2020-06-12T20:12:49Z,sub29
two-step-fixation,278,955766,0.0-76.0-2.47,FALSE,TRUE,TRUE,FALSE,"""event"",""trial"",""time""
""fullscreenenter"",""5"",""17846""
","
","
","""event"",""trial"",""time""
""fullscreenenter"",""5"",""17846""
","
",NA,images/earth.jpg,NA,NA,NA,NA,NA,NA,NA,NA,NA,NA,NA,NA,NA,fixation,NA,NA,NA,NA,NA,NA,sub29
d3-animate-choice,279,958337,0.0-76.0-0.48,FALSE,TRUE,TRUE,FALSE,"""event"",""trial"",""time""
""fullscreenenter"",""5"",""17846""
","
","
","""event"",""trial"",""time""
""fullscreenenter"",""5"",""17846""
","
",565.0900000473484,NA,48,NA,NA,3000,1,NA,NA,images/earth.jpg,images/rocket1,images/rocket2,null,images/rocket1,NA,1,real,null,2,NA,NA,NA,sub29
d3-animate-choice,280,960869,0.0-76.0-1.48,FALSE,TRUE,TRUE,FALSE,"""event"",""trial"",""time""
""fullscreenenter"",""5"",""17846""
","
","
","""event"",""trial"",""time""
""fullscreenenter"",""5"",""17846""
","
",523.3299999963492,NA,49,NA,NA,3000,1,NA,NA,images/redplanet1.jpg,images/alien2,images/alien1,images/rocket1,images/alien1,images/t.png,2,real,true,1,common,1,2020-06-12T20:12:55Z,sub29
two-step-fixation,281,961874,0.0-76.0-2.48,FALSE,TRUE,TRUE,FALSE,"""event"",""trial"",""time""
""fullscreenenter"",""5"",""17846""
","
","
","""event"",""trial"",""time""
""fullscreenenter"",""5"",""17846""
","
",NA,images/earth.jpg,NA,NA,NA,NA,NA,NA,NA,NA,NA,NA,NA,NA,NA,fixation,NA,NA,NA,NA,NA,NA,sub29
d3-animate-choice,282,964379,0.0-76.0-0.49,FALSE,TRUE,TRUE,FALSE,"""event"",""trial"",""time""
""fullscreenenter"",""5"",""17846""
","
","
","""event"",""trial"",""time""
""fullscreenenter"",""5"",""17846""
","
",496.7150000156835,NA,48,NA,NA,3000,1,NA,NA,images/earth.jpg,images/rocket1,images/rocket2,null,images/rocket1,NA,1,real,null,2,NA,NA,NA,sub29
