trial_type,trial_index,time_elapsed,internal_node_id,rocket_sides,red_planet_first_rocket,red_display_order,purple_display_order,interactions,blur_events,focus_events,fullscreenenter_events,fullscreenexit_events,rt,stimulus,key_press,button_pressed,success,duration,valid_pressed,rts,keys,planet_text,right_text,left_text,center_text,chosen_text,reward_text,trial_stage,practice_trial,transition_type,choice,transition,reward,timestamp,subject_id
pavlovia,0,4,0.0-0.0,FALSE,TRUE,FALSE,TRUE,"
","
","
","
","
",NA,NA,NA,NA,NA,NA,NA,NA,NA,NA,NA,NA,NA,NA,NA,NA,NA,NA,NA,NA,NA,NA,sub139
html-keyboard-response,1,1077,0.0-1.0,FALSE,TRUE,FALSE,TRUE,"
","
","
","
","
",1072.470000013709,Welcome! Press the space bar to begin.,32,NA,NA,NA,NA,NA,NA,NA,NA,NA,NA,NA,NA,NA,NA,NA,NA,NA,NA,NA,sub139
audio-keyboard-response,2,6973,0.0-2.0,FALSE,TRUE,FALSE,TRUE,"
","
","
","
","
",5851,audio/beep_loop.wav,32,NA,NA,NA,NA,NA,NA,NA,NA,NA,NA,NA,NA,NA,NA,NA,NA,NA,NA,NA,sub139
audio-button-response,3,9414,0.0-3.0,FALSE,TRUE,FALSE,TRUE,"
","
","
","
","
",NaN,audio/fish.mp3,NA,1,NA,NA,NA,NA,NA,NA,NA,NA,NA,NA,NA,NA,NA,NA,NA,NA,NA,NA,sub139
audio-button-response,4,12108,0.0-4.0,FALSE,TRUE,FALSE,TRUE,"""event"",""trial"",""time""
""fullscreenenter"",""5"",""16382""
","
","
","""event"",""trial"",""time""
""fullscreenenter"",""5"",""16382""
","
",NaN,audio/tiger.mp3,NA,4,NA,NA,NA,NA,NA,NA,NA,NA,NA,NA,NA,NA,NA,NA,NA,NA,NA,NA,sub139
fullscreen,5,17360,0.0-5.0,FALSE,TRUE,FALSE,TRUE,"""event"",""trial"",""time""
""fullscreenenter"",""5"",""16382""
","
","
","""event"",""trial"",""time""
""fullscreenenter"",""5"",""16382""
","
",NA,NA,NA,NA,TRUE,NA,NA,NA,NA,NA,NA,NA,NA,NA,NA,NA,NA,NA,NA,NA,NA,NA,sub139
d3-instructions,6,27957,0.0-6.0,FALSE,TRUE,FALSE,TRUE,"""event"",""trial"",""time""
""fullscreenenter"",""5"",""16382""
","
","
","""event"",""trial"",""time""
""fullscreenenter"",""5"",""16382""
","
",NA,NA,NA,NA,NA,NA,NA,NA,NA,NA,NA,NA,NA,NA,NA,NA,NA,NA,NA,NA,NA,NA,sub139
d3-instructions,7,38020,0.0-7.0,FALSE,TRUE,FALSE,TRUE,"""event"",""trial"",""time""
""fullscreenenter"",""5"",""16382""
","
","
","""event"",""trial"",""time""
""fullscreenenter"",""5"",""16382""
","
",NA,NA,NA,NA,NA,NA,NA,NA,NA,NA,NA,NA,NA,NA,NA,NA,NA,NA,NA,NA,NA,NA,sub139
d3-instructions,8,44795,0.0-8.0,FALSE,TRUE,FALSE,TRUE,"""event"",""trial"",""time""
""fullscreenenter"",""5"",""16382""
","
","
","""event"",""trial"",""time""
""fullscreenenter"",""5"",""16382""
","
",NA,NA,NA,NA,NA,NA,NA,NA,NA,NA,NA,NA,NA,NA,NA,NA,NA,NA,NA,NA,NA,NA,sub139
d3-instructions,9,55189,0.0-9.0,FALSE,TRUE,FALSE,TRUE,"""event"",""trial"",""time""
""fullscreenenter"",""5"",""16382""
","
","
","""event"",""trial"",""time""
""fullscreenenter"",""5"",""16382""
","
",NA,NA,NA,NA,NA,NA,NA,NA,NA,NA,NA,NA,NA,NA,NA,NA,NA,NA,NA,NA,NA,NA,sub139
d3-instructions,10,68399,0.0-10.0,FALSE,TRUE,FALSE,TRUE,"""event"",""trial"",""time""
""fullscreenenter"",""5"",""16382""
","
","
","""event"",""trial"",""time""
""fullscreenenter"",""5"",""16382""
","
",NA,NA,NA,NA,NA,NA,NA,NA,NA,NA,NA,NA,NA,NA,NA,NA,NA,NA,NA,NA,NA,NA,sub139
d3-animate-choice,11,71372,0.0-11.0,FALSE,TRUE,FALSE,TRUE,"""event"",""trial"",""time""
""fullscreenenter"",""5"",""16382""
","
","
","""event"",""trial"",""time""
""fullscreenenter"",""5"",""16382""
","
",965.665000025183,NA,49,NA,NA,3000,1,1951.0999999474734,48,images/tutgreenplanet.jpg,images/tutalien1,images/tutalien2,null,images/tutalien2,NA,NA,practice,null,NA,NA,NA,NA,sub139
d3-animate-choice,12,73586,0.0-12.0,FALSE,TRUE,FALSE,TRUE,"""event"",""trial"",""time""
""fullscreenenter"",""5"",""16382""
","
","
","""event"",""trial"",""time""
""fullscreenenter"",""5"",""16382""
","
",206.0649999184534,NA,48,NA,NA,3000,1,999.3199999444187,48,images/tutgreenplanet.jpg,images/tutalien1,images/tutalien2,null,images/tutalien1,NA,NA,practice,null,NA,NA,NA,NA,sub139
d3-animate-choice,13,75920,0.0-13.0,FALSE,TRUE,FALSE,TRUE,"""event"",""trial"",""time""
""fullscreenenter"",""5"",""16382""
","
","
","""event"",""trial"",""time""
""fullscreenenter"",""5"",""16382""
","
",328.63000000361353,NA,48,NA,NA,3000,1,NA,NA,images/tutgreenplanet.jpg,images/tutalien1,images/tutalien2,null,images/tutalien1,NA,NA,practice,null,NA,NA,NA,NA,sub139
d3-animate-choice,14,78749,0.0-14.0,FALSE,TRUE,FALSE,TRUE,"""event"",""trial"",""time""
""fullscreenenter"",""5"",""16382""
","
","
","""event"",""trial"",""time""
""fullscreenenter"",""5"",""16382""
","
",821.544999955222,NA,49,NA,NA,3000,1,NA,NA,images/tutgreenplanet.jpg,images/tutalien1,images/tutalien2,null,images/tutalien2,NA,NA,practice,null,NA,NA,NA,NA,sub139
d3-instructions,15,85246,0.0-15.0,FALSE,TRUE,FALSE,TRUE,"""event"",""trial"",""time""
""fullscreenenter"",""5"",""16382""
","
","
","""event"",""trial"",""time""
""fullscreenenter"",""5"",""16382""
","
",NA,NA,NA,NA,NA,NA,NA,NA,NA,NA,NA,NA,NA,NA,NA,NA,NA,NA,NA,NA,NA,NA,sub139
d3-instructions,16,91917,0.0-16.0,FALSE,TRUE,FALSE,TRUE,"""event"",""trial"",""time""
""fullscreenenter"",""5"",""16382""
","
","
","""event"",""trial"",""time""
""fullscreenenter"",""5"",""16382""
","
",NA,NA,NA,NA,NA,NA,NA,NA,NA,NA,NA,NA,NA,NA,NA,NA,NA,NA,NA,NA,NA,NA,sub139
d3-instructions,17,100293,0.0-17.0,FALSE,TRUE,FALSE,TRUE,"""event"",""trial"",""time""
""fullscreenenter"",""5"",""16382""
","
","
","""event"",""trial"",""time""
""fullscreenenter"",""5"",""16382""
","
",NA,NA,NA,NA,NA,NA,NA,NA,NA,NA,NA,NA,NA,NA,NA,NA,NA,NA,NA,NA,NA,NA,sub139
d3-instructions,18,112791,0.0-18.0,FALSE,TRUE,FALSE,TRUE,"""event"",""trial"",""time""
""fullscreenenter"",""5"",""16382""
","
","
","""event"",""trial"",""time""
""fullscreenenter"",""5"",""16382""
","
",NA,NA,NA,NA,NA,NA,NA,NA,NA,NA,NA,NA,NA,NA,NA,NA,NA,NA,NA,NA,NA,NA,sub139
d3-instructions,19,120509,0.0-19.0,FALSE,TRUE,FALSE,TRUE,"""event"",""trial"",""time""
""fullscreenenter"",""5"",""16382""
","
","
","""event"",""trial"",""time""
""fullscreenenter"",""5"",""16382""
","
",NA,NA,NA,NA,NA,NA,NA,NA,NA,NA,NA,NA,NA,NA,NA,NA,NA,NA,NA,NA,NA,NA,sub139
d3-animate-choice,20,123585,0.0-20.0,FALSE,TRUE,FALSE,TRUE,"""event"",""trial"",""time""
""fullscreenenter"",""5"",""16382""
","
","
","""event"",""trial"",""time""
""fullscreenenter"",""5"",""16382""
","
",1069.5899999700487,NA,49,NA,NA,3000,1,NA,NA,images/tutyellowplanet.jpg,null,images/tutalien3,null,images/tutalien3,images/t.png,NA,practice,null,NA,NA,NA,NA,sub139
d3-animate-choice,21,125959,0.0-21.0,FALSE,TRUE,FALSE,TRUE,"""event"",""trial"",""time""
""fullscreenenter"",""5"",""16382""
","
","
","""event"",""trial"",""time""
""fullscreenenter"",""5"",""16382""
","
",368.8949999632314,NA,49,NA,NA,3000,1,NA,NA,images/tutyellowplanet.jpg,null,images/tutalien3,null,images/tutalien3,images/t.png,NA,practice,null,NA,NA,NA,NA,sub139
d3-animate-choice,22,128194,0.0-22.0,FALSE,TRUE,FALSE,TRUE,"""event"",""trial"",""time""
""fullscreenenter"",""5"",""16382""
","
","
","""event"",""trial"",""time""
""fullscreenenter"",""5"",""16382""
","
",229.6349999960512,NA,49,NA,NA,3000,1,NA,NA,images/tutyellowplanet.jpg,null,images/tutalien3,null,images/tutalien3,images/t.png,NA,practice,null,NA,NA,NA,NA,sub139
d3-animate-choice,23,130437,0.0-23.0,FALSE,TRUE,FALSE,TRUE,"""event"",""trial"",""time""
""fullscreenenter"",""5"",""16382""
","
","
","""event"",""trial"",""time""
""fullscreenenter"",""5"",""16382""
","
",240.54000002797693,NA,49,NA,NA,3000,1,NA,NA,images/tutyellowplanet.jpg,null,images/tutalien3,null,images/tutalien3,images/t.png,NA,practice,null,NA,NA,NA,NA,sub139
d3-animate-choice,24,132743,0.0-24.0,FALSE,TRUE,FALSE,TRUE,"""event"",""trial"",""time""
""fullscreenenter"",""5"",""16382""
","
","
","""event"",""trial"",""time""
""fullscreenenter"",""5"",""16382""
","
",299.96000009123236,NA,49,NA,NA,3000,1,NA,NA,images/tutyellowplanet.jpg,null,images/tutalien3,null,images/tutalien3,images/t.png,NA,practice,null,NA,NA,NA,NA,sub139
d3-animate-choice,25,135004,0.0-25.0,FALSE,TRUE,FALSE,TRUE,"""event"",""trial"",""time""
""fullscreenenter"",""5"",""16382""
","
","
","""event"",""trial"",""time""
""fullscreenenter"",""5"",""16382""
","
",254.92500001564622,NA,49,NA,NA,3000,1,NA,NA,images/tutyellowplanet.jpg,null,images/tutalien3,null,images/tutalien3,images/nothing.png,NA,practice,null,NA,NA,NA,NA,sub139
d3-animate-choice,26,137324,0.0-26.0,FALSE,TRUE,FALSE,TRUE,"""event"",""trial"",""time""
""fullscreenenter"",""5"",""16382""
","
","
","""event"",""trial"",""time""
""fullscreenenter"",""5"",""16382""
","
",313.800000003539,NA,49,NA,NA,3000,1,NA,NA,images/tutyellowplanet.jpg,null,images/tutalien3,null,images/tutalien3,images/t.png,NA,practice,null,NA,NA,NA,NA,sub139
d3-animate-choice,27,139668,0.0-27.0,FALSE,TRUE,FALSE,TRUE,"""event"",""trial"",""time""
""fullscreenenter"",""5"",""16382""
","
","
","""event"",""trial"",""time""
""fullscreenenter"",""5"",""16382""
","
",336.3400000380352,NA,49,NA,NA,3000,1,NA,NA,images/tutyellowplanet.jpg,null,images/tutalien3,null,images/tutalien3,images/t.png,NA,practice,null,NA,NA,NA,NA,sub139
d3-animate-choice,28,141939,0.0-28.0,FALSE,TRUE,FALSE,TRUE,"""event"",""trial"",""time""
""fullscreenenter"",""5"",""16382""
","
","
","""event"",""trial"",""time""
""fullscreenenter"",""5"",""16382""
","
",264.23999993130565,NA,49,NA,NA,3000,1,NA,NA,images/tutyellowplanet.jpg,null,images/tutalien3,null,images/tutalien3,images/t.png,NA,practice,null,NA,NA,NA,NA,sub139
d3-animate-choice,29,144223,0.0-29.0,FALSE,TRUE,FALSE,TRUE,"""event"",""trial"",""time""
""fullscreenenter"",""5"",""16382""
","
","
","""event"",""trial"",""time""
""fullscreenenter"",""5"",""16382""
","
",280.9249999700114,NA,49,NA,NA,3000,1,NA,NA,images/tutyellowplanet.jpg,null,images/tutalien3,null,images/tutalien3,images/t.png,NA,practice,null,NA,NA,NA,NA,sub139
d3-instructions,30,147585,0.0-30.0,FALSE,TRUE,FALSE,TRUE,"""event"",""trial"",""time""
""fullscreenenter"",""5"",""16382""
","
","
","""event"",""trial"",""time""
""fullscreenenter"",""5"",""16382""
","
",NA,NA,NA,NA,NA,NA,NA,NA,NA,NA,NA,NA,NA,NA,NA,NA,NA,NA,NA,NA,NA,NA,sub139
d3-instructions,31,157532,0.0-31.0,FALSE,TRUE,FALSE,TRUE,"""event"",""trial"",""time""
""fullscreenenter"",""5"",""16382""
","
","
","""event"",""trial"",""time""
""fullscreenenter"",""5"",""16382""
","
",NA,NA,NA,NA,NA,NA,NA,NA,NA,NA,NA,NA,NA,NA,NA,NA,NA,NA,NA,NA,NA,NA,sub139
d3-instructions,32,163818,0.0-32.0,FALSE,TRUE,FALSE,TRUE,"""event"",""trial"",""time""
""fullscreenenter"",""5"",""16382""
","
","
","""event"",""trial"",""time""
""fullscreenenter"",""5"",""16382""
","
",NA,NA,NA,NA,NA,NA,NA,NA,NA,NA,NA,NA,NA,NA,NA,NA,NA,NA,NA,NA,NA,NA,sub139
d3-instructions,33,174245,0.0-33.0,FALSE,TRUE,FALSE,TRUE,"""event"",""trial"",""time""
""fullscreenenter"",""5"",""16382""
","
","
","""event"",""trial"",""time""
""fullscreenenter"",""5"",""16382""
","
",NA,NA,NA,NA,NA,NA,NA,NA,NA,NA,NA,NA,NA,NA,NA,NA,NA,NA,NA,NA,NA,NA,sub139
d3-animate-choice,34,177133,0.0-34.0,FALSE,TRUE,FALSE,TRUE,"""event"",""trial"",""time""
""fullscreenenter"",""5"",""16382""
","
","
","""event"",""trial"",""time""
""fullscreenenter"",""5"",""16382""
","
",883.5749999852851,NA,49,NA,NA,3000,1,NA,NA,images/tutgreenplanet.jpg,images/tutalien1,images/tutalien2,null,images/tutalien2,images/t.png,NA,practice,null,NA,NA,NA,NA,sub139
d3-animate-choice,35,179430,0.0-35.0,FALSE,TRUE,FALSE,TRUE,"""event"",""trial"",""time""
""fullscreenenter"",""5"",""16382""
","
","
","""event"",""trial"",""time""
""fullscreenenter"",""5"",""16382""
","
",292.68499999307096,NA,49,NA,NA,3000,1,NA,NA,images/tutgreenplanet.jpg,images/tutalien1,images/tutalien2,null,images/tutalien2,images/t.png,NA,practice,null,NA,NA,NA,NA,sub139
d3-animate-choice,36,181691,0.0-36.0,FALSE,TRUE,FALSE,TRUE,"""event"",""trial"",""time""
""fullscreenenter"",""5"",""16382""
","
","
","""event"",""trial"",""time""
""fullscreenenter"",""5"",""16382""
","
",258.37000005412847,NA,49,NA,NA,3000,1,NA,NA,images/tutgreenplanet.jpg,images/tutalien1,images/tutalien2,null,images/tutalien2,images/t.png,NA,practice,null,NA,NA,NA,NA,sub139
d3-animate-choice,37,183971,0.0-37.0,FALSE,TRUE,FALSE,TRUE,"""event"",""trial"",""time""
""fullscreenenter"",""5"",""16382""
","
","
","""event"",""trial"",""time""
""fullscreenenter"",""5"",""16382""
","
",275.9050000458956,NA,49,NA,NA,3000,1,NA,NA,images/tutgreenplanet.jpg,images/tutalien1,images/tutalien2,null,images/tutalien2,images/t.png,NA,practice,null,NA,NA,NA,NA,sub139
d3-animate-choice,38,186230,0.0-38.0,FALSE,TRUE,FALSE,TRUE,"""event"",""trial"",""time""
""fullscreenenter"",""5"",""16382""
","
","
","""event"",""trial"",""time""
""fullscreenenter"",""5"",""16382""
","
",255.05999999586493,NA,49,NA,NA,3000,1,NA,NA,images/tutgreenplanet.jpg,images/tutalien1,images/tutalien2,null,images/tutalien2,images/nothing.png,NA,practice,null,NA,NA,NA,NA,sub139
d3-animate-choice,39,188464,0.0-39.0,FALSE,TRUE,FALSE,TRUE,"""event"",""trial"",""time""
""fullscreenenter"",""5"",""16382""
","
","
","""event"",""trial"",""time""
""fullscreenenter"",""5"",""16382""
","
",228.90500002540648,NA,49,NA,NA,3000,1,NA,NA,images/tutgreenplanet.jpg,images/tutalien1,images/tutalien2,null,images/tutalien2,images/t.png,NA,practice,null,NA,NA,NA,NA,sub139
d3-animate-choice,40,190755,0.0-40.0,FALSE,TRUE,FALSE,TRUE,"""event"",""trial"",""time""
""fullscreenenter"",""5"",""16382""
","
","
","""event"",""trial"",""time""
""fullscreenenter"",""5"",""16382""
","
",283.8299999712035,NA,49,NA,NA,3000,1,NA,NA,images/tutgreenplanet.jpg,images/tutalien1,images/tutalien2,null,images/tutalien2,images/t.png,NA,practice,null,NA,NA,NA,NA,sub139
d3-animate-choice,41,193024,0.0-41.0,FALSE,TRUE,FALSE,TRUE,"""event"",""trial"",""time""
""fullscreenenter"",""5"",""16382""
","
","
","""event"",""trial"",""time""
""fullscreenenter"",""5"",""16382""
","
",266.38499996624887,NA,49,NA,NA,3000,1,NA,NA,images/tutgreenplanet.jpg,images/tutalien1,images/tutalien2,null,images/tutalien2,images/t.png,NA,practice,null,NA,NA,NA,NA,sub139
d3-animate-choice,42,195230,0.0-42.0,FALSE,TRUE,FALSE,TRUE,"""event"",""trial"",""time""
""fullscreenenter"",""5"",""16382""
","
","
","""event"",""trial"",""time""
""fullscreenenter"",""5"",""16382""
","
",202.47500005643815,NA,49,NA,NA,3000,1,NA,NA,images/tutgreenplanet.jpg,images/tutalien1,images/tutalien2,null,images/tutalien2,images/t.png,NA,practice,null,NA,NA,NA,NA,sub139
d3-animate-choice,43,197475,0.0-43.0,FALSE,TRUE,FALSE,TRUE,"""event"",""trial"",""time""
""fullscreenenter"",""5"",""16382""
","
","
","""event"",""trial"",""time""
""fullscreenenter"",""5"",""16382""
","
",237.12999990675598,NA,49,NA,NA,3000,1,NA,NA,images/tutgreenplanet.jpg,images/tutalien1,images/tutalien2,null,images/tutalien2,images/t.png,NA,practice,null,NA,NA,NA,NA,sub139
d3-instructions,44,209030,0.0-44.0,FALSE,TRUE,FALSE,TRUE,"""event"",""trial"",""time""
""fullscreenenter"",""5"",""16382""
","
","
","""event"",""trial"",""time""
""fullscreenenter"",""5"",""16382""
","
",NA,NA,NA,NA,NA,NA,NA,NA,NA,NA,NA,NA,NA,NA,NA,NA,NA,NA,NA,NA,NA,NA,sub139
d3-instructions,45,212467,0.0-45.0,FALSE,TRUE,FALSE,TRUE,"""event"",""trial"",""time""
""fullscreenenter"",""5"",""16382""
","
","
","""event"",""trial"",""time""
""fullscreenenter"",""5"",""16382""
","
",NA,NA,NA,NA,NA,NA,NA,NA,NA,NA,NA,NA,NA,NA,NA,NA,NA,NA,NA,NA,NA,NA,sub139
d3-instructions,46,217147,0.0-46.0,FALSE,TRUE,FALSE,TRUE,"""event"",""trial"",""time""
""fullscreenenter"",""5"",""16382""
","
","
","""event"",""trial"",""time""
""fullscreenenter"",""5"",""16382""
","
",NA,NA,NA,NA,NA,NA,NA,NA,NA,NA,NA,NA,NA,NA,NA,NA,NA,NA,NA,NA,NA,NA,sub139
d3-instructions,47,232033,0.0-47.0,FALSE,TRUE,FALSE,TRUE,"""event"",""trial"",""time""
""fullscreenenter"",""5"",""16382""
","
","
","""event"",""trial"",""time""
""fullscreenenter"",""5"",""16382""
","
",NA,NA,NA,NA,NA,NA,NA,NA,NA,NA,NA,NA,NA,NA,NA,NA,NA,NA,NA,NA,NA,NA,sub139
d3-instructions,48,237954,0.0-48.0,FALSE,TRUE,FALSE,TRUE,"""event"",""trial"",""time""
""fullscreenenter"",""5"",""16382""
","
","
","""event"",""trial"",""time""
""fullscreenenter"",""5"",""16382""
","
",NA,NA,NA,NA,NA,NA,NA,NA,NA,NA,NA,NA,NA,NA,NA,NA,NA,NA,NA,NA,NA,NA,sub139
d3-instructions,49,244596,0.0-49.0,FALSE,TRUE,FALSE,TRUE,"""event"",""trial"",""time""
""fullscreenenter"",""5"",""16382""
","
","
","""event"",""trial"",""time""
""fullscreenenter"",""5"",""16382""
","
",NA,NA,NA,NA,NA,NA,NA,NA,NA,NA,NA,NA,NA,NA,NA,NA,NA,NA,NA,NA,NA,NA,sub139
d3-instructions,50,252803,0.0-50.0,FALSE,TRUE,FALSE,TRUE,"""event"",""trial"",""time""
""fullscreenenter"",""5"",""16382""
","
","
","""event"",""trial"",""time""
""fullscreenenter"",""5"",""16382""
","
",NA,NA,NA,NA,NA,NA,NA,NA,NA,NA,NA,NA,NA,NA,NA,NA,NA,NA,NA,NA,NA,NA,sub139
d3-instructions,51,255797,0.0-51.0,FALSE,TRUE,FALSE,TRUE,"""event"",""trial"",""time""
""fullscreenenter"",""5"",""16382""
","
","
","""event"",""trial"",""time""
""fullscreenenter"",""5"",""16382""
","
",NA,NA,NA,NA,NA,NA,NA,NA,NA,NA,NA,NA,NA,NA,NA,NA,NA,NA,NA,NA,NA,NA,sub139
d3-instructions,52,257687,0.0-52.0,FALSE,TRUE,FALSE,TRUE,"""event"",""trial"",""time""
""fullscreenenter"",""5"",""16382""
","
","
","""event"",""trial"",""time""
""fullscreenenter"",""5"",""16382""
","
",NA,NA,NA,NA,NA,NA,NA,NA,NA,NA,NA,NA,NA,NA,NA,NA,NA,NA,NA,NA,NA,NA,sub139
d3-instructions,53,266501,0.0-53.0,FALSE,TRUE,FALSE,TRUE,"""event"",""trial"",""time""
""fullscreenenter"",""5"",""16382""
","
","
","""event"",""trial"",""time""
""fullscreenenter"",""5"",""16382""
","
",NA,NA,NA,NA,NA,NA,NA,NA,NA,NA,NA,NA,NA,NA,NA,NA,NA,NA,NA,NA,NA,NA,sub139
d3-instructions,54,278363,0.0-54.0,FALSE,TRUE,FALSE,TRUE,"""event"",""trial"",""time""
""fullscreenenter"",""5"",""16382""
","
","
","""event"",""trial"",""time""
""fullscreenenter"",""5"",""16382""
","
",NA,NA,NA,NA,NA,NA,NA,NA,NA,NA,NA,NA,NA,NA,NA,NA,NA,NA,NA,NA,NA,NA,sub139
d3-instructions,55,281749,0.0-55.0,FALSE,TRUE,FALSE,TRUE,"""event"",""trial"",""time""
""fullscreenenter"",""5"",""16382""
","
","
","""event"",""trial"",""time""
""fullscreenenter"",""5"",""16382""
","
",NA,NA,NA,NA,NA,NA,NA,NA,NA,NA,NA,NA,NA,NA,NA,NA,NA,NA,NA,NA,NA,NA,sub139
d3-instructions,56,288187,0.0-56.0,FALSE,TRUE,FALSE,TRUE,"""event"",""trial"",""time""
""fullscreenenter"",""5"",""16382""
","
","
","""event"",""trial"",""time""
""fullscreenenter"",""5"",""16382""
","
",NA,NA,NA,NA,NA,NA,NA,NA,NA,NA,NA,NA,NA,NA,NA,NA,NA,NA,NA,NA,NA,NA,sub139
d3-instructions,57,294769,0.0-57.0,FALSE,TRUE,FALSE,TRUE,"""event"",""trial"",""time""
""fullscreenenter"",""5"",""16382""
","
","
","""event"",""trial"",""time""
""fullscreenenter"",""5"",""16382""
","
",NA,NA,NA,NA,NA,NA,NA,NA,NA,NA,NA,NA,NA,NA,NA,NA,NA,NA,NA,NA,NA,NA,sub139
d3-instructions,58,303203,0.0-58.0,FALSE,TRUE,FALSE,TRUE,"""event"",""trial"",""time""
""fullscreenenter"",""5"",""16382""
","
","
","""event"",""trial"",""time""
""fullscreenenter"",""5"",""16382""
","
",NA,NA,NA,NA,NA,NA,NA,NA,NA,NA,NA,NA,NA,NA,NA,NA,NA,NA,NA,NA,NA,NA,sub139
d3-instructions,59,306585,0.0-59.0,FALSE,TRUE,FALSE,TRUE,"""event"",""trial"",""time""
""fullscreenenter"",""5"",""16382""
","
","
","""event"",""trial"",""time""
""fullscreenenter"",""5"",""16382""
","
",NA,NA,NA,NA,NA,NA,NA,NA,NA,NA,NA,NA,NA,NA,NA,NA,NA,NA,NA,NA,NA,NA,sub139
d3-instructions,60,314320,0.0-60.0,FALSE,TRUE,FALSE,TRUE,"""event"",""trial"",""time""
""fullscreenenter"",""5"",""16382""
","
","
","""event"",""trial"",""time""
""fullscreenenter"",""5"",""16382""
","
",NA,NA,NA,NA,NA,NA,NA,NA,NA,NA,NA,NA,NA,NA,NA,NA,NA,NA,NA,NA,NA,NA,sub139
d3-animate-choice,61,316856,0.0-61.0-0.0,FALSE,TRUE,FALSE,TRUE,"""event"",""trial"",""time""
""fullscreenenter"",""5"",""16382""
","
","
","""event"",""trial"",""time""
""fullscreenenter"",""5"",""16382""
","
",531.7050000885502,NA,49,NA,NA,3000,1,NA,NA,images/earth.jpg,images/tutrocket1,images/tutrocket2,null,images/tutrocket2,NA,1,practice,null,1,NA,NA,NA,sub139
d3-animate-choice,62,319885,0.0-61.0-1.0,FALSE,TRUE,FALSE,TRUE,"""event"",""trial"",""time""
""fullscreenenter"",""5"",""16382""
","
","
","""event"",""trial"",""time""
""fullscreenenter"",""5"",""16382""
","
",1023.8349999999627,NA,49,NA,NA,3000,1,NA,NA,images/tutyellowplanet.jpg,images/tutalien4,images/tutalien3,images/tutrocket2,images/tutalien3,images/nothing.png,2,practice,true,1,common,0,2020-06-24T20:45:32Z,sub139
two-step-fixation,63,320891,0.0-61.0-2.0,FALSE,TRUE,FALSE,TRUE,"""event"",""trial"",""time""
""fullscreenenter"",""5"",""16382""
","
","
","""event"",""trial"",""time""
""fullscreenenter"",""5"",""16382""
","
",NA,images/earth.jpg,NA,NA,NA,NA,NA,NA,NA,NA,NA,NA,NA,NA,NA,fixation,NA,NA,NA,NA,NA,NA,sub139
d3-animate-choice,64,323356,0.0-61.0-0.1,FALSE,TRUE,FALSE,TRUE,"""event"",""trial"",""time""
""fullscreenenter"",""5"",""16382""
","
","
","""event"",""trial"",""time""
""fullscreenenter"",""5"",""16382""
","
",459.02499998919666,NA,49,NA,NA,3000,1,NA,NA,images/earth.jpg,images/tutrocket1,images/tutrocket2,null,images/tutrocket2,NA,1,practice,null,1,NA,NA,NA,sub139
d3-animate-choice,65,325929,0.0-61.0-1.1,FALSE,TRUE,FALSE,TRUE,"""event"",""trial"",""time""
""fullscreenenter"",""5"",""16382""
","
","
","""event"",""trial"",""time""
""fullscreenenter"",""5"",""16382""
","
",569.6699999971315,NA,48,NA,NA,3000,1,NA,NA,images/tutyellowplanet.jpg,images/tutalien4,images/tutalien3,images/tutrocket2,images/tutalien4,images/t.png,2,practice,true,2,common,1,2020-06-24T20:45:38Z,sub139
two-step-fixation,66,326932,0.0-61.0-2.1,FALSE,TRUE,FALSE,TRUE,"""event"",""trial"",""time""
""fullscreenenter"",""5"",""16382""
","
","
","""event"",""trial"",""time""
""fullscreenenter"",""5"",""16382""
","
",NA,images/earth.jpg,NA,NA,NA,NA,NA,NA,NA,NA,NA,NA,NA,NA,NA,fixation,NA,NA,NA,NA,NA,NA,sub139
d3-animate-choice,67,329280,0.0-61.0-0.2,FALSE,TRUE,FALSE,TRUE,"""event"",""trial"",""time""
""fullscreenenter"",""5"",""16382""
","
","
","""event"",""trial"",""time""
""fullscreenenter"",""5"",""16382""
","
",345.19500005990267,NA,49,NA,NA,3000,1,NA,NA,images/earth.jpg,images/tutrocket1,images/tutrocket2,null,images/tutrocket2,NA,1,practice,null,1,NA,NA,NA,sub139
d3-animate-choice,68,331741,0.0-61.0-1.2,FALSE,TRUE,FALSE,TRUE,"""event"",""trial"",""time""
""fullscreenenter"",""5"",""16382""
","
","
","""event"",""trial"",""time""
""fullscreenenter"",""5"",""16382""
","
",457.8149999724701,NA,48,NA,NA,3000,1,NA,NA,images/tutyellowplanet.jpg,images/tutalien4,images/tutalien3,images/tutrocket2,images/tutalien4,images/t.png,2,practice,true,2,common,1,2020-06-24T20:45:44Z,sub139
two-step-fixation,69,332743,0.0-61.0-2.2,FALSE,TRUE,FALSE,TRUE,"""event"",""trial"",""time""
""fullscreenenter"",""5"",""16382""
","
","
","""event"",""trial"",""time""
""fullscreenenter"",""5"",""16382""
","
",NA,images/earth.jpg,NA,NA,NA,NA,NA,NA,NA,NA,NA,NA,NA,NA,NA,fixation,NA,NA,NA,NA,NA,NA,sub139
d3-animate-choice,70,335148,0.0-61.0-0.3,FALSE,TRUE,FALSE,TRUE,"""event"",""trial"",""time""
""fullscreenenter"",""5"",""16382""
","
","
","""event"",""trial"",""time""
""fullscreenenter"",""5"",""16382""
","
",399.9550000298768,NA,49,NA,NA,3000,1,NA,NA,images/earth.jpg,images/tutrocket1,images/tutrocket2,null,images/tutrocket2,NA,1,practice,null,1,NA,NA,NA,sub139
d3-animate-choice,71,337541,0.0-61.0-1.3,FALSE,TRUE,FALSE,TRUE,"""event"",""trial"",""time""
""fullscreenenter"",""5"",""16382""
","
","
","""event"",""trial"",""time""
""fullscreenenter"",""5"",""16382""
","
",388.08499998413026,NA,48,NA,NA,3000,1,NA,NA,images/tutyellowplanet.jpg,images/tutalien4,images/tutalien3,images/tutrocket2,images/tutalien4,images/t.png,2,practice,true,2,common,1,2020-06-24T20:45:50Z,sub139
two-step-fixation,72,338546,0.0-61.0-2.3,FALSE,TRUE,FALSE,TRUE,"""event"",""trial"",""time""
""fullscreenenter"",""5"",""16382""
","
","
","""event"",""trial"",""time""
""fullscreenenter"",""5"",""16382""
","
",NA,images/earth.jpg,NA,NA,NA,NA,NA,NA,NA,NA,NA,NA,NA,NA,NA,fixation,NA,NA,NA,NA,NA,NA,sub139
d3-animate-choice,73,340960,0.0-61.0-0.4,FALSE,TRUE,FALSE,TRUE,"""event"",""trial"",""time""
""fullscreenenter"",""5"",""16382""
","
","
","""event"",""trial"",""time""
""fullscreenenter"",""5"",""16382""
","
",408.02999993320554,NA,49,NA,NA,3000,1,NA,NA,images/earth.jpg,images/tutrocket1,images/tutrocket2,null,images/tutrocket2,NA,1,practice,null,1,NA,NA,NA,sub139
d3-animate-choice,74,343363,0.0-61.0-1.4,FALSE,TRUE,FALSE,TRUE,"""event"",""trial"",""time""
""fullscreenenter"",""5"",""16382""
","
","
","""event"",""trial"",""time""
""fullscreenenter"",""5"",""16382""
","
",399.67000007163733,NA,48,NA,NA,3000,1,NA,NA,images/tutgreenplanet.jpg,images/tutalien2,images/tutalien1,images/tutrocket2,images/tutalien2,images/nothing.png,2,practice,false,2,rare,0,2020-06-24T20:45:56Z,sub139
two-step-fixation,75,344371,0.0-61.0-2.4,FALSE,TRUE,FALSE,TRUE,"""event"",""trial"",""time""
""fullscreenenter"",""5"",""16382""
","
","
","""event"",""trial"",""time""
""fullscreenenter"",""5"",""16382""
","
",NA,images/earth.jpg,NA,NA,NA,NA,NA,NA,NA,NA,NA,NA,NA,NA,NA,fixation,NA,NA,NA,NA,NA,NA,sub139
d3-animate-choice,76,346654,0.0-61.0-0.5,FALSE,TRUE,FALSE,TRUE,"""event"",""trial"",""time""
""fullscreenenter"",""5"",""16382""
","
","
","""event"",""trial"",""time""
""fullscreenenter"",""5"",""16382""
","
",275.0949999317527,NA,49,NA,NA,3000,1,NA,NA,images/earth.jpg,images/tutrocket1,images/tutrocket2,null,images/tutrocket2,NA,1,practice,null,1,NA,NA,NA,sub139
d3-animate-choice,77,349057,0.0-61.0-1.5,FALSE,TRUE,FALSE,TRUE,"""event"",""trial"",""time""
""fullscreenenter"",""5"",""16382""
","
","
","""event"",""trial"",""time""
""fullscreenenter"",""5"",""16382""
","
",398.20500009227544,NA,48,NA,NA,3000,1,NA,NA,images/tutyellowplanet.jpg,images/tutalien4,images/tutalien3,images/tutrocket2,images/tutalien4,images/t.png,2,practice,true,2,common,1,2020-06-24T20:46:01Z,sub139
two-step-fixation,78,350064,0.0-61.0-2.5,FALSE,TRUE,FALSE,TRUE,"""event"",""trial"",""time""
""fullscreenenter"",""5"",""16382""
","
","
","""event"",""trial"",""time""
""fullscreenenter"",""5"",""16382""
","
",NA,images/earth.jpg,NA,NA,NA,NA,NA,NA,NA,NA,NA,NA,NA,NA,NA,fixation,NA,NA,NA,NA,NA,NA,sub139
d3-animate-choice,79,352450,0.0-61.0-0.6,FALSE,TRUE,FALSE,TRUE,"""event"",""trial"",""time""
""fullscreenenter"",""5"",""16382""
","
","
","""event"",""trial"",""time""
""fullscreenenter"",""5"",""16382""
","
",381.3899999950081,NA,49,NA,NA,3000,1,NA,NA,images/earth.jpg,images/tutrocket1,images/tutrocket2,null,images/tutrocket2,NA,1,practice,null,1,NA,NA,NA,sub139
d3-animate-choice,80,354815,0.0-61.0-1.6,FALSE,TRUE,FALSE,TRUE,"""event"",""trial"",""time""
""fullscreenenter"",""5"",""16382""
","
","
","""event"",""trial"",""time""
""fullscreenenter"",""5"",""16382""
","
",359.09499996341765,NA,48,NA,NA,3000,1,NA,NA,images/tutyellowplanet.jpg,images/tutalien4,images/tutalien3,images/tutrocket2,images/tutalien4,images/nothing.png,2,practice,true,2,common,0,2020-06-24T20:46:07Z,sub139
two-step-fixation,81,355820,0.0-61.0-2.6,FALSE,TRUE,FALSE,TRUE,"""event"",""trial"",""time""
""fullscreenenter"",""5"",""16382""
","
","
","""event"",""trial"",""time""
""fullscreenenter"",""5"",""16382""
","
",NA,images/earth.jpg,NA,NA,NA,NA,NA,NA,NA,NA,NA,NA,NA,NA,NA,fixation,NA,NA,NA,NA,NA,NA,sub139
d3-animate-choice,82,359138,0.0-61.0-0.7,FALSE,TRUE,FALSE,TRUE,"""event"",""trial"",""time""
""fullscreenenter"",""5"",""16382""
","
","
","""event"",""trial"",""time""
""fullscreenenter"",""5"",""16382""
","
",1310.9300000360236,NA,48,NA,NA,3000,1,NA,NA,images/earth.jpg,images/tutrocket1,images/tutrocket2,null,images/tutrocket1,NA,1,practice,null,2,NA,NA,NA,sub139
d3-animate-choice,83,361579,0.0-61.0-1.7,FALSE,TRUE,FALSE,TRUE,"""event"",""trial"",""time""
""fullscreenenter"",""5"",""16382""
","
","
","""event"",""trial"",""time""
""fullscreenenter"",""5"",""16382""
","
",437.04500002786517,NA,49,NA,NA,3000,1,NA,NA,images/tutgreenplanet.jpg,images/tutalien2,images/tutalien1,images/tutrocket1,images/tutalien1,images/nothing.png,2,practice,true,1,common,0,2020-06-24T20:46:14Z,sub139
two-step-fixation,84,362583,0.0-61.0-2.7,FALSE,TRUE,FALSE,TRUE,"""event"",""trial"",""time""
""fullscreenenter"",""5"",""16382""
","
","
","""event"",""trial"",""time""
""fullscreenenter"",""5"",""16382""
","
",NA,images/earth.jpg,NA,NA,NA,NA,NA,NA,NA,NA,NA,NA,NA,NA,NA,fixation,NA,NA,NA,NA,NA,NA,sub139
d3-animate-choice,85,365174,0.0-61.0-0.8,FALSE,TRUE,FALSE,TRUE,"""event"",""trial"",""time""
""fullscreenenter"",""5"",""16382""
","
","
","""event"",""trial"",""time""
""fullscreenenter"",""5"",""16382""
","
",584.7599999979138,NA,49,NA,NA,3000,1,NA,NA,images/earth.jpg,images/tutrocket1,images/tutrocket2,null,images/tutrocket2,NA,1,practice,null,1,NA,NA,NA,sub139
d3-animate-choice,86,367501,0.0-61.0-1.8,FALSE,TRUE,FALSE,TRUE,"""event"",""trial"",""time""
""fullscreenenter"",""5"",""16382""
","
","
","""event"",""trial"",""time""
""fullscreenenter"",""5"",""16382""
","
",322.6250000298023,NA,48,NA,NA,3000,1,NA,NA,images/tutyellowplanet.jpg,images/tutalien4,images/tutalien3,images/tutrocket2,images/tutalien4,images/nothing.png,2,practice,true,2,common,0,2020-06-24T20:46:20Z,sub139
two-step-fixation,87,368508,0.0-61.0-2.8,FALSE,TRUE,FALSE,TRUE,"""event"",""trial"",""time""
""fullscreenenter"",""5"",""16382""
","
","
","""event"",""trial"",""time""
""fullscreenenter"",""5"",""16382""
","
",NA,images/earth.jpg,NA,NA,NA,NA,NA,NA,NA,NA,NA,NA,NA,NA,NA,fixation,NA,NA,NA,NA,NA,NA,sub139
d3-animate-choice,88,370787,0.0-61.0-0.9,FALSE,TRUE,FALSE,TRUE,"""event"",""trial"",""time""
""fullscreenenter"",""5"",""16382""
","
","
","""event"",""trial"",""time""
""fullscreenenter"",""5"",""16382""
","
",273.9549999823794,NA,49,NA,NA,3000,1,NA,NA,images/earth.jpg,images/tutrocket1,images/tutrocket2,null,images/tutrocket2,NA,1,practice,null,1,NA,NA,NA,sub139
d3-animate-choice,89,373107,0.0-61.0-1.9,FALSE,TRUE,FALSE,TRUE,"""event"",""trial"",""time""
""fullscreenenter"",""5"",""16382""
","
","
","""event"",""trial"",""time""
""fullscreenenter"",""5"",""16382""
","
",314.8849999997765,NA,49,NA,NA,3000,1,NA,NA,images/tutgreenplanet.jpg,images/tutalien2,images/tutalien1,images/tutrocket2,images/tutalien1,images/nothing.png,2,practice,false,1,rare,0,2020-06-24T20:46:25Z,sub139
two-step-fixation,90,374112,0.0-61.0-2.9,FALSE,TRUE,FALSE,TRUE,"""event"",""trial"",""time""
""fullscreenenter"",""5"",""16382""
","
","
","""event"",""trial"",""time""
""fullscreenenter"",""5"",""16382""
","
",NA,images/earth.jpg,NA,NA,NA,NA,NA,NA,NA,NA,NA,NA,NA,NA,NA,fixation,NA,NA,NA,NA,NA,NA,sub139
d3-animate-choice,91,376772,0.0-61.0-0.10,FALSE,TRUE,FALSE,TRUE,"""event"",""trial"",""time""
""fullscreenenter"",""5"",""16382""
","
","
","""event"",""trial"",""time""
""fullscreenenter"",""5"",""16382""
","
",655.0300000235438,NA,49,NA,NA,3000,1,NA,NA,images/earth.jpg,images/tutrocket1,images/tutrocket2,null,images/tutrocket2,NA,1,practice,null,1,NA,NA,NA,sub139
d3-animate-choice,92,379200,0.0-61.0-1.10,FALSE,TRUE,FALSE,TRUE,"""event"",""trial"",""time""
""fullscreenenter"",""5"",""16382""
","
","
","""event"",""trial"",""time""
""fullscreenenter"",""5"",""16382""
","
",421.5649999678135,NA,49,NA,NA,3000,1,NA,NA,images/tutgreenplanet.jpg,images/tutalien2,images/tutalien1,images/tutrocket2,images/tutalien1,images/nothing.png,2,practice,false,1,rare,0,2020-06-24T20:46:32Z,sub139
two-step-fixation,93,380205,0.0-61.0-2.10,FALSE,TRUE,FALSE,TRUE,"""event"",""trial"",""time""
""fullscreenenter"",""5"",""16382""
","
","
","""event"",""trial"",""time""
""fullscreenenter"",""5"",""16382""
","
",NA,images/earth.jpg,NA,NA,NA,NA,NA,NA,NA,NA,NA,NA,NA,NA,NA,fixation,NA,NA,NA,NA,NA,NA,sub139
d3-animate-choice,94,382328,0.0-61.0-0.11,FALSE,TRUE,FALSE,TRUE,"""event"",""trial"",""time""
""fullscreenenter"",""5"",""16382""
","
","
","""event"",""trial"",""time""
""fullscreenenter"",""5"",""16382""
","
",118.98500006645918,NA,49,NA,NA,3000,1,NA,NA,images/earth.jpg,images/tutrocket1,images/tutrocket2,null,images/tutrocket2,NA,1,practice,null,1,NA,NA,NA,sub139
d3-animate-choice,95,384904,0.0-61.0-1.11,FALSE,TRUE,FALSE,TRUE,"""event"",""trial"",""time""
""fullscreenenter"",""5"",""16382""
","
","
","""event"",""trial"",""time""
""fullscreenenter"",""5"",""16382""
","
",569.7849999414757,NA,49,NA,NA,3000,1,NA,NA,images/tutyellowplanet.jpg,images/tutalien4,images/tutalien3,images/tutrocket2,images/tutalien3,images/nothing.png,2,practice,true,1,common,0,2020-06-24T20:46:37Z,sub139
two-step-fixation,96,385909,0.0-61.0-2.11,FALSE,TRUE,FALSE,TRUE,"""event"",""trial"",""time""
""fullscreenenter"",""5"",""16382""
","
","
","""event"",""trial"",""time""
""fullscreenenter"",""5"",""16382""
","
",NA,images/earth.jpg,NA,NA,NA,NA,NA,NA,NA,NA,NA,NA,NA,NA,NA,fixation,NA,NA,NA,NA,NA,NA,sub139
d3-animate-choice,97,388190,0.0-61.0-0.12,FALSE,TRUE,FALSE,TRUE,"""event"",""trial"",""time""
""fullscreenenter"",""5"",""16382""
","
","
","""event"",""trial"",""time""
""fullscreenenter"",""5"",""16382""
","
",277.1049999864772,NA,49,NA,NA,3000,1,NA,NA,images/earth.jpg,images/tutrocket1,images/tutrocket2,null,images/tutrocket2,NA,1,practice,null,1,NA,NA,NA,sub139
d3-animate-choice,98,390645,0.0-61.0-1.12,FALSE,TRUE,FALSE,TRUE,"""event"",""trial"",""time""
""fullscreenenter"",""5"",""16382""
","
","
","""event"",""trial"",""time""
""fullscreenenter"",""5"",""16382""
","
",445.76999999117106,NA,49,NA,NA,3000,1,NA,NA,images/tutyellowplanet.jpg,images/tutalien4,images/tutalien3,images/tutrocket2,images/tutalien3,images/nothing.png,2,practice,true,1,common,0,2020-06-24T20:46:43Z,sub139
two-step-fixation,99,391653,0.0-61.0-2.12,FALSE,TRUE,FALSE,TRUE,"""event"",""trial"",""time""
""fullscreenenter"",""5"",""16382""
","
","
","""event"",""trial"",""time""
""fullscreenenter"",""5"",""16382""
","
",NA,images/earth.jpg,NA,NA,NA,NA,NA,NA,NA,NA,NA,NA,NA,NA,NA,fixation,NA,NA,NA,NA,NA,NA,sub139
d3-animate-choice,100,394262,0.0-61.0-0.13,FALSE,TRUE,FALSE,TRUE,"""event"",""trial"",""time""
""fullscreenenter"",""5"",""16382""
","
","
","""event"",""trial"",""time""
""fullscreenenter"",""5"",""16382""
","
",601.8349999794737,NA,48,NA,NA,3000,1,NA,NA,images/earth.jpg,images/tutrocket1,images/tutrocket2,null,images/tutrocket1,NA,1,practice,null,2,NA,NA,NA,sub139
d3-animate-choice,101,396680,0.0-61.0-1.13,FALSE,TRUE,FALSE,TRUE,"""event"",""trial"",""time""
""fullscreenenter"",""5"",""16382""
","
","
","""event"",""trial"",""time""
""fullscreenenter"",""5"",""16382""
","
",408.919999958016,NA,48,NA,NA,3000,1,NA,NA,images/tutgreenplanet.jpg,images/tutalien2,images/tutalien1,images/tutrocket1,images/tutalien2,images/t.png,2,practice,true,2,common,1,2020-06-24T20:46:49Z,sub139
two-step-fixation,102,397688,0.0-61.0-2.13,FALSE,TRUE,FALSE,TRUE,"""event"",""trial"",""time""
""fullscreenenter"",""5"",""16382""
","
","
","""event"",""trial"",""time""
""fullscreenenter"",""5"",""16382""
","
",NA,images/earth.jpg,NA,NA,NA,NA,NA,NA,NA,NA,NA,NA,NA,NA,NA,fixation,NA,NA,NA,NA,NA,NA,sub139
d3-animate-choice,103,400003,0.0-61.0-0.14,FALSE,TRUE,FALSE,TRUE,"""event"",""trial"",""time""
""fullscreenenter"",""5"",""16382""
","
","
","""event"",""trial"",""time""
""fullscreenenter"",""5"",""16382""
","
",309.58999996073544,NA,48,NA,NA,3000,1,NA,NA,images/earth.jpg,images/tutrocket1,images/tutrocket2,null,images/tutrocket1,NA,1,practice,null,2,NA,NA,NA,sub139
d3-animate-choice,104,402482,0.0-61.0-1.14,FALSE,TRUE,FALSE,TRUE,"""event"",""trial"",""time""
""fullscreenenter"",""5"",""16382""
","
","
","""event"",""trial"",""time""
""fullscreenenter"",""5"",""16382""
","
",471.3149999734014,NA,48,NA,NA,3000,1,NA,NA,images/tutyellowplanet.jpg,images/tutalien4,images/tutalien3,images/tutrocket1,images/tutalien4,images/t.png,2,practice,false,2,rare,1,2020-06-24T20:46:55Z,sub139
two-step-fixation,105,403488,0.0-61.0-2.14,FALSE,TRUE,FALSE,TRUE,"""event"",""trial"",""time""
""fullscreenenter"",""5"",""16382""
","
","
","""event"",""trial"",""time""
""fullscreenenter"",""5"",""16382""
","
",NA,images/earth.jpg,NA,NA,NA,NA,NA,NA,NA,NA,NA,NA,NA,NA,NA,fixation,NA,NA,NA,NA,NA,NA,sub139
d3-animate-choice,106,405682,0.0-61.0-0.15,FALSE,TRUE,FALSE,TRUE,"""event"",""trial"",""time""
""fullscreenenter"",""5"",""16382""
","
","
","""event"",""trial"",""time""
""fullscreenenter"",""5"",""16382""
","
",189.07999992370605,NA,48,NA,NA,3000,1,NA,NA,images/earth.jpg,images/tutrocket1,images/tutrocket2,null,images/tutrocket1,NA,1,practice,null,2,NA,NA,NA,sub139
d3-animate-choice,107,408157,0.0-61.0-1.15,FALSE,TRUE,FALSE,TRUE,"""event"",""trial"",""time""
""fullscreenenter"",""5"",""16382""
","
","
","""event"",""trial"",""time""
""fullscreenenter"",""5"",""16382""
","
",469.96999997645617,NA,48,NA,NA,3000,1,NA,NA,images/tutyellowplanet.jpg,images/tutalien4,images/tutalien3,images/tutrocket1,images/tutalien4,images/t.png,2,practice,false,2,rare,1,2020-06-24T20:47:01Z,sub139
two-step-fixation,108,409161,0.0-61.0-2.15,FALSE,TRUE,FALSE,TRUE,"""event"",""trial"",""time""
""fullscreenenter"",""5"",""16382""
","
","
","""event"",""trial"",""time""
""fullscreenenter"",""5"",""16382""
","
",NA,images/earth.jpg,NA,NA,NA,NA,NA,NA,NA,NA,NA,NA,NA,NA,NA,fixation,NA,NA,NA,NA,NA,NA,sub139
d3-animate-choice,109,411543,0.0-61.0-0.16,FALSE,TRUE,FALSE,TRUE,"""event"",""trial"",""time""
""fullscreenenter"",""5"",""16382""
","
","
","""event"",""trial"",""time""
""fullscreenenter"",""5"",""16382""
","
",377.77500005904585,NA,48,NA,NA,3000,1,NA,NA,images/earth.jpg,images/tutrocket1,images/tutrocket2,null,images/tutrocket1,NA,1,practice,null,2,NA,NA,NA,sub139
d3-animate-choice,110,413990,0.0-61.0-1.16,FALSE,TRUE,FALSE,TRUE,"""event"",""trial"",""time""
""fullscreenenter"",""5"",""16382""
","
","
","""event"",""trial"",""time""
""fullscreenenter"",""5"",""16382""
","
",439.6850001066923,NA,48,NA,NA,3000,1,NA,NA,images/tutyellowplanet.jpg,images/tutalien4,images/tutalien3,images/tutrocket1,images/tutalien4,images/t.png,2,practice,false,2,rare,1,2020-06-24T20:47:06Z,sub139
two-step-fixation,111,414995,0.0-61.0-2.16,FALSE,TRUE,FALSE,TRUE,"""event"",""trial"",""time""
""fullscreenenter"",""5"",""16382""
","
","
","""event"",""trial"",""time""
""fullscreenenter"",""5"",""16382""
","
",NA,images/earth.jpg,NA,NA,NA,NA,NA,NA,NA,NA,NA,NA,NA,NA,NA,fixation,NA,NA,NA,NA,NA,NA,sub139
d3-animate-choice,112,417348,0.0-61.0-0.17,FALSE,TRUE,FALSE,TRUE,"""event"",""trial"",""time""
""fullscreenenter"",""5"",""16382""
","
","
","""event"",""trial"",""time""
""fullscreenenter"",""5"",""16382""
","
",347.5949999410659,NA,48,NA,NA,3000,1,NA,NA,images/earth.jpg,images/tutrocket1,images/tutrocket2,null,images/tutrocket1,NA,1,practice,null,2,NA,NA,NA,sub139
d3-animate-choice,113,419914,0.0-61.0-1.17,FALSE,TRUE,FALSE,TRUE,"""event"",""trial"",""time""
""fullscreenenter"",""5"",""16382""
","
","
","""event"",""trial"",""time""
""fullscreenenter"",""5"",""16382""
","
",558.7150000501424,NA,48,NA,NA,3000,1,NA,NA,images/tutgreenplanet.jpg,images/tutalien2,images/tutalien1,images/tutrocket1,images/tutalien2,images/t.png,2,practice,true,2,common,1,2020-06-24T20:47:12Z,sub139
two-step-fixation,114,420918,0.0-61.0-2.17,FALSE,TRUE,FALSE,TRUE,"""event"",""trial"",""time""
""fullscreenenter"",""5"",""16382""
","
","
","""event"",""trial"",""time""
""fullscreenenter"",""5"",""16382""
","
",NA,images/earth.jpg,NA,NA,NA,NA,NA,NA,NA,NA,NA,NA,NA,NA,NA,fixation,NA,NA,NA,NA,NA,NA,sub139
d3-animate-choice,115,423245,0.0-61.0-0.18,FALSE,TRUE,FALSE,TRUE,"""event"",""trial"",""time""
""fullscreenenter"",""5"",""16382""
","
","
","""event"",""trial"",""time""
""fullscreenenter"",""5"",""16382""
","
",319.1599999554455,NA,48,NA,NA,3000,1,NA,NA,images/earth.jpg,images/tutrocket1,images/tutrocket2,null,images/tutrocket1,NA,1,practice,null,2,NA,NA,NA,sub139
d3-animate-choice,116,425596,0.0-61.0-1.18,FALSE,TRUE,FALSE,TRUE,"""event"",""trial"",""time""
""fullscreenenter"",""5"",""16382""
","
","
","""event"",""trial"",""time""
""fullscreenenter"",""5"",""16382""
","
",344.07999995164573,NA,48,NA,NA,3000,1,NA,NA,images/tutgreenplanet.jpg,images/tutalien2,images/tutalien1,images/tutrocket1,images/tutalien2,images/nothing.png,2,practice,true,2,common,0,2020-06-24T20:47:18Z,sub139
two-step-fixation,117,426600,0.0-61.0-2.18,FALSE,TRUE,FALSE,TRUE,"""event"",""trial"",""time""
""fullscreenenter"",""5"",""16382""
","
","
","""event"",""trial"",""time""
""fullscreenenter"",""5"",""16382""
","
",NA,images/earth.jpg,NA,NA,NA,NA,NA,NA,NA,NA,NA,NA,NA,NA,NA,fixation,NA,NA,NA,NA,NA,NA,sub139
d3-animate-choice,118,429089,0.0-61.0-0.19,FALSE,TRUE,FALSE,TRUE,"""event"",""trial"",""time""
""fullscreenenter"",""5"",""16382""
","
","
","""event"",""trial"",""time""
""fullscreenenter"",""5"",""16382""
","
",479.75500009488314,NA,49,NA,NA,3000,1,NA,NA,images/earth.jpg,images/tutrocket1,images/tutrocket2,null,images/tutrocket2,NA,1,practice,null,1,NA,NA,NA,sub139
d3-animate-choice,119,431484,0.0-61.0-1.19,FALSE,TRUE,FALSE,TRUE,"""event"",""trial"",""time""
""fullscreenenter"",""5"",""16382""
","
","
","""event"",""trial"",""time""
""fullscreenenter"",""5"",""16382""
","
",387.87500001490116,NA,48,NA,NA,3000,1,NA,NA,images/tutyellowplanet.jpg,images/tutalien4,images/tutalien3,images/tutrocket2,images/tutalien4,images/t.png,2,practice,true,2,common,1,2020-06-24T20:47:24Z,sub139
two-step-fixation,120,432489,0.0-61.0-2.19,FALSE,TRUE,FALSE,TRUE,"""event"",""trial"",""time""
""fullscreenenter"",""5"",""16382""
","
","
","""event"",""trial"",""time""
""fullscreenenter"",""5"",""16382""
","
",NA,images/earth.jpg,NA,NA,NA,NA,NA,NA,NA,NA,NA,NA,NA,NA,NA,fixation,NA,NA,NA,NA,NA,NA,sub139
d3-instructions,121,436499,0.0-62.0,FALSE,TRUE,FALSE,TRUE,"""event"",""trial"",""time""
""fullscreenenter"",""5"",""16382""
","
","
","""event"",""trial"",""time""
""fullscreenenter"",""5"",""16382""
","
",NA,NA,NA,NA,NA,NA,NA,NA,NA,NA,NA,NA,NA,NA,NA,NA,NA,NA,NA,NA,NA,NA,sub139
audio-keyboard-response,122,440462,0.0-63.0,FALSE,TRUE,FALSE,TRUE,"""event"",""trial"",""time""
""fullscreenenter"",""5"",""16382""
","
","
","""event"",""trial"",""time""
""fullscreenenter"",""5"",""16382""
","
",3963,audio/instructions/treasure_feedback.wav,32,NA,NA,NA,NA,NA,NA,NA,NA,NA,NA,NA,NA,NA,NA,NA,NA,NA,NA,NA,sub139
d3-instructions,123,447743,0.0-64.0,FALSE,TRUE,FALSE,TRUE,"""event"",""trial"",""time""
""fullscreenenter"",""5"",""16382""
","
","
","""event"",""trial"",""time""
""fullscreenenter"",""5"",""16382""
","
",NA,NA,NA,NA,NA,NA,NA,NA,NA,NA,NA,NA,NA,NA,NA,NA,NA,NA,NA,NA,NA,NA,sub139
d3-instructions,124,459303,0.0-65.0,FALSE,TRUE,FALSE,TRUE,"""event"",""trial"",""time""
""fullscreenenter"",""5"",""16382""
","
","
","""event"",""trial"",""time""
""fullscreenenter"",""5"",""16382""
","
",NA,NA,NA,NA,NA,NA,NA,NA,NA,NA,NA,NA,NA,NA,NA,NA,NA,NA,NA,NA,NA,NA,sub139
d3-instructions,125,478587,0.0-66.0,FALSE,TRUE,FALSE,TRUE,"""event"",""trial"",""time""
""fullscreenenter"",""5"",""16382""
","
","
","""event"",""trial"",""time""
""fullscreenenter"",""5"",""16382""
","
",NA,NA,NA,NA,NA,NA,NA,NA,NA,NA,NA,NA,NA,NA,NA,NA,NA,NA,NA,NA,NA,NA,sub139
d3-instructions,126,490435,0.0-67.0,FALSE,TRUE,FALSE,TRUE,"""event"",""trial"",""time""
""fullscreenenter"",""5"",""16382""
","
","
","""event"",""trial"",""time""
""fullscreenenter"",""5"",""16382""
","
",NA,NA,NA,NA,NA,NA,NA,NA,NA,NA,NA,NA,NA,NA,NA,NA,NA,NA,NA,NA,NA,NA,sub139
d3-instructions,127,493171,0.0-68.0,FALSE,TRUE,FALSE,TRUE,"""event"",""trial"",""time""
""fullscreenenter"",""5"",""16382""
","
","
","""event"",""trial"",""time""
""fullscreenenter"",""5"",""16382""
","
",NA,NA,NA,NA,NA,NA,NA,NA,NA,NA,NA,NA,NA,NA,NA,NA,NA,NA,NA,NA,NA,NA,sub139
instructions-quiz,128,495555,0.0-69.0,FALSE,TRUE,FALSE,TRUE,"""event"",""trial"",""time""
""fullscreenenter"",""5"",""16382""
","
","
","""event"",""trial"",""time""
""fullscreenenter"",""5"",""16382""
","
",2381.5799999283627,audio/quiz/Q1_Prompt.wav,NA,1,NA,NA,NA,NA,NA,NA,NA,NA,NA,NA,NA,NA,NA,NA,NA,NA,NA,NA,sub139
audio-keyboard-response,129,504724,0.0-70.0,FALSE,TRUE,FALSE,TRUE,"""event"",""trial"",""time""
""fullscreenenter"",""5"",""16382""
","
","
","""event"",""trial"",""time""
""fullscreenenter"",""5"",""16382""
","
",null,audio/quiz/Q1_Correct.wav,null,NA,NA,NA,NA,NA,NA,NA,NA,NA,NA,NA,NA,NA,NA,NA,NA,NA,NA,NA,sub139
instructions-quiz,130,512464,0.0-71.0,FALSE,TRUE,FALSE,TRUE,"""event"",""trial"",""time""
""fullscreenenter"",""5"",""16382""
","
","
","""event"",""trial"",""time""
""fullscreenenter"",""5"",""16382""
","
",7738.79999993369,audio/quiz/Q2_Prompt.wav,NA,0,NA,NA,NA,NA,NA,NA,NA,NA,NA,NA,NA,NA,NA,NA,NA,NA,NA,NA,sub139
audio-keyboard-response,131,525331,0.0-72.0,FALSE,TRUE,FALSE,TRUE,"""event"",""trial"",""time""
""fullscreenenter"",""5"",""16382""
","
","
","""event"",""trial"",""time""
""fullscreenenter"",""5"",""16382""
","
",null,audio/quiz/Q2_Correct.wav,null,NA,NA,NA,NA,NA,NA,NA,NA,NA,NA,NA,NA,NA,NA,NA,NA,NA,NA,NA,sub139
instructions-quiz,132,528132,0.0-73.0,FALSE,TRUE,FALSE,TRUE,"""event"",""trial"",""time""
""fullscreenenter"",""5"",""16382""
","
","
","""event"",""trial"",""time""
""fullscreenenter"",""5"",""16382""
","
",2799.9350000172853,audio/quiz/Q3_Prompt.wav,NA,1,NA,NA,NA,NA,NA,NA,NA,NA,NA,NA,NA,NA,NA,NA,NA,NA,NA,NA,sub139
audio-keyboard-response,133,533934,0.0-74.0,FALSE,TRUE,FALSE,TRUE,"""event"",""trial"",""time""
""fullscreenenter"",""5"",""16382""
","
","
","""event"",""trial"",""time""
""fullscreenenter"",""5"",""16382""
","
",null,audio/quiz/Q3_Correct.wav,null,NA,NA,NA,NA,NA,NA,NA,NA,NA,NA,NA,NA,NA,NA,NA,NA,NA,NA,NA,sub139
d3-instructions,134,541871,0.0-75.0,FALSE,TRUE,FALSE,TRUE,"""event"",""trial"",""time""
""fullscreenenter"",""5"",""16382""
","
","
","""event"",""trial"",""time""
""fullscreenenter"",""5"",""16382""
","
",NA,NA,NA,NA,NA,NA,NA,NA,NA,NA,NA,NA,NA,NA,NA,NA,NA,NA,NA,NA,NA,NA,sub139
d3-animate-choice,135,545874,0.0-76.0-0.0,FALSE,TRUE,FALSE,TRUE,"""event"",""trial"",""time""
""fullscreenenter"",""5"",""16382""
","
","
","""event"",""trial"",""time""
""fullscreenenter"",""5"",""16382""
","
",2082.025000010617,NA,50,NA,NA,3000,1,2585.3249999927357,49,images/earth.jpg,images/rocket1,images/rocket2,null,images/rocket2,NA,1,real,null,NA,NA,NA,NA,sub139
d3-animate-choice,136,548659,0.0-76.0-1.0,FALSE,TRUE,FALSE,TRUE,"""event"",""trial"",""time""
""fullscreenenter"",""5"",""16382""
","
","
","""event"",""trial"",""time""
""fullscreenenter"",""5"",""16382""
","
",781.2350000021979,NA,49,NA,NA,3000,1,NA,NA,images/redplanet1.jpg,images/alien2,images/alien1,images/rocket2,images/alien1,images/t.png,2,real,false,1,rare,1,2020-06-24T20:49:21Z,sub139
two-step-fixation,137,549662,0.0-76.0-2.0,FALSE,TRUE,FALSE,TRUE,"""event"",""trial"",""time""
""fullscreenenter"",""5"",""16382""
","
","
","""event"",""trial"",""time""
""fullscreenenter"",""5"",""16382""
","
",NA,images/earth.jpg,NA,NA,NA,NA,NA,NA,NA,NA,NA,NA,NA,NA,NA,fixation,NA,NA,NA,NA,NA,NA,sub139
d3-animate-choice,138,551928,0.0-76.0-0.1,FALSE,TRUE,FALSE,TRUE,"""event"",""trial"",""time""
""fullscreenenter"",""5"",""16382""
","
","
","""event"",""trial"",""time""
""fullscreenenter"",""5"",""16382""
","
",262.7199999988079,NA,49,NA,NA,3000,1,NA,NA,images/earth.jpg,images/rocket1,images/rocket2,null,images/rocket2,NA,1,real,null,1,NA,NA,NA,sub139
d3-animate-choice,139,554283,0.0-76.0-1.1,FALSE,TRUE,FALSE,TRUE,"""event"",""trial"",""time""
""fullscreenenter"",""5"",""16382""
","
","
","""event"",""trial"",""time""
""fullscreenenter"",""5"",""16382""
","
",352.8950000181794,NA,49,NA,NA,3000,1,NA,NA,images/redplanet1.jpg,images/alien2,images/alien1,images/rocket2,images/alien1,images/t.png,2,real,false,1,rare,1,2020-06-24T20:49:27Z,sub139
two-step-fixation,140,555286,0.0-76.0-2.1,FALSE,TRUE,FALSE,TRUE,"""event"",""trial"",""time""
""fullscreenenter"",""5"",""16382""
","
","
","""event"",""trial"",""time""
""fullscreenenter"",""5"",""16382""
","
",NA,images/earth.jpg,NA,NA,NA,NA,NA,NA,NA,NA,NA,NA,NA,NA,NA,fixation,NA,NA,NA,NA,NA,NA,sub139
d3-animate-choice,141,557603,0.0-76.0-0.2,FALSE,TRUE,FALSE,TRUE,"""event"",""trial"",""time""
""fullscreenenter"",""5"",""16382""
","
","
","""event"",""trial"",""time""
""fullscreenenter"",""5"",""16382""
","
",311.72499991953373,NA,49,NA,NA,3000,1,NA,NA,images/earth.jpg,images/rocket1,images/rocket2,null,images/rocket2,NA,1,real,null,1,NA,NA,NA,sub139
d3-animate-choice,142,559935,0.0-76.0-1.2,FALSE,TRUE,FALSE,TRUE,"""event"",""trial"",""time""
""fullscreenenter"",""5"",""16382""
","
","
","""event"",""trial"",""time""
""fullscreenenter"",""5"",""16382""
","
",329.0799999376759,NA,49,NA,NA,3000,1,NA,NA,images/purpleplanet.jpg,images/alien4,images/alien3,images/rocket2,images/alien3,images/t.png,2,real,true,1,common,1,2020-06-24T20:49:32Z,sub139
two-step-fixation,143,560939,0.0-76.0-2.2,FALSE,TRUE,FALSE,TRUE,"""event"",""trial"",""time""
""fullscreenenter"",""5"",""16382""
","
","
","""event"",""trial"",""time""
""fullscreenenter"",""5"",""16382""
","
",NA,images/earth.jpg,NA,NA,NA,NA,NA,NA,NA,NA,NA,NA,NA,NA,NA,fixation,NA,NA,NA,NA,NA,NA,sub139
d3-animate-choice,144,563269,0.0-76.0-0.3,FALSE,TRUE,FALSE,TRUE,"""event"",""trial"",""time""
""fullscreenenter"",""5"",""16382""
","
","
","""event"",""trial"",""time""
""fullscreenenter"",""5"",""16382""
","
",325.65000001341105,NA,49,NA,NA,3000,1,NA,NA,images/earth.jpg,images/rocket1,images/rocket2,null,images/rocket2,NA,1,real,null,1,NA,NA,NA,sub139
d3-animate-choice,145,565656,0.0-76.0-1.3,FALSE,TRUE,FALSE,TRUE,"""event"",""trial"",""time""
""fullscreenenter"",""5"",""16382""
","
","
","""event"",""trial"",""time""
""fullscreenenter"",""5"",""16382""
","
",380.28000004123896,NA,49,NA,NA,3000,1,NA,NA,images/redplanet1.jpg,images/alien2,images/alien1,images/rocket2,images/alien1,images/nothing.png,2,real,false,1,rare,0,2020-06-24T20:49:38Z,sub139
two-step-fixation,146,566661,0.0-76.0-2.3,FALSE,TRUE,FALSE,TRUE,"""event"",""trial"",""time""
""fullscreenenter"",""5"",""16382""
","
","
","""event"",""trial"",""time""
""fullscreenenter"",""5"",""16382""
","
",NA,images/earth.jpg,NA,NA,NA,NA,NA,NA,NA,NA,NA,NA,NA,NA,NA,fixation,NA,NA,NA,NA,NA,NA,sub139
d3-animate-choice,147,568994,0.0-76.0-0.4,FALSE,TRUE,FALSE,TRUE,"""event"",""trial"",""time""
""fullscreenenter"",""5"",""16382""
","
","
","""event"",""trial"",""time""
""fullscreenenter"",""5"",""16382""
","
",330.5200000759214,NA,49,NA,NA,3000,1,NA,NA,images/earth.jpg,images/rocket1,images/rocket2,null,images/rocket2,NA,1,real,null,1,NA,NA,NA,sub139
d3-animate-choice,148,571468,0.0-76.0-1.4,FALSE,TRUE,FALSE,TRUE,"""event"",""trial"",""time""
""fullscreenenter"",""5"",""16382""
","
","
","""event"",""trial"",""time""
""fullscreenenter"",""5"",""16382""
","
",466.40999999362975,NA,49,NA,NA,3000,1,NA,NA,images/purpleplanet.jpg,images/alien4,images/alien3,images/rocket2,images/alien3,images/t.png,2,real,true,1,common,1,2020-06-24T20:49:44Z,sub139
two-step-fixation,149,572476,0.0-76.0-2.4,FALSE,TRUE,FALSE,TRUE,"""event"",""trial"",""time""
""fullscreenenter"",""5"",""16382""
","
","
","""event"",""trial"",""time""
""fullscreenenter"",""5"",""16382""
","
",NA,images/earth.jpg,NA,NA,NA,NA,NA,NA,NA,NA,NA,NA,NA,NA,NA,fixation,NA,NA,NA,NA,NA,NA,sub139
d3-animate-choice,150,574829,0.0-76.0-0.5,FALSE,TRUE,FALSE,TRUE,"""event"",""trial"",""time""
""fullscreenenter"",""5"",""16382""
","
","
","""event"",""trial"",""time""
""fullscreenenter"",""5"",""16382""
","
",344.47499993257225,NA,49,NA,NA,3000,1,NA,NA,images/earth.jpg,images/rocket1,images/rocket2,null,images/rocket2,NA,1,real,null,1,NA,NA,NA,sub139
d3-animate-choice,151,577216,0.0-76.0-1.5,FALSE,TRUE,FALSE,TRUE,"""event"",""trial"",""time""
""fullscreenenter"",""5"",""16382""
","
","
","""event"",""trial"",""time""
""fullscreenenter"",""5"",""16382""
","
",378.3149999799207,NA,49,NA,NA,3000,1,NA,NA,images/purpleplanet.jpg,images/alien4,images/alien3,images/rocket2,images/alien3,images/nothing.png,2,real,true,1,common,0,2020-06-24T20:49:50Z,sub139
two-step-fixation,152,578225,0.0-76.0-2.5,FALSE,TRUE,FALSE,TRUE,"""event"",""trial"",""time""
""fullscreenenter"",""5"",""16382""
","
","
","""event"",""trial"",""time""
""fullscreenenter"",""5"",""16382""
","
",NA,images/earth.jpg,NA,NA,NA,NA,NA,NA,NA,NA,NA,NA,NA,NA,NA,fixation,NA,NA,NA,NA,NA,NA,sub139
d3-animate-choice,153,580713,0.0-76.0-0.6,FALSE,TRUE,FALSE,TRUE,"""event"",""trial"",""time""
""fullscreenenter"",""5"",""16382""
","
","
","""event"",""trial"",""time""
""fullscreenenter"",""5"",""16382""
","
",483.5549999261275,NA,49,NA,NA,3000,1,NA,NA,images/earth.jpg,images/rocket1,images/rocket2,null,images/rocket2,NA,1,real,null,1,NA,NA,NA,sub139
d3-animate-choice,154,583435,0.0-76.0-1.6,FALSE,TRUE,FALSE,TRUE,"""event"",""trial"",""time""
""fullscreenenter"",""5"",""16382""
","
","
","""event"",""trial"",""time""
""fullscreenenter"",""5"",""16382""
","
",716.6699999943376,NA,49,NA,NA,3000,1,NA,NA,images/purpleplanet.jpg,images/alien4,images/alien3,images/rocket2,images/alien3,images/t.png,2,real,true,1,common,1,2020-06-24T20:49:56Z,sub139
two-step-fixation,155,584440,0.0-76.0-2.6,FALSE,TRUE,FALSE,TRUE,"""event"",""trial"",""time""
""fullscreenenter"",""5"",""16382""
","
","
","""event"",""trial"",""time""
""fullscreenenter"",""5"",""16382""
","
",NA,images/earth.jpg,NA,NA,NA,NA,NA,NA,NA,NA,NA,NA,NA,NA,NA,fixation,NA,NA,NA,NA,NA,NA,sub139
d3-animate-choice,156,586870,0.0-76.0-0.7,FALSE,TRUE,FALSE,TRUE,"""event"",""trial"",""time""
""fullscreenenter"",""5"",""16382""
","
","
","""event"",""trial"",""time""
""fullscreenenter"",""5"",""16382""
","
",423.86500001884997,NA,49,NA,NA,3000,1,NA,NA,images/earth.jpg,images/rocket1,images/rocket2,null,images/rocket2,NA,1,real,null,1,NA,NA,NA,sub139
d3-animate-choice,157,589348,0.0-76.0-1.7,FALSE,TRUE,FALSE,TRUE,"""event"",""trial"",""time""
""fullscreenenter"",""5"",""16382""
","
","
","""event"",""trial"",""time""
""fullscreenenter"",""5"",""16382""
","
",473.87999994680285,NA,49,NA,NA,3000,1,NA,NA,images/purpleplanet.jpg,images/alien4,images/alien3,images/rocket2,images/alien3,images/nothing.png,2,real,true,1,common,0,2020-06-24T20:50:02Z,sub139
two-step-fixation,158,590353,0.0-76.0-2.7,FALSE,TRUE,FALSE,TRUE,"""event"",""trial"",""time""
""fullscreenenter"",""5"",""16382""
","
","
","""event"",""trial"",""time""
""fullscreenenter"",""5"",""16382""
","
",NA,images/earth.jpg,NA,NA,NA,NA,NA,NA,NA,NA,NA,NA,NA,NA,NA,fixation,NA,NA,NA,NA,NA,NA,sub139
d3-animate-choice,159,592688,0.0-76.0-0.8,FALSE,TRUE,FALSE,TRUE,"""event"",""trial"",""time""
""fullscreenenter"",""5"",""16382""
","
","
","""event"",""trial"",""time""
""fullscreenenter"",""5"",""16382""
","
",328.1750000314787,NA,49,NA,NA,3000,1,NA,NA,images/earth.jpg,images/rocket1,images/rocket2,null,images/rocket2,NA,1,real,null,1,NA,NA,NA,sub139
d3-animate-choice,160,595348,0.0-76.0-1.8,FALSE,TRUE,FALSE,TRUE,"""event"",""trial"",""time""
""fullscreenenter"",""5"",""16382""
","
","
","""event"",""trial"",""time""
""fullscreenenter"",""5"",""16382""
","
",652.9499999014661,NA,49,NA,NA,3000,1,NA,NA,images/purpleplanet.jpg,images/alien4,images/alien3,images/rocket2,images/alien3,images/nothing.png,2,real,true,1,common,0,2020-06-24T20:50:08Z,sub139
two-step-fixation,161,596353,0.0-76.0-2.8,FALSE,TRUE,FALSE,TRUE,"""event"",""trial"",""time""
""fullscreenenter"",""5"",""16382""
","
","
","""event"",""trial"",""time""
""fullscreenenter"",""5"",""16382""
","
",NA,images/earth.jpg,NA,NA,NA,NA,NA,NA,NA,NA,NA,NA,NA,NA,NA,fixation,NA,NA,NA,NA,NA,NA,sub139
d3-animate-choice,162,598782,0.0-76.0-0.9,FALSE,TRUE,FALSE,TRUE,"""event"",""trial"",""time""
""fullscreenenter"",""5"",""16382""
","
","
","""event"",""trial"",""time""
""fullscreenenter"",""5"",""16382""
","
",424.25500007811934,NA,48,NA,NA,3000,1,NA,NA,images/earth.jpg,images/rocket1,images/rocket2,null,images/rocket1,NA,1,real,null,2,NA,NA,NA,sub139
d3-animate-choice,163,601450,0.0-76.0-1.9,FALSE,TRUE,FALSE,TRUE,"""event"",""trial"",""time""
""fullscreenenter"",""5"",""16382""
","
","
","""event"",""trial"",""time""
""fullscreenenter"",""5"",""16382""
","
",662.609999999404,NA,48,NA,NA,3000,1,NA,NA,images/purpleplanet.jpg,images/alien4,images/alien3,images/rocket1,images/alien4,images/t.png,2,real,false,2,rare,1,2020-06-24T20:50:14Z,sub139
two-step-fixation,164,602455,0.0-76.0-2.9,FALSE,TRUE,FALSE,TRUE,"""event"",""trial"",""time""
""fullscreenenter"",""5"",""16382""
","
","
","""event"",""trial"",""time""
""fullscreenenter"",""5"",""16382""
","
",NA,images/earth.jpg,NA,NA,NA,NA,NA,NA,NA,NA,NA,NA,NA,NA,NA,fixation,NA,NA,NA,NA,NA,NA,sub139
d3-animate-choice,165,604812,0.0-76.0-0.10,FALSE,TRUE,FALSE,TRUE,"""event"",""trial"",""time""
""fullscreenenter"",""5"",""16382""
","
","
","""event"",""trial"",""time""
""fullscreenenter"",""5"",""16382""
","
",351.16500000003725,NA,48,NA,NA,3000,1,NA,NA,images/earth.jpg,images/rocket1,images/rocket2,null,images/rocket1,NA,1,real,null,2,NA,NA,NA,sub139
d3-animate-choice,166,607541,0.0-76.0-1.10,FALSE,TRUE,FALSE,TRUE,"""event"",""trial"",""time""
""fullscreenenter"",""5"",""16382""
","
","
","""event"",""trial"",""time""
""fullscreenenter"",""5"",""16382""
","
",725.7250000257045,NA,49,NA,NA,3000,1,NA,NA,images/redplanet1.jpg,images/alien2,images/alien1,images/rocket1,images/alien1,images/nothing.png,2,real,true,1,common,0,2020-06-24T20:50:20Z,sub139
two-step-fixation,167,608546,0.0-76.0-2.10,FALSE,TRUE,FALSE,TRUE,"""event"",""trial"",""time""
""fullscreenenter"",""5"",""16382""
","
","
","""event"",""trial"",""time""
""fullscreenenter"",""5"",""16382""
","
",NA,images/earth.jpg,NA,NA,NA,NA,NA,NA,NA,NA,NA,NA,NA,NA,NA,fixation,NA,NA,NA,NA,NA,NA,sub139
d3-animate-choice,168,610922,0.0-76.0-0.11,FALSE,TRUE,FALSE,TRUE,"""event"",""trial"",""time""
""fullscreenenter"",""5"",""16382""
","
","
","""event"",""trial"",""time""
""fullscreenenter"",""5"",""16382""
","
",371.4649999747053,NA,48,NA,NA,3000,1,NA,NA,images/earth.jpg,images/rocket1,images/rocket2,null,images/rocket1,NA,1,real,null,2,NA,NA,NA,sub139
d3-animate-choice,169,613406,0.0-76.0-1.11,FALSE,TRUE,FALSE,TRUE,"""event"",""trial"",""time""
""fullscreenenter"",""5"",""16382""
","
","
","""event"",""trial"",""time""
""fullscreenenter"",""5"",""16382""
","
",479.4750000583008,NA,48,NA,NA,3000,1,NA,NA,images/redplanet1.jpg,images/alien2,images/alien1,images/rocket1,images/alien2,images/t.png,2,real,true,2,common,1,2020-06-24T20:50:26Z,sub139
two-step-fixation,170,614414,0.0-76.0-2.11,FALSE,TRUE,FALSE,TRUE,"""event"",""trial"",""time""
""fullscreenenter"",""5"",""16382""
","
","
","""event"",""trial"",""time""
""fullscreenenter"",""5"",""16382""
","
",NA,images/earth.jpg,NA,NA,NA,NA,NA,NA,NA,NA,NA,NA,NA,NA,NA,fixation,NA,NA,NA,NA,NA,NA,sub139
d3-animate-choice,171,616771,0.0-76.0-0.12,FALSE,TRUE,FALSE,TRUE,"""event"",""trial"",""time""
""fullscreenenter"",""5"",""16382""
","
","
","""event"",""trial"",""time""
""fullscreenenter"",""5"",""16382""
","
",352.7699999976903,NA,48,NA,NA,3000,1,NA,NA,images/earth.jpg,images/rocket1,images/rocket2,null,images/rocket1,NA,1,real,null,2,NA,NA,NA,sub139
d3-animate-choice,172,619238,0.0-76.0-1.12,FALSE,TRUE,FALSE,TRUE,"""event"",""trial"",""time""
""fullscreenenter"",""5"",""16382""
","
","
","""event"",""trial"",""time""
""fullscreenenter"",""5"",""16382""
","
",461.85500000137836,NA,48,NA,NA,3000,1,NA,NA,images/redplanet1.jpg,images/alien2,images/alien1,images/rocket1,images/alien2,images/nothing.png,2,real,true,2,common,0,2020-06-24T20:50:32Z,sub139
two-step-fixation,173,620246,0.0-76.0-2.12,FALSE,TRUE,FALSE,TRUE,"""event"",""trial"",""time""
""fullscreenenter"",""5"",""16382""
","
","
","""event"",""trial"",""time""
""fullscreenenter"",""5"",""16382""
","
",NA,images/earth.jpg,NA,NA,NA,NA,NA,NA,NA,NA,NA,NA,NA,NA,NA,fixation,NA,NA,NA,NA,NA,NA,sub139
d3-animate-choice,174,622574,0.0-76.0-0.13,FALSE,TRUE,FALSE,TRUE,"""event"",""trial"",""time""
""fullscreenenter"",""5"",""16382""
","
","
","""event"",""trial"",""time""
""fullscreenenter"",""5"",""16382""
","
",323.9799999864772,NA,48,NA,NA,3000,1,NA,NA,images/earth.jpg,images/rocket1,images/rocket2,null,images/rocket1,NA,1,real,null,2,NA,NA,NA,sub139
d3-animate-choice,175,625258,0.0-76.0-1.13,FALSE,TRUE,FALSE,TRUE,"""event"",""trial"",""time""
""fullscreenenter"",""5"",""16382""
","
","
","""event"",""trial"",""time""
""fullscreenenter"",""5"",""16382""
","
",678.8249999517575,NA,48,NA,NA,3000,1,NA,NA,images/redplanet1.jpg,images/alien2,images/alien1,images/rocket1,images/alien2,images/t.png,2,real,true,2,common,1,2020-06-24T20:50:38Z,sub139
two-step-fixation,176,626263,0.0-76.0-2.13,FALSE,TRUE,FALSE,TRUE,"""event"",""trial"",""time""
""fullscreenenter"",""5"",""16382""
","
","
","""event"",""trial"",""time""
""fullscreenenter"",""5"",""16382""
","
",NA,images/earth.jpg,NA,NA,NA,NA,NA,NA,NA,NA,NA,NA,NA,NA,NA,fixation,NA,NA,NA,NA,NA,NA,sub139
d3-animate-choice,177,628627,0.0-76.0-0.14,FALSE,TRUE,FALSE,TRUE,"""event"",""trial"",""time""
""fullscreenenter"",""5"",""16382""
","
","
","""event"",""trial"",""time""
""fullscreenenter"",""5"",""16382""
","
",357.8099999576807,NA,48,NA,NA,3000,1,NA,NA,images/earth.jpg,images/rocket1,images/rocket2,null,images/rocket1,NA,1,real,null,2,NA,NA,NA,sub139
d3-animate-choice,178,631047,0.0-76.0-1.14,FALSE,TRUE,FALSE,TRUE,"""event"",""trial"",""time""
""fullscreenenter"",""5"",""16382""
","
","
","""event"",""trial"",""time""
""fullscreenenter"",""5"",""16382""
","
",414.53499998897314,NA,48,NA,NA,3000,1,NA,NA,images/redplanet1.jpg,images/alien2,images/alien1,images/rocket1,images/alien2,images/t.png,2,real,true,2,common,1,2020-06-24T20:50:43Z,sub139
two-step-fixation,179,632053,0.0-76.0-2.14,FALSE,TRUE,FALSE,TRUE,"""event"",""trial"",""time""
""fullscreenenter"",""5"",""16382""
","
","
","""event"",""trial"",""time""
""fullscreenenter"",""5"",""16382""
","
",NA,images/earth.jpg,NA,NA,NA,NA,NA,NA,NA,NA,NA,NA,NA,NA,NA,fixation,NA,NA,NA,NA,NA,NA,sub139
d3-animate-choice,180,634379,0.0-76.0-0.15,FALSE,TRUE,FALSE,TRUE,"""event"",""trial"",""time""
""fullscreenenter"",""5"",""16382""
","
","
","""event"",""trial"",""time""
""fullscreenenter"",""5"",""16382""
","
",320.17500000074506,NA,48,NA,NA,3000,1,NA,NA,images/earth.jpg,images/rocket1,images/rocket2,null,images/rocket1,NA,1,real,null,2,NA,NA,NA,sub139
d3-animate-choice,181,637081,0.0-76.0-1.15,FALSE,TRUE,FALSE,TRUE,"""event"",""trial"",""time""
""fullscreenenter"",""5"",""16382""
","
","
","""event"",""trial"",""time""
""fullscreenenter"",""5"",""16382""
","
",697.7950000436977,NA,48,NA,NA,3000,1,NA,NA,images/redplanet1.jpg,images/alien2,images/alien1,images/rocket1,images/alien2,images/t.png,2,real,true,2,common,1,2020-06-24T20:50:49Z,sub139
two-step-fixation,182,638090,0.0-76.0-2.15,FALSE,TRUE,FALSE,TRUE,"""event"",""trial"",""time""
""fullscreenenter"",""5"",""16382""
","
","
","""event"",""trial"",""time""
""fullscreenenter"",""5"",""16382""
","
",NA,images/earth.jpg,NA,NA,NA,NA,NA,NA,NA,NA,NA,NA,NA,NA,NA,fixation,NA,NA,NA,NA,NA,NA,sub139
d3-animate-choice,183,640425,0.0-76.0-0.16,FALSE,TRUE,FALSE,TRUE,"""event"",""trial"",""time""
""fullscreenenter"",""5"",""16382""
","
","
","""event"",""trial"",""time""
""fullscreenenter"",""5"",""16382""
","
",327.4949999758974,NA,48,NA,NA,3000,1,NA,NA,images/earth.jpg,images/rocket1,images/rocket2,null,images/rocket1,NA,1,real,null,2,NA,NA,NA,sub139
d3-animate-choice,184,642807,0.0-76.0-1.16,FALSE,TRUE,FALSE,TRUE,"""event"",""trial"",""time""
""fullscreenenter"",""5"",""16382""
","
","
","""event"",""trial"",""time""
""fullscreenenter"",""5"",""16382""
","
",375.54999999701977,NA,48,NA,NA,3000,1,NA,NA,images/redplanet1.jpg,images/alien2,images/alien1,images/rocket1,images/alien2,images/t.png,2,real,true,2,common,1,2020-06-24T20:50:55Z,sub139
two-step-fixation,185,643811,0.0-76.0-2.16,FALSE,TRUE,FALSE,TRUE,"""event"",""trial"",""time""
""fullscreenenter"",""5"",""16382""
","
","
","""event"",""trial"",""time""
""fullscreenenter"",""5"",""16382""
","
",NA,images/earth.jpg,NA,NA,NA,NA,NA,NA,NA,NA,NA,NA,NA,NA,NA,fixation,NA,NA,NA,NA,NA,NA,sub139
d3-animate-choice,186,646326,0.0-76.0-0.17,FALSE,TRUE,FALSE,TRUE,"""event"",""trial"",""time""
""fullscreenenter"",""5"",""16382""
","
","
","""event"",""trial"",""time""
""fullscreenenter"",""5"",""16382""
","
",509.6499999053776,NA,48,NA,NA,3000,1,NA,NA,images/earth.jpg,images/rocket1,images/rocket2,null,images/rocket1,NA,1,real,null,2,NA,NA,NA,sub139
d3-animate-choice,187,648957,0.0-76.0-1.17,FALSE,TRUE,FALSE,TRUE,"""event"",""trial"",""time""
""fullscreenenter"",""5"",""16382""
","
","
","""event"",""trial"",""time""
""fullscreenenter"",""5"",""16382""
","
",623.4849999891594,NA,48,NA,NA,3000,1,NA,NA,images/redplanet1.jpg,images/alien2,images/alien1,images/rocket1,images/alien2,images/t.png,2,real,true,2,common,1,2020-06-24T20:51:01Z,sub139
two-step-fixation,188,649962,0.0-76.0-2.17,FALSE,TRUE,FALSE,TRUE,"""event"",""trial"",""time""
""fullscreenenter"",""5"",""16382""
","
","
","""event"",""trial"",""time""
""fullscreenenter"",""5"",""16382""
","
",NA,images/earth.jpg,NA,NA,NA,NA,NA,NA,NA,NA,NA,NA,NA,NA,NA,fixation,NA,NA,NA,NA,NA,NA,sub139
d3-animate-choice,189,652549,0.0-76.0-0.18,FALSE,TRUE,FALSE,TRUE,"""event"",""trial"",""time""
""fullscreenenter"",""5"",""16382""
","
","
","""event"",""trial"",""time""
""fullscreenenter"",""5"",""16382""
","
",582.1550000691786,NA,48,NA,NA,3000,1,NA,NA,images/earth.jpg,images/rocket1,images/rocket2,null,images/rocket1,NA,1,real,null,2,NA,NA,NA,sub139
d3-animate-choice,190,654941,0.0-76.0-1.18,FALSE,TRUE,FALSE,TRUE,"""event"",""trial"",""time""
""fullscreenenter"",""5"",""16382""
","
","
","""event"",""trial"",""time""
""fullscreenenter"",""5"",""16382""
","
",387.7250000368804,NA,48,NA,NA,3000,1,NA,NA,images/redplanet1.jpg,images/alien2,images/alien1,images/rocket1,images/alien2,images/nothing.png,2,real,true,2,common,0,2020-06-24T20:51:07Z,sub139
two-step-fixation,191,655947,0.0-76.0-2.18,FALSE,TRUE,FALSE,TRUE,"""event"",""trial"",""time""
""fullscreenenter"",""5"",""16382""
","
","
","""event"",""trial"",""time""
""fullscreenenter"",""5"",""16382""
","
",NA,images/earth.jpg,NA,NA,NA,NA,NA,NA,NA,NA,NA,NA,NA,NA,NA,fixation,NA,NA,NA,NA,NA,NA,sub139
d3-animate-choice,192,658286,0.0-76.0-0.19,FALSE,TRUE,FALSE,TRUE,"""event"",""trial"",""time""
""fullscreenenter"",""5"",""16382""
","
","
","""event"",""trial"",""time""
""fullscreenenter"",""5"",""16382""
","
",335.26500000152737,NA,48,NA,NA,3000,1,NA,NA,images/earth.jpg,images/rocket1,images/rocket2,null,images/rocket1,NA,1,real,null,2,NA,NA,NA,sub139
d3-animate-choice,193,660643,0.0-76.0-1.19,FALSE,TRUE,FALSE,TRUE,"""event"",""trial"",""time""
""fullscreenenter"",""5"",""16382""
","
","
","""event"",""trial"",""time""
""fullscreenenter"",""5"",""16382""
","
",350.0950000016019,NA,48,NA,NA,3000,1,NA,NA,images/redplanet1.jpg,images/alien2,images/alien1,images/rocket1,images/alien2,images/nothing.png,2,real,true,2,common,0,2020-06-24T20:51:13Z,sub139
two-step-fixation,194,661648,0.0-76.0-2.19,FALSE,TRUE,FALSE,TRUE,"""event"",""trial"",""time""
""fullscreenenter"",""5"",""16382""
","
","
","""event"",""trial"",""time""
""fullscreenenter"",""5"",""16382""
","
",NA,images/earth.jpg,NA,NA,NA,NA,NA,NA,NA,NA,NA,NA,NA,NA,NA,fixation,NA,NA,NA,NA,NA,NA,sub139
d3-animate-choice,195,664546,0.0-76.0-0.20,FALSE,TRUE,FALSE,TRUE,"""event"",""trial"",""time""
""fullscreenenter"",""5"",""16382""
","
","
","""event"",""trial"",""time""
""fullscreenenter"",""5"",""16382""
","
",893.6850000172853,NA,48,NA,NA,3000,1,NA,NA,images/earth.jpg,images/rocket1,images/rocket2,null,images/rocket1,NA,1,real,null,2,NA,NA,NA,sub139
d3-animate-choice,196,666961,0.0-76.0-1.20,FALSE,TRUE,FALSE,TRUE,"""event"",""trial"",""time""
""fullscreenenter"",""5"",""16382""
","
","
","""event"",""trial"",""time""
""fullscreenenter"",""5"",""16382""
","
",410.7450000010431,NA,49,NA,NA,3000,1,NA,NA,images/purpleplanet.jpg,images/alien4,images/alien3,images/rocket1,images/alien3,images/nothing.png,2,real,false,1,rare,0,2020-06-24T20:51:19Z,sub139
two-step-fixation,197,667967,0.0-76.0-2.20,FALSE,TRUE,FALSE,TRUE,"""event"",""trial"",""time""
""fullscreenenter"",""5"",""16382""
","
","
","""event"",""trial"",""time""
""fullscreenenter"",""5"",""16382""
","
",NA,images/earth.jpg,NA,NA,NA,NA,NA,NA,NA,NA,NA,NA,NA,NA,NA,fixation,NA,NA,NA,NA,NA,NA,sub139
d3-animate-choice,198,670392,0.0-76.0-0.21,FALSE,TRUE,FALSE,TRUE,"""event"",""trial"",""time""
""fullscreenenter"",""5"",""16382""
","
","
","""event"",""trial"",""time""
""fullscreenenter"",""5"",""16382""
","
",417.36500000115484,NA,49,NA,NA,3000,1,NA,NA,images/earth.jpg,images/rocket1,images/rocket2,null,images/rocket2,NA,1,real,null,1,NA,NA,NA,sub139
d3-animate-choice,199,672764,0.0-76.0-1.21,FALSE,TRUE,FALSE,TRUE,"""event"",""trial"",""time""
""fullscreenenter"",""5"",""16382""
","
","
","""event"",""trial"",""time""
""fullscreenenter"",""5"",""16382""
","
",368.06999996770173,NA,48,NA,NA,3000,1,NA,NA,images/purpleplanet.jpg,images/alien4,images/alien3,images/rocket2,images/alien4,images/t.png,2,real,true,2,common,1,2020-06-24T20:51:25Z,sub139
two-step-fixation,200,673769,0.0-76.0-2.21,FALSE,TRUE,FALSE,TRUE,"""event"",""trial"",""time""
""fullscreenenter"",""5"",""16382""
","
","
","""event"",""trial"",""time""
""fullscreenenter"",""5"",""16382""
","
",NA,images/earth.jpg,NA,NA,NA,NA,NA,NA,NA,NA,NA,NA,NA,NA,NA,fixation,NA,NA,NA,NA,NA,NA,sub139
d3-animate-choice,201,676108,0.0-76.0-0.22,FALSE,TRUE,FALSE,TRUE,"""event"",""trial"",""time""
""fullscreenenter"",""5"",""16382""
","
","
","""event"",""trial"",""time""
""fullscreenenter"",""5"",""16382""
","
",335.2099999319762,NA,49,NA,NA,3000,1,NA,NA,images/earth.jpg,images/rocket1,images/rocket2,null,images/rocket2,NA,1,real,null,1,NA,NA,NA,sub139
d3-animate-choice,202,678576,0.0-76.0-1.22,FALSE,TRUE,FALSE,TRUE,"""event"",""trial"",""time""
""fullscreenenter"",""5"",""16382""
","
","
","""event"",""trial"",""time""
""fullscreenenter"",""5"",""16382""
","
",461.600000038743,NA,48,NA,NA,3000,1,NA,NA,images/purpleplanet.jpg,images/alien4,images/alien3,images/rocket2,images/alien4,images/t.png,2,real,true,2,common,1,2020-06-24T20:51:31Z,sub139
two-step-fixation,203,679581,0.0-76.0-2.22,FALSE,TRUE,FALSE,TRUE,"""event"",""trial"",""time""
""fullscreenenter"",""5"",""16382""
","
","
","""event"",""trial"",""time""
""fullscreenenter"",""5"",""16382""
","
",NA,images/earth.jpg,NA,NA,NA,NA,NA,NA,NA,NA,NA,NA,NA,NA,NA,fixation,NA,NA,NA,NA,NA,NA,sub139
d3-animate-choice,204,681917,0.0-76.0-0.23,FALSE,TRUE,FALSE,TRUE,"""event"",""trial"",""time""
""fullscreenenter"",""5"",""16382""
","
","
","""event"",""trial"",""time""
""fullscreenenter"",""5"",""16382""
","
",330.5549999931827,NA,49,NA,NA,3000,1,NA,NA,images/earth.jpg,images/rocket1,images/rocket2,null,images/rocket2,NA,1,real,null,1,NA,NA,NA,sub139
d3-animate-choice,205,684369,0.0-76.0-1.23,FALSE,TRUE,FALSE,TRUE,"""event"",""trial"",""time""
""fullscreenenter"",""5"",""16382""
","
","
","""event"",""trial"",""time""
""fullscreenenter"",""5"",""16382""
","
",446.25499995891005,NA,48,NA,NA,3000,1,NA,NA,images/purpleplanet.jpg,images/alien4,images/alien3,images/rocket2,images/alien4,images/t.png,2,real,true,2,common,1,2020-06-24T20:51:37Z,sub139
two-step-fixation,206,685374,0.0-76.0-2.23,FALSE,TRUE,FALSE,TRUE,"""event"",""trial"",""time""
""fullscreenenter"",""5"",""16382""
","
","
","""event"",""trial"",""time""
""fullscreenenter"",""5"",""16382""
","
",NA,images/earth.jpg,NA,NA,NA,NA,NA,NA,NA,NA,NA,NA,NA,NA,NA,fixation,NA,NA,NA,NA,NA,NA,sub139
d3-animate-choice,207,687747,0.0-76.0-0.24,FALSE,TRUE,FALSE,TRUE,"""event"",""trial"",""time""
""fullscreenenter"",""5"",""16382""
","
","
","""event"",""trial"",""time""
""fullscreenenter"",""5"",""16382""
","
",368.2750000152737,NA,49,NA,NA,3000,1,NA,NA,images/earth.jpg,images/rocket1,images/rocket2,null,images/rocket2,NA,1,real,null,1,NA,NA,NA,sub139
d3-animate-choice,208,690214,0.0-76.0-1.24,FALSE,TRUE,FALSE,TRUE,"""event"",""trial"",""time""
""fullscreenenter"",""5"",""16382""
","
","
","""event"",""trial"",""time""
""fullscreenenter"",""5"",""16382""
","
",459.83499998692423,NA,48,NA,NA,3000,1,NA,NA,images/redplanet1.jpg,images/alien2,images/alien1,images/rocket2,images/alien2,images/nothing.png,2,real,false,2,rare,0,2020-06-24T20:51:43Z,sub139
two-step-fixation,209,691219,0.0-76.0-2.24,FALSE,TRUE,FALSE,TRUE,"""event"",""trial"",""time""
""fullscreenenter"",""5"",""16382""
","
","
","""event"",""trial"",""time""
""fullscreenenter"",""5"",""16382""
","
",NA,images/earth.jpg,NA,NA,NA,NA,NA,NA,NA,NA,NA,NA,NA,NA,NA,fixation,NA,NA,NA,NA,NA,NA,sub139
d3-animate-choice,210,693521,0.0-76.0-0.25,FALSE,TRUE,FALSE,TRUE,"""event"",""trial"",""time""
""fullscreenenter"",""5"",""16382""
","
","
","""event"",""trial"",""time""
""fullscreenenter"",""5"",""16382""
","
",292.03999997116625,NA,49,NA,NA,3000,1,NA,NA,images/earth.jpg,images/rocket1,images/rocket2,null,images/rocket2,NA,1,real,null,1,NA,NA,NA,sub139
d3-animate-choice,211,696163,0.0-76.0-1.25,FALSE,TRUE,FALSE,TRUE,"""event"",""trial"",""time""
""fullscreenenter"",""5"",""16382""
","
","
","""event"",""trial"",""time""
""fullscreenenter"",""5"",""16382""
","
",638.1200000178069,NA,48,NA,NA,3000,1,NA,NA,images/purpleplanet.jpg,images/alien4,images/alien3,images/rocket2,images/alien4,images/t.png,2,real,true,2,common,1,2020-06-24T20:51:49Z,sub139
two-step-fixation,212,697167,0.0-76.0-2.25,FALSE,TRUE,FALSE,TRUE,"""event"",""trial"",""time""
""fullscreenenter"",""5"",""16382""
","
","
","""event"",""trial"",""time""
""fullscreenenter"",""5"",""16382""
","
",NA,images/earth.jpg,NA,NA,NA,NA,NA,NA,NA,NA,NA,NA,NA,NA,NA,fixation,NA,NA,NA,NA,NA,NA,sub139
d3-animate-choice,213,699506,0.0-76.0-0.26,FALSE,TRUE,FALSE,TRUE,"""event"",""trial"",""time""
""fullscreenenter"",""5"",""16382""
","
","
","""event"",""trial"",""time""
""fullscreenenter"",""5"",""16382""
","
",330.50500007811934,NA,49,NA,NA,3000,1,NA,NA,images/earth.jpg,images/rocket1,images/rocket2,null,images/rocket2,NA,1,real,null,1,NA,NA,NA,sub139
d3-animate-choice,214,702286,0.0-76.0-1.26,FALSE,TRUE,FALSE,TRUE,"""event"",""trial"",""time""
""fullscreenenter"",""5"",""16382""
","
","
","""event"",""trial"",""time""
""fullscreenenter"",""5"",""16382""
","
",775.7400000700727,NA,49,NA,NA,3000,1,NA,NA,images/redplanet1.jpg,images/alien2,images/alien1,images/rocket2,images/alien1,images/nothing.png,2,real,false,1,rare,0,2020-06-24T20:51:55Z,sub139
two-step-fixation,215,703291,0.0-76.0-2.26,FALSE,TRUE,FALSE,TRUE,"""event"",""trial"",""time""
""fullscreenenter"",""5"",""16382""
","
","
","""event"",""trial"",""time""
""fullscreenenter"",""5"",""16382""
","
",NA,images/earth.jpg,NA,NA,NA,NA,NA,NA,NA,NA,NA,NA,NA,NA,NA,fixation,NA,NA,NA,NA,NA,NA,sub139
d3-animate-choice,216,705651,0.0-76.0-0.27,FALSE,TRUE,FALSE,TRUE,"""event"",""trial"",""time""
""fullscreenenter"",""5"",""16382""
","
","
","""event"",""trial"",""time""
""fullscreenenter"",""5"",""16382""
","
",355.9750000713393,NA,49,NA,NA,3000,1,NA,NA,images/earth.jpg,images/rocket1,images/rocket2,null,images/rocket2,NA,1,real,null,1,NA,NA,NA,sub139
d3-animate-choice,217,708808,0.0-76.0-1.27,FALSE,TRUE,FALSE,TRUE,"""event"",""trial"",""time""
""fullscreenenter"",""5"",""16382""
","
","
","""event"",""trial"",""time""
""fullscreenenter"",""5"",""16382""
","
",1151.6600000904873,NA,48,NA,NA,3000,1,NA,NA,images/redplanet1.jpg,images/alien2,images/alien1,images/rocket2,images/alien2,images/nothing.png,2,real,false,2,rare,0,2020-06-24T20:52:01Z,sub139
two-step-fixation,218,709813,0.0-76.0-2.27,FALSE,TRUE,FALSE,TRUE,"""event"",""trial"",""time""
""fullscreenenter"",""5"",""16382""
","
","
","""event"",""trial"",""time""
""fullscreenenter"",""5"",""16382""
","
",NA,images/earth.jpg,NA,NA,NA,NA,NA,NA,NA,NA,NA,NA,NA,NA,NA,fixation,NA,NA,NA,NA,NA,NA,sub139
d3-animate-choice,219,712131,0.0-76.0-0.28,FALSE,TRUE,FALSE,TRUE,"""event"",""trial"",""time""
""fullscreenenter"",""5"",""16382""
","
","
","""event"",""trial"",""time""
""fullscreenenter"",""5"",""16382""
","
",311.5949999773875,NA,49,NA,NA,3000,1,NA,NA,images/earth.jpg,images/rocket1,images/rocket2,null,images/rocket2,NA,1,real,null,1,NA,NA,NA,sub139
d3-animate-choice,220,714588,0.0-76.0-1.28,FALSE,TRUE,FALSE,TRUE,"""event"",""trial"",""time""
""fullscreenenter"",""5"",""16382""
","
","
","""event"",""trial"",""time""
""fullscreenenter"",""5"",""16382""
","
",450.6299999775365,NA,48,NA,NA,3000,1,NA,NA,images/redplanet1.jpg,images/alien2,images/alien1,images/rocket2,images/alien2,images/t.png,2,real,false,2,rare,1,2020-06-24T20:52:07Z,sub139
two-step-fixation,221,715595,0.0-76.0-2.28,FALSE,TRUE,FALSE,TRUE,"""event"",""trial"",""time""
""fullscreenenter"",""5"",""16382""
","
","
","""event"",""trial"",""time""
""fullscreenenter"",""5"",""16382""
","
",NA,images/earth.jpg,NA,NA,NA,NA,NA,NA,NA,NA,NA,NA,NA,NA,NA,fixation,NA,NA,NA,NA,NA,NA,sub139
d3-animate-choice,222,717920,0.0-76.0-0.29,FALSE,TRUE,FALSE,TRUE,"""event"",""trial"",""time""
""fullscreenenter"",""5"",""16382""
","
","
","""event"",""trial"",""time""
""fullscreenenter"",""5"",""16382""
","
",320.5049999523908,NA,49,NA,NA,3000,1,NA,NA,images/earth.jpg,images/rocket1,images/rocket2,null,images/rocket2,NA,1,real,null,1,NA,NA,NA,sub139
d3-animate-choice,223,720387,0.0-76.0-1.29,FALSE,TRUE,FALSE,TRUE,"""event"",""trial"",""time""
""fullscreenenter"",""5"",""16382""
","
","
","""event"",""trial"",""time""
""fullscreenenter"",""5"",""16382""
","
",461.44500002264977,NA,48,NA,NA,3000,1,NA,NA,images/purpleplanet.jpg,images/alien4,images/alien3,images/rocket2,images/alien4,images/t.png,2,real,true,2,common,1,2020-06-24T20:52:13Z,sub139
two-step-fixation,224,721395,0.0-76.0-2.29,FALSE,TRUE,FALSE,TRUE,"""event"",""trial"",""time""
""fullscreenenter"",""5"",""16382""
","
","
","""event"",""trial"",""time""
""fullscreenenter"",""5"",""16382""
","
",NA,images/earth.jpg,NA,NA,NA,NA,NA,NA,NA,NA,NA,NA,NA,NA,NA,fixation,NA,NA,NA,NA,NA,NA,sub139
d3-animate-choice,225,723744,0.0-76.0-0.30,FALSE,TRUE,FALSE,TRUE,"""event"",""trial"",""time""
""fullscreenenter"",""5"",""16382""
","
","
","""event"",""trial"",""time""
""fullscreenenter"",""5"",""16382""
","
",344.05499999411404,NA,49,NA,NA,3000,1,NA,NA,images/earth.jpg,images/rocket1,images/rocket2,null,images/rocket2,NA,1,real,null,1,NA,NA,NA,sub139
d3-animate-choice,226,726218,0.0-76.0-1.30,FALSE,TRUE,FALSE,TRUE,"""event"",""trial"",""time""
""fullscreenenter"",""5"",""16382""
","
","
","""event"",""trial"",""time""
""fullscreenenter"",""5"",""16382""
","
",465.2899999637157,NA,48,NA,NA,3000,1,NA,NA,images/purpleplanet.jpg,images/alien4,images/alien3,images/rocket2,images/alien4,images/t.png,2,real,true,2,common,1,2020-06-24T20:52:19Z,sub139
two-step-fixation,227,727226,0.0-76.0-2.30,FALSE,TRUE,FALSE,TRUE,"""event"",""trial"",""time""
""fullscreenenter"",""5"",""16382""
","
","
","""event"",""trial"",""time""
""fullscreenenter"",""5"",""16382""
","
",NA,images/earth.jpg,NA,NA,NA,NA,NA,NA,NA,NA,NA,NA,NA,NA,NA,fixation,NA,NA,NA,NA,NA,NA,sub139
d3-animate-choice,228,729568,0.0-76.0-0.31,FALSE,TRUE,FALSE,TRUE,"""event"",""trial"",""time""
""fullscreenenter"",""5"",""16382""
","
","
","""event"",""trial"",""time""
""fullscreenenter"",""5"",""16382""
","
",335.3150000330061,NA,49,NA,NA,3000,1,NA,NA,images/earth.jpg,images/rocket1,images/rocket2,null,images/rocket2,NA,1,real,null,1,NA,NA,NA,sub139
d3-animate-choice,229,732424,0.0-76.0-1.31,FALSE,TRUE,FALSE,TRUE,"""event"",""trial"",""time""
""fullscreenenter"",""5"",""16382""
","
","
","""event"",""trial"",""time""
""fullscreenenter"",""5"",""16382""
","
",850.6150000030175,NA,48,NA,NA,3000,1,NA,NA,images/redplanet1.jpg,images/alien2,images/alien1,images/rocket2,images/alien2,images/t.png,2,real,false,2,rare,1,2020-06-24T20:52:25Z,sub139
two-step-fixation,230,733429,0.0-76.0-2.31,FALSE,TRUE,FALSE,TRUE,"""event"",""trial"",""time""
""fullscreenenter"",""5"",""16382""
","
","
","""event"",""trial"",""time""
""fullscreenenter"",""5"",""16382""
","
",NA,images/earth.jpg,NA,NA,NA,NA,NA,NA,NA,NA,NA,NA,NA,NA,NA,fixation,NA,NA,NA,NA,NA,NA,sub139
d3-animate-choice,231,735770,0.0-76.0-0.32,FALSE,TRUE,FALSE,TRUE,"""event"",""trial"",""time""
""fullscreenenter"",""5"",""16382""
","
","
","""event"",""trial"",""time""
""fullscreenenter"",""5"",""16382""
","
",334.7400000784546,NA,49,NA,NA,3000,1,NA,NA,images/earth.jpg,images/rocket1,images/rocket2,null,images/rocket2,NA,1,real,null,1,NA,NA,NA,sub139
d3-animate-choice,232,738191,0.0-76.0-1.32,FALSE,TRUE,FALSE,TRUE,"""event"",""trial"",""time""
""fullscreenenter"",""5"",""16382""
","
","
","""event"",""trial"",""time""
""fullscreenenter"",""5"",""16382""
","
",416.1049999529496,NA,48,NA,NA,3000,1,NA,NA,images/purpleplanet.jpg,images/alien4,images/alien3,images/rocket2,images/alien4,images/nothing.png,2,real,true,2,common,0,2020-06-24T20:52:31Z,sub139
two-step-fixation,233,739196,0.0-76.0-2.32,FALSE,TRUE,FALSE,TRUE,"""event"",""trial"",""time""
""fullscreenenter"",""5"",""16382""
","
","
","""event"",""trial"",""time""
""fullscreenenter"",""5"",""16382""
","
",NA,images/earth.jpg,NA,NA,NA,NA,NA,NA,NA,NA,NA,NA,NA,NA,NA,fixation,NA,NA,NA,NA,NA,NA,sub139
d3-animate-choice,234,741523,0.0-76.0-0.33,FALSE,TRUE,FALSE,TRUE,"""event"",""trial"",""time""
""fullscreenenter"",""5"",""16382""
","
","
","""event"",""trial"",""time""
""fullscreenenter"",""5"",""16382""
","
",320.1949999202043,NA,49,NA,NA,3000,1,NA,NA,images/earth.jpg,images/rocket1,images/rocket2,null,images/rocket2,NA,1,real,null,1,NA,NA,NA,sub139
d3-animate-choice,235,743879,0.0-76.0-1.33,FALSE,TRUE,FALSE,TRUE,"""event"",""trial"",""time""
""fullscreenenter"",""5"",""16382""
","
","
","""event"",""trial"",""time""
""fullscreenenter"",""5"",""16382""
","
",350.0600000843406,NA,48,NA,NA,3000,1,NA,NA,images/purpleplanet.jpg,images/alien4,images/alien3,images/rocket2,images/alien4,images/t.png,2,real,true,2,common,1,2020-06-24T20:52:36Z,sub139
two-step-fixation,236,744886,0.0-76.0-2.33,FALSE,TRUE,FALSE,TRUE,"""event"",""trial"",""time""
""fullscreenenter"",""5"",""16382""
","
","
","""event"",""trial"",""time""
""fullscreenenter"",""5"",""16382""
","
",NA,images/earth.jpg,NA,NA,NA,NA,NA,NA,NA,NA,NA,NA,NA,NA,NA,fixation,NA,NA,NA,NA,NA,NA,sub139
d3-animate-choice,237,747239,0.0-76.0-0.34,FALSE,TRUE,FALSE,TRUE,"""event"",""trial"",""time""
""fullscreenenter"",""5"",""16382""
","
","
","""event"",""trial"",""time""
""fullscreenenter"",""5"",""16382""
","
",347.71500003989786,NA,49,NA,NA,3000,1,NA,NA,images/earth.jpg,images/rocket1,images/rocket2,null,images/rocket2,NA,1,real,null,1,NA,NA,NA,sub139
d3-animate-choice,238,749756,0.0-76.0-1.34,FALSE,TRUE,FALSE,TRUE,"""event"",""trial"",""time""
""fullscreenenter"",""5"",""16382""
","
","
","""event"",""trial"",""time""
""fullscreenenter"",""5"",""16382""
","
",510.3899999521673,NA,48,NA,NA,3000,1,NA,NA,images/purpleplanet.jpg,images/alien4,images/alien3,images/rocket2,images/alien4,images/nothing.png,2,real,true,2,common,0,2020-06-24T20:52:42Z,sub139
two-step-fixation,239,750760,0.0-76.0-2.34,FALSE,TRUE,FALSE,TRUE,"""event"",""trial"",""time""
""fullscreenenter"",""5"",""16382""
","
","
","""event"",""trial"",""time""
""fullscreenenter"",""5"",""16382""
","
",NA,images/earth.jpg,NA,NA,NA,NA,NA,NA,NA,NA,NA,NA,NA,NA,NA,fixation,NA,NA,NA,NA,NA,NA,sub139
d3-animate-choice,240,753100,0.0-76.0-0.35,FALSE,TRUE,FALSE,TRUE,"""event"",""trial"",""time""
""fullscreenenter"",""5"",""16382""
","
","
","""event"",""trial"",""time""
""fullscreenenter"",""5"",""16382""
","
",335.6949998997152,NA,49,NA,NA,3000,1,NA,NA,images/earth.jpg,images/rocket1,images/rocket2,null,images/rocket2,NA,1,real,null,1,NA,NA,NA,sub139
d3-animate-choice,241,755432,0.0-76.0-1.35,FALSE,TRUE,FALSE,TRUE,"""event"",""trial"",""time""
""fullscreenenter"",""5"",""16382""
","
","
","""event"",""trial"",""time""
""fullscreenenter"",""5"",""16382""
","
",327.1199999144301,NA,48,NA,NA,3000,1,NA,NA,images/purpleplanet.jpg,images/alien4,images/alien3,images/rocket2,images/alien4,images/nothing.png,2,real,true,2,common,0,2020-06-24T20:52:48Z,sub139
two-step-fixation,242,756437,0.0-76.0-2.35,FALSE,TRUE,FALSE,TRUE,"""event"",""trial"",""time""
""fullscreenenter"",""5"",""16382""
","
","
","""event"",""trial"",""time""
""fullscreenenter"",""5"",""16382""
","
",NA,images/earth.jpg,NA,NA,NA,NA,NA,NA,NA,NA,NA,NA,NA,NA,NA,fixation,NA,NA,NA,NA,NA,NA,sub139
d3-animate-choice,243,758558,0.0-76.0-0.36,FALSE,TRUE,FALSE,TRUE,"""event"",""trial"",""time""
""fullscreenenter"",""5"",""16382""
","
","
","""event"",""trial"",""time""
""fullscreenenter"",""5"",""16382""
","
",113.74499998055398,NA,49,NA,NA,3000,1,NA,NA,images/earth.jpg,images/rocket1,images/rocket2,null,images/rocket2,NA,1,real,null,1,NA,NA,NA,sub139
d3-animate-choice,244,760909,0.0-76.0-1.36,FALSE,TRUE,FALSE,TRUE,"""event"",""trial"",""time""
""fullscreenenter"",""5"",""16382""
","
","
","""event"",""trial"",""time""
""fullscreenenter"",""5"",""16382""
","
",343.4849999612197,NA,49,NA,NA,3000,1,NA,NA,images/purpleplanet.jpg,images/alien4,images/alien3,images/rocket2,images/alien3,images/t.png,2,real,true,1,common,1,2020-06-24T20:52:53Z,sub139
two-step-fixation,245,761917,0.0-76.0-2.36,FALSE,TRUE,FALSE,TRUE,"""event"",""trial"",""time""
""fullscreenenter"",""5"",""16382""
","
","
","""event"",""trial"",""time""
""fullscreenenter"",""5"",""16382""
","
",NA,images/earth.jpg,NA,NA,NA,NA,NA,NA,NA,NA,NA,NA,NA,NA,NA,fixation,NA,NA,NA,NA,NA,NA,sub139
d3-animate-choice,246,764251,0.0-76.0-0.37,FALSE,TRUE,FALSE,TRUE,"""event"",""trial"",""time""
""fullscreenenter"",""5"",""16382""
","
","
","""event"",""trial"",""time""
""fullscreenenter"",""5"",""16382""
","
",330.309999990277,NA,49,NA,NA,3000,1,NA,NA,images/earth.jpg,images/rocket1,images/rocket2,null,images/rocket2,NA,1,real,null,1,NA,NA,NA,sub139
d3-animate-choice,247,766606,0.0-76.0-1.37,FALSE,TRUE,FALSE,TRUE,"""event"",""trial"",""time""
""fullscreenenter"",""5"",""16382""
","
","
","""event"",""trial"",""time""
""fullscreenenter"",""5"",""16382""
","
",349.47499993722886,NA,49,NA,NA,3000,1,NA,NA,images/purpleplanet.jpg,images/alien4,images/alien3,images/rocket2,images/alien3,images/t.png,2,real,true,1,common,1,2020-06-24T20:52:59Z,sub139
two-step-fixation,248,767612,0.0-76.0-2.37,FALSE,TRUE,FALSE,TRUE,"""event"",""trial"",""time""
""fullscreenenter"",""5"",""16382""
","
","
","""event"",""trial"",""time""
""fullscreenenter"",""5"",""16382""
","
",NA,images/earth.jpg,NA,NA,NA,NA,NA,NA,NA,NA,NA,NA,NA,NA,NA,fixation,NA,NA,NA,NA,NA,NA,sub139
d3-animate-choice,249,769940,0.0-76.0-0.38,FALSE,TRUE,FALSE,TRUE,"""event"",""trial"",""time""
""fullscreenenter"",""5"",""16382""
","
","
","""event"",""trial"",""time""
""fullscreenenter"",""5"",""16382""
","
",323.755000019446,NA,49,NA,NA,3000,1,NA,NA,images/earth.jpg,images/rocket1,images/rocket2,null,images/rocket2,NA,1,real,null,1,NA,NA,NA,sub139
d3-animate-choice,250,772654,0.0-76.0-1.38,FALSE,TRUE,FALSE,TRUE,"""event"",""trial"",""time""
""fullscreenenter"",""5"",""16382""
","
","
","""event"",""trial"",""time""
""fullscreenenter"",""5"",""16382""
","
",708.7299999548122,NA,49,NA,NA,3000,1,NA,NA,images/redplanet1.jpg,images/alien2,images/alien1,images/rocket2,images/alien1,images/t.png,2,real,false,1,rare,1,2020-06-24T20:53:05Z,sub139
two-step-fixation,251,773663,0.0-76.0-2.38,FALSE,TRUE,FALSE,TRUE,"""event"",""trial"",""time""
""fullscreenenter"",""5"",""16382""
","
","
","""event"",""trial"",""time""
""fullscreenenter"",""5"",""16382""
","
",NA,images/earth.jpg,NA,NA,NA,NA,NA,NA,NA,NA,NA,NA,NA,NA,NA,fixation,NA,NA,NA,NA,NA,NA,sub139
d3-animate-choice,252,775971,0.0-76.0-0.39,FALSE,TRUE,FALSE,TRUE,"""event"",""trial"",""time""
""fullscreenenter"",""5"",""16382""
","
","
","""event"",""trial"",""time""
""fullscreenenter"",""5"",""16382""
","
",302.96000000089407,NA,49,NA,NA,3000,1,NA,NA,images/earth.jpg,images/rocket1,images/rocket2,null,images/rocket2,NA,1,real,null,1,NA,NA,NA,sub139
d3-animate-choice,253,778532,0.0-76.0-1.39,FALSE,TRUE,FALSE,TRUE,"""event"",""trial"",""time""
""fullscreenenter"",""5"",""16382""
","
","
","""event"",""trial"",""time""
""fullscreenenter"",""5"",""16382""
","
",555.1999999443069,NA,49,NA,NA,3000,1,NA,NA,images/purpleplanet.jpg,images/alien4,images/alien3,images/rocket2,images/alien3,images/nothing.png,2,real,true,1,common,0,2020-06-24T20:53:11Z,sub139
two-step-fixation,254,779538,0.0-76.0-2.39,FALSE,TRUE,FALSE,TRUE,"""event"",""trial"",""time""
""fullscreenenter"",""5"",""16382""
","
","
","""event"",""trial"",""time""
""fullscreenenter"",""5"",""16382""
","
",NA,images/earth.jpg,NA,NA,NA,NA,NA,NA,NA,NA,NA,NA,NA,NA,NA,fixation,NA,NA,NA,NA,NA,NA,sub139
d3-animate-choice,255,781805,0.0-76.0-0.40,FALSE,TRUE,FALSE,TRUE,"""event"",""trial"",""time""
""fullscreenenter"",""5"",""16382""
","
","
","""event"",""trial"",""time""
""fullscreenenter"",""5"",""16382""
","
",262.5750000588596,NA,49,NA,NA,3000,1,NA,NA,images/earth.jpg,images/rocket1,images/rocket2,null,images/rocket2,NA,1,real,null,1,NA,NA,NA,sub139
d3-animate-choice,256,784272,0.0-76.0-1.40,FALSE,TRUE,FALSE,TRUE,"""event"",""trial"",""time""
""fullscreenenter"",""5"",""16382""
","
","
","""event"",""trial"",""time""
""fullscreenenter"",""5"",""16382""
","
",460.4150000959635,NA,49,NA,NA,3000,1,NA,NA,images/purpleplanet.jpg,images/alien4,images/alien3,images/rocket2,images/alien3,images/t.png,2,real,true,1,common,1,2020-06-24T20:53:17Z,sub139
two-step-fixation,257,785276,0.0-76.0-2.40,FALSE,TRUE,FALSE,TRUE,"""event"",""trial"",""time""
""fullscreenenter"",""5"",""16382""
","
","
","""event"",""trial"",""time""
""fullscreenenter"",""5"",""16382""
","
",NA,images/earth.jpg,NA,NA,NA,NA,NA,NA,NA,NA,NA,NA,NA,NA,NA,fixation,NA,NA,NA,NA,NA,NA,sub139
d3-animate-choice,258,787637,0.0-76.0-0.41,FALSE,TRUE,FALSE,TRUE,"""event"",""trial"",""time""
""fullscreenenter"",""5"",""16382""
","
","
","""event"",""trial"",""time""
""fullscreenenter"",""5"",""16382""
","
",354.6199999982491,NA,49,NA,NA,3000,1,NA,NA,images/earth.jpg,images/rocket1,images/rocket2,null,images/rocket2,NA,1,real,null,1,NA,NA,NA,sub139
d3-animate-choice,259,789975,0.0-76.0-1.41,FALSE,TRUE,FALSE,TRUE,"""event"",""trial"",""time""
""fullscreenenter"",""5"",""16382""
","
","
","""event"",""trial"",""time""
""fullscreenenter"",""5"",""16382""
","
",333.27000006102026,NA,49,NA,NA,3000,1,NA,NA,images/purpleplanet.jpg,images/alien4,images/alien3,images/rocket2,images/alien3,images/nothing.png,2,real,true,1,common,0,2020-06-24T20:53:22Z,sub139
two-step-fixation,260,790979,0.0-76.0-2.41,FALSE,TRUE,FALSE,TRUE,"""event"",""trial"",""time""
""fullscreenenter"",""5"",""16382""
","
","
","""event"",""trial"",""time""
""fullscreenenter"",""5"",""16382""
","
",NA,images/earth.jpg,NA,NA,NA,NA,NA,NA,NA,NA,NA,NA,NA,NA,NA,fixation,NA,NA,NA,NA,NA,NA,sub139
d3-animate-choice,261,793319,0.0-76.0-0.42,FALSE,TRUE,FALSE,TRUE,"""event"",""trial"",""time""
""fullscreenenter"",""5"",""16382""
","
","
","""event"",""trial"",""time""
""fullscreenenter"",""5"",""16382""
","
",335.0900000659749,NA,49,NA,NA,3000,1,NA,NA,images/earth.jpg,images/rocket1,images/rocket2,null,images/rocket2,NA,1,real,null,1,NA,NA,NA,sub139
d3-animate-choice,262,795821,0.0-76.0-1.42,FALSE,TRUE,FALSE,TRUE,"""event"",""trial"",""time""
""fullscreenenter"",""5"",""16382""
","
","
","""event"",""trial"",""time""
""fullscreenenter"",""5"",""16382""
","
",495.30499998945743,NA,49,NA,NA,3000,1,NA,NA,images/purpleplanet.jpg,images/alien4,images/alien3,images/rocket2,images/alien3,images/nothing.png,2,real,true,1,common,0,2020-06-24T20:53:28Z,sub139
two-step-fixation,263,796825,0.0-76.0-2.42,FALSE,TRUE,FALSE,TRUE,"""event"",""trial"",""time""
""fullscreenenter"",""5"",""16382""
","
","
","""event"",""trial"",""time""
""fullscreenenter"",""5"",""16382""
","
",NA,images/earth.jpg,NA,NA,NA,NA,NA,NA,NA,NA,NA,NA,NA,NA,NA,fixation,NA,NA,NA,NA,NA,NA,sub139
d3-animate-choice,264,799200,0.0-76.0-0.43,FALSE,TRUE,FALSE,TRUE,"""event"",""trial"",""time""
""fullscreenenter"",""5"",""16382""
","
","
","""event"",""trial"",""time""
""fullscreenenter"",""5"",""16382""
","
",370.11499993968755,NA,48,NA,NA,3000,1,NA,NA,images/earth.jpg,images/rocket1,images/rocket2,null,images/rocket1,NA,1,real,null,2,NA,NA,NA,sub139
d3-animate-choice,265,801599,0.0-76.0-1.43,FALSE,TRUE,FALSE,TRUE,"""event"",""trial"",""time""
""fullscreenenter"",""5"",""16382""
","
","
","""event"",""trial"",""time""
""fullscreenenter"",""5"",""16382""
","
",394.0850000362843,NA,49,NA,NA,3000,1,NA,NA,images/redplanet1.jpg,images/alien2,images/alien1,images/rocket1,images/alien1,images/t.png,2,real,true,1,common,1,2020-06-24T20:53:34Z,sub139
two-step-fixation,266,802605,0.0-76.0-2.43,FALSE,TRUE,FALSE,TRUE,"""event"",""trial"",""time""
""fullscreenenter"",""5"",""16382""
","
","
","""event"",""trial"",""time""
""fullscreenenter"",""5"",""16382""
","
",NA,images/earth.jpg,NA,NA,NA,NA,NA,NA,NA,NA,NA,NA,NA,NA,NA,fixation,NA,NA,NA,NA,NA,NA,sub139
d3-animate-choice,267,804945,0.0-76.0-0.44,FALSE,TRUE,FALSE,TRUE,"""event"",""trial"",""time""
""fullscreenenter"",""5"",""16382""
","
","
","""event"",""trial"",""time""
""fullscreenenter"",""5"",""16382""
","
",332.689999951981,NA,48,NA,NA,3000,1,NA,NA,images/earth.jpg,images/rocket1,images/rocket2,null,images/rocket1,NA,1,real,null,2,NA,NA,NA,sub139
d3-animate-choice,268,807408,0.0-76.0-1.44,FALSE,TRUE,FALSE,TRUE,"""event"",""trial"",""time""
""fullscreenenter"",""5"",""16382""
","
","
","""event"",""trial"",""time""
""fullscreenenter"",""5"",""16382""
","
",457.84499996807426,NA,49,NA,NA,3000,1,NA,NA,images/redplanet1.jpg,images/alien2,images/alien1,images/rocket1,images/alien1,images/t.png,2,real,true,1,common,1,2020-06-24T20:53:40Z,sub139
two-step-fixation,269,808412,0.0-76.0-2.44,FALSE,TRUE,FALSE,TRUE,"""event"",""trial"",""time""
""fullscreenenter"",""5"",""16382""
","
","
","""event"",""trial"",""time""
""fullscreenenter"",""5"",""16382""
","
",NA,images/earth.jpg,NA,NA,NA,NA,NA,NA,NA,NA,NA,NA,NA,NA,NA,fixation,NA,NA,NA,NA,NA,NA,sub139
d3-animate-choice,270,810786,0.0-76.0-0.45,FALSE,TRUE,FALSE,TRUE,"""event"",""trial"",""time""
""fullscreenenter"",""5"",""16382""
","
","
","""event"",""trial"",""time""
""fullscreenenter"",""5"",""16382""
","
",370.2250000787899,NA,48,NA,NA,3000,1,NA,NA,images/earth.jpg,images/rocket1,images/rocket2,null,images/rocket1,NA,1,real,null,2,NA,NA,NA,sub139
d3-animate-choice,271,813265,0.0-76.0-1.45,FALSE,TRUE,FALSE,TRUE,"""event"",""trial"",""time""
""fullscreenenter"",""5"",""16382""
","
","
","""event"",""trial"",""time""
""fullscreenenter"",""5"",""16382""
","
",473.92999997828156,NA,49,NA,NA,3000,1,NA,NA,images/redplanet1.jpg,images/alien2,images/alien1,images/rocket1,images/alien1,images/t.png,2,real,true,1,common,1,2020-06-24T20:53:46Z,sub139
two-step-fixation,272,814268,0.0-76.0-2.45,FALSE,TRUE,FALSE,TRUE,"""event"",""trial"",""time""
""fullscreenenter"",""5"",""16382""
","
","
","""event"",""trial"",""time""
""fullscreenenter"",""5"",""16382""
","
",NA,images/earth.jpg,NA,NA,NA,NA,NA,NA,NA,NA,NA,NA,NA,NA,NA,fixation,NA,NA,NA,NA,NA,NA,sub139
d3-animate-choice,273,816649,0.0-76.0-0.46,FALSE,TRUE,FALSE,TRUE,"""event"",""trial"",""time""
""fullscreenenter"",""5"",""16382""
","
","
","""event"",""trial"",""time""
""fullscreenenter"",""5"",""16382""
","
",374.5149999158457,NA,48,NA,NA,3000,1,NA,NA,images/earth.jpg,images/rocket1,images/rocket2,null,images/rocket1,NA,1,real,null,2,NA,NA,NA,sub139
d3-animate-choice,274,819051,0.0-76.0-1.46,FALSE,TRUE,FALSE,TRUE,"""event"",""trial"",""time""
""fullscreenenter"",""5"",""16382""
","
","
","""event"",""trial"",""time""
""fullscreenenter"",""5"",""16382""
","
",397.4649999290705,NA,49,NA,NA,3000,1,NA,NA,images/redplanet1.jpg,images/alien2,images/alien1,images/rocket1,images/alien1,images/nothing.png,2,real,true,1,common,0,2020-06-24T20:53:51Z,sub139
two-step-fixation,275,820056,0.0-76.0-2.46,FALSE,TRUE,FALSE,TRUE,"""event"",""trial"",""time""
""fullscreenenter"",""5"",""16382""
","
","
","""event"",""trial"",""time""
""fullscreenenter"",""5"",""16382""
","
",NA,images/earth.jpg,NA,NA,NA,NA,NA,NA,NA,NA,NA,NA,NA,NA,NA,fixation,NA,NA,NA,NA,NA,NA,sub139
d3-animate-choice,276,822396,0.0-76.0-0.47,FALSE,TRUE,FALSE,TRUE,"""event"",""trial"",""time""
""fullscreenenter"",""5"",""16382""
","
","
","""event"",""trial"",""time""
""fullscreenenter"",""5"",""16382""
","
",333.1400000024587,NA,48,NA,NA,3000,1,NA,NA,images/earth.jpg,images/rocket1,images/rocket2,null,images/rocket1,NA,1,real,null,2,NA,NA,NA,sub139
d3-animate-choice,277,824763,0.0-76.0-1.47,FALSE,TRUE,FALSE,TRUE,"""event"",""trial"",""time""
""fullscreenenter"",""5"",""16382""
","
","
","""event"",""trial"",""time""
""fullscreenenter"",""5"",""16382""
","
",361.5200000349432,NA,49,NA,NA,3000,1,NA,NA,images/redplanet1.jpg,images/alien2,images/alien1,images/rocket1,images/alien1,images/nothing.png,2,real,true,1,common,0,2020-06-24T20:53:57Z,sub139
two-step-fixation,278,825769,0.0-76.0-2.47,FALSE,TRUE,FALSE,TRUE,"""event"",""trial"",""time""
""fullscreenenter"",""5"",""16382""
","
","
","""event"",""trial"",""time""
""fullscreenenter"",""5"",""16382""
","
",NA,images/earth.jpg,NA,NA,NA,NA,NA,NA,NA,NA,NA,NA,NA,NA,NA,fixation,NA,NA,NA,NA,NA,NA,sub139
d3-animate-choice,279,828062,0.0-76.0-0.48,FALSE,TRUE,FALSE,TRUE,"""event"",""trial"",""time""
""fullscreenenter"",""5"",""16382""
","
","
","""event"",""trial"",""time""
""fullscreenenter"",""5"",""16382""
","
",288.2100000279024,NA,48,NA,NA,3000,1,NA,NA,images/earth.jpg,images/rocket1,images/rocket2,null,images/rocket1,NA,1,real,null,2,NA,NA,NA,sub139
d3-animate-choice,280,830426,0.0-76.0-1.48,FALSE,TRUE,FALSE,TRUE,"""event"",""trial"",""time""
""fullscreenenter"",""5"",""16382""
","
","
","""event"",""trial"",""time""
""fullscreenenter"",""5"",""16382""
","
",358.7299999780953,NA,48,NA,NA,3000,1,NA,NA,images/redplanet1.jpg,images/alien2,images/alien1,images/rocket1,images/alien2,images/t.png,2,real,true,2,common,1,2020-06-24T20:54:03Z,sub139
two-step-fixation,281,831432,0.0-76.0-2.48,FALSE,TRUE,FALSE,TRUE,"""event"",""trial"",""time""
""fullscreenenter"",""5"",""16382""
","
","
","""event"",""trial"",""time""
""fullscreenenter"",""5"",""16382""
","
",NA,images/earth.jpg,NA,NA,NA,NA,NA,NA,NA,NA,NA,NA,NA,NA,NA,fixation,NA,NA,NA,NA,NA,NA,sub139
d3-animate-choice,282,833692,0.0-76.0-0.49,FALSE,TRUE,FALSE,TRUE,"""event"",""trial"",""time""
""fullscreenenter"",""5"",""16382""
","
","
","""event"",""trial"",""time""
""fullscreenenter"",""5"",""16382""
","
",254.8899999819696,NA,48,NA,NA,3000,1,NA,NA,images/earth.jpg,images/rocket1,images/rocket2,null,images/rocket1,NA,1,real,null,2,NA,NA,NA,sub139
d3-animate-choice,283,836024,0.0-76.0-1.49,FALSE,TRUE,FALSE,TRUE,"""event"",""trial"",""time""
