trial_type,trial_index,time_elapsed,internal_node_id,rocket_sides,red_planet_first_rocket,red_display_order,purple_display_order,interactions,blur_events,focus_events,fullscreenenter_events,fullscreenexit_events,rt,stimulus,key_press,button_pressed,success,duration,valid_pressed,rts,keys,planet_text,right_text,left_text,center_text,chosen_text,reward_text,trial_stage,practice_trial,transition_type,choice,transition,reward,timestamp,subject_id
pavlovia,0,5,0.0-0.0,TRUE,FALSE,TRUE,TRUE,"
","
","
","
","
",NA,NA,NA,NA,NA,NA,NA,NA,NA,NA,NA,NA,NA,NA,NA,NA,NA,NA,NA,NA,NA,NA,sub53
html-keyboard-response,1,1790,0.0-1.0,TRUE,FALSE,TRUE,TRUE,"
","
","
","
","
",1783.579999988433,Welcome! Press the space bar to begin.,32,NA,NA,NA,NA,NA,NA,NA,NA,NA,NA,NA,NA,NA,NA,NA,NA,NA,NA,NA,sub53
audio-keyboard-response,2,5387,0.0-2.0,TRUE,FALSE,TRUE,TRUE,"
","
","
","
","
",3429,audio/beep_loop.wav,32,NA,NA,NA,NA,NA,NA,NA,NA,NA,NA,NA,NA,NA,NA,NA,NA,NA,NA,NA,sub53
audio-button-response,3,11951,0.0-3.0,TRUE,FALSE,TRUE,TRUE,"
","
","
","
","
",NaN,audio/fish.mp3,NA,1,NA,NA,NA,NA,NA,NA,NA,NA,NA,NA,NA,NA,NA,NA,NA,NA,NA,NA,sub53
audio-button-response,4,14335,0.0-4.0,TRUE,FALSE,TRUE,TRUE,"""event"",""trial"",""time""
""fullscreenenter"",""5"",""18783""
","
","
","""event"",""trial"",""time""
""fullscreenenter"",""5"",""18783""
","
",NaN,audio/tiger.mp3,NA,4,NA,NA,NA,NA,NA,NA,NA,NA,NA,NA,NA,NA,NA,NA,NA,NA,NA,NA,sub53
fullscreen,5,19767,0.0-5.0,TRUE,FALSE,TRUE,TRUE,"""event"",""trial"",""time""
""fullscreenenter"",""5"",""18783""
","
","
","""event"",""trial"",""time""
""fullscreenenter"",""5"",""18783""
","
",NA,NA,NA,NA,TRUE,NA,NA,NA,NA,NA,NA,NA,NA,NA,NA,NA,NA,NA,NA,NA,NA,NA,sub53
d3-instructions,6,33046,0.0-6.0,TRUE,FALSE,TRUE,TRUE,"""event"",""trial"",""time""
""fullscreenenter"",""5"",""18783""
","
","
","""event"",""trial"",""time""
""fullscreenenter"",""5"",""18783""
","
",NA,NA,NA,NA,NA,NA,NA,NA,NA,NA,NA,NA,NA,NA,NA,NA,NA,NA,NA,NA,NA,NA,sub53
d3-instructions,7,43149,0.0-7.0,TRUE,FALSE,TRUE,TRUE,"""event"",""trial"",""time""
""fullscreenenter"",""5"",""18783""
","
","
","""event"",""trial"",""time""
""fullscreenenter"",""5"",""18783""
","
",NA,NA,NA,NA,NA,NA,NA,NA,NA,NA,NA,NA,NA,NA,NA,NA,NA,NA,NA,NA,NA,NA,sub53
d3-instructions,8,49766,0.0-8.0,TRUE,FALSE,TRUE,TRUE,"""event"",""trial"",""time""
""fullscreenenter"",""5"",""18783""
","
","
","""event"",""trial"",""time""
""fullscreenenter"",""5"",""18783""
","
",NA,NA,NA,NA,NA,NA,NA,NA,NA,NA,NA,NA,NA,NA,NA,NA,NA,NA,NA,NA,NA,NA,sub53
d3-instructions,9,61044,0.0-9.0,TRUE,FALSE,TRUE,TRUE,"""event"",""trial"",""time""
""fullscreenenter"",""5"",""18783""
","
","
","""event"",""trial"",""time""
""fullscreenenter"",""5"",""18783""
","
",NA,NA,NA,NA,NA,NA,NA,NA,NA,NA,NA,NA,NA,NA,NA,NA,NA,NA,NA,NA,NA,NA,sub53
d3-instructions,10,82417,0.0-10.0,TRUE,FALSE,TRUE,TRUE,"""event"",""trial"",""time""
""fullscreenenter"",""5"",""18783""
","
","
","""event"",""trial"",""time""
""fullscreenenter"",""5"",""18783""
","
",NA,NA,NA,NA,NA,NA,NA,NA,NA,NA,NA,NA,NA,NA,NA,NA,NA,NA,NA,NA,NA,NA,sub53
d3-animate-choice,11,86733,0.0-11.0,TRUE,FALSE,TRUE,TRUE,"""event"",""trial"",""time""
""fullscreenenter"",""5"",""18783""
","
","
","""event"",""trial"",""time""
""fullscreenenter"",""5"",""18783""
","
",2290.6199999852106,NA,49,NA,NA,3000,1,NA,NA,images/tutgreenplanet.jpg,images/tutalien1,images/tutalien2,null,images/tutalien2,NA,NA,practice,null,NA,NA,NA,NA,sub53
d3-animate-choice,12,89753,0.0-12.0,TRUE,FALSE,TRUE,TRUE,"""event"",""trial"",""time""
""fullscreenenter"",""5"",""18783""
","
","
","""event"",""trial"",""time""
""fullscreenenter"",""5"",""18783""
","
",998.0199999990873,NA,48,NA,NA,3000,1,NA,NA,images/tutgreenplanet.jpg,images/tutalien1,images/tutalien2,null,images/tutalien1,NA,NA,practice,null,NA,NA,NA,NA,sub53
d3-animate-choice,13,92213,0.0-13.0,TRUE,FALSE,TRUE,TRUE,"""event"",""trial"",""time""
""fullscreenenter"",""5"",""18783""
","
","
","""event"",""trial"",""time""
""fullscreenenter"",""5"",""18783""
","
",441.10499997623265,NA,48,NA,NA,3000,1,NA,NA,images/tutgreenplanet.jpg,images/tutalien1,images/tutalien2,null,images/tutalien1,NA,NA,practice,null,NA,NA,NA,NA,sub53
d3-animate-choice,14,94583,0.0-14.0,TRUE,FALSE,TRUE,TRUE,"""event"",""trial"",""time""
""fullscreenenter"",""5"",""18783""
","
","
","""event"",""trial"",""time""
""fullscreenenter"",""5"",""18783""
","
",345.4350000247359,NA,49,NA,NA,3000,1,NA,NA,images/tutgreenplanet.jpg,images/tutalien1,images/tutalien2,null,images/tutalien2,NA,NA,practice,null,NA,NA,NA,NA,sub53
d3-instructions,15,101491,0.0-15.0,TRUE,FALSE,TRUE,TRUE,"""event"",""trial"",""time""
""fullscreenenter"",""5"",""18783""
","
","
","""event"",""trial"",""time""
""fullscreenenter"",""5"",""18783""
","
",NA,NA,NA,NA,NA,NA,NA,NA,NA,NA,NA,NA,NA,NA,NA,NA,NA,NA,NA,NA,NA,NA,sub53
d3-instructions,16,108839,0.0-16.0,TRUE,FALSE,TRUE,TRUE,"""event"",""trial"",""time""
""fullscreenenter"",""5"",""18783""
","
","
","""event"",""trial"",""time""
""fullscreenenter"",""5"",""18783""
","
",NA,NA,NA,NA,NA,NA,NA,NA,NA,NA,NA,NA,NA,NA,NA,NA,NA,NA,NA,NA,NA,NA,sub53
d3-instructions,17,120816,0.0-17.0,TRUE,FALSE,TRUE,TRUE,"""event"",""trial"",""time""
""fullscreenenter"",""5"",""18783""
","
","
","""event"",""trial"",""time""
""fullscreenenter"",""5"",""18783""
","
",NA,NA,NA,NA,NA,NA,NA,NA,NA,NA,NA,NA,NA,NA,NA,NA,NA,NA,NA,NA,NA,NA,sub53
d3-instructions,18,134352,0.0-18.0,TRUE,FALSE,TRUE,TRUE,"""event"",""trial"",""time""
""fullscreenenter"",""5"",""18783""
","
","
","""event"",""trial"",""time""
""fullscreenenter"",""5"",""18783""
","
",NA,NA,NA,NA,NA,NA,NA,NA,NA,NA,NA,NA,NA,NA,NA,NA,NA,NA,NA,NA,NA,NA,sub53
d3-instructions,19,148155,0.0-19.0,TRUE,FALSE,TRUE,TRUE,"""event"",""trial"",""time""
""fullscreenenter"",""5"",""18783""
","
","
","""event"",""trial"",""time""
""fullscreenenter"",""5"",""18783""
","
",NA,NA,NA,NA,NA,NA,NA,NA,NA,NA,NA,NA,NA,NA,NA,NA,NA,NA,NA,NA,NA,NA,sub53
d3-animate-choice,20,151211,0.0-20.0,TRUE,FALSE,TRUE,TRUE,"""event"",""trial"",""time""
""fullscreenenter"",""5"",""18783""
","
","
","""event"",""trial"",""time""
""fullscreenenter"",""5"",""18783""
","
",1050.6549999699928,NA,49,NA,NA,3000,1,"1236.7300000041723,1442.5150000024587,1629.7499999636784",494949,images/tutyellowplanet.jpg,null,images/tutalien3,null,images/tutalien3,images/t.png,NA,practice,null,NA,NA,NA,NA,sub53
d3-animate-choice,21,153558,0.0-21.0,TRUE,FALSE,TRUE,TRUE,"""event"",""trial"",""time""
""fullscreenenter"",""5"",""18783""
","
","
","""event"",""trial"",""time""
""fullscreenenter"",""5"",""18783""
","
",326.89500000560656,NA,49,NA,NA,3000,1,1872.365000017453,49,images/tutyellowplanet.jpg,null,images/tutalien3,null,images/tutalien3,images/t.png,NA,practice,null,NA,NA,NA,NA,sub53
d3-animate-choice,22,155907,0.0-22.0,TRUE,FALSE,TRUE,TRUE,"""event"",""trial"",""time""
""fullscreenenter"",""5"",""18783""
","
","
","""event"",""trial"",""time""
""fullscreenenter"",""5"",""18783""
","
",335.785000002943,NA,49,NA,NA,3000,1,NA,NA,images/tutyellowplanet.jpg,null,images/tutalien3,null,images/tutalien3,images/t.png,NA,practice,null,NA,NA,NA,NA,sub53
d3-animate-choice,23,158196,0.0-23.0,TRUE,FALSE,TRUE,TRUE,"""event"",""trial"",""time""
""fullscreenenter"",""5"",""18783""
","
","
","""event"",""trial"",""time""
""fullscreenenter"",""5"",""18783""
","
",278.85000000242144,NA,49,NA,NA,3000,1,NA,NA,images/tutyellowplanet.jpg,null,images/tutalien3,null,images/tutalien3,images/t.png,NA,practice,null,NA,NA,NA,NA,sub53
d3-animate-choice,24,160650,0.0-24.0,TRUE,FALSE,TRUE,TRUE,"""event"",""trial"",""time""
""fullscreenenter"",""5"",""18783""
","
","
","""event"",""trial"",""time""
""fullscreenenter"",""5"",""18783""
","
",448.9750000066124,NA,49,NA,NA,3000,1,NA,NA,images/tutyellowplanet.jpg,null,images/tutalien3,null,images/tutalien3,images/t.png,NA,practice,null,NA,NA,NA,NA,sub53
d3-animate-choice,25,162908,0.0-25.0,TRUE,FALSE,TRUE,TRUE,"""event"",""trial"",""time""
""fullscreenenter"",""5"",""18783""
","
","
","""event"",""trial"",""time""
""fullscreenenter"",""5"",""18783""
","
",247.48999997973442,NA,49,NA,NA,3000,1,NA,NA,images/tutyellowplanet.jpg,null,images/tutalien3,null,images/tutalien3,images/t.png,NA,practice,null,NA,NA,NA,NA,sub53
d3-animate-choice,26,165331,0.0-26.0,TRUE,FALSE,TRUE,TRUE,"""event"",""trial"",""time""
""fullscreenenter"",""5"",""18783""
","
","
","""event"",""trial"",""time""
""fullscreenenter"",""5"",""18783""
","
",417.95999999158084,NA,49,NA,NA,3000,1,NA,NA,images/tutyellowplanet.jpg,null,images/tutalien3,null,images/tutalien3,images/nothing.png,NA,practice,null,NA,NA,NA,NA,sub53
d3-animate-choice,27,167858,0.0-27.0,TRUE,FALSE,TRUE,TRUE,"""event"",""trial"",""time""
""fullscreenenter"",""5"",""18783""
","
","
","""event"",""trial"",""time""
""fullscreenenter"",""5"",""18783""
","
",501.23499997425824,NA,49,NA,NA,3000,1,NA,NA,images/tutyellowplanet.jpg,null,images/tutalien3,null,images/tutalien3,images/t.png,NA,practice,null,NA,NA,NA,NA,sub53
d3-animate-choice,28,170387,0.0-28.0,TRUE,FALSE,TRUE,TRUE,"""event"",""trial"",""time""
""fullscreenenter"",""5"",""18783""
","
","
","""event"",""trial"",""time""
""fullscreenenter"",""5"",""18783""
","
",522.5250000366941,NA,49,NA,NA,3000,1,NA,NA,images/tutyellowplanet.jpg,null,images/tutalien3,null,images/tutalien3,images/t.png,NA,practice,null,NA,NA,NA,NA,sub53
d3-animate-choice,29,172747,0.0-29.0,TRUE,FALSE,TRUE,TRUE,"""event"",""trial"",""time""
""fullscreenenter"",""5"",""18783""
","
","
","""event"",""trial"",""time""
""fullscreenenter"",""5"",""18783""
","
",353.3900000038557,NA,49,NA,NA,3000,1,NA,NA,images/tutyellowplanet.jpg,null,images/tutalien3,null,images/tutalien3,images/t.png,NA,practice,null,NA,NA,NA,NA,sub53
d3-instructions,30,180952,0.0-30.0,TRUE,FALSE,TRUE,TRUE,"""event"",""trial"",""time""
""fullscreenenter"",""5"",""18783""
","
","
","""event"",""trial"",""time""
""fullscreenenter"",""5"",""18783""
","
",NA,NA,NA,NA,NA,NA,NA,NA,NA,NA,NA,NA,NA,NA,NA,NA,NA,NA,NA,NA,NA,NA,sub53
d3-instructions,31,190870,0.0-31.0,TRUE,FALSE,TRUE,TRUE,"""event"",""trial"",""time""
""fullscreenenter"",""5"",""18783""
","
","
","""event"",""trial"",""time""
""fullscreenenter"",""5"",""18783""
","
",NA,NA,NA,NA,NA,NA,NA,NA,NA,NA,NA,NA,NA,NA,NA,NA,NA,NA,NA,NA,NA,NA,sub53
d3-instructions,32,198446,0.0-32.0,TRUE,FALSE,TRUE,TRUE,"""event"",""trial"",""time""
""fullscreenenter"",""5"",""18783""
","
","
","""event"",""trial"",""time""
""fullscreenenter"",""5"",""18783""
","
",NA,NA,NA,NA,NA,NA,NA,NA,NA,NA,NA,NA,NA,NA,NA,NA,NA,NA,NA,NA,NA,NA,sub53
d3-instructions,33,208745,0.0-33.0,TRUE,FALSE,TRUE,TRUE,"""event"",""trial"",""time""
""fullscreenenter"",""5"",""18783""
","
","
","""event"",""trial"",""time""
""fullscreenenter"",""5"",""18783""
","
",NA,NA,NA,NA,NA,NA,NA,NA,NA,NA,NA,NA,NA,NA,NA,NA,NA,NA,NA,NA,NA,NA,sub53
d3-animate-choice,34,212447,0.0-34.0,TRUE,FALSE,TRUE,TRUE,"""event"",""trial"",""time""
""fullscreenenter"",""5"",""18783""
","
","
","""event"",""trial"",""time""
""fullscreenenter"",""5"",""18783""
","
",1678.044999949634,NA,49,NA,NA,3000,1,NA,NA,images/tutgreenplanet.jpg,images/tutalien1,images/tutalien2,null,images/tutalien2,images/t.png,NA,practice,null,NA,NA,NA,NA,sub53
d3-animate-choice,35,214948,0.0-35.0,TRUE,FALSE,TRUE,TRUE,"""event"",""trial"",""time""
""fullscreenenter"",""5"",""18783""
","
","
","""event"",""trial"",""time""
""fullscreenenter"",""5"",""18783""
","
",485.99999997531995,NA,49,NA,NA,3000,1,NA,NA,images/tutgreenplanet.jpg,images/tutalien1,images/tutalien2,null,images/tutalien2,images/t.png,NA,practice,null,NA,NA,NA,NA,sub53
d3-animate-choice,36,217798,0.0-36.0,TRUE,FALSE,TRUE,TRUE,"""event"",""trial"",""time""
""fullscreenenter"",""5"",""18783""
","
","
","""event"",""trial"",""time""
""fullscreenenter"",""5"",""18783""
","
",844.3299999926239,NA,48,NA,NA,3000,1,NA,NA,images/tutgreenplanet.jpg,images/tutalien1,images/tutalien2,null,images/tutalien1,images/nothing.png,NA,practice,null,NA,NA,NA,NA,sub53
d3-animate-choice,37,220139,0.0-37.0,TRUE,FALSE,TRUE,TRUE,"""event"",""trial"",""time""
""fullscreenenter"",""5"",""18783""
","
","
","""event"",""trial"",""time""
""fullscreenenter"",""5"",""18783""
","
",335.35499998833984,NA,49,NA,NA,3000,1,1742.1599999652244,49,images/tutgreenplanet.jpg,images/tutalien1,images/tutalien2,null,images/tutalien2,images/t.png,NA,practice,null,NA,NA,NA,NA,sub53
d3-animate-choice,38,222478,0.0-38.0,TRUE,FALSE,TRUE,TRUE,"""event"",""trial"",""time""
""fullscreenenter"",""5"",""18783""
","
","
","""event"",""trial"",""time""
""fullscreenenter"",""5"",""18783""
","
",325.6800000090152,NA,49,NA,NA,3000,1,NA,NA,images/tutgreenplanet.jpg,images/tutalien1,images/tutalien2,null,images/tutalien2,images/t.png,NA,practice,null,NA,NA,NA,NA,sub53
d3-animate-choice,39,224867,0.0-39.0,TRUE,FALSE,TRUE,TRUE,"""event"",""trial"",""time""
""fullscreenenter"",""5"",""18783""
","
","
","""event"",""trial"",""time""
""fullscreenenter"",""5"",""18783""
","
",369.3499999935739,NA,49,NA,NA,3000,1,NA,NA,images/tutgreenplanet.jpg,images/tutalien1,images/tutalien2,null,images/tutalien2,images/t.png,NA,practice,null,NA,NA,NA,NA,sub53
d3-animate-choice,40,227267,0.0-40.0,TRUE,FALSE,TRUE,TRUE,"""event"",""trial"",""time""
""fullscreenenter"",""5"",""18783""
","
","
","""event"",""trial"",""time""
""fullscreenenter"",""5"",""18783""
","
",388.1149999797344,NA,49,NA,NA,3000,1,2197.280000022147,49,images/tutgreenplanet.jpg,images/tutalien1,images/tutalien2,null,images/tutalien2,images/t.png,NA,practice,null,NA,NA,NA,NA,sub53
d3-animate-choice,41,229521,0.0-41.0,TRUE,FALSE,TRUE,TRUE,"""event"",""trial"",""time""
""fullscreenenter"",""5"",""18783""
","
","
","""event"",""trial"",""time""
""fullscreenenter"",""5"",""18783""
","
",247.8949999785982,NA,49,NA,NA,3000,1,"2006.9650000077672,2228.8749999715947",4949,images/tutgreenplanet.jpg,images/tutalien1,images/tutalien2,null,images/tutalien2,images/t.png,NA,practice,null,NA,NA,NA,NA,sub53
d3-animate-choice,42,234652,0.0-42.0,TRUE,FALSE,TRUE,TRUE,"""event"",""trial"",""time""
""fullscreenenter"",""5"",""18783""
","
","
","""event"",""trial"",""time""
""fullscreenenter"",""5"",""18783""
","
",201.31500001298264,NA,49,NA,NA,3000,1,"505.3349999943748,834.5650000264868,1219.1950000124052,1543.1550000212155",49494949,images/tutgreenplanet.jpg,images/tutalien1,images/tutalien2,null,images/tutalien2,images/t.png,NA,practice,null,NA,NA,NA,NA,sub53
d3-animate-choice,43,236955,0.0-43.0,TRUE,FALSE,TRUE,TRUE,"""event"",""trial"",""time""
""fullscreenenter"",""5"",""18783""
","
","
","""event"",""trial"",""time""
""fullscreenenter"",""5"",""18783""
","
",296.8049999908544,NA,49,NA,NA,3000,1,NA,NA,images/tutgreenplanet.jpg,images/tutalien1,images/tutalien2,null,images/tutalien2,images/t.png,NA,practice,null,NA,NA,NA,NA,sub53
d3-instructions,44,253036,0.0-44.0,TRUE,FALSE,TRUE,TRUE,"""event"",""trial"",""time""
""fullscreenenter"",""5"",""18783""
","
","
","""event"",""trial"",""time""
""fullscreenenter"",""5"",""18783""
","
",NA,NA,NA,NA,NA,NA,NA,NA,NA,NA,NA,NA,NA,NA,NA,NA,NA,NA,NA,NA,NA,NA,sub53
d3-instructions,45,259339,0.0-45.0,TRUE,FALSE,TRUE,TRUE,"""event"",""trial"",""time""
""fullscreenenter"",""5"",""18783""
","
","
","""event"",""trial"",""time""
""fullscreenenter"",""5"",""18783""
","
",NA,NA,NA,NA,NA,NA,NA,NA,NA,NA,NA,NA,NA,NA,NA,NA,NA,NA,NA,NA,NA,NA,sub53
d3-instructions,46,265963,0.0-46.0,TRUE,FALSE,TRUE,TRUE,"""event"",""trial"",""time""
""fullscreenenter"",""5"",""18783""
","
","
","""event"",""trial"",""time""
""fullscreenenter"",""5"",""18783""
","
",NA,NA,NA,NA,NA,NA,NA,NA,NA,NA,NA,NA,NA,NA,NA,NA,NA,NA,NA,NA,NA,NA,sub53
d3-instructions,47,282959,0.0-47.0,TRUE,FALSE,TRUE,TRUE,"""event"",""trial"",""time""
""fullscreenenter"",""5"",""18783""
","
","
","""event"",""trial"",""time""
""fullscreenenter"",""5"",""18783""
","
",NA,NA,NA,NA,NA,NA,NA,NA,NA,NA,NA,NA,NA,NA,NA,NA,NA,NA,NA,NA,NA,NA,sub53
d3-instructions,48,290611,0.0-48.0,TRUE,FALSE,TRUE,TRUE,"""event"",""trial"",""time""
""fullscreenenter"",""5"",""18783""
","
","
","""event"",""trial"",""time""
""fullscreenenter"",""5"",""18783""
","
",NA,NA,NA,NA,NA,NA,NA,NA,NA,NA,NA,NA,NA,NA,NA,NA,NA,NA,NA,NA,NA,NA,sub53
d3-instructions,49,301933,0.0-49.0,TRUE,FALSE,TRUE,TRUE,"""event"",""trial"",""time""
""fullscreenenter"",""5"",""18783""
","
","
","""event"",""trial"",""time""
""fullscreenenter"",""5"",""18783""
","
",NA,NA,NA,NA,NA,NA,NA,NA,NA,NA,NA,NA,NA,NA,NA,NA,NA,NA,NA,NA,NA,NA,sub53
d3-instructions,50,312315,0.0-50.0,TRUE,FALSE,TRUE,TRUE,"""event"",""trial"",""time""
""fullscreenenter"",""5"",""18783""
","
","
","""event"",""trial"",""time""
""fullscreenenter"",""5"",""18783""
","
",NA,NA,NA,NA,NA,NA,NA,NA,NA,NA,NA,NA,NA,NA,NA,NA,NA,NA,NA,NA,NA,NA,sub53
d3-instructions,51,315383,0.0-51.0,TRUE,FALSE,TRUE,TRUE,"""event"",""trial"",""time""
""fullscreenenter"",""5"",""18783""
","
","
","""event"",""trial"",""time""
""fullscreenenter"",""5"",""18783""
","
",NA,NA,NA,NA,NA,NA,NA,NA,NA,NA,NA,NA,NA,NA,NA,NA,NA,NA,NA,NA,NA,NA,sub53
d3-instructions,52,320057,0.0-52.0,TRUE,FALSE,TRUE,TRUE,"""event"",""trial"",""time""
""fullscreenenter"",""5"",""18783""
","
","
","""event"",""trial"",""time""
""fullscreenenter"",""5"",""18783""
","
",NA,NA,NA,NA,NA,NA,NA,NA,NA,NA,NA,NA,NA,NA,NA,NA,NA,NA,NA,NA,NA,NA,sub53
d3-instructions,53,335734,0.0-53.0,TRUE,FALSE,TRUE,TRUE,"""event"",""trial"",""time""
""fullscreenenter"",""5"",""18783""
","
","
","""event"",""trial"",""time""
""fullscreenenter"",""5"",""18783""
","
",NA,NA,NA,NA,NA,NA,NA,NA,NA,NA,NA,NA,NA,NA,NA,NA,NA,NA,NA,NA,NA,NA,sub53
d3-instructions,54,348704,0.0-54.0,TRUE,FALSE,TRUE,TRUE,"""event"",""trial"",""time""
""fullscreenenter"",""5"",""18783""
","
","
","""event"",""trial"",""time""
""fullscreenenter"",""5"",""18783""
","
",NA,NA,NA,NA,NA,NA,NA,NA,NA,NA,NA,NA,NA,NA,NA,NA,NA,NA,NA,NA,NA,NA,sub53
d3-instructions,55,361497,0.0-55.0,TRUE,FALSE,TRUE,TRUE,"""event"",""trial"",""time""
""fullscreenenter"",""5"",""18783""
","
","
","""event"",""trial"",""time""
""fullscreenenter"",""5"",""18783""
","
",NA,NA,NA,NA,NA,NA,NA,NA,NA,NA,NA,NA,NA,NA,NA,NA,NA,NA,NA,NA,NA,NA,sub53
d3-instructions,56,369569,0.0-56.0,TRUE,FALSE,TRUE,TRUE,"""event"",""trial"",""time""
""fullscreenenter"",""5"",""18783""
","
","
","""event"",""trial"",""time""
""fullscreenenter"",""5"",""18783""
","
",NA,NA,NA,NA,NA,NA,NA,NA,NA,NA,NA,NA,NA,NA,NA,NA,NA,NA,NA,NA,NA,NA,sub53
d3-instructions,57,379344,0.0-57.0,TRUE,FALSE,TRUE,TRUE,"""event"",""trial"",""time""
""fullscreenenter"",""5"",""18783""
","
","
","""event"",""trial"",""time""
""fullscreenenter"",""5"",""18783""
","
",NA,NA,NA,NA,NA,NA,NA,NA,NA,NA,NA,NA,NA,NA,NA,NA,NA,NA,NA,NA,NA,NA,sub53
d3-instructions,58,392788,0.0-58.0,TRUE,FALSE,TRUE,TRUE,"""event"",""trial"",""time""
""fullscreenenter"",""5"",""18783""
","
","
","""event"",""trial"",""time""
""fullscreenenter"",""5"",""18783""
","
",NA,NA,NA,NA,NA,NA,NA,NA,NA,NA,NA,NA,NA,NA,NA,NA,NA,NA,NA,NA,NA,NA,sub53
d3-instructions,59,397328,0.0-59.0,TRUE,FALSE,TRUE,TRUE,"""event"",""trial"",""time""
""fullscreenenter"",""5"",""18783""
","
","
","""event"",""trial"",""time""
""fullscreenenter"",""5"",""18783""
","
",NA,NA,NA,NA,NA,NA,NA,NA,NA,NA,NA,NA,NA,NA,NA,NA,NA,NA,NA,NA,NA,NA,sub53
d3-instructions,60,405521,0.0-60.0,TRUE,FALSE,TRUE,TRUE,"""event"",""trial"",""time""
""fullscreenenter"",""5"",""18783""
","
","
","""event"",""trial"",""time""
""fullscreenenter"",""5"",""18783""
","
",NA,NA,NA,NA,NA,NA,NA,NA,NA,NA,NA,NA,NA,NA,NA,NA,NA,NA,NA,NA,NA,NA,sub53
d3-animate-choice,61,408845,0.0-61.0-0.0,TRUE,FALSE,TRUE,TRUE,"""event"",""trial"",""time""
""fullscreenenter"",""5"",""18783""
","
","
","""event"",""trial"",""time""
""fullscreenenter"",""5"",""18783""
","
",1314.6050000214018,NA,49,NA,NA,3000,1,NA,NA,images/earth.jpg,images/tutrocket1,images/tutrocket2,null,images/tutrocket2,NA,1,practice,null,1,NA,NA,NA,sub53
d3-animate-choice,62,412181,0.0-61.0-1.0,TRUE,FALSE,TRUE,TRUE,"""event"",""trial"",""time""
""fullscreenenter"",""5"",""18783""
","
","
","""event"",""trial"",""time""
""fullscreenenter"",""5"",""18783""
","
",1317.540000018198,NA,49,NA,NA,3000,1,NA,NA,images/tutgreenplanet.jpg,images/tutalien2,images/tutalien1,images/tutrocket2,images/tutalien1,images/nothing.png,2,practice,true,1,common,0,2020-06-14T14:42:43Z,sub53
two-step-fixation,63,413189,0.0-61.0-2.0,TRUE,FALSE,TRUE,TRUE,"""event"",""trial"",""time""
""fullscreenenter"",""5"",""18783""
","
","
","""event"",""trial"",""time""
""fullscreenenter"",""5"",""18783""
","
",NA,images/earth.jpg,NA,NA,NA,NA,NA,NA,NA,NA,NA,NA,NA,NA,NA,fixation,NA,NA,NA,NA,NA,NA,sub53
d3-animate-choice,64,417194,0.0-61.0-0.1,TRUE,FALSE,TRUE,TRUE,"""event"",""trial"",""time""
""fullscreenenter"",""5"",""18783""
","
","
","""event"",""trial"",""time""
""fullscreenenter"",""5"",""18783""
","
",2467.105000047013,NA,49,NA,NA,3000,1,NA,NA,images/earth.jpg,images/tutrocket1,images/tutrocket2,null,images/tutrocket2,NA,1,practice,null,1,NA,NA,NA,sub53
d3-animate-choice,65,420013,0.0-61.0-1.1,TRUE,FALSE,TRUE,TRUE,"""event"",""trial"",""time""
""fullscreenenter"",""5"",""18783""
","
","
","""event"",""trial"",""time""
""fullscreenenter"",""5"",""18783""
","
",791.510000010021,NA,48,NA,NA,3000,1,NA,NA,images/tutgreenplanet.jpg,images/tutalien2,images/tutalien1,images/tutrocket2,images/tutalien2,images/t.png,2,practice,true,2,common,1,2020-06-14T14:42:51Z,sub53
two-step-fixation,66,421021,0.0-61.0-2.1,TRUE,FALSE,TRUE,TRUE,"""event"",""trial"",""time""
""fullscreenenter"",""5"",""18783""
","
","
","""event"",""trial"",""time""
""fullscreenenter"",""5"",""18783""
","
",NA,images/earth.jpg,NA,NA,NA,NA,NA,NA,NA,NA,NA,NA,NA,NA,NA,fixation,NA,NA,NA,NA,NA,NA,sub53
d3-animate-choice,67,423672,0.0-61.0-0.2,TRUE,FALSE,TRUE,TRUE,"""event"",""trial"",""time""
""fullscreenenter"",""5"",""18783""
","
","
","""event"",""trial"",""time""
""fullscreenenter"",""5"",""18783""
","
",644.4099999498576,NA,48,NA,NA,3000,1,NA,NA,images/earth.jpg,images/tutrocket1,images/tutrocket2,null,images/tutrocket1,NA,1,practice,null,2,NA,NA,NA,sub53
d3-animate-choice,68,426390,0.0-61.0-1.2,TRUE,FALSE,TRUE,TRUE,"""event"",""trial"",""time""
""fullscreenenter"",""5"",""18783""
","
","
","""event"",""trial"",""time""
""fullscreenenter"",""5"",""18783""
","
",712.2150000068359,NA,48,NA,NA,3000,1,NA,NA,images/tutgreenplanet.jpg,images/tutalien2,images/tutalien1,images/tutrocket1,images/tutalien2,images/nothing.png,2,practice,false,2,rare,0,2020-06-14T14:42:58Z,sub53
two-step-fixation,69,427396,0.0-61.0-2.2,TRUE,FALSE,TRUE,TRUE,"""event"",""trial"",""time""
""fullscreenenter"",""5"",""18783""
","
","
","""event"",""trial"",""time""
""fullscreenenter"",""5"",""18783""
","
",NA,images/earth.jpg,NA,NA,NA,NA,NA,NA,NA,NA,NA,NA,NA,NA,NA,fixation,NA,NA,NA,NA,NA,NA,sub53
d3-animate-choice,70,430191,0.0-61.0-0.3,TRUE,FALSE,TRUE,TRUE,"""event"",""trial"",""time""
""fullscreenenter"",""5"",""18783""
","
","
","""event"",""trial"",""time""
""fullscreenenter"",""5"",""18783""
","
",769.9950000387616,NA,48,NA,NA,3000,1,NA,NA,images/earth.jpg,images/tutrocket1,images/tutrocket2,null,images/tutrocket1,NA,1,practice,null,2,NA,NA,NA,sub53
d3-animate-choice,71,432841,0.0-61.0-1.3,TRUE,FALSE,TRUE,TRUE,"""event"",""trial"",""time""
""fullscreenenter"",""5"",""18783""
","
","
","""event"",""trial"",""time""
""fullscreenenter"",""5"",""18783""
","
",641.3150000153109,NA,49,NA,NA,3000,1,NA,NA,images/tutgreenplanet.jpg,images/tutalien2,images/tutalien1,images/tutrocket1,images/tutalien1,images/nothing.png,2,practice,false,1,rare,0,2020-06-14T14:43:04Z,sub53
two-step-fixation,72,433846,0.0-61.0-2.3,TRUE,FALSE,TRUE,TRUE,"""event"",""trial"",""time""
""fullscreenenter"",""5"",""18783""
","
","
","""event"",""trial"",""time""
""fullscreenenter"",""5"",""18783""
","
",NA,images/earth.jpg,NA,NA,NA,NA,NA,NA,NA,NA,NA,NA,NA,NA,NA,fixation,NA,NA,NA,NA,NA,NA,sub53
d3-animate-choice,73,436648,0.0-61.0-0.4,TRUE,FALSE,TRUE,TRUE,"""event"",""trial"",""time""
""fullscreenenter"",""5"",""18783""
","
","
","""event"",""trial"",""time""
""fullscreenenter"",""5"",""18783""
","
",795.0549999950454,NA,49,NA,NA,3000,1,NA,NA,images/earth.jpg,images/tutrocket1,images/tutrocket2,null,images/tutrocket2,NA,1,practice,null,1,NA,NA,NA,sub53
d3-animate-choice,74,440131,0.0-61.0-1.4,TRUE,FALSE,TRUE,TRUE,"""event"",""trial"",""time""
""fullscreenenter"",""5"",""18783""
","
","
","""event"",""trial"",""time""
""fullscreenenter"",""5"",""18783""
","
",1476.5449999831617,NA,49,NA,NA,3000,1,NA,NA,images/tutgreenplanet.jpg,images/tutalien2,images/tutalien1,images/tutrocket2,images/tutalien1,images/nothing.png,2,practice,true,1,common,0,2020-06-14T14:43:11Z,sub53
two-step-fixation,75,441137,0.0-61.0-2.4,TRUE,FALSE,TRUE,TRUE,"""event"",""trial"",""time""
""fullscreenenter"",""5"",""18783""
","
","
","""event"",""trial"",""time""
""fullscreenenter"",""5"",""18783""
","
",NA,images/earth.jpg,NA,NA,NA,NA,NA,NA,NA,NA,NA,NA,NA,NA,NA,fixation,NA,NA,NA,NA,NA,NA,sub53
d3-animate-choice,76,443664,0.0-61.0-0.5,TRUE,FALSE,TRUE,TRUE,"""event"",""trial"",""time""
""fullscreenenter"",""5"",""18783""
","
","
","""event"",""trial"",""time""
""fullscreenenter"",""5"",""18783""
","
",520.2600000193343,NA,48,NA,NA,3000,1,NA,NA,images/earth.jpg,images/tutrocket1,images/tutrocket2,null,images/tutrocket1,NA,1,practice,null,2,NA,NA,NA,sub53
d3-animate-choice,77,446358,0.0-61.0-1.5,TRUE,FALSE,TRUE,TRUE,"""event"",""trial"",""time""
""fullscreenenter"",""5"",""18783""
","
","
","""event"",""trial"",""time""
""fullscreenenter"",""5"",""18783""
","
",687.789999996312,NA,48,NA,NA,3000,1,NA,NA,images/tutgreenplanet.jpg,images/tutalien2,images/tutalien1,images/tutrocket1,images/tutalien2,images/nothing.png,2,practice,false,2,rare,0,2020-06-14T14:43:18Z,sub53
two-step-fixation,78,447364,0.0-61.0-2.5,TRUE,FALSE,TRUE,TRUE,"""event"",""trial"",""time""
""fullscreenenter"",""5"",""18783""
","
","
","""event"",""trial"",""time""
""fullscreenenter"",""5"",""18783""
","
",NA,images/earth.jpg,NA,NA,NA,NA,NA,NA,NA,NA,NA,NA,NA,NA,NA,fixation,NA,NA,NA,NA,NA,NA,sub53
d3-animate-choice,79,449752,0.0-61.0-0.6,TRUE,FALSE,TRUE,TRUE,"""event"",""trial"",""time""
""fullscreenenter"",""5"",""18783""
","
","
","""event"",""trial"",""time""
""fullscreenenter"",""5"",""18783""
","
",381.63499999791384,NA,49,NA,NA,3000,1,NA,NA,images/earth.jpg,images/tutrocket1,images/tutrocket2,null,images/tutrocket2,NA,1,practice,null,1,NA,NA,NA,sub53
d3-animate-choice,80,452045,0.0-61.0-1.6,TRUE,FALSE,TRUE,TRUE,"""event"",""trial"",""time""
""fullscreenenter"",""5"",""18783""
","
","
","""event"",""trial"",""time""
""fullscreenenter"",""5"",""18783""
","
",286.42499999841675,NA,48,NA,NA,3000,1,NA,NA,images/tutgreenplanet.jpg,images/tutalien2,images/tutalien1,images/tutrocket2,images/tutalien2,images/nothing.png,2,practice,true,2,common,0,2020-06-14T14:43:23Z,sub53
two-step-fixation,81,453051,0.0-61.0-2.6,TRUE,FALSE,TRUE,TRUE,"""event"",""trial"",""time""
""fullscreenenter"",""5"",""18783""
","
","
","""event"",""trial"",""time""
""fullscreenenter"",""5"",""18783""
","
",NA,images/earth.jpg,NA,NA,NA,NA,NA,NA,NA,NA,NA,NA,NA,NA,NA,fixation,NA,NA,NA,NA,NA,NA,sub53
d3-animate-choice,82,455336,0.0-61.0-0.7,TRUE,FALSE,TRUE,TRUE,"""event"",""trial"",""time""
""fullscreenenter"",""5"",""18783""
","
","
","""event"",""trial"",""time""
""fullscreenenter"",""5"",""18783""
","
",276.514999975916,NA,48,NA,NA,3000,1,NA,NA,images/earth.jpg,images/tutrocket1,images/tutrocket2,null,images/tutrocket1,NA,1,practice,null,2,NA,NA,NA,sub53
d3-animate-choice,83,458041,0.0-61.0-1.7,TRUE,FALSE,TRUE,TRUE,"""event"",""trial"",""time""
""fullscreenenter"",""5"",""18783""
","
","
","""event"",""trial"",""time""
""fullscreenenter"",""5"",""18783""
","
",697.9099999880418,NA,49,NA,NA,3000,1,NA,NA,images/tutgreenplanet.jpg,images/tutalien2,images/tutalien1,images/tutrocket1,images/tutalien1,images/t.png,2,practice,false,1,rare,1,2020-06-14T14:43:29Z,sub53
two-step-fixation,84,459046,0.0-61.0-2.7,TRUE,FALSE,TRUE,TRUE,"""event"",""trial"",""time""
""fullscreenenter"",""5"",""18783""
","
","
","""event"",""trial"",""time""
""fullscreenenter"",""5"",""18783""
","
",NA,images/earth.jpg,NA,NA,NA,NA,NA,NA,NA,NA,NA,NA,NA,NA,NA,fixation,NA,NA,NA,NA,NA,NA,sub53
d3-animate-choice,85,461701,0.0-61.0-0.8,TRUE,FALSE,TRUE,TRUE,"""event"",""trial"",""time""
""fullscreenenter"",""5"",""18783""
","
","
","""event"",""trial"",""time""
""fullscreenenter"",""5"",""18783""
","
",648.3299999963492,NA,48,NA,NA,3000,1,NA,NA,images/earth.jpg,images/tutrocket1,images/tutrocket2,null,images/tutrocket1,NA,1,practice,null,2,NA,NA,NA,sub53
d3-animate-choice,86,464117,0.0-61.0-1.8,TRUE,FALSE,TRUE,TRUE,"""event"",""trial"",""time""
""fullscreenenter"",""5"",""18783""
","
","
","""event"",""trial"",""time""
""fullscreenenter"",""5"",""18783""
","
",409.8699999740347,NA,49,NA,NA,3000,1,NA,NA,images/tutgreenplanet.jpg,images/tutalien2,images/tutalien1,images/tutrocket1,images/tutalien1,images/nothing.png,2,practice,false,1,rare,0,2020-06-14T14:43:35Z,sub53
two-step-fixation,87,465120,0.0-61.0-2.8,TRUE,FALSE,TRUE,TRUE,"""event"",""trial"",""time""
""fullscreenenter"",""5"",""18783""
","
","
","""event"",""trial"",""time""
""fullscreenenter"",""5"",""18783""
","
",NA,images/earth.jpg,NA,NA,NA,NA,NA,NA,NA,NA,NA,NA,NA,NA,NA,fixation,NA,NA,NA,NA,NA,NA,sub53
d3-animate-choice,88,467519,0.0-61.0-0.9,TRUE,FALSE,TRUE,TRUE,"""event"",""trial"",""time""
""fullscreenenter"",""5"",""18783""
","
","
","""event"",""trial"",""time""
""fullscreenenter"",""5"",""18783""
","
",394.1650000051595,NA,48,NA,NA,3000,1,NA,NA,images/earth.jpg,images/tutrocket1,images/tutrocket2,null,images/tutrocket1,NA,1,practice,null,2,NA,NA,NA,sub53
d3-animate-choice,89,469805,0.0-61.0-1.9,TRUE,FALSE,TRUE,TRUE,"""event"",""trial"",""time""
""fullscreenenter"",""5"",""18783""
","
","
","""event"",""trial"",""time""
""fullscreenenter"",""5"",""18783""
","
",280.0849999766797,NA,48,NA,NA,3000,1,NA,NA,images/tutyellowplanet.jpg,images/tutalien4,images/tutalien3,images/tutrocket1,images/tutalien4,images/t.png,2,practice,true,2,common,1,2020-06-14T14:43:41Z,sub53
two-step-fixation,90,470810,0.0-61.0-2.9,TRUE,FALSE,TRUE,TRUE,"""event"",""trial"",""time""
""fullscreenenter"",""5"",""18783""
","
","
","""event"",""trial"",""time""
""fullscreenenter"",""5"",""18783""
","
",NA,images/earth.jpg,NA,NA,NA,NA,NA,NA,NA,NA,NA,NA,NA,NA,NA,fixation,NA,NA,NA,NA,NA,NA,sub53
d3-animate-choice,91,473136,0.0-61.0-0.10,TRUE,FALSE,TRUE,TRUE,"""event"",""trial"",""time""
""fullscreenenter"",""5"",""18783""
","
","
","""event"",""trial"",""time""
""fullscreenenter"",""5"",""18783""
","
",320.59999997727573,NA,48,NA,NA,3000,1,NA,NA,images/earth.jpg,images/tutrocket1,images/tutrocket2,null,images/tutrocket1,NA,1,practice,null,2,NA,NA,NA,sub53
d3-animate-choice,92,475772,0.0-61.0-1.10,TRUE,FALSE,TRUE,TRUE,"""event"",""trial"",""time""
""fullscreenenter"",""5"",""18783""
","
","
","""event"",""trial"",""time""
""fullscreenenter"",""5"",""18783""
","
",630.4300000192598,NA,48,NA,NA,3000,1,NA,NA,images/tutyellowplanet.jpg,images/tutalien4,images/tutalien3,images/tutrocket1,images/tutalien4,images/nothing.png,2,practice,true,2,common,0,2020-06-14T14:43:47Z,sub53
two-step-fixation,93,476778,0.0-61.0-2.10,TRUE,FALSE,TRUE,TRUE,"""event"",""trial"",""time""
""fullscreenenter"",""5"",""18783""
","
","
","""event"",""trial"",""time""
""fullscreenenter"",""5"",""18783""
","
",NA,images/earth.jpg,NA,NA,NA,NA,NA,NA,NA,NA,NA,NA,NA,NA,NA,fixation,NA,NA,NA,NA,NA,NA,sub53
d3-animate-choice,94,478785,0.0-61.0-0.11,TRUE,FALSE,TRUE,TRUE,"""event"",""trial"",""time""
""fullscreenenter"",""5"",""18783""
","
","
","""event"",""trial"",""time""
""fullscreenenter"",""5"",""18783""
","
",0.15999999595806003,NA,48,NA,NA,3000,1,NA,NA,images/earth.jpg,images/tutrocket1,images/tutrocket2,null,images/tutrocket1,NA,1,practice,null,2,NA,NA,NA,sub53
d3-animate-choice,95,481278,0.0-61.0-1.11,TRUE,FALSE,TRUE,TRUE,"""event"",""trial"",""time""
""fullscreenenter"",""5"",""18783""
","
","
","""event"",""trial"",""time""
""fullscreenenter"",""5"",""18783""
","
",488.08999999891967,NA,49,NA,NA,3000,1,NA,NA,images/tutyellowplanet.jpg,images/tutalien4,images/tutalien3,images/tutrocket1,images/tutalien3,images/t.png,2,practice,true,1,common,1,2020-06-14T14:43:53Z,sub53
two-step-fixation,96,482283,0.0-61.0-2.11,TRUE,FALSE,TRUE,TRUE,"""event"",""trial"",""time""
""fullscreenenter"",""5"",""18783""
","
","
","""event"",""trial"",""time""
""fullscreenenter"",""5"",""18783""
","
",NA,images/earth.jpg,NA,NA,NA,NA,NA,NA,NA,NA,NA,NA,NA,NA,NA,fixation,NA,NA,NA,NA,NA,NA,sub53
d3-animate-choice,97,484640,0.0-61.0-0.12,TRUE,FALSE,TRUE,TRUE,"""event"",""trial"",""time""
""fullscreenenter"",""5"",""18783""
","
","
","""event"",""trial"",""time""
""fullscreenenter"",""5"",""18783""
","
",350.25000001769513,NA,48,NA,NA,3000,1,NA,NA,images/earth.jpg,images/tutrocket1,images/tutrocket2,null,images/tutrocket1,NA,1,practice,null,2,NA,NA,NA,sub53
d3-animate-choice,98,487104,0.0-61.0-1.12,TRUE,FALSE,TRUE,TRUE,"""event"",""trial"",""time""
""fullscreenenter"",""5"",""18783""
","
","
","""event"",""trial"",""time""
""fullscreenenter"",""5"",""18783""
","
",456.1499999836087,NA,49,NA,NA,3000,1,NA,NA,images/tutyellowplanet.jpg,images/tutalien4,images/tutalien3,images/tutrocket1,images/tutalien3,images/nothing.png,2,practice,true,1,common,0,2020-06-14T14:43:58Z,sub53
two-step-fixation,99,488110,0.0-61.0-2.12,TRUE,FALSE,TRUE,TRUE,"""event"",""trial"",""time""
""fullscreenenter"",""5"",""18783""
","
","
","""event"",""trial"",""time""
""fullscreenenter"",""5"",""18783""
","
",NA,images/earth.jpg,NA,NA,NA,NA,NA,NA,NA,NA,NA,NA,NA,NA,NA,fixation,NA,NA,NA,NA,NA,NA,sub53
d3-animate-choice,100,490430,0.0-61.0-0.13,TRUE,FALSE,TRUE,TRUE,"""event"",""trial"",""time""
""fullscreenenter"",""5"",""18783""
","
","
","""event"",""trial"",""time""
""fullscreenenter"",""5"",""18783""
","
",315.28000003891066,NA,48,NA,NA,3000,1,NA,NA,images/earth.jpg,images/tutrocket1,images/tutrocket2,null,images/tutrocket1,NA,1,practice,null,2,NA,NA,NA,sub53
d3-animate-choice,101,492812,0.0-61.0-1.13,TRUE,FALSE,TRUE,TRUE,"""event"",""trial"",""time""
""fullscreenenter"",""5"",""18783""
","
","
","""event"",""trial"",""time""
""fullscreenenter"",""5"",""18783""
","
",375.9399999980815,NA,49,NA,NA,3000,1,NA,NA,images/tutyellowplanet.jpg,images/tutalien4,images/tutalien3,images/tutrocket1,images/tutalien3,images/t.png,2,practice,true,1,common,1,2020-06-14T14:44:04Z,sub53
two-step-fixation,102,493816,0.0-61.0-2.13,TRUE,FALSE,TRUE,TRUE,"""event"",""trial"",""time""
""fullscreenenter"",""5"",""18783""
","
","
","""event"",""trial"",""time""
""fullscreenenter"",""5"",""18783""
","
",NA,images/earth.jpg,NA,NA,NA,NA,NA,NA,NA,NA,NA,NA,NA,NA,NA,fixation,NA,NA,NA,NA,NA,NA,sub53
d3-animate-choice,103,496152,0.0-61.0-0.14,TRUE,FALSE,TRUE,TRUE,"""event"",""trial"",""time""
""fullscreenenter"",""5"",""18783""
","
","
","""event"",""trial"",""time""
""fullscreenenter"",""5"",""18783""
","
",331.13000000594184,NA,48,NA,NA,3000,1,NA,NA,images/earth.jpg,images/tutrocket1,images/tutrocket2,null,images/tutrocket1,NA,1,practice,null,2,NA,NA,NA,sub53
d3-animate-choice,104,498507,0.0-61.0-1.14,TRUE,FALSE,TRUE,TRUE,"""event"",""trial"",""time""
""fullscreenenter"",""5"",""18783""
","
","
","""event"",""trial"",""time""
""fullscreenenter"",""5"",""18783""
","
",346.48000000743195,NA,48,NA,NA,3000,1,NA,NA,images/tutyellowplanet.jpg,images/tutalien4,images/tutalien3,images/tutrocket1,images/tutalien4,images/t.png,2,practice,true,2,common,1,2020-06-14T14:44:10Z,sub53
two-step-fixation,105,499511,0.0-61.0-2.14,TRUE,FALSE,TRUE,TRUE,"""event"",""trial"",""time""
""fullscreenenter"",""5"",""18783""
","
","
","""event"",""trial"",""time""
""fullscreenenter"",""5"",""18783""
","
",NA,images/earth.jpg,NA,NA,NA,NA,NA,NA,NA,NA,NA,NA,NA,NA,NA,fixation,NA,NA,NA,NA,NA,NA,sub53
d3-animate-choice,106,501764,0.0-61.0-0.15,TRUE,FALSE,TRUE,TRUE,"""event"",""trial"",""time""
""fullscreenenter"",""5"",""18783""
","
","
","""event"",""trial"",""time""
""fullscreenenter"",""5"",""18783""
","
",247.54499999107793,NA,48,NA,NA,3000,1,NA,NA,images/earth.jpg,images/tutrocket1,images/tutrocket2,null,images/tutrocket1,NA,1,practice,null,2,NA,NA,NA,sub53
d3-animate-choice,107,504056,0.0-61.0-1.15,TRUE,FALSE,TRUE,TRUE,"""event"",""trial"",""time""
""fullscreenenter"",""5"",""18783""
","
","
","""event"",""trial"",""time""
""fullscreenenter"",""5"",""18783""
","
",285.3599999798462,NA,48,NA,NA,3000,1,NA,NA,images/tutyellowplanet.jpg,images/tutalien4,images/tutalien3,images/tutrocket1,images/tutalien4,images/t.png,2,practice,true,2,common,1,2020-06-14T14:44:15Z,sub53
two-step-fixation,108,505061,0.0-61.0-2.15,TRUE,FALSE,TRUE,TRUE,"""event"",""trial"",""time""
""fullscreenenter"",""5"",""18783""
","
","
","""event"",""trial"",""time""
""fullscreenenter"",""5"",""18783""
","
",NA,images/earth.jpg,NA,NA,NA,NA,NA,NA,NA,NA,NA,NA,NA,NA,NA,fixation,NA,NA,NA,NA,NA,NA,sub53
d3-animate-choice,109,507467,0.0-61.0-0.16,TRUE,FALSE,TRUE,TRUE,"""event"",""trial"",""time""
""fullscreenenter"",""5"",""18783""
","
","
","""event"",""trial"",""time""
""fullscreenenter"",""5"",""18783""
","
",400.26000002399087,NA,48,NA,NA,3000,1,NA,NA,images/earth.jpg,images/tutrocket1,images/tutrocket2,null,images/tutrocket1,NA,1,practice,null,2,NA,NA,NA,sub53
d3-animate-choice,110,509717,0.0-61.0-1.16,TRUE,FALSE,TRUE,TRUE,"""event"",""trial"",""time""
""fullscreenenter"",""5"",""18783""
","
","
","""event"",""trial"",""time""
""fullscreenenter"",""5"",""18783""
","
",243.82500001229346,NA,49,NA,NA,3000,1,NA,NA,images/tutyellowplanet.jpg,images/tutalien4,images/tutalien3,images/tutrocket1,images/tutalien3,images/nothing.png,2,practice,true,1,common,0,2020-06-14T14:44:21Z,sub53
two-step-fixation,111,510725,0.0-61.0-2.16,TRUE,FALSE,TRUE,TRUE,"""event"",""trial"",""time""
""fullscreenenter"",""5"",""18783""
","
","
","""event"",""trial"",""time""
""fullscreenenter"",""5"",""18783""
","
",NA,images/earth.jpg,NA,NA,NA,NA,NA,NA,NA,NA,NA,NA,NA,NA,NA,fixation,NA,NA,NA,NA,NA,NA,sub53
d3-animate-choice,112,513040,0.0-61.0-0.17,TRUE,FALSE,TRUE,TRUE,"""event"",""trial"",""time""
""fullscreenenter"",""5"",""18783""
","
","
","""event"",""trial"",""time""
""fullscreenenter"",""5"",""18783""
","
",307.9250000300817,NA,48,NA,NA,3000,1,NA,NA,images/earth.jpg,images/tutrocket1,images/tutrocket2,null,images/tutrocket1,NA,1,practice,null,2,NA,NA,NA,sub53
d3-animate-choice,113,515389,0.0-61.0-1.17,TRUE,FALSE,TRUE,TRUE,"""event"",""trial"",""time""
""fullscreenenter"",""5"",""18783""
","
","
","""event"",""trial"",""time""
""fullscreenenter"",""5"",""18783""
","
",343.38500001467764,NA,48,NA,NA,3000,1,NA,NA,images/tutyellowplanet.jpg,images/tutalien4,images/tutalien3,images/tutrocket1,images/tutalien4,images/nothing.png,2,practice,true,2,common,0,2020-06-14T14:44:27Z,sub53
two-step-fixation,114,516394,0.0-61.0-2.17,TRUE,FALSE,TRUE,TRUE,"""event"",""trial"",""time""
""fullscreenenter"",""5"",""18783""
","
","
","""event"",""trial"",""time""
""fullscreenenter"",""5"",""18783""
","
",NA,images/earth.jpg,NA,NA,NA,NA,NA,NA,NA,NA,NA,NA,NA,NA,NA,fixation,NA,NA,NA,NA,NA,NA,sub53
d3-animate-choice,115,518873,0.0-61.0-0.18,TRUE,FALSE,TRUE,TRUE,"""event"",""trial"",""time""
""fullscreenenter"",""5"",""18783""
","
","
","""event"",""trial"",""time""
""fullscreenenter"",""5"",""18783""
","
",472.14500000700355,NA,48,NA,NA,3000,1,NA,NA,images/earth.jpg,images/tutrocket1,images/tutrocket2,null,images/tutrocket1,NA,1,practice,null,2,NA,NA,NA,sub53
d3-animate-choice,116,521246,0.0-61.0-1.18,TRUE,FALSE,TRUE,TRUE,"""event"",""trial"",""time""
""fullscreenenter"",""5"",""18783""
","
","
","""event"",""trial"",""time""
""fullscreenenter"",""5"",""18783""
","
",366.5700000128709,NA,48,NA,NA,3000,1,NA,NA,images/tutgreenplanet.jpg,images/tutalien2,images/tutalien1,images/tutrocket1,images/tutalien2,images/t.png,2,practice,false,2,rare,1,2020-06-14T14:44:32Z,sub53
two-step-fixation,117,522252,0.0-61.0-2.18,TRUE,FALSE,TRUE,TRUE,"""event"",""trial"",""time""
""fullscreenenter"",""5"",""18783""
","
","
","""event"",""trial"",""time""
""fullscreenenter"",""5"",""18783""
","
",NA,images/earth.jpg,NA,NA,NA,NA,NA,NA,NA,NA,NA,NA,NA,NA,NA,fixation,NA,NA,NA,NA,NA,NA,sub53
d3-animate-choice,118,524559,0.0-61.0-0.19,TRUE,FALSE,TRUE,TRUE,"""event"",""trial"",""time""
""fullscreenenter"",""5"",""18783""
","
","
","""event"",""trial"",""time""
""fullscreenenter"",""5"",""18783""
","
",300.12999998871237,NA,48,NA,NA,3000,1,NA,NA,images/earth.jpg,images/tutrocket1,images/tutrocket2,null,images/tutrocket1,NA,1,practice,null,2,NA,NA,NA,sub53
d3-animate-choice,119,526843,0.0-61.0-1.19,TRUE,FALSE,TRUE,TRUE,"""event"",""trial"",""time""
""fullscreenenter"",""5"",""18783""
","
","
","""event"",""trial"",""time""
""fullscreenenter"",""5"",""18783""
","
",277.6499999454245,NA,48,NA,NA,3000,1,NA,NA,images/tutyellowplanet.jpg,images/tutalien4,images/tutalien3,images/tutrocket1,images/tutalien4,images/t.png,2,practice,true,2,common,1,2020-06-14T14:44:38Z,sub53
two-step-fixation,120,527849,0.0-61.0-2.19,TRUE,FALSE,TRUE,TRUE,"""event"",""trial"",""time""
""fullscreenenter"",""5"",""18783""
","
","
","""event"",""trial"",""time""
""fullscreenenter"",""5"",""18783""
","
",NA,images/earth.jpg,NA,NA,NA,NA,NA,NA,NA,NA,NA,NA,NA,NA,NA,fixation,NA,NA,NA,NA,NA,NA,sub53
d3-instructions,121,535931,0.0-62.0,TRUE,FALSE,TRUE,TRUE,"""event"",""trial"",""time""
""fullscreenenter"",""5"",""18783""
","
","
","""event"",""trial"",""time""
""fullscreenenter"",""5"",""18783""
","
",NA,NA,NA,NA,NA,NA,NA,NA,NA,NA,NA,NA,NA,NA,NA,NA,NA,NA,NA,NA,NA,NA,sub53
audio-keyboard-response,122,540989,0.0-63.0,TRUE,FALSE,TRUE,TRUE,"""event"",""trial"",""time""
""fullscreenenter"",""5"",""18783""
","
","
","""event"",""trial"",""time""
""fullscreenenter"",""5"",""18783""
","
",5061,audio/instructions/treasure_feedback.wav,32,NA,NA,NA,NA,NA,NA,NA,NA,NA,NA,NA,NA,NA,NA,NA,NA,NA,NA,NA,sub53
d3-instructions,123,560076,0.0-64.0,TRUE,FALSE,TRUE,TRUE,"""event"",""trial"",""time""
""fullscreenenter"",""5"",""18783""
","
","
","""event"",""trial"",""time""
""fullscreenenter"",""5"",""18783""
","
",NA,NA,NA,NA,NA,NA,NA,NA,NA,NA,NA,NA,NA,NA,NA,NA,NA,NA,NA,NA,NA,NA,sub53
d3-instructions,124,574019,0.0-65.0,TRUE,FALSE,TRUE,TRUE,"""event"",""trial"",""time""
""fullscreenenter"",""5"",""18783""
","
","
","""event"",""trial"",""time""
""fullscreenenter"",""5"",""18783""
","
",NA,NA,NA,NA,NA,NA,NA,NA,NA,NA,NA,NA,NA,NA,NA,NA,NA,NA,NA,NA,NA,NA,sub53
d3-instructions,125,599152,0.0-66.0,TRUE,FALSE,TRUE,TRUE,"""event"",""trial"",""time""
""fullscreenenter"",""5"",""18783""
","
","
","""event"",""trial"",""time""
""fullscreenenter"",""5"",""18783""
","
",NA,NA,NA,NA,NA,NA,NA,NA,NA,NA,NA,NA,NA,NA,NA,NA,NA,NA,NA,NA,NA,NA,sub53
d3-instructions,126,614953,0.0-67.0,TRUE,FALSE,TRUE,TRUE,"""event"",""trial"",""time""
""fullscreenenter"",""5"",""18783""
","
","
","""event"",""trial"",""time""
""fullscreenenter"",""5"",""18783""
","
",NA,NA,NA,NA,NA,NA,NA,NA,NA,NA,NA,NA,NA,NA,NA,NA,NA,NA,NA,NA,NA,NA,sub53
d3-instructions,127,624326,0.0-68.0,TRUE,FALSE,TRUE,TRUE,"""event"",""trial"",""time""
""fullscreenenter"",""5"",""18783""
","
","
","""event"",""trial"",""time""
""fullscreenenter"",""5"",""18783""
","
",NA,NA,NA,NA,NA,NA,NA,NA,NA,NA,NA,NA,NA,NA,NA,NA,NA,NA,NA,NA,NA,NA,sub53
instructions-quiz,128,629202,0.0-69.0,TRUE,FALSE,TRUE,TRUE,"""event"",""trial"",""time""
""fullscreenenter"",""5"",""18783""
","
","
","""event"",""trial"",""time""
""fullscreenenter"",""5"",""18783""
","
",4874.324999982491,audio/quiz/Q1_Prompt.wav,NA,1,NA,NA,NA,NA,NA,NA,NA,NA,NA,NA,NA,NA,NA,NA,NA,NA,NA,NA,sub53
audio-keyboard-response,129,638368,0.0-70.0,TRUE,FALSE,TRUE,TRUE,"""event"",""trial"",""time""
""fullscreenenter"",""5"",""18783""
","
","
","""event"",""trial"",""time""
""fullscreenenter"",""5"",""18783""
","
",null,audio/quiz/Q1_Correct.wav,null,NA,NA,NA,NA,NA,NA,NA,NA,NA,NA,NA,NA,NA,NA,NA,NA,NA,NA,NA,sub53
instructions-quiz,130,647266,0.0-71.0,TRUE,FALSE,TRUE,TRUE,"""event"",""trial"",""time""
""fullscreenenter"",""5"",""18783""
","
","
","""event"",""trial"",""time""
""fullscreenenter"",""5"",""18783""
","
",8896.034999983385,audio/quiz/Q2_Prompt.wav,NA,0,NA,NA,NA,NA,NA,NA,NA,NA,NA,NA,NA,NA,NA,NA,NA,NA,NA,NA,sub53
audio-keyboard-response,131,660137,0.0-72.0,TRUE,FALSE,TRUE,TRUE,"""event"",""trial"",""time""
""fullscreenenter"",""5"",""18783""
","
","
","""event"",""trial"",""time""
""fullscreenenter"",""5"",""18783""
","
",null,audio/quiz/Q2_Correct.wav,null,NA,NA,NA,NA,NA,NA,NA,NA,NA,NA,NA,NA,NA,NA,NA,NA,NA,NA,NA,sub53
instructions-quiz,132,664813,0.0-73.0,TRUE,FALSE,TRUE,TRUE,"""event"",""trial"",""time""
""fullscreenenter"",""5"",""18783""
","
","
","""event"",""trial"",""time""
""fullscreenenter"",""5"",""18783""
","
",4673.69000002509,audio/quiz/Q3_Prompt.wav,NA,1,NA,NA,NA,NA,NA,NA,NA,NA,NA,NA,NA,NA,NA,NA,NA,NA,NA,NA,sub53
audio-keyboard-response,133,670608,0.0-74.0,TRUE,FALSE,TRUE,TRUE,"""event"",""trial"",""time""
""fullscreenenter"",""5"",""18783""
","
","
","""event"",""trial"",""time""
""fullscreenenter"",""5"",""18783""
","
",null,audio/quiz/Q3_Correct.wav,null,NA,NA,NA,NA,NA,NA,NA,NA,NA,NA,NA,NA,NA,NA,NA,NA,NA,NA,NA,sub53
d3-instructions,134,685081,0.0-75.0,TRUE,FALSE,TRUE,TRUE,"""event"",""trial"",""time""
""fullscreenenter"",""5"",""18783""
","
","
","""event"",""trial"",""time""
""fullscreenenter"",""5"",""18783""
","
",NA,NA,NA,NA,NA,NA,NA,NA,NA,NA,NA,NA,NA,NA,NA,NA,NA,NA,NA,NA,NA,NA,sub53
d3-animate-choice,135,688368,0.0-76.0-0.0,TRUE,FALSE,TRUE,TRUE,"""event"",""trial"",""time""
""fullscreenenter"",""5"",""18783""
","
","
","""event"",""trial"",""time""
""fullscreenenter"",""5"",""18783""
","
",608.7599999736995,NA,45,NA,NA,3000,1,"818.4400000027381,1279.4899999862537",4548,images/earth.jpg,images/rocket2,images/rocket1,null,images/rocket2,NA,1,real,null,NA,NA,NA,NA,sub53
d3-animate-choice,136,691463,0.0-76.0-1.0,TRUE,FALSE,TRUE,TRUE,"""event"",""trial"",""time""
""fullscreenenter"",""5"",""18783""
","
","
","""event"",""trial"",""time""
""fullscreenenter"",""5"",""18783""
","
",1090.2350000105798,NA,48,NA,NA,3000,1,NA,NA,images/redplanet1.jpg,images/alien2,images/alien1,images/rocket2,images/alien2,images/nothing.png,2,real,true,2,common,0,2020-06-14T14:47:23Z,sub53
two-step-fixation,137,692468,0.0-76.0-2.0,TRUE,FALSE,TRUE,TRUE,"""event"",""trial"",""time""
""fullscreenenter"",""5"",""18783""
","
","
","""event"",""trial"",""time""
""fullscreenenter"",""5"",""18783""
","
",NA,images/earth.jpg,NA,NA,NA,NA,NA,NA,NA,NA,NA,NA,NA,NA,NA,fixation,NA,NA,NA,NA,NA,NA,sub53
d3-animate-choice,138,694935,0.0-76.0-0.1,TRUE,FALSE,TRUE,TRUE,"""event"",""trial"",""time""
""fullscreenenter"",""5"",""18783""
","
","
","""event"",""trial"",""time""
""fullscreenenter"",""5"",""18783""
","
",459.72000004258007,NA,48,NA,NA,3000,1,NA,NA,images/earth.jpg,images/rocket2,images/rocket1,null,images/rocket2,NA,1,real,null,2,NA,NA,NA,sub53
d3-animate-choice,139,697357,0.0-76.0-1.1,TRUE,FALSE,TRUE,TRUE,"""event"",""trial"",""time""
""fullscreenenter"",""5"",""18783""
","
","
","""event"",""trial"",""time""
""fullscreenenter"",""5"",""18783""
","
",415.24500004015863,NA,49,NA,NA,3000,1,NA,NA,images/redplanet1.jpg,images/alien2,images/alien1,images/rocket2,images/alien1,images/nothing.png,2,real,true,1,common,0,2020-06-14T14:47:29Z,sub53
two-step-fixation,140,698363,0.0-76.0-2.1,TRUE,FALSE,TRUE,TRUE,"""event"",""trial"",""time""
""fullscreenenter"",""5"",""18783""
","
","
","""event"",""trial"",""time""
""fullscreenenter"",""5"",""18783""
","
",NA,images/earth.jpg,NA,NA,NA,NA,NA,NA,NA,NA,NA,NA,NA,NA,NA,fixation,NA,NA,NA,NA,NA,NA,sub53
d3-animate-choice,141,700704,0.0-76.0-0.2,TRUE,FALSE,TRUE,TRUE,"""event"",""trial"",""time""
""fullscreenenter"",""5"",""18783""
","
","
","""event"",""trial"",""time""
""fullscreenenter"",""5"",""18783""
","
",334.7500000381842,NA,49,NA,NA,3000,1,NA,NA,images/earth.jpg,images/rocket2,images/rocket1,null,images/rocket1,NA,1,real,null,1,NA,NA,NA,sub53
d3-animate-choice,142,704156,0.0-76.0-1.2,TRUE,FALSE,TRUE,TRUE,"""event"",""trial"",""time""
""fullscreenenter"",""5"",""18783""
","
","
","""event"",""trial"",""time""
""fullscreenenter"",""5"",""18783""
","
",1442.7949999808334,NA,49,NA,NA,3000,1,NA,NA,images/redplanet1.jpg,images/alien2,images/alien1,images/rocket1,images/alien1,images/nothing.png,2,real,false,1,rare,0,2020-06-14T14:47:35Z,sub53
two-step-fixation,143,705162,0.0-76.0-2.2,TRUE,FALSE,TRUE,TRUE,"""event"",""trial"",""time""
""fullscreenenter"",""5"",""18783""
","
","
","""event"",""trial"",""time""
""fullscreenenter"",""5"",""18783""
","
",NA,images/earth.jpg,NA,NA,NA,NA,NA,NA,NA,NA,NA,NA,NA,NA,NA,fixation,NA,NA,NA,NA,NA,NA,sub53
d3-animate-choice,144,707463,0.0-76.0-0.3,TRUE,FALSE,TRUE,TRUE,"""event"",""trial"",""time""
""fullscreenenter"",""5"",""18783""
","
","
","""event"",""trial"",""time""
""fullscreenenter"",""5"",""18783""
","
",294.7149999672547,NA,49,NA,NA,3000,1,NA,NA,images/earth.jpg,images/rocket2,images/rocket1,null,images/rocket1,NA,1,real,null,1,NA,NA,NA,sub53
d3-animate-choice,145,710346,0.0-76.0-1.3,TRUE,FALSE,TRUE,TRUE,"""event"",""trial"",""time""
""fullscreenenter"",""5"",""18783""
","
","
","""event"",""trial"",""time""
""fullscreenenter"",""5"",""18783""
","
",860.2100000134669,NA,49,NA,NA,3000,1,NA,NA,images/purpleplanet.jpg,images/alien4,images/alien3,images/rocket1,images/alien3,images/t.png,2,real,true,1,common,1,2020-06-14T14:47:42Z,sub53
two-step-fixation,146,711367,0.0-76.0-2.3,TRUE,FALSE,TRUE,TRUE,"""event"",""trial"",""time""
""fullscreenenter"",""5"",""18783""
","
","
","""event"",""trial"",""time""
""fullscreenenter"",""5"",""18783""
","
",NA,images/earth.jpg,NA,NA,NA,NA,NA,NA,NA,NA,NA,NA,NA,NA,NA,fixation,NA,NA,NA,NA,NA,NA,sub53
d3-animate-choice,147,713617,0.0-76.0-0.4,TRUE,FALSE,TRUE,TRUE,"""event"",""trial"",""time""
""fullscreenenter"",""5"",""18783""
","
","
","""event"",""trial"",""time""
""fullscreenenter"",""5"",""18783""
","
",226.35999997146428,NA,49,NA,NA,3000,1,NA,NA,images/earth.jpg,images/rocket2,images/rocket1,null,images/rocket1,NA,1,real,null,1,NA,NA,NA,sub53
d3-animate-choice,148,715890,0.0-76.0-1.4,TRUE,FALSE,TRUE,TRUE,"""event"",""trial"",""time""
""fullscreenenter"",""5"",""18783""
","
","
","""event"",""trial"",""time""
""fullscreenenter"",""5"",""18783""
","
",266.2949999794364,NA,48,NA,NA,3000,1,NA,NA,images/purpleplanet.jpg,images/alien4,images/alien3,images/rocket1,images/alien4,images/nothing.png,2,real,true,2,common,0,2020-06-14T14:47:47Z,sub53
two-step-fixation,149,716893,0.0-76.0-2.4,TRUE,FALSE,TRUE,TRUE,"""event"",""trial"",""time""
""fullscreenenter"",""5"",""18783""
","
","
","""event"",""trial"",""time""
""fullscreenenter"",""5"",""18783""
","
",NA,images/earth.jpg,NA,NA,NA,NA,NA,NA,NA,NA,NA,NA,NA,NA,NA,fixation,NA,NA,NA,NA,NA,NA,sub53
d3-animate-choice,150,719008,0.0-76.0-0.5,TRUE,FALSE,TRUE,TRUE,"""event"",""trial"",""time""
""fullscreenenter"",""5"",""18783""
","
","
","""event"",""trial"",""time""
""fullscreenenter"",""5"",""18783""
","
",110.39499996695668,NA,49,NA,NA,3000,1,NA,NA,images/earth.jpg,images/rocket2,images/rocket1,null,images/rocket1,NA,1,real,null,1,NA,NA,NA,sub53
d3-animate-choice,151,721274,0.0-76.0-1.5,TRUE,FALSE,TRUE,TRUE,"""event"",""trial"",""time""
""fullscreenenter"",""5"",""18783""
","
","
","""event"",""trial"",""time""
""fullscreenenter"",""5"",""18783""
","
",259.3749999650754,NA,49,NA,NA,3000,1,NA,NA,images/redplanet1.jpg,images/alien2,images/alien1,images/rocket1,images/alien1,images/t.png,2,real,false,1,rare,1,2020-06-14T14:47:53Z,sub53
two-step-fixation,152,722280,0.0-76.0-2.5,TRUE,FALSE,TRUE,TRUE,"""event"",""trial"",""time""
""fullscreenenter"",""5"",""18783""
","
","
","""event"",""trial"",""time""
""fullscreenenter"",""5"",""18783""
","
",NA,images/earth.jpg,NA,NA,NA,NA,NA,NA,NA,NA,NA,NA,NA,NA,NA,fixation,NA,NA,NA,NA,NA,NA,sub53
d3-animate-choice,153,724667,0.0-76.0-0.6,TRUE,FALSE,TRUE,TRUE,"""event"",""trial"",""time""
""fullscreenenter"",""5"",""18783""
","
","
","""event"",""trial"",""time""
""fullscreenenter"",""5"",""18783""
","
",380.0850000116043,NA,49,NA,NA,3000,1,NA,NA,images/earth.jpg,images/rocket2,images/rocket1,null,images/rocket1,NA,1,real,null,1,NA,NA,NA,sub53
d3-animate-choice,154,727045,0.0-76.0-1.6,TRUE,FALSE,TRUE,TRUE,"""event"",""trial"",""time""
""fullscreenenter"",""5"",""18783""
","
","
","""event"",""trial"",""time""
""fullscreenenter"",""5"",""18783""
","
",370.17999996896833,NA,49,NA,NA,3000,1,NA,NA,images/purpleplanet.jpg,images/alien4,images/alien3,images/rocket1,images/alien3,images/t.png,2,real,true,1,common,1,2020-06-14T14:47:58Z,sub53
two-step-fixation,155,728051,0.0-76.0-2.6,TRUE,FALSE,TRUE,TRUE,"""event"",""trial"",""time""
""fullscreenenter"",""5"",""18783""
","
","
","""event"",""trial"",""time""
""fullscreenenter"",""5"",""18783""
","
",NA,images/earth.jpg,NA,NA,NA,NA,NA,NA,NA,NA,NA,NA,NA,NA,NA,fixation,NA,NA,NA,NA,NA,NA,sub53
d3-animate-choice,156,730437,0.0-76.0-0.7,TRUE,FALSE,TRUE,TRUE,"""event"",""trial"",""time""
""fullscreenenter"",""5"",""18783""
","
","
","""event"",""trial"",""time""
""fullscreenenter"",""5"",""18783""
","
",378.78000002820045,NA,49,NA,NA,3000,1,NA,NA,images/earth.jpg,images/rocket2,images/rocket1,null,images/rocket1,NA,1,real,null,1,NA,NA,NA,sub53
d3-animate-choice,157,732915,0.0-76.0-1.7,TRUE,FALSE,TRUE,TRUE,"""event"",""trial"",""time""
""fullscreenenter"",""5"",""18783""
","
","
","""event"",""trial"",""time""
""fullscreenenter"",""5"",""18783""
","
",471.4549999916926,NA,49,NA,NA,3000,1,NA,NA,images/purpleplanet.jpg,images/alien4,images/alien3,images/rocket1,images/alien3,images/nothing.png,2,real,true,1,common,0,2020-06-14T14:48:04Z,sub53
two-step-fixation,158,733919,0.0-76.0-2.7,TRUE,FALSE,TRUE,TRUE,"""event"",""trial"",""time""
""fullscreenenter"",""5"",""18783""
","
","
","""event"",""trial"",""time""
""fullscreenenter"",""5"",""18783""
","
",NA,images/earth.jpg,NA,NA,NA,NA,NA,NA,NA,NA,NA,NA,NA,NA,NA,fixation,NA,NA,NA,NA,NA,NA,sub53
d3-animate-choice,159,736217,0.0-76.0-0.8,TRUE,FALSE,TRUE,TRUE,"""event"",""trial"",""time""
""fullscreenenter"",""5"",""18783""
","
","
","""event"",""trial"",""time""
""fullscreenenter"",""5"",""18783""
","
",291.5250000078231,NA,49,NA,NA,3000,1,NA,NA,images/earth.jpg,images/rocket2,images/rocket1,null,images/rocket1,NA,1,real,null,1,NA,NA,NA,sub53
d3-animate-choice,160,739285,0.0-76.0-1.8,TRUE,FALSE,TRUE,TRUE,"""event"",""trial"",""time""
""fullscreenenter"",""5"",""18783""
","
","
","""event"",""trial"",""time""
""fullscreenenter"",""5"",""18783""
","
",1061.8799999938346,NA,48,NA,NA,3000,1,NA,NA,images/redplanet1.jpg,images/alien2,images/alien1,images/rocket1,images/alien2,images/nothing.png,2,real,false,2,rare,0,2020-06-14T14:48:11Z,sub53
two-step-fixation,161,740292,0.0-76.0-2.8,TRUE,FALSE,TRUE,TRUE,"""event"",""trial"",""time""
""fullscreenenter"",""5"",""18783""
","
","
","""event"",""trial"",""time""
""fullscreenenter"",""5"",""18783""
","
",NA,images/earth.jpg,NA,NA,NA,NA,NA,NA,NA,NA,NA,NA,NA,NA,NA,fixation,NA,NA,NA,NA,NA,NA,sub53
d3-animate-choice,162,742677,0.0-76.0-0.9,TRUE,FALSE,TRUE,TRUE,"""event"",""trial"",""time""
""fullscreenenter"",""5"",""18783""
","
","
","""event"",""trial"",""time""
""fullscreenenter"",""5"",""18783""
","
",378.2750000245869,NA,49,NA,NA,3000,1,NA,NA,images/earth.jpg,images/rocket2,images/rocket1,null,images/rocket1,NA,1,real,null,1,NA,NA,NA,sub53
d3-animate-choice,163,744956,0.0-76.0-1.9,TRUE,FALSE,TRUE,TRUE,"""event"",""trial"",""time""
""fullscreenenter"",""5"",""18783""
","
","
","""event"",""trial"",""time""
""fullscreenenter"",""5"",""18783""
","
",270.89499996509403,NA,49,NA,NA,3000,1,NA,NA,images/purpleplanet.jpg,images/alien4,images/alien3,images/rocket1,images/alien3,images/nothing.png,2,real,true,1,common,0,2020-06-14T14:48:16Z,sub53
two-step-fixation,164,745961,0.0-76.0-2.9,TRUE,FALSE,TRUE,TRUE,"""event"",""trial"",""time""
""fullscreenenter"",""5"",""18783""
","
","
","""event"",""trial"",""time""
""fullscreenenter"",""5"",""18783""
","
",NA,images/earth.jpg,NA,NA,NA,NA,NA,NA,NA,NA,NA,NA,NA,NA,NA,fixation,NA,NA,NA,NA,NA,NA,sub53
d3-animate-choice,165,748284,0.0-76.0-0.10,TRUE,FALSE,TRUE,TRUE,"""event"",""trial"",""time""
""fullscreenenter"",""5"",""18783""
","
","
","""event"",""trial"",""time""
""fullscreenenter"",""5"",""18783""
","
",315.61000004876405,NA,49,NA,NA,3000,1,NA,NA,images/earth.jpg,images/rocket2,images/rocket1,null,images/rocket1,NA,1,real,null,1,NA,NA,NA,sub53
d3-animate-choice,166,750546,0.0-76.0-1.10,TRUE,FALSE,TRUE,TRUE,"""event"",""trial"",""time""
""fullscreenenter"",""5"",""18783""
","
","
","""event"",""trial"",""time""
""fullscreenenter"",""5"",""18783""
","
",257.56499997805804,NA,48,NA,NA,3000,1,NA,NA,images/purpleplanet.jpg,images/alien4,images/alien3,images/rocket1,images/alien4,images/t.png,2,real,true,2,common,1,2020-06-14T14:48:22Z,sub53
two-step-fixation,167,751551,0.0-76.0-2.10,TRUE,FALSE,TRUE,TRUE,"""event"",""trial"",""time""
""fullscreenenter"",""5"",""18783""
","
","
","""event"",""trial"",""time""
""fullscreenenter"",""5"",""18783""
","
",NA,images/earth.jpg,NA,NA,NA,NA,NA,NA,NA,NA,NA,NA,NA,NA,NA,fixation,NA,NA,NA,NA,NA,NA,sub53
d3-animate-choice,168,753874,0.0-76.0-0.11,TRUE,FALSE,TRUE,TRUE,"""event"",""trial"",""time""
""fullscreenenter"",""5"",""18783""
","
","
","""event"",""trial"",""time""
""fullscreenenter"",""5"",""18783""
","
",316.5850000223145,NA,49,NA,NA,3000,1,NA,NA,images/earth.jpg,images/rocket2,images/rocket1,null,images/rocket1,NA,1,real,null,1,NA,NA,NA,sub53
d3-animate-choice,169,756203,0.0-76.0-1.11,TRUE,FALSE,TRUE,TRUE,"""event"",""trial"",""time""
""fullscreenenter"",""5"",""18783""
","
","
","""event"",""trial"",""time""
""fullscreenenter"",""5"",""18783""
","
",321.5349999954924,NA,48,NA,NA,3000,1,NA,NA,images/purpleplanet.jpg,images/alien4,images/alien3,images/rocket1,images/alien4,images/t.png,2,real,true,2,common,1,2020-06-14T14:48:27Z,sub53
two-step-fixation,170,757209,0.0-76.0-2.11,TRUE,FALSE,TRUE,TRUE,"""event"",""trial"",""time""
""fullscreenenter"",""5"",""18783""
","
","
","""event"",""trial"",""time""
""fullscreenenter"",""5"",""18783""
","
",NA,images/earth.jpg,NA,NA,NA,NA,NA,NA,NA,NA,NA,NA,NA,NA,NA,fixation,NA,NA,NA,NA,NA,NA,sub53
d3-animate-choice,171,759538,0.0-76.0-0.12,TRUE,FALSE,TRUE,TRUE,"""event"",""trial"",""time""
""fullscreenenter"",""5"",""18783""
","
","
","""event"",""trial"",""time""
""fullscreenenter"",""5"",""18783""
","
",322.75499997194856,NA,49,NA,NA,3000,1,NA,NA,images/earth.jpg,images/rocket2,images/rocket1,null,images/rocket1,NA,1,real,null,1,NA,NA,NA,sub53
d3-animate-choice,172,762815,0.0-76.0-1.12,TRUE,FALSE,TRUE,TRUE,"""event"",""trial"",""time""
""fullscreenenter"",""5"",""18783""
","
","
","""event"",""trial"",""time""
""fullscreenenter"",""5"",""18783""
","
",1270.6449999823235,NA,49,NA,NA,3000,1,NA,NA,images/redplanet1.jpg,images/alien2,images/alien1,images/rocket1,images/alien1,images/t.png,2,real,false,1,rare,1,2020-06-14T14:48:34Z,sub53
two-step-fixation,173,763822,0.0-76.0-2.12,TRUE,FALSE,TRUE,TRUE,"""event"",""trial"",""time""
""fullscreenenter"",""5"",""18783""
","
","
","""event"",""trial"",""time""
""fullscreenenter"",""5"",""18783""
","
",NA,images/earth.jpg,NA,NA,NA,NA,NA,NA,NA,NA,NA,NA,NA,NA,NA,fixation,NA,NA,NA,NA,NA,NA,sub53
d3-animate-choice,174,766181,0.0-76.0-0.13,TRUE,FALSE,TRUE,TRUE,"""event"",""trial"",""time""
""fullscreenenter"",""5"",""18783""
","
","
","""event"",""trial"",""time""
""fullscreenenter"",""5"",""18783""
","
",352.370000036899,NA,48,NA,NA,3000,1,NA,NA,images/earth.jpg,images/rocket2,images/rocket1,null,images/rocket2,NA,1,real,null,2,NA,NA,NA,sub53
d3-animate-choice,175,769011,0.0-76.0-1.13,TRUE,FALSE,TRUE,TRUE,"""event"",""trial"",""time""
""fullscreenenter"",""5"",""18783""
","
","
","""event"",""trial"",""time""
""fullscreenenter"",""5"",""18783""
","
",823.984999966342,NA,49,NA,NA,3000,1,NA,NA,images/redplanet1.jpg,images/alien2,images/alien1,images/rocket2,images/alien1,images/nothing.png,2,real,true,1,common,0,2020-06-14T14:48:40Z,sub53
two-step-fixation,176,770018,0.0-76.0-2.13,TRUE,FALSE,TRUE,TRUE,"""event"",""trial"",""time""
""fullscreenenter"",""5"",""18783""
","
","
","""event"",""trial"",""time""
""fullscreenenter"",""5"",""18783""
","
",NA,images/earth.jpg,NA,NA,NA,NA,NA,NA,NA,NA,NA,NA,NA,NA,NA,fixation,NA,NA,NA,NA,NA,NA,sub53
d3-animate-choice,177,772310,0.0-76.0-0.14,TRUE,FALSE,TRUE,TRUE,"""event"",""trial"",""time""
""fullscreenenter"",""5"",""18783""
","
","
","""event"",""trial"",""time""
""fullscreenenter"",""5"",""18783""
","
",286.2549999845214,NA,49,NA,NA,3000,1,NA,NA,images/earth.jpg,images/rocket2,images/rocket1,null,images/rocket1,NA,1,real,null,1,NA,NA,NA,sub53
d3-animate-choice,178,774612,0.0-76.0-1.14,TRUE,FALSE,TRUE,TRUE,"""event"",""trial"",""time""
""fullscreenenter"",""5"",""18783""
","
","
","""event"",""trial"",""time""
""fullscreenenter"",""5"",""18783""
","
",294.25999999511987,NA,48,NA,NA,3000,1,NA,NA,images/purpleplanet.jpg,images/alien4,images/alien3,images/rocket1,images/alien4,images/t.png,2,real,true,2,common,1,2020-06-14T14:48:46Z,sub53
two-step-fixation,179,775617,0.0-76.0-2.14,TRUE,FALSE,TRUE,TRUE,"""event"",""trial"",""time""
""fullscreenenter"",""5"",""18783""
","
","
","""event"",""trial"",""time""
""fullscreenenter"",""5"",""18783""
","
",NA,images/earth.jpg,NA,NA,NA,NA,NA,NA,NA,NA,NA,NA,NA,NA,NA,fixation,NA,NA,NA,NA,NA,NA,sub53
d3-animate-choice,180,777832,0.0-76.0-0.15,TRUE,FALSE,TRUE,TRUE,"""event"",""trial"",""time""
""fullscreenenter"",""5"",""18783""
","
","
","""event"",""trial"",""time""
""fullscreenenter"",""5"",""18783""
","
",209.70999996643513,NA,49,NA,NA,3000,1,NA,NA,images/earth.jpg,images/rocket2,images/rocket1,null,images/rocket1,NA,1,real,null,1,NA,NA,NA,sub53
d3-animate-choice,181,781225,0.0-76.0-1.15,TRUE,FALSE,TRUE,TRUE,"""event"",""trial"",""time""
""fullscreenenter"",""5"",""18783""
","
","
","""event"",""trial"",""time""
""fullscreenenter"",""5"",""18783""
","
",1386.2150000059046,NA,49,NA,NA,3000,1,NA,NA,images/redplanet1.jpg,images/alien2,images/alien1,images/rocket1,images/alien1,images/nothing.png,2,real,false,1,rare,0,2020-06-14T14:48:52Z,sub53
two-step-fixation,182,782231,0.0-76.0-2.15,TRUE,FALSE,TRUE,TRUE,"""event"",""trial"",""time""
""fullscreenenter"",""5"",""18783""
","
","
","""event"",""trial"",""time""
""fullscreenenter"",""5"",""18783""
","
",NA,images/earth.jpg,NA,NA,NA,NA,NA,NA,NA,NA,NA,NA,NA,NA,NA,fixation,NA,NA,NA,NA,NA,NA,sub53
d3-animate-choice,183,784572,0.0-76.0-0.16,TRUE,FALSE,TRUE,TRUE,"""event"",""trial"",""time""
""fullscreenenter"",""5"",""18783""
","
","
","""event"",""trial"",""time""
""fullscreenenter"",""5"",""18783""
","
",334.7850000136532,NA,49,NA,NA,3000,1,NA,NA,images/earth.jpg,images/rocket2,images/rocket1,null,images/rocket1,NA,1,real,null,1,NA,NA,NA,sub53
d3-animate-choice,184,786979,0.0-76.0-1.16,TRUE,FALSE,TRUE,TRUE,"""event"",""trial"",""time""
""fullscreenenter"",""5"",""18783""
","
","
","""event"",""trial"",""time""
""fullscreenenter"",""5"",""18783""
","
",401.07999998144805,NA,48,NA,NA,3000,1,NA,NA,images/purpleplanet.jpg,images/alien4,images/alien3,images/rocket1,images/alien4,images/t.png,2,real,true,2,common,1,2020-06-14T14:48:58Z,sub53
two-step-fixation,185,787984,0.0-76.0-2.16,TRUE,FALSE,TRUE,TRUE,"""event"",""trial"",""time""
""fullscreenenter"",""5"",""18783""
","
","
","""event"",""trial"",""time""
""fullscreenenter"",""5"",""18783""
","
",NA,images/earth.jpg,NA,NA,NA,NA,NA,NA,NA,NA,NA,NA,NA,NA,NA,fixation,NA,NA,NA,NA,NA,NA,sub53
d3-animate-choice,186,790316,0.0-76.0-0.17,TRUE,FALSE,TRUE,TRUE,"""event"",""trial"",""time""
""fullscreenenter"",""5"",""18783""
","
","
","""event"",""trial"",""time""
""fullscreenenter"",""5"",""18783""
","
",326.30000001518056,NA,49,NA,NA,3000,1,NA,NA,images/earth.jpg,images/rocket2,images/rocket1,null,images/rocket1,NA,1,real,null,1,NA,NA,NA,sub53
d3-animate-choice,187,792773,0.0-76.0-1.17,TRUE,FALSE,TRUE,TRUE,"""event"",""trial"",""time""
""fullscreenenter"",""5"",""18783""
","
","
","""event"",""trial"",""time""
""fullscreenenter"",""5"",""18783""
","
",450.13499999186024,NA,48,NA,NA,3000,1,NA,NA,images/purpleplanet.jpg,images/alien4,images/alien3,images/rocket1,images/alien4,images/t.png,2,real,true,2,common,1,2020-06-14T14:49:04Z,sub53
two-step-fixation,188,793780,0.0-76.0-2.17,TRUE,FALSE,TRUE,TRUE,"""event"",""trial"",""time""
""fullscreenenter"",""5"",""18783""
","
","
","""event"",""trial"",""time""
""fullscreenenter"",""5"",""18783""
","
",NA,images/earth.jpg,NA,NA,NA,NA,NA,NA,NA,NA,NA,NA,NA,NA,NA,fixation,NA,NA,NA,NA,NA,NA,sub53
d3-animate-choice,189,796312,0.0-76.0-0.18,TRUE,FALSE,TRUE,TRUE,"""event"",""trial"",""time""
""fullscreenenter"",""5"",""18783""
","
","
","""event"",""trial"",""time""
""fullscreenenter"",""5"",""18783""
","
",525.4950000089593,NA,49,NA,NA,3000,1,NA,NA,images/earth.jpg,images/rocket2,images/rocket1,null,images/rocket1,NA,1,real,null,1,NA,NA,NA,sub53
d3-animate-choice,190,798662,0.0-76.0-1.18,TRUE,FALSE,TRUE,TRUE,"""event"",""trial"",""time""
""fullscreenenter"",""5"",""18783""
","
","
","""event"",""trial"",""time""
""fullscreenenter"",""5"",""18783""
","
",344.3750000442378,NA,48,NA,NA,3000,1,NA,NA,images/purpleplanet.jpg,images/alien4,images/alien3,images/rocket1,images/alien4,images/t.png,2,real,true,2,common,1,2020-06-14T14:49:10Z,sub53
two-step-fixation,191,799667,0.0-76.0-2.18,TRUE,FALSE,TRUE,TRUE,"""event"",""trial"",""time""
""fullscreenenter"",""5"",""18783""
","
","
","""event"",""trial"",""time""
""fullscreenenter"",""5"",""18783""
","
",NA,images/earth.jpg,NA,NA,NA,NA,NA,NA,NA,NA,NA,NA,NA,NA,NA,fixation,NA,NA,NA,NA,NA,NA,sub53
d3-animate-choice,192,801813,0.0-76.0-0.19,TRUE,FALSE,TRUE,TRUE,"""event"",""trial"",""time""
""fullscreenenter"",""5"",""18783""
","
","
","""event"",""trial"",""time""
""fullscreenenter"",""5"",""18783""
","
",139.12499998696148,NA,49,NA,NA,3000,1,698.2999999891035,49,images/earth.jpg,images/rocket2,images/rocket1,null,images/rocket1,NA,1,real,null,1,NA,NA,NA,sub53
d3-animate-choice,193,804401,0.0-76.0-1.19,TRUE,FALSE,TRUE,TRUE,"""event"",""trial"",""time""
""fullscreenenter"",""5"",""18783""
","
","
","""event"",""trial"",""time""
""fullscreenenter"",""5"",""18783""
","
",581.8450000369921,NA,48,NA,NA,3000,1,NA,NA,images/purpleplanet.jpg,images/alien4,images/alien3,images/rocket1,images/alien4,images/nothing.png,2,real,true,2,common,0,2020-06-14T14:49:16Z,sub53
two-step-fixation,194,805407,0.0-76.0-2.19,TRUE,FALSE,TRUE,TRUE,"""event"",""trial"",""time""
""fullscreenenter"",""5"",""18783""
","
","
","""event"",""trial"",""time""
""fullscreenenter"",""5"",""18783""
","
",NA,images/earth.jpg,NA,NA,NA,NA,NA,NA,NA,NA,NA,NA,NA,NA,NA,fixation,NA,NA,NA,NA,NA,NA,sub53
d3-animate-choice,195,807729,0.0-76.0-0.20,TRUE,FALSE,TRUE,TRUE,"""event"",""trial"",""time""
""fullscreenenter"",""5"",""18783""
","
","
","""event"",""trial"",""time""
""fullscreenenter"",""5"",""18783""
","
",317.73499998962507,NA,49,NA,NA,3000,1,NA,NA,images/earth.jpg,images/rocket2,images/rocket1,null,images/rocket1,NA,1,real,null,1,NA,NA,NA,sub53
d3-animate-choice,196,810019,0.0-76.0-1.20,TRUE,FALSE,TRUE,TRUE,"""event"",""trial"",""time""
""fullscreenenter"",""5"",""18783""
","
","
","""event"",""trial"",""time""
""fullscreenenter"",""5"",""18783""
","
",283.0499999690801,NA,48,NA,NA,3000,1,NA,NA,images/redplanet1.jpg,images/alien2,images/alien1,images/rocket1,images/alien2,images/nothing.png,2,real,false,2,rare,0,2020-06-14T14:49:21Z,sub53
two-step-fixation,197,811025,0.0-76.0-2.20,TRUE,FALSE,TRUE,TRUE,"""event"",""trial"",""time""
""fullscreenenter"",""5"",""18783""
","
","
","""event"",""trial"",""time""
""fullscreenenter"",""5"",""18783""
","
",NA,images/earth.jpg,NA,NA,NA,NA,NA,NA,NA,NA,NA,NA,NA,NA,NA,fixation,NA,NA,NA,NA,NA,NA,sub53
d3-animate-choice,198,813419,0.0-76.0-0.21,TRUE,FALSE,TRUE,TRUE,"""event"",""trial"",""time""
""fullscreenenter"",""5"",""18783""
","
","
","""event"",""trial"",""time""
""fullscreenenter"",""5"",""18783""
","
",388.26000003609806,NA,49,NA,NA,3000,1,NA,NA,images/earth.jpg,images/rocket2,images/rocket1,null,images/rocket1,NA,1,real,null,1,NA,NA,NA,sub53
d3-animate-choice,199,816146,0.0-76.0-1.21,TRUE,FALSE,TRUE,TRUE,"""event"",""trial"",""time""
""fullscreenenter"",""5"",""18783""
","
","
","""event"",""trial"",""time""
""fullscreenenter"",""5"",""18783""
","
",720.9499999880791,NA,49,NA,NA,3000,1,2405.139999988023,49,images/redplanet1.jpg,images/alien2,images/alien1,images/rocket1,images/alien1,images/t.png,2,real,false,1,rare,1,2020-06-14T14:49:27Z,sub53
two-step-fixation,200,817154,0.0-76.0-2.21,TRUE,FALSE,TRUE,TRUE,"""event"",""trial"",""time""
""fullscreenenter"",""5"",""18783""
","
","
","""event"",""trial"",""time""
""fullscreenenter"",""5"",""18783""
","
",NA,images/earth.jpg,NA,NA,NA,NA,NA,NA,NA,NA,NA,NA,NA,NA,NA,fixation,NA,NA,NA,NA,NA,NA,sub53
d3-animate-choice,201,819518,0.0-76.0-0.22,TRUE,FALSE,TRUE,TRUE,"""event"",""trial"",""time""
""fullscreenenter"",""5"",""18783""
","
","
","""event"",""trial"",""time""
""fullscreenenter"",""5"",""18783""
","
",358.40500000631437,NA,49,NA,NA,3000,1,NA,NA,images/earth.jpg,images/rocket2,images/rocket1,null,images/rocket1,NA,1,real,null,1,NA,NA,NA,sub53
d3-animate-choice,202,822775,0.0-76.0-1.22,TRUE,FALSE,TRUE,TRUE,"""event"",""trial"",""time""
""fullscreenenter"",""5"",""18783""
","
","
","""event"",""trial"",""time""
""fullscreenenter"",""5"",""18783""
","
",1250.6850000354461,NA,48,NA,NA,3000,1,NA,NA,images/purpleplanet.jpg,images/alien4,images/alien3,images/rocket1,images/alien4,images/t.png,2,real,true,2,common,1,2020-06-14T14:49:34Z,sub53
two-step-fixation,203,823779,0.0-76.0-2.22,TRUE,FALSE,TRUE,TRUE,"""event"",""trial"",""time""
""fullscreenenter"",""5"",""18783""
","
","
","""event"",""trial"",""time""
""fullscreenenter"",""5"",""18783""
","
",NA,images/earth.jpg,NA,NA,NA,NA,NA,NA,NA,NA,NA,NA,NA,NA,NA,fixation,NA,NA,NA,NA,NA,NA,sub53
d3-animate-choice,204,826116,0.0-76.0-0.23,TRUE,FALSE,TRUE,TRUE,"""event"",""trial"",""time""
""fullscreenenter"",""5"",""18783""
","
","
","""event"",""trial"",""time""
""fullscreenenter"",""5"",""18783""
","
",332.02000003075227,NA,49,NA,NA,3000,1,NA,NA,images/earth.jpg,images/rocket2,images/rocket1,null,images/rocket1,NA,1,real,null,1,NA,NA,NA,sub53
d3-animate-choice,205,828651,0.0-76.0-1.23,TRUE,FALSE,TRUE,TRUE,"""event"",""trial"",""time""
""fullscreenenter"",""5"",""18783""
","
","
","""event"",""trial"",""time""
""fullscreenenter"",""5"",""18783""
","
",531.1699999729171,NA,49,NA,NA,3000,1,NA,NA,images/purpleplanet.jpg,images/alien4,images/alien3,images/rocket1,images/alien3,images/t.png,2,real,true,1,common,1,2020-06-14T14:49:40Z,sub53
two-step-fixation,206,829658,0.0-76.0-2.23,TRUE,FALSE,TRUE,TRUE,"""event"",""trial"",""time""
""fullscreenenter"",""5"",""18783""
","
","
","""event"",""trial"",""time""
""fullscreenenter"",""5"",""18783""
","
",NA,images/earth.jpg,NA,NA,NA,NA,NA,NA,NA,NA,NA,NA,NA,NA,NA,fixation,NA,NA,NA,NA,NA,NA,sub53
d3-animate-choice,207,832011,0.0-76.0-0.24,TRUE,FALSE,TRUE,TRUE,"""event"",""trial"",""time""
""fullscreenenter"",""5"",""18783""
","
","
","""event"",""trial"",""time""
""fullscreenenter"",""5"",""18783""
","
",345.3950000111945,NA,49,NA,NA,3000,1,NA,NA,images/earth.jpg,images/rocket2,images/rocket1,null,images/rocket1,NA,1,real,null,1,NA,NA,NA,sub53
d3-animate-choice,208,834439,0.0-76.0-1.24,TRUE,FALSE,TRUE,TRUE,"""event"",""trial"",""time""
""fullscreenenter"",""5"",""18783""
","
","
","""event"",""trial"",""time""
""fullscreenenter"",""5"",""18783""
","
",421.4750000392087,NA,48,NA,NA,3000,1,NA,NA,images/purpleplanet.jpg,images/alien4,images/alien3,images/rocket1,images/alien4,images/t.png,2,real,true,2,common,1,2020-06-14T14:49:46Z,sub53
two-step-fixation,209,835444,0.0-76.0-2.24,TRUE,FALSE,TRUE,TRUE,"""event"",""trial"",""time""
""fullscreenenter"",""5"",""18783""
","
","
","""event"",""trial"",""time""
""fullscreenenter"",""5"",""18783""
","
",NA,images/earth.jpg,NA,NA,NA,NA,NA,NA,NA,NA,NA,NA,NA,NA,NA,fixation,NA,NA,NA,NA,NA,NA,sub53
d3-animate-choice,210,837721,0.0-76.0-0.25,TRUE,FALSE,TRUE,TRUE,"""event"",""trial"",""time""
""fullscreenenter"",""5"",""18783""
","
","
","""event"",""trial"",""time""
""fullscreenenter"",""5"",""18783""
","
",269.4599999813363,NA,49,NA,NA,3000,1,NA,NA,images/earth.jpg,images/rocket2,images/rocket1,null,images/rocket1,NA,1,real,null,1,NA,NA,NA,sub53
d3-animate-choice,211,840002,0.0-76.0-1.25,TRUE,FALSE,TRUE,TRUE,"""event"",""trial"",""time""
""fullscreenenter"",""5"",""18783""
","
","
","""event"",""trial"",""time""
""fullscreenenter"",""5"",""18783""
","
",274.3000000482425,NA,49,NA,NA,3000,1,NA,NA,images/purpleplanet.jpg,images/alien4,images/alien3,images/rocket1,images/alien3,images/t.png,2,real,true,1,common,1,2020-06-14T14:49:51Z,sub53
two-step-fixation,212,841005,0.0-76.0-2.25,TRUE,FALSE,TRUE,TRUE,"""event"",""trial"",""time""
""fullscreenenter"",""5"",""18783""
","
","
","""event"",""trial"",""time""
""fullscreenenter"",""5"",""18783""
","
",NA,images/earth.jpg,NA,NA,NA,NA,NA,NA,NA,NA,NA,NA,NA,NA,NA,fixation,NA,NA,NA,NA,NA,NA,sub53
d3-animate-choice,213,843318,0.0-76.0-0.26,TRUE,FALSE,TRUE,TRUE,"""event"",""trial"",""time""
""fullscreenenter"",""5"",""18783""
","
","
","""event"",""trial"",""time""
""fullscreenenter"",""5"",""18783""
","
",308.48500004503876,NA,49,NA,NA,3000,1,NA,NA,images/earth.jpg,images/rocket2,images/rocket1,null,images/rocket1,NA,1,real,null,1,NA,NA,NA,sub53
d3-animate-choice,214,845672,0.0-76.0-1.26,TRUE,FALSE,TRUE,TRUE,"""event"",""trial"",""time""
""fullscreenenter"",""5"",""18783""
","
","
","""event"",""trial"",""time""
""fullscreenenter"",""5"",""18783""
","
",346.5200000209734,NA,48,NA,NA,3000,1,NA,NA,images/purpleplanet.jpg,images/alien4,images/alien3,images/rocket1,images/alien4,images/nothing.png,2,real,true,2,common,0,2020-06-14T14:49:57Z,sub53
two-step-fixation,215,846677,0.0-76.0-2.26,TRUE,FALSE,TRUE,TRUE,"""event"",""trial"",""time""
""fullscreenenter"",""5"",""18783""
","
","
","""event"",""trial"",""time""
""fullscreenenter"",""5"",""18783""
","
",NA,images/earth.jpg,NA,NA,NA,NA,NA,NA,NA,NA,NA,NA,NA,NA,NA,fixation,NA,NA,NA,NA,NA,NA,sub53
d3-animate-choice,216,849001,0.0-76.0-0.27,TRUE,FALSE,TRUE,TRUE,"""event"",""trial"",""time""
""fullscreenenter"",""5"",""18783""
","
","
","""event"",""trial"",""time""
""fullscreenenter"",""5"",""18783""
","
",318.7949999701232,NA,49,NA,NA,3000,1,1737.139999982901,49,images/earth.jpg,images/rocket2,images/rocket1,null,images/rocket1,NA,1,real,null,1,NA,NA,NA,sub53
d3-animate-choice,217,851903,0.0-76.0-1.27,TRUE,FALSE,TRUE,TRUE,"""event"",""trial"",""time""
""fullscreenenter"",""5"",""18783""
","
","
","""event"",""trial"",""time""
""fullscreenenter"",""5"",""18783""
","
",894.9800000409596,NA,49,NA,NA,3000,1,NA,NA,images/redplanet1.jpg,images/alien2,images/alien1,images/rocket1,images/alien1,images/t.png,2,real,false,1,rare,1,2020-06-14T14:50:03Z,sub53
two-step-fixation,218,852908,0.0-76.0-2.27,TRUE,FALSE,TRUE,TRUE,"""event"",""trial"",""time""
""fullscreenenter"",""5"",""18783""
","
","
","""event"",""trial"",""time""
""fullscreenenter"",""5"",""18783""
","
",NA,images/earth.jpg,NA,NA,NA,NA,NA,NA,NA,NA,NA,NA,NA,NA,NA,fixation,NA,NA,NA,NA,NA,NA,sub53
d3-animate-choice,219,855498,0.0-76.0-0.28,TRUE,FALSE,TRUE,TRUE,"""event"",""trial"",""time""
""fullscreenenter"",""5"",""18783""
","
","
","""event"",""trial"",""time""
""fullscreenenter"",""5"",""18783""
","
",583.2699999446049,NA,49,NA,NA,3000,1,NA,NA,images/earth.jpg,images/rocket2,images/rocket1,null,images/rocket1,NA,1,real,null,1,NA,NA,NA,sub53
d3-animate-choice,220,857910,0.0-76.0-1.28,TRUE,FALSE,TRUE,TRUE,"""event"",""trial"",""time""
""fullscreenenter"",""5"",""18783""
","
","
","""event"",""trial"",""time""
""fullscreenenter"",""5"",""18783""
","
",403.16500002518296,NA,49,NA,NA,3000,1,NA,NA,images/purpleplanet.jpg,images/alien4,images/alien3,images/rocket1,images/alien3,images/nothing.png,2,real,true,1,common,0,2020-06-14T14:50:09Z,sub53
two-step-fixation,221,858915,0.0-76.0-2.28,TRUE,FALSE,TRUE,TRUE,"""event"",""trial"",""time""
""fullscreenenter"",""5"",""18783""
","
","
","""event"",""trial"",""time""
""fullscreenenter"",""5"",""18783""
","
",NA,images/earth.jpg,NA,NA,NA,NA,NA,NA,NA,NA,NA,NA,NA,NA,NA,fixation,NA,NA,NA,NA,NA,NA,sub53
d3-animate-choice,222,861182,0.0-76.0-0.29,TRUE,FALSE,TRUE,TRUE,"""event"",""trial"",""time""
""fullscreenenter"",""5"",""18783""
","
","
","""event"",""trial"",""time""
""fullscreenenter"",""5"",""18783""
","
",259.86499997088686,NA,49,NA,NA,3000,1,NA,NA,images/earth.jpg,images/rocket2,images/rocket1,null,images/rocket1,NA,1,real,null,1,NA,NA,NA,sub53
d3-animate-choice,223,863524,0.0-76.0-1.29,TRUE,FALSE,TRUE,TRUE,"""event"",""trial"",""time""
""fullscreenenter"",""5"",""18783""
","
","
","""event"",""trial"",""time""
""fullscreenenter"",""5"",""18783""
","
",336.0349999857135,NA,48,NA,NA,3000,1,NA,NA,images/purpleplanet.jpg,images/alien4,images/alien3,images/rocket1,images/alien4,images/t.png,2,real,true,2,common,1,2020-06-14T14:50:15Z,sub53
two-step-fixation,224,864528,0.0-76.0-2.29,TRUE,FALSE,TRUE,TRUE,"""event"",""trial"",""time""
""fullscreenenter"",""5"",""18783""
","
","
","""event"",""trial"",""time""
""fullscreenenter"",""5"",""18783""
","
",NA,images/earth.jpg,NA,NA,NA,NA,NA,NA,NA,NA,NA,NA,NA,NA,NA,fixation,NA,NA,NA,NA,NA,NA,sub53
d3-animate-choice,225,866898,0.0-76.0-0.30,TRUE,FALSE,TRUE,TRUE,"""event"",""trial"",""time""
""fullscreenenter"",""5"",""18783""
","
","
","""event"",""trial"",""time""
""fullscreenenter"",""5"",""18783""
","
",362.3300000326708,NA,49,NA,NA,3000,1,675.2950000227429,49,images/earth.jpg,images/rocket2,images/rocket1,null,images/rocket1,NA,1,real,null,1,NA,NA,NA,sub53
d3-animate-choice,226,869175,0.0-76.0-1.30,TRUE,FALSE,TRUE,TRUE,"""event"",""trial"",""time""
""fullscreenenter"",""5"",""18783""
","
","
","""event"",""trial"",""time""
""fullscreenenter"",""5"",""18783""
","
",272.46499998727813,NA,48,NA,NA,3000,1,NA,NA,images/purpleplanet.jpg,images/alien4,images/alien3,images/rocket1,images/alien4,images/nothing.png,2,real,true,2,common,0,2020-06-14T14:50:20Z,sub53
two-step-fixation,227,870180,0.0-76.0-2.30,TRUE,FALSE,TRUE,TRUE,"""event"",""trial"",""time""
""fullscreenenter"",""5"",""18783""
","
","
","""event"",""trial"",""time""
""fullscreenenter"",""5"",""18783""
","
",NA,images/earth.jpg,NA,NA,NA,NA,NA,NA,NA,NA,NA,NA,NA,NA,NA,fixation,NA,NA,NA,NA,NA,NA,sub53
d3-animate-choice,228,873378,0.0-76.0-0.31,TRUE,FALSE,TRUE,TRUE,"""event"",""trial"",""time""
""fullscreenenter"",""5"",""18783""
","
","
","""event"",""trial"",""time""
""fullscreenenter"",""5"",""18783""
","
",1193.8450000016019,NA,49,NA,NA,3000,1,2618.14500001492,49,images/earth.jpg,images/rocket2,images/rocket1,null,images/rocket1,NA,1,real,null,1,NA,NA,NA,sub53
d3-animate-choice,229,876583,0.0-76.0-1.31,TRUE,FALSE,TRUE,TRUE,"""event"",""trial"",""time""
""fullscreenenter"",""5"",""18783""
","
","
","""event"",""trial"",""time""
""fullscreenenter"",""5"",""18783""
","
",1196.799999976065,NA,49,NA,NA,3000,1,NA,NA,images/redplanet1.jpg,images/alien2,images/alien1,images/rocket1,images/alien1,images/nothing.png,2,real,false,1,rare,0,2020-06-14T14:50:28Z,sub53
two-step-fixation,230,877588,0.0-76.0-2.31,TRUE,FALSE,TRUE,TRUE,"""event"",""trial"",""time""
""fullscreenenter"",""5"",""18783""
","
","
","""event"",""trial"",""time""
""fullscreenenter"",""5"",""18783""
","
",NA,images/earth.jpg,NA,NA,NA,NA,NA,NA,NA,NA,NA,NA,NA,NA,NA,fixation,NA,NA,NA,NA,NA,NA,sub53
d3-animate-choice,231,880143,0.0-76.0-0.32,TRUE,FALSE,TRUE,TRUE,"""event"",""trial"",""time""
""fullscreenenter"",""5"",""18783""
","
","
","""event"",""trial"",""time""
""fullscreenenter"",""5"",""18783""
","
",549.2749999975786,NA,49,NA,NA,3000,1,NA,NA,images/earth.jpg,images/rocket2,images/rocket1,null,images/rocket1,NA,1,real,null,1,NA,NA,NA,sub53
d3-animate-choice,232,882478,0.0-76.0-1.32,TRUE,FALSE,TRUE,TRUE,"""event"",""trial"",""time""
""fullscreenenter"",""5"",""18783""
","
","
","""event"",""trial"",""time""
""fullscreenenter"",""5"",""18783""
","
",329.59999999729916,NA,49,NA,NA,3000,1,NA,NA,images/purpleplanet.jpg,images/alien4,images/alien3,images/rocket1,images/alien3,images/nothing.png,2,real,true,1,common,0,2020-06-14T14:50:34Z,sub53
two-step-fixation,233,883482,0.0-76.0-2.32,TRUE,FALSE,TRUE,TRUE,"""event"",""trial"",""time""
""fullscreenenter"",""5"",""18783""
","
","
","""event"",""trial"",""time""
""fullscreenenter"",""5"",""18783""
","
",NA,images/earth.jpg,NA,NA,NA,NA,NA,NA,NA,NA,NA,NA,NA,NA,NA,fixation,NA,NA,NA,NA,NA,NA,sub53
d3-animate-choice,234,885767,0.0-76.0-0.33,TRUE,FALSE,TRUE,TRUE,"""event"",""trial"",""time""
""fullscreenenter"",""5"",""18783""
","
","
","""event"",""trial"",""time""
""fullscreenenter"",""5"",""18783""
","
",278.31500000320375,NA,48,NA,NA,3000,1,NA,NA,images/earth.jpg,images/rocket2,images/rocket1,null,images/rocket2,NA,1,real,null,2,NA,NA,NA,sub53
d3-animate-choice,235,888253,0.0-76.0-1.33,TRUE,FALSE,TRUE,TRUE,"""event"",""trial"",""time""
""fullscreenenter"",""5"",""18783""
","
","
","""event"",""trial"",""time""
""fullscreenenter"",""5"",""18783""
","
",479.4650000403635,NA,48,NA,NA,3000,1,NA,NA,images/purpleplanet.jpg,images/alien4,images/alien3,images/rocket2,images/alien4,images/t.png,2,real,false,2,rare,1,2020-06-14T14:50:40Z,sub53
two-step-fixation,236,889262,0.0-76.0-2.33,TRUE,FALSE,TRUE,TRUE,"""event"",""trial"",""time""
""fullscreenenter"",""5"",""18783""
","
","
","""event"",""trial"",""time""
""fullscreenenter"",""5"",""18783""
","
",NA,images/earth.jpg,NA,NA,NA,NA,NA,NA,NA,NA,NA,NA,NA,NA,NA,fixation,NA,NA,NA,NA,NA,NA,sub53
d3-animate-choice,237,891656,0.0-76.0-0.34,TRUE,FALSE,TRUE,TRUE,"""event"",""trial"",""time""
""fullscreenenter"",""5"",""18783""
","
","
","""event"",""trial"",""time""
""fullscreenenter"",""5"",""18783""
","
",387.23499997286126,NA,48,NA,NA,3000,1,NA,NA,images/earth.jpg,images/rocket2,images/rocket1,null,images/rocket2,NA,1,real,null,2,NA,NA,NA,sub53
d3-animate-choice,238,894010,0.0-76.0-1.34,TRUE,FALSE,TRUE,TRUE,"""event"",""trial"",""time""
""fullscreenenter"",""5"",""18783""
","
","
","""event"",""trial"",""time""
""fullscreenenter"",""5"",""18783""
","
",347.21999999601394,NA,48,NA,NA,3000,1,NA,NA,images/redplanet1.jpg,images/alien2,images/alien1,images/rocket2,images/alien2,images/nothing.png,2,real,true,2,common,0,2020-06-14T14:50:45Z,sub53
two-step-fixation,239,895015,0.0-76.0-2.34,TRUE,FALSE,TRUE,TRUE,"""event"",""trial"",""time""
""fullscreenenter"",""5"",""18783""
","
","
","""event"",""trial"",""time""
""fullscreenenter"",""5"",""18783""
","
",NA,images/earth.jpg,NA,NA,NA,NA,NA,NA,NA,NA,NA,NA,NA,NA,NA,fixation,NA,NA,NA,NA,NA,NA,sub53
d3-animate-choice,240,897492,0.0-76.0-0.35,TRUE,FALSE,TRUE,TRUE,"""event"",""trial"",""time""
""fullscreenenter"",""5"",""18783""
","
","
","""event"",""trial"",""time""
""fullscreenenter"",""5"",""18783""
","
",468.63500005565584,NA,49,NA,NA,3000,1,NA,NA,images/earth.jpg,images/rocket2,images/rocket1,null,images/rocket1,NA,1,real,null,1,NA,NA,NA,sub53
d3-animate-choice,241,900752,0.0-76.0-1.35,TRUE,FALSE,TRUE,TRUE,"""event"",""trial"",""time""
""fullscreenenter"",""5"",""18783""
","
","
","""event"",""trial"",""time""
""fullscreenenter"",""5"",""18783""
","
",1253.5250000073574,NA,48,NA,NA,3000,1,NA,NA,images/redplanet1.jpg,images/alien2,images/alien1,images/rocket1,images/alien2,images/nothing.png,2,real,false,2,rare,0,2020-06-14T14:50:52Z,sub53
two-step-fixation,242,901758,0.0-76.0-2.35,TRUE,FALSE,TRUE,TRUE,"""event"",""trial"",""time""
""fullscreenenter"",""5"",""18783""
","
","
","""event"",""trial"",""time""
""fullscreenenter"",""5"",""18783""
","
",NA,images/earth.jpg,NA,NA,NA,NA,NA,NA,NA,NA,NA,NA,NA,NA,NA,fixation,NA,NA,NA,NA,NA,NA,sub53
d3-animate-choice,243,904110,0.0-76.0-0.36,TRUE,FALSE,TRUE,TRUE,"""event"",""trial"",""time""
""fullscreenenter"",""5"",""18783""
","
","
","""event"",""trial"",""time""
""fullscreenenter"",""5"",""18783""
","
",345.6700000097044,NA,49,NA,NA,3000,1,NA,NA,images/earth.jpg,images/rocket2,images/rocket1,null,images/rocket1,NA,1,real,null,1,NA,NA,NA,sub53
d3-animate-choice,244,906849,0.0-76.0-1.36,TRUE,FALSE,TRUE,TRUE,"""event"",""trial"",""time""
""fullscreenenter"",""5"",""18783""
","
","
","""event"",""trial"",""time""
""fullscreenenter"",""5"",""18783""
","
",732.6499999617226,NA,49,NA,NA,3000,1,NA,NA,images/purpleplanet.jpg,images/alien4,images/alien3,images/rocket1,images/alien3,images/t.png,2,real,true,1,common,1,2020-06-14T14:50:58Z,sub53
two-step-fixation,245,907855,0.0-76.0-2.36,TRUE,FALSE,TRUE,TRUE,"""event"",""trial"",""time""
""fullscreenenter"",""5"",""18783""
","
","
","""event"",""trial"",""time""
""fullscreenenter"",""5"",""18783""
","
",NA,images/earth.jpg,NA,NA,NA,NA,NA,NA,NA,NA,NA,NA,NA,NA,NA,fixation,NA,NA,NA,NA,NA,NA,sub53
d3-animate-choice,246,910188,0.0-76.0-0.37,TRUE,FALSE,TRUE,TRUE,"""event"",""trial"",""time""
""fullscreenenter"",""5"",""18783""
","
","
","""event"",""trial"",""time""
""fullscreenenter"",""5"",""18783""
","
",328.6699999589473,NA,49,NA,NA,3000,1,NA,NA,images/earth.jpg,images/rocket2,images/rocket1,null,images/rocket1,NA,1,real,null,1,NA,NA,NA,sub53
d3-animate-choice,247,912679,0.0-76.0-1.37,TRUE,FALSE,TRUE,TRUE,"""event"",""trial"",""time""
""fullscreenenter"",""5"",""18783""
","
","
","""event"",""trial"",""time""
""fullscreenenter"",""5"",""18783""
","
",484.5150000182912,NA,49,NA,NA,3000,1,NA,NA,images/purpleplanet.jpg,images/alien4,images/alien3,images/rocket1,images/alien3,images/t.png,2,real,true,1,common,1,2020-06-14T14:51:04Z,sub53
two-step-fixation,248,913686,0.0-76.0-2.37,TRUE,FALSE,TRUE,TRUE,"""event"",""trial"",""time""
""fullscreenenter"",""5"",""18783""
","
","
","""event"",""trial"",""time""
""fullscreenenter"",""5"",""18783""
","
",NA,images/earth.jpg,NA,NA,NA,NA,NA,NA,NA,NA,NA,NA,NA,NA,NA,fixation,NA,NA,NA,NA,NA,NA,sub53
d3-animate-choice,249,916404,0.0-76.0-0.38,TRUE,FALSE,TRUE,TRUE,"""event"",""trial"",""time""
""fullscreenenter"",""5"",""18783""
","
","
","""event"",""trial"",""time""
""fullscreenenter"",""5"",""18783""
","
",711.5150000317954,NA,49,NA,NA,3000,1,NA,NA,images/earth.jpg,images/rocket2,images/rocket1,null,images/rocket1,NA,1,real,null,1,NA,NA,NA,sub53
d3-animate-choice,250,919194,0.0-76.0-1.38,TRUE,FALSE,TRUE,TRUE,"""event"",""trial"",""time""
""fullscreenenter"",""5"",""18783""
","
","
","""event"",""trial"",""time""
""fullscreenenter"",""5"",""18783""
","
",783.77499995986,NA,49,NA,NA,3000,1,NA,NA,images/purpleplanet.jpg,images/alien4,images/alien3,images/rocket1,images/alien3,images/nothing.png,2,real,true,1,common,0,2020-06-14T14:51:10Z,sub53
two-step-fixation,251,920201,0.0-76.0-2.38,TRUE,FALSE,TRUE,TRUE,"""event"",""trial"",""time""
""fullscreenenter"",""5"",""18783""
","
","
","""event"",""trial"",""time""
""fullscreenenter"",""5"",""18783""
","
",NA,images/earth.jpg,NA,NA,NA,NA,NA,NA,NA,NA,NA,NA,NA,NA,NA,fixation,NA,NA,NA,NA,NA,NA,sub53
d3-animate-choice,252,922902,0.0-76.0-0.39,TRUE,FALSE,TRUE,TRUE,"""event"",""trial"",""time""
""fullscreenenter"",""5"",""18783""
","
","
","""event"",""trial"",""time""
""fullscreenenter"",""5"",""18783""
","
",693.9450000063516,NA,49,NA,NA,3000,1,NA,NA,images/earth.jpg,images/rocket2,images/rocket1,null,images/rocket1,NA,1,real,null,1,NA,NA,NA,sub53
d3-animate-choice,253,925546,0.0-76.0-1.39,TRUE,FALSE,TRUE,TRUE,"""event"",""trial"",""time""
""fullscreenenter"",""5"",""18783""
","
","
","""event"",""trial"",""time""
""fullscreenenter"",""5"",""18783""
","
",640.1349999941885,NA,48,NA,NA,3000,1,NA,NA,images/purpleplanet.jpg,images/alien4,images/alien3,images/rocket1,images/alien4,images/t.png,2,real,true,2,common,1,2020-06-14T14:51:17Z,sub53
two-step-fixation,254,926551,0.0-76.0-2.39,TRUE,FALSE,TRUE,TRUE,"""event"",""trial"",""time""
""fullscreenenter"",""5"",""18783""
","
","
","""event"",""trial"",""time""
""fullscreenenter"",""5"",""18783""
","
",NA,images/earth.jpg,NA,NA,NA,NA,NA,NA,NA,NA,NA,NA,NA,NA,NA,fixation,NA,NA,NA,NA,NA,NA,sub53
d3-animate-choice,255,929249,0.0-76.0-0.40,TRUE,FALSE,TRUE,TRUE,"""event"",""trial"",""time""
""fullscreenenter"",""5"",""18783""
","
","
","""event"",""trial"",""time""
""fullscreenenter"",""5"",""18783""
","
",692.9450000170618,NA,49,NA,NA,3000,1,NA,NA,images/earth.jpg,images/rocket2,images/rocket1,null,images/rocket1,NA,1,real,null,1,NA,NA,NA,sub53
d3-animate-choice,256,931673,0.0-76.0-1.40,TRUE,FALSE,TRUE,TRUE,"""event"",""trial"",""time""
""fullscreenenter"",""5"",""18783""
","
","
","""event"",""trial"",""time""
""fullscreenenter"",""5"",""18783""
","
",416.96000000229105,NA,48,NA,NA,3000,1,NA,NA,images/purpleplanet.jpg,images/alien4,images/alien3,images/rocket1,images/alien4,images/t.png,2,real,true,2,common,1,2020-06-14T14:51:23Z,sub53
two-step-fixation,257,932680,0.0-76.0-2.40,TRUE,FALSE,TRUE,TRUE,"""event"",""trial"",""time""
""fullscreenenter"",""5"",""18783""
","
","
","""event"",""trial"",""time""
""fullscreenenter"",""5"",""18783""
","
",NA,images/earth.jpg,NA,NA,NA,NA,NA,NA,NA,NA,NA,NA,NA,NA,NA,fixation,NA,NA,NA,NA,NA,NA,sub53
d3-animate-choice,258,935155,0.0-76.0-0.41,TRUE,FALSE,TRUE,TRUE,"""event"",""trial"",""time""
""fullscreenenter"",""5"",""18783""
","
","
","""event"",""trial"",""time""
""fullscreenenter"",""5"",""18783""
","
",469.24000000581145,NA,49,NA,NA,3000,1,NA,NA,images/earth.jpg,images/rocket2,images/rocket1,null,images/rocket1,NA,1,real,null,1,NA,NA,NA,sub53
d3-animate-choice,259,938041,0.0-76.0-1.41,TRUE,FALSE,TRUE,TRUE,"""event"",""trial"",""time""
""fullscreenenter"",""5"",""18783""
","
","
","""event"",""trial"",""time""
""fullscreenenter"",""5"",""18783""
","
",877.730000007432,NA,48,NA,NA,3000,1,NA,NA,images/purpleplanet.jpg,images/alien4,images/alien3,images/rocket1,images/alien4,images/t.png,2,real,true,2,common,1,2020-06-14T14:51:29Z,sub53
two-step-fixation,260,939046,0.0-76.0-2.41,TRUE,FALSE,TRUE,TRUE,"""event"",""trial"",""time""
""fullscreenenter"",""5"",""18783""
","
","
","""event"",""trial"",""time""
""fullscreenenter"",""5"",""18783""
","
",NA,images/earth.jpg,NA,NA,NA,NA,NA,NA,NA,NA,NA,NA,NA,NA,NA,fixation,NA,NA,NA,NA,NA,NA,sub53
d3-animate-choice,261,942713,0.0-76.0-0.42,TRUE,FALSE,TRUE,TRUE,"""event"",""trial"",""time""
""fullscreenenter"",""5"",""18783""
","
","
","""event"",""trial"",""time""
""fullscreenenter"",""5"",""18783""
","
",1660.9199999948032,NA,49,NA,NA,3000,1,NA,NA,images/earth.jpg,images/rocket2,images/rocket1,null,images/rocket1,NA,1,real,null,1,NA,NA,NA,sub53
d3-animate-choice,262,945240,0.0-76.0-1.42,TRUE,FALSE,TRUE,TRUE,"""event"",""trial"",""time""
""fullscreenenter"",""5"",""18783""
","
","
","""event"",""trial"",""time""
""fullscreenenter"",""5"",""18783""
","
",520.215000025928,NA,48,NA,NA,3000,1,NA,NA,images/purpleplanet.jpg,images/alien4,images/alien3,images/rocket1,images/alien4,images/t.png,2,real,true,2,common,1,2020-06-14T14:51:36Z,sub53
two-step-fixation,263,946246,0.0-76.0-2.42,TRUE,FALSE,TRUE,TRUE,"""event"",""trial"",""time""
""fullscreenenter"",""5"",""18783""
","
","
","""event"",""trial"",""time""
""fullscreenenter"",""5"",""18783""
","
",NA,images/earth.jpg,NA,NA,NA,NA,NA,NA,NA,NA,NA,NA,NA,NA,NA,fixation,NA,NA,NA,NA,NA,NA,sub53
d3-animate-choice,264,948924,0.0-76.0-0.43,TRUE,FALSE,TRUE,TRUE,"""event"",""trial"",""time""
""fullscreenenter"",""5"",""18783""
","
","
","""event"",""trial"",""time""
""fullscreenenter"",""5"",""18783""
","
",672.3600000259466,NA,49,NA,NA,3000,1,NA,NA,images/earth.jpg,images/rocket2,images/rocket1,null,images/rocket1,NA,1,real,null,1,NA,NA,NA,sub53
d3-animate-choice,265,951355,0.0-76.0-1.43,TRUE,FALSE,TRUE,TRUE,"""event"",""trial"",""time""
""fullscreenenter"",""5"",""18783""
","
","
","""event"",""trial"",""time""
""fullscreenenter"",""5"",""18783""
","
",425.74499995680526,NA,48,NA,NA,3000,1,NA,NA,images/purpleplanet.jpg,images/alien4,images/alien3,images/rocket1,images/alien4,images/t.png,2,real,true,2,common,1,2020-06-14T14:51:43Z,sub53
two-step-fixation,266,952362,0.0-76.0-2.43,TRUE,FALSE,TRUE,TRUE,"""event"",""trial"",""time""
""fullscreenenter"",""5"",""18783""
","
","
","""event"",""trial"",""time""
""fullscreenenter"",""5"",""18783""
","
",NA,images/earth.jpg,NA,NA,NA,NA,NA,NA,NA,NA,NA,NA,NA,NA,NA,fixation,NA,NA,NA,NA,NA,NA,sub53
d3-animate-choice,267,954725,0.0-76.0-0.44,TRUE,FALSE,TRUE,TRUE,"""event"",""trial"",""time""
""fullscreenenter"",""5"",""18783""
","
","
","""event"",""trial"",""time""
""fullscreenenter"",""5"",""18783""
","
",357.3800000012852,NA,49,NA,NA,3000,1,NA,NA,images/earth.jpg,images/rocket2,images/rocket1,null,images/rocket1,NA,1,real,null,1,NA,NA,NA,sub53
d3-animate-choice,268,957264,0.0-76.0-1.44,TRUE,FALSE,TRUE,TRUE,"""event"",""trial"",""time""
""fullscreenenter"",""5"",""18783""
","
","
","""event"",""trial"",""time""
""fullscreenenter"",""5"",""18783""
","
",534.7949999850243,NA,48,NA,NA,3000,1,NA,NA,images/purpleplanet.jpg,images/alien4,images/alien3,images/rocket1,images/alien4,images/nothing.png,2,real,true,2,common,0,2020-06-14T14:51:49Z,sub53
two-step-fixation,269,958269,0.0-76.0-2.44,TRUE,FALSE,TRUE,TRUE,"""event"",""trial"",""time""
""fullscreenenter"",""5"",""18783""
","
","
","""event"",""trial"",""time""
""fullscreenenter"",""5"",""18783""
","
",NA,images/earth.jpg,NA,NA,NA,NA,NA,NA,NA,NA,NA,NA,NA,NA,NA,fixation,NA,NA,NA,NA,NA,NA,sub53
d3-animate-choice,270,960754,0.0-76.0-0.45,TRUE,FALSE,TRUE,TRUE,"""event"",""trial"",""time""
""fullscreenenter"",""5"",""18783""
","
","
","""event"",""trial"",""time""
""fullscreenenter"",""5"",""18783""
","
",478.46000001300126,NA,49,NA,NA,3000,1,NA,NA,images/earth.jpg,images/rocket2,images/rocket1,null,images/rocket1,NA,1,real,null,1,NA,NA,NA,sub53
d3-animate-choice,271,962826,0.0-76.0-1.45,TRUE,FALSE,TRUE,TRUE,"""event"",""trial"",""time""
""fullscreenenter"",""5"",""18783""
","
","
","""event"",""trial"",""time""
""fullscreenenter"",""5"",""18783""
","
",69.33500000741333,NA,49,NA,NA,3000,1,1114.4799999892712,45,images/purpleplanet.jpg,images/alien4,images/alien3,images/rocket1,images/alien3,images/nothing.png,2,real,true,1,common,0,2020-06-14T14:51:54Z,sub53
two-step-fixation,272,963833,0.0-76.0-2.45,TRUE,FALSE,TRUE,TRUE,"""event"",""trial"",""time""
""fullscreenenter"",""5"",""18783""
","
","
","""event"",""trial"",""time""
""fullscreenenter"",""5"",""18783""
","
",NA,images/earth.jpg,NA,NA,NA,NA,NA,NA,NA,NA,NA,NA,NA,NA,NA,fixation,NA,NA,NA,NA,NA,NA,sub53
d3-animate-choice,273,966163,0.0-76.0-0.46,TRUE,FALSE,TRUE,TRUE,"""event"",""trial"",""time""
""fullscreenenter"",""5"",""18783""
""blur"",""274"",""968457""
","""event"",""trial"",""time""
""blur"",""274"",""968457""
","
","""event"",""trial"",""time""
""fullscreenenter"",""5"",""18783""
","
",323.7399999634363,NA,49,NA,NA,3000,1,NA,NA,images/earth.jpg,images/rocket2,images/rocket1,null,images/rocket1,NA,1,real,null,1,NA,NA,NA,sub53
d3-animate-choice,274,969120,0.0-76.0-1.46,TRUE,FALSE,TRUE,TRUE,"""event"",""trial"",""time""
""fullscreenenter"",""5"",""18783""
""blur"",""274"",""968457""
""focus"",""275"",""970127""
","""event"",""trial"",""time""
""blur"",""274"",""968457""
","""event"",""trial"",""time""
""focus"",""275"",""970127""
","""event"",""trial"",""time""
""fullscreenenter"",""5"",""18783""
","
",951.2499999837019,NA,49,NA,NA,3000,1,"2114.4050000002608,2152.0149999996647",4991,images/redplanet1.jpg,images/alien2,images/alien1,images/rocket1,images/alien1,images/nothing.png,2,real,false,1,rare,0,2020-06-14T14:52:00Z,sub53
two-step-fixation,275,970128,0.0-76.0-2.46,TRUE,FALSE,TRUE,TRUE,"""event"",""trial"",""time""
""fullscreenenter"",""5"",""18783""
""blur"",""274"",""968457""
""focus"",""275"",""970127""
","""event"",""trial"",""time""
""blur"",""274"",""968457""
","""event"",""trial"",""time""
""focus"",""275"",""970127""
","""event"",""trial"",""time""
""fullscreenenter"",""5"",""18783""
","
",NA,images/earth.jpg,NA,NA,NA,NA,NA,NA,NA,NA,NA,NA,NA,NA,NA,fixation,NA,NA,NA,NA,NA,NA,sub53
d3-animate-choice,276,974135,0.0-76.0-0.47,TRUE,FALSE,TRUE,TRUE,"""event"",""trial"",""time""
""fullscreenenter"",""5"",""18783""
""blur"",""274"",""968457""
""focus"",""275"",""970127""
","""event"",""trial"",""time""
""blur"",""274"",""968457""
","""event"",""trial"",""time""
""focus"",""275"",""970127""
","""event"",""trial"",""time""
""fullscreenenter"",""5"",""18783""
","
",1987.6749999821186,NA,49,NA,NA,3000,1,NA,NA,images/earth.jpg,images/rocket2,images/rocket1,null,images/rocket1,NA,1,real,null,1,NA,NA,NA,sub53
d3-animate-choice,277,976851,0.0-76.0-1.47,TRUE,FALSE,TRUE,TRUE,"""event"",""trial"",""time""
""fullscreenenter"",""5"",""18783""
""blur"",""274"",""968457""
""focus"",""275"",""970127""
","""event"",""trial"",""time""
""blur"",""274"",""968457""
","""event"",""trial"",""time""
""focus"",""275"",""970127""
","""event"",""trial"",""time""
""fullscreenenter"",""5"",""18783""
","
",712.7650000038557,NA,48,NA,NA,3000,1,NA,NA,images/purpleplanet.jpg,images/alien4,images/alien3,images/rocket1,images/alien4,images/t.png,2,real,true,2,common,1,2020-06-14T14:52:08Z,sub53
two-step-fixation,278,977855,0.0-76.0-2.47,TRUE,FALSE,TRUE,TRUE,"""event"",""trial"",""time""
""fullscreenenter"",""5"",""18783""
""blur"",""274"",""968457""
""focus"",""275"",""970127""
","""event"",""trial"",""time""
""blur"",""274"",""968457""
","""event"",""trial"",""time""
""focus"",""275"",""970127""
","""event"",""trial"",""time""
""fullscreenenter"",""5"",""18783""
","
",NA,images/earth.jpg,NA,NA,NA,NA,NA,NA,NA,NA,NA,NA,NA,NA,NA,fixation,NA,NA,NA,NA,NA,NA,sub53
d3-animate-choice,279,980619,0.0-76.0-0.48,TRUE,FALSE,TRUE,TRUE,"""event"",""trial"",""time""
""fullscreenenter"",""5"",""18783""
""blur"",""274"",""968457""
""focus"",""275"",""970127""
","""event"",""trial"",""time""
""blur"",""274"",""968457""
","""event"",""trial"",""time""
""focus"",""275"",""970127""
","""event"",""trial"",""time""
""fullscreenenter"",""5"",""18783""
","
",756.630000018049,NA,49,NA,NA,3000,1,NA,NA,images/earth.jpg,images/rocket2,images/rocket1,null,images/rocket1,NA,1,real,null,1,NA,NA,NA,sub53
d3-animate-choice,280,983061,0.0-76.0-1.48,TRUE,FALSE,TRUE,TRUE,"""event"",""trial"",""time""
""fullscreenenter"",""5"",""18783""
""blur"",""274"",""968457""
""focus"",""275"",""970127""
","""event"",""trial"",""time""
