trial_type,trial_index,time_elapsed,internal_node_id,rocket_sides,red_planet_first_rocket,red_display_order,purple_display_order,interactions,blur_events,focus_events,fullscreenenter_events,fullscreenexit_events,rt,stimulus,key_press,button_pressed,success,duration,valid_pressed,rts,keys,planet_text,right_text,left_text,center_text,chosen_text,reward_text,trial_stage,practice_trial,transition_type,choice,transition,reward,timestamp,subject_id
pavlovia,0,6,0.0-0.0,FALSE,TRUE,FALSE,TRUE,"
","
","
","
","
",NA,NA,NA,NA,NA,NA,NA,NA,NA,NA,NA,NA,NA,NA,NA,NA,NA,NA,NA,NA,NA,NA,sub86
html-keyboard-response,1,6342,0.0-1.0,FALSE,TRUE,FALSE,TRUE,"
","
","
","
","
",6334.679999970831,Welcome! Press the space bar to begin.,32,NA,NA,NA,NA,NA,NA,NA,NA,NA,NA,NA,NA,NA,NA,NA,NA,NA,NA,NA,sub86
audio-keyboard-response,2,15032,0.0-2.0,FALSE,TRUE,FALSE,TRUE,"""event"",""trial"",""time""
""blur"",""3"",""23030""
""focus"",""3"",""23041""
","""event"",""trial"",""time""
""blur"",""3"",""23030""
","""event"",""trial"",""time""
""focus"",""3"",""23041""
","
","
",7920,audio/beep_loop.wav,32,NA,NA,NA,NA,NA,NA,NA,NA,NA,NA,NA,NA,NA,NA,NA,NA,NA,NA,NA,sub86
audio-button-response,3,26453,0.0-3.0,FALSE,TRUE,FALSE,TRUE,"""event"",""trial"",""time""
""blur"",""3"",""23030""
""focus"",""3"",""23041""
","""event"",""trial"",""time""
""blur"",""3"",""23030""
","""event"",""trial"",""time""
""focus"",""3"",""23041""
","
","
",NaN,audio/fish.mp3,NA,1,NA,NA,NA,NA,NA,NA,NA,NA,NA,NA,NA,NA,NA,NA,NA,NA,NA,NA,sub86
audio-button-response,4,31644,0.0-4.0,FALSE,TRUE,FALSE,TRUE,"""event"",""trial"",""time""
""blur"",""3"",""23030""
""focus"",""3"",""23041""
""fullscreenenter"",""5"",""37767""
","""event"",""trial"",""time""
""blur"",""3"",""23030""
","""event"",""trial"",""time""
""focus"",""3"",""23041""
","""event"",""trial"",""time""
""fullscreenenter"",""5"",""37767""
","
",NaN,audio/tiger.mp3,NA,4,NA,NA,NA,NA,NA,NA,NA,NA,NA,NA,NA,NA,NA,NA,NA,NA,NA,NA,sub86
fullscreen,5,38730,0.0-5.0,FALSE,TRUE,FALSE,TRUE,"""event"",""trial"",""time""
""blur"",""3"",""23030""
""focus"",""3"",""23041""
""fullscreenenter"",""5"",""37767""
","""event"",""trial"",""time""
""blur"",""3"",""23030""
","""event"",""trial"",""time""
""focus"",""3"",""23041""
","""event"",""trial"",""time""
""fullscreenenter"",""5"",""37767""
","
",NA,NA,NA,NA,TRUE,NA,NA,NA,NA,NA,NA,NA,NA,NA,NA,NA,NA,NA,NA,NA,NA,NA,sub86
d3-instructions,6,51372,0.0-6.0,FALSE,TRUE,FALSE,TRUE,"""event"",""trial"",""time""
""blur"",""3"",""23030""
""focus"",""3"",""23041""
""fullscreenenter"",""5"",""37767""
","""event"",""trial"",""time""
""blur"",""3"",""23030""
","""event"",""trial"",""time""
""focus"",""3"",""23041""
","""event"",""trial"",""time""
""fullscreenenter"",""5"",""37767""
","
",NA,NA,NA,NA,NA,NA,NA,NA,NA,NA,NA,NA,NA,NA,NA,NA,NA,NA,NA,NA,NA,NA,sub86
d3-instructions,7,60038,0.0-7.0,FALSE,TRUE,FALSE,TRUE,"""event"",""trial"",""time""
""blur"",""3"",""23030""
""focus"",""3"",""23041""
""fullscreenenter"",""5"",""37767""
","""event"",""trial"",""time""
""blur"",""3"",""23030""
","""event"",""trial"",""time""
""focus"",""3"",""23041""
","""event"",""trial"",""time""
""fullscreenenter"",""5"",""37767""
","
",NA,NA,NA,NA,NA,NA,NA,NA,NA,NA,NA,NA,NA,NA,NA,NA,NA,NA,NA,NA,NA,NA,sub86
d3-instructions,8,71384,0.0-8.0,FALSE,TRUE,FALSE,TRUE,"""event"",""trial"",""time""
""blur"",""3"",""23030""
""focus"",""3"",""23041""
""fullscreenenter"",""5"",""37767""
","""event"",""trial"",""time""
""blur"",""3"",""23030""
","""event"",""trial"",""time""
""focus"",""3"",""23041""
","""event"",""trial"",""time""
""fullscreenenter"",""5"",""37767""
","
",NA,NA,NA,NA,NA,NA,NA,NA,NA,NA,NA,NA,NA,NA,NA,NA,NA,NA,NA,NA,NA,NA,sub86
d3-instructions,9,87842,0.0-9.0,FALSE,TRUE,FALSE,TRUE,"""event"",""trial"",""time""
""blur"",""3"",""23030""
""focus"",""3"",""23041""
""fullscreenenter"",""5"",""37767""
","""event"",""trial"",""time""
""blur"",""3"",""23030""
","""event"",""trial"",""time""
""focus"",""3"",""23041""
","""event"",""trial"",""time""
""fullscreenenter"",""5"",""37767""
","
",NA,NA,NA,NA,NA,NA,NA,NA,NA,NA,NA,NA,NA,NA,NA,NA,NA,NA,NA,NA,NA,NA,sub86
d3-instructions,10,121189,0.0-10.0,FALSE,TRUE,FALSE,TRUE,"""event"",""trial"",""time""
""blur"",""3"",""23030""
""focus"",""3"",""23041""
""fullscreenenter"",""5"",""37767""
","""event"",""trial"",""time""
""blur"",""3"",""23030""
","""event"",""trial"",""time""
""focus"",""3"",""23041""
","""event"",""trial"",""time""
""fullscreenenter"",""5"",""37767""
","
",NA,NA,NA,NA,NA,NA,NA,NA,NA,NA,NA,NA,NA,NA,NA,NA,NA,NA,NA,NA,NA,NA,sub86
d3-animate-choice,11,127112,0.0-11.0,FALSE,TRUE,FALSE,TRUE,"""event"",""trial"",""time""
""blur"",""3"",""23030""
""focus"",""3"",""23041""
""fullscreenenter"",""5"",""37767""
","""event"",""trial"",""time""
""blur"",""3"",""23030""
","""event"",""trial"",""time""
""focus"",""3"",""23041""
","""event"",""trial"",""time""
""fullscreenenter"",""5"",""37767""
","
",3916.575000039302,NA,49,NA,NA,3000,1,NA,NA,images/tutgreenplanet.jpg,images/tutalien1,images/tutalien2,null,images/tutalien2,NA,NA,practice,null,NA,NA,NA,NA,sub86
d3-animate-choice,12,131798,0.0-12.0,FALSE,TRUE,FALSE,TRUE,"""event"",""trial"",""time""
""blur"",""3"",""23030""
""focus"",""3"",""23041""
""fullscreenenter"",""5"",""37767""
","""event"",""trial"",""time""
""blur"",""3"",""23030""
","""event"",""trial"",""time""
""focus"",""3"",""23041""
","""event"",""trial"",""time""
""fullscreenenter"",""5"",""37767""
","
",2672.5050000241026,NA,48,NA,NA,3000,1,NA,NA,images/tutgreenplanet.jpg,images/tutalien1,images/tutalien2,null,images/tutalien1,NA,NA,practice,null,NA,NA,NA,NA,sub86
d3-animate-choice,13,137963,0.0-13.0,FALSE,TRUE,FALSE,TRUE,"""event"",""trial"",""time""
""blur"",""3"",""23030""
""focus"",""3"",""23041""
""fullscreenenter"",""5"",""37767""
","""event"",""trial"",""time""
""blur"",""3"",""23030""
","""event"",""trial"",""time""
""focus"",""3"",""23041""
","""event"",""trial"",""time""
""fullscreenenter"",""5"",""37767""
","
",2704.1550000431016,NA,87,NA,NA,3000,1,"4160.649999976158,5665.760000003502",4949,images/tutgreenplanet.jpg,images/tutalien1,images/tutalien2,null,images/tutalien2,NA,NA,practice,null,NA,NA,NA,NA,sub86
d3-animate-choice,14,141553,0.0-14.0,FALSE,TRUE,FALSE,TRUE,"""event"",""trial"",""time""
""blur"",""3"",""23030""
""focus"",""3"",""23041""
""fullscreenenter"",""5"",""37767""
","""event"",""trial"",""time""
""blur"",""3"",""23030""
","""event"",""trial"",""time""
""focus"",""3"",""23041""
","""event"",""trial"",""time""
""fullscreenenter"",""5"",""37767""
","
",1586.2049999414012,NA,48,NA,NA,3000,1,NA,NA,images/tutgreenplanet.jpg,images/tutalien1,images/tutalien2,null,images/tutalien1,NA,NA,practice,null,NA,NA,NA,NA,sub86
d3-instructions,15,152705,0.0-15.0,FALSE,TRUE,FALSE,TRUE,"""event"",""trial"",""time""
""blur"",""3"",""23030""
""focus"",""3"",""23041""
""fullscreenenter"",""5"",""37767""
","""event"",""trial"",""time""
""blur"",""3"",""23030""
","""event"",""trial"",""time""
""focus"",""3"",""23041""
","""event"",""trial"",""time""
""fullscreenenter"",""5"",""37767""
","
",NA,NA,NA,NA,NA,NA,NA,NA,NA,NA,NA,NA,NA,NA,NA,NA,NA,NA,NA,NA,NA,NA,sub86
d3-instructions,16,171855,0.0-16.0,FALSE,TRUE,FALSE,TRUE,"""event"",""trial"",""time""
""blur"",""3"",""23030""
""focus"",""3"",""23041""
""fullscreenenter"",""5"",""37767""
","""event"",""trial"",""time""
""blur"",""3"",""23030""
","""event"",""trial"",""time""
""focus"",""3"",""23041""
","""event"",""trial"",""time""
""fullscreenenter"",""5"",""37767""
","
",NA,NA,NA,NA,NA,NA,NA,NA,NA,NA,NA,NA,NA,NA,NA,NA,NA,NA,NA,NA,NA,NA,sub86
d3-instructions,17,181957,0.0-17.0,FALSE,TRUE,FALSE,TRUE,"""event"",""trial"",""time""
""blur"",""3"",""23030""
""focus"",""3"",""23041""
""fullscreenenter"",""5"",""37767""
","""event"",""trial"",""time""
""blur"",""3"",""23030""
","""event"",""trial"",""time""
""focus"",""3"",""23041""
","""event"",""trial"",""time""
""fullscreenenter"",""5"",""37767""
","
",NA,NA,NA,NA,NA,NA,NA,NA,NA,NA,NA,NA,NA,NA,NA,NA,NA,NA,NA,NA,NA,NA,sub86
d3-instructions,18,201018,0.0-18.0,FALSE,TRUE,FALSE,TRUE,"""event"",""trial"",""time""
""blur"",""3"",""23030""
""focus"",""3"",""23041""
""fullscreenenter"",""5"",""37767""
","""event"",""trial"",""time""
""blur"",""3"",""23030""
","""event"",""trial"",""time""
""focus"",""3"",""23041""
","""event"",""trial"",""time""
""fullscreenenter"",""5"",""37767""
","
",NA,NA,NA,NA,NA,NA,NA,NA,NA,NA,NA,NA,NA,NA,NA,NA,NA,NA,NA,NA,NA,NA,sub86
d3-instructions,19,209645,0.0-19.0,FALSE,TRUE,FALSE,TRUE,"""event"",""trial"",""time""
""blur"",""3"",""23030""
""focus"",""3"",""23041""
""fullscreenenter"",""5"",""37767""
","""event"",""trial"",""time""
""blur"",""3"",""23030""
","""event"",""trial"",""time""
""focus"",""3"",""23041""
","""event"",""trial"",""time""
""fullscreenenter"",""5"",""37767""
","
",NA,NA,NA,NA,NA,NA,NA,NA,NA,NA,NA,NA,NA,NA,NA,NA,NA,NA,NA,NA,NA,NA,sub86
d3-animate-choice,20,215068,0.0-20.0,FALSE,TRUE,FALSE,TRUE,"""event"",""trial"",""time""
""blur"",""3"",""23030""
""focus"",""3"",""23041""
""fullscreenenter"",""5"",""37767""
","""event"",""trial"",""time""
""blur"",""3"",""23030""
","""event"",""trial"",""time""
""focus"",""3"",""23041""
","""event"",""trial"",""time""
""fullscreenenter"",""5"",""37767""
","
",3419.3549999035895,NA,49,NA,NA,3000,1,NA,NA,images/tutyellowplanet.jpg,null,images/tutalien3,null,images/tutalien3,images/t.png,NA,practice,null,NA,NA,NA,NA,sub86
d3-animate-choice,21,218926,0.0-21.0,FALSE,TRUE,FALSE,TRUE,"""event"",""trial"",""time""
""blur"",""3"",""23030""
""focus"",""3"",""23041""
""fullscreenenter"",""5"",""37767""
","""event"",""trial"",""time""
""blur"",""3"",""23030""
","""event"",""trial"",""time""
""focus"",""3"",""23041""
","""event"",""trial"",""time""
""fullscreenenter"",""5"",""37767""
","
",1854.399999952875,NA,49,NA,NA,3000,1,NA,NA,images/tutyellowplanet.jpg,null,images/tutalien3,null,images/tutalien3,images/t.png,NA,practice,null,NA,NA,NA,NA,sub86
d3-animate-choice,22,222338,0.0-22.0,FALSE,TRUE,FALSE,TRUE,"""event"",""trial"",""time""
""blur"",""3"",""23030""
""focus"",""3"",""23041""
""fullscreenenter"",""5"",""37767""
","""event"",""trial"",""time""
""blur"",""3"",""23030""
","""event"",""trial"",""time""
""focus"",""3"",""23041""
","""event"",""trial"",""time""
""fullscreenenter"",""5"",""37767""
","
",1409.3550000106916,NA,49,NA,NA,3000,1,NA,NA,images/tutyellowplanet.jpg,null,images/tutalien3,null,images/tutalien3,images/t.png,NA,practice,null,NA,NA,NA,NA,sub86
d3-animate-choice,23,225487,0.0-23.0,FALSE,TRUE,FALSE,TRUE,"""event"",""trial"",""time""
""blur"",""3"",""23030""
""focus"",""3"",""23041""
""fullscreenenter"",""5"",""37767""
","""event"",""trial"",""time""
""blur"",""3"",""23030""
","""event"",""trial"",""time""
""focus"",""3"",""23041""
","""event"",""trial"",""time""
""fullscreenenter"",""5"",""37767""
","
",1145.905000041239,NA,49,NA,NA,3000,1,NA,NA,images/tutyellowplanet.jpg,null,images/tutalien3,null,images/tutalien3,images/t.png,NA,practice,null,NA,NA,NA,NA,sub86
d3-animate-choice,24,227950,0.0-24.0,FALSE,TRUE,FALSE,TRUE,"""event"",""trial"",""time""
""blur"",""3"",""23030""
""focus"",""3"",""23041""
""fullscreenenter"",""5"",""37767""
","""event"",""trial"",""time""
""blur"",""3"",""23030""
","""event"",""trial"",""time""
""focus"",""3"",""23041""
","""event"",""trial"",""time""
""fullscreenenter"",""5"",""37767""
","
",459.47500003967434,NA,49,NA,NA,3000,1,NA,NA,images/tutyellowplanet.jpg,null,images/tutalien3,null,images/tutalien3,images/nothing.png,NA,practice,null,NA,NA,NA,NA,sub86
d3-animate-choice,25,230268,0.0-25.0,FALSE,TRUE,FALSE,TRUE,"""event"",""trial"",""time""
""blur"",""3"",""23030""
""focus"",""3"",""23041""
""fullscreenenter"",""5"",""37767""
","""event"",""trial"",""time""
""blur"",""3"",""23030""
","""event"",""trial"",""time""
""focus"",""3"",""23041""
","""event"",""trial"",""time""
""fullscreenenter"",""5"",""37767""
","
",315.02500001806766,NA,49,NA,NA,3000,1,1772.1299999393523,49,images/tutyellowplanet.jpg,null,images/tutalien3,null,images/tutalien3,images/t.png,NA,practice,null,NA,NA,NA,NA,sub86
d3-animate-choice,26,232764,0.0-26.0,FALSE,TRUE,FALSE,TRUE,"""event"",""trial"",""time""
""blur"",""3"",""23030""
""focus"",""3"",""23041""
""fullscreenenter"",""5"",""37767""
","""event"",""trial"",""time""
""blur"",""3"",""23030""
","""event"",""trial"",""time""
""focus"",""3"",""23041""
","""event"",""trial"",""time""
""fullscreenenter"",""5"",""37767""
","
",492.4450000980869,NA,49,NA,NA,3000,1,NA,NA,images/tutyellowplanet.jpg,null,images/tutalien3,null,images/tutalien3,images/t.png,NA,practice,null,NA,NA,NA,NA,sub86
d3-animate-choice,27,235830,0.0-27.0,FALSE,TRUE,FALSE,TRUE,"""event"",""trial"",""time""
""blur"",""3"",""23030""
""focus"",""3"",""23041""
""fullscreenenter"",""5"",""37767""
","""event"",""trial"",""time""
""blur"",""3"",""23030""
","""event"",""trial"",""time""
""focus"",""3"",""23041""
","""event"",""trial"",""time""
""fullscreenenter"",""5"",""37767""
","
",1062.5199999194592,NA,49,NA,NA,3000,1,"2557.0600000210106,2721.464999951422,2901.9850000040606",494949,images/tutyellowplanet.jpg,null,images/tutalien3,null,images/tutalien3,images/t.png,NA,practice,null,NA,NA,NA,NA,sub86
d3-animate-choice,28,237851,0.0-28.0,FALSE,TRUE,FALSE,TRUE,"""event"",""trial"",""time""
""blur"",""3"",""23030""
""focus"",""3"",""23041""
""fullscreenenter"",""5"",""37767""
","""event"",""trial"",""time""
""blur"",""3"",""23030""
","""event"",""trial"",""time""
""focus"",""3"",""23041""
","""event"",""trial"",""time""
""fullscreenenter"",""5"",""37767""
","
",18.849999993108213,NA,49,NA,NA,3000,1,"319.98000002931803,481.49000003468245,665.8000000752509,847.1850000787526,1038.895000005141,1203.3700000029057,1371.530000003986,1541.9049999909475,1707.505000056699,1908.075000043027",4949494949494949e4,images/tutyellowplanet.jpg,null,images/tutalien3,null,images/tutalien3,images/t.png,NA,practice,null,NA,NA,NA,NA,sub86
d3-animate-choice,29,239892,0.0-29.0,FALSE,TRUE,FALSE,TRUE,"""event"",""trial"",""time""
""blur"",""3"",""23030""
""focus"",""3"",""23041""
""fullscreenenter"",""5"",""37767""
","""event"",""trial"",""time""
""blur"",""3"",""23030""
","""event"",""trial"",""time""
""focus"",""3"",""23041""
","""event"",""trial"",""time""
""fullscreenenter"",""5"",""37767""
","
",37.88499999791384,NA,49,NA,NA,3000,1,"221.9150000018999,400.2799999434501,551.1399999959394,705.4099999368191,887.430000002496,1068.159999907948,1233.0199999269098,1430.9299999149516,1621.8299999600276,1785.884999902919,1978.3149999566376",4949494949494949e6,images/tutyellowplanet.jpg,null,images/tutalien3,null,images/tutalien3,images/nothing.png,NA,practice,null,NA,NA,NA,NA,sub86
d3-instructions,30,246283,0.0-30.0,FALSE,TRUE,FALSE,TRUE,"""event"",""trial"",""time""
""blur"",""3"",""23030""
""focus"",""3"",""23041""
""fullscreenenter"",""5"",""37767""
","""event"",""trial"",""time""
""blur"",""3"",""23030""
","""event"",""trial"",""time""
""focus"",""3"",""23041""
","""event"",""trial"",""time""
""fullscreenenter"",""5"",""37767""
","
",NA,NA,NA,NA,NA,NA,NA,NA,NA,NA,NA,NA,NA,NA,NA,NA,NA,NA,NA,NA,NA,NA,sub86
d3-instructions,31,260874,0.0-31.0,FALSE,TRUE,FALSE,TRUE,"""event"",""trial"",""time""
""blur"",""3"",""23030""
""focus"",""3"",""23041""
""fullscreenenter"",""5"",""37767""
","""event"",""trial"",""time""
""blur"",""3"",""23030""
","""event"",""trial"",""time""
""focus"",""3"",""23041""
","""event"",""trial"",""time""
""fullscreenenter"",""5"",""37767""
","
",NA,NA,NA,NA,NA,NA,NA,NA,NA,NA,NA,NA,NA,NA,NA,NA,NA,NA,NA,NA,NA,NA,sub86
d3-instructions,32,277938,0.0-32.0,FALSE,TRUE,FALSE,TRUE,"""event"",""trial"",""time""
""blur"",""3"",""23030""
""focus"",""3"",""23041""
""fullscreenenter"",""5"",""37767""
","""event"",""trial"",""time""
""blur"",""3"",""23030""
","""event"",""trial"",""time""
""focus"",""3"",""23041""
","""event"",""trial"",""time""
""fullscreenenter"",""5"",""37767""
","
",NA,NA,NA,NA,NA,NA,NA,NA,NA,NA,NA,NA,NA,NA,NA,NA,NA,NA,NA,NA,NA,NA,sub86
d3-instructions,33,291225,0.0-33.0,FALSE,TRUE,FALSE,TRUE,"""event"",""trial"",""time""
""blur"",""3"",""23030""
""focus"",""3"",""23041""
""fullscreenenter"",""5"",""37767""
","""event"",""trial"",""time""
""blur"",""3"",""23030""
","""event"",""trial"",""time""
""focus"",""3"",""23041""
","""event"",""trial"",""time""
""fullscreenenter"",""5"",""37767""
","
",NA,NA,NA,NA,NA,NA,NA,NA,NA,NA,NA,NA,NA,NA,NA,NA,NA,NA,NA,NA,NA,NA,sub86
d3-animate-choice,34,296505,0.0-34.0,FALSE,TRUE,FALSE,TRUE,"""event"",""trial"",""time""
""blur"",""3"",""23030""
""focus"",""3"",""23041""
""fullscreenenter"",""5"",""37767""
","""event"",""trial"",""time""
""blur"",""3"",""23030""
","""event"",""trial"",""time""
""focus"",""3"",""23041""
","""event"",""trial"",""time""
""fullscreenenter"",""5"",""37767""
","
",3276.4049998950213,NA,49,NA,NA,3000,1,NA,NA,images/tutgreenplanet.jpg,images/tutalien1,images/tutalien2,null,images/tutalien2,images/t.png,NA,practice,null,NA,NA,NA,NA,sub86
d3-animate-choice,35,298842,0.0-35.0,FALSE,TRUE,FALSE,TRUE,"""event"",""trial"",""time""
""blur"",""3"",""23030""
""focus"",""3"",""23041""
""fullscreenenter"",""5"",""37767""
","""event"",""trial"",""time""
""blur"",""3"",""23030""
","""event"",""trial"",""time""
""focus"",""3"",""23041""
","""event"",""trial"",""time""
""fullscreenenter"",""5"",""37767""
","
",334.27499991375953,NA,49,NA,NA,3000,1,"509.65999998152256,1898.3049999224022,2270.959999994375",494949,images/tutgreenplanet.jpg,images/tutalien1,images/tutalien2,null,images/tutalien2,images/t.png,NA,practice,null,NA,NA,NA,NA,sub86
d3-animate-choice,36,300993,0.0-36.0,FALSE,TRUE,FALSE,TRUE,"""event"",""trial"",""time""
""blur"",""3"",""23030""
""focus"",""3"",""23041""
""fullscreenenter"",""5"",""37767""
","""event"",""trial"",""time""
""blur"",""3"",""23030""
","""event"",""trial"",""time""
""focus"",""3"",""23041""
","""event"",""trial"",""time""
""fullscreenenter"",""5"",""37767""
","
",147.5599999539554,NA,49,NA,NA,3000,1,"348.9999999292195,1578.0749999685213,1798.9899999229237,1949.8299999395385,2134.1600000159815",4949494949,images/tutgreenplanet.jpg,images/tutalien1,images/tutalien2,null,images/tutalien2,images/t.png,NA,practice,null,NA,NA,NA,NA,sub86
d3-animate-choice,37,303172,0.0-37.0,FALSE,TRUE,FALSE,TRUE,"""event"",""trial"",""time""
""blur"",""3"",""23030""
""focus"",""3"",""23041""
""fullscreenenter"",""5"",""37767""
","""event"",""trial"",""time""
""blur"",""3"",""23030""
","""event"",""trial"",""time""
""focus"",""3"",""23041""
","""event"",""trial"",""time""
""fullscreenenter"",""5"",""37767""
","
",174.88499998580664,NA,49,NA,NA,3000,1,"376.2999998871237,570.2499999897555,779.9099999247119,994.2699999082834,1194.749999907799,1417.659999919124,1637.9849999211729,1859.7949999384582,2064.6399999968708",494949494949494900,images/tutgreenplanet.jpg,images/tutalien1,images/tutalien2,null,images/tutalien2,images/t.png,NA,practice,null,NA,NA,NA,NA,sub86
d3-animate-choice,38,305434,0.0-38.0,FALSE,TRUE,FALSE,TRUE,"""event"",""trial"",""time""
""blur"",""3"",""23030""
""focus"",""3"",""23041""
""fullscreenenter"",""5"",""37767""
","""event"",""trial"",""time""
""blur"",""3"",""23030""
","""event"",""trial"",""time""
""focus"",""3"",""23041""
","""event"",""trial"",""time""
""fullscreenenter"",""5"",""37767""
","
",258.7599999969825,NA,49,NA,NA,3000,1,"470.2500000130385,855.7250000303611,1056.1349999625236,1269.220000016503,1470.270000048913,1701.5550000360236,1885.7100000604987,2118.099999963306",4949494949494949,images/tutgreenplanet.jpg,images/tutalien1,images/tutalien2,null,images/tutalien2,images/t.png,NA,practice,null,NA,NA,NA,NA,sub86
d3-animate-choice,39,307500,0.0-39.0,FALSE,TRUE,FALSE,TRUE,"""event"",""trial"",""time""
""blur"",""3"",""23030""
""focus"",""3"",""23041""
""fullscreenenter"",""5"",""37767""
","""event"",""trial"",""time""
""blur"",""3"",""23030""
","""event"",""trial"",""time""
""focus"",""3"",""23041""
","""event"",""trial"",""time""
""fullscreenenter"",""5"",""37767""
","
",62.26500007323921,NA,49,NA,NA,3000,1,"280.2300000330433,471.90999996382743,877.585000009276,1270.58999997098,1522.2700000740588,1736.3200000254437,1937.5800000270829",49494949494949,images/tutgreenplanet.jpg,images/tutalien1,images/tutalien2,null,images/tutalien2,images/t.png,NA,practice,null,NA,NA,NA,NA,sub86
d3-animate-choice,40,309609,0.0-40.0,FALSE,TRUE,FALSE,TRUE,"""event"",""trial"",""time""
""blur"",""3"",""23030""
""focus"",""3"",""23041""
""fullscreenenter"",""5"",""37767""
","""event"",""trial"",""time""
""blur"",""3"",""23030""
","""event"",""trial"",""time""
""focus"",""3"",""23041""
","""event"",""trial"",""time""
""fullscreenenter"",""5"",""37767""
","
",106.1750000808388,NA,49,NA,NA,3000,1,"275.6550000049174,520.2750000171363,661.4050000207499,902.9400000581518,1077.3749999934807,1264.2450000857934,1500.010000076145,1701.8849999876693,1956.8100000033155",494949494949494900,images/tutgreenplanet.jpg,images/tutalien1,images/tutalien2,null,images/tutalien2,images/t.png,NA,practice,null,NA,NA,NA,NA,sub86
d3-animate-choice,41,311650,0.0-41.0,FALSE,TRUE,FALSE,TRUE,"""event"",""trial"",""time""
""blur"",""3"",""23030""
""focus"",""3"",""23041""
""fullscreenenter"",""5"",""37767""
","""event"",""trial"",""time""
""blur"",""3"",""23030""
","""event"",""trial"",""time""
""focus"",""3"",""23041""
","""event"",""trial"",""time""
""fullscreenenter"",""5"",""37767""
","
",36.940000019967556,NA,49,NA,NA,3000,1,"410.03999998793006,661.0599999548867,1185.704999952577,1420.4299999400973,1643.225000007078,1873.4649999532849",494949494949,images/tutgreenplanet.jpg,images/tutalien1,images/tutalien2,null,images/tutalien2,images/t.png,NA,practice,null,NA,NA,NA,NA,sub86
d3-animate-choice,42,313860,0.0-42.0,FALSE,TRUE,FALSE,TRUE,"""event"",""trial"",""time""
""blur"",""3"",""23030""
""focus"",""3"",""23041""
""fullscreenenter"",""5"",""37767""
","""event"",""trial"",""time""
""blur"",""3"",""23030""
","""event"",""trial"",""time""
""focus"",""3"",""23041""
","""event"",""trial"",""time""
""fullscreenenter"",""5"",""37767""
","
",207.31999992858618,NA,49,NA,NA,3000,1,"411.5750000346452,623.2849999796599,855.295000015758,1097.124999971129,1297.4150000372902,1532.4649999383837,1804.3100000359118,2068.269999930635",4949494949494949,images/tutgreenplanet.jpg,images/tutalien1,images/tutalien2,null,images/tutalien2,images/t.png,NA,practice,null,NA,NA,NA,NA,sub86
d3-animate-choice,43,315932,0.0-43.0,FALSE,TRUE,FALSE,TRUE,"""event"",""trial"",""time""
""blur"",""3"",""23030""
""focus"",""3"",""23041""
""fullscreenenter"",""5"",""37767""
","""event"",""trial"",""time""
""blur"",""3"",""23030""
","""event"",""trial"",""time""
""focus"",""3"",""23041""
","""event"",""trial"",""time""
""fullscreenenter"",""5"",""37767""
","
",68.71000002138317,NA,49,NA,NA,3000,1,"363.81000000983477,585.5950000695884,1089.5899999886751,1334.5700000645593,1626.8649999983609,1858.8549999985844",494949494949,images/tutgreenplanet.jpg,images/tutalien1,images/tutalien2,null,images/tutalien2,images/t.png,NA,practice,null,NA,NA,NA,NA,sub86
d3-instructions,44,332743,0.0-44.0,FALSE,TRUE,FALSE,TRUE,"""event"",""trial"",""time""
""blur"",""3"",""23030""
""focus"",""3"",""23041""
""fullscreenenter"",""5"",""37767""
","""event"",""trial"",""time""
""blur"",""3"",""23030""
","""event"",""trial"",""time""
""focus"",""3"",""23041""
","""event"",""trial"",""time""
""fullscreenenter"",""5"",""37767""
","
",NA,NA,NA,NA,NA,NA,NA,NA,NA,NA,NA,NA,NA,NA,NA,NA,NA,NA,NA,NA,NA,NA,sub86
d3-instructions,45,343961,0.0-45.0,FALSE,TRUE,FALSE,TRUE,"""event"",""trial"",""time""
""blur"",""3"",""23030""
""focus"",""3"",""23041""
""fullscreenenter"",""5"",""37767""
","""event"",""trial"",""time""
""blur"",""3"",""23030""
","""event"",""trial"",""time""
""focus"",""3"",""23041""
","""event"",""trial"",""time""
""fullscreenenter"",""5"",""37767""
","
",NA,NA,NA,NA,NA,NA,NA,NA,NA,NA,NA,NA,NA,NA,NA,NA,NA,NA,NA,NA,NA,NA,sub86
d3-instructions,46,348691,0.0-46.0,FALSE,TRUE,FALSE,TRUE,"""event"",""trial"",""time""
""blur"",""3"",""23030""
""focus"",""3"",""23041""
""fullscreenenter"",""5"",""37767""
","""event"",""trial"",""time""
""blur"",""3"",""23030""
","""event"",""trial"",""time""
""focus"",""3"",""23041""
","""event"",""trial"",""time""
""fullscreenenter"",""5"",""37767""
","
",NA,NA,NA,NA,NA,NA,NA,NA,NA,NA,NA,NA,NA,NA,NA,NA,NA,NA,NA,NA,NA,NA,sub86
d3-instructions,47,354662,0.0-47.0,FALSE,TRUE,FALSE,TRUE,"""event"",""trial"",""time""
""blur"",""3"",""23030""
""focus"",""3"",""23041""
""fullscreenenter"",""5"",""37767""
","""event"",""trial"",""time""
""blur"",""3"",""23030""
","""event"",""trial"",""time""
""focus"",""3"",""23041""
","""event"",""trial"",""time""
""fullscreenenter"",""5"",""37767""
","
",NA,NA,NA,NA,NA,NA,NA,NA,NA,NA,NA,NA,NA,NA,NA,NA,NA,NA,NA,NA,NA,NA,sub86
d3-instructions,48,361066,0.0-48.0,FALSE,TRUE,FALSE,TRUE,"""event"",""trial"",""time""
""blur"",""3"",""23030""
""focus"",""3"",""23041""
""fullscreenenter"",""5"",""37767""
","""event"",""trial"",""time""
""blur"",""3"",""23030""
","""event"",""trial"",""time""
""focus"",""3"",""23041""
","""event"",""trial"",""time""
""fullscreenenter"",""5"",""37767""
","
",NA,NA,NA,NA,NA,NA,NA,NA,NA,NA,NA,NA,NA,NA,NA,NA,NA,NA,NA,NA,NA,NA,sub86
d3-instructions,49,376791,0.0-49.0,FALSE,TRUE,FALSE,TRUE,"""event"",""trial"",""time""
""blur"",""3"",""23030""
""focus"",""3"",""23041""
""fullscreenenter"",""5"",""37767""
","""event"",""trial"",""time""
""blur"",""3"",""23030""
","""event"",""trial"",""time""
""focus"",""3"",""23041""
","""event"",""trial"",""time""
""fullscreenenter"",""5"",""37767""
","
",NA,NA,NA,NA,NA,NA,NA,NA,NA,NA,NA,NA,NA,NA,NA,NA,NA,NA,NA,NA,NA,NA,sub86
d3-instructions,50,393354,0.0-50.0,FALSE,TRUE,FALSE,TRUE,"""event"",""trial"",""time""
""blur"",""3"",""23030""
""focus"",""3"",""23041""
""fullscreenenter"",""5"",""37767""
","""event"",""trial"",""time""
""blur"",""3"",""23030""
","""event"",""trial"",""time""
""focus"",""3"",""23041""
","""event"",""trial"",""time""
""fullscreenenter"",""5"",""37767""
","
",NA,NA,NA,NA,NA,NA,NA,NA,NA,NA,NA,NA,NA,NA,NA,NA,NA,NA,NA,NA,NA,NA,sub86
d3-instructions,51,396203,0.0-51.0,FALSE,TRUE,FALSE,TRUE,"""event"",""trial"",""time""
""blur"",""3"",""23030""
""focus"",""3"",""23041""
""fullscreenenter"",""5"",""37767""
","""event"",""trial"",""time""
""blur"",""3"",""23030""
","""event"",""trial"",""time""
""focus"",""3"",""23041""
","""event"",""trial"",""time""
""fullscreenenter"",""5"",""37767""
","
",NA,NA,NA,NA,NA,NA,NA,NA,NA,NA,NA,NA,NA,NA,NA,NA,NA,NA,NA,NA,NA,NA,sub86
d3-instructions,52,399979,0.0-52.0,FALSE,TRUE,FALSE,TRUE,"""event"",""trial"",""time""
""blur"",""3"",""23030""
""focus"",""3"",""23041""
""fullscreenenter"",""5"",""37767""
","""event"",""trial"",""time""
""blur"",""3"",""23030""
","""event"",""trial"",""time""
""focus"",""3"",""23041""
","""event"",""trial"",""time""
""fullscreenenter"",""5"",""37767""
","
",NA,NA,NA,NA,NA,NA,NA,NA,NA,NA,NA,NA,NA,NA,NA,NA,NA,NA,NA,NA,NA,NA,sub86
d3-instructions,53,403343,0.0-53.0,FALSE,TRUE,FALSE,TRUE,"""event"",""trial"",""time""
""blur"",""3"",""23030""
""focus"",""3"",""23041""
""fullscreenenter"",""5"",""37767""
","""event"",""trial"",""time""
""blur"",""3"",""23030""
","""event"",""trial"",""time""
""focus"",""3"",""23041""
","""event"",""trial"",""time""
""fullscreenenter"",""5"",""37767""
","
",NA,NA,NA,NA,NA,NA,NA,NA,NA,NA,NA,NA,NA,NA,NA,NA,NA,NA,NA,NA,NA,NA,sub86
d3-instructions,54,433551,0.0-54.0,FALSE,TRUE,FALSE,TRUE,"""event"",""trial"",""time""
""blur"",""3"",""23030""
""focus"",""3"",""23041""
""fullscreenenter"",""5"",""37767""
","""event"",""trial"",""time""
""blur"",""3"",""23030""
","""event"",""trial"",""time""
""focus"",""3"",""23041""
","""event"",""trial"",""time""
""fullscreenenter"",""5"",""37767""
","
",NA,NA,NA,NA,NA,NA,NA,NA,NA,NA,NA,NA,NA,NA,NA,NA,NA,NA,NA,NA,NA,NA,sub86
d3-instructions,55,446259,0.0-55.0,FALSE,TRUE,FALSE,TRUE,"""event"",""trial"",""time""
""blur"",""3"",""23030""
""focus"",""3"",""23041""
""fullscreenenter"",""5"",""37767""
","""event"",""trial"",""time""
""blur"",""3"",""23030""
","""event"",""trial"",""time""
""focus"",""3"",""23041""
","""event"",""trial"",""time""
""fullscreenenter"",""5"",""37767""
","
",NA,NA,NA,NA,NA,NA,NA,NA,NA,NA,NA,NA,NA,NA,NA,NA,NA,NA,NA,NA,NA,NA,sub86
d3-instructions,56,458632,0.0-56.0,FALSE,TRUE,FALSE,TRUE,"""event"",""trial"",""time""
""blur"",""3"",""23030""
""focus"",""3"",""23041""
""fullscreenenter"",""5"",""37767""
","""event"",""trial"",""time""
""blur"",""3"",""23030""
","""event"",""trial"",""time""
""focus"",""3"",""23041""
","""event"",""trial"",""time""
""fullscreenenter"",""5"",""37767""
","
",NA,NA,NA,NA,NA,NA,NA,NA,NA,NA,NA,NA,NA,NA,NA,NA,NA,NA,NA,NA,NA,NA,sub86
d3-instructions,57,469986,0.0-57.0,FALSE,TRUE,FALSE,TRUE,"""event"",""trial"",""time""
""blur"",""3"",""23030""
""focus"",""3"",""23041""
""fullscreenenter"",""5"",""37767""
","""event"",""trial"",""time""
""blur"",""3"",""23030""
","""event"",""trial"",""time""
""focus"",""3"",""23041""
","""event"",""trial"",""time""
""fullscreenenter"",""5"",""37767""
","
",NA,NA,NA,NA,NA,NA,NA,NA,NA,NA,NA,NA,NA,NA,NA,NA,NA,NA,NA,NA,NA,NA,sub86
d3-instructions,58,480088,0.0-58.0,FALSE,TRUE,FALSE,TRUE,"""event"",""trial"",""time""
""blur"",""3"",""23030""
""focus"",""3"",""23041""
""fullscreenenter"",""5"",""37767""
","""event"",""trial"",""time""
""blur"",""3"",""23030""
","""event"",""trial"",""time""
""focus"",""3"",""23041""
","""event"",""trial"",""time""
""fullscreenenter"",""5"",""37767""
","
",NA,NA,NA,NA,NA,NA,NA,NA,NA,NA,NA,NA,NA,NA,NA,NA,NA,NA,NA,NA,NA,NA,sub86
d3-instructions,59,486170,0.0-59.0,FALSE,TRUE,FALSE,TRUE,"""event"",""trial"",""time""
""blur"",""3"",""23030""
""focus"",""3"",""23041""
""fullscreenenter"",""5"",""37767""
","""event"",""trial"",""time""
""blur"",""3"",""23030""
","""event"",""trial"",""time""
""focus"",""3"",""23041""
","""event"",""trial"",""time""
""fullscreenenter"",""5"",""37767""
","
",NA,NA,NA,NA,NA,NA,NA,NA,NA,NA,NA,NA,NA,NA,NA,NA,NA,NA,NA,NA,NA,NA,sub86
d3-instructions,60,493256,0.0-60.0,FALSE,TRUE,FALSE,TRUE,"""event"",""trial"",""time""
""blur"",""3"",""23030""
""focus"",""3"",""23041""
""fullscreenenter"",""5"",""37767""
","""event"",""trial"",""time""
""blur"",""3"",""23030""
","""event"",""trial"",""time""
""focus"",""3"",""23041""
","""event"",""trial"",""time""
""fullscreenenter"",""5"",""37767""
","
",NA,NA,NA,NA,NA,NA,NA,NA,NA,NA,NA,NA,NA,NA,NA,NA,NA,NA,NA,NA,NA,NA,sub86
d3-animate-choice,61,497243,0.0-61.0-0.0,FALSE,TRUE,FALSE,TRUE,"""event"",""trial"",""time""
""blur"",""3"",""23030""
""focus"",""3"",""23041""
""fullscreenenter"",""5"",""37767""
","""event"",""trial"",""time""
""blur"",""3"",""23030""
","""event"",""trial"",""time""
""focus"",""3"",""23041""
","""event"",""trial"",""time""
""fullscreenenter"",""5"",""37767""
","
",1981.7150000017136,NA,49,NA,NA,3000,1,2155.1500000059605,49,images/earth.jpg,images/tutrocket2,images/tutrocket1,null,images/tutrocket1,NA,1,practice,null,1,NA,NA,NA,sub86
d3-animate-choice,62,501248,0.0-61.0-1.0,FALSE,TRUE,FALSE,TRUE,"""event"",""trial"",""time""
""blur"",""3"",""23030""
""focus"",""3"",""23041""
""fullscreenenter"",""5"",""37767""
","""event"",""trial"",""time""
""blur"",""3"",""23030""
","""event"",""trial"",""time""
""focus"",""3"",""23041""
","""event"",""trial"",""time""
""fullscreenenter"",""5"",""37767""
","
",2192.4300000537187,NA,49,NA,NA,3000,1,2352.8700000606477,49,images/tutyellowplanet.jpg,images/tutalien4,images/tutalien3,images/tutrocket1,images/tutalien3,images/nothing.png,2,practice,false,1,rare,0,2020-06-16T20:33:15Z,sub86
two-step-fixation,63,502252,0.0-61.0-2.0,FALSE,TRUE,FALSE,TRUE,"""event"",""trial"",""time""
""blur"",""3"",""23030""
""focus"",""3"",""23041""
""fullscreenenter"",""5"",""37767""
","""event"",""trial"",""time""
""blur"",""3"",""23030""
","""event"",""trial"",""time""
""focus"",""3"",""23041""
","""event"",""trial"",""time""
""fullscreenenter"",""5"",""37767""
","
",NA,images/earth.jpg,NA,NA,NA,NA,NA,NA,NA,NA,NA,NA,NA,NA,NA,fixation,NA,NA,NA,NA,NA,NA,sub86
d3-animate-choice,64,505481,0.0-61.0-0.1,FALSE,TRUE,FALSE,TRUE,"""event"",""trial"",""time""
""blur"",""3"",""23030""
""focus"",""3"",""23041""
""fullscreenenter"",""5"",""37767""
","""event"",""trial"",""time""
""blur"",""3"",""23030""
","""event"",""trial"",""time""
""focus"",""3"",""23041""
","""event"",""trial"",""time""
""fullscreenenter"",""5"",""37767""
","
",1225.6150000030175,NA,49,NA,NA,3000,1,"1397.330000065267,1641.5399999823421",4949,images/earth.jpg,images/tutrocket2,images/tutrocket1,null,images/tutrocket1,NA,1,practice,null,1,NA,NA,NA,sub86
d3-animate-choice,65,508247,0.0-61.0-1.1,FALSE,TRUE,FALSE,TRUE,"""event"",""trial"",""time""
""blur"",""3"",""23030""
""focus"",""3"",""23041""
""fullscreenenter"",""5"",""37767""
","""event"",""trial"",""time""
""blur"",""3"",""23030""
","""event"",""trial"",""time""
""focus"",""3"",""23041""
","""event"",""trial"",""time""
""fullscreenenter"",""5"",""37767""
","
",762.0500000193715,NA,49,NA,NA,3000,1,"936.6049999371171,1107.7349999686703",4949,images/tutyellowplanet.jpg,images/tutalien4,images/tutalien3,images/tutrocket1,images/tutalien3,images/t.png,2,practice,false,1,rare,1,2020-06-16T20:33:22Z,sub86
two-step-fixation,66,509250,0.0-61.0-2.1,FALSE,TRUE,FALSE,TRUE,"""event"",""trial"",""time""
""blur"",""3"",""23030""
""focus"",""3"",""23041""
""fullscreenenter"",""5"",""37767""
","""event"",""trial"",""time""
""blur"",""3"",""23030""
","""event"",""trial"",""time""
""focus"",""3"",""23041""
","""event"",""trial"",""time""
""fullscreenenter"",""5"",""37767""
","
",NA,images/earth.jpg,NA,NA,NA,NA,NA,NA,NA,NA,NA,NA,NA,NA,NA,fixation,NA,NA,NA,NA,NA,NA,sub86
d3-animate-choice,67,511588,0.0-61.0-0.2,FALSE,TRUE,FALSE,TRUE,"""event"",""trial"",""time""
""blur"",""3"",""23030""
""focus"",""3"",""23041""
""fullscreenenter"",""5"",""37767""
","""event"",""trial"",""time""
""blur"",""3"",""23030""
","""event"",""trial"",""time""
""focus"",""3"",""23041""
","""event"",""trial"",""time""
""fullscreenenter"",""5"",""37767""
","
",334.28499998990446,NA,49,NA,NA,3000,1,"525.2049999544397,699.0949999308214,1038.884999928996,1425.58000003919,1617.0050000073388,1810.9399999957532,2029.8249999759719,2224.1500000236556",4949494949494949,images/earth.jpg,images/tutrocket2,images/tutrocket1,null,images/tutrocket1,NA,1,practice,null,1,NA,NA,NA,sub86
d3-animate-choice,68,513698,0.0-61.0-1.2,FALSE,TRUE,FALSE,TRUE,"""event"",""trial"",""time""
""blur"",""3"",""23030""
""focus"",""3"",""23041""
""fullscreenenter"",""5"",""37767""
","""event"",""trial"",""time""
""blur"",""3"",""23030""
","""event"",""trial"",""time""
""focus"",""3"",""23041""
","""event"",""trial"",""time""
""fullscreenenter"",""5"",""37767""
","
",106.26499995123595,NA,49,NA,NA,3000,1,"308.2899999571964,529.7799999825656,731.5500000258908,956.0699999565259,1176.8349999329075,1790.874999947846,2046.265000011772",49494949494949,images/tutyellowplanet.jpg,images/tutalien4,images/tutalien3,images/tutrocket1,images/tutalien3,images/nothing.png,2,practice,false,1,rare,0,2020-06-16T20:33:27Z,sub86
two-step-fixation,69,514700,0.0-61.0-2.2,FALSE,TRUE,FALSE,TRUE,"""event"",""trial"",""time""
""blur"",""3"",""23030""
""focus"",""3"",""23041""
""fullscreenenter"",""5"",""37767""
","""event"",""trial"",""time""
""blur"",""3"",""23030""
","""event"",""trial"",""time""
""focus"",""3"",""23041""
","""event"",""trial"",""time""
""fullscreenenter"",""5"",""37767""
","
",NA,images/earth.jpg,NA,NA,NA,NA,NA,NA,NA,NA,NA,NA,NA,NA,NA,fixation,NA,NA,NA,NA,NA,NA,sub86
d3-animate-choice,70,518705,0.0-61.0-0.3,FALSE,TRUE,FALSE,TRUE,"""event"",""trial"",""time""
""blur"",""3"",""23030""
""focus"",""3"",""23041""
""fullscreenenter"",""5"",""37767""
","""event"",""trial"",""time""
""blur"",""3"",""23030""
","""event"",""trial"",""time""
""focus"",""3"",""23041""
","""event"",""trial"",""time""
""fullscreenenter"",""5"",""37767""
","
",2879.3799999402836,NA,48,NA,NA,3000,1,3080.4149999748915,48,images/earth.jpg,images/tutrocket2,images/tutrocket1,null,images/tutrocket2,NA,1,practice,null,2,NA,NA,NA,sub86
d3-animate-choice,71,522594,0.0-61.0-1.3,FALSE,TRUE,FALSE,TRUE,"""event"",""trial"",""time""
""blur"",""3"",""23030""
""focus"",""3"",""23041""
""fullscreenenter"",""5"",""37767""
","""event"",""trial"",""time""
""blur"",""3"",""23030""
","""event"",""trial"",""time""
""focus"",""3"",""23041""
","""event"",""trial"",""time""
""fullscreenenter"",""5"",""37767""
","
",1884.7250000108033,NA,48,NA,NA,3000,1,NA,NA,images/tutyellowplanet.jpg,images/tutalien4,images/tutalien3,images/tutrocket2,images/tutalien4,images/t.png,2,practice,true,2,common,1,2020-06-16T20:33:36Z,sub86
two-step-fixation,72,523597,0.0-61.0-2.3,FALSE,TRUE,FALSE,TRUE,"""event"",""trial"",""time""
""blur"",""3"",""23030""
""focus"",""3"",""23041""
""fullscreenenter"",""5"",""37767""
","""event"",""trial"",""time""
""blur"",""3"",""23030""
","""event"",""trial"",""time""
""focus"",""3"",""23041""
","""event"",""trial"",""time""
""fullscreenenter"",""5"",""37767""
","
",NA,images/earth.jpg,NA,NA,NA,NA,NA,NA,NA,NA,NA,NA,NA,NA,NA,fixation,NA,NA,NA,NA,NA,NA,sub86
d3-animate-choice,73,526109,0.0-61.0-0.4,FALSE,TRUE,FALSE,TRUE,"""event"",""trial"",""time""
""blur"",""3"",""23030""
""focus"",""3"",""23041""
""fullscreenenter"",""5"",""37767""
","""event"",""trial"",""time""
""blur"",""3"",""23030""
","""event"",""trial"",""time""
""focus"",""3"",""23041""
","""event"",""trial"",""time""
""fullscreenenter"",""5"",""37767""
","
",509.070000029169,NA,48,NA,NA,3000,1,"798.4700000379235,2199.1200000047684,2420.1950000133365",484848,images/earth.jpg,images/tutrocket2,images/tutrocket1,null,images/tutrocket2,NA,1,practice,null,2,NA,NA,NA,sub86
d3-animate-choice,74,528626,0.0-61.0-1.4,FALSE,TRUE,FALSE,TRUE,"""event"",""trial"",""time""
""blur"",""3"",""23030""
""focus"",""3"",""23041""
""fullscreenenter"",""5"",""37767""
","""event"",""trial"",""time""
""blur"",""3"",""23030""
","""event"",""trial"",""time""
""focus"",""3"",""23041""
","""event"",""trial"",""time""
""fullscreenenter"",""5"",""37767""
","
",514.0999999130145,NA,48,NA,NA,3000,1,"675.6949999835342,876.7199999419972",4848,images/tutyellowplanet.jpg,images/tutalien4,images/tutalien3,images/tutrocket2,images/tutalien4,images/nothing.png,2,practice,true,2,common,0,2020-06-16T20:33:42Z,sub86
two-step-fixation,75,529629,0.0-61.0-2.4,FALSE,TRUE,FALSE,TRUE,"""event"",""trial"",""time""
""blur"",""3"",""23030""
""focus"",""3"",""23041""
""fullscreenenter"",""5"",""37767""
","""event"",""trial"",""time""
""blur"",""3"",""23030""
","""event"",""trial"",""time""
""focus"",""3"",""23041""
","""event"",""trial"",""time""
""fullscreenenter"",""5"",""37767""
","
",NA,images/earth.jpg,NA,NA,NA,NA,NA,NA,NA,NA,NA,NA,NA,NA,NA,fixation,NA,NA,NA,NA,NA,NA,sub86
d3-animate-choice,76,532020,0.0-61.0-0.5,FALSE,TRUE,FALSE,TRUE,"""event"",""trial"",""time""
""blur"",""3"",""23030""
""focus"",""3"",""23041""
""fullscreenenter"",""5"",""37767""
","""event"",""trial"",""time""
""blur"",""3"",""23030""
","""event"",""trial"",""time""
""focus"",""3"",""23041""
","""event"",""trial"",""time""
""fullscreenenter"",""5"",""37767""
","
",389.02000000234693,NA,48,NA,NA,3000,1,NA,NA,images/earth.jpg,images/tutrocket2,images/tutrocket1,null,images/tutrocket2,NA,1,practice,null,2,NA,NA,NA,sub86
d3-animate-choice,77,534421,0.0-61.0-1.5,FALSE,TRUE,FALSE,TRUE,"""event"",""trial"",""time""
""blur"",""3"",""23030""
""focus"",""3"",""23041""
""fullscreenenter"",""5"",""37767""
","""event"",""trial"",""time""
""blur"",""3"",""23030""
","""event"",""trial"",""time""
""focus"",""3"",""23041""
","""event"",""trial"",""time""
""fullscreenenter"",""5"",""37767""
","
",398.44000001903623,NA,48,NA,NA,3000,1,NA,NA,images/tutyellowplanet.jpg,images/tutalien4,images/tutalien3,images/tutrocket2,images/tutalien4,images/t.png,2,practice,true,2,common,1,2020-06-16T20:33:48Z,sub86
two-step-fixation,78,535425,0.0-61.0-2.5,FALSE,TRUE,FALSE,TRUE,"""event"",""trial"",""time""
""blur"",""3"",""23030""
""focus"",""3"",""23041""
""fullscreenenter"",""5"",""37767""
","""event"",""trial"",""time""
""blur"",""3"",""23030""
","""event"",""trial"",""time""
""focus"",""3"",""23041""
","""event"",""trial"",""time""
""fullscreenenter"",""5"",""37767""
","
",NA,images/earth.jpg,NA,NA,NA,NA,NA,NA,NA,NA,NA,NA,NA,NA,NA,fixation,NA,NA,NA,NA,NA,NA,sub86
d3-animate-choice,79,538487,0.0-61.0-0.6,FALSE,TRUE,FALSE,TRUE,"""event"",""trial"",""time""
""blur"",""3"",""23030""
""focus"",""3"",""23041""
""fullscreenenter"",""5"",""37767""
","""event"",""trial"",""time""
""blur"",""3"",""23030""
","""event"",""trial"",""time""
""focus"",""3"",""23041""
","""event"",""trial"",""time""
""fullscreenenter"",""5"",""37767""
","
",1058.8749999878928,NA,48,NA,NA,3000,1,NA,NA,images/earth.jpg,images/tutrocket2,images/tutrocket1,null,images/tutrocket2,NA,1,practice,null,2,NA,NA,NA,sub86
d3-animate-choice,80,540827,0.0-61.0-1.6,FALSE,TRUE,FALSE,TRUE,"""event"",""trial"",""time""
""blur"",""3"",""23030""
""focus"",""3"",""23041""
""fullscreenenter"",""5"",""37767""
","""event"",""trial"",""time""
""blur"",""3"",""23030""
","""event"",""trial"",""time""
""focus"",""3"",""23041""
","""event"",""trial"",""time""
""fullscreenenter"",""5"",""37767""
","
",336.974999983795,NA,49,NA,NA,3000,1,"578.9349999977276,754.215000080876,922.6250000065193",494949,images/tutyellowplanet.jpg,images/tutalien4,images/tutalien3,images/tutrocket2,images/tutalien3,images/nothing.png,2,practice,true,1,common,0,2020-06-16T20:33:55Z,sub86
two-step-fixation,81,541829,0.0-61.0-2.6,FALSE,TRUE,FALSE,TRUE,"""event"",""trial"",""time""
""blur"",""3"",""23030""
""focus"",""3"",""23041""
""fullscreenenter"",""5"",""37767""
","""event"",""trial"",""time""
""blur"",""3"",""23030""
","""event"",""trial"",""time""
""focus"",""3"",""23041""
","""event"",""trial"",""time""
""fullscreenenter"",""5"",""37767""
","
",NA,images/earth.jpg,NA,NA,NA,NA,NA,NA,NA,NA,NA,NA,NA,NA,NA,fixation,NA,NA,NA,NA,NA,NA,sub86
d3-animate-choice,82,545114,0.0-61.0-0.7,FALSE,TRUE,FALSE,TRUE,"""event"",""trial"",""time""
""blur"",""3"",""23030""
""focus"",""3"",""23041""
""fullscreenenter"",""5"",""37767""
","""event"",""trial"",""time""
""blur"",""3"",""23030""
","""event"",""trial"",""time""
""focus"",""3"",""23041""
","""event"",""trial"",""time""
""fullscreenenter"",""5"",""37767""
","
",1281.7700000014156,NA,49,NA,NA,3000,1,NA,NA,images/earth.jpg,images/tutrocket2,images/tutrocket1,null,images/tutrocket1,NA,1,practice,null,1,NA,NA,NA,sub86
d3-animate-choice,83,547481,0.0-61.0-1.7,FALSE,TRUE,FALSE,TRUE,"""event"",""trial"",""time""
""blur"",""3"",""23030""
""focus"",""3"",""23041""
""fullscreenenter"",""5"",""37767""
","""event"",""trial"",""time""
""blur"",""3"",""23030""
","""event"",""trial"",""time""
""focus"",""3"",""23041""
","""event"",""trial"",""time""
""fullscreenenter"",""5"",""37767""
","
",363.2350000552833,NA,49,NA,NA,3000,1,NA,NA,images/tutgreenplanet.jpg,images/tutalien2,images/tutalien1,images/tutrocket1,images/tutalien1,images/nothing.png,2,practice,true,1,common,0,2020-06-16T20:34:01Z,sub86
two-step-fixation,84,548485,0.0-61.0-2.7,FALSE,TRUE,FALSE,TRUE,"""event"",""trial"",""time""
""blur"",""3"",""23030""
""focus"",""3"",""23041""
""fullscreenenter"",""5"",""37767""
","""event"",""trial"",""time""
""blur"",""3"",""23030""
","""event"",""trial"",""time""
""focus"",""3"",""23041""
","""event"",""trial"",""time""
""fullscreenenter"",""5"",""37767""
","
",NA,images/earth.jpg,NA,NA,NA,NA,NA,NA,NA,NA,NA,NA,NA,NA,NA,fixation,NA,NA,NA,NA,NA,NA,sub86
d3-animate-choice,85,550553,0.0-61.0-0.8,FALSE,TRUE,FALSE,TRUE,"""event"",""trial"",""time""
""blur"",""3"",""23030""
""focus"",""3"",""23041""
""fullscreenenter"",""5"",""37767""
","""event"",""trial"",""time""
""blur"",""3"",""23030""
","""event"",""trial"",""time""
""focus"",""3"",""23041""
","""event"",""trial"",""time""
""fullscreenenter"",""5"",""37767""
","
",64.49999997857958,NA,49,NA,NA,3000,1,NA,NA,images/earth.jpg,images/tutrocket2,images/tutrocket1,null,images/tutrocket1,NA,1,practice,null,1,NA,NA,NA,sub86
d3-animate-choice,86,552999,0.0-61.0-1.8,FALSE,TRUE,FALSE,TRUE,"""event"",""trial"",""time""
""blur"",""3"",""23030""
""focus"",""3"",""23041""
""fullscreenenter"",""5"",""37767""
","""event"",""trial"",""time""
""blur"",""3"",""23030""
","""event"",""trial"",""time""
""focus"",""3"",""23041""
","""event"",""trial"",""time""
""fullscreenenter"",""5"",""37767""
","
",440.7849999843165,NA,48,NA,NA,3000,1,NA,NA,images/tutgreenplanet.jpg,images/tutalien2,images/tutalien1,images/tutrocket1,images/tutalien2,images/nothing.png,2,practice,true,2,common,0,2020-06-16T20:34:07Z,sub86
two-step-fixation,87,554001,0.0-61.0-2.8,FALSE,TRUE,FALSE,TRUE,"""event"",""trial"",""time""
""blur"",""3"",""23030""
""focus"",""3"",""23041""
""fullscreenenter"",""5"",""37767""
","""event"",""trial"",""time""
""blur"",""3"",""23030""
","""event"",""trial"",""time""
""focus"",""3"",""23041""
","""event"",""trial"",""time""
""fullscreenenter"",""5"",""37767""
","
",NA,images/earth.jpg,NA,NA,NA,NA,NA,NA,NA,NA,NA,NA,NA,NA,NA,fixation,NA,NA,NA,NA,NA,NA,sub86
d3-animate-choice,88,556035,0.0-61.0-0.9,FALSE,TRUE,FALSE,TRUE,"""event"",""trial"",""time""
""blur"",""3"",""23030""
""focus"",""3"",""23041""
""fullscreenenter"",""5"",""37767""
","""event"",""trial"",""time""
""blur"",""3"",""23030""
","""event"",""trial"",""time""
""focus"",""3"",""23041""
","""event"",""trial"",""time""
""fullscreenenter"",""5"",""37767""
","
",30.499999993480742,NA,48,NA,NA,3000,1,NA,NA,images/earth.jpg,images/tutrocket2,images/tutrocket1,null,images/tutrocket2,NA,1,practice,null,2,NA,NA,NA,sub86
d3-animate-choice,89,559040,0.0-61.0-1.9,FALSE,TRUE,FALSE,TRUE,"""event"",""trial"",""time""
""blur"",""3"",""23030""
""focus"",""3"",""23041""
""fullscreenenter"",""5"",""37767""
","""event"",""trial"",""time""
""blur"",""3"",""23030""
","""event"",""trial"",""time""
""focus"",""3"",""23041""
","""event"",""trial"",""time""
""fullscreenenter"",""5"",""37767""
","
",1001.6199999954551,NA,48,NA,NA,3000,1,NA,NA,images/tutyellowplanet.jpg,images/tutalien4,images/tutalien3,images/tutrocket2,images/tutalien4,images/t.png,2,practice,true,2,common,1,2020-06-16T20:34:13Z,sub86
two-step-fixation,90,560043,0.0-61.0-2.9,FALSE,TRUE,FALSE,TRUE,"""event"",""trial"",""time""
""blur"",""3"",""23030""
""focus"",""3"",""23041""
""fullscreenenter"",""5"",""37767""
","""event"",""trial"",""time""
""blur"",""3"",""23030""
","""event"",""trial"",""time""
""focus"",""3"",""23041""
","""event"",""trial"",""time""
""fullscreenenter"",""5"",""37767""
","
",NA,images/earth.jpg,NA,NA,NA,NA,NA,NA,NA,NA,NA,NA,NA,NA,NA,fixation,NA,NA,NA,NA,NA,NA,sub86
d3-animate-choice,91,562337,0.0-61.0-0.10,FALSE,TRUE,FALSE,TRUE,"""event"",""trial"",""time""
""blur"",""3"",""23030""
""focus"",""3"",""23041""
""fullscreenenter"",""5"",""37767""
","""event"",""trial"",""time""
""blur"",""3"",""23030""
","""event"",""trial"",""time""
""focus"",""3"",""23041""
","""event"",""trial"",""time""
""fullscreenenter"",""5"",""37767""
","
",290.2849999954924,NA,49,NA,NA,3000,1,NA,NA,images/earth.jpg,images/tutrocket2,images/tutrocket1,null,images/tutrocket1,NA,1,practice,null,1,NA,NA,NA,sub86
d3-animate-choice,92,564842,0.0-61.0-1.10,FALSE,TRUE,FALSE,TRUE,"""event"",""trial"",""time""
""blur"",""3"",""23030""
""focus"",""3"",""23041""
""fullscreenenter"",""5"",""37767""
","""event"",""trial"",""time""
""blur"",""3"",""23030""
","""event"",""trial"",""time""
""focus"",""3"",""23041""
","""event"",""trial"",""time""
""fullscreenenter"",""5"",""37767""
","
",502.6799999177456,NA,49,NA,NA,3000,1,NA,NA,images/tutgreenplanet.jpg,images/tutalien2,images/tutalien1,images/tutrocket1,images/tutalien1,images/t.png,2,practice,true,1,common,1,2020-06-16T20:34:19Z,sub86
two-step-fixation,93,565845,0.0-61.0-2.10,FALSE,TRUE,FALSE,TRUE,"""event"",""trial"",""time""
""blur"",""3"",""23030""
""focus"",""3"",""23041""
""fullscreenenter"",""5"",""37767""
","""event"",""trial"",""time""
""blur"",""3"",""23030""
","""event"",""trial"",""time""
""focus"",""3"",""23041""
","""event"",""trial"",""time""
""fullscreenenter"",""5"",""37767""
","
",NA,images/earth.jpg,NA,NA,NA,NA,NA,NA,NA,NA,NA,NA,NA,NA,NA,fixation,NA,NA,NA,NA,NA,NA,sub86
d3-animate-choice,94,568321,0.0-61.0-0.11,FALSE,TRUE,FALSE,TRUE,"""event"",""trial"",""time""
""blur"",""3"",""23030""
""focus"",""3"",""23041""
""fullscreenenter"",""5"",""37767""
","""event"",""trial"",""time""
""blur"",""3"",""23030""
","""event"",""trial"",""time""
""focus"",""3"",""23041""
","""event"",""trial"",""time""
""fullscreenenter"",""5"",""37767""
","
",473.9249999402091,NA,48,NA,NA,3000,1,NA,NA,images/earth.jpg,images/tutrocket2,images/tutrocket1,null,images/tutrocket2,NA,1,practice,null,2,NA,NA,NA,sub86
d3-animate-choice,95,570662,0.0-61.0-1.11,FALSE,TRUE,FALSE,TRUE,"""event"",""trial"",""time""
""blur"",""3"",""23030""
""focus"",""3"",""23041""
""fullscreenenter"",""5"",""37767""
","""event"",""trial"",""time""
""blur"",""3"",""23030""
","""event"",""trial"",""time""
""focus"",""3"",""23041""
","""event"",""trial"",""time""
""fullscreenenter"",""5"",""37767""
","
",337.08999992813915,NA,49,NA,NA,3000,1,NA,NA,images/tutyellowplanet.jpg,images/tutalien4,images/tutalien3,images/tutrocket2,images/tutalien3,images/nothing.png,2,practice,true,1,common,0,2020-06-16T20:34:24Z,sub86
two-step-fixation,96,571667,0.0-61.0-2.11,FALSE,TRUE,FALSE,TRUE,"""event"",""trial"",""time""
""blur"",""3"",""23030""
""focus"",""3"",""23041""
""fullscreenenter"",""5"",""37767""
","""event"",""trial"",""time""
""blur"",""3"",""23030""
","""event"",""trial"",""time""
""focus"",""3"",""23041""
","""event"",""trial"",""time""
""fullscreenenter"",""5"",""37767""
","
",NA,images/earth.jpg,NA,NA,NA,NA,NA,NA,NA,NA,NA,NA,NA,NA,NA,fixation,NA,NA,NA,NA,NA,NA,sub86
d3-animate-choice,97,574270,0.0-61.0-0.12,FALSE,TRUE,FALSE,TRUE,"""event"",""trial"",""time""
""blur"",""3"",""23030""
""focus"",""3"",""23041""
""fullscreenenter"",""5"",""37767""
","""event"",""trial"",""time""
""blur"",""3"",""23030""
","""event"",""trial"",""time""
""focus"",""3"",""23041""
","""event"",""trial"",""time""
""fullscreenenter"",""5"",""37767""
","
",600.0350000103936,NA,48,NA,NA,3000,1,NA,NA,images/earth.jpg,images/tutrocket2,images/tutrocket1,null,images/tutrocket2,NA,1,practice,null,2,NA,NA,NA,sub86
d3-animate-choice,98,576969,0.0-61.0-1.12,FALSE,TRUE,FALSE,TRUE,"""event"",""trial"",""time""
""blur"",""3"",""23030""
""focus"",""3"",""23041""
""fullscreenenter"",""5"",""37767""
","""event"",""trial"",""time""
""blur"",""3"",""23030""
","""event"",""trial"",""time""
""focus"",""3"",""23041""
","""event"",""trial"",""time""
""fullscreenenter"",""5"",""37767""
","
",694.4349999539554,NA,49,NA,NA,3000,1,NA,NA,images/tutyellowplanet.jpg,images/tutalien4,images/tutalien3,images/tutrocket2,images/tutalien3,images/t.png,2,practice,true,1,common,1,2020-06-16T20:34:31Z,sub86
two-step-fixation,99,577971,0.0-61.0-2.12,FALSE,TRUE,FALSE,TRUE,"""event"",""trial"",""time""
""blur"",""3"",""23030""
""focus"",""3"",""23041""
""fullscreenenter"",""5"",""37767""
","""event"",""trial"",""time""
""blur"",""3"",""23030""
","""event"",""trial"",""time""
""focus"",""3"",""23041""
","""event"",""trial"",""time""
""fullscreenenter"",""5"",""37767""
","
",NA,images/earth.jpg,NA,NA,NA,NA,NA,NA,NA,NA,NA,NA,NA,NA,NA,fixation,NA,NA,NA,NA,NA,NA,sub86
d3-animate-choice,100,580111,0.0-61.0-0.13,FALSE,TRUE,FALSE,TRUE,"""event"",""trial"",""time""
""blur"",""3"",""23030""
""focus"",""3"",""23041""
""fullscreenenter"",""5"",""37767""
","""event"",""trial"",""time""
""blur"",""3"",""23030""
","""event"",""trial"",""time""
""focus"",""3"",""23041""
","""event"",""trial"",""time""
""fullscreenenter"",""5"",""37767""
","
",137.70500000100583,NA,48,NA,NA,3000,1,"268.91999994404614,493.58000000938773,661.0850000288337,843.2249999605119,923.5649999463931,1168.1899999966845,1338.8999999733642,1514.5499999634922,1554.9950000131503,1752.0500000100583,1803.1699999701232,1957.0700000040233",4948494849484948e8,images/earth.jpg,images/tutrocket2,images/tutrocket1,null,images/tutrocket2,NA,1,practice,null,2,NA,NA,NA,sub86
d3-animate-choice,101,582134,0.0-61.0-1.13,FALSE,TRUE,FALSE,TRUE,"""event"",""trial"",""time""
""blur"",""3"",""23030""
""focus"",""3"",""23041""
""fullscreenenter"",""5"",""37767""
","""event"",""trial"",""time""
""blur"",""3"",""23030""
","""event"",""trial"",""time""
""focus"",""3"",""23041""
","""event"",""trial"",""time""
""fullscreenenter"",""5"",""37767""
","
",17.054999945685267,NA,49,NA,NA,3000,1,"37.490000016987324,209.21500003896654,249.22500003594905,403.1599999871105,405.3899999707937,561.4000000059605,601.314999978058,763.1899999687448,806.1100000049919,937.4949999619275,1051.175000029616,1179.0699999546632,1263.0450000287965,1352.8950000181794,1460.369999986142,1601.8900000490248,1695.8200000226498,1826.465000049211,1906.944999936968,1966.8949999613687",4849484948494847e24,images/tutgreenplanet.jpg,images/tutalien2,images/tutalien1,images/tutrocket2,images/tutalien1,images/t.png,2,practice,false,1,rare,1,2020-06-16T20:34:36Z,sub86
two-step-fixation,102,583136,0.0-61.0-2.13,FALSE,TRUE,FALSE,TRUE,"""event"",""trial"",""time""
""blur"",""3"",""23030""
""focus"",""3"",""23041""
""fullscreenenter"",""5"",""37767""
","""event"",""trial"",""time""
""blur"",""3"",""23030""
","""event"",""trial"",""time""
""focus"",""3"",""23041""
","""event"",""trial"",""time""
""fullscreenenter"",""5"",""37767""
","
",NA,images/earth.jpg,NA,NA,NA,NA,NA,NA,NA,NA,NA,NA,NA,NA,NA,fixation,NA,NA,NA,NA,NA,NA,sub86
d3-animate-choice,103,585163,0.0-61.0-0.14,FALSE,TRUE,FALSE,TRUE,"""event"",""trial"",""time""
""blur"",""3"",""23030""
""focus"",""3"",""23041""
""fullscreenenter"",""5"",""37767""
","""event"",""trial"",""time""
""blur"",""3"",""23030""
","""event"",""trial"",""time""
""focus"",""3"",""23041""
","""event"",""trial"",""time""
""fullscreenenter"",""5"",""37767""
","
",24.334999965503812,NA,48,NA,NA,3000,1,"215.8949999138713,245.89999997988343,420.32999999355525,478.02499996032566,659.0499999001622,698.9899999462068,893.0099999997765,913.9299999224022,1075.3249999834225,1135.994999902323,1256.8949999986216,1350.2249999437481,1489.824999938719,1569.7049999143928,1761.2099999096245,1857.7799999620765,1925.334999919869,1955.5449999170378",49484948494849485e19,images/earth.jpg,images/tutrocket2,images/tutrocket1,null,images/tutrocket2,NA,1,practice,null,2,NA,NA,NA,sub86
d3-animate-choice,104,587346,0.0-61.0-1.14,FALSE,TRUE,FALSE,TRUE,"""event"",""trial"",""time""
""blur"",""3"",""23030""
""focus"",""3"",""23041""
""fullscreenenter"",""5"",""37767""
","""event"",""trial"",""time""
""blur"",""3"",""23030""
","""event"",""trial"",""time""
""focus"",""3"",""23041""
","""event"",""trial"",""time""
""fullscreenenter"",""5"",""37767""
","
",180.32000004313886,NA,49,NA,NA,3000,1,"181.66000000201166,414.6349999355152,416.9250000268221,582.1699999505654,654.1849999921396,817.8550000302494,878.6049999762326,1059.4399999827147,1109.859999967739,1260.5050000129268,1338.3499999763444,1471.6949999565259,1564.5950000034645,1672.6149999303743,1816.1349999718368,1887.540000025183,2109.3800000380725,2110.4749999940395",4849484948494847e20,images/tutyellowplanet.jpg,images/tutalien4,images/tutalien3,images/tutrocket2,images/tutalien3,images/nothing.png,2,practice,true,1,common,0,2020-06-16T20:34:41Z,sub86
two-step-fixation,105,588348,0.0-61.0-2.14,FALSE,TRUE,FALSE,TRUE,"""event"",""trial"",""time""
""blur"",""3"",""23030""
""focus"",""3"",""23041""
""fullscreenenter"",""5"",""37767""
","""event"",""trial"",""time""
""blur"",""3"",""23030""
","""event"",""trial"",""time""
""focus"",""3"",""23041""
","""event"",""trial"",""time""
""fullscreenenter"",""5"",""37767""
","
",NA,images/earth.jpg,NA,NA,NA,NA,NA,NA,NA,NA,NA,NA,NA,NA,NA,fixation,NA,NA,NA,NA,NA,NA,sub86
d3-animate-choice,106,590459,0.0-61.0-0.15,FALSE,TRUE,FALSE,TRUE,"""event"",""trial"",""time""
""blur"",""3"",""23030""
""focus"",""3"",""23041""
""fullscreenenter"",""5"",""37767""
","""event"",""trial"",""time""
""blur"",""3"",""23030""
","""event"",""trial"",""time""
""focus"",""3"",""23041""
","""event"",""trial"",""time""
""fullscreenenter"",""5"",""37767""
","
",107.48499992769212,NA,48,NA,NA,3000,1,"160.76999995857477,319.0900000045076,339.4449999323115,510.08499995805323,512.6049999380484,694.8799999663606,696.1899999296293,855.8949999278411,895.7899999804795,1046.5349999722093,1087.5399999786168,1221.4000000385568,1378.6850000033155,1483.6600000271574,1591.3949999958277,1694.3299999693409,1775.3249999368563,1886.1150000011548,1956.694999942556,2098.0149999959394",49484949484948486e23,images/earth.jpg,images/tutrocket2,images/tutrocket1,null,images/tutrocket2,NA,1,practice,null,2,NA,NA,NA,sub86
d3-animate-choice,107,592493,0.0-61.0-1.15,FALSE,TRUE,FALSE,TRUE,"""event"",""trial"",""time""
""blur"",""3"",""23030""
""focus"",""3"",""23041""
""fullscreenenter"",""5"",""37767""
","""event"",""trial"",""time""
""blur"",""3"",""23030""
","""event"",""trial"",""time""
""focus"",""3"",""23041""
","""event"",""trial"",""time""
""fullscreenenter"",""5"",""37767""
","
",29.07499996945262,NA,49,NA,NA,3000,1,"206.8250000011176,209.48499999940395,377.87500000558794,408.10500003863126,561.9149999693036,753.5599999828264,924.7550000436604,955.530000035651,1140.0099999736995,1141.3699999684468,1337.6599999610335,1340.1000000303611,1499.115000013262,1552.670000004582,1693.0799999972805,1733.1349999876693,1884.4650000100955,1935.0550000090152",49484948494948485e19,images/tutyellowplanet.jpg,images/tutalien4,images/tutalien3,images/tutrocket2,images/tutalien3,images/nothing.png,2,practice,true,1,common,0,2020-06-16T20:34:46Z,sub86
two-step-fixation,108,593496,0.0-61.0-2.15,FALSE,TRUE,FALSE,TRUE,"""event"",""trial"",""time""
""blur"",""3"",""23030""
""focus"",""3"",""23041""
""fullscreenenter"",""5"",""37767""
","""event"",""trial"",""time""
""blur"",""3"",""23030""
","""event"",""trial"",""time""
""focus"",""3"",""23041""
","""event"",""trial"",""time""
""fullscreenenter"",""5"",""37767""
","
",NA,images/earth.jpg,NA,NA,NA,NA,NA,NA,NA,NA,NA,NA,NA,NA,NA,fixation,NA,NA,NA,NA,NA,NA,sub86
d3-animate-choice,109,595603,0.0-61.0-0.16,FALSE,TRUE,FALSE,TRUE,"""event"",""trial"",""time""
""blur"",""3"",""23030""
""focus"",""3"",""23041""
""fullscreenenter"",""5"",""37767""
","""event"",""trial"",""time""
""blur"",""3"",""23030""
","""event"",""trial"",""time""
""focus"",""3"",""23041""
","""event"",""trial"",""time""
""fullscreenenter"",""5"",""37767""
","
",103.7650000071153,NA,49,NA,NA,3000,1,"176.13999999593943,273.3549999538809,373.8299999386072,414.00999994948506,578.3799999626353,597.3399999784306,768.8799999887124,789.1400000080466,971.2199999485165,1013.8799999840558,1172.5199999054894,1246.8849999131635,1373.989999992773,1444.149999995716,1547.3849999252707,1688.9299999456853,1718.9099999377504,1900.275000021793,1920.2199999708682,2085.2399999275804",48494849484949505e23,images/earth.jpg,images/tutrocket2,images/tutrocket1,null,images/tutrocket1,NA,1,practice,null,1,NA,NA,NA,sub86
d3-animate-choice,110,597657,0.0-61.0-1.16,FALSE,TRUE,FALSE,TRUE,"""event"",""trial"",""time""
""blur"",""3"",""23030""
""focus"",""3"",""23041""
""fullscreenenter"",""5"",""37767""
","""event"",""trial"",""time""
""blur"",""3"",""23030""
","""event"",""trial"",""time""
""focus"",""3"",""23041""
","""event"",""trial"",""time""
""fullscreenenter"",""5"",""37767""
","
",50.95999990589917,NA,48,NA,NA,3000,1,"165.04499991424382,250.43499993626028,348.1049999827519,450.6449999753386,541.2800000049174,662.1499999891967,702.4899999378249,873.4149999218062,904.4699999503791,1096.655000001192,1099.210000014864,1267.8899999009445,1337.9049999639392,1482.0299999555573,1565.8950000070035,1663.1449999986216,1773.7349999370053,1988.6149999219924,1990.5599999474362",4948494849484948e22,images/tutyellowplanet.jpg,images/tutalien4,images/tutalien3,images/tutrocket1,images/tutalien4,images/nothing.png,2,practice,false,2,rare,0,2020-06-16T20:34:51Z,sub86
two-step-fixation,111,598661,0.0-61.0-2.16,FALSE,TRUE,FALSE,TRUE,"""event"",""trial"",""time""
""blur"",""3"",""23030""
""focus"",""3"",""23041""
""fullscreenenter"",""5"",""37767""
","""event"",""trial"",""time""
""blur"",""3"",""23030""
","""event"",""trial"",""time""
""focus"",""3"",""23041""
","""event"",""trial"",""time""
""fullscreenenter"",""5"",""37767""
","
",NA,images/earth.jpg,NA,NA,NA,NA,NA,NA,NA,NA,NA,NA,NA,NA,NA,fixation,NA,NA,NA,NA,NA,NA,sub86
d3-animate-choice,112,600713,0.0-61.0-0.17,FALSE,TRUE,FALSE,TRUE,"""event"",""trial"",""time""
""blur"",""3"",""23030""
""focus"",""3"",""23041""
""fullscreenenter"",""5"",""37767""
","""event"",""trial"",""time""
""blur"",""3"",""23030""
","""event"",""trial"",""time""
""focus"",""3"",""23041""
","""event"",""trial"",""time""
""fullscreenenter"",""5"",""37767""
","
",48.48499991931021,NA,49,NA,NA,3000,1,"51.0950000025332,229.35499995946884,260.3749999543652,444.3149999715388,475.28499993495643,625.6199999479577,686.504999990575,817.6550000207499,890.6199999619275,1049.170000012964,1114.049999974668,1210.97999997437,1331.1199999880046,1447.2199999727309,1567.7049999358132,1779.3999999994412,1799.0899999858811,1954.524999950081,2034.2299999902025",4849484948494847e22,images/earth.jpg,images/tutrocket2,images/tutrocket1,null,images/tutrocket1,NA,1,practice,null,1,NA,NA,NA,sub86
d3-animate-choice,113,602836,0.0-61.0-1.17,FALSE,TRUE,FALSE,TRUE,"""event"",""trial"",""time""
""blur"",""3"",""23030""
""focus"",""3"",""23041""
""fullscreenenter"",""5"",""37767""
","""event"",""trial"",""time""
""blur"",""3"",""23030""
","""event"",""trial"",""time""
""focus"",""3"",""23041""
","""event"",""trial"",""time""
""fullscreenenter"",""5"",""37767""
","
",120.4950000392273,NA,49,NA,NA,3000,1,"212.04000001307577,355.45000003185123,415.3350000269711,567.3050000332296,627.4800000246614,748.1449999613687,881.8749999627471,942.7350000478327,1140.2750000124797,1143.7800000421703,1365.0549999438226,1395.6799999577925,1557.150000007823,1616.8649999890476,1778.4049999900162,1838.3649999741465,2020.1100000413135,2084.1850000433624",4849484948494847e20,images/tutgreenplanet.jpg,images/tutalien2,images/tutalien1,images/tutrocket1,images/tutalien1,images/t.png,2,practice,true,1,common,1,2020-06-16T20:34:57Z,sub86
two-step-fixation,114,603838,0.0-61.0-2.17,FALSE,TRUE,FALSE,TRUE,"""event"",""trial"",""time""
""blur"",""3"",""23030""
""focus"",""3"",""23041""
""fullscreenenter"",""5"",""37767""
","""event"",""trial"",""time""
""blur"",""3"",""23030""
","""event"",""trial"",""time""
""focus"",""3"",""23041""
","""event"",""trial"",""time""
""fullscreenenter"",""5"",""37767""
","
",NA,images/earth.jpg,NA,NA,NA,NA,NA,NA,NA,NA,NA,NA,NA,NA,NA,fixation,NA,NA,NA,NA,NA,NA,sub86
d3-animate-choice,115,605958,0.0-61.0-0.18,FALSE,TRUE,FALSE,TRUE,"""event"",""trial"",""time""
""blur"",""3"",""23030""
""focus"",""3"",""23041""
""fullscreenenter"",""5"",""37767""
","""event"",""trial"",""time""
""blur"",""3"",""23030""
","""event"",""trial"",""time""
""focus"",""3"",""23041""
","""event"",""trial"",""time""
""fullscreenenter"",""5"",""37767""
","
",116.94000009447336,NA,48,NA,NA,3000,1,"197.86000007297844,371.51000008452684,422.0600000116974,633.475000038743,664.0150001039729,914.4800000358373,916.9700000202283,1106.8300000624731,1146.9450000440702,1341.2000000244007,1391.8900000862777,1654.0350000141189,1924.775000079535,1926.9300000742078",4948494849494849e12,images/earth.jpg,images/tutrocket2,images/tutrocket1,null,images/tutrocket2,NA,1,practice,null,2,NA,NA,NA,sub86
d3-animate-choice,116,608007,0.0-61.0-1.18,FALSE,TRUE,FALSE,TRUE,"""event"",""trial"",""time""
""blur"",""3"",""23030""
""focus"",""3"",""23041""
""fullscreenenter"",""5"",""37767""
","""event"",""trial"",""time""
""blur"",""3"",""23030""
","""event"",""trial"",""time""
""focus"",""3"",""23041""
","""event"",""trial"",""time""
""fullscreenenter"",""5"",""37767""
","
",44.49000000022352,NA,49,NA,NA,3000,1,"46.95500002708286,279.7750000609085,310.0450000492856,592.4000000813976,594.3749999860302,844.465000089258,864.8600000888109,1066.1950000794604,1106.9900000002235,1370.6050000619143,1373.7800000235438,1613.495000055991,1632.6400000834838,1915.3950000181794,1917.4249999923632",48494849484948475e13,images/tutyellowplanet.jpg,images/tutalien4,images/tutalien3,images/tutrocket2,images/tutalien3,images/nothing.png,2,practice,true,1,common,0,2020-06-16T20:35:02Z,sub86
two-step-fixation,117,609009,0.0-61.0-2.18,FALSE,TRUE,FALSE,TRUE,"""event"",""trial"",""time""
""blur"",""3"",""23030""
""focus"",""3"",""23041""
""fullscreenenter"",""5"",""37767""
","""event"",""trial"",""time""
""blur"",""3"",""23030""
","""event"",""trial"",""time""
""focus"",""3"",""23041""
","""event"",""trial"",""time""
""fullscreenenter"",""5"",""37767""
","
",NA,images/earth.jpg,NA,NA,NA,NA,NA,NA,NA,NA,NA,NA,NA,NA,NA,fixation,NA,NA,NA,NA,NA,NA,sub86
d3-animate-choice,118,611214,0.0-61.0-0.19,FALSE,TRUE,FALSE,TRUE,"""event"",""trial"",""time""
""blur"",""3"",""23030""
""focus"",""3"",""23041""
""fullscreenenter"",""5"",""37767""
","""event"",""trial"",""time""
""blur"",""3"",""23030""
","""event"",""trial"",""time""
""focus"",""3"",""23041""
","""event"",""trial"",""time""
""fullscreenenter"",""5"",""37767""
","
",201.13500009756535,NA,48,NA,NA,3000,1,"262.2400000691414,469.9700000928715,512.9950001137331,748.4500000718981,1037.5300000887364,1037.8900000359863,1291.895000031218",49484948494848,images/earth.jpg,images/tutrocket2,images/tutrocket1,null,images/tutrocket2,NA,1,practice,null,2,NA,NA,NA,sub86
d3-animate-choice,119,613593,0.0-61.0-1.19,FALSE,TRUE,FALSE,TRUE,"""event"",""trial"",""time""
""blur"",""3"",""23030""
""focus"",""3"",""23041""
""fullscreenenter"",""5"",""37767""
","""event"",""trial"",""time""
""blur"",""3"",""23030""
","""event"",""trial"",""time""
""focus"",""3"",""23041""
","""event"",""trial"",""time""
""fullscreenenter"",""5"",""37767""
","
",376.43499998375773,NA,48,NA,NA,3000,1,"1746.6799999820068,2192.520000040531",4949,images/tutyellowplanet.jpg,images/tutalien4,images/tutalien3,images/tutrocket2,images/tutalien4,images/nothing.png,2,practice,true,2,common,0,2020-06-16T20:35:07Z,sub86
two-step-fixation,120,614597,0.0-61.0-2.19,FALSE,TRUE,FALSE,TRUE,"""event"",""trial"",""time""
""blur"",""3"",""23030""
""focus"",""3"",""23041""
""fullscreenenter"",""5"",""37767""
","""event"",""trial"",""time""
""blur"",""3"",""23030""
","""event"",""trial"",""time""
""focus"",""3"",""23041""
","""event"",""trial"",""time""
""fullscreenenter"",""5"",""37767""
","
",NA,images/earth.jpg,NA,NA,NA,NA,NA,NA,NA,NA,NA,NA,NA,NA,NA,fixation,NA,NA,NA,NA,NA,NA,sub86
d3-instructions,121,626451,0.0-62.0,FALSE,TRUE,FALSE,TRUE,"""event"",""trial"",""time""
""blur"",""3"",""23030""
""focus"",""3"",""23041""
""fullscreenenter"",""5"",""37767""
","""event"",""trial"",""time""
""blur"",""3"",""23030""
","""event"",""trial"",""time""
""focus"",""3"",""23041""
","""event"",""trial"",""time""
""fullscreenenter"",""5"",""37767""
","
",NA,NA,NA,NA,NA,NA,NA,NA,NA,NA,NA,NA,NA,NA,NA,NA,NA,NA,NA,NA,NA,NA,sub86
audio-keyboard-response,122,635637,0.0-63.0,FALSE,TRUE,FALSE,TRUE,"""event"",""trial"",""time""
""blur"",""3"",""23030""
""focus"",""3"",""23041""
""fullscreenenter"",""5"",""37767""
","""event"",""trial"",""time""
""blur"",""3"",""23030""
","""event"",""trial"",""time""
""focus"",""3"",""23041""
","""event"",""trial"",""time""
""fullscreenenter"",""5"",""37767""
","
",9189,audio/instructions/treasure_feedback.wav,32,NA,NA,NA,NA,NA,NA,NA,NA,NA,NA,NA,NA,NA,NA,NA,NA,NA,NA,NA,sub86
d3-instructions,123,655677,0.0-64.0,FALSE,TRUE,FALSE,TRUE,"""event"",""trial"",""time""
""blur"",""3"",""23030""
""focus"",""3"",""23041""
""fullscreenenter"",""5"",""37767""
","""event"",""trial"",""time""
""blur"",""3"",""23030""
","""event"",""trial"",""time""
""focus"",""3"",""23041""
","""event"",""trial"",""time""
""fullscreenenter"",""5"",""37767""
","
",NA,NA,NA,NA,NA,NA,NA,NA,NA,NA,NA,NA,NA,NA,NA,NA,NA,NA,NA,NA,NA,NA,sub86
d3-instructions,124,659011,0.0-65.0,FALSE,TRUE,FALSE,TRUE,"""event"",""trial"",""time""
""blur"",""3"",""23030""
""focus"",""3"",""23041""
""fullscreenenter"",""5"",""37767""
","""event"",""trial"",""time""
""blur"",""3"",""23030""
","""event"",""trial"",""time""
""focus"",""3"",""23041""
","""event"",""trial"",""time""
""fullscreenenter"",""5"",""37767""
","
",NA,NA,NA,NA,NA,NA,NA,NA,NA,NA,NA,NA,NA,NA,NA,NA,NA,NA,NA,NA,NA,NA,sub86
d3-instructions,125,660907,0.0-66.0,FALSE,TRUE,FALSE,TRUE,"""event"",""trial"",""time""
""blur"",""3"",""23030""
""focus"",""3"",""23041""
""fullscreenenter"",""5"",""37767""
","""event"",""trial"",""time""
""blur"",""3"",""23030""
","""event"",""trial"",""time""
""focus"",""3"",""23041""
","""event"",""trial"",""time""
""fullscreenenter"",""5"",""37767""
","
",NA,NA,NA,NA,NA,NA,NA,NA,NA,NA,NA,NA,NA,NA,NA,NA,NA,NA,NA,NA,NA,NA,sub86
d3-instructions,126,664619,0.0-67.0,FALSE,TRUE,FALSE,TRUE,"""event"",""trial"",""time""
""blur"",""3"",""23030""
""focus"",""3"",""23041""
""fullscreenenter"",""5"",""37767""
","""event"",""trial"",""time""
""blur"",""3"",""23030""
","""event"",""trial"",""time""
""focus"",""3"",""23041""
","""event"",""trial"",""time""
""fullscreenenter"",""5"",""37767""
","
",NA,NA,NA,NA,NA,NA,NA,NA,NA,NA,NA,NA,NA,NA,NA,NA,NA,NA,NA,NA,NA,NA,sub86
d3-instructions,127,668807,0.0-68.0,FALSE,TRUE,FALSE,TRUE,"""event"",""trial"",""time""
""blur"",""3"",""23030""
""focus"",""3"",""23041""
""fullscreenenter"",""5"",""37767""
","""event"",""trial"",""time""
""blur"",""3"",""23030""
","""event"",""trial"",""time""
""focus"",""3"",""23041""
","""event"",""trial"",""time""
""fullscreenenter"",""5"",""37767""
","
",NA,NA,NA,NA,NA,NA,NA,NA,NA,NA,NA,NA,NA,NA,NA,NA,NA,NA,NA,NA,NA,NA,sub86
instructions-quiz,128,674279,0.0-69.0,FALSE,TRUE,FALSE,TRUE,"""event"",""trial"",""time""
""blur"",""3"",""23030""
""focus"",""3"",""23041""
""fullscreenenter"",""5"",""37767""
","""event"",""trial"",""time""
""blur"",""3"",""23030""
","""event"",""trial"",""time""
""focus"",""3"",""23041""
","""event"",""trial"",""time""
""fullscreenenter"",""5"",""37767""
","
",5470.510000013746,audio/quiz/Q1_Prompt.wav,NA,1,NA,NA,NA,NA,NA,NA,NA,NA,NA,NA,NA,NA,NA,NA,NA,NA,NA,NA,sub86
audio-keyboard-response,129,683442,0.0-70.0,FALSE,TRUE,FALSE,TRUE,"""event"",""trial"",""time""
""blur"",""3"",""23030""
""focus"",""3"",""23041""
""fullscreenenter"",""5"",""37767""
","""event"",""trial"",""time""
""blur"",""3"",""23030""
","""event"",""trial"",""time""
""focus"",""3"",""23041""
","""event"",""trial"",""time""
""fullscreenenter"",""5"",""37767""
","
",null,audio/quiz/Q1_Correct.wav,null,NA,NA,NA,NA,NA,NA,NA,NA,NA,NA,NA,NA,NA,NA,NA,NA,NA,NA,NA,sub86
instructions-quiz,130,694825,0.0-71.0,FALSE,TRUE,FALSE,TRUE,"""event"",""trial"",""time""
""blur"",""3"",""23030""
""focus"",""3"",""23041""
""fullscreenenter"",""5"",""37767""
","""event"",""trial"",""time""
""blur"",""3"",""23030""
","""event"",""trial"",""time""
""focus"",""3"",""23041""
","""event"",""trial"",""time""
""fullscreenenter"",""5"",""37767""
","
",11381.004999973811,audio/quiz/Q2_Prompt.wav,NA,0,NA,NA,NA,NA,NA,NA,NA,NA,NA,NA,NA,NA,NA,NA,NA,NA,NA,NA,sub86
audio-keyboard-response,131,707693,0.0-72.0,FALSE,TRUE,FALSE,TRUE,"""event"",""trial"",""time""
""blur"",""3"",""23030""
""focus"",""3"",""23041""
""fullscreenenter"",""5"",""37767""
","""event"",""trial"",""time""
""blur"",""3"",""23030""
","""event"",""trial"",""time""
""focus"",""3"",""23041""
","""event"",""trial"",""time""
""fullscreenenter"",""5"",""37767""
","
",null,audio/quiz/Q2_Correct.wav,null,NA,NA,NA,NA,NA,NA,NA,NA,NA,NA,NA,NA,NA,NA,NA,NA,NA,NA,NA,sub86
instructions-quiz,132,709203,0.0-73.0,FALSE,TRUE,FALSE,TRUE,"""event"",""trial"",""time""
""blur"",""3"",""23030""
""focus"",""3"",""23041""
""fullscreenenter"",""5"",""37767""
","""event"",""trial"",""time""
""blur"",""3"",""23030""
","""event"",""trial"",""time""
""focus"",""3"",""23041""
","""event"",""trial"",""time""
""fullscreenenter"",""5"",""37767""
","
",1508.8999998988584,audio/quiz/Q3_Prompt.wav,NA,0,NA,NA,NA,NA,NA,NA,NA,NA,NA,NA,NA,NA,NA,NA,NA,NA,NA,NA,sub86
audio-keyboard-response,133,716623,0.0-74.0,FALSE,TRUE,FALSE,TRUE,"""event"",""trial"",""time""
""blur"",""3"",""23030""
""focus"",""3"",""23041""
""fullscreenenter"",""5"",""37767""
","""event"",""trial"",""time""
""blur"",""3"",""23030""
","""event"",""trial"",""time""
""focus"",""3"",""23041""
","""event"",""trial"",""time""
""fullscreenenter"",""5"",""37767""
","
",null,audio/quiz/Q3_Incorrect.wav,null,NA,NA,NA,NA,NA,NA,NA,NA,NA,NA,NA,NA,NA,NA,NA,NA,NA,NA,NA,sub86
d3-instructions,134,727134,0.0-75.0,FALSE,TRUE,FALSE,TRUE,"""event"",""trial"",""time""
""blur"",""3"",""23030""
""focus"",""3"",""23041""
""fullscreenenter"",""5"",""37767""
","""event"",""trial"",""time""
""blur"",""3"",""23030""
","""event"",""trial"",""time""
""focus"",""3"",""23041""
","""event"",""trial"",""time""
""fullscreenenter"",""5"",""37767""
","
",NA,NA,NA,NA,NA,NA,NA,NA,NA,NA,NA,NA,NA,NA,NA,NA,NA,NA,NA,NA,NA,NA,sub86
d3-animate-choice,135,730146,0.0-76.0-0.0,FALSE,TRUE,FALSE,TRUE,"""event"",""trial"",""time""
""blur"",""3"",""23030""
""focus"",""3"",""23041""
""fullscreenenter"",""5"",""37767""
","""event"",""trial"",""time""
""blur"",""3"",""23030""
","""event"",""trial"",""time""
""focus"",""3"",""23041""
","""event"",""trial"",""time""
""fullscreenenter"",""5"",""37767""
","
",1008.2900000270456,NA,49,NA,NA,3000,1,"1354.4700000202283,1374.6200000168756,1532.9299999866635,1582.9750000266358,1703.9799999911338,1774.6350000379607,1888.7000000104308,1967.880000011064,2090.195000055246,2150.0099999830127,2290.7150000100955,2347.219999996014,2491.935000056401,2693.82000004407,2696.7449999647215,2868.305000010878,2888.470000005327",48494948494849475e17,images/earth.jpg,images/rocket1,images/rocket2,null,images/rocket2,NA,1,real,null,1,NA,NA,NA,sub86
d3-animate-choice,136,732165,0.0-76.0-1.0,FALSE,TRUE,FALSE,TRUE,"""event"",""trial"",""time""
""blur"",""3"",""23030""
""focus"",""3"",""23041""
""fullscreenenter"",""5"",""37767""
","""event"",""trial"",""time""
""blur"",""3"",""23030""
","""event"",""trial"",""time""
""focus"",""3"",""23041""
","""event"",""trial"",""time""
""fullscreenenter"",""5"",""37767""
","
",16.730000032112002,NA,49,NA,NA,3000,1,"47.48000006657094,178.74500004108995,352.9000000562519,456.6900000208989,520.9650000324473,652.5100000435486,702.7150000212714,866.3400000659749,869.535000063479,1057.550000026822,1087.1400000760332,1217.8250000579283,1279.0550000499934,1424.185000010766,1504.7750000376254,1601.1650000000373,1685.2750000543892,1762.2200000332668,1890.6000000424683,1987.0799999916926",4849494849484948e24,images/purpleplanet.jpg,images/alien4,images/alien3,images/rocket2,images/alien3,images/nothing.png,2,real,true,1,common,0,2020-06-16T20:37:06Z,sub86
two-step-fixation,137,733167,0.0-76.0-2.0,FALSE,TRUE,FALSE,TRUE,"""event"",""trial"",""time""
""blur"",""3"",""23030""
""focus"",""3"",""23041""
""fullscreenenter"",""5"",""37767""
","""event"",""trial"",""time""
""blur"",""3"",""23030""
","""event"",""trial"",""time""
""focus"",""3"",""23041""
","""event"",""trial"",""time""
""fullscreenenter"",""5"",""37767""
","
",NA,images/earth.jpg,NA,NA,NA,NA,NA,NA,NA,NA,NA,NA,NA,NA,NA,fixation,NA,NA,NA,NA,NA,NA,sub86
d3-animate-choice,138,735247,0.0-76.0-0.1,FALSE,TRUE,FALSE,TRUE,"""event"",""trial"",""time""
""blur"",""3"",""23030""
""focus"",""3"",""23041""
""fullscreenenter"",""5"",""37767""
","""event"",""trial"",""time""
""blur"",""3"",""23030""
","""event"",""trial"",""time""
""focus"",""3"",""23041""
","""event"",""trial"",""time""
""fullscreenenter"",""5"",""37767""
","
",76.5750000718981,NA,49,NA,NA,3000,1,"131.36500003747642,247.38000007346272,335.8850000659004,422.53000009804964,530.4200000828132,610.7450000708923,711.1700000241399,802.3650000104681,935.8350000111386,975.7700000191107,1157.2150000138208,1160.0750000216067,1341.080000041984,1395.600000047125,1530.0550000974908,1601.120000006631,1700.814999989234,1791.1150000290945,1884.554999996908,1996.2050000904128,2067.405000096187",4849484948494847e26,images/earth.jpg,images/rocket1,images/rocket2,null,images/rocket2,NA,1,real,null,1,NA,NA,NA,sub86
d3-animate-choice,139,737379,0.0-76.0-1.1,FALSE,TRUE,FALSE,TRUE,"""event"",""trial"",""time""
""blur"",""3"",""23030""
""focus"",""3"",""23041""
""fullscreenenter"",""5"",""37767""
","""event"",""trial"",""time""
""blur"",""3"",""23030""
","""event"",""trial"",""time""
""focus"",""3"",""23041""
","""event"",""trial"",""time""
""fullscreenenter"",""5"",""37767""
","
",128.60500009264797,NA,48,NA,NA,3000,1,"168.85000001639128,362.4650000128895,542.5100000575185,544.5100000360981,733.39000006672,868.1750000687316,927.680000080727,1060.215000063181,1139.5150000462309,1239.754999987781,1374.0000000689179,1441.7400000384077,1592.4450000748038,1612.965000094846,1817.2350000822917,1938.0850000306964,2008.9150000130758,2109.5300000160933",4949494848494849e20,images/purpleplanet.jpg,images/alien4,images/alien3,images/rocket2,images/alien4,images/nothing.png,2,real,true,2,common,0,2020-06-16T20:37:11Z,sub86
two-step-fixation,140,738381,0.0-76.0-2.1,FALSE,TRUE,FALSE,TRUE,"""event"",""trial"",""time""
""blur"",""3"",""23030""
""focus"",""3"",""23041""
""fullscreenenter"",""5"",""37767""
","""event"",""trial"",""time""
""blur"",""3"",""23030""
","""event"",""trial"",""time""
""focus"",""3"",""23041""
","""event"",""trial"",""time""
""fullscreenenter"",""5"",""37767""
","
",NA,images/earth.jpg,NA,NA,NA,NA,NA,NA,NA,NA,NA,NA,NA,NA,NA,fixation,NA,NA,NA,NA,NA,NA,sub86
d3-animate-choice,141,740480,0.0-76.0-0.2,FALSE,TRUE,FALSE,TRUE,"""event"",""trial"",""time""
""blur"",""3"",""23030""
""focus"",""3"",""23041""
""fullscreenenter"",""5"",""37767""
","""event"",""trial"",""time""
""blur"",""3"",""23030""
","""event"",""trial"",""time""
""focus"",""3"",""23041""
","""event"",""trial"",""time""
""fullscreenenter"",""5"",""37767""
","
",95.68000002764165,NA,49,NA,NA,3000,1,"152.44500001426786,279.48500006459653,378.77000006847084,479.12999999243766,542.7400000626221,663.7350000673905,744.1749999998137,864.9549999972805,996.1950000142679,1056.4250000752509,1229.9450000282377,1233.0100000835955,1429.2050000512972,1509.3849999830127,1640.345000079833,1697.8649999946356,1834.9600000074133,1898.490000050515,2036.4299999782816",4849484948494847e22,images/earth.jpg,images/rocket1,images/rocket2,null,images/rocket2,NA,1,real,null,1,NA,NA,NA,sub86
d3-animate-choice,142,742492,0.0-76.0-1.2,FALSE,TRUE,FALSE,TRUE,"""event"",""trial"",""time""
""blur"",""3"",""23030""
""focus"",""3"",""23041""
""fullscreenenter"",""5"",""37767""
","""event"",""trial"",""time""
""blur"",""3"",""23030""
","""event"",""trial"",""time""
""focus"",""3"",""23041""
","""event"",""trial"",""time""
""fullscreenenter"",""5"",""37767""
","
",8.440000005066395,NA,48,NA,NA,3000,1,"111.33500002324581,219.939999980852,300.31000007875264,441.495000035502,492.13999998755753,636.0000000568107,686.1700000008568,858.1199999898672,859.7650000592694,1059.2050000559539,1065.3699999675155,1241.6949999751523,1271.3800000492483,1432.0549999829382,1462.7999999793246,1637.0250000618398,1677.2600000258535,1827.4250000249594,1868.6200000811368",4948494849484948e22,images/purpleplanet.jpg,images/alien4,images/alien3,images/rocket2,images/alien4,images/t.png,2,real,true,2,common,1,2020-06-16T20:37:16Z,sub86
two-step-fixation,143,743494,0.0-76.0-2.2,FALSE,TRUE,FALSE,TRUE,"""event"",""trial"",""time""
""blur"",""3"",""23030""
""focus"",""3"",""23041""
""fullscreenenter"",""5"",""37767""
","""event"",""trial"",""time""
""blur"",""3"",""23030""
","""event"",""trial"",""time""
""focus"",""3"",""23041""
","""event"",""trial"",""time""
""fullscreenenter"",""5"",""37767""
","
",NA,images/earth.jpg,NA,NA,NA,NA,NA,NA,NA,NA,NA,NA,NA,NA,NA,fixation,NA,NA,NA,NA,NA,NA,sub86
d3-animate-choice,144,745686,0.0-76.0-0.3,FALSE,TRUE,FALSE,TRUE,"""event"",""trial"",""time""
""blur"",""3"",""23030""
""focus"",""3"",""23041""
""fullscreenenter"",""5"",""37767""
","""event"",""trial"",""time""
""blur"",""3"",""23030""
","""event"",""trial"",""time""
""focus"",""3"",""23041""
","""event"",""trial"",""time""
""fullscreenenter"",""5"",""37767""
","
",189.32000000495464,NA,48,NA,NA,3000,1,"388.41999997384846,602.3600000189617,833.9500000001863,1088.6150000151247,1346.8750000465661,1568.8200000440702,1762.6050000544637,1965.2100000530481,2179.505000007339",484848484848484800,images/earth.jpg,images/rocket1,images/rocket2,null,images/rocket1,NA,1,real,null,2,NA,NA,NA,sub86
d3-animate-choice,145,747897,0.0-76.0-1.3,FALSE,TRUE,FALSE,TRUE,"""event"",""trial"",""time""
""blur"",""3"",""23030""
""focus"",""3"",""23041""
""fullscreenenter"",""5"",""37767""
","""event"",""trial"",""time""
""blur"",""3"",""23030""
","""event"",""trial"",""time""
""focus"",""3"",""23041""
","""event"",""trial"",""time""
""fullscreenenter"",""5"",""37767""
","
",205.6449999799952,NA,48,NA,NA,3000,1,"420.48999993130565,642.9950000019744,853.584999917075",484848,images/redplanet1.jpg,images/alien2,images/alien1,images/rocket1,images/alien2,images/nothing.png,2,real,true,2,common,0,2020-06-16T20:37:22Z,sub86
two-step-fixation,146,748899,0.0-76.0-2.3,FALSE,TRUE,FALSE,TRUE,"""event"",""trial"",""time""
""blur"",""3"",""23030""
""focus"",""3"",""23041""
""fullscreenenter"",""5"",""37767""
","""event"",""trial"",""time""
""blur"",""3"",""23030""
","""event"",""trial"",""time""
""focus"",""3"",""23041""
","""event"",""trial"",""time""
""fullscreenenter"",""5"",""37767""
","
",NA,images/earth.jpg,NA,NA,NA,NA,NA,NA,NA,NA,NA,NA,NA,NA,NA,fixation,NA,NA,NA,NA,NA,NA,sub86
d3-animate-choice,147,751769,0.0-76.0-0.4,FALSE,TRUE,FALSE,TRUE,"""event"",""trial"",""time""
""blur"",""3"",""23030""
""focus"",""3"",""23041""
""fullscreenenter"",""5"",""37767""
","""event"",""trial"",""time""
""blur"",""3"",""23030""
","""event"",""trial"",""time""
""focus"",""3"",""23041""
","""event"",""trial"",""time""
""fullscreenenter"",""5"",""37767""
","
",866.7900000000373,NA,49,NA,NA,3000,1,NA,NA,images/earth.jpg,images/rocket1,images/rocket2,null,images/rocket2,NA,1,real,null,1,NA,NA,NA,sub86
d3-animate-choice,148,754166,0.0-76.0-1.4,FALSE,TRUE,FALSE,TRUE,"""event"",""trial"",""time""
""blur"",""3"",""23030""
""focus"",""3"",""23041""
""fullscreenenter"",""5"",""37767""
","""event"",""trial"",""time""
""blur"",""3"",""23030""
","""event"",""trial"",""time""
""focus"",""3"",""23041""
","""event"",""trial"",""time""
""fullscreenenter"",""5"",""37767""
","
",394.2099999403581,NA,48,NA,NA,3000,1,NA,NA,images/redplanet1.jpg,images/alien2,images/alien1,images/rocket2,images/alien2,images/t.png,2,real,false,2,rare,1,2020-06-16T20:37:28Z,sub86
two-step-fixation,149,755169,0.0-76.0-2.4,FALSE,TRUE,FALSE,TRUE,"""event"",""trial"",""time""
""blur"",""3"",""23030""
""focus"",""3"",""23041""
""fullscreenenter"",""5"",""37767""
","""event"",""trial"",""time""
""blur"",""3"",""23030""
","""event"",""trial"",""time""
""focus"",""3"",""23041""
","""event"",""trial"",""time""
""fullscreenenter"",""5"",""37767""
","
",NA,images/earth.jpg,NA,NA,NA,NA,NA,NA,NA,NA,NA,NA,NA,NA,NA,fixation,NA,NA,NA,NA,NA,NA,sub86
d3-animate-choice,150,757534,0.0-76.0-0.5,FALSE,TRUE,FALSE,TRUE,"""event"",""trial"",""time""
""blur"",""3"",""23030""
""focus"",""3"",""23041""
""fullscreenenter"",""5"",""37767""
","""event"",""trial"",""time""
""blur"",""3"",""23030""
","""event"",""trial"",""time""
""focus"",""3"",""23041""
","""event"",""trial"",""time""
""fullscreenenter"",""5"",""37767""
","
",360.9250000445172,NA,49,NA,NA,3000,1,"724.2000000551343,1516.2250000284985",4848,images/earth.jpg,images/rocket1,images/rocket2,null,images/rocket2,NA,1,real,null,1,NA,NA,NA,sub86
d3-animate-choice,151,759554,0.0-76.0-1.5,FALSE,TRUE,FALSE,TRUE,"""event"",""trial"",""time""
""blur"",""3"",""23030""
""focus"",""3"",""23041""
""fullscreenenter"",""5"",""37767""
","""event"",""trial"",""time""
""blur"",""3"",""23030""
","""event"",""trial"",""time""
""focus"",""3"",""23041""
","""event"",""trial"",""time""
""fullscreenenter"",""5"",""37767""
","
",16.189999994821846,NA,48,NA,NA,3000,1,"211.20999997947365,420.44500005431473",4848,images/purpleplanet.jpg,images/alien4,images/alien3,images/rocket2,images/alien4,images/t.png,2,real,true,2,common,1,2020-06-16T20:37:33Z,sub86
two-step-fixation,152,760558,0.0-76.0-2.5,FALSE,TRUE,FALSE,TRUE,"""event"",""trial"",""time""
""blur"",""3"",""23030""
""focus"",""3"",""23041""
""fullscreenenter"",""5"",""37767""
","""event"",""trial"",""time""
""blur"",""3"",""23030""
","""event"",""trial"",""time""
""focus"",""3"",""23041""
","""event"",""trial"",""time""
""fullscreenenter"",""5"",""37767""
","
",NA,images/earth.jpg,NA,NA,NA,NA,NA,NA,NA,NA,NA,NA,NA,NA,NA,fixation,NA,NA,NA,NA,NA,NA,sub86
d3-animate-choice,153,762974,0.0-76.0-0.6,FALSE,TRUE,FALSE,TRUE,"""event"",""trial"",""time""
""blur"",""3"",""23030""
""focus"",""3"",""23041""
""fullscreenenter"",""5"",""37767""
","""event"",""trial"",""time""
""blur"",""3"",""23030""
","""event"",""trial"",""time""
""focus"",""3"",""23041""
","""event"",""trial"",""time""
""fullscreenenter"",""5"",""37767""
","
",413.4750000666827,NA,49,NA,NA,3000,1,NA,NA,images/earth.jpg,images/rocket1,images/rocket2,null,images/rocket2,NA,1,real,null,1,NA,NA,NA,sub86
d3-animate-choice,154,765899,0.0-76.0-1.6,FALSE,TRUE,FALSE,TRUE,"""event"",""trial"",""time""
""blur"",""3"",""23030""
""focus"",""3"",""23041""
""fullscreenenter"",""5"",""37767""
","""event"",""trial"",""time""
""blur"",""3"",""23030""
","""event"",""trial"",""time""
""focus"",""3"",""23041""
","""event"",""trial"",""time""
""fullscreenenter"",""5"",""37767""
","
",922.1299999626353,NA,48,NA,NA,3000,1,NA,NA,images/redplanet1.jpg,images/alien2,images/alien1,images/rocket2,images/alien2,images/t.png,2,real,false,2,rare,1,2020-06-16T20:37:40Z,sub86
two-step-fixation,155,766901,0.0-76.0-2.6,FALSE,TRUE,FALSE,TRUE,"""event"",""trial"",""time""
""blur"",""3"",""23030""
""focus"",""3"",""23041""
""fullscreenenter"",""5"",""37767""
","""event"",""trial"",""time""
""blur"",""3"",""23030""
","""event"",""trial"",""time""
""focus"",""3"",""23041""
","""event"",""trial"",""time""
""fullscreenenter"",""5"",""37767""
","
",NA,images/earth.jpg,NA,NA,NA,NA,NA,NA,NA,NA,NA,NA,NA,NA,NA,fixation,NA,NA,NA,NA,NA,NA,sub86
d3-animate-choice,156,769256,0.0-76.0-0.7,FALSE,TRUE,FALSE,TRUE,"""event"",""trial"",""time""
""blur"",""3"",""23030""
""focus"",""3"",""23041""
""fullscreenenter"",""5"",""37767""
","""event"",""trial"",""time""
""blur"",""3"",""23030""
","""event"",""trial"",""time""
""focus"",""3"",""23041""
","""event"",""trial"",""time""
""fullscreenenter"",""5"",""37767""
","
",351.4450000366196,NA,49,NA,NA,3000,1,"653.1400000676513,1533.640000037849",4848,images/earth.jpg,images/rocket1,images/rocket2,null,images/rocket2,NA,1,real,null,1,NA,NA,NA,sub86
d3-animate-choice,157,771675,0.0-76.0-1.7,FALSE,TRUE,FALSE,TRUE,"""event"",""trial"",""time""
""blur"",""3"",""23030""
""focus"",""3"",""23041""
""fullscreenenter"",""5"",""37767""
","""event"",""trial"",""time""
""blur"",""3"",""23030""
","""event"",""trial"",""time""
""focus"",""3"",""23041""
","""event"",""trial"",""time""
""fullscreenenter"",""5"",""37767""
","
",416.3249999983236,NA,48,NA,NA,3000,1,NA,NA,images/purpleplanet.jpg,images/alien4,images/alien3,images/rocket2,images/alien4,images/t.png,2,real,true,2,common,1,2020-06-16T20:37:45Z,sub86
two-step-fixation,158,772678,0.0-76.0-2.7,FALSE,TRUE,FALSE,TRUE,"""event"",""trial"",""time""
""blur"",""3"",""23030""
""focus"",""3"",""23041""
""fullscreenenter"",""5"",""37767""
","""event"",""trial"",""time""
""blur"",""3"",""23030""
","""event"",""trial"",""time""
""focus"",""3"",""23041""
","""event"",""trial"",""time""
""fullscreenenter"",""5"",""37767""
","
",NA,images/earth.jpg,NA,NA,NA,NA,NA,NA,NA,NA,NA,NA,NA,NA,NA,fixation,NA,NA,NA,NA,NA,NA,sub86
d3-animate-choice,159,774963,0.0-76.0-0.8,FALSE,TRUE,FALSE,TRUE,"""event"",""trial"",""time""
""blur"",""3"",""23030""
""focus"",""3"",""23041""
""fullscreenenter"",""5"",""37767""
","""event"",""trial"",""time""
""blur"",""3"",""23030""
","""event"",""trial"",""time""
""focus"",""3"",""23041""
","""event"",""trial"",""time""
""fullscreenenter"",""5"",""37767""
","
",282.5899999588728,NA,49,NA,NA,3000,1,"678.8500000257045,1598.6050000647083,1930.1099999574944,2155.0399999832734",48484848,images/earth.jpg,images/rocket1,images/rocket2,null,images/rocket2,NA,1,real,null,1,NA,NA,NA,sub86
d3-animate-choice,160,777094,0.0-76.0-1.8,FALSE,TRUE,FALSE,TRUE,"""event"",""trial"",""time""
""blur"",""3"",""23030""
""focus"",""3"",""23041""
""fullscreenenter"",""5"",""37767""
","""event"",""trial"",""time""
""blur"",""3"",""23030""
","""event"",""trial"",""time""
""focus"",""3"",""23041""
","""event"",""trial"",""time""
""fullscreenenter"",""5"",""37767""
","
",128.374999971129,NA,48,NA,NA,3000,1,"383.3400000585243,625.1250000204891",4848,images/redplanet1.jpg,images/alien2,images/alien1,images/rocket2,images/alien2,images/t.png,2,real,false,2,rare,1,2020-06-16T20:37:51Z,sub86
two-step-fixation,161,778097,0.0-76.0-2.8,FALSE,TRUE,FALSE,TRUE,"""event"",""trial"",""time""
""blur"",""3"",""23030""
""focus"",""3"",""23041""
""fullscreenenter"",""5"",""37767""
","""event"",""trial"",""time""
""blur"",""3"",""23030""
","""event"",""trial"",""time""
""focus"",""3"",""23041""
","""event"",""trial"",""time""
""fullscreenenter"",""5"",""37767""
","
",NA,images/earth.jpg,NA,NA,NA,NA,NA,NA,NA,NA,NA,NA,NA,NA,NA,fixation,NA,NA,NA,NA,NA,NA,sub86
d3-animate-choice,162,780414,0.0-76.0-0.9,FALSE,TRUE,FALSE,TRUE,"""event"",""trial"",""time""
""blur"",""3"",""23030""
""focus"",""3"",""23041""
""fullscreenenter"",""5"",""37767""
","""event"",""trial"",""time""
""blur"",""3"",""23030""
","""event"",""trial"",""time""
""focus"",""3"",""23041""
","""event"",""trial"",""time""
""fullscreenenter"",""5"",""37767""
","
",313.5300000431016,NA,49,NA,NA,3000,1,"535.2849999908358,1364.6749999606982,1667.604999965988,1928.9949999656528,2090.2149999747053",4948484848,images/earth.jpg,images/rocket1,images/rocket2,null,images/rocket2,NA,1,real,null,1,NA,NA,NA,sub86
d3-animate-choice,163,782605,0.0-76.0-1.9,FALSE,TRUE,FALSE,TRUE,"""event"",""trial"",""time""
""blur"",""3"",""23030""
""focus"",""3"",""23041""
""fullscreenenter"",""5"",""37767""
","""event"",""trial"",""time""
""blur"",""3"",""23030""
","""event"",""trial"",""time""
""focus"",""3"",""23041""
","""event"",""trial"",""time""
""fullscreenenter"",""5"",""37767""
","
",188.5049999691546,NA,48,NA,NA,3000,1,"484.1899999883026,763.5549999540672",4848,images/purpleplanet.jpg,images/alien4,images/alien3,images/rocket2,images/alien4,images/nothing.png,2,real,true,2,common,0,2020-06-16T20:37:56Z,sub86
two-step-fixation,164,783609,0.0-76.0-2.9,FALSE,TRUE,FALSE,TRUE,"""event"",""trial"",""time""
""blur"",""3"",""23030""
""focus"",""3"",""23041""
""fullscreenenter"",""5"",""37767""
","""event"",""trial"",""time""
""blur"",""3"",""23030""
","""event"",""trial"",""time""
""focus"",""3"",""23041""
","""event"",""trial"",""time""
""fullscreenenter"",""5"",""37767""
","
",NA,images/earth.jpg,NA,NA,NA,NA,NA,NA,NA,NA,NA,NA,NA,NA,NA,fixation,NA,NA,NA,NA,NA,NA,sub86
d3-animate-choice,165,785748,0.0-76.0-0.10,FALSE,TRUE,FALSE,TRUE,"""event"",""trial"",""time""
""blur"",""3"",""23030""
""focus"",""3"",""23041""
""fullscreenenter"",""5"",""37767""
","""event"",""trial"",""time""
""blur"",""3"",""23030""
","""event"",""trial"",""time""
""focus"",""3"",""23041""
","""event"",""trial"",""time""
""fullscreenenter"",""5"",""37767""
","
",136.6399999242276,NA,49,NA,NA,3000,1,"370.55999995209277,965.0949999922886,1197.3200000356883,1408.8299999712035,1639.3549999920651,1874.4149999693036,2096.1099999258295",49484848484848,images/earth.jpg,images/rocket1,images/rocket2,null,images/rocket2,NA,1,real,null,1,NA,NA,NA,sub86
d3-animate-choice,166,787921,0.0-76.0-1.10,FALSE,TRUE,FALSE,TRUE,"""event"",""trial"",""time""
""blur"",""3"",""23030""
""focus"",""3"",""23041""
""fullscreenenter"",""5"",""37767""
","""event"",""trial"",""time""
""blur"",""3"",""23030""
","""event"",""trial"",""time""
""focus"",""3"",""23041""
","""event"",""trial"",""time""
""fullscreenenter"",""5"",""37767""
","
",170.34499999135733,NA,48,NA,NA,3000,1,"379.3149999110028,581.3299999572337,815.6500000040978",484848,images/purpleplanet.jpg,images/alien4,images/alien3,images/rocket2,images/alien4,images/t.png,2,real,true,2,common,1,2020-06-16T20:38:02Z,sub86
two-step-fixation,167,788924,0.0-76.0-2.10,FALSE,TRUE,FALSE,TRUE,"""event"",""trial"",""time""
""blur"",""3"",""23030""
""focus"",""3"",""23041""
""fullscreenenter"",""5"",""37767""
","""event"",""trial"",""time""
""blur"",""3"",""23030""
","""event"",""trial"",""time""
""focus"",""3"",""23041""
","""event"",""trial"",""time""
""fullscreenenter"",""5"",""37767""
","
",NA,images/earth.jpg,NA,NA,NA,NA,NA,NA,NA,NA,NA,NA,NA,NA,NA,fixation,NA,NA,NA,NA,NA,NA,sub86
d3-animate-choice,168,791296,0.0-76.0-0.11,FALSE,TRUE,FALSE,TRUE,"""event"",""trial"",""time""
""blur"",""3"",""23030""
""focus"",""3"",""23041""
""fullscreenenter"",""5"",""37767""
","""event"",""trial"",""time""
""blur"",""3"",""23030""
","""event"",""trial"",""time""
""focus"",""3"",""23041""
","""event"",""trial"",""time""
""fullscreenenter"",""5"",""37767""
","
",368.72499994933605,NA,49,NA,NA,3000,1,"2097.81499998644,2315.679999999702",4848,images/earth.jpg,images/rocket1,images/rocket2,null,images/rocket2,NA,1,real,null,1,NA,NA,NA,sub86
d3-animate-choice,169,793467,0.0-76.0-1.11,FALSE,TRUE,FALSE,TRUE,"""event"",""trial"",""time""
""blur"",""3"",""23030""
""focus"",""3"",""23041""
""fullscreenenter"",""5"",""37767""
","""event"",""trial"",""time""
""blur"",""3"",""23030""
","""event"",""trial"",""time""
""focus"",""3"",""23041""
","""event"",""trial"",""time""
""fullscreenenter"",""5"",""37767""
","
",166.81500000413507,NA,48,NA,NA,3000,1,"379.1849999688566,580.640000058338,822.34499999322,1013.9200000558048,1208.240000065416,1439.5650000078604,1704.3899999698624,1923.064999980852,2053.1050000572577,2126.6550000291318",4848484848484848e4,images/redplanet1.jpg,images/alien2,images/alien1,images/rocket2,images/alien2,images/nothing.png,2,real,false,2,rare,0,2020-06-16T20:38:07Z,sub86
two-step-fixation,170,794470,0.0-76.0-2.11,FALSE,TRUE,FALSE,TRUE,"""event"",""trial"",""time""
""blur"",""3"",""23030""
""focus"",""3"",""23041""
""fullscreenenter"",""5"",""37767""
","""event"",""trial"",""time""
""blur"",""3"",""23030""
","""event"",""trial"",""time""
""focus"",""3"",""23041""
","""event"",""trial"",""time""
""fullscreenenter"",""5"",""37767""
","
",NA,images/earth.jpg,NA,NA,NA,NA,NA,NA,NA,NA,NA,NA,NA,NA,NA,fixation,NA,NA,NA,NA,NA,NA,sub86
d3-animate-choice,171,796599,0.0-76.0-0.12,FALSE,TRUE,FALSE,TRUE,"""event"",""trial"",""time""
""blur"",""3"",""23030""
""focus"",""3"",""23041""
""fullscreenenter"",""5"",""37767""
","""event"",""trial"",""time""
""blur"",""3"",""23030""
","""event"",""trial"",""time""
""focus"",""3"",""23041""
","""event"",""trial"",""time""
""fullscreenenter"",""5"",""37767""
","
",126.64499995298684,NA,48,NA,NA,3000,1,337.31500001158565,48,images/earth.jpg,images/rocket1,images/rocket2,null,images/rocket1,NA,1,real,null,2,NA,NA,NA,sub86
d3-animate-choice,172,799094,0.0-76.0-1.12,FALSE,TRUE,FALSE,TRUE,"""event"",""trial"",""time""
""blur"",""3"",""23030""
""focus"",""3"",""23041""
""fullscreenenter"",""5"",""37767""
","""event"",""trial"",""time""
""blur"",""3"",""23030""
","""event"",""trial"",""time""
""focus"",""3"",""23041""
","""event"",""trial"",""time""
""fullscreenenter"",""5"",""37767""
","
",490.7799999928102,NA,48,NA,NA,3000,1,NA,NA,images/purpleplanet.jpg,images/alien4,images/alien3,images/rocket1,images/alien4,images/t.png,2,real,false,2,rare,1,2020-06-16T20:38:13Z,sub86
two-step-fixation,173,800098,0.0-76.0-2.12,FALSE,TRUE,FALSE,TRUE,"""event"",""trial"",""time""
""blur"",""3"",""23030""
""focus"",""3"",""23041""
""fullscreenenter"",""5"",""37767""
","""event"",""trial"",""time""
""blur"",""3"",""23030""
","""event"",""trial"",""time""
""focus"",""3"",""23041""
","""event"",""trial"",""time""
""fullscreenenter"",""5"",""37767""
","
",NA,images/earth.jpg,NA,NA,NA,NA,NA,NA,NA,NA,NA,NA,NA,NA,NA,fixation,NA,NA,NA,NA,NA,NA,sub86
d3-animate-choice,174,802490,0.0-76.0-0.13,FALSE,TRUE,FALSE,TRUE,"""event"",""trial"",""time""
""blur"",""3"",""23030""
""focus"",""3"",""23041""
""fullscreenenter"",""5"",""37767""
","""event"",""trial"",""time""
""blur"",""3"",""23030""
","""event"",""trial"",""time""
""focus"",""3"",""23041""
","""event"",""trial"",""time""
""fullscreenenter"",""5"",""37767""
","
",387.2999999439344,NA,49,NA,NA,3000,1,"669.3550000200048,884.2599999625236,1304.0449999971315,1549.6900000143796,1904.6049999305978,2153.8799999980256,2355.229999986477",48484848484848,images/earth.jpg,images/rocket1,images/rocket2,null,images/rocket2,NA,1,real,null,1,NA,NA,NA,sub86
d3-animate-choice,175,804681,0.0-76.0-1.13,FALSE,TRUE,FALSE,TRUE,"""event"",""trial"",""time""
""blur"",""3"",""23030""
""focus"",""3"",""23041""
""fullscreenenter"",""5"",""37767""
","""event"",""trial"",""time""
""blur"",""3"",""23030""
","""event"",""trial"",""time""
""focus"",""3"",""23041""
","""event"",""trial"",""time""
""fullscreenenter"",""5"",""37767""
","
",188.53499996475875,NA,48,NA,NA,3000,1,"441.3100000238046,693.5000000521541,965.8699999563396,1240.2700000675395,1575.0900000566617,1824.6799999615178,2099.3299999972805",48484848484848,images/purpleplanet.jpg,images/alien4,images/alien3,images/rocket2,images/alien4,images/t.png,2,real,true,2,common,1,2020-06-16T20:38:18Z,sub86
two-step-fixation,176,805685,0.0-76.0-2.13,FALSE,TRUE,FALSE,TRUE,"""event"",""trial"",""time""
""blur"",""3"",""23030""
""focus"",""3"",""23041""
""fullscreenenter"",""5"",""37767""
","""event"",""trial"",""time""
""blur"",""3"",""23030""
","""event"",""trial"",""time""
""focus"",""3"",""23041""
","""event"",""trial"",""time""
""fullscreenenter"",""5"",""37767""
","
",NA,images/earth.jpg,NA,NA,NA,NA,NA,NA,NA,NA,NA,NA,NA,NA,NA,fixation,NA,NA,NA,NA,NA,NA,sub86
d3-animate-choice,177,807834,0.0-76.0-0.14,FALSE,TRUE,FALSE,TRUE,"""event"",""trial"",""time""
