trial_type,trial_index,time_elapsed,internal_node_id,rocket_sides,red_planet_first_rocket,red_display_order,purple_display_order,interactions,blur_events,focus_events,fullscreenenter_events,fullscreenexit_events,rt,stimulus,key_press,button_pressed,success,duration,valid_pressed,rts,keys,planet_text,right_text,left_text,center_text,chosen_text,reward_text,trial_stage,practice_trial,transition_type,choice,transition,reward,timestamp,subject_id
pavlovia,0,12,0.0-0.0,TRUE,FALSE,TRUE,FALSE,"""event"",""trial"",""time""
""blur"",""0"",""0""
""focus"",""0"",""0""
""blur"",""1"",""4212""
""focus"",""1"",""6139""
","""event"",""trial"",""time""
""blur"",""0"",""0""
""blur"",""1"",""4212""
","""event"",""trial"",""time""
""focus"",""0"",""0""
""focus"",""1"",""6139""
","
","
",NA,NA,NA,NA,NA,NA,NA,NA,NA,NA,NA,NA,NA,NA,NA,NA,NA,NA,NA,NA,NA,NA,sub116
html-keyboard-response,1,7583,0.0-1.0,TRUE,FALSE,TRUE,FALSE,"""event"",""trial"",""time""
""blur"",""0"",""0""
""focus"",""0"",""0""
""blur"",""1"",""4212""
""focus"",""1"",""6139""
","""event"",""trial"",""time""
""blur"",""0"",""0""
""blur"",""1"",""4212""
","""event"",""trial"",""time""
""focus"",""0"",""0""
""focus"",""1"",""6139""
","
","
",7568.00500000827,Welcome! Press the space bar to begin.,32,NA,NA,NA,NA,NA,NA,NA,NA,NA,NA,NA,NA,NA,NA,NA,NA,NA,NA,NA,sub116
audio-keyboard-response,2,10112,0.0-2.0,TRUE,FALSE,TRUE,FALSE,"""event"",""trial"",""time""
""blur"",""0"",""0""
""focus"",""0"",""0""
""blur"",""1"",""4212""
""focus"",""1"",""6139""
","""event"",""trial"",""time""
""blur"",""0"",""0""
""blur"",""1"",""4212""
","""event"",""trial"",""time""
""focus"",""0"",""0""
""focus"",""1"",""6139""
","
","
",2470,audio/beep_loop.wav,32,NA,NA,NA,NA,NA,NA,NA,NA,NA,NA,NA,NA,NA,NA,NA,NA,NA,NA,NA,sub116
audio-button-response,3,12396,0.0-3.0,TRUE,FALSE,TRUE,FALSE,"""event"",""trial"",""time""
""blur"",""0"",""0""
""focus"",""0"",""0""
""blur"",""1"",""4212""
""focus"",""1"",""6139""
","""event"",""trial"",""time""
""blur"",""0"",""0""
""blur"",""1"",""4212""
","""event"",""trial"",""time""
""focus"",""0"",""0""
""focus"",""1"",""6139""
","
","
",NaN,audio/fish.mp3,NA,1,NA,NA,NA,NA,NA,NA,NA,NA,NA,NA,NA,NA,NA,NA,NA,NA,NA,NA,sub116
audio-button-response,4,15261,0.0-4.0,TRUE,FALSE,TRUE,FALSE,"""event"",""trial"",""time""
""blur"",""0"",""0""
""focus"",""0"",""0""
""blur"",""1"",""4212""
""focus"",""1"",""6139""
""fullscreenenter"",""5"",""18005""
","""event"",""trial"",""time""
""blur"",""0"",""0""
""blur"",""1"",""4212""
","""event"",""trial"",""time""
""focus"",""0"",""0""
""focus"",""1"",""6139""
","""event"",""trial"",""time""
""fullscreenenter"",""5"",""18005""
","
",NaN,audio/tiger.mp3,NA,4,NA,NA,NA,NA,NA,NA,NA,NA,NA,NA,NA,NA,NA,NA,NA,NA,NA,NA,sub116
fullscreen,5,18977,0.0-5.0,TRUE,FALSE,TRUE,FALSE,"""event"",""trial"",""time""
""blur"",""0"",""0""
""focus"",""0"",""0""
""blur"",""1"",""4212""
""focus"",""1"",""6139""
""fullscreenenter"",""5"",""18005""
","""event"",""trial"",""time""
""blur"",""0"",""0""
""blur"",""1"",""4212""
","""event"",""trial"",""time""
""focus"",""0"",""0""
""focus"",""1"",""6139""
","""event"",""trial"",""time""
""fullscreenenter"",""5"",""18005""
","
",NA,NA,NA,NA,TRUE,NA,NA,NA,NA,NA,NA,NA,NA,NA,NA,NA,NA,NA,NA,NA,NA,NA,sub116
d3-instructions,6,26254,0.0-6.0,TRUE,FALSE,TRUE,FALSE,"""event"",""trial"",""time""
""blur"",""0"",""0""
""focus"",""0"",""0""
""blur"",""1"",""4212""
""focus"",""1"",""6139""
""fullscreenenter"",""5"",""18005""
","""event"",""trial"",""time""
""blur"",""0"",""0""
""blur"",""1"",""4212""
","""event"",""trial"",""time""
""focus"",""0"",""0""
""focus"",""1"",""6139""
","""event"",""trial"",""time""
""fullscreenenter"",""5"",""18005""
","
",NA,NA,NA,NA,NA,NA,NA,NA,NA,NA,NA,NA,NA,NA,NA,NA,NA,NA,NA,NA,NA,NA,sub116
d3-instructions,7,68581,0.0-7.0,TRUE,FALSE,TRUE,FALSE,"""event"",""trial"",""time""
""blur"",""0"",""0""
""focus"",""0"",""0""
""blur"",""1"",""4212""
""focus"",""1"",""6139""
""fullscreenenter"",""5"",""18005""
","""event"",""trial"",""time""
""blur"",""0"",""0""
""blur"",""1"",""4212""
","""event"",""trial"",""time""
""focus"",""0"",""0""
""focus"",""1"",""6139""
","""event"",""trial"",""time""
""fullscreenenter"",""5"",""18005""
","
",NA,NA,NA,NA,NA,NA,NA,NA,NA,NA,NA,NA,NA,NA,NA,NA,NA,NA,NA,NA,NA,NA,sub116
d3-instructions,8,75843,0.0-8.0,TRUE,FALSE,TRUE,FALSE,"""event"",""trial"",""time""
""blur"",""0"",""0""
""focus"",""0"",""0""
""blur"",""1"",""4212""
""focus"",""1"",""6139""
""fullscreenenter"",""5"",""18005""
","""event"",""trial"",""time""
""blur"",""0"",""0""
""blur"",""1"",""4212""
","""event"",""trial"",""time""
""focus"",""0"",""0""
""focus"",""1"",""6139""
","""event"",""trial"",""time""
""fullscreenenter"",""5"",""18005""
","
",NA,NA,NA,NA,NA,NA,NA,NA,NA,NA,NA,NA,NA,NA,NA,NA,NA,NA,NA,NA,NA,NA,sub116
d3-instructions,9,85794,0.0-9.0,TRUE,FALSE,TRUE,FALSE,"""event"",""trial"",""time""
""blur"",""0"",""0""
""focus"",""0"",""0""
""blur"",""1"",""4212""
""focus"",""1"",""6139""
""fullscreenenter"",""5"",""18005""
","""event"",""trial"",""time""
""blur"",""0"",""0""
""blur"",""1"",""4212""
","""event"",""trial"",""time""
""focus"",""0"",""0""
""focus"",""1"",""6139""
","""event"",""trial"",""time""
""fullscreenenter"",""5"",""18005""
","
",NA,NA,NA,NA,NA,NA,NA,NA,NA,NA,NA,NA,NA,NA,NA,NA,NA,NA,NA,NA,NA,NA,sub116
d3-instructions,10,96490,0.0-10.0,TRUE,FALSE,TRUE,FALSE,"""event"",""trial"",""time""
""blur"",""0"",""0""
""focus"",""0"",""0""
""blur"",""1"",""4212""
""focus"",""1"",""6139""
""fullscreenenter"",""5"",""18005""
","""event"",""trial"",""time""
""blur"",""0"",""0""
""blur"",""1"",""4212""
","""event"",""trial"",""time""
""focus"",""0"",""0""
""focus"",""1"",""6139""
","""event"",""trial"",""time""
""fullscreenenter"",""5"",""18005""
","
",NA,NA,NA,NA,NA,NA,NA,NA,NA,NA,NA,NA,NA,NA,NA,NA,NA,NA,NA,NA,NA,NA,sub116
d3-animate-choice,11,99877,0.0-11.0,TRUE,FALSE,TRUE,FALSE,"""event"",""trial"",""time""
""blur"",""0"",""0""
""focus"",""0"",""0""
""blur"",""1"",""4212""
""focus"",""1"",""6139""
""fullscreenenter"",""5"",""18005""
","""event"",""trial"",""time""
""blur"",""0"",""0""
""blur"",""1"",""4212""
","""event"",""trial"",""time""
""focus"",""0"",""0""
""focus"",""1"",""6139""
","""event"",""trial"",""time""
""fullscreenenter"",""5"",""18005""
","
",1368.064999987837,NA,49,NA,NA,3000,1,2972.459999960847,48,images/tutgreenplanet.jpg,images/tutalien1,images/tutalien2,null,images/tutalien2,NA,NA,practice,null,NA,NA,NA,NA,sub116
d3-animate-choice,12,102727,0.0-12.0,TRUE,FALSE,TRUE,FALSE,"""event"",""trial"",""time""
""blur"",""0"",""0""
""focus"",""0"",""0""
""blur"",""1"",""4212""
""focus"",""1"",""6139""
""fullscreenenter"",""5"",""18005""
","""event"",""trial"",""time""
""blur"",""0"",""0""
""blur"",""1"",""4212""
","""event"",""trial"",""time""
""focus"",""0"",""0""
""focus"",""1"",""6139""
","""event"",""trial"",""time""
""fullscreenenter"",""5"",""18005""
","
",843.860000022687,NA,48,NA,NA,3000,1,NA,NA,images/tutgreenplanet.jpg,images/tutalien1,images/tutalien2,null,images/tutalien1,NA,NA,practice,null,NA,NA,NA,NA,sub116
d3-animate-choice,13,104991,0.0-13.0,TRUE,FALSE,TRUE,FALSE,"""event"",""trial"",""time""
""blur"",""0"",""0""
""focus"",""0"",""0""
""blur"",""1"",""4212""
""focus"",""1"",""6139""
""fullscreenenter"",""5"",""18005""
","""event"",""trial"",""time""
""blur"",""0"",""0""
""blur"",""1"",""4212""
","""event"",""trial"",""time""
""focus"",""0"",""0""
""focus"",""1"",""6139""
","""event"",""trial"",""time""
""fullscreenenter"",""5"",""18005""
","
",258.6800000281073,NA,49,NA,NA,3000,1,NA,NA,images/tutgreenplanet.jpg,images/tutalien1,images/tutalien2,null,images/tutalien2,NA,NA,practice,null,NA,NA,NA,NA,sub116
d3-animate-choice,14,107309,0.0-14.0,TRUE,FALSE,TRUE,FALSE,"""event"",""trial"",""time""
""blur"",""0"",""0""
""focus"",""0"",""0""
""blur"",""1"",""4212""
""focus"",""1"",""6139""
""fullscreenenter"",""5"",""18005""
","""event"",""trial"",""time""
""blur"",""0"",""0""
""blur"",""1"",""4212""
","""event"",""trial"",""time""
""focus"",""0"",""0""
""focus"",""1"",""6139""
","""event"",""trial"",""time""
""fullscreenenter"",""5"",""18005""
","
",312.8100000321865,NA,49,NA,NA,3000,1,NA,NA,images/tutgreenplanet.jpg,images/tutalien1,images/tutalien2,null,images/tutalien2,NA,NA,practice,null,NA,NA,NA,NA,sub116
d3-instructions,15,113273,0.0-15.0,TRUE,FALSE,TRUE,FALSE,"""event"",""trial"",""time""
""blur"",""0"",""0""
""focus"",""0"",""0""
""blur"",""1"",""4212""
""focus"",""1"",""6139""
""fullscreenenter"",""5"",""18005""
","""event"",""trial"",""time""
""blur"",""0"",""0""
""blur"",""1"",""4212""
","""event"",""trial"",""time""
""focus"",""0"",""0""
""focus"",""1"",""6139""
","""event"",""trial"",""time""
""fullscreenenter"",""5"",""18005""
","
",NA,NA,NA,NA,NA,NA,NA,NA,NA,NA,NA,NA,NA,NA,NA,NA,NA,NA,NA,NA,NA,NA,sub116
d3-instructions,16,116488,0.0-16.0,TRUE,FALSE,TRUE,FALSE,"""event"",""trial"",""time""
""blur"",""0"",""0""
""focus"",""0"",""0""
""blur"",""1"",""4212""
""focus"",""1"",""6139""
""fullscreenenter"",""5"",""18005""
","""event"",""trial"",""time""
""blur"",""0"",""0""
""blur"",""1"",""4212""
","""event"",""trial"",""time""
""focus"",""0"",""0""
""focus"",""1"",""6139""
","""event"",""trial"",""time""
""fullscreenenter"",""5"",""18005""
","
",NA,NA,NA,NA,NA,NA,NA,NA,NA,NA,NA,NA,NA,NA,NA,NA,NA,NA,NA,NA,NA,NA,sub116
d3-instructions,17,125124,0.0-17.0,TRUE,FALSE,TRUE,FALSE,"""event"",""trial"",""time""
""blur"",""0"",""0""
""focus"",""0"",""0""
""blur"",""1"",""4212""
""focus"",""1"",""6139""
""fullscreenenter"",""5"",""18005""
","""event"",""trial"",""time""
""blur"",""0"",""0""
""blur"",""1"",""4212""
","""event"",""trial"",""time""
""focus"",""0"",""0""
""focus"",""1"",""6139""
","""event"",""trial"",""time""
""fullscreenenter"",""5"",""18005""
","
",NA,NA,NA,NA,NA,NA,NA,NA,NA,NA,NA,NA,NA,NA,NA,NA,NA,NA,NA,NA,NA,NA,sub116
d3-instructions,18,129197,0.0-18.0,TRUE,FALSE,TRUE,FALSE,"""event"",""trial"",""time""
""blur"",""0"",""0""
""focus"",""0"",""0""
""blur"",""1"",""4212""
""focus"",""1"",""6139""
""fullscreenenter"",""5"",""18005""
","""event"",""trial"",""time""
""blur"",""0"",""0""
""blur"",""1"",""4212""
","""event"",""trial"",""time""
""focus"",""0"",""0""
""focus"",""1"",""6139""
","""event"",""trial"",""time""
""fullscreenenter"",""5"",""18005""
","
",NA,NA,NA,NA,NA,NA,NA,NA,NA,NA,NA,NA,NA,NA,NA,NA,NA,NA,NA,NA,NA,NA,sub116
d3-instructions,19,133903,0.0-19.0,TRUE,FALSE,TRUE,FALSE,"""event"",""trial"",""time""
""blur"",""0"",""0""
""focus"",""0"",""0""
""blur"",""1"",""4212""
""focus"",""1"",""6139""
""fullscreenenter"",""5"",""18005""
","""event"",""trial"",""time""
""blur"",""0"",""0""
""blur"",""1"",""4212""
","""event"",""trial"",""time""
""focus"",""0"",""0""
""focus"",""1"",""6139""
","""event"",""trial"",""time""
""fullscreenenter"",""5"",""18005""
","
",NA,NA,NA,NA,NA,NA,NA,NA,NA,NA,NA,NA,NA,NA,NA,NA,NA,NA,NA,NA,NA,NA,sub116
d3-animate-choice,20,136423,0.0-20.0,TRUE,FALSE,TRUE,FALSE,"""event"",""trial"",""time""
""blur"",""0"",""0""
""focus"",""0"",""0""
""blur"",""1"",""4212""
""focus"",""1"",""6139""
""fullscreenenter"",""5"",""18005""
","""event"",""trial"",""time""
""blur"",""0"",""0""
""blur"",""1"",""4212""
","""event"",""trial"",""time""
""focus"",""0"",""0""
""focus"",""1"",""6139""
","""event"",""trial"",""time""
""fullscreenenter"",""5"",""18005""
","
",514.7599999909289,NA,49,NA,NA,3000,1,NA,NA,images/tutyellowplanet.jpg,null,images/tutalien3,null,images/tutalien3,images/t.png,NA,practice,null,NA,NA,NA,NA,sub116
d3-animate-choice,21,138695,0.0-21.0,TRUE,FALSE,TRUE,FALSE,"""event"",""trial"",""time""
""blur"",""0"",""0""
""focus"",""0"",""0""
""blur"",""1"",""4212""
""focus"",""1"",""6139""
""fullscreenenter"",""5"",""18005""
","""event"",""trial"",""time""
""blur"",""0"",""0""
""blur"",""1"",""4212""
","""event"",""trial"",""time""
""focus"",""0"",""0""
""focus"",""1"",""6139""
","""event"",""trial"",""time""
""fullscreenenter"",""5"",""18005""
","
",265.9049999783747,NA,49,NA,NA,3000,1,NA,NA,images/tutyellowplanet.jpg,null,images/tutalien3,null,images/tutalien3,images/t.png,NA,practice,null,NA,NA,NA,NA,sub116
d3-animate-choice,22,140936,0.0-22.0,TRUE,FALSE,TRUE,FALSE,"""event"",""trial"",""time""
""blur"",""0"",""0""
""focus"",""0"",""0""
""blur"",""1"",""4212""
""focus"",""1"",""6139""
""fullscreenenter"",""5"",""18005""
","""event"",""trial"",""time""
""blur"",""0"",""0""
""blur"",""1"",""4212""
","""event"",""trial"",""time""
""focus"",""0"",""0""
""focus"",""1"",""6139""
","""event"",""trial"",""time""
""fullscreenenter"",""5"",""18005""
","
",236.6999999503605,NA,49,NA,NA,3000,1,NA,NA,images/tutyellowplanet.jpg,null,images/tutalien3,null,images/tutalien3,images/t.png,NA,practice,null,NA,NA,NA,NA,sub116
d3-animate-choice,23,143220,0.0-23.0,TRUE,FALSE,TRUE,FALSE,"""event"",""trial"",""time""
""blur"",""0"",""0""
""focus"",""0"",""0""
""blur"",""1"",""4212""
""focus"",""1"",""6139""
""fullscreenenter"",""5"",""18005""
","""event"",""trial"",""time""
""blur"",""0"",""0""
""blur"",""1"",""4212""
","""event"",""trial"",""time""
""focus"",""0"",""0""
""focus"",""1"",""6139""
","""event"",""trial"",""time""
""fullscreenenter"",""5"",""18005""
","
",277.46000001206994,NA,49,NA,NA,3000,1,NA,NA,images/tutyellowplanet.jpg,null,images/tutalien3,null,images/tutalien3,images/t.png,NA,practice,null,NA,NA,NA,NA,sub116
d3-animate-choice,24,145467,0.0-24.0,TRUE,FALSE,TRUE,FALSE,"""event"",""trial"",""time""
""blur"",""0"",""0""
""focus"",""0"",""0""
""blur"",""1"",""4212""
""focus"",""1"",""6139""
""fullscreenenter"",""5"",""18005""
","""event"",""trial"",""time""
""blur"",""0"",""0""
""blur"",""1"",""4212""
","""event"",""trial"",""time""
""focus"",""0"",""0""
""focus"",""1"",""6139""
","""event"",""trial"",""time""
""fullscreenenter"",""5"",""18005""
","
",242.9250000277534,NA,49,NA,NA,3000,1,NA,NA,images/tutyellowplanet.jpg,null,images/tutalien3,null,images/tutalien3,images/t.png,NA,practice,null,NA,NA,NA,NA,sub116
d3-animate-choice,25,147762,0.0-25.0,TRUE,FALSE,TRUE,FALSE,"""event"",""trial"",""time""
""blur"",""0"",""0""
""focus"",""0"",""0""
""blur"",""1"",""4212""
""focus"",""1"",""6139""
""fullscreenenter"",""5"",""18005""
","""event"",""trial"",""time""
""blur"",""0"",""0""
""blur"",""1"",""4212""
","""event"",""trial"",""time""
""focus"",""0"",""0""
""focus"",""1"",""6139""
","""event"",""trial"",""time""
""fullscreenenter"",""5"",""18005""
","
",290.83000001264736,NA,49,NA,NA,3000,1,NA,NA,images/tutyellowplanet.jpg,null,images/tutalien3,null,images/tutalien3,images/t.png,NA,practice,null,NA,NA,NA,NA,sub116
d3-animate-choice,26,150034,0.0-26.0,TRUE,FALSE,TRUE,FALSE,"""event"",""trial"",""time""
""blur"",""0"",""0""
""focus"",""0"",""0""
""blur"",""1"",""4212""
""focus"",""1"",""6139""
""fullscreenenter"",""5"",""18005""
","""event"",""trial"",""time""
""blur"",""0"",""0""
""blur"",""1"",""4212""
","""event"",""trial"",""time""
""focus"",""0"",""0""
""focus"",""1"",""6139""
","""event"",""trial"",""time""
""fullscreenenter"",""5"",""18005""
","
",268.1250000023283,NA,49,NA,NA,3000,1,NA,NA,images/tutyellowplanet.jpg,null,images/tutalien3,null,images/tutalien3,images/t.png,NA,practice,null,NA,NA,NA,NA,sub116
d3-animate-choice,27,152315,0.0-27.0,TRUE,FALSE,TRUE,FALSE,"""event"",""trial"",""time""
""blur"",""0"",""0""
""focus"",""0"",""0""
""blur"",""1"",""4212""
""focus"",""1"",""6139""
""fullscreenenter"",""5"",""18005""
","""event"",""trial"",""time""
""blur"",""0"",""0""
""blur"",""1"",""4212""
","""event"",""trial"",""time""
""focus"",""0"",""0""
""focus"",""1"",""6139""
","""event"",""trial"",""time""
""fullscreenenter"",""5"",""18005""
","
",275.66500002285466,NA,49,NA,NA,3000,1,NA,NA,images/tutyellowplanet.jpg,null,images/tutalien3,null,images/tutalien3,images/nothing.png,NA,practice,null,NA,NA,NA,NA,sub116
d3-animate-choice,28,154758,0.0-28.0,TRUE,FALSE,TRUE,FALSE,"""event"",""trial"",""time""
""blur"",""0"",""0""
""focus"",""0"",""0""
""blur"",""1"",""4212""
""focus"",""1"",""6139""
""fullscreenenter"",""5"",""18005""
","""event"",""trial"",""time""
""blur"",""0"",""0""
""blur"",""1"",""4212""
","""event"",""trial"",""time""
""focus"",""0"",""0""
""focus"",""1"",""6139""
","""event"",""trial"",""time""
""fullscreenenter"",""5"",""18005""
","
",437.54999997327104,NA,49,NA,NA,3000,1,NA,NA,images/tutyellowplanet.jpg,null,images/tutalien3,null,images/tutalien3,images/t.png,NA,practice,null,NA,NA,NA,NA,sub116
d3-animate-choice,29,157046,0.0-29.0,TRUE,FALSE,TRUE,FALSE,"""event"",""trial"",""time""
""blur"",""0"",""0""
""focus"",""0"",""0""
""blur"",""1"",""4212""
""focus"",""1"",""6139""
""fullscreenenter"",""5"",""18005""
","""event"",""trial"",""time""
""blur"",""0"",""0""
""blur"",""1"",""4212""
","""event"",""trial"",""time""
""focus"",""0"",""0""
""focus"",""1"",""6139""
","""event"",""trial"",""time""
""fullscreenenter"",""5"",""18005""
","
",286.10500000650063,NA,49,NA,NA,3000,1,NA,NA,images/tutyellowplanet.jpg,null,images/tutalien3,null,images/tutalien3,images/t.png,NA,practice,null,NA,NA,NA,NA,sub116
d3-instructions,30,162606,0.0-30.0,TRUE,FALSE,TRUE,FALSE,"""event"",""trial"",""time""
""blur"",""0"",""0""
""focus"",""0"",""0""
""blur"",""1"",""4212""
""focus"",""1"",""6139""
""fullscreenenter"",""5"",""18005""
","""event"",""trial"",""time""
""blur"",""0"",""0""
""blur"",""1"",""4212""
","""event"",""trial"",""time""
""focus"",""0"",""0""
""focus"",""1"",""6139""
","""event"",""trial"",""time""
""fullscreenenter"",""5"",""18005""
","
",NA,NA,NA,NA,NA,NA,NA,NA,NA,NA,NA,NA,NA,NA,NA,NA,NA,NA,NA,NA,NA,NA,sub116
d3-instructions,31,165810,0.0-31.0,TRUE,FALSE,TRUE,FALSE,"""event"",""trial"",""time""
""blur"",""0"",""0""
""focus"",""0"",""0""
""blur"",""1"",""4212""
""focus"",""1"",""6139""
""fullscreenenter"",""5"",""18005""
","""event"",""trial"",""time""
""blur"",""0"",""0""
""blur"",""1"",""4212""
","""event"",""trial"",""time""
""focus"",""0"",""0""
""focus"",""1"",""6139""
","""event"",""trial"",""time""
""fullscreenenter"",""5"",""18005""
","
",NA,NA,NA,NA,NA,NA,NA,NA,NA,NA,NA,NA,NA,NA,NA,NA,NA,NA,NA,NA,NA,NA,sub116
d3-instructions,32,172696,0.0-32.0,TRUE,FALSE,TRUE,FALSE,"""event"",""trial"",""time""
""blur"",""0"",""0""
""focus"",""0"",""0""
""blur"",""1"",""4212""
""focus"",""1"",""6139""
""fullscreenenter"",""5"",""18005""
","""event"",""trial"",""time""
""blur"",""0"",""0""
""blur"",""1"",""4212""
","""event"",""trial"",""time""
""focus"",""0"",""0""
""focus"",""1"",""6139""
","""event"",""trial"",""time""
""fullscreenenter"",""5"",""18005""
","
",NA,NA,NA,NA,NA,NA,NA,NA,NA,NA,NA,NA,NA,NA,NA,NA,NA,NA,NA,NA,NA,NA,sub116
d3-instructions,33,179089,0.0-33.0,TRUE,FALSE,TRUE,FALSE,"""event"",""trial"",""time""
""blur"",""0"",""0""
""focus"",""0"",""0""
""blur"",""1"",""4212""
""focus"",""1"",""6139""
""fullscreenenter"",""5"",""18005""
","""event"",""trial"",""time""
""blur"",""0"",""0""
""blur"",""1"",""4212""
","""event"",""trial"",""time""
""focus"",""0"",""0""
""focus"",""1"",""6139""
","""event"",""trial"",""time""
""fullscreenenter"",""5"",""18005""
","
",NA,NA,NA,NA,NA,NA,NA,NA,NA,NA,NA,NA,NA,NA,NA,NA,NA,NA,NA,NA,NA,NA,sub116
d3-animate-choice,34,181985,0.0-34.0,TRUE,FALSE,TRUE,FALSE,"""event"",""trial"",""time""
""blur"",""0"",""0""
""focus"",""0"",""0""
""blur"",""1"",""4212""
""focus"",""1"",""6139""
""fullscreenenter"",""5"",""18005""
","""event"",""trial"",""time""
""blur"",""0"",""0""
""blur"",""1"",""4212""
","""event"",""trial"",""time""
""focus"",""0"",""0""
""focus"",""1"",""6139""
","""event"",""trial"",""time""
""fullscreenenter"",""5"",""18005""
","
",888.9199999975972,NA,49,NA,NA,3000,1,NA,NA,images/tutgreenplanet.jpg,images/tutalien1,images/tutalien2,null,images/tutalien2,images/t.png,NA,practice,null,NA,NA,NA,NA,sub116
d3-animate-choice,35,184470,0.0-35.0,TRUE,FALSE,TRUE,FALSE,"""event"",""trial"",""time""
""blur"",""0"",""0""
""focus"",""0"",""0""
""blur"",""1"",""4212""
""focus"",""1"",""6139""
""fullscreenenter"",""5"",""18005""
","""event"",""trial"",""time""
""blur"",""0"",""0""
""blur"",""1"",""4212""
","""event"",""trial"",""time""
""focus"",""0"",""0""
""focus"",""1"",""6139""
","""event"",""trial"",""time""
""fullscreenenter"",""5"",""18005""
","
",481.5599999856204,NA,49,NA,NA,3000,1,NA,NA,images/tutgreenplanet.jpg,images/tutalien1,images/tutalien2,null,images/tutalien2,images/t.png,NA,practice,null,NA,NA,NA,NA,sub116
d3-animate-choice,36,186782,0.0-36.0,TRUE,FALSE,TRUE,FALSE,"""event"",""trial"",""time""
""blur"",""0"",""0""
""focus"",""0"",""0""
""blur"",""1"",""4212""
""focus"",""1"",""6139""
""fullscreenenter"",""5"",""18005""
","""event"",""trial"",""time""
""blur"",""0"",""0""
""blur"",""1"",""4212""
","""event"",""trial"",""time""
""focus"",""0"",""0""
""focus"",""1"",""6139""
","""event"",""trial"",""time""
""fullscreenenter"",""5"",""18005""
","
",308.43999999342486,NA,49,NA,NA,3000,1,NA,NA,images/tutgreenplanet.jpg,images/tutalien1,images/tutalien2,null,images/tutalien2,images/t.png,NA,practice,null,NA,NA,NA,NA,sub116
d3-animate-choice,37,190763,0.0-37.0,TRUE,FALSE,TRUE,FALSE,"""event"",""trial"",""time""
""blur"",""0"",""0""
""focus"",""0"",""0""
""blur"",""1"",""4212""
""focus"",""1"",""6139""
""fullscreenenter"",""5"",""18005""
","""event"",""trial"",""time""
""blur"",""0"",""0""
""blur"",""1"",""4212""
","""event"",""trial"",""time""
""focus"",""0"",""0""
""focus"",""1"",""6139""
","""event"",""trial"",""time""
""fullscreenenter"",""5"",""18005""
","
",1973.699999973178,NA,48,NA,NA,3000,1,NA,NA,images/tutgreenplanet.jpg,images/tutalien1,images/tutalien2,null,images/tutalien1,images/nothing.png,NA,practice,null,NA,NA,NA,NA,sub116
d3-animate-choice,38,193280,0.0-38.0,TRUE,FALSE,TRUE,FALSE,"""event"",""trial"",""time""
""blur"",""0"",""0""
""focus"",""0"",""0""
""blur"",""1"",""4212""
""focus"",""1"",""6139""
""fullscreenenter"",""5"",""18005""
","""event"",""trial"",""time""
""blur"",""0"",""0""
""blur"",""1"",""4212""
","""event"",""trial"",""time""
""focus"",""0"",""0""
""focus"",""1"",""6139""
","""event"",""trial"",""time""
""fullscreenenter"",""5"",""18005""
","
",510.92999998945743,NA,48,NA,NA,3000,1,NA,NA,images/tutgreenplanet.jpg,images/tutalien1,images/tutalien2,null,images/tutalien1,images/nothing.png,NA,practice,null,NA,NA,NA,NA,sub116
d3-animate-choice,39,195616,0.0-39.0,TRUE,FALSE,TRUE,FALSE,"""event"",""trial"",""time""
""blur"",""0"",""0""
""focus"",""0"",""0""
""blur"",""1"",""4212""
""focus"",""1"",""6139""
""fullscreenenter"",""5"",""18005""
","""event"",""trial"",""time""
""blur"",""0"",""0""
""blur"",""1"",""4212""
","""event"",""trial"",""time""
""focus"",""0"",""0""
""focus"",""1"",""6139""
","""event"",""trial"",""time""
""fullscreenenter"",""5"",""18005""
","
",331.9749999791384,NA,48,NA,NA,3000,1,NA,NA,images/tutgreenplanet.jpg,images/tutalien1,images/tutalien2,null,images/tutalien1,images/nothing.png,NA,practice,null,NA,NA,NA,NA,sub116
d3-animate-choice,40,197918,0.0-40.0,TRUE,FALSE,TRUE,FALSE,"""event"",""trial"",""time""
""blur"",""0"",""0""
""focus"",""0"",""0""
""blur"",""1"",""4212""
""focus"",""1"",""6139""
""fullscreenenter"",""5"",""18005""
","""event"",""trial"",""time""
""blur"",""0"",""0""
""blur"",""1"",""4212""
","""event"",""trial"",""time""
""focus"",""0"",""0""
""focus"",""1"",""6139""
","""event"",""trial"",""time""
""fullscreenenter"",""5"",""18005""
","
",296.73999996157363,NA,49,NA,NA,3000,1,NA,NA,images/tutgreenplanet.jpg,images/tutalien1,images/tutalien2,null,images/tutalien2,images/nothing.png,NA,practice,null,NA,NA,NA,NA,sub116
d3-animate-choice,41,200184,0.0-41.0,TRUE,FALSE,TRUE,FALSE,"""event"",""trial"",""time""
""blur"",""0"",""0""
""focus"",""0"",""0""
""blur"",""1"",""4212""
""focus"",""1"",""6139""
""fullscreenenter"",""5"",""18005""
","""event"",""trial"",""time""
""blur"",""0"",""0""
""blur"",""1"",""4212""
","""event"",""trial"",""time""
""focus"",""0"",""0""
""focus"",""1"",""6139""
","""event"",""trial"",""time""
""fullscreenenter"",""5"",""18005""
","
",260.6149999774061,NA,49,NA,NA,3000,1,NA,NA,images/tutgreenplanet.jpg,images/tutalien1,images/tutalien2,null,images/tutalien2,images/t.png,NA,practice,null,NA,NA,NA,NA,sub116
d3-animate-choice,42,202450,0.0-42.0,TRUE,FALSE,TRUE,FALSE,"""event"",""trial"",""time""
""blur"",""0"",""0""
""focus"",""0"",""0""
""blur"",""1"",""4212""
""focus"",""1"",""6139""
""fullscreenenter"",""5"",""18005""
","""event"",""trial"",""time""
""blur"",""0"",""0""
""blur"",""1"",""4212""
","""event"",""trial"",""time""
""focus"",""0"",""0""
""focus"",""1"",""6139""
","""event"",""trial"",""time""
""fullscreenenter"",""5"",""18005""
","
",259.19000001158565,NA,49,NA,NA,3000,1,NA,NA,images/tutgreenplanet.jpg,images/tutalien1,images/tutalien2,null,images/tutalien2,images/t.png,NA,practice,null,NA,NA,NA,NA,sub116
d3-animate-choice,43,205777,0.0-43.0,TRUE,FALSE,TRUE,FALSE,"""event"",""trial"",""time""
""blur"",""0"",""0""
""focus"",""0"",""0""
""blur"",""1"",""4212""
""focus"",""1"",""6139""
""fullscreenenter"",""5"",""18005""
","""event"",""trial"",""time""
""blur"",""0"",""0""
""blur"",""1"",""4212""
","""event"",""trial"",""time""
""focus"",""0"",""0""
""focus"",""1"",""6139""
","""event"",""trial"",""time""
""fullscreenenter"",""5"",""18005""
","
",1322.379999968689,NA,48,NA,NA,3000,1,NA,NA,images/tutgreenplanet.jpg,images/tutalien1,images/tutalien2,null,images/tutalien1,images/nothing.png,NA,practice,null,NA,NA,NA,NA,sub116
d3-instructions,44,211296,0.0-44.0,TRUE,FALSE,TRUE,FALSE,"""event"",""trial"",""time""
""blur"",""0"",""0""
""focus"",""0"",""0""
""blur"",""1"",""4212""
""focus"",""1"",""6139""
""fullscreenenter"",""5"",""18005""
","""event"",""trial"",""time""
""blur"",""0"",""0""
""blur"",""1"",""4212""
","""event"",""trial"",""time""
""focus"",""0"",""0""
""focus"",""1"",""6139""
","""event"",""trial"",""time""
""fullscreenenter"",""5"",""18005""
","
",NA,NA,NA,NA,NA,NA,NA,NA,NA,NA,NA,NA,NA,NA,NA,NA,NA,NA,NA,NA,NA,NA,sub116
d3-instructions,45,213813,0.0-45.0,TRUE,FALSE,TRUE,FALSE,"""event"",""trial"",""time""
""blur"",""0"",""0""
""focus"",""0"",""0""
""blur"",""1"",""4212""
""focus"",""1"",""6139""
""fullscreenenter"",""5"",""18005""
","""event"",""trial"",""time""
""blur"",""0"",""0""
""blur"",""1"",""4212""
","""event"",""trial"",""time""
""focus"",""0"",""0""
""focus"",""1"",""6139""
","""event"",""trial"",""time""
""fullscreenenter"",""5"",""18005""
","
",NA,NA,NA,NA,NA,NA,NA,NA,NA,NA,NA,NA,NA,NA,NA,NA,NA,NA,NA,NA,NA,NA,sub116
d3-instructions,46,218950,0.0-46.0,TRUE,FALSE,TRUE,FALSE,"""event"",""trial"",""time""
""blur"",""0"",""0""
""focus"",""0"",""0""
""blur"",""1"",""4212""
""focus"",""1"",""6139""
""fullscreenenter"",""5"",""18005""
","""event"",""trial"",""time""
""blur"",""0"",""0""
""blur"",""1"",""4212""
","""event"",""trial"",""time""
""focus"",""0"",""0""
""focus"",""1"",""6139""
","""event"",""trial"",""time""
""fullscreenenter"",""5"",""18005""
","
",NA,NA,NA,NA,NA,NA,NA,NA,NA,NA,NA,NA,NA,NA,NA,NA,NA,NA,NA,NA,NA,NA,sub116
d3-instructions,47,225334,0.0-47.0,TRUE,FALSE,TRUE,FALSE,"""event"",""trial"",""time""
""blur"",""0"",""0""
""focus"",""0"",""0""
""blur"",""1"",""4212""
""focus"",""1"",""6139""
""fullscreenenter"",""5"",""18005""
","""event"",""trial"",""time""
""blur"",""0"",""0""
""blur"",""1"",""4212""
","""event"",""trial"",""time""
""focus"",""0"",""0""
""focus"",""1"",""6139""
","""event"",""trial"",""time""
""fullscreenenter"",""5"",""18005""
","
",NA,NA,NA,NA,NA,NA,NA,NA,NA,NA,NA,NA,NA,NA,NA,NA,NA,NA,NA,NA,NA,NA,sub116
d3-instructions,48,229528,0.0-48.0,TRUE,FALSE,TRUE,FALSE,"""event"",""trial"",""time""
""blur"",""0"",""0""
""focus"",""0"",""0""
""blur"",""1"",""4212""
""focus"",""1"",""6139""
""fullscreenenter"",""5"",""18005""
","""event"",""trial"",""time""
""blur"",""0"",""0""
""blur"",""1"",""4212""
","""event"",""trial"",""time""
""focus"",""0"",""0""
""focus"",""1"",""6139""
","""event"",""trial"",""time""
""fullscreenenter"",""5"",""18005""
","
",NA,NA,NA,NA,NA,NA,NA,NA,NA,NA,NA,NA,NA,NA,NA,NA,NA,NA,NA,NA,NA,NA,sub116
d3-instructions,49,232492,0.0-49.0,TRUE,FALSE,TRUE,FALSE,"""event"",""trial"",""time""
""blur"",""0"",""0""
""focus"",""0"",""0""
""blur"",""1"",""4212""
""focus"",""1"",""6139""
""fullscreenenter"",""5"",""18005""
","""event"",""trial"",""time""
""blur"",""0"",""0""
""blur"",""1"",""4212""
","""event"",""trial"",""time""
""focus"",""0"",""0""
""focus"",""1"",""6139""
","""event"",""trial"",""time""
""fullscreenenter"",""5"",""18005""
","
",NA,NA,NA,NA,NA,NA,NA,NA,NA,NA,NA,NA,NA,NA,NA,NA,NA,NA,NA,NA,NA,NA,sub116
d3-instructions,50,234742,0.0-50.0,TRUE,FALSE,TRUE,FALSE,"""event"",""trial"",""time""
""blur"",""0"",""0""
""focus"",""0"",""0""
""blur"",""1"",""4212""
""focus"",""1"",""6139""
""fullscreenenter"",""5"",""18005""
","""event"",""trial"",""time""
""blur"",""0"",""0""
""blur"",""1"",""4212""
","""event"",""trial"",""time""
""focus"",""0"",""0""
""focus"",""1"",""6139""
","""event"",""trial"",""time""
""fullscreenenter"",""5"",""18005""
","
",NA,NA,NA,NA,NA,NA,NA,NA,NA,NA,NA,NA,NA,NA,NA,NA,NA,NA,NA,NA,NA,NA,sub116
d3-instructions,51,237468,0.0-51.0,TRUE,FALSE,TRUE,FALSE,"""event"",""trial"",""time""
""blur"",""0"",""0""
""focus"",""0"",""0""
""blur"",""1"",""4212""
""focus"",""1"",""6139""
""fullscreenenter"",""5"",""18005""
","""event"",""trial"",""time""
""blur"",""0"",""0""
""blur"",""1"",""4212""
","""event"",""trial"",""time""
""focus"",""0"",""0""
""focus"",""1"",""6139""
","""event"",""trial"",""time""
""fullscreenenter"",""5"",""18005""
","
",NA,NA,NA,NA,NA,NA,NA,NA,NA,NA,NA,NA,NA,NA,NA,NA,NA,NA,NA,NA,NA,NA,sub116
d3-instructions,52,239305,0.0-52.0,TRUE,FALSE,TRUE,FALSE,"""event"",""trial"",""time""
""blur"",""0"",""0""
""focus"",""0"",""0""
""blur"",""1"",""4212""
""focus"",""1"",""6139""
""fullscreenenter"",""5"",""18005""
","""event"",""trial"",""time""
""blur"",""0"",""0""
""blur"",""1"",""4212""
","""event"",""trial"",""time""
""focus"",""0"",""0""
""focus"",""1"",""6139""
","""event"",""trial"",""time""
""fullscreenenter"",""5"",""18005""
","
",NA,NA,NA,NA,NA,NA,NA,NA,NA,NA,NA,NA,NA,NA,NA,NA,NA,NA,NA,NA,NA,NA,sub116
d3-instructions,53,250733,0.0-53.0,TRUE,FALSE,TRUE,FALSE,"""event"",""trial"",""time""
""blur"",""0"",""0""
""focus"",""0"",""0""
""blur"",""1"",""4212""
""focus"",""1"",""6139""
""fullscreenenter"",""5"",""18005""
","""event"",""trial"",""time""
""blur"",""0"",""0""
""blur"",""1"",""4212""
","""event"",""trial"",""time""
""focus"",""0"",""0""
""focus"",""1"",""6139""
","""event"",""trial"",""time""
""fullscreenenter"",""5"",""18005""
","
",NA,NA,NA,NA,NA,NA,NA,NA,NA,NA,NA,NA,NA,NA,NA,NA,NA,NA,NA,NA,NA,NA,sub116
d3-instructions,54,265859,0.0-54.0,TRUE,FALSE,TRUE,FALSE,"""event"",""trial"",""time""
""blur"",""0"",""0""
""focus"",""0"",""0""
""blur"",""1"",""4212""
""focus"",""1"",""6139""
""fullscreenenter"",""5"",""18005""
","""event"",""trial"",""time""
""blur"",""0"",""0""
""blur"",""1"",""4212""
","""event"",""trial"",""time""
""focus"",""0"",""0""
""focus"",""1"",""6139""
","""event"",""trial"",""time""
""fullscreenenter"",""5"",""18005""
","
",NA,NA,NA,NA,NA,NA,NA,NA,NA,NA,NA,NA,NA,NA,NA,NA,NA,NA,NA,NA,NA,NA,sub116
d3-instructions,55,270303,0.0-55.0,TRUE,FALSE,TRUE,FALSE,"""event"",""trial"",""time""
""blur"",""0"",""0""
""focus"",""0"",""0""
""blur"",""1"",""4212""
""focus"",""1"",""6139""
""fullscreenenter"",""5"",""18005""
","""event"",""trial"",""time""
""blur"",""0"",""0""
""blur"",""1"",""4212""
","""event"",""trial"",""time""
""focus"",""0"",""0""
""focus"",""1"",""6139""
","""event"",""trial"",""time""
""fullscreenenter"",""5"",""18005""
","
",NA,NA,NA,NA,NA,NA,NA,NA,NA,NA,NA,NA,NA,NA,NA,NA,NA,NA,NA,NA,NA,NA,sub116
d3-instructions,56,271982,0.0-56.0,TRUE,FALSE,TRUE,FALSE,"""event"",""trial"",""time""
""blur"",""0"",""0""
""focus"",""0"",""0""
""blur"",""1"",""4212""
""focus"",""1"",""6139""
""fullscreenenter"",""5"",""18005""
","""event"",""trial"",""time""
""blur"",""0"",""0""
""blur"",""1"",""4212""
","""event"",""trial"",""time""
""focus"",""0"",""0""
""focus"",""1"",""6139""
","""event"",""trial"",""time""
""fullscreenenter"",""5"",""18005""
","
",NA,NA,NA,NA,NA,NA,NA,NA,NA,NA,NA,NA,NA,NA,NA,NA,NA,NA,NA,NA,NA,NA,sub116
d3-instructions,57,277999,0.0-57.0,TRUE,FALSE,TRUE,FALSE,"""event"",""trial"",""time""
""blur"",""0"",""0""
""focus"",""0"",""0""
""blur"",""1"",""4212""
""focus"",""1"",""6139""
""fullscreenenter"",""5"",""18005""
","""event"",""trial"",""time""
""blur"",""0"",""0""
""blur"",""1"",""4212""
","""event"",""trial"",""time""
""focus"",""0"",""0""
""focus"",""1"",""6139""
","""event"",""trial"",""time""
""fullscreenenter"",""5"",""18005""
","
",NA,NA,NA,NA,NA,NA,NA,NA,NA,NA,NA,NA,NA,NA,NA,NA,NA,NA,NA,NA,NA,NA,sub116
d3-instructions,58,282220,0.0-58.0,TRUE,FALSE,TRUE,FALSE,"""event"",""trial"",""time""
""blur"",""0"",""0""
""focus"",""0"",""0""
""blur"",""1"",""4212""
""focus"",""1"",""6139""
""fullscreenenter"",""5"",""18005""
","""event"",""trial"",""time""
""blur"",""0"",""0""
""blur"",""1"",""4212""
","""event"",""trial"",""time""
""focus"",""0"",""0""
""focus"",""1"",""6139""
","""event"",""trial"",""time""
""fullscreenenter"",""5"",""18005""
","
",NA,NA,NA,NA,NA,NA,NA,NA,NA,NA,NA,NA,NA,NA,NA,NA,NA,NA,NA,NA,NA,NA,sub116
d3-instructions,59,284046,0.0-59.0,TRUE,FALSE,TRUE,FALSE,"""event"",""trial"",""time""
""blur"",""0"",""0""
""focus"",""0"",""0""
""blur"",""1"",""4212""
""focus"",""1"",""6139""
""fullscreenenter"",""5"",""18005""
","""event"",""trial"",""time""
""blur"",""0"",""0""
""blur"",""1"",""4212""
","""event"",""trial"",""time""
""focus"",""0"",""0""
""focus"",""1"",""6139""
","""event"",""trial"",""time""
""fullscreenenter"",""5"",""18005""
","
",NA,NA,NA,NA,NA,NA,NA,NA,NA,NA,NA,NA,NA,NA,NA,NA,NA,NA,NA,NA,NA,NA,sub116
d3-instructions,60,287038,0.0-60.0,TRUE,FALSE,TRUE,FALSE,"""event"",""trial"",""time""
""blur"",""0"",""0""
""focus"",""0"",""0""
""blur"",""1"",""4212""
""focus"",""1"",""6139""
""fullscreenenter"",""5"",""18005""
","""event"",""trial"",""time""
""blur"",""0"",""0""
""blur"",""1"",""4212""
","""event"",""trial"",""time""
""focus"",""0"",""0""
""focus"",""1"",""6139""
","""event"",""trial"",""time""
""fullscreenenter"",""5"",""18005""
","
",NA,NA,NA,NA,NA,NA,NA,NA,NA,NA,NA,NA,NA,NA,NA,NA,NA,NA,NA,NA,NA,NA,sub116
d3-animate-choice,61,290576,0.0-61.0-0.0,TRUE,FALSE,TRUE,FALSE,"""event"",""trial"",""time""
""blur"",""0"",""0""
""focus"",""0"",""0""
""blur"",""1"",""4212""
""focus"",""1"",""6139""
""fullscreenenter"",""5"",""18005""
","""event"",""trial"",""time""
""blur"",""0"",""0""
""blur"",""1"",""4212""
","""event"",""trial"",""time""
""focus"",""0"",""0""
""focus"",""1"",""6139""
","""event"",""trial"",""time""
""fullscreenenter"",""5"",""18005""
","
",1535.0650000036694,NA,48,NA,NA,3000,1,NA,NA,images/earth.jpg,images/tutrocket2,images/tutrocket1,null,images/tutrocket2,NA,1,practice,null,2,NA,NA,NA,sub116
d3-animate-choice,62,293634,0.0-61.0-1.0,TRUE,FALSE,TRUE,FALSE,"""event"",""trial"",""time""
""blur"",""0"",""0""
""focus"",""0"",""0""
""blur"",""1"",""4212""
""focus"",""1"",""6139""
""fullscreenenter"",""5"",""18005""
","""event"",""trial"",""time""
""blur"",""0"",""0""
""blur"",""1"",""4212""
","""event"",""trial"",""time""
""focus"",""0"",""0""
""focus"",""1"",""6139""
","""event"",""trial"",""time""
""fullscreenenter"",""5"",""18005""
","
",1051.934999995865,NA,49,NA,NA,3000,1,NA,NA,images/tutyellowplanet.jpg,images/tutalien4,images/tutalien3,images/tutrocket2,images/tutalien3,images/nothing.png,2,practice,false,1,rare,0,2020-07-07T20:35:41Z,sub116
two-step-fixation,63,294636,0.0-61.0-2.0,TRUE,FALSE,TRUE,FALSE,"""event"",""trial"",""time""
""blur"",""0"",""0""
""focus"",""0"",""0""
""blur"",""1"",""4212""
""focus"",""1"",""6139""
""fullscreenenter"",""5"",""18005""
","""event"",""trial"",""time""
""blur"",""0"",""0""
""blur"",""1"",""4212""
","""event"",""trial"",""time""
""focus"",""0"",""0""
""focus"",""1"",""6139""
","""event"",""trial"",""time""
""fullscreenenter"",""5"",""18005""
","
",NA,images/earth.jpg,NA,NA,NA,NA,NA,NA,NA,NA,NA,NA,NA,NA,NA,fixation,NA,NA,NA,NA,NA,NA,sub116
d3-animate-choice,64,298639,0.0-61.0-0.1,TRUE,FALSE,TRUE,FALSE,"""event"",""trial"",""time""
""blur"",""0"",""0""
""focus"",""0"",""0""
""blur"",""1"",""4212""
""focus"",""1"",""6139""
""fullscreenenter"",""5"",""18005""
","""event"",""trial"",""time""
""blur"",""0"",""0""
""blur"",""1"",""4212""
","""event"",""trial"",""time""
""focus"",""0"",""0""
""focus"",""1"",""6139""
","""event"",""trial"",""time""
""fullscreenenter"",""5"",""18005""
","
",2057.3999999905936,NA,48,NA,NA,3000,1,NA,NA,images/earth.jpg,images/tutrocket2,images/tutrocket1,null,images/tutrocket2,NA,1,practice,null,2,NA,NA,NA,sub116
d3-animate-choice,65,301708,0.0-61.0-1.1,TRUE,FALSE,TRUE,FALSE,"""event"",""trial"",""time""
""blur"",""0"",""0""
""focus"",""0"",""0""
""blur"",""1"",""4212""
""focus"",""1"",""6139""
""fullscreenenter"",""5"",""18005""
","""event"",""trial"",""time""
""blur"",""0"",""0""
""blur"",""1"",""4212""
","""event"",""trial"",""time""
""focus"",""0"",""0""
""focus"",""1"",""6139""
","""event"",""trial"",""time""
""fullscreenenter"",""5"",""18005""
","
",1061.5600000019185,NA,49,NA,NA,3000,1,NA,NA,images/tutgreenplanet.jpg,images/tutalien2,images/tutalien1,images/tutrocket2,images/tutalien1,images/nothing.png,2,practice,true,1,common,0,2020-07-07T20:35:49Z,sub116
two-step-fixation,66,302714,0.0-61.0-2.1,TRUE,FALSE,TRUE,FALSE,"""event"",""trial"",""time""
""blur"",""0"",""0""
""focus"",""0"",""0""
""blur"",""1"",""4212""
""focus"",""1"",""6139""
""fullscreenenter"",""5"",""18005""
","""event"",""trial"",""time""
""blur"",""0"",""0""
""blur"",""1"",""4212""
","""event"",""trial"",""time""
""focus"",""0"",""0""
""focus"",""1"",""6139""
","""event"",""trial"",""time""
""fullscreenenter"",""5"",""18005""
","
",NA,images/earth.jpg,NA,NA,NA,NA,NA,NA,NA,NA,NA,NA,NA,NA,NA,fixation,NA,NA,NA,NA,NA,NA,sub116
d3-animate-choice,67,306721,0.0-61.0-0.2,TRUE,FALSE,TRUE,FALSE,"""event"",""trial"",""time""
""blur"",""0"",""0""
""focus"",""0"",""0""
""blur"",""1"",""4212""
""focus"",""1"",""6139""
""fullscreenenter"",""5"",""18005""
","""event"",""trial"",""time""
""blur"",""0"",""0""
""blur"",""1"",""4212""
","""event"",""trial"",""time""
""focus"",""0"",""0""
""focus"",""1"",""6139""
","""event"",""trial"",""time""
""fullscreenenter"",""5"",""18005""
","
",2245.414999953937,NA,48,NA,NA,3000,1,NA,NA,images/earth.jpg,images/tutrocket2,images/tutrocket1,null,images/tutrocket2,NA,1,practice,null,2,NA,NA,NA,sub116
d3-animate-choice,68,309875,0.0-61.0-1.2,TRUE,FALSE,TRUE,FALSE,"""event"",""trial"",""time""
""blur"",""0"",""0""
""focus"",""0"",""0""
""blur"",""1"",""4212""
""focus"",""1"",""6139""
""fullscreenenter"",""5"",""18005""
","""event"",""trial"",""time""
""blur"",""0"",""0""
""blur"",""1"",""4212""
","""event"",""trial"",""time""
""focus"",""0"",""0""
""focus"",""1"",""6139""
","""event"",""trial"",""time""
""fullscreenenter"",""5"",""18005""
","
",1148.4099999652244,NA,49,NA,NA,3000,1,NA,NA,images/tutgreenplanet.jpg,images/tutalien2,images/tutalien1,images/tutrocket2,images/tutalien1,images/nothing.png,2,practice,true,1,common,0,2020-07-07T20:35:58Z,sub116
two-step-fixation,69,310877,0.0-61.0-2.2,TRUE,FALSE,TRUE,FALSE,"""event"",""trial"",""time""
""blur"",""0"",""0""
""focus"",""0"",""0""
""blur"",""1"",""4212""
""focus"",""1"",""6139""
""fullscreenenter"",""5"",""18005""
","""event"",""trial"",""time""
""blur"",""0"",""0""
""blur"",""1"",""4212""
","""event"",""trial"",""time""
""focus"",""0"",""0""
""focus"",""1"",""6139""
","""event"",""trial"",""time""
""fullscreenenter"",""5"",""18005""
","
",NA,images/earth.jpg,NA,NA,NA,NA,NA,NA,NA,NA,NA,NA,NA,NA,NA,fixation,NA,NA,NA,NA,NA,NA,sub116
d3-animate-choice,70,313906,0.0-61.0-0.3,TRUE,FALSE,TRUE,FALSE,"""event"",""trial"",""time""
""blur"",""0"",""0""
""focus"",""0"",""0""
""blur"",""1"",""4212""
""focus"",""1"",""6139""
""fullscreenenter"",""5"",""18005""
","""event"",""trial"",""time""
""blur"",""0"",""0""
""blur"",""1"",""4212""
","""event"",""trial"",""time""
""focus"",""0"",""0""
""focus"",""1"",""6139""
","""event"",""trial"",""time""
""fullscreenenter"",""5"",""18005""
","
",1026.3500000000931,NA,48,NA,NA,3000,1,NA,NA,images/earth.jpg,images/tutrocket2,images/tutrocket1,null,images/tutrocket2,NA,1,practice,null,2,NA,NA,NA,sub116
d3-animate-choice,71,316716,0.0-61.0-1.3,TRUE,FALSE,TRUE,FALSE,"""event"",""trial"",""time""
""blur"",""0"",""0""
""focus"",""0"",""0""
""blur"",""1"",""4212""
""focus"",""1"",""6139""
""fullscreenenter"",""5"",""18005""
","""event"",""trial"",""time""
""blur"",""0"",""0""
""blur"",""1"",""4212""
","""event"",""trial"",""time""
""focus"",""0"",""0""
""focus"",""1"",""6139""
","""event"",""trial"",""time""
""fullscreenenter"",""5"",""18005""
","
",804.7249999945052,NA,48,NA,NA,3000,1,NA,NA,images/tutgreenplanet.jpg,images/tutalien2,images/tutalien1,images/tutrocket2,images/tutalien2,images/nothing.png,2,practice,true,2,common,0,2020-07-07T20:36:04Z,sub116
two-step-fixation,72,317723,0.0-61.0-2.3,TRUE,FALSE,TRUE,FALSE,"""event"",""trial"",""time""
""blur"",""0"",""0""
""focus"",""0"",""0""
""blur"",""1"",""4212""
""focus"",""1"",""6139""
""fullscreenenter"",""5"",""18005""
","""event"",""trial"",""time""
""blur"",""0"",""0""
""blur"",""1"",""4212""
","""event"",""trial"",""time""
""focus"",""0"",""0""
""focus"",""1"",""6139""
","""event"",""trial"",""time""
""fullscreenenter"",""5"",""18005""
","
",NA,images/earth.jpg,NA,NA,NA,NA,NA,NA,NA,NA,NA,NA,NA,NA,NA,fixation,NA,NA,NA,NA,NA,NA,sub116
d3-animate-choice,73,320213,0.0-61.0-0.4,TRUE,FALSE,TRUE,FALSE,"""event"",""trial"",""time""
""blur"",""0"",""0""
""focus"",""0"",""0""
""blur"",""1"",""4212""
""focus"",""1"",""6139""
""fullscreenenter"",""5"",""18005""
","""event"",""trial"",""time""
""blur"",""0"",""0""
""blur"",""1"",""4212""
","""event"",""trial"",""time""
""focus"",""0"",""0""
""focus"",""1"",""6139""
","""event"",""trial"",""time""
""fullscreenenter"",""5"",""18005""
","
",484.180000028573,NA,48,NA,NA,3000,1,NA,NA,images/earth.jpg,images/tutrocket2,images/tutrocket1,null,images/tutrocket2,NA,1,practice,null,2,NA,NA,NA,sub116
d3-animate-choice,74,324221,0.0-61.0-1.4,TRUE,FALSE,TRUE,FALSE,"""event"",""trial"",""time""
""blur"",""0"",""0""
""focus"",""0"",""0""
""blur"",""1"",""4212""
""focus"",""1"",""6139""
""fullscreenenter"",""5"",""18005""
","""event"",""trial"",""time""
""blur"",""0"",""0""
""blur"",""1"",""4212""
","""event"",""trial"",""time""
""focus"",""0"",""0""
""focus"",""1"",""6139""
","""event"",""trial"",""time""
""fullscreenenter"",""5"",""18005""
","
",2386.5449999575503,NA,48,NA,NA,3000,1,NA,NA,images/tutgreenplanet.jpg,images/tutalien2,images/tutalien1,images/tutrocket2,images/tutalien2,images/nothing.png,2,practice,true,2,common,0,2020-07-07T20:36:12Z,sub116
two-step-fixation,75,325228,0.0-61.0-2.4,TRUE,FALSE,TRUE,FALSE,"""event"",""trial"",""time""
""blur"",""0"",""0""
""focus"",""0"",""0""
""blur"",""1"",""4212""
""focus"",""1"",""6139""
""fullscreenenter"",""5"",""18005""
","""event"",""trial"",""time""
""blur"",""0"",""0""
""blur"",""1"",""4212""
","""event"",""trial"",""time""
""focus"",""0"",""0""
""focus"",""1"",""6139""
","""event"",""trial"",""time""
""fullscreenenter"",""5"",""18005""
","
",NA,images/earth.jpg,NA,NA,NA,NA,NA,NA,NA,NA,NA,NA,NA,NA,NA,fixation,NA,NA,NA,NA,NA,NA,sub116
d3-animate-choice,76,327847,0.0-61.0-0.5,TRUE,FALSE,TRUE,FALSE,"""event"",""trial"",""time""
""blur"",""0"",""0""
""focus"",""0"",""0""
""blur"",""1"",""4212""
""focus"",""1"",""6139""
""fullscreenenter"",""5"",""18005""
","""event"",""trial"",""time""
""blur"",""0"",""0""
""blur"",""1"",""4212""
","""event"",""trial"",""time""
""focus"",""0"",""0""
""focus"",""1"",""6139""
","""event"",""trial"",""time""
""fullscreenenter"",""5"",""18005""
","
",612.4649999546818,NA,49,NA,NA,3000,1,NA,NA,images/earth.jpg,images/tutrocket2,images/tutrocket1,null,images/tutrocket1,NA,1,practice,null,1,NA,NA,NA,sub116
d3-animate-choice,77,331252,0.0-61.0-1.5,TRUE,FALSE,TRUE,FALSE,"""event"",""trial"",""time""
""blur"",""0"",""0""
""focus"",""0"",""0""
""blur"",""1"",""4212""
""focus"",""1"",""6139""
""fullscreenenter"",""5"",""18005""
","""event"",""trial"",""time""
""blur"",""0"",""0""
""blur"",""1"",""4212""
","""event"",""trial"",""time""
""focus"",""0"",""0""
""focus"",""1"",""6139""
","""event"",""trial"",""time""
""fullscreenenter"",""5"",""18005""
","
",1400.2399999881163,NA,48,NA,NA,3000,1,NA,NA,images/tutyellowplanet.jpg,images/tutalien4,images/tutalien3,images/tutrocket1,images/tutalien4,images/t.png,2,practice,true,2,common,1,2020-07-07T20:36:19Z,sub116
two-step-fixation,78,332256,0.0-61.0-2.5,TRUE,FALSE,TRUE,FALSE,"""event"",""trial"",""time""
""blur"",""0"",""0""
""focus"",""0"",""0""
""blur"",""1"",""4212""
""focus"",""1"",""6139""
""fullscreenenter"",""5"",""18005""
","""event"",""trial"",""time""
""blur"",""0"",""0""
""blur"",""1"",""4212""
","""event"",""trial"",""time""
""focus"",""0"",""0""
""focus"",""1"",""6139""
","""event"",""trial"",""time""
""fullscreenenter"",""5"",""18005""
","
",NA,images/earth.jpg,NA,NA,NA,NA,NA,NA,NA,NA,NA,NA,NA,NA,NA,fixation,NA,NA,NA,NA,NA,NA,sub116
d3-animate-choice,79,334666,0.0-61.0-0.6,TRUE,FALSE,TRUE,FALSE,"""event"",""trial"",""time""
""blur"",""0"",""0""
""focus"",""0"",""0""
""blur"",""1"",""4212""
""focus"",""1"",""6139""
""fullscreenenter"",""5"",""18005""
","""event"",""trial"",""time""
""blur"",""0"",""0""
""blur"",""1"",""4212""
","""event"",""trial"",""time""
""focus"",""0"",""0""
""focus"",""1"",""6139""
","""event"",""trial"",""time""
""fullscreenenter"",""5"",""18005""
","
",403.59999996144325,NA,49,NA,NA,3000,1,NA,NA,images/earth.jpg,images/tutrocket2,images/tutrocket1,null,images/tutrocket1,NA,1,practice,null,1,NA,NA,NA,sub116
d3-animate-choice,80,337215,0.0-61.0-1.6,TRUE,FALSE,TRUE,FALSE,"""event"",""trial"",""time""
""blur"",""0"",""0""
""focus"",""0"",""0""
""blur"",""1"",""4212""
""focus"",""1"",""6139""
""fullscreenenter"",""5"",""18005""
","""event"",""trial"",""time""
""blur"",""0"",""0""
""blur"",""1"",""4212""
","""event"",""trial"",""time""
""focus"",""0"",""0""
""focus"",""1"",""6139""
","""event"",""trial"",""time""
""fullscreenenter"",""5"",""18005""
","
",542.7299999864772,NA,48,NA,NA,3000,1,NA,NA,images/tutyellowplanet.jpg,images/tutalien4,images/tutalien3,images/tutrocket1,images/tutalien4,images/nothing.png,2,practice,true,2,common,0,2020-07-07T20:36:25Z,sub116
two-step-fixation,81,338221,0.0-61.0-2.6,TRUE,FALSE,TRUE,FALSE,"""event"",""trial"",""time""
""blur"",""0"",""0""
""focus"",""0"",""0""
""blur"",""1"",""4212""
""focus"",""1"",""6139""
""fullscreenenter"",""5"",""18005""
","""event"",""trial"",""time""
""blur"",""0"",""0""
""blur"",""1"",""4212""
","""event"",""trial"",""time""
""focus"",""0"",""0""
""focus"",""1"",""6139""
","""event"",""trial"",""time""
""fullscreenenter"",""5"",""18005""
","
",NA,images/earth.jpg,NA,NA,NA,NA,NA,NA,NA,NA,NA,NA,NA,NA,NA,fixation,NA,NA,NA,NA,NA,NA,sub116
d3-animate-choice,82,340607,0.0-61.0-0.7,TRUE,FALSE,TRUE,FALSE,"""event"",""trial"",""time""
""blur"",""0"",""0""
""focus"",""0"",""0""
""blur"",""1"",""4212""
""focus"",""1"",""6139""
""fullscreenenter"",""5"",""18005""
","""event"",""trial"",""time""
""blur"",""0"",""0""
""blur"",""1"",""4212""
","""event"",""trial"",""time""
""focus"",""0"",""0""
""focus"",""1"",""6139""
","""event"",""trial"",""time""
""fullscreenenter"",""5"",""18005""
","
",379.93999995524064,NA,49,NA,NA,3000,1,NA,NA,images/earth.jpg,images/tutrocket2,images/tutrocket1,null,images/tutrocket1,NA,1,practice,null,1,NA,NA,NA,sub116
d3-animate-choice,83,343716,0.0-61.0-1.7,TRUE,FALSE,TRUE,FALSE,"""event"",""trial"",""time""
""blur"",""0"",""0""
""focus"",""0"",""0""
""blur"",""1"",""4212""
""focus"",""1"",""6139""
""fullscreenenter"",""5"",""18005""
","""event"",""trial"",""time""
""blur"",""0"",""0""
""blur"",""1"",""4212""
","""event"",""trial"",""time""
""focus"",""0"",""0""
""focus"",""1"",""6139""
","""event"",""trial"",""time""
""fullscreenenter"",""5"",""18005""
","
",1102.8349999687634,NA,48,NA,NA,3000,1,NA,NA,images/tutyellowplanet.jpg,images/tutalien4,images/tutalien3,images/tutrocket1,images/tutalien4,images/t.png,2,practice,true,2,common,1,2020-07-07T20:36:31Z,sub116
two-step-fixation,84,344723,0.0-61.0-2.7,TRUE,FALSE,TRUE,FALSE,"""event"",""trial"",""time""
""blur"",""0"",""0""
""focus"",""0"",""0""
""blur"",""1"",""4212""
""focus"",""1"",""6139""
""fullscreenenter"",""5"",""18005""
","""event"",""trial"",""time""
""blur"",""0"",""0""
""blur"",""1"",""4212""
","""event"",""trial"",""time""
""focus"",""0"",""0""
""focus"",""1"",""6139""
","""event"",""trial"",""time""
""fullscreenenter"",""5"",""18005""
","
",NA,images/earth.jpg,NA,NA,NA,NA,NA,NA,NA,NA,NA,NA,NA,NA,NA,fixation,NA,NA,NA,NA,NA,NA,sub116
d3-animate-choice,85,347153,0.0-61.0-0.8,TRUE,FALSE,TRUE,FALSE,"""event"",""trial"",""time""
""blur"",""0"",""0""
""focus"",""0"",""0""
""blur"",""1"",""4212""
""focus"",""1"",""6139""
""fullscreenenter"",""5"",""18005""
","""event"",""trial"",""time""
""blur"",""0"",""0""
""blur"",""1"",""4212""
","""event"",""trial"",""time""
""focus"",""0"",""0""
""focus"",""1"",""6139""
","""event"",""trial"",""time""
""fullscreenenter"",""5"",""18005""
","
",423.34000003756955,NA,49,NA,NA,3000,1,NA,NA,images/earth.jpg,images/tutrocket2,images/tutrocket1,null,images/tutrocket1,NA,1,practice,null,1,NA,NA,NA,sub116
d3-animate-choice,86,350746,0.0-61.0-1.8,TRUE,FALSE,TRUE,FALSE,"""event"",""trial"",""time""
""blur"",""0"",""0""
""focus"",""0"",""0""
""blur"",""1"",""4212""
""focus"",""1"",""6139""
""fullscreenenter"",""5"",""18005""
","""event"",""trial"",""time""
""blur"",""0"",""0""
""blur"",""1"",""4212""
","""event"",""trial"",""time""
""focus"",""0"",""0""
""focus"",""1"",""6139""
","""event"",""trial"",""time""
""fullscreenenter"",""5"",""18005""
","
",1586.0049999901094,NA,49,NA,NA,3000,1,NA,NA,images/tutgreenplanet.jpg,images/tutalien2,images/tutalien1,images/tutrocket1,images/tutalien1,images/nothing.png,2,practice,false,1,rare,0,2020-07-07T20:36:39Z,sub116
two-step-fixation,87,351753,0.0-61.0-2.8,TRUE,FALSE,TRUE,FALSE,"""event"",""trial"",""time""
""blur"",""0"",""0""
""focus"",""0"",""0""
""blur"",""1"",""4212""
""focus"",""1"",""6139""
""fullscreenenter"",""5"",""18005""
","""event"",""trial"",""time""
""blur"",""0"",""0""
""blur"",""1"",""4212""
","""event"",""trial"",""time""
""focus"",""0"",""0""
""focus"",""1"",""6139""
","""event"",""trial"",""time""
""fullscreenenter"",""5"",""18005""
","
",NA,images/earth.jpg,NA,NA,NA,NA,NA,NA,NA,NA,NA,NA,NA,NA,NA,fixation,NA,NA,NA,NA,NA,NA,sub116
d3-animate-choice,88,354136,0.0-61.0-0.9,TRUE,FALSE,TRUE,FALSE,"""event"",""trial"",""time""
""blur"",""0"",""0""
""focus"",""0"",""0""
""blur"",""1"",""4212""
""focus"",""1"",""6139""
""fullscreenenter"",""5"",""18005""
","""event"",""trial"",""time""
""blur"",""0"",""0""
""blur"",""1"",""4212""
","""event"",""trial"",""time""
""focus"",""0"",""0""
""focus"",""1"",""6139""
","""event"",""trial"",""time""
""fullscreenenter"",""5"",""18005""
","
",375.5349999992177,NA,49,NA,NA,3000,1,NA,NA,images/earth.jpg,images/tutrocket2,images/tutrocket1,null,images/tutrocket1,NA,1,practice,null,1,NA,NA,NA,sub116
d3-animate-choice,89,356561,0.0-61.0-1.9,TRUE,FALSE,TRUE,FALSE,"""event"",""trial"",""time""
""blur"",""0"",""0""
""focus"",""0"",""0""
""blur"",""1"",""4212""
""focus"",""1"",""6139""
""fullscreenenter"",""5"",""18005""
","""event"",""trial"",""time""
""blur"",""0"",""0""
""blur"",""1"",""4212""
","""event"",""trial"",""time""
""focus"",""0"",""0""
""focus"",""1"",""6139""
","""event"",""trial"",""time""
""fullscreenenter"",""5"",""18005""
","
",418.6350000090897,NA,48,NA,NA,3000,1,NA,NA,images/tutgreenplanet.jpg,images/tutalien2,images/tutalien1,images/tutrocket1,images/tutalien2,images/t.png,2,practice,false,2,rare,1,2020-07-07T20:36:44Z,sub116
two-step-fixation,90,357564,0.0-61.0-2.9,TRUE,FALSE,TRUE,FALSE,"""event"",""trial"",""time""
""blur"",""0"",""0""
""focus"",""0"",""0""
""blur"",""1"",""4212""
""focus"",""1"",""6139""
""fullscreenenter"",""5"",""18005""
","""event"",""trial"",""time""
""blur"",""0"",""0""
""blur"",""1"",""4212""
","""event"",""trial"",""time""
""focus"",""0"",""0""
""focus"",""1"",""6139""
","""event"",""trial"",""time""
""fullscreenenter"",""5"",""18005""
","
",NA,images/earth.jpg,NA,NA,NA,NA,NA,NA,NA,NA,NA,NA,NA,NA,NA,fixation,NA,NA,NA,NA,NA,NA,sub116
d3-animate-choice,91,360094,0.0-61.0-0.10,TRUE,FALSE,TRUE,FALSE,"""event"",""trial"",""time""
""blur"",""0"",""0""
""focus"",""0"",""0""
""blur"",""1"",""4212""
""focus"",""1"",""6139""
""fullscreenenter"",""5"",""18005""
","""event"",""trial"",""time""
""blur"",""0"",""0""
""blur"",""1"",""4212""
","""event"",""trial"",""time""
""focus"",""0"",""0""
""focus"",""1"",""6139""
","""event"",""trial"",""time""
""fullscreenenter"",""5"",""18005""
","
",525.5850000539795,NA,49,NA,NA,3000,1,NA,NA,images/earth.jpg,images/tutrocket2,images/tutrocket1,null,images/tutrocket1,NA,1,practice,null,1,NA,NA,NA,sub116
d3-animate-choice,92,362577,0.0-61.0-1.10,TRUE,FALSE,TRUE,FALSE,"""event"",""trial"",""time""
""blur"",""0"",""0""
""focus"",""0"",""0""
""blur"",""1"",""4212""
""focus"",""1"",""6139""
""fullscreenenter"",""5"",""18005""
","""event"",""trial"",""time""
""blur"",""0"",""0""
""blur"",""1"",""4212""
","""event"",""trial"",""time""
""focus"",""0"",""0""
""focus"",""1"",""6139""
","""event"",""trial"",""time""
""fullscreenenter"",""5"",""18005""
","
",475.38499999791384,NA,48,NA,NA,3000,1,NA,NA,images/tutyellowplanet.jpg,images/tutalien4,images/tutalien3,images/tutrocket1,images/tutalien4,images/t.png,2,practice,true,2,common,1,2020-07-07T20:36:50Z,sub116
two-step-fixation,93,363583,0.0-61.0-2.10,TRUE,FALSE,TRUE,FALSE,"""event"",""trial"",""time""
""blur"",""0"",""0""
""focus"",""0"",""0""
""blur"",""1"",""4212""
""focus"",""1"",""6139""
""fullscreenenter"",""5"",""18005""
","""event"",""trial"",""time""
""blur"",""0"",""0""
""blur"",""1"",""4212""
","""event"",""trial"",""time""
""focus"",""0"",""0""
""focus"",""1"",""6139""
","""event"",""trial"",""time""
""fullscreenenter"",""5"",""18005""
","
",NA,images/earth.jpg,NA,NA,NA,NA,NA,NA,NA,NA,NA,NA,NA,NA,NA,fixation,NA,NA,NA,NA,NA,NA,sub116
d3-animate-choice,94,366243,0.0-61.0-0.11,TRUE,FALSE,TRUE,FALSE,"""event"",""trial"",""time""
""blur"",""0"",""0""
""focus"",""0"",""0""
""blur"",""1"",""4212""
""focus"",""1"",""6139""
""fullscreenenter"",""5"",""18005""
","""event"",""trial"",""time""
""blur"",""0"",""0""
""blur"",""1"",""4212""
","""event"",""trial"",""time""
""focus"",""0"",""0""
""focus"",""1"",""6139""
","""event"",""trial"",""time""
""fullscreenenter"",""5"",""18005""
","
",654.244999983348,NA,49,NA,NA,3000,1,NA,NA,images/earth.jpg,images/tutrocket2,images/tutrocket1,null,images/tutrocket1,NA,1,practice,null,1,NA,NA,NA,sub116
d3-animate-choice,95,369091,0.0-61.0-1.11,TRUE,FALSE,TRUE,FALSE,"""event"",""trial"",""time""
""blur"",""0"",""0""
""focus"",""0"",""0""
""blur"",""1"",""4212""
""focus"",""1"",""6139""
""fullscreenenter"",""5"",""18005""
","""event"",""trial"",""time""
""blur"",""0"",""0""
""blur"",""1"",""4212""
","""event"",""trial"",""time""
""focus"",""0"",""0""
""focus"",""1"",""6139""
","""event"",""trial"",""time""
""fullscreenenter"",""5"",""18005""
","
",845.0850000372157,NA,48,NA,NA,3000,1,NA,NA,images/tutyellowplanet.jpg,images/tutalien4,images/tutalien3,images/tutrocket1,images/tutalien4,images/t.png,2,practice,true,2,common,1,2020-07-07T20:36:57Z,sub116
two-step-fixation,96,370098,0.0-61.0-2.11,TRUE,FALSE,TRUE,FALSE,"""event"",""trial"",""time""
""blur"",""0"",""0""
""focus"",""0"",""0""
""blur"",""1"",""4212""
""focus"",""1"",""6139""
""fullscreenenter"",""5"",""18005""
","""event"",""trial"",""time""
""blur"",""0"",""0""
""blur"",""1"",""4212""
","""event"",""trial"",""time""
""focus"",""0"",""0""
""focus"",""1"",""6139""
","""event"",""trial"",""time""
""fullscreenenter"",""5"",""18005""
","
",NA,images/earth.jpg,NA,NA,NA,NA,NA,NA,NA,NA,NA,NA,NA,NA,NA,fixation,NA,NA,NA,NA,NA,NA,sub116
d3-animate-choice,97,372467,0.0-61.0-0.12,TRUE,FALSE,TRUE,FALSE,"""event"",""trial"",""time""
""blur"",""0"",""0""
""focus"",""0"",""0""
""blur"",""1"",""4212""
""focus"",""1"",""6139""
""fullscreenenter"",""5"",""18005""
","""event"",""trial"",""time""
""blur"",""0"",""0""
""blur"",""1"",""4212""
","""event"",""trial"",""time""
""focus"",""0"",""0""
""focus"",""1"",""6139""
","""event"",""trial"",""time""
""fullscreenenter"",""5"",""18005""
","
",363.2799999904819,NA,49,NA,NA,3000,1,NA,NA,images/earth.jpg,images/tutrocket2,images/tutrocket1,null,images/tutrocket1,NA,1,practice,null,1,NA,NA,NA,sub116
d3-animate-choice,98,376171,0.0-61.0-1.12,TRUE,FALSE,TRUE,FALSE,"""event"",""trial"",""time""
""blur"",""0"",""0""
""focus"",""0"",""0""
""blur"",""1"",""4212""
""focus"",""1"",""6139""
""fullscreenenter"",""5"",""18005""
","""event"",""trial"",""time""
""blur"",""0"",""0""
""blur"",""1"",""4212""
","""event"",""trial"",""time""
""focus"",""0"",""0""
""focus"",""1"",""6139""
","""event"",""trial"",""time""
""fullscreenenter"",""5"",""18005""
","
",1698.0900000198744,NA,49,NA,NA,3000,1,NA,NA,images/tutgreenplanet.jpg,images/tutalien2,images/tutalien1,images/tutrocket1,images/tutalien1,images/nothing.png,2,practice,false,1,rare,0,2020-07-07T20:37:04Z,sub116
two-step-fixation,99,377177,0.0-61.0-2.12,TRUE,FALSE,TRUE,FALSE,"""event"",""trial"",""time""
""blur"",""0"",""0""
""focus"",""0"",""0""
""blur"",""1"",""4212""
""focus"",""1"",""6139""
""fullscreenenter"",""5"",""18005""
","""event"",""trial"",""time""
""blur"",""0"",""0""
""blur"",""1"",""4212""
","""event"",""trial"",""time""
""focus"",""0"",""0""
""focus"",""1"",""6139""
","""event"",""trial"",""time""
""fullscreenenter"",""5"",""18005""
","
",NA,images/earth.jpg,NA,NA,NA,NA,NA,NA,NA,NA,NA,NA,NA,NA,NA,fixation,NA,NA,NA,NA,NA,NA,sub116
d3-animate-choice,100,379518,0.0-61.0-0.13,TRUE,FALSE,TRUE,FALSE,"""event"",""trial"",""time""
""blur"",""0"",""0""
""focus"",""0"",""0""
""blur"",""1"",""4212""
""focus"",""1"",""6139""
""fullscreenenter"",""5"",""18005""
","""event"",""trial"",""time""
""blur"",""0"",""0""
""blur"",""1"",""4212""
","""event"",""trial"",""time""
""focus"",""0"",""0""
""focus"",""1"",""6139""
","""event"",""trial"",""time""
""fullscreenenter"",""5"",""18005""
","
",329.49499995447695,NA,49,NA,NA,3000,1,NA,NA,images/earth.jpg,images/tutrocket2,images/tutrocket1,null,images/tutrocket1,NA,1,practice,null,1,NA,NA,NA,sub116
d3-animate-choice,101,381926,0.0-61.0-1.13,TRUE,FALSE,TRUE,FALSE,"""event"",""trial"",""time""
""blur"",""0"",""0""
""focus"",""0"",""0""
""blur"",""1"",""4212""
""focus"",""1"",""6139""
""fullscreenenter"",""5"",""18005""
","""event"",""trial"",""time""
""blur"",""0"",""0""
""blur"",""1"",""4212""
","""event"",""trial"",""time""
""focus"",""0"",""0""
""focus"",""1"",""6139""
","""event"",""trial"",""time""
""fullscreenenter"",""5"",""18005""
","
",405.4749999777414,NA,48,NA,NA,3000,1,NA,NA,images/tutyellowplanet.jpg,images/tutalien4,images/tutalien3,images/tutrocket1,images/tutalien4,images/t.png,2,practice,true,2,common,1,2020-07-07T20:37:10Z,sub116
two-step-fixation,102,382934,0.0-61.0-2.13,TRUE,FALSE,TRUE,FALSE,"""event"",""trial"",""time""
""blur"",""0"",""0""
""focus"",""0"",""0""
""blur"",""1"",""4212""
""focus"",""1"",""6139""
""fullscreenenter"",""5"",""18005""
","""event"",""trial"",""time""
""blur"",""0"",""0""
""blur"",""1"",""4212""
","""event"",""trial"",""time""
""focus"",""0"",""0""
""focus"",""1"",""6139""
","""event"",""trial"",""time""
""fullscreenenter"",""5"",""18005""
","
",NA,images/earth.jpg,NA,NA,NA,NA,NA,NA,NA,NA,NA,NA,NA,NA,NA,fixation,NA,NA,NA,NA,NA,NA,sub116
d3-animate-choice,103,385360,0.0-61.0-0.14,TRUE,FALSE,TRUE,FALSE,"""event"",""trial"",""time""
""blur"",""0"",""0""
""focus"",""0"",""0""
""blur"",""1"",""4212""
""focus"",""1"",""6139""
""fullscreenenter"",""5"",""18005""
","""event"",""trial"",""time""
""blur"",""0"",""0""
""blur"",""1"",""4212""
","""event"",""trial"",""time""
""focus"",""0"",""0""
""focus"",""1"",""6139""
","""event"",""trial"",""time""
""fullscreenenter"",""5"",""18005""
","
",418.99500001454726,NA,49,NA,NA,3000,1,1702.7600000146776,32,images/earth.jpg,images/tutrocket2,images/tutrocket1,null,images/tutrocket1,NA,1,practice,null,1,NA,NA,NA,sub116
d3-animate-choice,104,388366,0.0-61.0-1.14,TRUE,FALSE,TRUE,FALSE,"""event"",""trial"",""time""
""blur"",""0"",""0""
""focus"",""0"",""0""
""blur"",""1"",""4212""
""focus"",""1"",""6139""
""fullscreenenter"",""5"",""18005""
","""event"",""trial"",""time""
""blur"",""0"",""0""
""blur"",""1"",""4212""
","""event"",""trial"",""time""
""focus"",""0"",""0""
""focus"",""1"",""6139""
","""event"",""trial"",""time""
""fullscreenenter"",""5"",""18005""
","
",1002.150000014808,NA,48,NA,NA,3000,1,NA,NA,images/tutgreenplanet.jpg,images/tutalien2,images/tutalien1,images/tutrocket1,images/tutalien2,images/nothing.png,2,practice,false,2,rare,0,2020-07-07T20:37:16Z,sub116
two-step-fixation,105,389372,0.0-61.0-2.14,TRUE,FALSE,TRUE,FALSE,"""event"",""trial"",""time""
""blur"",""0"",""0""
""focus"",""0"",""0""
""blur"",""1"",""4212""
""focus"",""1"",""6139""
""fullscreenenter"",""5"",""18005""
","""event"",""trial"",""time""
""blur"",""0"",""0""
""blur"",""1"",""4212""
","""event"",""trial"",""time""
""focus"",""0"",""0""
""focus"",""1"",""6139""
","""event"",""trial"",""time""
""fullscreenenter"",""5"",""18005""
","
",NA,images/earth.jpg,NA,NA,NA,NA,NA,NA,NA,NA,NA,NA,NA,NA,NA,fixation,NA,NA,NA,NA,NA,NA,sub116
d3-animate-choice,106,391662,0.0-61.0-0.15,TRUE,FALSE,TRUE,FALSE,"""event"",""trial"",""time""
""blur"",""0"",""0""
""focus"",""0"",""0""
""blur"",""1"",""4212""
""focus"",""1"",""6139""
""fullscreenenter"",""5"",""18005""
","""event"",""trial"",""time""
""blur"",""0"",""0""
""blur"",""1"",""4212""
","""event"",""trial"",""time""
""focus"",""0"",""0""
""focus"",""1"",""6139""
","""event"",""trial"",""time""
""fullscreenenter"",""5"",""18005""
","
",281.1750000109896,NA,49,NA,NA,3000,1,NA,NA,images/earth.jpg,images/tutrocket2,images/tutrocket1,null,images/tutrocket1,NA,1,practice,null,1,NA,NA,NA,sub116
d3-animate-choice,107,393936,0.0-61.0-1.15,TRUE,FALSE,TRUE,FALSE,"""event"",""trial"",""time""
""blur"",""0"",""0""
""focus"",""0"",""0""
""blur"",""1"",""4212""
""focus"",""1"",""6139""
""fullscreenenter"",""5"",""18005""
","""event"",""trial"",""time""
""blur"",""0"",""0""
""blur"",""1"",""4212""
","""event"",""trial"",""time""
""focus"",""0"",""0""
""focus"",""1"",""6139""
","""event"",""trial"",""time""
""fullscreenenter"",""5"",""18005""
","
",266.12499996554106,NA,48,NA,NA,3000,1,NA,NA,images/tutgreenplanet.jpg,images/tutalien2,images/tutalien1,images/tutrocket1,images/tutalien2,images/nothing.png,2,practice,false,2,rare,0,2020-07-07T20:37:22Z,sub116
two-step-fixation,108,394942,0.0-61.0-2.15,TRUE,FALSE,TRUE,FALSE,"""event"",""trial"",""time""
""blur"",""0"",""0""
""focus"",""0"",""0""
""blur"",""1"",""4212""
""focus"",""1"",""6139""
""fullscreenenter"",""5"",""18005""
","""event"",""trial"",""time""
""blur"",""0"",""0""
""blur"",""1"",""4212""
","""event"",""trial"",""time""
""focus"",""0"",""0""
""focus"",""1"",""6139""
","""event"",""trial"",""time""
""fullscreenenter"",""5"",""18005""
","
",NA,images/earth.jpg,NA,NA,NA,NA,NA,NA,NA,NA,NA,NA,NA,NA,NA,fixation,NA,NA,NA,NA,NA,NA,sub116
d3-animate-choice,109,397235,0.0-61.0-0.16,TRUE,FALSE,TRUE,FALSE,"""event"",""trial"",""time""
""blur"",""0"",""0""
""focus"",""0"",""0""
""blur"",""1"",""4212""
""focus"",""1"",""6139""
""fullscreenenter"",""5"",""18005""
","""event"",""trial"",""time""
""blur"",""0"",""0""
""blur"",""1"",""4212""
","""event"",""trial"",""time""
""focus"",""0"",""0""
""focus"",""1"",""6139""
","""event"",""trial"",""time""
""fullscreenenter"",""5"",""18005""
","
",287.064999982249,NA,49,NA,NA,3000,1,NA,NA,images/earth.jpg,images/tutrocket2,images/tutrocket1,null,images/tutrocket1,NA,1,practice,null,1,NA,NA,NA,sub116
d3-animate-choice,110,401228,0.0-61.0-1.16,TRUE,FALSE,TRUE,FALSE,"""event"",""trial"",""time""
""blur"",""0"",""0""
""focus"",""0"",""0""
""blur"",""1"",""4212""
""focus"",""1"",""6139""
""fullscreenenter"",""5"",""18005""
","""event"",""trial"",""time""
""blur"",""0"",""0""
""blur"",""1"",""4212""
","""event"",""trial"",""time""
""focus"",""0"",""0""
""focus"",""1"",""6139""
","""event"",""trial"",""time""
""fullscreenenter"",""5"",""18005""
","
",1988.9100000145845,NA,48,NA,NA,3000,1,NA,NA,images/tutyellowplanet.jpg,images/tutalien4,images/tutalien3,images/tutrocket1,images/tutalien4,images/t.png,2,practice,true,2,common,1,2020-07-07T20:37:29Z,sub116
two-step-fixation,111,402235,0.0-61.0-2.16,TRUE,FALSE,TRUE,FALSE,"""event"",""trial"",""time""
""blur"",""0"",""0""
""focus"",""0"",""0""
""blur"",""1"",""4212""
""focus"",""1"",""6139""
""fullscreenenter"",""5"",""18005""
","""event"",""trial"",""time""
""blur"",""0"",""0""
""blur"",""1"",""4212""
","""event"",""trial"",""time""
""focus"",""0"",""0""
""focus"",""1"",""6139""
","""event"",""trial"",""time""
""fullscreenenter"",""5"",""18005""
","
",NA,images/earth.jpg,NA,NA,NA,NA,NA,NA,NA,NA,NA,NA,NA,NA,NA,fixation,NA,NA,NA,NA,NA,NA,sub116
d3-animate-choice,112,404722,0.0-61.0-0.17,TRUE,FALSE,TRUE,FALSE,"""event"",""trial"",""time""
""blur"",""0"",""0""
""focus"",""0"",""0""
""blur"",""1"",""4212""
""focus"",""1"",""6139""
""fullscreenenter"",""5"",""18005""
","""event"",""trial"",""time""
""blur"",""0"",""0""
""blur"",""1"",""4212""
","""event"",""trial"",""time""
""focus"",""0"",""0""
""focus"",""1"",""6139""
","""event"",""trial"",""time""
""fullscreenenter"",""5"",""18005""
","
",479.9650000059046,NA,49,NA,NA,3000,1,NA,NA,images/earth.jpg,images/tutrocket2,images/tutrocket1,null,images/tutrocket1,NA,1,practice,null,1,NA,NA,NA,sub116
d3-animate-choice,113,407055,0.0-61.0-1.17,TRUE,FALSE,TRUE,FALSE,"""event"",""trial"",""time""
""blur"",""0"",""0""
""focus"",""0"",""0""
""blur"",""1"",""4212""
""focus"",""1"",""6139""
""fullscreenenter"",""5"",""18005""
","""event"",""trial"",""time""
""blur"",""0"",""0""
""blur"",""1"",""4212""
","""event"",""trial"",""time""
""focus"",""0"",""0""
""focus"",""1"",""6139""
","""event"",""trial"",""time""
""fullscreenenter"",""5"",""18005""
","
",326.8650000100024,NA,48,NA,NA,3000,1,NA,NA,images/tutyellowplanet.jpg,images/tutalien4,images/tutalien3,images/tutrocket1,images/tutalien4,images/t.png,2,practice,true,2,common,1,2020-07-07T20:37:35Z,sub116
two-step-fixation,114,408062,0.0-61.0-2.17,TRUE,FALSE,TRUE,FALSE,"""event"",""trial"",""time""
""blur"",""0"",""0""
""focus"",""0"",""0""
""blur"",""1"",""4212""
""focus"",""1"",""6139""
""fullscreenenter"",""5"",""18005""
","""event"",""trial"",""time""
""blur"",""0"",""0""
""blur"",""1"",""4212""
","""event"",""trial"",""time""
""focus"",""0"",""0""
""focus"",""1"",""6139""
","""event"",""trial"",""time""
""fullscreenenter"",""5"",""18005""
","
",NA,images/earth.jpg,NA,NA,NA,NA,NA,NA,NA,NA,NA,NA,NA,NA,NA,fixation,NA,NA,NA,NA,NA,NA,sub116
d3-animate-choice,115,410417,0.0-61.0-0.18,TRUE,FALSE,TRUE,FALSE,"""event"",""trial"",""time""
""blur"",""0"",""0""
""focus"",""0"",""0""
""blur"",""1"",""4212""
""focus"",""1"",""6139""
""fullscreenenter"",""5"",""18005""
","""event"",""trial"",""time""
""blur"",""0"",""0""
""blur"",""1"",""4212""
","""event"",""trial"",""time""
""focus"",""0"",""0""
""focus"",""1"",""6139""
","""event"",""trial"",""time""
""fullscreenenter"",""5"",""18005""
","
",349.11000001011416,NA,49,NA,NA,3000,1,NA,NA,images/earth.jpg,images/tutrocket2,images/tutrocket1,null,images/tutrocket1,NA,1,practice,null,1,NA,NA,NA,sub116
d3-animate-choice,116,412679,0.0-61.0-1.18,TRUE,FALSE,TRUE,FALSE,"""event"",""trial"",""time""
""blur"",""0"",""0""
""focus"",""0"",""0""
""blur"",""1"",""4212""
""focus"",""1"",""6139""
""fullscreenenter"",""5"",""18005""
","""event"",""trial"",""time""
""blur"",""0"",""0""
""blur"",""1"",""4212""
","""event"",""trial"",""time""
""focus"",""0"",""0""
""focus"",""1"",""6139""
","""event"",""trial"",""time""
""fullscreenenter"",""5"",""18005""
","
",255.96499996026978,NA,48,NA,NA,3000,1,NA,NA,images/tutyellowplanet.jpg,images/tutalien4,images/tutalien3,images/tutrocket1,images/tutalien4,images/t.png,2,practice,true,2,common,1,2020-07-07T20:37:40Z,sub116
two-step-fixation,117,413685,0.0-61.0-2.18,TRUE,FALSE,TRUE,FALSE,"""event"",""trial"",""time""
""blur"",""0"",""0""
""focus"",""0"",""0""
""blur"",""1"",""4212""
""focus"",""1"",""6139""
""fullscreenenter"",""5"",""18005""
","""event"",""trial"",""time""
""blur"",""0"",""0""
""blur"",""1"",""4212""
","""event"",""trial"",""time""
""focus"",""0"",""0""
""focus"",""1"",""6139""
","""event"",""trial"",""time""
""fullscreenenter"",""5"",""18005""
","
",NA,images/earth.jpg,NA,NA,NA,NA,NA,NA,NA,NA,NA,NA,NA,NA,NA,fixation,NA,NA,NA,NA,NA,NA,sub116
d3-animate-choice,118,415958,0.0-61.0-0.19,TRUE,FALSE,TRUE,FALSE,"""event"",""trial"",""time""
""blur"",""0"",""0""
""focus"",""0"",""0""
""blur"",""1"",""4212""
""focus"",""1"",""6139""
""fullscreenenter"",""5"",""18005""
","""event"",""trial"",""time""
""blur"",""0"",""0""
""blur"",""1"",""4212""
","""event"",""trial"",""time""
""focus"",""0"",""0""
""focus"",""1"",""6139""
","""event"",""trial"",""time""
""fullscreenenter"",""5"",""18005""
","
",266.7900000233203,NA,49,NA,NA,3000,1,NA,NA,images/earth.jpg,images/tutrocket2,images/tutrocket1,null,images/tutrocket1,NA,1,practice,null,1,NA,NA,NA,sub116
d3-animate-choice,119,418319,0.0-61.0-1.19,TRUE,FALSE,TRUE,FALSE,"""event"",""trial"",""time""
""blur"",""0"",""0""
""focus"",""0"",""0""
""blur"",""1"",""4212""
""focus"",""1"",""6139""
""fullscreenenter"",""5"",""18005""
","""event"",""trial"",""time""
""blur"",""0"",""0""
""blur"",""1"",""4212""
","""event"",""trial"",""time""
""focus"",""0"",""0""
""focus"",""1"",""6139""
","""event"",""trial"",""time""
""fullscreenenter"",""5"",""18005""
","
",353.8549999939278,NA,48,NA,NA,3000,1,NA,NA,images/tutyellowplanet.jpg,images/tutalien4,images/tutalien3,images/tutrocket1,images/tutalien4,images/t.png,2,practice,true,2,common,1,2020-07-07T20:37:46Z,sub116
two-step-fixation,120,419326,0.0-61.0-2.19,TRUE,FALSE,TRUE,FALSE,"""event"",""trial"",""time""
""blur"",""0"",""0""
""focus"",""0"",""0""
""blur"",""1"",""4212""
""focus"",""1"",""6139""
""fullscreenenter"",""5"",""18005""
","""event"",""trial"",""time""
""blur"",""0"",""0""
""blur"",""1"",""4212""
","""event"",""trial"",""time""
""focus"",""0"",""0""
""focus"",""1"",""6139""
","""event"",""trial"",""time""
""fullscreenenter"",""5"",""18005""
","
",NA,images/earth.jpg,NA,NA,NA,NA,NA,NA,NA,NA,NA,NA,NA,NA,NA,fixation,NA,NA,NA,NA,NA,NA,sub116
d3-instructions,121,422249,0.0-62.0,TRUE,FALSE,TRUE,FALSE,"""event"",""trial"",""time""
""blur"",""0"",""0""
""focus"",""0"",""0""
""blur"",""1"",""4212""
""focus"",""1"",""6139""
""fullscreenenter"",""5"",""18005""
","""event"",""trial"",""time""
""blur"",""0"",""0""
""blur"",""1"",""4212""
","""event"",""trial"",""time""
""focus"",""0"",""0""
""focus"",""1"",""6139""
","""event"",""trial"",""time""
""fullscreenenter"",""5"",""18005""
","
",NA,NA,NA,NA,NA,NA,NA,NA,NA,NA,NA,NA,NA,NA,NA,NA,NA,NA,NA,NA,NA,NA,sub116
audio-keyboard-response,122,425693,0.0-63.0,TRUE,FALSE,TRUE,FALSE,"""event"",""trial"",""time""
""blur"",""0"",""0""
""focus"",""0"",""0""
""blur"",""1"",""4212""
""focus"",""1"",""6139""
""fullscreenenter"",""5"",""18005""
","""event"",""trial"",""time""
""blur"",""0"",""0""
""blur"",""1"",""4212""
","""event"",""trial"",""time""
""focus"",""0"",""0""
""focus"",""1"",""6139""
","""event"",""trial"",""time""
""fullscreenenter"",""5"",""18005""
","
",3451,audio/instructions/treasure_feedback.wav,32,NA,NA,NA,NA,NA,NA,NA,NA,NA,NA,NA,NA,NA,NA,NA,NA,NA,NA,NA,sub116
d3-instructions,123,430175,0.0-64.0,TRUE,FALSE,TRUE,FALSE,"""event"",""trial"",""time""
""blur"",""0"",""0""
""focus"",""0"",""0""
""blur"",""1"",""4212""
""focus"",""1"",""6139""
""fullscreenenter"",""5"",""18005""
","""event"",""trial"",""time""
""blur"",""0"",""0""
""blur"",""1"",""4212""
","""event"",""trial"",""time""
""focus"",""0"",""0""
""focus"",""1"",""6139""
","""event"",""trial"",""time""
""fullscreenenter"",""5"",""18005""
","
",NA,NA,NA,NA,NA,NA,NA,NA,NA,NA,NA,NA,NA,NA,NA,NA,NA,NA,NA,NA,NA,NA,sub116
d3-instructions,124,432710,0.0-65.0,TRUE,FALSE,TRUE,FALSE,"""event"",""trial"",""time""
""blur"",""0"",""0""
""focus"",""0"",""0""
""blur"",""1"",""4212""
""focus"",""1"",""6139""
""fullscreenenter"",""5"",""18005""
","""event"",""trial"",""time""
""blur"",""0"",""0""
""blur"",""1"",""4212""
","""event"",""trial"",""time""
""focus"",""0"",""0""
""focus"",""1"",""6139""
","""event"",""trial"",""time""
""fullscreenenter"",""5"",""18005""
","
",NA,NA,NA,NA,NA,NA,NA,NA,NA,NA,NA,NA,NA,NA,NA,NA,NA,NA,NA,NA,NA,NA,sub116
d3-instructions,125,438084,0.0-66.0,TRUE,FALSE,TRUE,FALSE,"""event"",""trial"",""time""
""blur"",""0"",""0""
""focus"",""0"",""0""
""blur"",""1"",""4212""
""focus"",""1"",""6139""
""fullscreenenter"",""5"",""18005""
","""event"",""trial"",""time""
""blur"",""0"",""0""
""blur"",""1"",""4212""
","""event"",""trial"",""time""
""focus"",""0"",""0""
""focus"",""1"",""6139""
","""event"",""trial"",""time""
""fullscreenenter"",""5"",""18005""
","
",NA,NA,NA,NA,NA,NA,NA,NA,NA,NA,NA,NA,NA,NA,NA,NA,NA,NA,NA,NA,NA,NA,sub116
d3-instructions,126,441206,0.0-67.0,TRUE,FALSE,TRUE,FALSE,"""event"",""trial"",""time""
""blur"",""0"",""0""
""focus"",""0"",""0""
""blur"",""1"",""4212""
""focus"",""1"",""6139""
""fullscreenenter"",""5"",""18005""
","""event"",""trial"",""time""
""blur"",""0"",""0""
""blur"",""1"",""4212""
","""event"",""trial"",""time""
""focus"",""0"",""0""
""focus"",""1"",""6139""
","""event"",""trial"",""time""
""fullscreenenter"",""5"",""18005""
","
",NA,NA,NA,NA,NA,NA,NA,NA,NA,NA,NA,NA,NA,NA,NA,NA,NA,NA,NA,NA,NA,NA,sub116
d3-instructions,127,443104,0.0-68.0,TRUE,FALSE,TRUE,FALSE,"""event"",""trial"",""time""
""blur"",""0"",""0""
""focus"",""0"",""0""
""blur"",""1"",""4212""
""focus"",""1"",""6139""
""fullscreenenter"",""5"",""18005""
","""event"",""trial"",""time""
""blur"",""0"",""0""
""blur"",""1"",""4212""
","""event"",""trial"",""time""
""focus"",""0"",""0""
""focus"",""1"",""6139""
","""event"",""trial"",""time""
""fullscreenenter"",""5"",""18005""
","
",NA,NA,NA,NA,NA,NA,NA,NA,NA,NA,NA,NA,NA,NA,NA,NA,NA,NA,NA,NA,NA,NA,sub116
instructions-quiz,128,445465,0.0-69.0,TRUE,FALSE,TRUE,FALSE,"""event"",""trial"",""time""
""blur"",""0"",""0""
""focus"",""0"",""0""
""blur"",""1"",""4212""
""focus"",""1"",""6139""
""fullscreenenter"",""5"",""18005""
","""event"",""trial"",""time""
""blur"",""0"",""0""
""blur"",""1"",""4212""
","""event"",""trial"",""time""
""focus"",""0"",""0""
""focus"",""1"",""6139""
","""event"",""trial"",""time""
""fullscreenenter"",""5"",""18005""
","
",2358.425000042189,audio/quiz/Q1_Prompt.wav,NA,1,NA,NA,NA,NA,NA,NA,NA,NA,NA,NA,NA,NA,NA,NA,NA,NA,NA,NA,sub116
audio-keyboard-response,129,454634,0.0-70.0,TRUE,FALSE,TRUE,FALSE,"""event"",""trial"",""time""
""blur"",""0"",""0""
""focus"",""0"",""0""
""blur"",""1"",""4212""
""focus"",""1"",""6139""
""fullscreenenter"",""5"",""18005""
","""event"",""trial"",""time""
""blur"",""0"",""0""
""blur"",""1"",""4212""
","""event"",""trial"",""time""
""focus"",""0"",""0""
""focus"",""1"",""6139""
","""event"",""trial"",""time""
""fullscreenenter"",""5"",""18005""
","
",null,audio/quiz/Q1_Correct.wav,null,NA,NA,NA,NA,NA,NA,NA,NA,NA,NA,NA,NA,NA,NA,NA,NA,NA,NA,NA,sub116
instructions-quiz,130,457509,0.0-71.0,TRUE,FALSE,TRUE,FALSE,"""event"",""trial"",""time""
""blur"",""0"",""0""
""focus"",""0"",""0""
""blur"",""1"",""4212""
""focus"",""1"",""6139""
""fullscreenenter"",""5"",""18005""
","""event"",""trial"",""time""
""blur"",""0"",""0""
""blur"",""1"",""4212""
","""event"",""trial"",""time""
""focus"",""0"",""0""
""focus"",""1"",""6139""
","""event"",""trial"",""time""
""fullscreenenter"",""5"",""18005""
","
",2873.5149999847636,audio/quiz/Q2_Prompt.wav,NA,0,NA,NA,NA,NA,NA,NA,NA,NA,NA,NA,NA,NA,NA,NA,NA,NA,NA,NA,sub116
audio-keyboard-response,131,470373,0.0-72.0,TRUE,FALSE,TRUE,FALSE,"""event"",""trial"",""time""
""blur"",""0"",""0""
""focus"",""0"",""0""
""blur"",""1"",""4212""
""focus"",""1"",""6139""
""fullscreenenter"",""5"",""18005""
","""event"",""trial"",""time""
""blur"",""0"",""0""
""blur"",""1"",""4212""
","""event"",""trial"",""time""
""focus"",""0"",""0""
""focus"",""1"",""6139""
","""event"",""trial"",""time""
""fullscreenenter"",""5"",""18005""
","
",null,audio/quiz/Q2_Correct.wav,null,NA,NA,NA,NA,NA,NA,NA,NA,NA,NA,NA,NA,NA,NA,NA,NA,NA,NA,NA,sub116
instructions-quiz,132,471885,0.0-73.0,TRUE,FALSE,TRUE,FALSE,"""event"",""trial"",""time""
""blur"",""0"",""0""
""focus"",""0"",""0""
""blur"",""1"",""4212""
""focus"",""1"",""6139""
""fullscreenenter"",""5"",""18005""
","""event"",""trial"",""time""
""blur"",""0"",""0""
""blur"",""1"",""4212""
","""event"",""trial"",""time""
""focus"",""0"",""0""
""focus"",""1"",""6139""
","""event"",""trial"",""time""
""fullscreenenter"",""5"",""18005""
","
",1511.0599999898113,audio/quiz/Q3_Prompt.wav,NA,1,NA,NA,NA,NA,NA,NA,NA,NA,NA,NA,NA,NA,NA,NA,NA,NA,NA,NA,sub116
audio-keyboard-response,133,477684,0.0-74.0,TRUE,FALSE,TRUE,FALSE,"""event"",""trial"",""time""
""blur"",""0"",""0""
""focus"",""0"",""0""
""blur"",""1"",""4212""
""focus"",""1"",""6139""
""fullscreenenter"",""5"",""18005""
","""event"",""trial"",""time""
""blur"",""0"",""0""
""blur"",""1"",""4212""
","""event"",""trial"",""time""
""focus"",""0"",""0""
""focus"",""1"",""6139""
","""event"",""trial"",""time""
""fullscreenenter"",""5"",""18005""
","
",null,audio/quiz/Q3_Correct.wav,null,NA,NA,NA,NA,NA,NA,NA,NA,NA,NA,NA,NA,NA,NA,NA,NA,NA,NA,NA,sub116
d3-instructions,134,480008,0.0-75.0,TRUE,FALSE,TRUE,FALSE,"""event"",""trial"",""time""
""blur"",""0"",""0""
""focus"",""0"",""0""
""blur"",""1"",""4212""
""focus"",""1"",""6139""
""fullscreenenter"",""5"",""18005""
","""event"",""trial"",""time""
""blur"",""0"",""0""
""blur"",""1"",""4212""
","""event"",""trial"",""time""
""focus"",""0"",""0""
""focus"",""1"",""6139""
","""event"",""trial"",""time""
""fullscreenenter"",""5"",""18005""
","
",NA,NA,NA,NA,NA,NA,NA,NA,NA,NA,NA,NA,NA,NA,NA,NA,NA,NA,NA,NA,NA,NA,sub116
d3-animate-choice,135,483096,0.0-76.0-0.0,TRUE,FALSE,TRUE,FALSE,"""event"",""trial"",""time""
""blur"",""0"",""0""
""focus"",""0"",""0""
""blur"",""1"",""4212""
""focus"",""1"",""6139""
""fullscreenenter"",""5"",""18005""
","""event"",""trial"",""time""
""blur"",""0"",""0""
""blur"",""1"",""4212""
","""event"",""trial"",""time""
""focus"",""0"",""0""
""focus"",""1"",""6139""
","""event"",""trial"",""time""
""fullscreenenter"",""5"",""18005""
","
",1081.1300000059418,NA,49,NA,NA,3000,1,NA,NA,images/earth.jpg,images/rocket2,images/rocket1,null,images/rocket1,NA,1,real,null,1,NA,NA,NA,sub116
d3-animate-choice,136,486150,0.0-76.0-1.0,TRUE,FALSE,TRUE,FALSE,"""event"",""trial"",""time""
""blur"",""0"",""0""
""focus"",""0"",""0""
""blur"",""1"",""4212""
""focus"",""1"",""6139""
""fullscreenenter"",""5"",""18005""
","""event"",""trial"",""time""
""blur"",""0"",""0""
""blur"",""1"",""4212""
","""event"",""trial"",""time""
""focus"",""0"",""0""
""focus"",""1"",""6139""
","""event"",""trial"",""time""
""fullscreenenter"",""5"",""18005""
","
",1046.8049999908544,NA,49,NA,NA,3000,1,NA,NA,images/purpleplanet.jpg,images/alien4,images/alien3,images/rocket1,images/alien3,images/t.png,2,real,true,1,common,1,2020-07-07T20:38:54Z,sub116
two-step-fixation,137,487158,0.0-76.0-2.0,TRUE,FALSE,TRUE,FALSE,"""event"",""trial"",""time""
""blur"",""0"",""0""
""focus"",""0"",""0""
""blur"",""1"",""4212""
""focus"",""1"",""6139""
""fullscreenenter"",""5"",""18005""
","""event"",""trial"",""time""
""blur"",""0"",""0""
""blur"",""1"",""4212""
","""event"",""trial"",""time""
""focus"",""0"",""0""
""focus"",""1"",""6139""
","""event"",""trial"",""time""
""fullscreenenter"",""5"",""18005""
","
",NA,images/earth.jpg,NA,NA,NA,NA,NA,NA,NA,NA,NA,NA,NA,NA,NA,fixation,NA,NA,NA,NA,NA,NA,sub116
d3-animate-choice,138,489686,0.0-76.0-0.1,TRUE,FALSE,TRUE,FALSE,"""event"",""trial"",""time""
""blur"",""0"",""0""
""focus"",""0"",""0""
""blur"",""1"",""4212""
""focus"",""1"",""6139""
""fullscreenenter"",""5"",""18005""
","""event"",""trial"",""time""
""blur"",""0"",""0""
""blur"",""1"",""4212""
","""event"",""trial"",""time""
""focus"",""0"",""0""
""focus"",""1"",""6139""
","""event"",""trial"",""time""
""fullscreenenter"",""5"",""18005""
","
",521.4549999800511,NA,49,NA,NA,3000,1,NA,NA,images/earth.jpg,images/rocket2,images/rocket1,null,images/rocket1,NA,1,real,null,1,NA,NA,NA,sub116
d3-animate-choice,139,492378,0.0-76.0-1.1,TRUE,FALSE,TRUE,FALSE,"""event"",""trial"",""time""
""blur"",""0"",""0""
""focus"",""0"",""0""
""blur"",""1"",""4212""
""focus"",""1"",""6139""
""fullscreenenter"",""5"",""18005""
","""event"",""trial"",""time""
""blur"",""0"",""0""
""blur"",""1"",""4212""
","""event"",""trial"",""time""
""focus"",""0"",""0""
""focus"",""1"",""6139""
","""event"",""trial"",""time""
""fullscreenenter"",""5"",""18005""
","
",685.2899999939837,NA,49,NA,NA,3000,1,NA,NA,images/purpleplanet.jpg,images/alien4,images/alien3,images/rocket1,images/alien3,images/t.png,2,real,true,1,common,1,2020-07-07T20:39:00Z,sub116
two-step-fixation,140,493385,0.0-76.0-2.1,TRUE,FALSE,TRUE,FALSE,"""event"",""trial"",""time""
""blur"",""0"",""0""
""focus"",""0"",""0""
""blur"",""1"",""4212""
""focus"",""1"",""6139""
""fullscreenenter"",""5"",""18005""
","""event"",""trial"",""time""
""blur"",""0"",""0""
""blur"",""1"",""4212""
","""event"",""trial"",""time""
""focus"",""0"",""0""
""focus"",""1"",""6139""
","""event"",""trial"",""time""
""fullscreenenter"",""5"",""18005""
","
",NA,images/earth.jpg,NA,NA,NA,NA,NA,NA,NA,NA,NA,NA,NA,NA,NA,fixation,NA,NA,NA,NA,NA,NA,sub116
d3-animate-choice,141,495932,0.0-76.0-0.2,TRUE,FALSE,TRUE,FALSE,"""event"",""trial"",""time""
""blur"",""0"",""0""
""focus"",""0"",""0""
""blur"",""1"",""4212""
""focus"",""1"",""6139""
""fullscreenenter"",""5"",""18005""
","""event"",""trial"",""time""
""blur"",""0"",""0""
""blur"",""1"",""4212""
","""event"",""trial"",""time""
""focus"",""0"",""0""
""focus"",""1"",""6139""
","""event"",""trial"",""time""
""fullscreenenter"",""5"",""18005""
","
",541.849999979604,NA,49,NA,NA,3000,1,NA,NA,images/earth.jpg,images/rocket2,images/rocket1,null,images/rocket1,NA,1,real,null,1,NA,NA,NA,sub116
d3-animate-choice,142,498426,0.0-76.0-1.2,TRUE,FALSE,TRUE,FALSE,"""event"",""trial"",""time""
""blur"",""0"",""0""
""focus"",""0"",""0""
""blur"",""1"",""4212""
""focus"",""1"",""6139""
""fullscreenenter"",""5"",""18005""
","""event"",""trial"",""time""
""blur"",""0"",""0""
""blur"",""1"",""4212""
","""event"",""trial"",""time""
""focus"",""0"",""0""
""focus"",""1"",""6139""
","""event"",""trial"",""time""
""fullscreenenter"",""5"",""18005""
","
",487.8650000318885,NA,49,NA,NA,3000,1,NA,NA,images/purpleplanet.jpg,images/alien4,images/alien3,images/rocket1,images/alien3,images/nothing.png,2,real,true,1,common,0,2020-07-07T20:39:06Z,sub116
two-step-fixation,143,499433,0.0-76.0-2.2,TRUE,FALSE,TRUE,FALSE,"""event"",""trial"",""time""
""blur"",""0"",""0""
""focus"",""0"",""0""
""blur"",""1"",""4212""
""focus"",""1"",""6139""
""fullscreenenter"",""5"",""18005""
","""event"",""trial"",""time""
""blur"",""0"",""0""
""blur"",""1"",""4212""
","""event"",""trial"",""time""
""focus"",""0"",""0""
""focus"",""1"",""6139""
","""event"",""trial"",""time""
""fullscreenenter"",""5"",""18005""
","
",NA,images/earth.jpg,NA,NA,NA,NA,NA,NA,NA,NA,NA,NA,NA,NA,NA,fixation,NA,NA,NA,NA,NA,NA,sub116
d3-animate-choice,144,501729,0.0-76.0-0.3,TRUE,FALSE,TRUE,FALSE,"""event"",""trial"",""time""
""blur"",""0"",""0""
""focus"",""0"",""0""
""blur"",""1"",""4212""
""focus"",""1"",""6139""
""fullscreenenter"",""5"",""18005""
","""event"",""trial"",""time""
""blur"",""0"",""0""
""blur"",""1"",""4212""
","""event"",""trial"",""time""
""focus"",""0"",""0""
""focus"",""1"",""6139""
","""event"",""trial"",""time""
""fullscreenenter"",""5"",""18005""
","
",292.48499998357147,NA,49,NA,NA,3000,1,NA,NA,images/earth.jpg,images/rocket2,images/rocket1,null,images/rocket1,NA,1,real,null,1,NA,NA,NA,sub116
d3-animate-choice,145,504137,0.0-76.0-1.3,TRUE,FALSE,TRUE,FALSE,"""event"",""trial"",""time""
""blur"",""0"",""0""
""focus"",""0"",""0""
""blur"",""1"",""4212""
""focus"",""1"",""6139""
""fullscreenenter"",""5"",""18005""
","""event"",""trial"",""time""
""blur"",""0"",""0""
""blur"",""1"",""4212""
","""event"",""trial"",""time""
""focus"",""0"",""0""
""focus"",""1"",""6139""
","""event"",""trial"",""time""
""fullscreenenter"",""5"",""18005""
","
",404.3999999994412,NA,49,NA,NA,3000,1,NA,NA,images/purpleplanet.jpg,images/alien4,images/alien3,images/rocket1,images/alien3,images/t.png,2,real,true,1,common,1,2020-07-07T20:39:12Z,sub116
two-step-fixation,146,505143,0.0-76.0-2.3,TRUE,FALSE,TRUE,FALSE,"""event"",""trial"",""time""
""blur"",""0"",""0""
""focus"",""0"",""0""
""blur"",""1"",""4212""
""focus"",""1"",""6139""
""fullscreenenter"",""5"",""18005""
","""event"",""trial"",""time""
""blur"",""0"",""0""
""blur"",""1"",""4212""
","""event"",""trial"",""time""
""focus"",""0"",""0""
""focus"",""1"",""6139""
","""event"",""trial"",""time""
""fullscreenenter"",""5"",""18005""
","
",NA,images/earth.jpg,NA,NA,NA,NA,NA,NA,NA,NA,NA,NA,NA,NA,NA,fixation,NA,NA,NA,NA,NA,NA,sub116
d3-animate-choice,147,507497,0.0-76.0-0.4,TRUE,FALSE,TRUE,FALSE,"""event"",""trial"",""time""
""blur"",""0"",""0""
""focus"",""0"",""0""
""blur"",""1"",""4212""
""focus"",""1"",""6139""
""fullscreenenter"",""5"",""18005""
","""event"",""trial"",""time""
""blur"",""0"",""0""
""blur"",""1"",""4212""
","""event"",""trial"",""time""
""focus"",""0"",""0""
""focus"",""1"",""6139""
","""event"",""trial"",""time""
""fullscreenenter"",""5"",""18005""
","
",348.34999998565763,NA,49,NA,NA,3000,1,NA,NA,images/earth.jpg,images/rocket2,images/rocket1,null,images/rocket1,NA,1,real,null,1,NA,NA,NA,sub116
d3-animate-choice,148,509803,0.0-76.0-1.4,TRUE,FALSE,TRUE,FALSE,"""event"",""trial"",""time""
""blur"",""0"",""0""
""focus"",""0"",""0""
""blur"",""1"",""4212""
""focus"",""1"",""6139""
""fullscreenenter"",""5"",""18005""
","""event"",""trial"",""time""
""blur"",""0"",""0""
""blur"",""1"",""4212""
","""event"",""trial"",""time""
""focus"",""0"",""0""
""focus"",""1"",""6139""
","""event"",""trial"",""time""
""fullscreenenter"",""5"",""18005""
","
",302.71499999798834,NA,49,NA,NA,3000,1,NA,NA,images/purpleplanet.jpg,images/alien4,images/alien3,images/rocket1,images/alien3,images/t.png,2,real,true,1,common,1,2020-07-07T20:39:18Z,sub116
two-step-fixation,149,510810,0.0-76.0-2.4,TRUE,FALSE,TRUE,FALSE,"""event"",""trial"",""time""
""blur"",""0"",""0""
""focus"",""0"",""0""
""blur"",""1"",""4212""
""focus"",""1"",""6139""
""fullscreenenter"",""5"",""18005""
","""event"",""trial"",""time""
""blur"",""0"",""0""
""blur"",""1"",""4212""
","""event"",""trial"",""time""
""focus"",""0"",""0""
""focus"",""1"",""6139""
","""event"",""trial"",""time""
""fullscreenenter"",""5"",""18005""
","
",NA,images/earth.jpg,NA,NA,NA,NA,NA,NA,NA,NA,NA,NA,NA,NA,NA,fixation,NA,NA,NA,NA,NA,NA,sub116
d3-animate-choice,150,513136,0.0-76.0-0.5,TRUE,FALSE,TRUE,FALSE,"""event"",""trial"",""time""
""blur"",""0"",""0""
""focus"",""0"",""0""
""blur"",""1"",""4212""
""focus"",""1"",""6139""
""fullscreenenter"",""5"",""18005""
","""event"",""trial"",""time""
""blur"",""0"",""0""
""blur"",""1"",""4212""
","""event"",""trial"",""time""
""focus"",""0"",""0""
""focus"",""1"",""6139""
","""event"",""trial"",""time""
""fullscreenenter"",""5"",""18005""
","
",318.7249999609776,NA,49,NA,NA,3000,1,NA,NA,images/earth.jpg,images/rocket2,images/rocket1,null,images/rocket1,NA,1,real,null,1,NA,NA,NA,sub116
d3-animate-choice,151,517144,0.0-76.0-1.5,TRUE,FALSE,TRUE,FALSE,"""event"",""trial"",""time""
""blur"",""0"",""0""
""focus"",""0"",""0""
""blur"",""1"",""4212""
""focus"",""1"",""6139""
""fullscreenenter"",""5"",""18005""
","""event"",""trial"",""time""
""blur"",""0"",""0""
""blur"",""1"",""4212""
","""event"",""trial"",""time""
""focus"",""0"",""0""
""focus"",""1"",""6139""
","""event"",""trial"",""time""
""fullscreenenter"",""5"",""18005""
","
",2294.6549999760464,NA,48,NA,NA,3000,1,NA,NA,images/redplanet1.jpg,images/alien2,images/alien1,images/rocket1,images/alien2,images/t.png,2,real,false,2,rare,1,2020-07-07T20:39:25Z,sub116
two-step-fixation,152,518151,0.0-76.0-2.5,TRUE,FALSE,TRUE,FALSE,"""event"",""trial"",""time""
""blur"",""0"",""0""
""focus"",""0"",""0""
""blur"",""1"",""4212""
""focus"",""1"",""6139""
""fullscreenenter"",""5"",""18005""
","""event"",""trial"",""time""
""blur"",""0"",""0""
""blur"",""1"",""4212""
","""event"",""trial"",""time""
""focus"",""0"",""0""
""focus"",""1"",""6139""
","""event"",""trial"",""time""
""fullscreenenter"",""5"",""18005""
","
",NA,images/earth.jpg,NA,NA,NA,NA,NA,NA,NA,NA,NA,NA,NA,NA,NA,fixation,NA,NA,NA,NA,NA,NA,sub116
d3-animate-choice,153,520937,0.0-76.0-0.6,TRUE,FALSE,TRUE,FALSE,"""event"",""trial"",""time""
""blur"",""0"",""0""
""focus"",""0"",""0""
""blur"",""1"",""4212""
""focus"",""1"",""6139""
""fullscreenenter"",""5"",""18005""
","""event"",""trial"",""time""
""blur"",""0"",""0""
""blur"",""1"",""4212""
","""event"",""trial"",""time""
""focus"",""0"",""0""
""focus"",""1"",""6139""
","""event"",""trial"",""time""
""fullscreenenter"",""5"",""18005""
","
",777.3600000073202,NA,49,NA,NA,3000,1,NA,NA,images/earth.jpg,images/rocket2,images/rocket1,null,images/rocket1,NA,1,real,null,1,NA,NA,NA,sub116
d3-animate-choice,154,523429,0.0-76.0-1.6,TRUE,FALSE,TRUE,FALSE,"""event"",""trial"",""time""
""blur"",""0"",""0""
""focus"",""0"",""0""
""blur"",""1"",""4212""
""focus"",""1"",""6139""
""fullscreenenter"",""5"",""18005""
","""event"",""trial"",""time""
""blur"",""0"",""0""
""blur"",""1"",""4212""
","""event"",""trial"",""time""
""focus"",""0"",""0""
""focus"",""1"",""6139""
","""event"",""trial"",""time""
""fullscreenenter"",""5"",""18005""
","
",485.12000002665445,NA,49,NA,NA,3000,1,NA,NA,images/purpleplanet.jpg,images/alien4,images/alien3,images/rocket1,images/alien3,images/nothing.png,2,real,true,1,common,0,2020-07-07T20:39:31Z,sub116
two-step-fixation,155,524435,0.0-76.0-2.6,TRUE,FALSE,TRUE,FALSE,"""event"",""trial"",""time""
""blur"",""0"",""0""
""focus"",""0"",""0""
""blur"",""1"",""4212""
""focus"",""1"",""6139""
""fullscreenenter"",""5"",""18005""
","""event"",""trial"",""time""
""blur"",""0"",""0""
""blur"",""1"",""4212""
","""event"",""trial"",""time""
""focus"",""0"",""0""
""focus"",""1"",""6139""
","""event"",""trial"",""time""
""fullscreenenter"",""5"",""18005""
","
",NA,images/earth.jpg,NA,NA,NA,NA,NA,NA,NA,NA,NA,NA,NA,NA,NA,fixation,NA,NA,NA,NA,NA,NA,sub116
d3-animate-choice,156,526817,0.0-76.0-0.7,TRUE,FALSE,TRUE,FALSE,"""event"",""trial"",""time""
""blur"",""0"",""0""
""focus"",""0"",""0""
""blur"",""1"",""4212""
""focus"",""1"",""6139""
""fullscreenenter"",""5"",""18005""
","""event"",""trial"",""time""
""blur"",""0"",""0""
""blur"",""1"",""4212""
","""event"",""trial"",""time""
""focus"",""0"",""0""
""focus"",""1"",""6139""
","""event"",""trial"",""time""
""fullscreenenter"",""5"",""18005""
","
",377.89000000339,NA,49,NA,NA,3000,1,NA,NA,images/earth.jpg,images/rocket2,images/rocket1,null,images/rocket1,NA,1,real,null,1,NA,NA,NA,sub116
d3-animate-choice,157,529347,0.0-76.0-1.7,TRUE,FALSE,TRUE,FALSE,"""event"",""trial"",""time""
""blur"",""0"",""0""
""focus"",""0"",""0""
""blur"",""1"",""4212""
""focus"",""1"",""6139""
""fullscreenenter"",""5"",""18005""
","""event"",""trial"",""time""
""blur"",""0"",""0""
""blur"",""1"",""4212""
","""event"",""trial"",""time""
""focus"",""0"",""0""
""focus"",""1"",""6139""
","""event"",""trial"",""time""
""fullscreenenter"",""5"",""18005""
","
",523.3049999806099,NA,49,NA,NA,3000,1,NA,NA,images/purpleplanet.jpg,images/alien4,images/alien3,images/rocket1,images/alien3,images/nothing.png,2,real,true,1,common,0,2020-07-07T20:39:37Z,sub116
two-step-fixation,158,530354,0.0-76.0-2.7,TRUE,FALSE,TRUE,FALSE,"""event"",""trial"",""time""
""blur"",""0"",""0""
""focus"",""0"",""0""
""blur"",""1"",""4212""
""focus"",""1"",""6139""
""fullscreenenter"",""5"",""18005""
","""event"",""trial"",""time""
""blur"",""0"",""0""
""blur"",""1"",""4212""
","""event"",""trial"",""time""
""focus"",""0"",""0""
""focus"",""1"",""6139""
","""event"",""trial"",""time""
""fullscreenenter"",""5"",""18005""
","
",NA,images/earth.jpg,NA,NA,NA,NA,NA,NA,NA,NA,NA,NA,NA,NA,NA,fixation,NA,NA,NA,NA,NA,NA,sub116
d3-animate-choice,159,533127,0.0-76.0-0.8,TRUE,FALSE,TRUE,FALSE,"""event"",""trial"",""time""
""blur"",""0"",""0""
""focus"",""0"",""0""
""blur"",""1"",""4212""
""focus"",""1"",""6139""
""fullscreenenter"",""5"",""18005""
","""event"",""trial"",""time""
""blur"",""0"",""0""
""blur"",""1"",""4212""
","""event"",""trial"",""time""
""focus"",""0"",""0""
""focus"",""1"",""6139""
","""event"",""trial"",""time""
""fullscreenenter"",""5"",""18005""
","
",765.5999999842606,NA,48,NA,NA,3000,1,NA,NA,images/earth.jpg,images/rocket2,images/rocket1,null,images/rocket2,NA,1,real,null,2,NA,NA,NA,sub116
d3-animate-choice,160,537133,0.0-76.0-1.8,TRUE,FALSE,TRUE,FALSE,"""event"",""trial"",""time""
""blur"",""0"",""0""
""focus"",""0"",""0""
""blur"",""1"",""4212""
""focus"",""1"",""6139""
""fullscreenenter"",""5"",""18005""
","""event"",""trial"",""time""
""blur"",""0"",""0""
""blur"",""1"",""4212""
","""event"",""trial"",""time""
""focus"",""0"",""0""
""focus"",""1"",""6139""
","""event"",""trial"",""time""
""fullscreenenter"",""5"",""18005""
","
",2333.5799999767914,NA,49,NA,NA,3000,1,NA,NA,images/purpleplanet.jpg,images/alien4,images/alien3,images/rocket2,images/alien3,images/nothing.png,2,real,false,1,rare,0,2020-07-07T20:39:45Z,sub116
two-step-fixation,161,538141,0.0-76.0-2.8,TRUE,FALSE,TRUE,FALSE,"""event"",""trial"",""time""
""blur"",""0"",""0""
""focus"",""0"",""0""
""blur"",""1"",""4212""
""focus"",""1"",""6139""
""fullscreenenter"",""5"",""18005""
","""event"",""trial"",""time""
""blur"",""0"",""0""
""blur"",""1"",""4212""
","""event"",""trial"",""time""
""focus"",""0"",""0""
""focus"",""1"",""6139""
","""event"",""trial"",""time""
""fullscreenenter"",""5"",""18005""
","
",NA,images/earth.jpg,NA,NA,NA,NA,NA,NA,NA,NA,NA,NA,NA,NA,NA,fixation,NA,NA,NA,NA,NA,NA,sub116
d3-animate-choice,162,540530,0.0-76.0-0.9,TRUE,FALSE,TRUE,FALSE,"""event"",""trial"",""time""
""blur"",""0"",""0""
""focus"",""0"",""0""
""blur"",""1"",""4212""
""focus"",""1"",""6139""
""fullscreenenter"",""5"",""18005""
","""event"",""trial"",""time""
""blur"",""0"",""0""
""blur"",""1"",""4212""
","""event"",""trial"",""time""
""focus"",""0"",""0""
""focus"",""1"",""6139""
","""event"",""trial"",""time""
""fullscreenenter"",""5"",""18005""
","
",384.1450000181794,NA,48,NA,NA,3000,1,NA,NA,images/earth.jpg,images/rocket2,images/rocket1,null,images/rocket2,NA,1,real,null,2,NA,NA,NA,sub116
d3-animate-choice,163,542879,0.0-76.0-1.9,TRUE,FALSE,TRUE,FALSE,"""event"",""trial"",""time""
""blur"",""0"",""0""
""focus"",""0"",""0""
""blur"",""1"",""4212""
""focus"",""1"",""6139""
""fullscreenenter"",""5"",""18005""
","""event"",""trial"",""time""
""blur"",""0"",""0""
""blur"",""1"",""4212""
","""event"",""trial"",""time""
""focus"",""0"",""0""
""focus"",""1"",""6139""
","""event"",""trial"",""time""
""fullscreenenter"",""5"",""18005""
","
",344.9850000324659,NA,48,NA,NA,3000,1,NA,NA,images/purpleplanet.jpg,images/alien4,images/alien3,images/rocket2,images/alien4,images/nothing.png,2,real,false,2,rare,0,2020-07-07T20:39:51Z,sub116
two-step-fixation,164,543885,0.0-76.0-2.9,TRUE,FALSE,TRUE,FALSE,"""event"",""trial"",""time""
""blur"",""0"",""0""
""focus"",""0"",""0""
""blur"",""1"",""4212""
""focus"",""1"",""6139""
""fullscreenenter"",""5"",""18005""
","""event"",""trial"",""time""
""blur"",""0"",""0""
""blur"",""1"",""4212""
","""event"",""trial"",""time""
""focus"",""0"",""0""
""focus"",""1"",""6139""
","""event"",""trial"",""time""
""fullscreenenter"",""5"",""18005""
","
",NA,images/earth.jpg,NA,NA,NA,NA,NA,NA,NA,NA,NA,NA,NA,NA,NA,fixation,NA,NA,NA,NA,NA,NA,sub116
d3-animate-choice,165,546206,0.0-76.0-0.10,TRUE,FALSE,TRUE,FALSE,"""event"",""trial"",""time""
""blur"",""0"",""0""
""focus"",""0"",""0""
""blur"",""1"",""4212""
""focus"",""1"",""6139""
""fullscreenenter"",""5"",""18005""
","""event"",""trial"",""time""
""blur"",""0"",""0""
""blur"",""1"",""4212""
","""event"",""trial"",""time""
""focus"",""0"",""0""
""focus"",""1"",""6139""
","""event"",""trial"",""time""
""fullscreenenter"",""5"",""18005""
","
",313.6249999515712,NA,48,NA,NA,3000,1,NA,NA,images/earth.jpg,images/rocket2,images/rocket1,null,images/rocket2,NA,1,real,null,2,NA,NA,NA,sub116
d3-animate-choice,166,548766,0.0-76.0-1.10,TRUE,FALSE,TRUE,FALSE,"""event"",""trial"",""time""
""blur"",""0"",""0""
""focus"",""0"",""0""
""blur"",""1"",""4212""
""focus"",""1"",""6139""
""fullscreenenter"",""5"",""18005""
","""event"",""trial"",""time""
""blur"",""0"",""0""
""blur"",""1"",""4212""
","""event"",""trial"",""time""
""focus"",""0"",""0""
""focus"",""1"",""6139""
","""event"",""trial"",""time""
""fullscreenenter"",""5"",""18005""
","
",552.2800000035204,NA,48,NA,NA,3000,1,NA,NA,images/redplanet1.jpg,images/alien2,images/alien1,images/rocket2,images/alien2,images/nothing.png,2,real,true,2,common,0,2020-07-07T20:39:57Z,sub116
two-step-fixation,167,549773,0.0-76.0-2.10,TRUE,FALSE,TRUE,FALSE,"""event"",""trial"",""time""
""blur"",""0"",""0""
""focus"",""0"",""0""
""blur"",""1"",""4212""
""focus"",""1"",""6139""
""fullscreenenter"",""5"",""18005""
","""event"",""trial"",""time""
""blur"",""0"",""0""
""blur"",""1"",""4212""
","""event"",""trial"",""time""
""focus"",""0"",""0""
""focus"",""1"",""6139""
","""event"",""trial"",""time""
""fullscreenenter"",""5"",""18005""
","
