trial_type,trial_index,time_elapsed,internal_node_id,rocket_sides,red_planet_first_rocket,red_display_order,purple_display_order,interactions,blur_events,focus_events,fullscreenenter_events,fullscreenexit_events,rt,stimulus,key_press,button_pressed,success,duration,valid_pressed,rts,keys,planet_text,right_text,left_text,center_text,chosen_text,reward_text,trial_stage,practice_trial,transition_type,choice,transition,reward,timestamp,subject_id
pavlovia,0,5,0.0-0.0,TRUE,TRUE,TRUE,TRUE,"
","
","
","
","
",NA,NA,NA,NA,NA,NA,NA,NA,NA,NA,NA,NA,NA,NA,NA,NA,NA,NA,NA,NA,NA,NA,sub35
html-keyboard-response,1,1372,0.0-1.0,TRUE,TRUE,TRUE,TRUE,"
","
","
","
","
",1365.4749999986961,Welcome! Press the space bar to begin.,32,NA,NA,NA,NA,NA,NA,NA,NA,NA,NA,NA,NA,NA,NA,NA,NA,NA,NA,NA,sub35
audio-keyboard-response,2,3947,0.0-2.0,TRUE,TRUE,TRUE,TRUE,"
","
","
","
","
",2509,audio/beep_loop.wav,32,NA,NA,NA,NA,NA,NA,NA,NA,NA,NA,NA,NA,NA,NA,NA,NA,NA,NA,NA,sub35
audio-button-response,3,6518,0.0-3.0,TRUE,TRUE,TRUE,TRUE,"
","
","
","
","
",NaN,audio/fish.mp3,NA,1,NA,NA,NA,NA,NA,NA,NA,NA,NA,NA,NA,NA,NA,NA,NA,NA,NA,NA,sub35
audio-button-response,4,9467,0.0-4.0,TRUE,TRUE,TRUE,TRUE,"""event"",""trial"",""time""
""fullscreenenter"",""5"",""13660""
","
","
","""event"",""trial"",""time""
""fullscreenenter"",""5"",""13660""
","
",NaN,audio/tiger.mp3,NA,4,NA,NA,NA,NA,NA,NA,NA,NA,NA,NA,NA,NA,NA,NA,NA,NA,NA,NA,sub35
fullscreen,5,14659,0.0-5.0,TRUE,TRUE,TRUE,TRUE,"""event"",""trial"",""time""
""fullscreenenter"",""5"",""13660""
","
","
","""event"",""trial"",""time""
""fullscreenenter"",""5"",""13660""
","
",NA,NA,NA,NA,TRUE,NA,NA,NA,NA,NA,NA,NA,NA,NA,NA,NA,NA,NA,NA,NA,NA,NA,sub35
d3-instructions,6,28291,0.0-6.0,TRUE,TRUE,TRUE,TRUE,"""event"",""trial"",""time""
""fullscreenenter"",""5"",""13660""
","
","
","""event"",""trial"",""time""
""fullscreenenter"",""5"",""13660""
","
",NA,NA,NA,NA,NA,NA,NA,NA,NA,NA,NA,NA,NA,NA,NA,NA,NA,NA,NA,NA,NA,NA,sub35
d3-instructions,7,36787,0.0-7.0,TRUE,TRUE,TRUE,TRUE,"""event"",""trial"",""time""
""fullscreenenter"",""5"",""13660""
","
","
","""event"",""trial"",""time""
""fullscreenenter"",""5"",""13660""
","
",NA,NA,NA,NA,NA,NA,NA,NA,NA,NA,NA,NA,NA,NA,NA,NA,NA,NA,NA,NA,NA,NA,sub35
d3-instructions,8,44083,0.0-8.0,TRUE,TRUE,TRUE,TRUE,"""event"",""trial"",""time""
""fullscreenenter"",""5"",""13660""
","
","
","""event"",""trial"",""time""
""fullscreenenter"",""5"",""13660""
","
",NA,NA,NA,NA,NA,NA,NA,NA,NA,NA,NA,NA,NA,NA,NA,NA,NA,NA,NA,NA,NA,NA,sub35
d3-instructions,9,55634,0.0-9.0,TRUE,TRUE,TRUE,TRUE,"""event"",""trial"",""time""
""fullscreenenter"",""5"",""13660""
","
","
","""event"",""trial"",""time""
""fullscreenenter"",""5"",""13660""
","
",NA,NA,NA,NA,NA,NA,NA,NA,NA,NA,NA,NA,NA,NA,NA,NA,NA,NA,NA,NA,NA,NA,sub35
d3-instructions,10,75970,0.0-10.0,TRUE,TRUE,TRUE,TRUE,"""event"",""trial"",""time""
""fullscreenenter"",""5"",""13660""
","
","
","""event"",""trial"",""time""
""fullscreenenter"",""5"",""13660""
","
",NA,NA,NA,NA,NA,NA,NA,NA,NA,NA,NA,NA,NA,NA,NA,NA,NA,NA,NA,NA,NA,NA,sub35
d3-animate-choice,11,79246,0.0-11.0,TRUE,TRUE,TRUE,TRUE,"""event"",""trial"",""time""
""fullscreenenter"",""5"",""13660""
","
","
","""event"",""trial"",""time""
""fullscreenenter"",""5"",""13660""
","
",1270.409999997355,NA,49,NA,NA,3000,1,2990.2400000137277,48,images/tutgreenplanet.jpg,images/tutalien1,images/tutalien2,null,images/tutalien2,NA,NA,practice,null,NA,NA,NA,NA,sub35
d3-animate-choice,12,82291,0.0-12.0,TRUE,TRUE,TRUE,TRUE,"""event"",""trial"",""time""
""fullscreenenter"",""5"",""13660""
","
","
","""event"",""trial"",""time""
""fullscreenenter"",""5"",""13660""
","
",1043.0899999919347,NA,48,NA,NA,3000,1,NA,NA,images/tutgreenplanet.jpg,images/tutalien1,images/tutalien2,null,images/tutalien1,NA,NA,practice,null,NA,NA,NA,NA,sub35
d3-animate-choice,13,85635,0.0-13.0,TRUE,TRUE,TRUE,TRUE,"""event"",""trial"",""time""
""fullscreenenter"",""5"",""13660""
","
","
","""event"",""trial"",""time""
""fullscreenenter"",""5"",""13660""
","
",1341.6449999785982,NA,48,NA,NA,3000,1,NA,NA,images/tutgreenplanet.jpg,images/tutalien1,images/tutalien2,null,images/tutalien1,NA,NA,practice,null,NA,NA,NA,NA,sub35
d3-animate-choice,14,88308,0.0-14.0,TRUE,TRUE,TRUE,TRUE,"""event"",""trial"",""time""
""fullscreenenter"",""5"",""13660""
","
","
","""event"",""trial"",""time""
""fullscreenenter"",""5"",""13660""
","
",670.0650000129826,NA,49,NA,NA,3000,1,NA,NA,images/tutgreenplanet.jpg,images/tutalien1,images/tutalien2,null,images/tutalien2,NA,NA,practice,null,NA,NA,NA,NA,sub35
d3-instructions,15,95450,0.0-15.0,TRUE,TRUE,TRUE,TRUE,"""event"",""trial"",""time""
""fullscreenenter"",""5"",""13660""
","
","
","""event"",""trial"",""time""
""fullscreenenter"",""5"",""13660""
","
",NA,NA,NA,NA,NA,NA,NA,NA,NA,NA,NA,NA,NA,NA,NA,NA,NA,NA,NA,NA,NA,NA,sub35
d3-instructions,16,103858,0.0-16.0,TRUE,TRUE,TRUE,TRUE,"""event"",""trial"",""time""
""fullscreenenter"",""5"",""13660""
","
","
","""event"",""trial"",""time""
""fullscreenenter"",""5"",""13660""
","
",NA,NA,NA,NA,NA,NA,NA,NA,NA,NA,NA,NA,NA,NA,NA,NA,NA,NA,NA,NA,NA,NA,sub35
d3-instructions,17,113003,0.0-17.0,TRUE,TRUE,TRUE,TRUE,"""event"",""trial"",""time""
""fullscreenenter"",""5"",""13660""
","
","
","""event"",""trial"",""time""
""fullscreenenter"",""5"",""13660""
","
",NA,NA,NA,NA,NA,NA,NA,NA,NA,NA,NA,NA,NA,NA,NA,NA,NA,NA,NA,NA,NA,NA,sub35
d3-instructions,18,126155,0.0-18.0,TRUE,TRUE,TRUE,TRUE,"""event"",""trial"",""time""
""fullscreenenter"",""5"",""13660""
","
","
","""event"",""trial"",""time""
""fullscreenenter"",""5"",""13660""
","
",NA,NA,NA,NA,NA,NA,NA,NA,NA,NA,NA,NA,NA,NA,NA,NA,NA,NA,NA,NA,NA,NA,sub35
d3-instructions,19,142434,0.0-19.0,TRUE,TRUE,TRUE,TRUE,"""event"",""trial"",""time""
""fullscreenenter"",""5"",""13660""
","
","
","""event"",""trial"",""time""
""fullscreenenter"",""5"",""13660""
","
",NA,NA,NA,NA,NA,NA,NA,NA,NA,NA,NA,NA,NA,NA,NA,NA,NA,NA,NA,NA,NA,NA,sub35
d3-animate-choice,20,145755,0.0-20.0,TRUE,TRUE,TRUE,TRUE,"""event"",""trial"",""time""
""fullscreenenter"",""5"",""13660""
","
","
","""event"",""trial"",""time""
""fullscreenenter"",""5"",""13660""
","
",1318.7199999811128,NA,49,NA,NA,3000,1,NA,NA,images/tutyellowplanet.jpg,null,images/tutalien3,null,images/tutalien3,images/t.png,NA,practice,null,NA,NA,NA,NA,sub35
d3-animate-choice,21,148123,0.0-21.0,TRUE,TRUE,TRUE,TRUE,"""event"",""trial"",""time""
""fullscreenenter"",""5"",""13660""
","
","
","""event"",""trial"",""time""
""fullscreenenter"",""5"",""13660""
","
",365.8700000378303,NA,49,NA,NA,3000,1,1813.9850000152364,49,images/tutyellowplanet.jpg,null,images/tutalien3,null,images/tutalien3,images/t.png,NA,practice,null,NA,NA,NA,NA,sub35
d3-animate-choice,22,150388,0.0-22.0,TRUE,TRUE,TRUE,TRUE,"""event"",""trial"",""time""
""fullscreenenter"",""5"",""13660""
","
","
","""event"",""trial"",""time""
""fullscreenenter"",""5"",""13660""
","
",262.140000006184,NA,49,NA,NA,3000,1,NA,NA,images/tutyellowplanet.jpg,null,images/tutalien3,null,images/tutalien3,images/t.png,NA,practice,null,NA,NA,NA,NA,sub35
d3-animate-choice,23,152796,0.0-23.0,TRUE,TRUE,TRUE,TRUE,"""event"",""trial"",""time""
""fullscreenenter"",""5"",""13660""
","
","
","""event"",""trial"",""time""
""fullscreenenter"",""5"",""13660""
","
",405.5950000183657,NA,49,NA,NA,3000,1,NA,NA,images/tutyellowplanet.jpg,null,images/tutalien3,null,images/tutalien3,images/nothing.png,NA,practice,null,NA,NA,NA,NA,sub35
d3-animate-choice,24,155140,0.0-24.0,TRUE,TRUE,TRUE,TRUE,"""event"",""trial"",""time""
""fullscreenenter"",""5"",""13660""
","
","
","""event"",""trial"",""time""
""fullscreenenter"",""5"",""13660""
","
",341.79000003496185,NA,49,NA,NA,3000,1,NA,NA,images/tutyellowplanet.jpg,null,images/tutalien3,null,images/tutalien3,images/t.png,NA,practice,null,NA,NA,NA,NA,sub35
d3-animate-choice,25,157491,0.0-25.0,TRUE,TRUE,TRUE,TRUE,"""event"",""trial"",""time""
""fullscreenenter"",""5"",""13660""
","
","
","""event"",""trial"",""time""
""fullscreenenter"",""5"",""13660""
","
",349.77500000968575,NA,49,NA,NA,3000,1,NA,NA,images/tutyellowplanet.jpg,null,images/tutalien3,null,images/tutalien3,images/nothing.png,NA,practice,null,NA,NA,NA,NA,sub35
d3-animate-choice,26,159771,0.0-26.0,TRUE,TRUE,TRUE,TRUE,"""event"",""trial"",""time""
""fullscreenenter"",""5"",""13660""
","
","
","""event"",""trial"",""time""
""fullscreenenter"",""5"",""13660""
","
",277.78499998385087,NA,49,NA,NA,3000,1,NA,NA,images/tutyellowplanet.jpg,null,images/tutalien3,null,images/tutalien3,images/t.png,NA,practice,null,NA,NA,NA,NA,sub35
d3-animate-choice,27,162076,0.0-27.0,TRUE,TRUE,TRUE,TRUE,"""event"",""trial"",""time""
""fullscreenenter"",""5"",""13660""
","
","
","""event"",""trial"",""time""
""fullscreenenter"",""5"",""13660""
","
",302.07499995594844,NA,49,NA,NA,3000,1,NA,NA,images/tutyellowplanet.jpg,null,images/tutalien3,null,images/tutalien3,images/nothing.png,NA,practice,null,NA,NA,NA,NA,sub35
d3-animate-choice,28,164356,0.0-28.0,TRUE,TRUE,TRUE,TRUE,"""event"",""trial"",""time""
""fullscreenenter"",""5"",""13660""
","
","
","""event"",""trial"",""time""
""fullscreenenter"",""5"",""13660""
","
",277.3750000051223,NA,49,NA,NA,3000,1,NA,NA,images/tutyellowplanet.jpg,null,images/tutalien3,null,images/tutalien3,images/t.png,NA,practice,null,NA,NA,NA,NA,sub35
d3-animate-choice,29,166675,0.0-29.0,TRUE,TRUE,TRUE,TRUE,"""event"",""trial"",""time""
""fullscreenenter"",""5"",""13660""
","
","
","""event"",""trial"",""time""
""fullscreenenter"",""5"",""13660""
","
",317.87999998778105,NA,49,NA,NA,3000,1,NA,NA,images/tutyellowplanet.jpg,null,images/tutalien3,null,images/tutalien3,images/t.png,NA,practice,null,NA,NA,NA,NA,sub35
d3-instructions,30,174010,0.0-30.0,TRUE,TRUE,TRUE,TRUE,"""event"",""trial"",""time""
""fullscreenenter"",""5"",""13660""
","
","
","""event"",""trial"",""time""
""fullscreenenter"",""5"",""13660""
","
",NA,NA,NA,NA,NA,NA,NA,NA,NA,NA,NA,NA,NA,NA,NA,NA,NA,NA,NA,NA,NA,NA,sub35
d3-instructions,31,184522,0.0-31.0,TRUE,TRUE,TRUE,TRUE,"""event"",""trial"",""time""
""fullscreenenter"",""5"",""13660""
","
","
","""event"",""trial"",""time""
""fullscreenenter"",""5"",""13660""
","
",NA,NA,NA,NA,NA,NA,NA,NA,NA,NA,NA,NA,NA,NA,NA,NA,NA,NA,NA,NA,NA,NA,sub35
d3-instructions,32,193002,0.0-32.0,TRUE,TRUE,TRUE,TRUE,"""event"",""trial"",""time""
""fullscreenenter"",""5"",""13660""
","
","
","""event"",""trial"",""time""
""fullscreenenter"",""5"",""13660""
","
",NA,NA,NA,NA,NA,NA,NA,NA,NA,NA,NA,NA,NA,NA,NA,NA,NA,NA,NA,NA,NA,NA,sub35
d3-instructions,33,204290,0.0-33.0,TRUE,TRUE,TRUE,TRUE,"""event"",""trial"",""time""
""fullscreenenter"",""5"",""13660""
","
","
","""event"",""trial"",""time""
""fullscreenenter"",""5"",""13660""
","
",NA,NA,NA,NA,NA,NA,NA,NA,NA,NA,NA,NA,NA,NA,NA,NA,NA,NA,NA,NA,NA,NA,sub35
d3-animate-choice,34,208659,0.0-34.0,TRUE,TRUE,TRUE,TRUE,"""event"",""trial"",""time""
""fullscreenenter"",""5"",""13660""
","
","
","""event"",""trial"",""time""
""fullscreenenter"",""5"",""13660""
","
",2366.859999950975,NA,48,NA,NA,3000,1,NA,NA,images/tutgreenplanet.jpg,images/tutalien1,images/tutalien2,null,images/tutalien1,images/nothing.png,NA,practice,null,NA,NA,NA,NA,sub35
d3-animate-choice,35,211659,0.0-35.0,TRUE,TRUE,TRUE,TRUE,"""event"",""trial"",""time""
""fullscreenenter"",""5"",""13660""
","
","
","""event"",""trial"",""time""
""fullscreenenter"",""5"",""13660""
","
",997.7749999961816,NA,49,NA,NA,3000,1,NA,NA,images/tutgreenplanet.jpg,images/tutalien1,images/tutalien2,null,images/tutalien2,images/t.png,NA,practice,null,NA,NA,NA,NA,sub35
d3-animate-choice,36,214283,0.0-36.0,TRUE,TRUE,TRUE,TRUE,"""event"",""trial"",""time""
""fullscreenenter"",""5"",""13660""
","
","
","""event"",""trial"",""time""
""fullscreenenter"",""5"",""13660""
","
",622.060000023339,NA,49,NA,NA,3000,1,NA,NA,images/tutgreenplanet.jpg,images/tutalien1,images/tutalien2,null,images/tutalien2,images/t.png,NA,practice,null,NA,NA,NA,NA,sub35
d3-animate-choice,37,216644,0.0-37.0,TRUE,TRUE,TRUE,TRUE,"""event"",""trial"",""time""
""fullscreenenter"",""5"",""13660""
","
","
","""event"",""trial"",""time""
""fullscreenenter"",""5"",""13660""
","
",358.35999995470047,NA,49,NA,NA,3000,1,NA,NA,images/tutgreenplanet.jpg,images/tutalien1,images/tutalien2,null,images/tutalien2,images/t.png,NA,practice,null,NA,NA,NA,NA,sub35
d3-animate-choice,38,218971,0.0-38.0,TRUE,TRUE,TRUE,TRUE,"""event"",""trial"",""time""
""fullscreenenter"",""5"",""13660""
","
","
","""event"",""trial"",""time""
""fullscreenenter"",""5"",""13660""
","
",324.67000000178814,NA,49,NA,NA,3000,1,NA,NA,images/tutgreenplanet.jpg,images/tutalien1,images/tutalien2,null,images/tutalien2,images/t.png,NA,practice,null,NA,NA,NA,NA,sub35
d3-animate-choice,39,221331,0.0-39.0,TRUE,TRUE,TRUE,TRUE,"""event"",""trial"",""time""
""fullscreenenter"",""5"",""13660""
","
","
","""event"",""trial"",""time""
""fullscreenenter"",""5"",""13660""
","
",358.2649999880232,NA,49,NA,NA,3000,1,NA,NA,images/tutgreenplanet.jpg,images/tutalien1,images/tutalien2,null,images/tutalien2,images/t.png,NA,practice,null,NA,NA,NA,NA,sub35
d3-animate-choice,40,223643,0.0-40.0,TRUE,TRUE,TRUE,TRUE,"""event"",""trial"",""time""
""fullscreenenter"",""5"",""13660""
","
","
","""event"",""trial"",""time""
""fullscreenenter"",""5"",""13660""
","
",309.9699999438599,NA,49,NA,NA,3000,1,NA,NA,images/tutgreenplanet.jpg,images/tutalien1,images/tutalien2,null,images/tutalien2,images/t.png,NA,practice,null,NA,NA,NA,NA,sub35
d3-animate-choice,41,225947,0.0-41.0,TRUE,TRUE,TRUE,TRUE,"""event"",""trial"",""time""
""fullscreenenter"",""5"",""13660""
","
","
","""event"",""trial"",""time""
""fullscreenenter"",""5"",""13660""
","
",301.9699999713339,NA,49,NA,NA,3000,1,NA,NA,images/tutgreenplanet.jpg,images/tutalien1,images/tutalien2,null,images/tutalien2,images/t.png,NA,practice,null,NA,NA,NA,NA,sub35
d3-animate-choice,42,228364,0.0-42.0,TRUE,TRUE,TRUE,TRUE,"""event"",""trial"",""time""
""fullscreenenter"",""5"",""13660""
","
","
","""event"",""trial"",""time""
""fullscreenenter"",""5"",""13660""
","
",414.2400000127964,NA,49,NA,NA,3000,1,NA,NA,images/tutgreenplanet.jpg,images/tutalien1,images/tutalien2,null,images/tutalien2,images/t.png,NA,practice,null,NA,NA,NA,NA,sub35
d3-animate-choice,43,230474,0.0-43.0,TRUE,TRUE,TRUE,TRUE,"""event"",""trial"",""time""
""fullscreenenter"",""5"",""13660""
","
","
","""event"",""trial"",""time""
""fullscreenenter"",""5"",""13660""
","
",109.00499997660518,NA,49,NA,NA,3000,1,868.9599999925122,49,images/tutgreenplanet.jpg,images/tutalien1,images/tutalien2,null,images/tutalien2,images/t.png,NA,practice,null,NA,NA,NA,NA,sub35
d3-instructions,44,244298,0.0-44.0,TRUE,TRUE,TRUE,TRUE,"""event"",""trial"",""time""
""fullscreenenter"",""5"",""13660""
","
","
","""event"",""trial"",""time""
""fullscreenenter"",""5"",""13660""
","
",NA,NA,NA,NA,NA,NA,NA,NA,NA,NA,NA,NA,NA,NA,NA,NA,NA,NA,NA,NA,NA,NA,sub35
d3-instructions,45,251434,0.0-45.0,TRUE,TRUE,TRUE,TRUE,"""event"",""trial"",""time""
""fullscreenenter"",""5"",""13660""
","
","
","""event"",""trial"",""time""
""fullscreenenter"",""5"",""13660""
","
",NA,NA,NA,NA,NA,NA,NA,NA,NA,NA,NA,NA,NA,NA,NA,NA,NA,NA,NA,NA,NA,NA,sub35
d3-instructions,46,257946,0.0-46.0,TRUE,TRUE,TRUE,TRUE,"""event"",""trial"",""time""
""fullscreenenter"",""5"",""13660""
","
","
","""event"",""trial"",""time""
""fullscreenenter"",""5"",""13660""
","
",NA,NA,NA,NA,NA,NA,NA,NA,NA,NA,NA,NA,NA,NA,NA,NA,NA,NA,NA,NA,NA,NA,sub35
d3-instructions,47,275202,0.0-47.0,TRUE,TRUE,TRUE,TRUE,"""event"",""trial"",""time""
""fullscreenenter"",""5"",""13660""
","
","
","""event"",""trial"",""time""
""fullscreenenter"",""5"",""13660""
","
",NA,NA,NA,NA,NA,NA,NA,NA,NA,NA,NA,NA,NA,NA,NA,NA,NA,NA,NA,NA,NA,NA,sub35
d3-instructions,48,283226,0.0-48.0,TRUE,TRUE,TRUE,TRUE,"""event"",""trial"",""time""
""fullscreenenter"",""5"",""13660""
","
","
","""event"",""trial"",""time""
""fullscreenenter"",""5"",""13660""
","
",NA,NA,NA,NA,NA,NA,NA,NA,NA,NA,NA,NA,NA,NA,NA,NA,NA,NA,NA,NA,NA,NA,sub35
d3-instructions,49,295338,0.0-49.0,TRUE,TRUE,TRUE,TRUE,"""event"",""trial"",""time""
""fullscreenenter"",""5"",""13660""
","
","
","""event"",""trial"",""time""
""fullscreenenter"",""5"",""13660""
","
",NA,NA,NA,NA,NA,NA,NA,NA,NA,NA,NA,NA,NA,NA,NA,NA,NA,NA,NA,NA,NA,NA,sub35
d3-instructions,50,304986,0.0-50.0,TRUE,TRUE,TRUE,TRUE,"""event"",""trial"",""time""
""fullscreenenter"",""5"",""13660""
","
","
","""event"",""trial"",""time""
""fullscreenenter"",""5"",""13660""
","
",NA,NA,NA,NA,NA,NA,NA,NA,NA,NA,NA,NA,NA,NA,NA,NA,NA,NA,NA,NA,NA,NA,sub35
d3-instructions,51,309802,0.0-51.0,TRUE,TRUE,TRUE,TRUE,"""event"",""trial"",""time""
""fullscreenenter"",""5"",""13660""
","
","
","""event"",""trial"",""time""
""fullscreenenter"",""5"",""13660""
","
",NA,NA,NA,NA,NA,NA,NA,NA,NA,NA,NA,NA,NA,NA,NA,NA,NA,NA,NA,NA,NA,NA,sub35
d3-instructions,52,312794,0.0-52.0,TRUE,TRUE,TRUE,TRUE,"""event"",""trial"",""time""
""fullscreenenter"",""5"",""13660""
","
","
","""event"",""trial"",""time""
""fullscreenenter"",""5"",""13660""
","
",NA,NA,NA,NA,NA,NA,NA,NA,NA,NA,NA,NA,NA,NA,NA,NA,NA,NA,NA,NA,NA,NA,sub35
d3-instructions,53,325250,0.0-53.0,TRUE,TRUE,TRUE,TRUE,"""event"",""trial"",""time""
""fullscreenenter"",""5"",""13660""
","
","
","""event"",""trial"",""time""
""fullscreenenter"",""5"",""13660""
","
",NA,NA,NA,NA,NA,NA,NA,NA,NA,NA,NA,NA,NA,NA,NA,NA,NA,NA,NA,NA,NA,NA,sub35
d3-instructions,54,337778,0.0-54.0,TRUE,TRUE,TRUE,TRUE,"""event"",""trial"",""time""
""fullscreenenter"",""5"",""13660""
","
","
","""event"",""trial"",""time""
""fullscreenenter"",""5"",""13660""
","
",NA,NA,NA,NA,NA,NA,NA,NA,NA,NA,NA,NA,NA,NA,NA,NA,NA,NA,NA,NA,NA,NA,sub35
d3-instructions,55,348554,0.0-55.0,TRUE,TRUE,TRUE,TRUE,"""event"",""trial"",""time""
""fullscreenenter"",""5"",""13660""
","
","
","""event"",""trial"",""time""
""fullscreenenter"",""5"",""13660""
","
",NA,NA,NA,NA,NA,NA,NA,NA,NA,NA,NA,NA,NA,NA,NA,NA,NA,NA,NA,NA,NA,NA,sub35
d3-instructions,56,357074,0.0-56.0,TRUE,TRUE,TRUE,TRUE,"""event"",""trial"",""time""
""fullscreenenter"",""5"",""13660""
","
","
","""event"",""trial"",""time""
""fullscreenenter"",""5"",""13660""
","
",NA,NA,NA,NA,NA,NA,NA,NA,NA,NA,NA,NA,NA,NA,NA,NA,NA,NA,NA,NA,NA,NA,sub35
d3-instructions,57,367970,0.0-57.0,TRUE,TRUE,TRUE,TRUE,"""event"",""trial"",""time""
""fullscreenenter"",""5"",""13660""
","
","
","""event"",""trial"",""time""
""fullscreenenter"",""5"",""13660""
","
",NA,NA,NA,NA,NA,NA,NA,NA,NA,NA,NA,NA,NA,NA,NA,NA,NA,NA,NA,NA,NA,NA,sub35
d3-instructions,58,379602,0.0-58.0,TRUE,TRUE,TRUE,TRUE,"""event"",""trial"",""time""
""fullscreenenter"",""5"",""13660""
","
","
","""event"",""trial"",""time""
""fullscreenenter"",""5"",""13660""
","
",NA,NA,NA,NA,NA,NA,NA,NA,NA,NA,NA,NA,NA,NA,NA,NA,NA,NA,NA,NA,NA,NA,sub35
d3-instructions,59,387570,0.0-59.0,TRUE,TRUE,TRUE,TRUE,"""event"",""trial"",""time""
""fullscreenenter"",""5"",""13660""
","
","
","""event"",""trial"",""time""
""fullscreenenter"",""5"",""13660""
","
",NA,NA,NA,NA,NA,NA,NA,NA,NA,NA,NA,NA,NA,NA,NA,NA,NA,NA,NA,NA,NA,NA,sub35
d3-instructions,60,395578,0.0-60.0,TRUE,TRUE,TRUE,TRUE,"""event"",""trial"",""time""
""fullscreenenter"",""5"",""13660""
","
","
","""event"",""trial"",""time""
""fullscreenenter"",""5"",""13660""
","
",NA,NA,NA,NA,NA,NA,NA,NA,NA,NA,NA,NA,NA,NA,NA,NA,NA,NA,NA,NA,NA,NA,sub35
d3-animate-choice,61,399003,0.0-61.0-0.0,TRUE,TRUE,TRUE,TRUE,"""event"",""trial"",""time""
""fullscreenenter"",""5"",""13660""
","
","
","""event"",""trial"",""time""
""fullscreenenter"",""5"",""13660""
","
",1421.9900000025518,NA,48,NA,NA,3000,1,NA,NA,images/earth.jpg,images/tutrocket2,images/tutrocket1,null,images/tutrocket2,NA,1,practice,null,2,NA,NA,NA,sub35
d3-animate-choice,62,402315,0.0-61.0-1.0,TRUE,TRUE,TRUE,TRUE,"""event"",""trial"",""time""
""fullscreenenter"",""5"",""13660""
","
","
","""event"",""trial"",""time""
""fullscreenenter"",""5"",""13660""
","
",1309.015000006184,NA,48,NA,NA,3000,1,NA,NA,images/tutyellowplanet.jpg,images/tutalien4,images/tutalien3,images/tutrocket2,images/tutalien4,images/t.png,2,practice,true,2,common,1,2020-06-15T14:48:18Z,sub35
two-step-fixation,63,403319,0.0-61.0-2.0,TRUE,TRUE,TRUE,TRUE,"""event"",""trial"",""time""
""fullscreenenter"",""5"",""13660""
","
","
","""event"",""trial"",""time""
""fullscreenenter"",""5"",""13660""
","
",NA,images/earth.jpg,NA,NA,NA,NA,NA,NA,NA,NA,NA,NA,NA,NA,NA,fixation,NA,NA,NA,NA,NA,NA,sub35
d3-animate-choice,64,405930,0.0-61.0-0.1,TRUE,TRUE,TRUE,TRUE,"""event"",""trial"",""time""
""fullscreenenter"",""5"",""13660""
","
","
","""event"",""trial"",""time""
""fullscreenenter"",""5"",""13660""
","
",609.714999969583,NA,48,NA,NA,3000,1,NA,NA,images/earth.jpg,images/tutrocket2,images/tutrocket1,null,images/tutrocket2,NA,1,practice,null,2,NA,NA,NA,sub35
d3-animate-choice,65,408730,0.0-61.0-1.1,TRUE,TRUE,TRUE,TRUE,"""event"",""trial"",""time""
""fullscreenenter"",""5"",""13660""
","
","
","""event"",""trial"",""time""
""fullscreenenter"",""5"",""13660""
","
",798.0949999764562,NA,48,NA,NA,3000,1,NA,NA,images/tutyellowplanet.jpg,images/tutalien4,images/tutalien3,images/tutrocket2,images/tutalien4,images/t.png,2,practice,true,2,common,1,2020-06-15T14:48:24Z,sub35
two-step-fixation,66,409733,0.0-61.0-2.1,TRUE,TRUE,TRUE,TRUE,"""event"",""trial"",""time""
""fullscreenenter"",""5"",""13660""
","
","
","""event"",""trial"",""time""
""fullscreenenter"",""5"",""13660""
","
",NA,images/earth.jpg,NA,NA,NA,NA,NA,NA,NA,NA,NA,NA,NA,NA,NA,fixation,NA,NA,NA,NA,NA,NA,sub35
d3-animate-choice,67,412370,0.0-61.0-0.2,TRUE,TRUE,TRUE,TRUE,"""event"",""trial"",""time""
""fullscreenenter"",""5"",""13660""
","
","
","""event"",""trial"",""time""
""fullscreenenter"",""5"",""13660""
","
",635.5450000264682,NA,48,NA,NA,3000,1,NA,NA,images/earth.jpg,images/tutrocket2,images/tutrocket1,null,images/tutrocket2,NA,1,practice,null,2,NA,NA,NA,sub35
d3-animate-choice,68,414802,0.0-61.0-1.2,TRUE,TRUE,TRUE,TRUE,"""event"",""trial"",""time""
""fullscreenenter"",""5"",""13660""
","
","
","""event"",""trial"",""time""
""fullscreenenter"",""5"",""13660""
","
",429.88499999046326,NA,48,NA,NA,3000,1,NA,NA,images/tutyellowplanet.jpg,images/tutalien4,images/tutalien3,images/tutrocket2,images/tutalien4,images/t.png,2,practice,true,2,common,1,2020-06-15T14:48:30Z,sub35
two-step-fixation,69,415803,0.0-61.0-2.2,TRUE,TRUE,TRUE,TRUE,"""event"",""trial"",""time""
""fullscreenenter"",""5"",""13660""
","
","
","""event"",""trial"",""time""
""fullscreenenter"",""5"",""13660""
","
",NA,images/earth.jpg,NA,NA,NA,NA,NA,NA,NA,NA,NA,NA,NA,NA,NA,fixation,NA,NA,NA,NA,NA,NA,sub35
d3-animate-choice,70,418282,0.0-61.0-0.3,TRUE,TRUE,TRUE,TRUE,"""event"",""trial"",""time""
""fullscreenenter"",""5"",""13660""
","
","
","""event"",""trial"",""time""
""fullscreenenter"",""5"",""13660""
","
",476.30999999819323,NA,48,NA,NA,3000,1,NA,NA,images/earth.jpg,images/tutrocket2,images/tutrocket1,null,images/tutrocket2,NA,1,practice,null,2,NA,NA,NA,sub35
d3-animate-choice,71,420836,0.0-61.0-1.3,TRUE,TRUE,TRUE,TRUE,"""event"",""trial"",""time""
""fullscreenenter"",""5"",""13660""
","
","
","""event"",""trial"",""time""
""fullscreenenter"",""5"",""13660""
","
",549.4099999777973,NA,48,NA,NA,3000,1,NA,NA,images/tutyellowplanet.jpg,images/tutalien4,images/tutalien3,images/tutrocket2,images/tutalien4,images/t.png,2,practice,true,2,common,1,2020-06-15T14:48:36Z,sub35
two-step-fixation,72,421838,0.0-61.0-2.3,TRUE,TRUE,TRUE,TRUE,"""event"",""trial"",""time""
""fullscreenenter"",""5"",""13660""
","
","
","""event"",""trial"",""time""
""fullscreenenter"",""5"",""13660""
","
",NA,images/earth.jpg,NA,NA,NA,NA,NA,NA,NA,NA,NA,NA,NA,NA,NA,fixation,NA,NA,NA,NA,NA,NA,sub35
d3-animate-choice,73,424354,0.0-61.0-0.4,TRUE,TRUE,TRUE,TRUE,"""event"",""trial"",""time""
""fullscreenenter"",""5"",""13660""
","
","
","""event"",""trial"",""time""
""fullscreenenter"",""5"",""13660""
","
",513.4550000075251,NA,48,NA,NA,3000,1,NA,NA,images/earth.jpg,images/tutrocket2,images/tutrocket1,null,images/tutrocket2,NA,1,practice,null,2,NA,NA,NA,sub35
d3-animate-choice,74,428357,0.0-61.0-1.4,TRUE,TRUE,TRUE,TRUE,"""event"",""trial"",""time""
""fullscreenenter"",""5"",""13660""
","
","
","""event"",""trial"",""time""
""fullscreenenter"",""5"",""13660""
","
",2181.2349999672733,NA,49,NA,NA,3000,1,NA,NA,images/tutgreenplanet.jpg,images/tutalien2,images/tutalien1,images/tutrocket2,images/tutalien1,images/nothing.png,2,practice,false,1,rare,0,2020-06-15T14:48:44Z,sub35
two-step-fixation,75,429359,0.0-61.0-2.4,TRUE,TRUE,TRUE,TRUE,"""event"",""trial"",""time""
""fullscreenenter"",""5"",""13660""
","
","
","""event"",""trial"",""time""
""fullscreenenter"",""5"",""13660""
","
",NA,images/earth.jpg,NA,NA,NA,NA,NA,NA,NA,NA,NA,NA,NA,NA,NA,fixation,NA,NA,NA,NA,NA,NA,sub35
d3-animate-choice,76,431666,0.0-61.0-0.5,TRUE,TRUE,TRUE,TRUE,"""event"",""trial"",""time""
""fullscreenenter"",""5"",""13660""
","
","
","""event"",""trial"",""time""
""fullscreenenter"",""5"",""13660""
","
",304.5949999941513,NA,48,NA,NA,3000,1,NA,NA,images/earth.jpg,images/tutrocket2,images/tutrocket1,null,images/tutrocket2,NA,1,practice,null,2,NA,NA,NA,sub35
d3-animate-choice,77,435346,0.0-61.0-1.5,TRUE,TRUE,TRUE,TRUE,"""event"",""trial"",""time""
""fullscreenenter"",""5"",""13660""
","
","
","""event"",""trial"",""time""
""fullscreenenter"",""5"",""13660""
","
",1677.28999996325,NA,48,NA,NA,3000,1,NA,NA,images/tutgreenplanet.jpg,images/tutalien2,images/tutalien1,images/tutrocket2,images/tutalien2,images/nothing.png,2,practice,false,2,rare,0,2020-06-15T14:48:51Z,sub35
two-step-fixation,78,436349,0.0-61.0-2.5,TRUE,TRUE,TRUE,TRUE,"""event"",""trial"",""time""
""fullscreenenter"",""5"",""13660""
","
","
","""event"",""trial"",""time""
""fullscreenenter"",""5"",""13660""
","
",NA,images/earth.jpg,NA,NA,NA,NA,NA,NA,NA,NA,NA,NA,NA,NA,NA,fixation,NA,NA,NA,NA,NA,NA,sub35
d3-animate-choice,79,438762,0.0-61.0-0.6,TRUE,TRUE,TRUE,TRUE,"""event"",""trial"",""time""
""fullscreenenter"",""5"",""13660""
","
","
","""event"",""trial"",""time""
""fullscreenenter"",""5"",""13660""
","
",410.1499999524094,NA,48,NA,NA,3000,1,NA,NA,images/earth.jpg,images/tutrocket2,images/tutrocket1,null,images/tutrocket2,NA,1,practice,null,2,NA,NA,NA,sub35
d3-animate-choice,80,441531,0.0-61.0-1.6,TRUE,TRUE,TRUE,TRUE,"""event"",""trial"",""time""
""fullscreenenter"",""5"",""13660""
","
","
","""event"",""trial"",""time""
""fullscreenenter"",""5"",""13660""
","
",765.8749999827705,NA,48,NA,NA,3000,1,NA,NA,images/tutyellowplanet.jpg,images/tutalien4,images/tutalien3,images/tutrocket2,images/tutalien4,images/t.png,2,practice,true,2,common,1,2020-06-15T14:48:57Z,sub35
two-step-fixation,81,442533,0.0-61.0-2.6,TRUE,TRUE,TRUE,TRUE,"""event"",""trial"",""time""
""fullscreenenter"",""5"",""13660""
","
","
","""event"",""trial"",""time""
""fullscreenenter"",""5"",""13660""
","
",NA,images/earth.jpg,NA,NA,NA,NA,NA,NA,NA,NA,NA,NA,NA,NA,NA,fixation,NA,NA,NA,NA,NA,NA,sub35
d3-animate-choice,82,445074,0.0-61.0-0.7,TRUE,TRUE,TRUE,TRUE,"""event"",""trial"",""time""
""fullscreenenter"",""5"",""13660""
","
","
","""event"",""trial"",""time""
""fullscreenenter"",""5"",""13660""
","
",538.5249999817461,NA,48,NA,NA,3000,1,NA,NA,images/earth.jpg,images/tutrocket2,images/tutrocket1,null,images/tutrocket2,NA,1,practice,null,2,NA,NA,NA,sub35
d3-animate-choice,83,447746,0.0-61.0-1.7,TRUE,TRUE,TRUE,TRUE,"""event"",""trial"",""time""
""fullscreenenter"",""5"",""13660""
","
","
","""event"",""trial"",""time""
""fullscreenenter"",""5"",""13660""
","
",669.5349999936298,NA,48,NA,NA,3000,1,NA,NA,images/tutyellowplanet.jpg,images/tutalien4,images/tutalien3,images/tutrocket2,images/tutalien4,images/nothing.png,2,practice,true,2,common,0,2020-06-15T14:49:03Z,sub35
two-step-fixation,84,448749,0.0-61.0-2.7,TRUE,TRUE,TRUE,TRUE,"""event"",""trial"",""time""
""fullscreenenter"",""5"",""13660""
","
","
","""event"",""trial"",""time""
""fullscreenenter"",""5"",""13660""
","
",NA,images/earth.jpg,NA,NA,NA,NA,NA,NA,NA,NA,NA,NA,NA,NA,NA,fixation,NA,NA,NA,NA,NA,NA,sub35
d3-animate-choice,85,451082,0.0-61.0-0.8,TRUE,TRUE,TRUE,TRUE,"""event"",""trial"",""time""
""fullscreenenter"",""5"",""13660""
","
","
","""event"",""trial"",""time""
""fullscreenenter"",""5"",""13660""
","
",330.8349999715574,NA,48,NA,NA,3000,1,NA,NA,images/earth.jpg,images/tutrocket2,images/tutrocket1,null,images/tutrocket2,NA,1,practice,null,2,NA,NA,NA,sub35
d3-animate-choice,86,453649,0.0-61.0-1.8,TRUE,TRUE,TRUE,TRUE,"""event"",""trial"",""time""
""fullscreenenter"",""5"",""13660""
","
","
","""event"",""trial"",""time""
""fullscreenenter"",""5"",""13660""
","
",565.1850000140257,NA,48,NA,NA,3000,1,NA,NA,images/tutyellowplanet.jpg,images/tutalien4,images/tutalien3,images/tutrocket2,images/tutalien4,images/nothing.png,2,practice,true,2,common,0,2020-06-15T14:49:09Z,sub35
two-step-fixation,87,454651,0.0-61.0-2.8,TRUE,TRUE,TRUE,TRUE,"""event"",""trial"",""time""
""fullscreenenter"",""5"",""13660""
","
","
","""event"",""trial"",""time""
""fullscreenenter"",""5"",""13660""
","
",NA,images/earth.jpg,NA,NA,NA,NA,NA,NA,NA,NA,NA,NA,NA,NA,NA,fixation,NA,NA,NA,NA,NA,NA,sub35
d3-animate-choice,88,457690,0.0-61.0-0.9,TRUE,TRUE,TRUE,TRUE,"""event"",""trial"",""time""
""fullscreenenter"",""5"",""13660""
","
","
","""event"",""trial"",""time""
""fullscreenenter"",""5"",""13660""
","
",1036.1149999662302,NA,48,NA,NA,3000,1,NA,NA,images/earth.jpg,images/tutrocket2,images/tutrocket1,null,images/tutrocket2,NA,1,practice,null,2,NA,NA,NA,sub35
d3-animate-choice,89,460153,0.0-61.0-1.9,TRUE,TRUE,TRUE,TRUE,"""event"",""trial"",""time""
""fullscreenenter"",""5"",""13660""
","
","
","""event"",""trial"",""time""
""fullscreenenter"",""5"",""13660""
","
",461.4449999644421,NA,49,NA,NA,3000,1,NA,NA,images/tutgreenplanet.jpg,images/tutalien2,images/tutalien1,images/tutrocket2,images/tutalien1,images/t.png,2,practice,false,1,rare,1,2020-06-15T14:49:16Z,sub35
two-step-fixation,90,461156,0.0-61.0-2.9,TRUE,TRUE,TRUE,TRUE,"""event"",""trial"",""time""
""fullscreenenter"",""5"",""13660""
","
","
","""event"",""trial"",""time""
""fullscreenenter"",""5"",""13660""
","
",NA,images/earth.jpg,NA,NA,NA,NA,NA,NA,NA,NA,NA,NA,NA,NA,NA,fixation,NA,NA,NA,NA,NA,NA,sub35
d3-animate-choice,91,463706,0.0-61.0-0.10,TRUE,TRUE,TRUE,TRUE,"""event"",""trial"",""time""
""fullscreenenter"",""5"",""13660""
","
","
","""event"",""trial"",""time""
""fullscreenenter"",""5"",""13660""
","
",547.2550000413321,NA,48,NA,NA,3000,1,NA,NA,images/earth.jpg,images/tutrocket2,images/tutrocket1,null,images/tutrocket2,NA,1,practice,null,2,NA,NA,NA,sub35
d3-animate-choice,92,466106,0.0-61.0-1.10,TRUE,TRUE,TRUE,TRUE,"""event"",""trial"",""time""
""fullscreenenter"",""5"",""13660""
","
","
","""event"",""trial"",""time""
""fullscreenenter"",""5"",""13660""
","
",397.0499999704771,NA,48,NA,NA,3000,1,NA,NA,images/tutgreenplanet.jpg,images/tutalien2,images/tutalien1,images/tutrocket2,images/tutalien2,images/nothing.png,2,practice,false,2,rare,0,2020-06-15T14:49:21Z,sub35
two-step-fixation,93,467107,0.0-61.0-2.10,TRUE,TRUE,TRUE,TRUE,"""event"",""trial"",""time""
""fullscreenenter"",""5"",""13660""
","
","
","""event"",""trial"",""time""
""fullscreenenter"",""5"",""13660""
","
",NA,images/earth.jpg,NA,NA,NA,NA,NA,NA,NA,NA,NA,NA,NA,NA,NA,fixation,NA,NA,NA,NA,NA,NA,sub35
d3-animate-choice,94,469938,0.0-61.0-0.11,TRUE,TRUE,TRUE,TRUE,"""event"",""trial"",""time""
""fullscreenenter"",""5"",""13660""
","
","
","""event"",""trial"",""time""
""fullscreenenter"",""5"",""13660""
","
",828.2349999644794,NA,48,NA,NA,3000,1,NA,NA,images/earth.jpg,images/tutrocket2,images/tutrocket1,null,images/tutrocket2,NA,1,practice,null,2,NA,NA,NA,sub35
d3-animate-choice,95,472795,0.0-61.0-1.11,TRUE,TRUE,TRUE,TRUE,"""event"",""trial"",""time""
""fullscreenenter"",""5"",""13660""
","
","
","""event"",""trial"",""time""
""fullscreenenter"",""5"",""13660""
","
",853.7500000093132,NA,49,NA,NA,3000,1,NA,NA,images/tutgreenplanet.jpg,images/tutalien2,images/tutalien1,images/tutrocket2,images/tutalien1,images/nothing.png,2,practice,false,1,rare,0,2020-06-15T14:49:28Z,sub35
two-step-fixation,96,473797,0.0-61.0-2.11,TRUE,TRUE,TRUE,TRUE,"""event"",""trial"",""time""
""fullscreenenter"",""5"",""13660""
","
","
","""event"",""trial"",""time""
""fullscreenenter"",""5"",""13660""
","
",NA,images/earth.jpg,NA,NA,NA,NA,NA,NA,NA,NA,NA,NA,NA,NA,NA,fixation,NA,NA,NA,NA,NA,NA,sub35
d3-animate-choice,97,476202,0.0-61.0-0.12,TRUE,TRUE,TRUE,TRUE,"""event"",""trial"",""time""
""fullscreenenter"",""5"",""13660""
","
","
","""event"",""trial"",""time""
""fullscreenenter"",""5"",""13660""
","
",403.1550000072457,NA,48,NA,NA,3000,1,NA,NA,images/earth.jpg,images/tutrocket2,images/tutrocket1,null,images/tutrocket2,NA,1,practice,null,2,NA,NA,NA,sub35
d3-animate-choice,98,479194,0.0-61.0-1.12,TRUE,TRUE,TRUE,TRUE,"""event"",""trial"",""time""
""fullscreenenter"",""5"",""13660""
","
","
","""event"",""trial"",""time""
""fullscreenenter"",""5"",""13660""
","
",989.9250000016764,NA,49,NA,NA,3000,1,NA,NA,images/tutyellowplanet.jpg,images/tutalien4,images/tutalien3,images/tutrocket2,images/tutalien3,images/t.png,2,practice,true,1,common,1,2020-06-15T14:49:35Z,sub35
two-step-fixation,99,480197,0.0-61.0-2.12,TRUE,TRUE,TRUE,TRUE,"""event"",""trial"",""time""
""fullscreenenter"",""5"",""13660""
","
","
","""event"",""trial"",""time""
""fullscreenenter"",""5"",""13660""
","
",NA,images/earth.jpg,NA,NA,NA,NA,NA,NA,NA,NA,NA,NA,NA,NA,NA,fixation,NA,NA,NA,NA,NA,NA,sub35
d3-animate-choice,100,482891,0.0-61.0-0.13,TRUE,TRUE,TRUE,TRUE,"""event"",""trial"",""time""
""fullscreenenter"",""5"",""13660""
","
","
","""event"",""trial"",""time""
""fullscreenenter"",""5"",""13660""
","
",691.4099999703467,NA,48,NA,NA,3000,1,NA,NA,images/earth.jpg,images/tutrocket2,images/tutrocket1,null,images/tutrocket2,NA,1,practice,null,2,NA,NA,NA,sub35
d3-animate-choice,101,485723,0.0-61.0-1.13,TRUE,TRUE,TRUE,TRUE,"""event"",""trial"",""time""
""fullscreenenter"",""5"",""13660""
","
","
","""event"",""trial"",""time""
""fullscreenenter"",""5"",""13660""
","
",828.5299999988638,NA,49,NA,NA,3000,1,NA,NA,images/tutgreenplanet.jpg,images/tutalien2,images/tutalien1,images/tutrocket2,images/tutalien1,images/nothing.png,2,practice,false,1,rare,0,2020-06-15T14:49:41Z,sub35
two-step-fixation,102,486725,0.0-61.0-2.13,TRUE,TRUE,TRUE,TRUE,"""event"",""trial"",""time""
""fullscreenenter"",""5"",""13660""
","
","
","""event"",""trial"",""time""
""fullscreenenter"",""5"",""13660""
","
",NA,images/earth.jpg,NA,NA,NA,NA,NA,NA,NA,NA,NA,NA,NA,NA,NA,fixation,NA,NA,NA,NA,NA,NA,sub35
d3-animate-choice,103,489082,0.0-61.0-0.14,TRUE,TRUE,TRUE,TRUE,"""event"",""trial"",""time""
""fullscreenenter"",""5"",""13660""
","
","
","""event"",""trial"",""time""
""fullscreenenter"",""5"",""13660""
","
",354.31000002427027,NA,48,NA,NA,3000,1,NA,NA,images/earth.jpg,images/tutrocket2,images/tutrocket1,null,images/tutrocket2,NA,1,practice,null,2,NA,NA,NA,sub35
d3-animate-choice,104,493085,0.0-61.0-1.14,TRUE,TRUE,TRUE,TRUE,"""event"",""trial"",""time""
""fullscreenenter"",""5"",""13660""
","
","
","""event"",""trial"",""time""
""fullscreenenter"",""5"",""13660""
","
",3765.8949999604374,NA,48,NA,NA,3000,0,NA,NA,images/tutgreenplanet.jpg,images/tutalien2,images/tutalien1,images/tutrocket2,NA,NA,2,practice,false,2,rare,0,2020-06-15T14:49:48Z,sub35
two-step-fixation,105,494087,0.0-61.0-2.14,TRUE,TRUE,TRUE,TRUE,"""event"",""trial"",""time""
""fullscreenenter"",""5"",""13660""
","
","
","""event"",""trial"",""time""
""fullscreenenter"",""5"",""13660""
","
",NA,images/earth.jpg,NA,NA,NA,NA,NA,NA,NA,NA,NA,NA,NA,NA,NA,fixation,NA,NA,NA,NA,NA,NA,sub35
d3-animate-choice,106,496426,0.0-61.0-0.15,TRUE,TRUE,TRUE,TRUE,"""event"",""trial"",""time""
""fullscreenenter"",""5"",""13660""
","
","
","""event"",""trial"",""time""
""fullscreenenter"",""5"",""13660""
","
",336.3000000244938,NA,49,NA,NA,3000,1,NA,NA,images/earth.jpg,images/tutrocket2,images/tutrocket1,null,images/tutrocket1,NA,1,practice,null,1,NA,NA,NA,sub35
d3-animate-choice,107,499498,0.0-61.0-1.15,TRUE,TRUE,TRUE,TRUE,"""event"",""trial"",""time""
""fullscreenenter"",""5"",""13660""
","
","
","""event"",""trial"",""time""
""fullscreenenter"",""5"",""13660""
","
",1069.435000012163,NA,49,NA,NA,3000,1,NA,NA,images/tutgreenplanet.jpg,images/tutalien2,images/tutalien1,images/tutrocket1,images/tutalien1,images/nothing.png,2,practice,true,1,common,0,2020-06-15T14:49:55Z,sub35
two-step-fixation,108,500500,0.0-61.0-2.15,TRUE,TRUE,TRUE,TRUE,"""event"",""trial"",""time""
""fullscreenenter"",""5"",""13660""
","
","
","""event"",""trial"",""time""
""fullscreenenter"",""5"",""13660""
","
",NA,images/earth.jpg,NA,NA,NA,NA,NA,NA,NA,NA,NA,NA,NA,NA,NA,fixation,NA,NA,NA,NA,NA,NA,sub35
d3-animate-choice,109,502763,0.0-61.0-0.16,TRUE,TRUE,TRUE,TRUE,"""event"",""trial"",""time""
""fullscreenenter"",""5"",""13660""
","
","
","""event"",""trial"",""time""
""fullscreenenter"",""5"",""13660""
","
",259.26999998046085,NA,48,NA,NA,3000,1,NA,NA,images/earth.jpg,images/tutrocket2,images/tutrocket1,null,images/tutrocket2,NA,1,practice,null,2,NA,NA,NA,sub35
d3-animate-choice,110,505954,0.0-61.0-1.16,TRUE,TRUE,TRUE,TRUE,"""event"",""trial"",""time""
""fullscreenenter"",""5"",""13660""
","
","
","""event"",""trial"",""time""
""fullscreenenter"",""5"",""13660""
","
",1188.5150000452995,NA,49,NA,NA,3000,1,NA,NA,images/tutyellowplanet.jpg,images/tutalien4,images/tutalien3,images/tutrocket2,images/tutalien3,images/nothing.png,2,practice,true,1,common,0,2020-06-15T14:50:01Z,sub35
two-step-fixation,111,506956,0.0-61.0-2.16,TRUE,TRUE,TRUE,TRUE,"""event"",""trial"",""time""
""fullscreenenter"",""5"",""13660""
","
","
","""event"",""trial"",""time""
""fullscreenenter"",""5"",""13660""
","
",NA,images/earth.jpg,NA,NA,NA,NA,NA,NA,NA,NA,NA,NA,NA,NA,NA,fixation,NA,NA,NA,NA,NA,NA,sub35
d3-animate-choice,112,509299,0.0-61.0-0.17,TRUE,TRUE,TRUE,TRUE,"""event"",""trial"",""time""
""fullscreenenter"",""5"",""13660""
","
","
","""event"",""trial"",""time""
""fullscreenenter"",""5"",""13660""
","
",339.40500003518537,NA,48,NA,NA,3000,1,NA,NA,images/earth.jpg,images/tutrocket2,images/tutrocket1,null,images/tutrocket2,NA,1,practice,null,2,NA,NA,NA,sub35
d3-animate-choice,113,512050,0.0-61.0-1.17,TRUE,TRUE,TRUE,TRUE,"""event"",""trial"",""time""
""fullscreenenter"",""5"",""13660""
","
","
","""event"",""trial"",""time""
""fullscreenenter"",""5"",""13660""
","
",749.1699999663979,NA,48,NA,NA,3000,1,NA,NA,images/tutyellowplanet.jpg,images/tutalien4,images/tutalien3,images/tutrocket2,images/tutalien4,images/t.png,2,practice,true,2,common,1,2020-06-15T14:50:07Z,sub35
two-step-fixation,114,513053,0.0-61.0-2.17,TRUE,TRUE,TRUE,TRUE,"""event"",""trial"",""time""
""fullscreenenter"",""5"",""13660""
","
","
","""event"",""trial"",""time""
""fullscreenenter"",""5"",""13660""
","
",NA,images/earth.jpg,NA,NA,NA,NA,NA,NA,NA,NA,NA,NA,NA,NA,NA,fixation,NA,NA,NA,NA,NA,NA,sub35
d3-animate-choice,115,515362,0.0-61.0-0.18,TRUE,TRUE,TRUE,TRUE,"""event"",""trial"",""time""
""fullscreenenter"",""5"",""13660""
","
","
","""event"",""trial"",""time""
""fullscreenenter"",""5"",""13660""
","
",306.9799999939278,NA,48,NA,NA,3000,1,NA,NA,images/earth.jpg,images/tutrocket2,images/tutrocket1,null,images/tutrocket2,NA,1,practice,null,2,NA,NA,NA,sub35
d3-animate-choice,116,517786,0.0-61.0-1.18,TRUE,TRUE,TRUE,TRUE,"""event"",""trial"",""time""
""fullscreenenter"",""5"",""13660""
","
","
","""event"",""trial"",""time""
""fullscreenenter"",""5"",""13660""
","
",421.32500000298023,NA,48,NA,NA,3000,1,NA,NA,images/tutyellowplanet.jpg,images/tutalien4,images/tutalien3,images/tutrocket2,images/tutalien4,images/t.png,2,practice,true,2,common,1,2020-06-15T14:50:13Z,sub35
two-step-fixation,117,518788,0.0-61.0-2.18,TRUE,TRUE,TRUE,TRUE,"""event"",""trial"",""time""
""fullscreenenter"",""5"",""13660""
","
","
","""event"",""trial"",""time""
""fullscreenenter"",""5"",""13660""
","
",NA,images/earth.jpg,NA,NA,NA,NA,NA,NA,NA,NA,NA,NA,NA,NA,NA,fixation,NA,NA,NA,NA,NA,NA,sub35
d3-animate-choice,118,521187,0.0-61.0-0.19,TRUE,TRUE,TRUE,TRUE,"""event"",""trial"",""time""
""fullscreenenter"",""5"",""13660""
","
","
","""event"",""trial"",""time""
""fullscreenenter"",""5"",""13660""
","
",395.4500000108965,NA,48,NA,NA,3000,1,NA,NA,images/earth.jpg,images/tutrocket2,images/tutrocket1,null,images/tutrocket2,NA,1,practice,null,2,NA,NA,NA,sub35
d3-animate-choice,119,523873,0.0-61.0-1.19,TRUE,TRUE,TRUE,TRUE,"""event"",""trial"",""time""
""fullscreenenter"",""5"",""13660""
","
","
","""event"",""trial"",""time""
""fullscreenenter"",""5"",""13660""
","
",684.8649999592453,NA,48,NA,NA,3000,1,NA,NA,images/tutyellowplanet.jpg,images/tutalien4,images/tutalien3,images/tutrocket2,images/tutalien4,images/t.png,2,practice,true,2,common,1,2020-06-15T14:50:19Z,sub35
two-step-fixation,120,524877,0.0-61.0-2.19,TRUE,TRUE,TRUE,TRUE,"""event"",""trial"",""time""
""fullscreenenter"",""5"",""13660""
","
","
","""event"",""trial"",""time""
""fullscreenenter"",""5"",""13660""
","
",NA,images/earth.jpg,NA,NA,NA,NA,NA,NA,NA,NA,NA,NA,NA,NA,NA,fixation,NA,NA,NA,NA,NA,NA,sub35
d3-instructions,121,531985,0.0-62.0,TRUE,TRUE,TRUE,TRUE,"""event"",""trial"",""time""
""fullscreenenter"",""5"",""13660""
","
","
","""event"",""trial"",""time""
""fullscreenenter"",""5"",""13660""
","
",NA,NA,NA,NA,NA,NA,NA,NA,NA,NA,NA,NA,NA,NA,NA,NA,NA,NA,NA,NA,NA,NA,sub35
audio-keyboard-response,122,536601,0.0-63.0,TRUE,TRUE,TRUE,TRUE,"""event"",""trial"",""time""
""fullscreenenter"",""5"",""13660""
","
","
","""event"",""trial"",""time""
""fullscreenenter"",""5"",""13660""
","
",4619,audio/instructions/treasure_feedback.wav,32,NA,NA,NA,NA,NA,NA,NA,NA,NA,NA,NA,NA,NA,NA,NA,NA,NA,NA,NA,sub35
d3-instructions,123,557120,0.0-64.0,TRUE,TRUE,TRUE,TRUE,"""event"",""trial"",""time""
""fullscreenenter"",""5"",""13660""
","
","
","""event"",""trial"",""time""
""fullscreenenter"",""5"",""13660""
","
",NA,NA,NA,NA,NA,NA,NA,NA,NA,NA,NA,NA,NA,NA,NA,NA,NA,NA,NA,NA,NA,NA,sub35
d3-instructions,124,571160,0.0-65.0,TRUE,TRUE,TRUE,TRUE,"""event"",""trial"",""time""
""fullscreenenter"",""5"",""13660""
","
","
","""event"",""trial"",""time""
""fullscreenenter"",""5"",""13660""
","
",NA,NA,NA,NA,NA,NA,NA,NA,NA,NA,NA,NA,NA,NA,NA,NA,NA,NA,NA,NA,NA,NA,sub35
d3-instructions,125,596553,0.0-66.0,TRUE,TRUE,TRUE,TRUE,"""event"",""trial"",""time""
""fullscreenenter"",""5"",""13660""
","
","
","""event"",""trial"",""time""
""fullscreenenter"",""5"",""13660""
","
",NA,NA,NA,NA,NA,NA,NA,NA,NA,NA,NA,NA,NA,NA,NA,NA,NA,NA,NA,NA,NA,NA,sub35
d3-instructions,126,613929,0.0-67.0,TRUE,TRUE,TRUE,TRUE,"""event"",""trial"",""time""
""fullscreenenter"",""5"",""13660""
","
","
","""event"",""trial"",""time""
""fullscreenenter"",""5"",""13660""
","
",NA,NA,NA,NA,NA,NA,NA,NA,NA,NA,NA,NA,NA,NA,NA,NA,NA,NA,NA,NA,NA,NA,sub35
d3-instructions,127,622897,0.0-68.0,TRUE,TRUE,TRUE,TRUE,"""event"",""trial"",""time""
""fullscreenenter"",""5"",""13660""
","
","
","""event"",""trial"",""time""
""fullscreenenter"",""5"",""13660""
","
",NA,NA,NA,NA,NA,NA,NA,NA,NA,NA,NA,NA,NA,NA,NA,NA,NA,NA,NA,NA,NA,NA,sub35
instructions-quiz,128,626757,0.0-69.0,TRUE,TRUE,TRUE,TRUE,"""event"",""trial"",""time""
""fullscreenenter"",""5"",""13660""
","
","
","""event"",""trial"",""time""
""fullscreenenter"",""5"",""13660""
","
",3859.2400000197813,audio/quiz/Q1_Prompt.wav,NA,1,NA,NA,NA,NA,NA,NA,NA,NA,NA,NA,NA,NA,NA,NA,NA,NA,NA,NA,sub35
audio-keyboard-response,129,635927,0.0-70.0,TRUE,TRUE,TRUE,TRUE,"""event"",""trial"",""time""
""fullscreenenter"",""5"",""13660""
","
","
","""event"",""trial"",""time""
""fullscreenenter"",""5"",""13660""
","
",null,audio/quiz/Q1_Correct.wav,null,NA,NA,NA,NA,NA,NA,NA,NA,NA,NA,NA,NA,NA,NA,NA,NA,NA,NA,NA,sub35
instructions-quiz,130,645007,0.0-71.0,TRUE,TRUE,TRUE,TRUE,"""event"",""trial"",""time""
""fullscreenenter"",""5"",""13660""
","
","
","""event"",""trial"",""time""
""fullscreenenter"",""5"",""13660""
","
",9078.525000018999,audio/quiz/Q2_Prompt.wav,NA,0,NA,NA,NA,NA,NA,NA,NA,NA,NA,NA,NA,NA,NA,NA,NA,NA,NA,NA,sub35
audio-keyboard-response,131,657877,0.0-72.0,TRUE,TRUE,TRUE,TRUE,"""event"",""trial"",""time""
""fullscreenenter"",""5"",""13660""
","
","
","""event"",""trial"",""time""
""fullscreenenter"",""5"",""13660""
","
",null,audio/quiz/Q2_Correct.wav,null,NA,NA,NA,NA,NA,NA,NA,NA,NA,NA,NA,NA,NA,NA,NA,NA,NA,NA,NA,sub35
instructions-quiz,132,662113,0.0-73.0,TRUE,TRUE,TRUE,TRUE,"""event"",""trial"",""time""
""fullscreenenter"",""5"",""13660""
","
","
","""event"",""trial"",""time""
""fullscreenenter"",""5"",""13660""
","
",4234.484999964479,audio/quiz/Q3_Prompt.wav,NA,1,NA,NA,NA,NA,NA,NA,NA,NA,NA,NA,NA,NA,NA,NA,NA,NA,NA,NA,sub35
audio-keyboard-response,133,667907,0.0-74.0,TRUE,TRUE,TRUE,TRUE,"""event"",""trial"",""time""
""fullscreenenter"",""5"",""13660""
","
","
","""event"",""trial"",""time""
""fullscreenenter"",""5"",""13660""
","
",null,audio/quiz/Q3_Correct.wav,null,NA,NA,NA,NA,NA,NA,NA,NA,NA,NA,NA,NA,NA,NA,NA,NA,NA,NA,NA,sub35
d3-instructions,134,685304,0.0-75.0,TRUE,TRUE,TRUE,TRUE,"""event"",""trial"",""time""
""fullscreenenter"",""5"",""13660""
","
","
","""event"",""trial"",""time""
""fullscreenenter"",""5"",""13660""
","
",NA,NA,NA,NA,NA,NA,NA,NA,NA,NA,NA,NA,NA,NA,NA,NA,NA,NA,NA,NA,NA,NA,sub35
d3-animate-choice,135,688425,0.0-76.0-0.0,TRUE,TRUE,TRUE,TRUE,"""event"",""trial"",""time""
""fullscreenenter"",""5"",""13660""
","
","
","""event"",""trial"",""time""
""fullscreenenter"",""5"",""13660""
","
",1118.3949999976903,NA,48,NA,NA,3000,1,NA,NA,images/earth.jpg,images/rocket2,images/rocket1,null,images/rocket2,NA,1,real,null,2,NA,NA,NA,sub35
d3-animate-choice,136,691210,0.0-76.0-1.0,TRUE,TRUE,TRUE,TRUE,"""event"",""trial"",""time""
""fullscreenenter"",""5"",""13660""
","
","
","""event"",""trial"",""time""
""fullscreenenter"",""5"",""13660""
","
",781.6899999743327,NA,49,NA,NA,3000,1,NA,NA,images/redplanet1.jpg,images/alien2,images/alien1,images/rocket2,images/alien1,images/nothing.png,2,real,false,1,rare,0,2020-06-15T14:53:07Z,sub35
two-step-fixation,137,692213,0.0-76.0-2.0,TRUE,TRUE,TRUE,TRUE,"""event"",""trial"",""time""
""fullscreenenter"",""5"",""13660""
","
","
","""event"",""trial"",""time""
""fullscreenenter"",""5"",""13660""
","
",NA,images/earth.jpg,NA,NA,NA,NA,NA,NA,NA,NA,NA,NA,NA,NA,NA,fixation,NA,NA,NA,NA,NA,NA,sub35
d3-animate-choice,138,694913,0.0-76.0-0.1,TRUE,TRUE,TRUE,TRUE,"""event"",""trial"",""time""
""fullscreenenter"",""5"",""13660""
","
","
","""event"",""trial"",""time""
""fullscreenenter"",""5"",""13660""
","
",698.3999999938533,NA,49,NA,NA,3000,1,NA,NA,images/earth.jpg,images/rocket2,images/rocket1,null,images/rocket1,NA,1,real,null,1,NA,NA,NA,sub35
d3-animate-choice,139,698121,0.0-76.0-1.1,TRUE,TRUE,TRUE,TRUE,"""event"",""trial"",""time""
""fullscreenenter"",""5"",""13660""
","
","
","""event"",""trial"",""time""
""fullscreenenter"",""5"",""13660""
","
",1206.220000050962,NA,48,NA,NA,3000,1,NA,NA,images/redplanet1.jpg,images/alien2,images/alien1,images/rocket1,images/alien2,images/t.png,2,real,true,2,common,1,2020-06-15T14:53:14Z,sub35
two-step-fixation,140,699123,0.0-76.0-2.1,TRUE,TRUE,TRUE,TRUE,"""event"",""trial"",""time""
""fullscreenenter"",""5"",""13660""
","
","
","""event"",""trial"",""time""
""fullscreenenter"",""5"",""13660""
","
",NA,images/earth.jpg,NA,NA,NA,NA,NA,NA,NA,NA,NA,NA,NA,NA,NA,fixation,NA,NA,NA,NA,NA,NA,sub35
d3-animate-choice,141,701673,0.0-76.0-0.2,TRUE,TRUE,TRUE,TRUE,"""event"",""trial"",""time""
""fullscreenenter"",""5"",""13660""
","
","
","""event"",""trial"",""time""
""fullscreenenter"",""5"",""13660""
","
",547.5950000109151,NA,48,NA,NA,3000,1,NA,NA,images/earth.jpg,images/rocket2,images/rocket1,null,images/rocket2,NA,1,real,null,2,NA,NA,NA,sub35
d3-animate-choice,142,705129,0.0-76.0-1.2,TRUE,TRUE,TRUE,TRUE,"""event"",""trial"",""time""
""fullscreenenter"",""5"",""13660""
","
","
","""event"",""trial"",""time""
""fullscreenenter"",""5"",""13660""
","
",1453.8100000354461,NA,49,NA,NA,3000,1,NA,NA,images/purpleplanet.jpg,images/alien4,images/alien3,images/rocket2,images/alien3,images/nothing.png,2,real,true,1,common,0,2020-06-15T14:53:21Z,sub35
two-step-fixation,143,706131,0.0-76.0-2.2,TRUE,TRUE,TRUE,TRUE,"""event"",""trial"",""time""
""fullscreenenter"",""5"",""13660""
","
","
","""event"",""trial"",""time""
""fullscreenenter"",""5"",""13660""
","
",NA,images/earth.jpg,NA,NA,NA,NA,NA,NA,NA,NA,NA,NA,NA,NA,NA,fixation,NA,NA,NA,NA,NA,NA,sub35
d3-animate-choice,144,708817,0.0-76.0-0.3,TRUE,TRUE,TRUE,TRUE,"""event"",""trial"",""time""
""fullscreenenter"",""5"",""13660""
","
","
","""event"",""trial"",""time""
""fullscreenenter"",""5"",""13660""
","
",683.6949999560602,NA,49,NA,NA,3000,1,NA,NA,images/earth.jpg,images/rocket2,images/rocket1,null,images/rocket1,NA,1,real,null,1,NA,NA,NA,sub35
d3-animate-choice,145,711737,0.0-76.0-1.3,TRUE,TRUE,TRUE,TRUE,"""event"",""trial"",""time""
""fullscreenenter"",""5"",""13660""
","
","
","""event"",""trial"",""time""
""fullscreenenter"",""5"",""13660""
","
",917.8899999824353,NA,48,NA,NA,3000,1,NA,NA,images/purpleplanet.jpg,images/alien4,images/alien3,images/rocket1,images/alien4,images/t.png,2,real,false,2,rare,1,2020-06-15T14:53:27Z,sub35
two-step-fixation,146,712739,0.0-76.0-2.3,TRUE,TRUE,TRUE,TRUE,"""event"",""trial"",""time""
""fullscreenenter"",""5"",""13660""
","
","
","""event"",""trial"",""time""
""fullscreenenter"",""5"",""13660""
","
",NA,images/earth.jpg,NA,NA,NA,NA,NA,NA,NA,NA,NA,NA,NA,NA,NA,fixation,NA,NA,NA,NA,NA,NA,sub35
d3-animate-choice,147,715073,0.0-76.0-0.4,TRUE,TRUE,TRUE,TRUE,"""event"",""trial"",""time""
""fullscreenenter"",""5"",""13660""
","
","
","""event"",""trial"",""time""
""fullscreenenter"",""5"",""13660""
","
",331.3950000447221,NA,48,NA,NA,3000,1,NA,NA,images/earth.jpg,images/rocket2,images/rocket1,null,images/rocket2,NA,1,real,null,2,NA,NA,NA,sub35
d3-animate-choice,148,717578,0.0-76.0-1.4,TRUE,TRUE,TRUE,TRUE,"""event"",""trial"",""time""
""fullscreenenter"",""5"",""13660""
","
","
","""event"",""trial"",""time""
""fullscreenenter"",""5"",""13660""
","
",501.65000004926696,NA,48,NA,NA,3000,1,NA,NA,images/purpleplanet.jpg,images/alien4,images/alien3,images/rocket2,images/alien4,images/t.png,2,real,true,2,common,1,2020-06-15T14:53:33Z,sub35
two-step-fixation,149,718581,0.0-76.0-2.4,TRUE,TRUE,TRUE,TRUE,"""event"",""trial"",""time""
""fullscreenenter"",""5"",""13660""
","
","
","""event"",""trial"",""time""
""fullscreenenter"",""5"",""13660""
","
",NA,images/earth.jpg,NA,NA,NA,NA,NA,NA,NA,NA,NA,NA,NA,NA,NA,fixation,NA,NA,NA,NA,NA,NA,sub35
d3-animate-choice,150,721130,0.0-76.0-0.5,TRUE,TRUE,TRUE,TRUE,"""event"",""trial"",""time""
""fullscreenenter"",""5"",""13660""
","
","
","""event"",""trial"",""time""
""fullscreenenter"",""5"",""13660""
","
",545.9449999616481,NA,48,NA,NA,3000,1,NA,NA,images/earth.jpg,images/rocket2,images/rocket1,null,images/rocket2,NA,1,real,null,2,NA,NA,NA,sub35
d3-animate-choice,151,723873,0.0-76.0-1.5,TRUE,TRUE,TRUE,TRUE,"""event"",""trial"",""time""
""fullscreenenter"",""5"",""13660""
","
","
","""event"",""trial"",""time""
""fullscreenenter"",""5"",""13660""
","
",740.349999978207,NA,48,NA,NA,3000,1,NA,NA,images/purpleplanet.jpg,images/alien4,images/alien3,images/rocket2,images/alien4,images/t.png,2,real,true,2,common,1,2020-06-15T14:53:39Z,sub35
two-step-fixation,152,724876,0.0-76.0-2.5,TRUE,TRUE,TRUE,TRUE,"""event"",""trial"",""time""
""fullscreenenter"",""5"",""13660""
","
","
","""event"",""trial"",""time""
""fullscreenenter"",""5"",""13660""
","
",NA,images/earth.jpg,NA,NA,NA,NA,NA,NA,NA,NA,NA,NA,NA,NA,NA,fixation,NA,NA,NA,NA,NA,NA,sub35
d3-animate-choice,153,727226,0.0-76.0-0.6,TRUE,TRUE,TRUE,TRUE,"""event"",""trial"",""time""
""fullscreenenter"",""5"",""13660""
","
","
","""event"",""trial"",""time""
""fullscreenenter"",""5"",""13660""
","
",346.07000002870336,NA,49,NA,NA,3000,1,NA,NA,images/earth.jpg,images/rocket2,images/rocket1,null,images/rocket1,NA,1,real,null,1,NA,NA,NA,sub35
d3-animate-choice,154,729746,0.0-76.0-1.6,TRUE,TRUE,TRUE,TRUE,"""event"",""trial"",""time""
""fullscreenenter"",""5"",""13660""
","
","
","""event"",""trial"",""time""
""fullscreenenter"",""5"",""13660""
","
",516.6999999783002,NA,48,NA,NA,3000,1,NA,NA,images/purpleplanet.jpg,images/alien4,images/alien3,images/rocket1,images/alien4,images/t.png,2,real,false,2,rare,1,2020-06-15T14:53:45Z,sub35
two-step-fixation,155,730749,0.0-76.0-2.6,TRUE,TRUE,TRUE,TRUE,"""event"",""trial"",""time""
""fullscreenenter"",""5"",""13660""
","
","
","""event"",""trial"",""time""
""fullscreenenter"",""5"",""13660""
","
",NA,images/earth.jpg,NA,NA,NA,NA,NA,NA,NA,NA,NA,NA,NA,NA,NA,fixation,NA,NA,NA,NA,NA,NA,sub35
d3-animate-choice,156,733056,0.0-76.0-0.7,TRUE,TRUE,TRUE,TRUE,"""event"",""trial"",""time""
""fullscreenenter"",""5"",""13660""
","
","
","""event"",""trial"",""time""
""fullscreenenter"",""5"",""13660""
","
",305.8500000042841,NA,48,NA,NA,3000,1,NA,NA,images/earth.jpg,images/rocket2,images/rocket1,null,images/rocket2,NA,1,real,null,2,NA,NA,NA,sub35
d3-animate-choice,157,735545,0.0-76.0-1.7,TRUE,TRUE,TRUE,TRUE,"""event"",""trial"",""time""
""fullscreenenter"",""5"",""13660""
","
","
","""event"",""trial"",""time""
""fullscreenenter"",""5"",""13660""
","
",486.0299999709241,NA,48,NA,NA,3000,1,NA,NA,images/redplanet1.jpg,images/alien2,images/alien1,images/rocket2,images/alien2,images/nothing.png,2,real,false,2,rare,0,2020-06-15T14:53:51Z,sub35
two-step-fixation,158,736547,0.0-76.0-2.7,TRUE,TRUE,TRUE,TRUE,"""event"",""trial"",""time""
""fullscreenenter"",""5"",""13660""
","
","
","""event"",""trial"",""time""
""fullscreenenter"",""5"",""13660""
","
",NA,images/earth.jpg,NA,NA,NA,NA,NA,NA,NA,NA,NA,NA,NA,NA,NA,fixation,NA,NA,NA,NA,NA,NA,sub35
d3-animate-choice,159,738929,0.0-76.0-0.8,TRUE,TRUE,TRUE,TRUE,"""event"",""trial"",""time""
""fullscreenenter"",""5"",""13660""
","
","
","""event"",""trial"",""time""
""fullscreenenter"",""5"",""13660""
","
",379.1049999999814,NA,49,NA,NA,3000,1,NA,NA,images/earth.jpg,images/rocket2,images/rocket1,null,images/rocket1,NA,1,real,null,1,NA,NA,NA,sub35
d3-animate-choice,160,741256,0.0-76.0-1.8,TRUE,TRUE,TRUE,TRUE,"""event"",""trial"",""time""
""fullscreenenter"",""5"",""13660""
","
","
","""event"",""trial"",""time""
""fullscreenenter"",""5"",""13660""
","
",325.85000002291054,NA,48,NA,NA,3000,1,NA,NA,images/redplanet1.jpg,images/alien2,images/alien1,images/rocket1,images/alien2,images/t.png,2,real,true,2,common,1,2020-06-15T14:53:57Z,sub35
two-step-fixation,161,742258,0.0-76.0-2.8,TRUE,TRUE,TRUE,TRUE,"""event"",""trial"",""time""
""fullscreenenter"",""5"",""13660""
","
","
","""event"",""trial"",""time""
""fullscreenenter"",""5"",""13660""
","
",NA,images/earth.jpg,NA,NA,NA,NA,NA,NA,NA,NA,NA,NA,NA,NA,NA,fixation,NA,NA,NA,NA,NA,NA,sub35
d3-animate-choice,162,744721,0.0-76.0-0.9,TRUE,TRUE,TRUE,TRUE,"""event"",""trial"",""time""
""fullscreenenter"",""5"",""13660""
","
","
","""event"",""trial"",""time""
""fullscreenenter"",""5"",""13660""
","
",459.9049999960698,NA,49,NA,NA,3000,1,NA,NA,images/earth.jpg,images/rocket2,images/rocket1,null,images/rocket1,NA,1,real,null,1,NA,NA,NA,sub35
d3-animate-choice,163,747080,0.0-76.0-1.9,TRUE,TRUE,TRUE,TRUE,"""event"",""trial"",""time""
""fullscreenenter"",""5"",""13660""
","
","
","""event"",""trial"",""time""
""fullscreenenter"",""5"",""13660""
","
",357.56500001298264,NA,48,NA,NA,3000,1,NA,NA,images/redplanet1.jpg,images/alien2,images/alien1,images/rocket1,images/alien2,images/t.png,2,real,true,2,common,1,2020-06-15T14:54:02Z,sub35
two-step-fixation,164,748083,0.0-76.0-2.9,TRUE,TRUE,TRUE,TRUE,"""event"",""trial"",""time""
""fullscreenenter"",""5"",""13660""
","
","
","""event"",""trial"",""time""
""fullscreenenter"",""5"",""13660""
","
",NA,images/earth.jpg,NA,NA,NA,NA,NA,NA,NA,NA,NA,NA,NA,NA,NA,fixation,NA,NA,NA,NA,NA,NA,sub35
d3-animate-choice,165,750520,0.0-76.0-0.10,TRUE,TRUE,TRUE,TRUE,"""event"",""trial"",""time""
""fullscreenenter"",""5"",""13660""
","
","
","""event"",""trial"",""time""
""fullscreenenter"",""5"",""13660""
","
",435.82000001333654,NA,48,NA,NA,3000,1,NA,NA,images/earth.jpg,images/rocket2,images/rocket1,null,images/rocket2,NA,1,real,null,2,NA,NA,NA,sub35
d3-animate-choice,166,752929,0.0-76.0-1.10,TRUE,TRUE,TRUE,TRUE,"""event"",""trial"",""time""
""fullscreenenter"",""5"",""13660""
","
","
","""event"",""trial"",""time""
""fullscreenenter"",""5"",""13660""
","
",406.105000001844,NA,48,NA,NA,3000,1,NA,NA,images/purpleplanet.jpg,images/alien4,images/alien3,images/rocket2,images/alien4,images/nothing.png,2,real,true,2,common,0,2020-06-15T14:54:08Z,sub35
two-step-fixation,167,753932,0.0-76.0-2.10,TRUE,TRUE,TRUE,TRUE,"""event"",""trial"",""time""
""fullscreenenter"",""5"",""13660""
","
","
","""event"",""trial"",""time""
""fullscreenenter"",""5"",""13660""
","
",NA,images/earth.jpg,NA,NA,NA,NA,NA,NA,NA,NA,NA,NA,NA,NA,NA,fixation,NA,NA,NA,NA,NA,NA,sub35
d3-animate-choice,168,756289,0.0-76.0-0.11,TRUE,TRUE,TRUE,TRUE,"""event"",""trial"",""time""
""fullscreenenter"",""5"",""13660""
","
","
","""event"",""trial"",""time""
""fullscreenenter"",""5"",""13660""
","
",354.4800000381656,NA,49,NA,NA,3000,1,NA,NA,images/earth.jpg,images/rocket2,images/rocket1,null,images/rocket1,NA,1,real,null,1,NA,NA,NA,sub35
d3-animate-choice,169,758753,0.0-76.0-1.11,TRUE,TRUE,TRUE,TRUE,"""event"",""trial"",""time""
""fullscreenenter"",""5"",""13660""
","
","
","""event"",""trial"",""time""
""fullscreenenter"",""5"",""13660""
","
",461.6050000186078,NA,48,NA,NA,3000,1,NA,NA,images/redplanet1.jpg,images/alien2,images/alien1,images/rocket1,images/alien2,images/t.png,2,real,true,2,common,1,2020-06-15T14:54:14Z,sub35
two-step-fixation,170,759755,0.0-76.0-2.11,TRUE,TRUE,TRUE,TRUE,"""event"",""trial"",""time""
""fullscreenenter"",""5"",""13660""
","
","
","""event"",""trial"",""time""
""fullscreenenter"",""5"",""13660""
","
",NA,images/earth.jpg,NA,NA,NA,NA,NA,NA,NA,NA,NA,NA,NA,NA,NA,fixation,NA,NA,NA,NA,NA,NA,sub35
d3-animate-choice,171,762160,0.0-76.0-0.12,TRUE,TRUE,TRUE,TRUE,"""event"",""trial"",""time""
""fullscreenenter"",""5"",""13660""
","
","
","""event"",""trial"",""time""
""fullscreenenter"",""5"",""13660""
","
",402.9549999977462,NA,49,NA,NA,3000,1,NA,NA,images/earth.jpg,images/rocket2,images/rocket1,null,images/rocket1,NA,1,real,null,1,NA,NA,NA,sub35
d3-animate-choice,172,764681,0.0-76.0-1.12,TRUE,TRUE,TRUE,TRUE,"""event"",""trial"",""time""
""fullscreenenter"",""5"",""13660""
","
","
","""event"",""trial"",""time""
""fullscreenenter"",""5"",""13660""
","
",518.0149999796413,NA,48,NA,NA,3000,1,NA,NA,images/purpleplanet.jpg,images/alien4,images/alien3,images/rocket1,images/alien4,images/t.png,2,real,false,2,rare,1,2020-06-15T14:54:20Z,sub35
two-step-fixation,173,765683,0.0-76.0-2.12,TRUE,TRUE,TRUE,TRUE,"""event"",""trial"",""time""
""fullscreenenter"",""5"",""13660""
","
","
","""event"",""trial"",""time""
""fullscreenenter"",""5"",""13660""
","
",NA,images/earth.jpg,NA,NA,NA,NA,NA,NA,NA,NA,NA,NA,NA,NA,NA,fixation,NA,NA,NA,NA,NA,NA,sub35
d3-animate-choice,174,768016,0.0-76.0-0.13,TRUE,TRUE,TRUE,TRUE,"""event"",""trial"",""time""
""fullscreenenter"",""5"",""13660""
","
","
","""event"",""trial"",""time""
""fullscreenenter"",""5"",""13660""
","
",331.37999998871237,NA,49,NA,NA,3000,1,NA,NA,images/earth.jpg,images/rocket2,images/rocket1,null,images/rocket1,NA,1,real,null,1,NA,NA,NA,sub35
d3-animate-choice,175,770400,0.0-76.0-1.13,TRUE,TRUE,TRUE,TRUE,"""event"",""trial"",""time""
""fullscreenenter"",""5"",""13660""
","
","
","""event"",""trial"",""time""
""fullscreenenter"",""5"",""13660""
","
",381.95499998982996,NA,48,NA,NA,3000,1,NA,NA,images/redplanet1.jpg,images/alien2,images/alien1,images/rocket1,images/alien2,images/nothing.png,2,real,true,2,common,0,2020-06-15T14:54:26Z,sub35
two-step-fixation,176,771403,0.0-76.0-2.13,TRUE,TRUE,TRUE,TRUE,"""event"",""trial"",""time""
""fullscreenenter"",""5"",""13660""
","
","
","""event"",""trial"",""time""
""fullscreenenter"",""5"",""13660""
","
",NA,images/earth.jpg,NA,NA,NA,NA,NA,NA,NA,NA,NA,NA,NA,NA,NA,fixation,NA,NA,NA,NA,NA,NA,sub35
d3-animate-choice,177,773713,0.0-76.0-0.14,TRUE,TRUE,TRUE,TRUE,"""event"",""trial"",""time""
""fullscreenenter"",""5"",""13660""
","
","
","""event"",""trial"",""time""
""fullscreenenter"",""5"",""13660""
","
",307.4849999975413,NA,48,NA,NA,3000,1,NA,NA,images/earth.jpg,images/rocket2,images/rocket1,null,images/rocket2,NA,1,real,null,2,NA,NA,NA,sub35
d3-animate-choice,178,776056,0.0-76.0-1.14,TRUE,TRUE,TRUE,TRUE,"""event"",""trial"",""time""
""fullscreenenter"",""5"",""13660""
","
","
","""event"",""trial"",""time""
""fullscreenenter"",""5"",""13660""
","
",341.54499997384846,NA,48,NA,NA,3000,1,NA,NA,images/purpleplanet.jpg,images/alien4,images/alien3,images/rocket2,images/alien4,images/t.png,2,real,true,2,common,1,2020-06-15T14:54:31Z,sub35
two-step-fixation,179,777058,0.0-76.0-2.14,TRUE,TRUE,TRUE,TRUE,"""event"",""trial"",""time""
""fullscreenenter"",""5"",""13660""
","
","
","""event"",""trial"",""time""
""fullscreenenter"",""5"",""13660""
","
",NA,images/earth.jpg,NA,NA,NA,NA,NA,NA,NA,NA,NA,NA,NA,NA,NA,fixation,NA,NA,NA,NA,NA,NA,sub35
d3-animate-choice,180,779665,0.0-76.0-0.15,TRUE,TRUE,TRUE,TRUE,"""event"",""trial"",""time""
""fullscreenenter"",""5"",""13660""
","
","
","""event"",""trial"",""time""
""fullscreenenter"",""5"",""13660""
","
",604.349999979604,NA,49,NA,NA,3000,1,NA,NA,images/earth.jpg,images/rocket2,images/rocket1,null,images/rocket1,NA,1,real,null,1,NA,NA,NA,sub35
d3-animate-choice,181,782130,0.0-76.0-1.15,TRUE,TRUE,TRUE,TRUE,"""event"",""trial"",""time""
""fullscreenenter"",""5"",""13660""
","
","
","""event"",""trial"",""time""
""fullscreenenter"",""5"",""13660""
","
",461.46000002045184,NA,48,NA,NA,3000,1,NA,NA,images/redplanet1.jpg,images/alien2,images/alien1,images/rocket1,images/alien2,images/t.png,2,real,true,2,common,1,2020-06-15T14:54:38Z,sub35
two-step-fixation,182,783132,0.0-76.0-2.15,TRUE,TRUE,TRUE,TRUE,"""event"",""trial"",""time""
""fullscreenenter"",""5"",""13660""
","
","
","""event"",""trial"",""time""
""fullscreenenter"",""5"",""13660""
","
",NA,images/earth.jpg,NA,NA,NA,NA,NA,NA,NA,NA,NA,NA,NA,NA,NA,fixation,NA,NA,NA,NA,NA,NA,sub35
d3-animate-choice,183,785625,0.0-76.0-0.16,TRUE,TRUE,TRUE,TRUE,"""event"",""trial"",""time""
""fullscreenenter"",""5"",""13660""
","
","
","""event"",""trial"",""time""
""fullscreenenter"",""5"",""13660""
","
",490.2800000272691,NA,48,NA,NA,3000,1,NA,NA,images/earth.jpg,images/rocket2,images/rocket1,null,images/rocket2,NA,1,real,null,2,NA,NA,NA,sub35
d3-animate-choice,184,788017,0.0-76.0-1.16,TRUE,TRUE,TRUE,TRUE,"""event"",""trial"",""time""
""fullscreenenter"",""5"",""13660""
","
","
","""event"",""trial"",""time""
""fullscreenenter"",""5"",""13660""
","
",389.22499999171123,NA,48,NA,NA,3000,1,NA,NA,images/purpleplanet.jpg,images/alien4,images/alien3,images/rocket2,images/alien4,images/t.png,2,real,true,2,common,1,2020-06-15T14:54:43Z,sub35
two-step-fixation,185,789021,0.0-76.0-2.16,TRUE,TRUE,TRUE,TRUE,"""event"",""trial"",""time""
""fullscreenenter"",""5"",""13660""
","
","
","""event"",""trial"",""time""
""fullscreenenter"",""5"",""13660""
","
",NA,images/earth.jpg,NA,NA,NA,NA,NA,NA,NA,NA,NA,NA,NA,NA,NA,fixation,NA,NA,NA,NA,NA,NA,sub35
d3-animate-choice,186,791385,0.0-76.0-0.17,TRUE,TRUE,TRUE,TRUE,"""event"",""trial"",""time""
""fullscreenenter"",""5"",""13660""
","
","
","""event"",""trial"",""time""
""fullscreenenter"",""5"",""13660""
","
",361.8849999620579,NA,49,NA,NA,3000,1,NA,NA,images/earth.jpg,images/rocket2,images/rocket1,null,images/rocket1,NA,1,real,null,1,NA,NA,NA,sub35
d3-animate-choice,187,793817,0.0-76.0-1.17,TRUE,TRUE,TRUE,TRUE,"""event"",""trial"",""time""
""fullscreenenter"",""5"",""13660""
","
","
","""event"",""trial"",""time""
""fullscreenenter"",""5"",""13660""
","
",429.64499996742234,NA,48,NA,NA,3000,1,NA,NA,images/redplanet1.jpg,images/alien2,images/alien1,images/rocket1,images/alien2,images/nothing.png,2,real,true,2,common,0,2020-06-15T14:54:49Z,sub35
two-step-fixation,188,794819,0.0-76.0-2.17,TRUE,TRUE,TRUE,TRUE,"""event"",""trial"",""time""
""fullscreenenter"",""5"",""13660""
","
","
","""event"",""trial"",""time""
""fullscreenenter"",""5"",""13660""
","
",NA,images/earth.jpg,NA,NA,NA,NA,NA,NA,NA,NA,NA,NA,NA,NA,NA,fixation,NA,NA,NA,NA,NA,NA,sub35
d3-animate-choice,189,797193,0.0-76.0-0.18,TRUE,TRUE,TRUE,TRUE,"""event"",""trial"",""time""
""fullscreenenter"",""5"",""13660""
","
","
","""event"",""trial"",""time""
""fullscreenenter"",""5"",""13660""
","
",371.9099999871105,NA,48,NA,NA,3000,1,NA,NA,images/earth.jpg,images/rocket2,images/rocket1,null,images/rocket2,NA,1,real,null,2,NA,NA,NA,sub35
d3-animate-choice,190,799577,0.0-76.0-1.18,TRUE,TRUE,TRUE,TRUE,"""event"",""trial"",""time""
""fullscreenenter"",""5"",""13660""
","
","
","""event"",""trial"",""time""
""fullscreenenter"",""5"",""13660""
","
",381.8350000074133,NA,48,NA,NA,3000,1,NA,NA,images/purpleplanet.jpg,images/alien4,images/alien3,images/rocket2,images/alien4,images/t.png,2,real,true,2,common,1,2020-06-15T14:54:55Z,sub35
two-step-fixation,191,800579,0.0-76.0-2.18,TRUE,TRUE,TRUE,TRUE,"""event"",""trial"",""time""
""fullscreenenter"",""5"",""13660""
","
","
","""event"",""trial"",""time""
""fullscreenenter"",""5"",""13660""
","
",NA,images/earth.jpg,NA,NA,NA,NA,NA,NA,NA,NA,NA,NA,NA,NA,NA,fixation,NA,NA,NA,NA,NA,NA,sub35
d3-animate-choice,192,803000,0.0-76.0-0.19,TRUE,TRUE,TRUE,TRUE,"""event"",""trial"",""time""
""fullscreenenter"",""5"",""13660""
","
","
","""event"",""trial"",""time""
""fullscreenenter"",""5"",""13660""
","
",419.5400000317022,NA,49,NA,NA,3000,1,NA,NA,images/earth.jpg,images/rocket2,images/rocket1,null,images/rocket1,NA,1,real,null,1,NA,NA,NA,sub35
d3-animate-choice,193,805408,0.0-76.0-1.19,TRUE,TRUE,TRUE,TRUE,"""event"",""trial"",""time""
""fullscreenenter"",""5"",""13660""
","
","
","""event"",""trial"",""time""
""fullscreenenter"",""5"",""13660""
","
",405.7999999495223,NA,48,NA,NA,3000,1,NA,NA,images/redplanet1.jpg,images/alien2,images/alien1,images/rocket1,images/alien2,images/t.png,2,real,true,2,common,1,2020-06-15T14:55:01Z,sub35
two-step-fixation,194,806410,0.0-76.0-2.19,TRUE,TRUE,TRUE,TRUE,"""event"",""trial"",""time""
""fullscreenenter"",""5"",""13660""
","
","
","""event"",""trial"",""time""
""fullscreenenter"",""5"",""13660""
","
",NA,images/earth.jpg,NA,NA,NA,NA,NA,NA,NA,NA,NA,NA,NA,NA,NA,fixation,NA,NA,NA,NA,NA,NA,sub35
d3-animate-choice,195,808745,0.0-76.0-0.20,TRUE,TRUE,TRUE,TRUE,"""event"",""trial"",""time""
""fullscreenenter"",""5"",""13660""
","
","
","""event"",""trial"",""time""
""fullscreenenter"",""5"",""13660""
","
",332.3300000047311,NA,49,NA,NA,3000,1,NA,NA,images/earth.jpg,images/rocket2,images/rocket1,null,images/rocket1,NA,1,real,null,1,NA,NA,NA,sub35
d3-animate-choice,196,811144,0.0-76.0-1.20,TRUE,TRUE,TRUE,TRUE,"""event"",""trial"",""time""
""fullscreenenter"",""5"",""13660""
","
","
","""event"",""trial"",""time""
""fullscreenenter"",""5"",""13660""
","
",397.95500005129725,NA,48,NA,NA,3000,1,NA,NA,images/purpleplanet.jpg,images/alien4,images/alien3,images/rocket1,images/alien4,images/nothing.png,2,real,false,2,rare,0,2020-06-15T14:55:07Z,sub35
two-step-fixation,197,812147,0.0-76.0-2.20,TRUE,TRUE,TRUE,TRUE,"""event"",""trial"",""time""
""fullscreenenter"",""5"",""13660""
","
","
","""event"",""trial"",""time""
""fullscreenenter"",""5"",""13660""
","
",NA,images/earth.jpg,NA,NA,NA,NA,NA,NA,NA,NA,NA,NA,NA,NA,NA,fixation,NA,NA,NA,NA,NA,NA,sub35
d3-animate-choice,198,814465,0.0-76.0-0.21,TRUE,TRUE,TRUE,TRUE,"""event"",""trial"",""time""
""fullscreenenter"",""5"",""13660""
","
","
","""event"",""trial"",""time""
""fullscreenenter"",""5"",""13660""
","
",315.61500002862886,NA,49,NA,NA,3000,1,NA,NA,images/earth.jpg,images/rocket2,images/rocket1,null,images/rocket1,NA,1,real,null,1,NA,NA,NA,sub35
d3-animate-choice,199,816953,0.0-76.0-1.21,TRUE,TRUE,TRUE,TRUE,"""event"",""trial"",""time""
""fullscreenenter"",""5"",""13660""
","
","
","""event"",""trial"",""time""
""fullscreenenter"",""5"",""13660""
","
",485.5799999786541,NA,48,NA,NA,3000,1,NA,NA,images/redplanet1.jpg,images/alien2,images/alien1,images/rocket1,images/alien2,images/t.png,2,real,true,2,common,1,2020-06-15T14:55:12Z,sub35
two-step-fixation,200,817955,0.0-76.0-2.21,TRUE,TRUE,TRUE,TRUE,"""event"",""trial"",""time""
""fullscreenenter"",""5"",""13660""
","
","
","""event"",""trial"",""time""
""fullscreenenter"",""5"",""13660""
","
",NA,images/earth.jpg,NA,NA,NA,NA,NA,NA,NA,NA,NA,NA,NA,NA,NA,fixation,NA,NA,NA,NA,NA,NA,sub35
d3-animate-choice,201,820320,0.0-76.0-0.22,TRUE,TRUE,TRUE,TRUE,"""event"",""trial"",""time""
""fullscreenenter"",""5"",""13660""
","
","
","""event"",""trial"",""time""
""fullscreenenter"",""5"",""13660""
","
",363.599999982398,NA,49,NA,NA,3000,1,NA,NA,images/earth.jpg,images/rocket2,images/rocket1,null,images/rocket1,NA,1,real,null,1,NA,NA,NA,sub35
d3-animate-choice,202,822769,0.0-76.0-1.22,TRUE,TRUE,TRUE,TRUE,"""event"",""trial"",""time""
""fullscreenenter"",""5"",""13660""
","
","
","""event"",""trial"",""time""
""fullscreenenter"",""5"",""13660""
","
",446.2150000035763,NA,48,NA,NA,3000,1,NA,NA,images/redplanet1.jpg,images/alien2,images/alien1,images/rocket1,images/alien2,images/t.png,2,real,true,2,common,1,2020-06-15T14:55:18Z,sub35
two-step-fixation,203,823771,0.0-76.0-2.22,TRUE,TRUE,TRUE,TRUE,"""event"",""trial"",""time""
""fullscreenenter"",""5"",""13660""
","
","
","""event"",""trial"",""time""
""fullscreenenter"",""5"",""13660""
","
",NA,images/earth.jpg,NA,NA,NA,NA,NA,NA,NA,NA,NA,NA,NA,NA,NA,fixation,NA,NA,NA,NA,NA,NA,sub35
d3-animate-choice,204,825808,0.0-76.0-0.23,TRUE,TRUE,TRUE,TRUE,"""event"",""trial"",""time""
""fullscreenenter"",""5"",""13660""
","
","
","""event"",""trial"",""time""
""fullscreenenter"",""5"",""13660""
","
",35.69499996956438,NA,49,NA,NA,3000,1,NA,NA,images/earth.jpg,images/rocket2,images/rocket1,null,images/rocket1,NA,1,real,null,1,NA,NA,NA,sub35
d3-animate-choice,205,828368,0.0-76.0-1.23,TRUE,TRUE,TRUE,TRUE,"""event"",""trial"",""time""
""fullscreenenter"",""5"",""13660""
","
","
","""event"",""trial"",""time""
""fullscreenenter"",""5"",""13660""
","
",558.1799999927171,NA,48,NA,NA,3000,1,NA,NA,images/redplanet1.jpg,images/alien2,images/alien1,images/rocket1,images/alien2,images/t.png,2,real,true,2,common,1,2020-06-15T14:55:24Z,sub35
two-step-fixation,206,829371,0.0-76.0-2.23,TRUE,TRUE,TRUE,TRUE,"""event"",""trial"",""time""
""fullscreenenter"",""5"",""13660""
","
","
","""event"",""trial"",""time""
""fullscreenenter"",""5"",""13660""
","
",NA,images/earth.jpg,NA,NA,NA,NA,NA,NA,NA,NA,NA,NA,NA,NA,NA,fixation,NA,NA,NA,NA,NA,NA,sub35
d3-animate-choice,207,831719,0.0-76.0-0.24,TRUE,TRUE,TRUE,TRUE,"""event"",""trial"",""time""
""fullscreenenter"",""5"",""13660""
","
","
","""event"",""trial"",""time""
""fullscreenenter"",""5"",""13660""
","
",347.27500000735745,NA,49,NA,NA,3000,1,NA,NA,images/earth.jpg,images/rocket2,images/rocket1,null,images/rocket1,NA,1,real,null,1,NA,NA,NA,sub35
d3-animate-choice,208,834128,0.0-76.0-1.24,TRUE,TRUE,TRUE,TRUE,"""event"",""trial"",""time""
""fullscreenenter"",""5"",""13660""
","
","
","""event"",""trial"",""time""
""fullscreenenter"",""5"",""13660""
","
",406.3200000091456,NA,48,NA,NA,3000,1,NA,NA,images/redplanet1.jpg,images/alien2,images/alien1,images/rocket1,images/alien2,images/t.png,2,real,true,2,common,1,2020-06-15T14:55:30Z,sub35
two-step-fixation,209,835130,0.0-76.0-2.24,TRUE,TRUE,TRUE,TRUE,"""event"",""trial"",""time""
""fullscreenenter"",""5"",""13660""
","
","
","""event"",""trial"",""time""
""fullscreenenter"",""5"",""13660""
","
",NA,images/earth.jpg,NA,NA,NA,NA,NA,NA,NA,NA,NA,NA,NA,NA,NA,fixation,NA,NA,NA,NA,NA,NA,sub35
d3-animate-choice,210,837455,0.0-76.0-0.25,TRUE,TRUE,TRUE,TRUE,"""event"",""trial"",""time""
""fullscreenenter"",""5"",""13660""
","
","
","""event"",""trial"",""time""
""fullscreenenter"",""5"",""13660""
","
",323.59500002348796,NA,49,NA,NA,3000,1,NA,NA,images/earth.jpg,images/rocket2,images/rocket1,null,images/rocket1,NA,1,real,null,1,NA,NA,NA,sub35
d3-animate-choice,211,839760,0.0-76.0-1.25,TRUE,TRUE,TRUE,TRUE,"""event"",""trial"",""time""
""fullscreenenter"",""5"",""13660""
","
","
","""event"",""trial"",""time""
""fullscreenenter"",""5"",""13660""
","
",302.0750000141561,NA,48,NA,NA,3000,1,NA,NA,images/purpleplanet.jpg,images/alien4,images/alien3,images/rocket1,images/alien4,images/t.png,2,real,false,2,rare,1,2020-06-15T14:55:35Z,sub35
two-step-fixation,212,840762,0.0-76.0-2.25,TRUE,TRUE,TRUE,TRUE,"""event"",""trial"",""time""
""fullscreenenter"",""5"",""13660""
","
","
","""event"",""trial"",""time""
""fullscreenenter"",""5"",""13660""
","
",NA,images/earth.jpg,NA,NA,NA,NA,NA,NA,NA,NA,NA,NA,NA,NA,NA,fixation,NA,NA,NA,NA,NA,NA,sub35
d3-animate-choice,213,843279,0.0-76.0-0.26,TRUE,TRUE,TRUE,TRUE,"""event"",""trial"",""time""
""fullscreenenter"",""5"",""13660""
","
","
","""event"",""trial"",""time""
""fullscreenenter"",""5"",""13660""
","
",515.1199999963865,NA,49,NA,NA,3000,1,NA,NA,images/earth.jpg,images/rocket2,images/rocket1,null,images/rocket1,NA,1,real,null,1,NA,NA,NA,sub35
d3-animate-choice,214,845769,0.0-76.0-1.26,TRUE,TRUE,TRUE,TRUE,"""event"",""trial"",""time""
""fullscreenenter"",""5"",""13660""
","
","
","""event"",""trial"",""time""
""fullscreenenter"",""5"",""13660""
","
",486.3449999829754,NA,48,NA,NA,3000,1,NA,NA,images/redplanet1.jpg,images/alien2,images/alien1,images/rocket1,images/alien2,images/t.png,2,real,true,2,common,1,2020-06-15T14:55:41Z,sub35
two-step-fixation,215,846771,0.0-76.0-2.26,TRUE,TRUE,TRUE,TRUE,"""event"",""trial"",""time""
""fullscreenenter"",""5"",""13660""
","
","
","""event"",""trial"",""time""
""fullscreenenter"",""5"",""13660""
","
",NA,images/earth.jpg,NA,NA,NA,NA,NA,NA,NA,NA,NA,NA,NA,NA,NA,fixation,NA,NA,NA,NA,NA,NA,sub35
d3-animate-choice,216,849088,0.0-76.0-0.27,TRUE,TRUE,TRUE,TRUE,"""event"",""trial"",""time""
""fullscreenenter"",""5"",""13660""
","
","
","""event"",""trial"",""time""
""fullscreenenter"",""5"",""13660""
","
",314.12999995518476,NA,49,NA,NA,3000,1,NA,NA,images/earth.jpg,images/rocket2,images/rocket1,null,images/rocket1,NA,1,real,null,1,NA,NA,NA,sub35
d3-animate-choice,217,851536,0.0-76.0-1.27,TRUE,TRUE,TRUE,TRUE,"""event"",""trial"",""time""
""fullscreenenter"",""5"",""13660""
","
","
","""event"",""trial"",""time""
""fullscreenenter"",""5"",""13660""
","
",445.19999995827675,NA,48,NA,NA,3000,1,NA,NA,images/redplanet1.jpg,images/alien2,images/alien1,images/rocket1,images/alien2,images/t.png,2,real,true,2,common,1,2020-06-15T14:55:47Z,sub35
two-step-fixation,218,852538,0.0-76.0-2.27,TRUE,TRUE,TRUE,TRUE,"""event"",""trial"",""time""
""fullscreenenter"",""5"",""13660""
","
","
","""event"",""trial"",""time""
""fullscreenenter"",""5"",""13660""
","
",NA,images/earth.jpg,NA,NA,NA,NA,NA,NA,NA,NA,NA,NA,NA,NA,NA,fixation,NA,NA,NA,NA,NA,NA,sub35
d3-animate-choice,219,854840,0.0-76.0-0.28,TRUE,TRUE,TRUE,TRUE,"""event"",""trial"",""time""
""fullscreenenter"",""5"",""13660""
","
","
","""event"",""trial"",""time""
""fullscreenenter"",""5"",""13660""
","
",299.27000001771376,NA,49,NA,NA,3000,1,NA,NA,images/earth.jpg,images/rocket2,images/rocket1,null,images/rocket1,NA,1,real,null,1,NA,NA,NA,sub35
d3-animate-choice,220,857240,0.0-76.0-1.28,TRUE,TRUE,TRUE,TRUE,"""event"",""trial"",""time""
""fullscreenenter"",""5"",""13660""
","
","
","""event"",""trial"",""time""
""fullscreenenter"",""5"",""13660""
","
",397.59499998763204,NA,48,NA,NA,3000,1,NA,NA,images/redplanet1.jpg,images/alien2,images/alien1,images/rocket1,images/alien2,images/t.png,2,real,true,2,common,1,2020-06-15T14:55:53Z,sub35
two-step-fixation,221,858242,0.0-76.0-2.28,TRUE,TRUE,TRUE,TRUE,"""event"",""trial"",""time""
""fullscreenenter"",""5"",""13660""
","
","
","""event"",""trial"",""time""
""fullscreenenter"",""5"",""13660""
","
",NA,images/earth.jpg,NA,NA,NA,NA,NA,NA,NA,NA,NA,NA,NA,NA,NA,fixation,NA,NA,NA,NA,NA,NA,sub35
d3-animate-choice,222,860728,0.0-76.0-0.29,TRUE,TRUE,TRUE,TRUE,"""event"",""trial"",""time""
""fullscreenenter"",""5"",""13660""
","
","
","""event"",""trial"",""time""
""fullscreenenter"",""5"",""13660""
","
",483.55999996419996,NA,49,NA,NA,3000,1,NA,NA,images/earth.jpg,images/rocket2,images/rocket1,null,images/rocket1,NA,1,real,null,1,NA,NA,NA,sub35
d3-animate-choice,223,863088,0.0-76.0-1.29,TRUE,TRUE,TRUE,TRUE,"""event"",""trial"",""time""
""fullscreenenter"",""5"",""13660""
","
","
","""event"",""trial"",""time""
""fullscreenenter"",""5"",""13660""
","
",357.56000003311783,NA,48,NA,NA,3000,1,NA,NA,images/redplanet1.jpg,images/alien2,images/alien1,images/rocket1,images/alien2,images/nothing.png,2,real,true,2,common,0,2020-06-15T14:55:58Z,sub35
two-step-fixation,224,864090,0.0-76.0-2.29,TRUE,TRUE,TRUE,TRUE,"""event"",""trial"",""time""
""fullscreenenter"",""5"",""13660""
","
","
","""event"",""trial"",""time""
""fullscreenenter"",""5"",""13660""
","
",NA,images/earth.jpg,NA,NA,NA,NA,NA,NA,NA,NA,NA,NA,NA,NA,NA,fixation,NA,NA,NA,NA,NA,NA,sub35
d3-animate-choice,225,866408,0.0-76.0-0.30,TRUE,TRUE,TRUE,TRUE,"""event"",""trial"",""time""
""fullscreenenter"",""5"",""13660""
","
","
","""event"",""trial"",""time""
""fullscreenenter"",""5"",""13660""
","
",315.4699999722652,NA,49,NA,NA,3000,1,NA,NA,images/earth.jpg,images/rocket2,images/rocket1,null,images/rocket1,NA,1,real,null,1,NA,NA,NA,sub35
d3-animate-choice,226,868736,0.0-76.0-1.30,TRUE,TRUE,TRUE,TRUE,"""event"",""trial"",""time""
""fullscreenenter"",""5"",""13660""
","
","
","""event"",""trial"",""time""
""fullscreenenter"",""5"",""13660""
","
",325.8549999445677,NA,48,NA,NA,3000,1,NA,NA,images/redplanet1.jpg,images/alien2,images/alien1,images/rocket1,images/alien2,images/t.png,2,real,true,2,common,1,2020-06-15T14:56:04Z,sub35
two-step-fixation,227,869738,0.0-76.0-2.30,TRUE,TRUE,TRUE,TRUE,"""event"",""trial"",""time""
""fullscreenenter"",""5"",""13660""
","
","
","""event"",""trial"",""time""
""fullscreenenter"",""5"",""13660""
","
",NA,images/earth.jpg,NA,NA,NA,NA,NA,NA,NA,NA,NA,NA,NA,NA,NA,fixation,NA,NA,NA,NA,NA,NA,sub35
d3-animate-choice,228,872103,0.0-76.0-0.31,TRUE,TRUE,TRUE,TRUE,"""event"",""trial"",""time""
""fullscreenenter"",""5"",""13660""
","
","
","""event"",""trial"",""time""
""fullscreenenter"",""5"",""13660""
","
",363.60000004060566,NA,49,NA,NA,3000,1,NA,NA,images/earth.jpg,images/rocket2,images/rocket1,null,images/rocket1,NA,1,real,null,1,NA,NA,NA,sub35
d3-animate-choice,229,874528,0.0-76.0-1.31,TRUE,TRUE,TRUE,TRUE,"""event"",""trial"",""time""
""fullscreenenter"",""5"",""13660""
","
","
","""event"",""trial"",""time""
""fullscreenenter"",""5"",""13660""
","
",422.03000001609325,NA,48,NA,NA,3000,1,NA,NA,images/redplanet1.jpg,images/alien2,images/alien1,images/rocket1,images/alien2,images/t.png,2,real,true,2,common,1,2020-06-15T14:56:10Z,sub35
two-step-fixation,230,875531,0.0-76.0-2.31,TRUE,TRUE,TRUE,TRUE,"""event"",""trial"",""time""
""fullscreenenter"",""5"",""13660""
","
","
","""event"",""trial"",""time""
""fullscreenenter"",""5"",""13660""
","
",NA,images/earth.jpg,NA,NA,NA,NA,NA,NA,NA,NA,NA,NA,NA,NA,NA,fixation,NA,NA,NA,NA,NA,NA,sub35
d3-animate-choice,231,877864,0.0-76.0-0.32,TRUE,TRUE,TRUE,TRUE,"""event"",""trial"",""time""
""fullscreenenter"",""5"",""13660""
","
","
","""event"",""trial"",""time""
""fullscreenenter"",""5"",""13660""
","
",330.6299999821931,NA,49,NA,NA,3000,1,NA,NA,images/earth.jpg,images/rocket2,images/rocket1,null,images/rocket1,NA,1,real,null,1,NA,NA,NA,sub35
d3-animate-choice,232,880207,0.0-76.0-1.32,TRUE,TRUE,TRUE,TRUE,"""event"",""trial"",""time""
""fullscreenenter"",""5"",""13660""
","
","
","""event"",""trial"",""time""
""fullscreenenter"",""5"",""13660""
","
",341.34500002255663,NA,48,NA,NA,3000,1,NA,NA,images/redplanet1.jpg,images/alien2,images/alien1,images/rocket1,images/alien2,images/t.png,2,real,true,2,common,1,2020-06-15T14:56:16Z,sub35
two-step-fixation,233,881209,0.0-76.0-2.32,TRUE,TRUE,TRUE,TRUE,"""event"",""trial"",""time""
""fullscreenenter"",""5"",""13660""
","
","
","""event"",""trial"",""time""
""fullscreenenter"",""5"",""13660""
","
",NA,images/earth.jpg,NA,NA,NA,NA,NA,NA,NA,NA,NA,NA,NA,NA,NA,fixation,NA,NA,NA,NA,NA,NA,sub35
d3-animate-choice,234,883599,0.0-76.0-0.33,TRUE,TRUE,TRUE,TRUE,"""event"",""trial"",""time""
""fullscreenenter"",""5"",""13660""
","
","
","""event"",""trial"",""time""
""fullscreenenter"",""5"",""13660""
","
",388.00500001525506,NA,49,NA,NA,3000,1,NA,NA,images/earth.jpg,images/rocket2,images/rocket1,null,images/rocket1,NA,1,real,null,1,NA,NA,NA,sub35
d3-animate-choice,235,885992,0.0-76.0-1.33,TRUE,TRUE,TRUE,TRUE,"""event"",""trial"",""time""
""fullscreenenter"",""5"",""13660""
","
","
","""event"",""trial"",""time""
""fullscreenenter"",""5"",""13660""
","
",390.00499999383464,NA,48,NA,NA,3000,1,NA,NA,images/redplanet1.jpg,images/alien2,images/alien1,images/rocket1,images/alien2,images/t.png,2,real,true,2,common,1,2020-06-15T14:56:21Z,sub35
two-step-fixation,236,886994,0.0-76.0-2.33,TRUE,TRUE,TRUE,TRUE,"""event"",""trial"",""time""
""fullscreenenter"",""5"",""13660""
","
","
","""event"",""trial"",""time""
""fullscreenenter"",""5"",""13660""
","
",NA,images/earth.jpg,NA,NA,NA,NA,NA,NA,NA,NA,NA,NA,NA,NA,NA,fixation,NA,NA,NA,NA,NA,NA,sub35
d3-animate-choice,237,889376,0.0-76.0-0.34,TRUE,TRUE,TRUE,TRUE,"""event"",""trial"",""time""
""fullscreenenter"",""5"",""13660""
","
","
","""event"",""trial"",""time""
""fullscreenenter"",""5"",""13660""
","
",378.85999999707565,NA,49,NA,NA,3000,1,NA,NA,images/earth.jpg,images/rocket2,images/rocket1,null,images/rocket1,NA,1,real,null,1,NA,NA,NA,sub35
d3-animate-choice,238,891760,0.0-76.0-1.34,TRUE,TRUE,TRUE,TRUE,"""event"",""trial"",""time""
""fullscreenenter"",""5"",""13660""
","
","
","""event"",""trial"",""time""
""fullscreenenter"",""5"",""13660""
","
",382.004999963101,NA,48,NA,NA,3000,1,NA,NA,images/redplanet1.jpg,images/alien2,images/alien1,images/rocket1,images/alien2,images/nothing.png,2,real,true,2,common,0,2020-06-15T14:56:27Z,sub35
two-step-fixation,239,892762,0.0-76.0-2.34,TRUE,TRUE,TRUE,TRUE,"""event"",""trial"",""time""
""fullscreenenter"",""5"",""13660""
","
","
","""event"",""trial"",""time""
""fullscreenenter"",""5"",""13660""
","
",NA,images/earth.jpg,NA,NA,NA,NA,NA,NA,NA,NA,NA,NA,NA,NA,NA,fixation,NA,NA,NA,NA,NA,NA,sub35
d3-animate-choice,240,895145,0.0-76.0-0.35,TRUE,TRUE,TRUE,TRUE,"""event"",""trial"",""time""
""fullscreenenter"",""5"",""13660""
","
","
","""event"",""trial"",""time""
""fullscreenenter"",""5"",""13660""
","
",379.6100000035949,NA,49,NA,NA,3000,1,NA,NA,images/earth.jpg,images/rocket2,images/rocket1,null,images/rocket1,NA,1,real,null,1,NA,NA,NA,sub35
d3-animate-choice,241,897592,0.0-76.0-1.35,TRUE,TRUE,TRUE,TRUE,"""event"",""trial"",""time""
""fullscreenenter"",""5"",""13660""
","
","
","""event"",""trial"",""time""
""fullscreenenter"",""5"",""13660""
","
",445.25499996962026,NA,48,NA,NA,3000,1,NA,NA,images/redplanet1.jpg,images/alien2,images/alien1,images/rocket1,images/alien2,images/nothing.png,2,real,true,2,common,0,2020-06-15T14:56:33Z,sub35
two-step-fixation,242,898594,0.0-76.0-2.35,TRUE,TRUE,TRUE,TRUE,"""event"",""trial"",""time""
""fullscreenenter"",""5"",""13660""
","
","
","""event"",""trial"",""time""
""fullscreenenter"",""5"",""13660""
","
",NA,images/earth.jpg,NA,NA,NA,NA,NA,NA,NA,NA,NA,NA,NA,NA,NA,fixation,NA,NA,NA,NA,NA,NA,sub35
d3-animate-choice,243,900936,0.0-76.0-0.36,TRUE,TRUE,TRUE,TRUE,"""event"",""trial"",""time""
""fullscreenenter"",""5"",""13660""
","
","
","""event"",""trial"",""time""
""fullscreenenter"",""5"",""13660""
","
",339.77500000037253,NA,49,NA,NA,3000,1,NA,NA,images/earth.jpg,images/rocket2,images/rocket1,null,images/rocket1,NA,1,real,null,1,NA,NA,NA,sub35
d3-animate-choice,244,903423,0.0-76.0-1.36,TRUE,TRUE,TRUE,TRUE,"""event"",""trial"",""time""
""fullscreenenter"",""5"",""13660""
","
","
","""event"",""trial"",""time""
""fullscreenenter"",""5"",""13660""
","
",485.6549999676645,NA,48,NA,NA,3000,1,NA,NA,images/purpleplanet.jpg,images/alien4,images/alien3,images/rocket1,images/alien4,images/t.png,2,real,false,2,rare,1,2020-06-15T14:56:39Z,sub35
two-step-fixation,245,904425,0.0-76.0-2.36,TRUE,TRUE,TRUE,TRUE,"""event"",""trial"",""time""
""fullscreenenter"",""5"",""13660""
","
","
","""event"",""trial"",""time""
""fullscreenenter"",""5"",""13660""
","
",NA,images/earth.jpg,NA,NA,NA,NA,NA,NA,NA,NA,NA,NA,NA,NA,NA,fixation,NA,NA,NA,NA,NA,NA,sub35
d3-animate-choice,246,906784,0.0-76.0-0.37,TRUE,TRUE,TRUE,TRUE,"""event"",""trial"",""time""
""fullscreenenter"",""5"",""13660""
","
","
","""event"",""trial"",""time""
""fullscreenenter"",""5"",""13660""
","
",356.2099999981001,NA,48,NA,NA,3000,1,NA,NA,images/earth.jpg,images/rocket2,images/rocket1,null,images/rocket2,NA,1,real,null,2,NA,NA,NA,sub35
d3-animate-choice,247,909144,0.0-76.0-1.37,TRUE,TRUE,TRUE,TRUE,"""event"",""trial"",""time""
""fullscreenenter"",""5"",""13660""
","
","
","""event"",""trial"",""time""
""fullscreenenter"",""5"",""13660""
","
",357.68499999539927,NA,48,NA,NA,3000,1,NA,NA,images/purpleplanet.jpg,images/alien4,images/alien3,images/rocket2,images/alien4,images/t.png,2,real,true,2,common,1,2020-06-15T14:56:45Z,sub35
two-step-fixation,248,910147,0.0-76.0-2.37,TRUE,TRUE,TRUE,TRUE,"""event"",""trial"",""time""
""fullscreenenter"",""5"",""13660""
","
","
","""event"",""trial"",""time""
""fullscreenenter"",""5"",""13660""
","
",NA,images/earth.jpg,NA,NA,NA,NA,NA,NA,NA,NA,NA,NA,NA,NA,NA,fixation,NA,NA,NA,NA,NA,NA,sub35
d3-animate-choice,249,912424,0.0-76.0-0.38,TRUE,TRUE,TRUE,TRUE,"""event"",""trial"",""time""
""fullscreenenter"",""5"",""13660""
","
","
","""event"",""trial"",""time""
""fullscreenenter"",""5"",""13660""
","
",274.8549999669194,NA,48,NA,NA,3000,1,NA,NA,images/earth.jpg,images/rocket2,images/rocket1,null,images/rocket2,NA,1,real,null,2,NA,NA,NA,sub35
d3-animate-choice,250,914856,0.0-76.0-1.38,TRUE,TRUE,TRUE,TRUE,"""event"",""trial"",""time""
""fullscreenenter"",""5"",""13660""
","
","
","""event"",""trial"",""time""
""fullscreenenter"",""5"",""13660""
","
",430.2499999757856,NA,48,NA,NA,3000,1,NA,NA,images/purpleplanet.jpg,images/alien4,images/alien3,images/rocket2,images/alien4,images/nothing.png,2,real,true,2,common,0,2020-06-15T14:56:50Z,sub35
two-step-fixation,251,915858,0.0-76.0-2.38,TRUE,TRUE,TRUE,TRUE,"""event"",""trial"",""time""
""fullscreenenter"",""5"",""13660""
","
","
","""event"",""trial"",""time""
""fullscreenenter"",""5"",""13660""
","
",NA,images/earth.jpg,NA,NA,NA,NA,NA,NA,NA,NA,NA,NA,NA,NA,NA,fixation,NA,NA,NA,NA,NA,NA,sub35
d3-animate-choice,252,918184,0.0-76.0-0.39,TRUE,TRUE,TRUE,TRUE,"""event"",""trial"",""time""
""fullscreenenter"",""5"",""13660""
","
","
","""event"",""trial"",""time""
""fullscreenenter"",""5"",""13660""
","
",323.6649999744259,NA,48,NA,NA,3000,1,NA,NA,images/earth.jpg,images/rocket2,images/rocket1,null,images/rocket2,NA,1,real,null,2,NA,NA,NA,sub35
d3-animate-choice,253,920552,0.0-76.0-1.39,TRUE,TRUE,TRUE,TRUE,"""event"",""trial"",""time""
""fullscreenenter"",""5"",""13660""
","
","
","""event"",""trial"",""time""
""fullscreenenter"",""5"",""13660""
","
",365.5600000056438,NA,49,NA,NA,3000,1,NA,NA,images/redplanet1.jpg,images/alien2,images/alien1,images/rocket2,images/alien1,images/t.png,2,real,false,1,rare,1,2020-06-15T14:56:56Z,sub35
two-step-fixation,254,921553,0.0-76.0-2.39,TRUE,TRUE,TRUE,TRUE,"""event"",""trial"",""time""
""fullscreenenter"",""5"",""13660""
","
","
","""event"",""trial"",""time""
""fullscreenenter"",""5"",""13660""
","
",NA,images/earth.jpg,NA,NA,NA,NA,NA,NA,NA,NA,NA,NA,NA,NA,NA,fixation,NA,NA,NA,NA,NA,NA,sub35
d3-animate-choice,255,923864,0.0-76.0-0.40,TRUE,TRUE,TRUE,TRUE,"""event"",""trial"",""time""
""fullscreenenter"",""5"",""13660""
","
","
","""event"",""trial"",""time""
""fullscreenenter"",""5"",""13660""
","
",308.2900000154041,NA,49,NA,NA,3000,1,NA,NA,images/earth.jpg,images/rocket2,images/rocket1,null,images/rocket1,NA,1,real,null,1,NA,NA,NA,sub35
d3-animate-choice,256,926216,0.0-76.0-1.40,TRUE,TRUE,TRUE,TRUE,"""event"",""trial"",""time""
""fullscreenenter"",""5"",""13660""
","
","
","""event"",""trial"",""time""
""fullscreenenter"",""5"",""13660""
","
",349.39499996835366,NA,49,NA,NA,3000,1,NA,NA,images/redplanet1.jpg,images/alien2,images/alien1,images/rocket1,images/alien1,images/t.png,2,real,true,1,common,1,2020-06-15T14:57:02Z,sub35
two-step-fixation,257,927219,0.0-76.0-2.40,TRUE,TRUE,TRUE,TRUE,"""event"",""trial"",""time""
""fullscreenenter"",""5"",""13660""
","
","
","""event"",""trial"",""time""
""fullscreenenter"",""5"",""13660""
","
",NA,images/earth.jpg,NA,NA,NA,NA,NA,NA,NA,NA,NA,NA,NA,NA,NA,fixation,NA,NA,NA,NA,NA,NA,sub35
d3-animate-choice,258,929568,0.0-76.0-0.41,TRUE,TRUE,TRUE,TRUE,"""event"",""trial"",""time""
""fullscreenenter"",""5"",""13660""
","
","
","""event"",""trial"",""time""
""fullscreenenter"",""5"",""13660""
","
",347.01999998651445,NA,49,NA,NA,3000,1,NA,NA,images/earth.jpg,images/rocket2,images/rocket1,null,images/rocket1,NA,1,real,null,1,NA,NA,NA,sub35
d3-animate-choice,259,931953,0.0-76.0-1.41,TRUE,TRUE,TRUE,TRUE,"""event"",""trial"",""time""
""fullscreenenter"",""5"",""13660""
","
","
","""event"",""trial"",""time""
""fullscreenenter"",""5"",""13660""
","
",381.8650000030175,NA,49,NA,NA,3000,1,NA,NA,images/redplanet1.jpg,images/alien2,images/alien1,images/rocket1,images/alien1,images/t.png,2,real,true,1,common,1,2020-06-15T14:57:07Z,sub35
two-step-fixation,260,932956,0.0-76.0-2.41,TRUE,TRUE,TRUE,TRUE,"""event"",""trial"",""time""
""fullscreenenter"",""5"",""13660""
","
","
","""event"",""trial"",""time""
""fullscreenenter"",""5"",""13660""
","
",NA,images/earth.jpg,NA,NA,NA,NA,NA,NA,NA,NA,NA,NA,NA,NA,NA,fixation,NA,NA,NA,NA,NA,NA,sub35
d3-animate-choice,261,935376,0.0-76.0-0.42,TRUE,TRUE,TRUE,TRUE,"""event"",""trial"",""time""
""fullscreenenter"",""5"",""13660""
","
","
","""event"",""trial"",""time""
""fullscreenenter"",""5"",""13660""
","
",418.03000000072643,NA,49,NA,NA,3000,1,NA,NA,images/earth.jpg,images/rocket2,images/rocket1,null,images/rocket1,NA,1,real,null,1,NA,NA,NA,sub35
d3-animate-choice,262,937760,0.0-76.0-1.42,TRUE,TRUE,TRUE,TRUE,"""event"",""trial"",""time""
""fullscreenenter"",""5"",""13660""
","
","
","""event"",""trial"",""time""
""fullscreenenter"",""5"",""13660""
","
",381.8899999605492,NA,49,NA,NA,3000,1,NA,NA,images/purpleplanet.jpg,images/alien4,images/alien3,images/rocket1,images/alien3,images/nothing.png,2,real,false,1,rare,0,2020-06-15T14:57:13Z,sub35
two-step-fixation,263,938763,0.0-76.0-2.42,TRUE,TRUE,TRUE,TRUE,"""event"",""trial"",""time""
""fullscreenenter"",""5"",""13660""
","
","
","""event"",""trial"",""time""
""fullscreenenter"",""5"",""13660""
","
",NA,images/earth.jpg,NA,NA,NA,NA,NA,NA,NA,NA,NA,NA,NA,NA,NA,fixation,NA,NA,NA,NA,NA,NA,sub35
d3-animate-choice,264,940897,0.0-76.0-0.43,TRUE,TRUE,TRUE,TRUE,"""event"",""trial"",""time""
""fullscreenenter"",""5"",""13660""
","
","
","""event"",""trial"",""time""
""fullscreenenter"",""5"",""13660""
","
",130.9400000027381,NA,49,NA,NA,3000,1,NA,NA,images/earth.jpg,images/rocket2,images/rocket1,null,images/rocket1,NA,1,real,null,1,NA,NA,NA,sub35
d3-animate-choice,265,943672,0.0-76.0-1.43,TRUE,TRUE,TRUE,TRUE,"""event"",""trial"",""time""
""fullscreenenter"",""5"",""13660""
","
","
","""event"",""trial"",""time""
""fullscreenenter"",""5"",""13660""
","
",772.1850000089034,NA,48,NA,NA,3000,1,NA,NA,images/purpleplanet.jpg,images/alien4,images/alien3,images/rocket1,images/alien4,images/t.png,2,real,false,2,rare,1,2020-06-15T14:57:19Z,sub35
two-step-fixation,266,944674,0.0-76.0-2.43,TRUE,TRUE,TRUE,TRUE,"""event"",""trial"",""time""
""fullscreenenter"",""5"",""13660""
","
","
","""event"",""trial"",""time""
""fullscreenenter"",""5"",""13660""
","
",NA,images/earth.jpg,NA,NA,NA,NA,NA,NA,NA,NA,NA,NA,NA,NA,NA,fixation,NA,NA,NA,NA,NA,NA,sub35
d3-animate-choice,267,947023,0.0-76.0-0.44,TRUE,TRUE,TRUE,TRUE,"""event"",""trial"",""time""
""fullscreenenter"",""5"",""13660""
","
","
","""event"",""trial"",""time""
""fullscreenenter"",""5"",""13660""
","
",347.40000002784654,NA,49,NA,NA,3000,1,NA,NA,images/earth.jpg,images/rocket2,images/rocket1,null,images/rocket1,NA,1,real,null,1,NA,NA,NA,sub35
d3-animate-choice,268,949512,0.0-76.0-1.44,TRUE,TRUE,TRUE,TRUE,"""event"",""trial"",""time""
""fullscreenenter"",""5"",""13660""
","
","
","""event"",""trial"",""time""
""fullscreenenter"",""5"",""13660""
","
",486.220000020694,NA,49,NA,NA,3000,1,NA,NA,images/redplanet1.jpg,images/alien2,images/alien1,images/rocket1,images/alien1,images/t.png,2,real,true,1,common,1,2020-06-15T14:57:25Z,sub35
two-step-fixation,269,950515,0.0-76.0-2.44,TRUE,TRUE,TRUE,TRUE,"""event"",""trial"",""time""
""fullscreenenter"",""5"",""13660""
","
","
","""event"",""trial"",""time""
""fullscreenenter"",""5"",""13660""
","
",NA,images/earth.jpg,NA,NA,NA,NA,NA,NA,NA,NA,NA,NA,NA,NA,NA,fixation,NA,NA,NA,NA,NA,NA,sub35
d3-animate-choice,270,953752,0.0-76.0-0.45,TRUE,TRUE,TRUE,TRUE,"""event"",""trial"",""time""
""fullscreenenter"",""5"",""13660""
","
","
","""event"",""trial"",""time""
""fullscreenenter"",""5"",""13660""
","
",1233.9350000256673,NA,49,NA,NA,3000,1,NA,NA,images/earth.jpg,images/rocket2,images/rocket1,null,images/rocket1,NA,1,real,null,1,NA,NA,NA,sub35
d3-animate-choice,271,956521,0.0-76.0-1.45,TRUE,TRUE,TRUE,TRUE,"""event"",""trial"",""time""
""fullscreenenter"",""5"",""13660""
","
","
","""event"",""trial"",""time""
""fullscreenenter"",""5"",""13660""
","
",765.5999999842606,NA,49,NA,NA,3000,1,NA,NA,images/redplanet1.jpg,images/alien2,images/alien1,images/rocket1,images/alien1,images/t.png,2,real,true,1,common,1,2020-06-15T14:57:32Z,sub35
two-step-fixation,272,957523,0.0-76.0-2.45,TRUE,TRUE,TRUE,TRUE,"""event"",""trial"",""time""
""fullscreenenter"",""5"",""13660""
","
","
","""event"",""trial"",""time""
""fullscreenenter"",""5"",""13660""
","
",NA,images/earth.jpg,NA,NA,NA,NA,NA,NA,NA,NA,NA,NA,NA,NA,NA,fixation,NA,NA,NA,NA,NA,NA,sub35
d3-animate-choice,273,959872,0.0-76.0-0.46,TRUE,TRUE,TRUE,TRUE,"""event"",""trial"",""time""
""fullscreenenter"",""5"",""13660""
","
","
","""event"",""trial"",""time""
""fullscreenenter"",""5"",""13660""
","
",346.04499995475635,NA,49,NA,NA,3000,1,NA,NA,images/earth.jpg,images/rocket2,images/rocket1,null,images/rocket1,NA,1,real,null,1,NA,NA,NA,sub35
d3-animate-choice,274,962384,0.0-76.0-1.46,TRUE,TRUE,TRUE,TRUE,"""event"",""trial"",""time""
""fullscreenenter"",""5"",""13660""
","
","
","""event"",""trial"",""time""
""fullscreenenter"",""5"",""13660""
","
",508.7799999746494,NA,49,NA,NA,3000,1,NA,NA,images/redplanet1.jpg,images/alien2,images/alien1,images/rocket1,images/alien1,images/t.png,2,real,true,1,common,1,2020-06-15T14:57:38Z,sub35
two-step-fixation,275,963387,0.0-76.0-2.46,TRUE,TRUE,TRUE,TRUE,"""event"",""trial"",""time""
""fullscreenenter"",""5"",""13660""
","
","
","""event"",""trial"",""time""
""fullscreenenter"",""5"",""13660""
","
",NA,images/earth.jpg,NA,NA,NA,NA,NA,NA,NA,NA,NA,NA,NA,NA,NA,fixation,NA,NA,NA,NA,NA,NA,sub35
d3-animate-choice,276,965735,0.0-76.0-0.47,TRUE,TRUE,TRUE,TRUE,"""event"",""trial"",""time""
""fullscreenenter"",""5"",""13660""
","
","
","""event"",""trial"",""time""
""fullscreenenter"",""5"",""13660""
","
",346.6699999989942,NA,49,NA,NA,3000,1,NA,NA,images/earth.jpg,images/rocket2,images/rocket1,null,images/rocket1,NA,1,real,null,1,NA,NA,NA,sub35
d3-animate-choice,277,968568,0.0-76.0-1.47,TRUE,TRUE,TRUE,TRUE,"""event"",""trial"",""time""
""fullscreenenter"",""5"",""13660""
","
","
","""event"",""trial"",""time""
""fullscreenenter"",""5"",""13660""
","
",829.2699999874458,NA,49,NA,NA,3000,1,NA,NA,images/redplanet1.jpg,images/alien2,images/alien1,images/rocket1,images/alien1,images/nothing.png,2,real,true,1,common,0,2020-06-15T14:57:44Z,sub35
two-step-fixation,278,969571,0.0-76.0-2.47,TRUE,TRUE,TRUE,TRUE,"""event"",""trial"",""time""
""fullscreenenter"",""5"",""13660""
","
","
","""event"",""trial"",""time""
""fullscreenenter"",""5"",""13660""
","
",NA,images/earth.jpg,NA,NA,NA,NA,NA,NA,NA,NA,NA,NA,NA,NA,NA,fixation,NA,NA,NA,NA,NA,NA,sub35
d3-animate-choice,279,971904,0.0-76.0-0.48,TRUE,TRUE,TRUE,TRUE,"""event"",""trial"",""time""
""fullscreenenter"",""5"",""13660""
","
","
","""event"",""trial"",""time""
""fullscreenenter"",""5"",""13660""
","
",330.6349999620579,NA,49,NA,NA,3000,1,NA,NA,images/earth.jpg,images/rocket2,images/rocket1,null,images/rocket1,NA,1,real,null,1,NA,NA,NA,sub35
d3-animate-choice,280,974360,0.0-76.0-1.48,TRUE,TRUE,TRUE,TRUE,"""event"",""trial"",""time""
""fullscreenenter"",""5"",""13660""
","
","
","""event"",""trial"",""time""
""fullscreenenter"",""5"",""13660""
","
",452.51499995356426,NA,49,NA,NA,3000,1,NA,NA,images/redplanet1.jpg,images/alien2,images/alien1,images/rocket1,images/alien1,images/t.png,2,real,true,1,common,1,2020-06-15T14:57:50Z,sub35
two-step-fixation,281,975362,0.0-76.0-2.48,TRUE,TRUE,TRUE,TRUE,"""event"",""trial"",""time""
""fullscreenenter"",""5"",""13660""
","
","
","""event"",""trial"",""time""
""fullscreenenter"",""5"",""13660""
","
",NA,images/earth.jpg,NA,NA,NA,NA,NA,NA,NA,NA,NA,NA,NA,NA,NA,fixation,NA,NA,NA,NA,NA,NA,sub35
d3-animate-choice,282,977896,0.0-76.0-0.49,TRUE,TRUE,TRUE,TRUE,"""event"",""trial"",""time""
""fullscreenenter"",""5"",""13660""
","
","
","""event"",""trial"",""time""
""fullscreenenter"",""5"",""13660""
","
",531.055000028573,NA,49,NA,NA,3000,1,NA,NA,images/earth.jpg,images/rocket2,images/rocket1,null,images/rocket1,NA,1,real,null,1,NA,NA,NA,sub35
d3-animate-choice,283,980832,0.0-76.0-1.49,TRUE,TRUE,TRUE,TRUE,"""event"",""trial"",""time""
""fullscreenenter"",""5"",""13660""
","
","
","""event"",""trial"",""time""
""fullscreenenter"",""5"",""13660""
","
",933.6350000230595,NA,48,NA,NA,3000,1,NA,NA,images/purpleplanet.jpg,images/alien4,images/alien3,images/rocket1,images/alien4,images/nothing.png,2,real,false,2,rare,0,2020-06-15T14:57:56Z,sub35
two-step-fixation,284,981834,0.0-76.0-2.49,TRUE,TRUE,TRUE,TRUE,"""event"",""trial"",""time""
""fullscreenenter"",""5"",""13660""
","
","
","""event"",""trial"",""time""
""fullscreenenter"",""5"",""13660""
","
",NA,images/earth.jpg,NA,NA,NA,NA,NA,NA,NA,NA,NA,NA,NA,NA,NA,fixation,NA,NA,NA,NA,NA,NA,sub35
audio-button-response-2,285,994971,0.0-77.0,TRUE,TRUE,TRUE,TRUE,"""event"",""trial"",""time""
""fullscreenenter"",""5"",""13660""
","
","
","""event"",""trial"",""time""
""fullscreenenter"",""5"",""13660""
","
