trial_type,trial_index,time_elapsed,internal_node_id,rocket_sides,red_planet_first_rocket,red_display_order,purple_display_order,interactions,blur_events,focus_events,fullscreenenter_events,fullscreenexit_events,rt,stimulus,key_press,button_pressed,success,duration,valid_pressed,rts,keys,planet_text,right_text,left_text,center_text,chosen_text,reward_text,trial_stage,practice_trial,transition_type,choice,transition,reward,timestamp,subject_id
pavlovia,0,6,0.0-0.0,TRUE,FALSE,FALSE,TRUE,"
","
","
","
","
",NA,NA,NA,NA,NA,NA,NA,NA,NA,NA,NA,NA,NA,NA,NA,NA,NA,NA,NA,NA,NA,NA,sub103
html-keyboard-response,1,1369,0.0-1.0,TRUE,FALSE,FALSE,TRUE,"
","
","
","
","
",1361.2150000000147,Welcome! Press the space bar to begin.,32,NA,NA,NA,NA,NA,NA,NA,NA,NA,NA,NA,NA,NA,NA,NA,NA,NA,NA,NA,sub103
audio-keyboard-response,2,4896,0.0-2.0,TRUE,FALSE,FALSE,TRUE,"
","
","
","
","
",3349,audio/beep_loop.wav,32,NA,NA,NA,NA,NA,NA,NA,NA,NA,NA,NA,NA,NA,NA,NA,NA,NA,NA,NA,sub103
audio-button-response,3,7044,0.0-3.0,TRUE,FALSE,FALSE,TRUE,"
","
","
","
","
",NaN,audio/fish.mp3,NA,1,NA,NA,NA,NA,NA,NA,NA,NA,NA,NA,NA,NA,NA,NA,NA,NA,NA,NA,sub103
audio-button-response,4,10135,0.0-4.0,TRUE,FALSE,FALSE,TRUE,"""event"",""trial"",""time""
""fullscreenenter"",""5"",""15124""
","
","
","""event"",""trial"",""time""
""fullscreenenter"",""5"",""15124""
","
",NaN,audio/tiger.mp3,NA,4,NA,NA,NA,NA,NA,NA,NA,NA,NA,NA,NA,NA,NA,NA,NA,NA,NA,NA,sub103
fullscreen,5,16010,0.0-5.0,TRUE,FALSE,FALSE,TRUE,"""event"",""trial"",""time""
""fullscreenenter"",""5"",""15124""
","
","
","""event"",""trial"",""time""
""fullscreenenter"",""5"",""15124""
","
",NA,NA,NA,NA,TRUE,NA,NA,NA,NA,NA,NA,NA,NA,NA,NA,NA,NA,NA,NA,NA,NA,NA,sub103
d3-instructions,6,28456,0.0-6.0,TRUE,FALSE,FALSE,TRUE,"""event"",""trial"",""time""
""fullscreenenter"",""5"",""15124""
","
","
","""event"",""trial"",""time""
""fullscreenenter"",""5"",""15124""
","
",NA,NA,NA,NA,NA,NA,NA,NA,NA,NA,NA,NA,NA,NA,NA,NA,NA,NA,NA,NA,NA,NA,sub103
d3-instructions,7,42870,0.0-7.0,TRUE,FALSE,FALSE,TRUE,"""event"",""trial"",""time""
""fullscreenenter"",""5"",""15124""
","
","
","""event"",""trial"",""time""
""fullscreenenter"",""5"",""15124""
","
",NA,NA,NA,NA,NA,NA,NA,NA,NA,NA,NA,NA,NA,NA,NA,NA,NA,NA,NA,NA,NA,NA,sub103
d3-instructions,8,50877,0.0-8.0,TRUE,FALSE,FALSE,TRUE,"""event"",""trial"",""time""
""fullscreenenter"",""5"",""15124""
","
","
","""event"",""trial"",""time""
""fullscreenenter"",""5"",""15124""
","
",NA,NA,NA,NA,NA,NA,NA,NA,NA,NA,NA,NA,NA,NA,NA,NA,NA,NA,NA,NA,NA,NA,sub103
d3-instructions,9,63729,0.0-9.0,TRUE,FALSE,FALSE,TRUE,"""event"",""trial"",""time""
""fullscreenenter"",""5"",""15124""
","
","
","""event"",""trial"",""time""
""fullscreenenter"",""5"",""15124""
","
",NA,NA,NA,NA,NA,NA,NA,NA,NA,NA,NA,NA,NA,NA,NA,NA,NA,NA,NA,NA,NA,NA,sub103
d3-instructions,10,81624,0.0-10.0,TRUE,FALSE,FALSE,TRUE,"""event"",""trial"",""time""
""fullscreenenter"",""5"",""15124""
","
","
","""event"",""trial"",""time""
""fullscreenenter"",""5"",""15124""
","
",NA,NA,NA,NA,NA,NA,NA,NA,NA,NA,NA,NA,NA,NA,NA,NA,NA,NA,NA,NA,NA,NA,sub103
d3-animate-choice,11,86131,0.0-11.0,TRUE,FALSE,FALSE,TRUE,"""event"",""trial"",""time""
""fullscreenenter"",""5"",""15124""
","
","
","""event"",""trial"",""time""
""fullscreenenter"",""5"",""15124""
","
",2486.715000000011,NA,49,NA,NA,3000,1,"3374.6150000000634,3950.6450000000186",4848,images/tutgreenplanet.jpg,images/tutalien1,images/tutalien2,null,images/tutalien2,NA,NA,practice,null,NA,NA,NA,NA,sub103
d3-animate-choice,12,89106,0.0-12.0,TRUE,FALSE,FALSE,TRUE,"""event"",""trial"",""time""
""fullscreenenter"",""5"",""15124""
","
","
","""event"",""trial"",""time""
""fullscreenenter"",""5"",""15124""
","
",963.8199999999488,NA,48,NA,NA,3000,1,2670.959999999919,48,images/tutgreenplanet.jpg,images/tutalien1,images/tutalien2,null,images/tutalien1,NA,NA,practice,null,NA,NA,NA,NA,sub103
d3-animate-choice,13,92053,0.0-13.0,TRUE,FALSE,FALSE,TRUE,"""event"",""trial"",""time""
""fullscreenenter"",""5"",""15124""
","
","
","""event"",""trial"",""time""
""fullscreenenter"",""5"",""15124""
","
",935.6000000000204,NA,49,NA,NA,3000,1,1885.954999999958,32,images/tutgreenplanet.jpg,images/tutalien1,images/tutalien2,null,images/tutalien2,NA,NA,practice,null,NA,NA,NA,NA,sub103
d3-animate-choice,14,97538,0.0-14.0,TRUE,FALSE,FALSE,TRUE,"""event"",""trial"",""time""
""fullscreenenter"",""5"",""15124""
","
","
","""event"",""trial"",""time""
""fullscreenenter"",""5"",""15124""
","
",2068.5900000000984,NA,32,NA,NA,3000,1,"3474.6400000000285,4034.1900000000896",4932,images/tutgreenplanet.jpg,images/tutalien1,images/tutalien2,null,images/tutalien2,NA,NA,practice,null,NA,NA,NA,NA,sub103
d3-instructions,15,107319,0.0-15.0,TRUE,FALSE,FALSE,TRUE,"""event"",""trial"",""time""
""fullscreenenter"",""5"",""15124""
","
","
","""event"",""trial"",""time""
""fullscreenenter"",""5"",""15124""
","
",NA,NA,NA,NA,NA,NA,NA,NA,NA,NA,NA,NA,NA,NA,NA,NA,NA,NA,NA,NA,NA,NA,sub103
d3-instructions,16,114205,0.0-16.0,TRUE,FALSE,FALSE,TRUE,"""event"",""trial"",""time""
""fullscreenenter"",""5"",""15124""
","
","
","""event"",""trial"",""time""
""fullscreenenter"",""5"",""15124""
","
",NA,NA,NA,NA,NA,NA,NA,NA,NA,NA,NA,NA,NA,NA,NA,NA,NA,NA,NA,NA,NA,NA,sub103
d3-instructions,17,125546,0.0-17.0,TRUE,FALSE,FALSE,TRUE,"""event"",""trial"",""time""
""fullscreenenter"",""5"",""15124""
","
","
","""event"",""trial"",""time""
""fullscreenenter"",""5"",""15124""
","
",NA,NA,NA,NA,NA,NA,NA,NA,NA,NA,NA,NA,NA,NA,NA,NA,NA,NA,NA,NA,NA,NA,sub103
d3-instructions,18,138453,0.0-18.0,TRUE,FALSE,FALSE,TRUE,"""event"",""trial"",""time""
""fullscreenenter"",""5"",""15124""
","
","
","""event"",""trial"",""time""
""fullscreenenter"",""5"",""15124""
","
",NA,NA,NA,NA,NA,NA,NA,NA,NA,NA,NA,NA,NA,NA,NA,NA,NA,NA,NA,NA,NA,NA,sub103
d3-instructions,19,153522,0.0-19.0,TRUE,FALSE,FALSE,TRUE,"""event"",""trial"",""time""
""fullscreenenter"",""5"",""15124""
","
","
","""event"",""trial"",""time""
""fullscreenenter"",""5"",""15124""
","
",NA,NA,NA,NA,NA,NA,NA,NA,NA,NA,NA,NA,NA,NA,NA,NA,NA,NA,NA,NA,NA,NA,sub103
d3-animate-choice,20,156879,0.0-20.0,TRUE,FALSE,FALSE,TRUE,"""event"",""trial"",""time""
""fullscreenenter"",""5"",""15124""
","
","
","""event"",""trial"",""time""
""fullscreenenter"",""5"",""15124""
","
",1351.0049999999756,NA,49,NA,NA,3000,1,2563.8000000000175,32,images/tutyellowplanet.jpg,null,images/tutalien3,null,images/tutalien3,images/t.png,NA,practice,null,NA,NA,NA,NA,sub103
d3-animate-choice,21,160586,0.0-21.0,TRUE,FALSE,FALSE,TRUE,"""event"",""trial"",""time""
""fullscreenenter"",""5"",""15124""
","
","
","""event"",""trial"",""time""
""fullscreenenter"",""5"",""15124""
","
",1695.0349999999453,NA,49,NA,NA,3000,1,2167.350000000064,32,images/tutyellowplanet.jpg,null,images/tutalien3,null,images/tutalien3,images/t.png,NA,practice,null,NA,NA,NA,NA,sub103
d3-animate-choice,22,163301,0.0-22.0,TRUE,FALSE,FALSE,TRUE,"""event"",""trial"",""time""
""fullscreenenter"",""5"",""15124""
","
","
","""event"",""trial"",""time""
""fullscreenenter"",""5"",""15124""
","
",710.255000000092,NA,49,NA,NA,3000,1,1149.8300000000745,32,images/tutyellowplanet.jpg,null,images/tutalien3,null,images/tutalien3,images/t.png,NA,practice,null,NA,NA,NA,NA,sub103
d3-animate-choice,23,165649,0.0-23.0,TRUE,FALSE,FALSE,TRUE,"""event"",""trial"",""time""
""fullscreenenter"",""5"",""15124""
","
","
","""event"",""trial"",""time""
""fullscreenenter"",""5"",""15124""
","
",340.7150000000256,NA,49,NA,NA,3000,1,777.1450000000186,32,images/tutyellowplanet.jpg,null,images/tutalien3,null,images/tutalien3,images/nothing.png,NA,practice,null,NA,NA,NA,NA,sub103
d3-animate-choice,24,168155,0.0-24.0,TRUE,FALSE,FALSE,TRUE,"""event"",""trial"",""time""
""fullscreenenter"",""5"",""15124""
","
","
","""event"",""trial"",""time""
""fullscreenenter"",""5"",""15124""
","
",496.50499999997555,NA,49,NA,NA,3000,1,812.679999999993,32,images/tutyellowplanet.jpg,null,images/tutalien3,null,images/tutalien3,images/t.png,NA,practice,null,NA,NA,NA,NA,sub103
d3-animate-choice,25,170508,0.0-25.0,TRUE,FALSE,FALSE,TRUE,"""event"",""trial"",""time""
""fullscreenenter"",""5"",""15124""
","
","
","""event"",""trial"",""time""
""fullscreenenter"",""5"",""15124""
","
",345.6150000000489,NA,49,NA,NA,3000,1,694.6149999999907,32,images/tutyellowplanet.jpg,null,images/tutalien3,null,images/tutalien3,images/t.png,NA,practice,null,NA,NA,NA,NA,sub103
d3-animate-choice,26,172811,0.0-26.0,TRUE,FALSE,FALSE,TRUE,"""event"",""trial"",""time""
""fullscreenenter"",""5"",""15124""
","
","
","""event"",""trial"",""time""
""fullscreenenter"",""5"",""15124""
","
",297.4849999999278,NA,49,NA,NA,3000,1,722.3999999999942,32,images/tutyellowplanet.jpg,null,images/tutalien3,null,images/tutalien3,images/t.png,NA,practice,null,NA,NA,NA,NA,sub103
d3-animate-choice,27,175125,0.0-27.0,TRUE,FALSE,FALSE,TRUE,"""event"",""trial"",""time""
""fullscreenenter"",""5"",""15124""
","
","
","""event"",""trial"",""time""
""fullscreenenter"",""5"",""15124""
","
",304.9750000000349,NA,49,NA,NA,3000,1,760.740000000078,32,images/tutyellowplanet.jpg,null,images/tutalien3,null,images/tutalien3,images/t.png,NA,practice,null,NA,NA,NA,NA,sub103
d3-animate-choice,28,177431,0.0-28.0,TRUE,FALSE,FALSE,TRUE,"""event"",""trial"",""time""
""fullscreenenter"",""5"",""15124""
","
","
","""event"",""trial"",""time""
""fullscreenenter"",""5"",""15124""
","
",294.7349999999569,NA,49,NA,NA,3000,1,627.6799999999639,32,images/tutyellowplanet.jpg,null,images/tutalien3,null,images/tutalien3,images/nothing.png,NA,practice,null,NA,NA,NA,NA,sub103
d3-animate-choice,29,179923,0.0-29.0,TRUE,FALSE,FALSE,TRUE,"""event"",""trial"",""time""
""fullscreenenter"",""5"",""15124""
","
","
","""event"",""trial"",""time""
""fullscreenenter"",""5"",""15124""
","
",488.54000000006636,NA,49,NA,NA,3000,1,747.6050000000105,32,images/tutyellowplanet.jpg,null,images/tutalien3,null,images/tutalien3,images/t.png,NA,practice,null,NA,NA,NA,NA,sub103
d3-instructions,30,190349,0.0-30.0,TRUE,FALSE,FALSE,TRUE,"""event"",""trial"",""time""
""fullscreenenter"",""5"",""15124""
","
","
","""event"",""trial"",""time""
""fullscreenenter"",""5"",""15124""
","
",NA,NA,NA,NA,NA,NA,NA,NA,NA,NA,NA,NA,NA,NA,NA,NA,NA,NA,NA,NA,NA,NA,sub103
d3-instructions,31,201189,0.0-31.0,TRUE,FALSE,FALSE,TRUE,"""event"",""trial"",""time""
""fullscreenenter"",""5"",""15124""
","
","
","""event"",""trial"",""time""
""fullscreenenter"",""5"",""15124""
","
",NA,NA,NA,NA,NA,NA,NA,NA,NA,NA,NA,NA,NA,NA,NA,NA,NA,NA,NA,NA,NA,NA,sub103
d3-instructions,32,211279,0.0-32.0,TRUE,FALSE,FALSE,TRUE,"""event"",""trial"",""time""
""fullscreenenter"",""5"",""15124""
","
","
","""event"",""trial"",""time""
""fullscreenenter"",""5"",""15124""
","
",NA,NA,NA,NA,NA,NA,NA,NA,NA,NA,NA,NA,NA,NA,NA,NA,NA,NA,NA,NA,NA,NA,sub103
d3-instructions,33,222540,0.0-33.0,TRUE,FALSE,FALSE,TRUE,"""event"",""trial"",""time""
""fullscreenenter"",""5"",""15124""
","
","
","""event"",""trial"",""time""
""fullscreenenter"",""5"",""15124""
","
",NA,NA,NA,NA,NA,NA,NA,NA,NA,NA,NA,NA,NA,NA,NA,NA,NA,NA,NA,NA,NA,NA,sub103
d3-animate-choice,34,226192,0.0-34.0,TRUE,FALSE,FALSE,TRUE,"""event"",""trial"",""time""
""fullscreenenter"",""5"",""15124""
","
","
","""event"",""trial"",""time""
""fullscreenenter"",""5"",""15124""
","
",1644.4300000000512,NA,48,NA,NA,3000,1,2625.3400000000547,32,images/tutgreenplanet.jpg,images/tutalien1,images/tutalien2,null,images/tutalien1,images/nothing.png,NA,practice,null,NA,NA,NA,NA,sub103
d3-animate-choice,35,229293,0.0-35.0,TRUE,FALSE,FALSE,TRUE,"""event"",""trial"",""time""
""fullscreenenter"",""5"",""15124""
","
","
","""event"",""trial"",""time""
""fullscreenenter"",""5"",""15124""
","
",1088.2099999999045,NA,48,NA,NA,3000,1,1860.8849999998347,32,images/tutgreenplanet.jpg,images/tutalien1,images/tutalien2,null,images/tutalien1,images/nothing.png,NA,practice,null,NA,NA,NA,NA,sub103
d3-animate-choice,36,232043,0.0-36.0,TRUE,FALSE,FALSE,TRUE,"""event"",""trial"",""time""
""fullscreenenter"",""5"",""15124""
","
","
","""event"",""trial"",""time""
""fullscreenenter"",""5"",""15124""
","
",743.4899999998452,NA,49,NA,NA,3000,1,1255.6299999998882,32,images/tutgreenplanet.jpg,images/tutalien1,images/tutalien2,null,images/tutalien2,images/t.png,NA,practice,null,NA,NA,NA,NA,sub103
d3-animate-choice,37,234953,0.0-37.0,TRUE,FALSE,FALSE,TRUE,"""event"",""trial"",""time""
""fullscreenenter"",""5"",""15124""
","
","
","""event"",""trial"",""time""
""fullscreenenter"",""5"",""15124""
","
",893.6099999998696,NA,49,NA,NA,3000,1,1544.6299999998882,32,images/tutgreenplanet.jpg,images/tutalien1,images/tutalien2,null,images/tutalien2,images/t.png,NA,practice,null,NA,NA,NA,NA,sub103
d3-animate-choice,38,238258,0.0-38.0,TRUE,FALSE,FALSE,TRUE,"""event"",""trial"",""time""
""fullscreenenter"",""5"",""15124""
","
","
","""event"",""trial"",""time""
""fullscreenenter"",""5"",""15124""
","
",1296.5350000001781,NA,49,NA,NA,3000,1,1685.2650000000722,32,images/tutgreenplanet.jpg,images/tutalien1,images/tutalien2,null,images/tutalien2,images/t.png,NA,practice,null,NA,NA,NA,NA,sub103
d3-animate-choice,39,241430,0.0-39.0,TRUE,FALSE,FALSE,TRUE,"""event"",""trial"",""time""
""fullscreenenter"",""5"",""15124""
","
","
","""event"",""trial"",""time""
""fullscreenenter"",""5"",""15124""
","
",1151.8899999998685,NA,49,NA,NA,3000,1,1687.1849999999977,32,images/tutgreenplanet.jpg,images/tutalien1,images/tutalien2,null,images/tutalien2,images/t.png,NA,practice,null,NA,NA,NA,NA,sub103
d3-animate-choice,40,243947,0.0-40.0,TRUE,FALSE,FALSE,TRUE,"""event"",""trial"",""time""
""fullscreenenter"",""5"",""15124""
","
","
","""event"",""trial"",""time""
""fullscreenenter"",""5"",""15124""
","
",506.5799999999872,NA,49,NA,NA,3000,1,1060.905000000057,32,images/tutgreenplanet.jpg,images/tutalien1,images/tutalien2,null,images/tutalien2,images/t.png,NA,practice,null,NA,NA,NA,NA,sub103
d3-animate-choice,41,246461,0.0-41.0,TRUE,FALSE,FALSE,TRUE,"""event"",""trial"",""time""
""fullscreenenter"",""5"",""15124""
","
","
","""event"",""trial"",""time""
""fullscreenenter"",""5"",""15124""
","
",501.56500000003143,NA,49,NA,NA,3000,1,854.5999999998894,32,images/tutgreenplanet.jpg,images/tutalien1,images/tutalien2,null,images/tutalien2,images/t.png,NA,practice,null,NA,NA,NA,NA,sub103
d3-animate-choice,42,248796,0.0-42.0,TRUE,FALSE,FALSE,TRUE,"""event"",""trial"",""time""
""fullscreenenter"",""5"",""15124""
","
","
","""event"",""trial"",""time""
""fullscreenenter"",""5"",""15124""
","
",328.3900000001304,NA,49,NA,NA,3000,1,931.1400000001595,32,images/tutgreenplanet.jpg,images/tutalien1,images/tutalien2,null,images/tutalien2,images/t.png,NA,practice,null,NA,NA,NA,NA,sub103
d3-animate-choice,43,251892,0.0-43.0,TRUE,FALSE,FALSE,TRUE,"""event"",""trial"",""time""
""fullscreenenter"",""5"",""15124""
","
","
","""event"",""trial"",""time""
""fullscreenenter"",""5"",""15124""
","
",1088.8149999998277,NA,49,NA,NA,3000,1,1568.2799999999697,32,images/tutgreenplanet.jpg,images/tutalien1,images/tutalien2,null,images/tutalien2,images/t.png,NA,practice,null,NA,NA,NA,NA,sub103
d3-instructions,44,266654,0.0-44.0,TRUE,FALSE,FALSE,TRUE,"""event"",""trial"",""time""
""fullscreenenter"",""5"",""15124""
","
","
","""event"",""trial"",""time""
""fullscreenenter"",""5"",""15124""
","
",NA,NA,NA,NA,NA,NA,NA,NA,NA,NA,NA,NA,NA,NA,NA,NA,NA,NA,NA,NA,NA,NA,sub103
d3-instructions,45,274439,0.0-45.0,TRUE,FALSE,FALSE,TRUE,"""event"",""trial"",""time""
""fullscreenenter"",""5"",""15124""
","
","
","""event"",""trial"",""time""
""fullscreenenter"",""5"",""15124""
","
",NA,NA,NA,NA,NA,NA,NA,NA,NA,NA,NA,NA,NA,NA,NA,NA,NA,NA,NA,NA,NA,NA,sub103
d3-instructions,46,280640,0.0-46.0,TRUE,FALSE,FALSE,TRUE,"""event"",""trial"",""time""
""fullscreenenter"",""5"",""15124""
","
","
","""event"",""trial"",""time""
""fullscreenenter"",""5"",""15124""
","
",NA,NA,NA,NA,NA,NA,NA,NA,NA,NA,NA,NA,NA,NA,NA,NA,NA,NA,NA,NA,NA,NA,sub103
d3-instructions,47,298323,0.0-47.0,TRUE,FALSE,FALSE,TRUE,"""event"",""trial"",""time""
""fullscreenenter"",""5"",""15124""
","
","
","""event"",""trial"",""time""
""fullscreenenter"",""5"",""15124""
","
",NA,NA,NA,NA,NA,NA,NA,NA,NA,NA,NA,NA,NA,NA,NA,NA,NA,NA,NA,NA,NA,NA,sub103
d3-instructions,48,306533,0.0-48.0,TRUE,FALSE,FALSE,TRUE,"""event"",""trial"",""time""
""fullscreenenter"",""5"",""15124""
","
","
","""event"",""trial"",""time""
""fullscreenenter"",""5"",""15124""
","
",NA,NA,NA,NA,NA,NA,NA,NA,NA,NA,NA,NA,NA,NA,NA,NA,NA,NA,NA,NA,NA,NA,sub103
d3-instructions,49,318983,0.0-49.0,TRUE,FALSE,FALSE,TRUE,"""event"",""trial"",""time""
""fullscreenenter"",""5"",""15124""
","
","
","""event"",""trial"",""time""
""fullscreenenter"",""5"",""15124""
","
",NA,NA,NA,NA,NA,NA,NA,NA,NA,NA,NA,NA,NA,NA,NA,NA,NA,NA,NA,NA,NA,NA,sub103
d3-instructions,50,329370,0.0-50.0,TRUE,FALSE,FALSE,TRUE,"""event"",""trial"",""time""
""fullscreenenter"",""5"",""15124""
","
","
","""event"",""trial"",""time""
""fullscreenenter"",""5"",""15124""
","
",NA,NA,NA,NA,NA,NA,NA,NA,NA,NA,NA,NA,NA,NA,NA,NA,NA,NA,NA,NA,NA,NA,sub103
d3-instructions,51,332502,0.0-51.0,TRUE,FALSE,FALSE,TRUE,"""event"",""trial"",""time""
""fullscreenenter"",""5"",""15124""
","
","
","""event"",""trial"",""time""
""fullscreenenter"",""5"",""15124""
","
",NA,NA,NA,NA,NA,NA,NA,NA,NA,NA,NA,NA,NA,NA,NA,NA,NA,NA,NA,NA,NA,NA,sub103
d3-instructions,52,335479,0.0-52.0,TRUE,FALSE,FALSE,TRUE,"""event"",""trial"",""time""
""fullscreenenter"",""5"",""15124""
","
","
","""event"",""trial"",""time""
""fullscreenenter"",""5"",""15124""
","
",NA,NA,NA,NA,NA,NA,NA,NA,NA,NA,NA,NA,NA,NA,NA,NA,NA,NA,NA,NA,NA,NA,sub103
d3-instructions,53,351599,0.0-53.0,TRUE,FALSE,FALSE,TRUE,"""event"",""trial"",""time""
""fullscreenenter"",""5"",""15124""
","
","
","""event"",""trial"",""time""
""fullscreenenter"",""5"",""15124""
","
",NA,NA,NA,NA,NA,NA,NA,NA,NA,NA,NA,NA,NA,NA,NA,NA,NA,NA,NA,NA,NA,NA,sub103
d3-instructions,54,366012,0.0-54.0,TRUE,FALSE,FALSE,TRUE,"""event"",""trial"",""time""
""fullscreenenter"",""5"",""15124""
","
","
","""event"",""trial"",""time""
""fullscreenenter"",""5"",""15124""
","
",NA,NA,NA,NA,NA,NA,NA,NA,NA,NA,NA,NA,NA,NA,NA,NA,NA,NA,NA,NA,NA,NA,sub103
d3-instructions,55,378151,0.0-55.0,TRUE,FALSE,FALSE,TRUE,"""event"",""trial"",""time""
""fullscreenenter"",""5"",""15124""
","
","
","""event"",""trial"",""time""
""fullscreenenter"",""5"",""15124""
","
",NA,NA,NA,NA,NA,NA,NA,NA,NA,NA,NA,NA,NA,NA,NA,NA,NA,NA,NA,NA,NA,NA,sub103
d3-instructions,56,387694,0.0-56.0,TRUE,FALSE,FALSE,TRUE,"""event"",""trial"",""time""
""fullscreenenter"",""5"",""15124""
","
","
","""event"",""trial"",""time""
""fullscreenenter"",""5"",""15124""
","
",NA,NA,NA,NA,NA,NA,NA,NA,NA,NA,NA,NA,NA,NA,NA,NA,NA,NA,NA,NA,NA,NA,sub103
d3-instructions,57,398742,0.0-57.0,TRUE,FALSE,FALSE,TRUE,"""event"",""trial"",""time""
""fullscreenenter"",""5"",""15124""
","
","
","""event"",""trial"",""time""
""fullscreenenter"",""5"",""15124""
","
",NA,NA,NA,NA,NA,NA,NA,NA,NA,NA,NA,NA,NA,NA,NA,NA,NA,NA,NA,NA,NA,NA,sub103
d3-instructions,58,417109,0.0-58.0,TRUE,FALSE,FALSE,TRUE,"""event"",""trial"",""time""
""fullscreenenter"",""5"",""15124""
","
","
","""event"",""trial"",""time""
""fullscreenenter"",""5"",""15124""
","
",NA,NA,NA,NA,NA,NA,NA,NA,NA,NA,NA,NA,NA,NA,NA,NA,NA,NA,NA,NA,NA,NA,sub103
d3-instructions,59,423728,0.0-59.0,TRUE,FALSE,FALSE,TRUE,"""event"",""trial"",""time""
""fullscreenenter"",""5"",""15124""
","
","
","""event"",""trial"",""time""
""fullscreenenter"",""5"",""15124""
","
",NA,NA,NA,NA,NA,NA,NA,NA,NA,NA,NA,NA,NA,NA,NA,NA,NA,NA,NA,NA,NA,NA,sub103
d3-instructions,60,431062,0.0-60.0,TRUE,FALSE,FALSE,TRUE,"""event"",""trial"",""time""
""fullscreenenter"",""5"",""15124""
","
","
","""event"",""trial"",""time""
""fullscreenenter"",""5"",""15124""
","
",NA,NA,NA,NA,NA,NA,NA,NA,NA,NA,NA,NA,NA,NA,NA,NA,NA,NA,NA,NA,NA,NA,sub103
d3-animate-choice,61,434766,0.0-61.0-0.0,TRUE,FALSE,FALSE,TRUE,"""event"",""trial"",""time""
""fullscreenenter"",""5"",""15124""
","
","
","""event"",""trial"",""time""
""fullscreenenter"",""5"",""15124""
","
",1686.8749999998836,NA,49,NA,NA,3000,1,2179.439999999886,32,images/earth.jpg,images/tutrocket1,images/tutrocket2,null,images/tutrocket2,NA,1,practice,null,1,NA,NA,NA,sub103
d3-animate-choice,62,437865,0.0-61.0-1.0,TRUE,FALSE,FALSE,TRUE,"""event"",""trial"",""time""
""fullscreenenter"",""5"",""15124""
","
","
","""event"",""trial"",""time""
""fullscreenenter"",""5"",""15124""
","
",1081.199999999837,NA,49,NA,NA,3000,1,"1747.2349999998114,2321.37999999983",3232,images/tutgreenplanet.jpg,images/tutalien2,images/tutalien1,images/tutrocket2,images/tutalien1,images/nothing.png,2,practice,true,1,common,0,2020-06-21T00:44:03Z,sub103
two-step-fixation,63,438876,0.0-61.0-2.0,TRUE,FALSE,FALSE,TRUE,"""event"",""trial"",""time""
""fullscreenenter"",""5"",""15124""
","
","
","""event"",""trial"",""time""
""fullscreenenter"",""5"",""15124""
","
",NA,images/earth.jpg,NA,NA,NA,NA,NA,NA,NA,NA,NA,NA,NA,NA,NA,fixation,NA,NA,NA,NA,NA,NA,sub103
d3-animate-choice,64,442888,0.0-61.0-0.1,TRUE,FALSE,FALSE,TRUE,"""event"",""trial"",""time""
""fullscreenenter"",""5"",""15124""
","
","
","""event"",""trial"",""time""
""fullscreenenter"",""5"",""15124""
","
",null,NA,null,NA,NA,3000,0,NA,NA,images/earth.jpg,images/tutrocket1,images/tutrocket2,null,NA,NA,1,practice,null,NA,NA,NA,NA,sub103
d3-animate-choice,65,443909,0.0-61.0-1.1,TRUE,FALSE,FALSE,TRUE,"""event"",""trial"",""time""
""fullscreenenter"",""5"",""15124""
","
","
","""event"",""trial"",""time""
""fullscreenenter"",""5"",""15124""
","
",null,NA,null,NA,NA,0,0,NA,NA,images/earth.jpg,images/tutrocket1,images/tutrocket2,null,NA,NA,2,practice,null,NA,NA,0,2020-06-21T00:44:09Z,sub103
two-step-fixation,66,444913,0.0-61.0-2.1,TRUE,FALSE,FALSE,TRUE,"""event"",""trial"",""time""
""fullscreenenter"",""5"",""15124""
","
","
","""event"",""trial"",""time""
""fullscreenenter"",""5"",""15124""
","
",NA,images/earth.jpg,NA,NA,NA,NA,NA,NA,NA,NA,NA,NA,NA,NA,NA,fixation,NA,NA,NA,NA,NA,NA,sub103
d3-animate-choice,67,448257,0.0-61.0-0.2,TRUE,FALSE,FALSE,TRUE,"""event"",""trial"",""time""
""fullscreenenter"",""5"",""15124""
","
","
","""event"",""trial"",""time""
""fullscreenenter"",""5"",""15124""
","
",605.7749999999651,NA,189,NA,NA,3000,1,"946.5299999999115,1331.7050000000163,1357.8299999998999,1801.7850000000908,2074.3800000000047,2607.7949999998673",1894849484832,images/earth.jpg,images/tutrocket1,images/tutrocket2,null,images/tutrocket1,NA,1,practice,null,NA,NA,NA,NA,sub103
d3-animate-choice,68,450963,0.0-61.0-1.2,TRUE,FALSE,FALSE,TRUE,"""event"",""trial"",""time""
""fullscreenenter"",""5"",""15124""
","
","
","""event"",""trial"",""time""
""fullscreenenter"",""5"",""15124""
","
",693.2000000001281,NA,48,NA,NA,3000,1,"1179.2400000001653,1503.1249999999418,1677.795000000042,1901.884999999951,2091.1700000001583",4848323232,images/tutyellowplanet.jpg,images/tutalien4,images/tutalien3,images/tutrocket1,images/tutalien4,images/nothing.png,2,practice,true,2,common,0,2020-06-21T00:44:16Z,sub103
two-step-fixation,69,451976,0.0-61.0-2.2,TRUE,FALSE,FALSE,TRUE,"""event"",""trial"",""time""
""fullscreenenter"",""5"",""15124""
","
","
","""event"",""trial"",""time""
""fullscreenenter"",""5"",""15124""
","
",NA,images/earth.jpg,NA,NA,NA,NA,NA,NA,NA,NA,NA,NA,NA,NA,NA,fixation,NA,NA,NA,NA,NA,NA,sub103
d3-animate-choice,70,454338,0.0-61.0-0.3,TRUE,FALSE,FALSE,TRUE,"""event"",""trial"",""time""
""fullscreenenter"",""5"",""15124""
","
","
","""event"",""trial"",""time""
""fullscreenenter"",""5"",""15124""
","
",349.6250000000582,NA,48,NA,NA,3000,1,"855.3199999998906,1600.9449999999488",3232,images/earth.jpg,images/tutrocket1,images/tutrocket2,null,images/tutrocket1,NA,1,practice,null,2,NA,NA,NA,sub103
d3-animate-choice,71,456964,0.0-61.0-1.3,TRUE,FALSE,FALSE,TRUE,"""event"",""trial"",""time""
""fullscreenenter"",""5"",""15124""
","
","
","""event"",""trial"",""time""
""fullscreenenter"",""5"",""15124""
","
",616,NA,49,NA,NA,3000,1,"1002.1999999999534,1435.7150000000838,1792.3499999999767,2098.600000000035",32323232,images/tutyellowplanet.jpg,images/tutalien4,images/tutalien3,images/tutrocket1,images/tutalien3,images/nothing.png,2,practice,true,1,common,0,2020-06-21T00:44:22Z,sub103
two-step-fixation,72,457974,0.0-61.0-2.3,TRUE,FALSE,FALSE,TRUE,"""event"",""trial"",""time""
""fullscreenenter"",""5"",""15124""
","
","
","""event"",""trial"",""time""
""fullscreenenter"",""5"",""15124""
","
",NA,images/earth.jpg,NA,NA,NA,NA,NA,NA,NA,NA,NA,NA,NA,NA,NA,fixation,NA,NA,NA,NA,NA,NA,sub103
d3-animate-choice,73,460553,0.0-61.0-0.4,TRUE,FALSE,FALSE,TRUE,"""event"",""trial"",""time""
""fullscreenenter"",""5"",""15124""
","
","
","""event"",""trial"",""time""
""fullscreenenter"",""5"",""15124""
","
",564.5749999998952,NA,49,NA,NA,3000,1,"890.0349999999162,1254.085000000021,1580.8849999998347",323232,images/earth.jpg,images/tutrocket1,images/tutrocket2,null,images/tutrocket2,NA,1,practice,null,1,NA,NA,NA,sub103
d3-animate-choice,74,462926,0.0-61.0-1.4,TRUE,FALSE,FALSE,TRUE,"""event"",""trial"",""time""
""fullscreenenter"",""5"",""15124""
","
","
","""event"",""trial"",""time""
""fullscreenenter"",""5"",""15124""
","
",364.88999999983935,NA,49,NA,NA,3000,1,"753.7649999998976,1135.769999999844,1410.4849999998696,1623.9550000000163,1857.5699999998906",3232323232,images/tutgreenplanet.jpg,images/tutalien2,images/tutalien1,images/tutrocket2,images/tutalien1,images/t.png,2,practice,true,1,common,1,2020-06-21T00:44:28Z,sub103
two-step-fixation,75,463938,0.0-61.0-2.4,TRUE,FALSE,FALSE,TRUE,"""event"",""trial"",""time""
""fullscreenenter"",""5"",""15124""
","
","
","""event"",""trial"",""time""
""fullscreenenter"",""5"",""15124""
","
",NA,images/earth.jpg,NA,NA,NA,NA,NA,NA,NA,NA,NA,NA,NA,NA,NA,fixation,NA,NA,NA,NA,NA,NA,sub103
d3-animate-choice,76,467386,0.0-61.0-0.5,TRUE,FALSE,FALSE,TRUE,"""event"",""trial"",""time""
""fullscreenenter"",""5"",""15124""
","
","
","""event"",""trial"",""time""
""fullscreenenter"",""5"",""15124""
","
",561.8250000000116,NA,189,NA,NA,3000,1,"1107.664999999979,1433.1699999999837,1805.2049999998999",1894832,images/earth.jpg,images/tutrocket1,images/tutrocket2,null,images/tutrocket1,NA,1,practice,null,NA,NA,NA,NA,sub103
d3-animate-choice,77,469757,0.0-61.0-1.5,TRUE,FALSE,FALSE,TRUE,"""event"",""trial"",""time""
""fullscreenenter"",""5"",""15124""
","
","
","""event"",""trial"",""time""
""fullscreenenter"",""5"",""15124""
","
",358.04999999981374,NA,49,NA,NA,3000,1,"759.104999999865,1044.1899999998277,1285.4299999998766,1459.1949999998906,1823.0449999998673",3232323232,images/tutyellowplanet.jpg,images/tutalien4,images/tutalien3,images/tutrocket1,images/tutalien3,images/nothing.png,2,practice,true,1,common,0,2020-06-21T00:44:35Z,sub103
two-step-fixation,78,470770,0.0-61.0-2.5,TRUE,FALSE,FALSE,TRUE,"""event"",""trial"",""time""
""fullscreenenter"",""5"",""15124""
","
","
","""event"",""trial"",""time""
""fullscreenenter"",""5"",""15124""
","
",NA,images/earth.jpg,NA,NA,NA,NA,NA,NA,NA,NA,NA,NA,NA,NA,NA,fixation,NA,NA,NA,NA,NA,NA,sub103
d3-animate-choice,79,473017,0.0-61.0-0.6,TRUE,FALSE,FALSE,TRUE,"""event"",""trial"",""time""
""fullscreenenter"",""5"",""15124""
","
","
","""event"",""trial"",""time""
""fullscreenenter"",""5"",""15124""
","
",234.90500000002794,NA,49,NA,NA,3000,1,NA,NA,images/earth.jpg,images/tutrocket1,images/tutrocket2,null,images/tutrocket2,NA,1,practice,null,1,NA,NA,NA,sub103
d3-animate-choice,80,475376,0.0-61.0-1.6,TRUE,FALSE,FALSE,TRUE,"""event"",""trial"",""time""
""fullscreenenter"",""5"",""15124""
","
","
","""event"",""trial"",""time""
""fullscreenenter"",""5"",""15124""
","
",350.2750000000233,NA,49,NA,NA,3000,1,1370.3050000001676,32,images/tutgreenplanet.jpg,images/tutalien2,images/tutalien1,images/tutrocket2,images/tutalien1,images/nothing.png,2,practice,true,1,common,0,2020-06-21T00:44:40Z,sub103
two-step-fixation,81,476386,0.0-61.0-2.6,TRUE,FALSE,FALSE,TRUE,"""event"",""trial"",""time""
""fullscreenenter"",""5"",""15124""
","
","
","""event"",""trial"",""time""
""fullscreenenter"",""5"",""15124""
","
",NA,images/earth.jpg,NA,NA,NA,NA,NA,NA,NA,NA,NA,NA,NA,NA,NA,fixation,NA,NA,NA,NA,NA,NA,sub103
d3-animate-choice,82,478909,0.0-61.0-0.7,TRUE,FALSE,FALSE,TRUE,"""event"",""trial"",""time""
""fullscreenenter"",""5"",""15124""
","
","
","""event"",""trial"",""time""
""fullscreenenter"",""5"",""15124""
","
",513.8999999999069,NA,49,NA,NA,3000,1,953.2600000000093,32,images/earth.jpg,images/tutrocket1,images/tutrocket2,null,images/tutrocket2,NA,1,practice,null,1,NA,NA,NA,sub103
d3-animate-choice,83,481405,0.0-61.0-1.7,TRUE,FALSE,FALSE,TRUE,"""event"",""trial"",""time""
""fullscreenenter"",""5"",""15124""
","
","
","""event"",""trial"",""time""
""fullscreenenter"",""5"",""15124""
","
",487.3849999998929,NA,48,NA,NA,3000,1,"1168.5050000000629,1393.1399999998976,1609.6900000000023,1920.4249999999884",48323232,images/tutgreenplanet.jpg,images/tutalien2,images/tutalien1,images/tutrocket2,images/tutalien2,images/nothing.png,2,practice,true,2,common,0,2020-06-21T00:44:46Z,sub103
two-step-fixation,84,482415,0.0-61.0-2.7,TRUE,FALSE,FALSE,TRUE,"""event"",""trial"",""time""
""fullscreenenter"",""5"",""15124""
","
","
","""event"",""trial"",""time""
""fullscreenenter"",""5"",""15124""
","
",NA,images/earth.jpg,NA,NA,NA,NA,NA,NA,NA,NA,NA,NA,NA,NA,NA,fixation,NA,NA,NA,NA,NA,NA,sub103
d3-animate-choice,85,484607,0.0-61.0-0.8,TRUE,FALSE,FALSE,TRUE,"""event"",""trial"",""time""
""fullscreenenter"",""5"",""15124""
","
","
","""event"",""trial"",""time""
""fullscreenenter"",""5"",""15124""
","
",171.8300000000163,NA,49,NA,NA,3000,1,NA,NA,images/earth.jpg,images/tutrocket1,images/tutrocket2,null,images/tutrocket2,NA,1,practice,null,1,NA,NA,NA,sub103
d3-animate-choice,86,487101,0.0-61.0-1.8,TRUE,FALSE,FALSE,TRUE,"""event"",""trial"",""time""
""fullscreenenter"",""5"",""15124""
","
","
","""event"",""trial"",""time""
""fullscreenenter"",""5"",""15124""
","
",480.99500000011176,NA,49,NA,NA,3000,1,"1151.920000000042,1396.1400000000722,1782.505000000121",323232,images/tutyellowplanet.jpg,images/tutalien4,images/tutalien3,images/tutrocket2,images/tutalien3,images/nothing.png,2,practice,false,1,rare,0,2020-06-21T00:44:52Z,sub103
two-step-fixation,87,488111,0.0-61.0-2.8,TRUE,FALSE,FALSE,TRUE,"""event"",""trial"",""time""
""fullscreenenter"",""5"",""15124""
","
","
","""event"",""trial"",""time""
""fullscreenenter"",""5"",""15124""
","
",NA,images/earth.jpg,NA,NA,NA,NA,NA,NA,NA,NA,NA,NA,NA,NA,NA,fixation,NA,NA,NA,NA,NA,NA,sub103
d3-animate-choice,88,490474,0.0-61.0-0.9,TRUE,FALSE,FALSE,TRUE,"""event"",""trial"",""time""
""fullscreenenter"",""5"",""15124""
","
","
","""event"",""trial"",""time""
""fullscreenenter"",""5"",""15124""
","
",352.1949999999488,NA,49,NA,NA,3000,1,"749.6000000000931,1012.8950000000768",3232,images/earth.jpg,images/tutrocket1,images/tutrocket2,null,images/tutrocket2,NA,1,practice,null,1,NA,NA,NA,sub103
d3-animate-choice,89,492915,0.0-61.0-1.9,TRUE,FALSE,FALSE,TRUE,"""event"",""trial"",""time""
""fullscreenenter"",""5"",""15124""
","
","
","""event"",""trial"",""time""
""fullscreenenter"",""5"",""15124""
","
",432.32499999995343,NA,48,NA,NA,3000,1,"703.2599999999511,1156.3049999999348,1374.7949999999255,1854.7200000000303",48323232,images/tutyellowplanet.jpg,images/tutalien4,images/tutalien3,images/tutrocket2,images/tutalien4,images/t.png,2,practice,false,2,rare,1,2020-06-21T00:44:58Z,sub103
two-step-fixation,90,493922,0.0-61.0-2.9,TRUE,FALSE,FALSE,TRUE,"""event"",""trial"",""time""
""fullscreenenter"",""5"",""15124""
","
","
","""event"",""trial"",""time""
""fullscreenenter"",""5"",""15124""
","
",NA,images/earth.jpg,NA,NA,NA,NA,NA,NA,NA,NA,NA,NA,NA,NA,NA,fixation,NA,NA,NA,NA,NA,NA,sub103
d3-animate-choice,91,496456,0.0-61.0-0.10,TRUE,FALSE,FALSE,TRUE,"""event"",""trial"",""time""
""fullscreenenter"",""5"",""15124""
","
","
","""event"",""trial"",""time""
""fullscreenenter"",""5"",""15124""
","
",523.4150000001537,NA,49,NA,NA,3000,1,NA,NA,images/earth.jpg,images/tutrocket1,images/tutrocket2,null,images/tutrocket2,NA,1,practice,null,1,NA,NA,NA,sub103
d3-animate-choice,92,498965,0.0-61.0-1.10,TRUE,FALSE,FALSE,TRUE,"""event"",""trial"",""time""
""fullscreenenter"",""5"",""15124""
","
","
","""event"",""trial"",""time""
""fullscreenenter"",""5"",""15124""
","
",496.83499999990454,NA,48,NA,NA,3000,1,"1382.9299999999348,1664.2949999999837,1934.0050000000629",323232,images/tutgreenplanet.jpg,images/tutalien2,images/tutalien1,images/tutrocket2,images/tutalien2,images/nothing.png,2,practice,true,2,common,0,2020-06-21T00:45:04Z,sub103
two-step-fixation,93,499981,0.0-61.0-2.10,TRUE,FALSE,FALSE,TRUE,"""event"",""trial"",""time""
""fullscreenenter"",""5"",""15124""
","
","
","""event"",""trial"",""time""
""fullscreenenter"",""5"",""15124""
","
",NA,images/earth.jpg,NA,NA,NA,NA,NA,NA,NA,NA,NA,NA,NA,NA,NA,fixation,NA,NA,NA,NA,NA,NA,sub103
d3-animate-choice,94,501988,0.0-61.0-0.11,TRUE,FALSE,FALSE,TRUE,"""event"",""trial"",""time""
""fullscreenenter"",""5"",""15124""
","
","
","""event"",""trial"",""time""
""fullscreenenter"",""5"",""15124""
","
",0.7700000000768341,NA,49,NA,NA,3000,1,"472.8750000001746,586.7900000000373,883.1300000001793",493232,images/earth.jpg,images/tutrocket1,images/tutrocket2,null,images/tutrocket2,NA,1,practice,null,1,NA,NA,NA,sub103
d3-animate-choice,95,504744,0.0-61.0-1.11,TRUE,FALSE,FALSE,TRUE,"""event"",""trial"",""time""
""fullscreenenter"",""5"",""15124""
","
","
","""event"",""trial"",""time""
""fullscreenenter"",""5"",""15124""
","
",744.2050000001909,NA,48,NA,NA,3000,1,"986.9550000000745,1496.5850000000792,1944.9750000001513",483232,images/tutgreenplanet.jpg,images/tutalien2,images/tutalien1,images/tutrocket2,images/tutalien2,images/t.png,2,practice,true,2,common,1,2020-06-21T00:45:10Z,sub103
two-step-fixation,96,505750,0.0-61.0-2.11,TRUE,FALSE,FALSE,TRUE,"""event"",""trial"",""time""
""fullscreenenter"",""5"",""15124""
","
","
","""event"",""trial"",""time""
""fullscreenenter"",""5"",""15124""
","
",NA,images/earth.jpg,NA,NA,NA,NA,NA,NA,NA,NA,NA,NA,NA,NA,NA,fixation,NA,NA,NA,NA,NA,NA,sub103
d3-animate-choice,97,508080,0.0-61.0-0.12,TRUE,FALSE,FALSE,TRUE,"""event"",""trial"",""time""
""fullscreenenter"",""5"",""15124""
","
","
","""event"",""trial"",""time""
""fullscreenenter"",""5"",""15124""
","
",319.57500000001164,NA,49,NA,NA,3000,1,NA,NA,images/earth.jpg,images/tutrocket1,images/tutrocket2,null,images/tutrocket2,NA,1,practice,null,1,NA,NA,NA,sub103
d3-animate-choice,98,510346,0.0-61.0-1.12,TRUE,FALSE,FALSE,TRUE,"""event"",""trial"",""time""
""fullscreenenter"",""5"",""15124""
","
","
","""event"",""trial"",""time""
""fullscreenenter"",""5"",""15124""
","
",250.59000000008382,NA,48,NA,NA,3000,1,NA,NA,images/tutyellowplanet.jpg,images/tutalien4,images/tutalien3,images/tutrocket2,images/tutalien4,images/nothing.png,2,practice,false,2,rare,0,2020-06-21T00:45:15Z,sub103
two-step-fixation,99,511354,0.0-61.0-2.12,TRUE,FALSE,FALSE,TRUE,"""event"",""trial"",""time""
""fullscreenenter"",""5"",""15124""
","
","
","""event"",""trial"",""time""
""fullscreenenter"",""5"",""15124""
","
",NA,images/earth.jpg,NA,NA,NA,NA,NA,NA,NA,NA,NA,NA,NA,NA,NA,fixation,NA,NA,NA,NA,NA,NA,sub103
d3-animate-choice,100,513716,0.0-61.0-0.13,TRUE,FALSE,FALSE,TRUE,"""event"",""trial"",""time""
""fullscreenenter"",""5"",""15124""
","
","
","""event"",""trial"",""time""
""fullscreenenter"",""5"",""15124""
","
",354.39000000001397,NA,49,NA,NA,3000,1,NA,NA,images/earth.jpg,images/tutrocket1,images/tutrocket2,null,images/tutrocket2,NA,1,practice,null,1,NA,NA,NA,sub103
d3-animate-choice,101,516385,0.0-61.0-1.13,TRUE,FALSE,FALSE,TRUE,"""event"",""trial"",""time""
""fullscreenenter"",""5"",""15124""
","
","
","""event"",""trial"",""time""
""fullscreenenter"",""5"",""15124""
","
",660.5299999997951,NA,49,NA,NA,3000,1,"1360.2399999998743,1587.7999999999302",3232,images/tutyellowplanet.jpg,images/tutalien4,images/tutalien3,images/tutrocket2,images/tutalien3,images/t.png,2,practice,false,1,rare,1,2020-06-21T00:45:21Z,sub103
two-step-fixation,102,517396,0.0-61.0-2.13,TRUE,FALSE,FALSE,TRUE,"""event"",""trial"",""time""
""fullscreenenter"",""5"",""15124""
","
","
","""event"",""trial"",""time""
""fullscreenenter"",""5"",""15124""
","
",NA,images/earth.jpg,NA,NA,NA,NA,NA,NA,NA,NA,NA,NA,NA,NA,NA,fixation,NA,NA,NA,NA,NA,NA,sub103
d3-animate-choice,103,519753,0.0-61.0-0.14,TRUE,FALSE,FALSE,TRUE,"""event"",""trial"",""time""
""fullscreenenter"",""5"",""15124""
","
","
","""event"",""trial"",""time""
""fullscreenenter"",""5"",""15124""
","
",349.28000000014435,NA,48,NA,NA,3000,1,618.5600000001723,48,images/earth.jpg,images/tutrocket1,images/tutrocket2,null,images/tutrocket1,NA,1,practice,null,2,NA,NA,NA,sub103
d3-animate-choice,104,522056,0.0-61.0-1.14,TRUE,FALSE,FALSE,TRUE,"""event"",""trial"",""time""
""fullscreenenter"",""5"",""15124""
","
","
","""event"",""trial"",""time""
""fullscreenenter"",""5"",""15124""
","
",295.78000000014435,NA,49,NA,NA,3000,1,"814.5350000000326,1107.8649999999907",3232,images/tutyellowplanet.jpg,images/tutalien4,images/tutalien3,images/tutrocket1,images/tutalien3,images/nothing.png,2,practice,true,1,common,0,2020-06-21T00:45:27Z,sub103
two-step-fixation,105,523065,0.0-61.0-2.14,TRUE,FALSE,FALSE,TRUE,"""event"",""trial"",""time""
""fullscreenenter"",""5"",""15124""
","
","
","""event"",""trial"",""time""
""fullscreenenter"",""5"",""15124""
","
",NA,images/earth.jpg,NA,NA,NA,NA,NA,NA,NA,NA,NA,NA,NA,NA,NA,fixation,NA,NA,NA,NA,NA,NA,sub103
d3-animate-choice,106,525708,0.0-61.0-0.15,TRUE,FALSE,FALSE,TRUE,"""event"",""trial"",""time""
""fullscreenenter"",""5"",""15124""
","
","
","""event"",""trial"",""time""
""fullscreenenter"",""5"",""15124""
","
",633.9100000000326,NA,48,NA,NA,3000,1,886.7500000001164,48,images/earth.jpg,images/tutrocket1,images/tutrocket2,null,images/tutrocket1,NA,1,practice,null,2,NA,NA,NA,sub103
d3-animate-choice,107,528096,0.0-61.0-1.15,TRUE,FALSE,FALSE,TRUE,"""event"",""trial"",""time""
""fullscreenenter"",""5"",""15124""
","
","
","""event"",""trial"",""time""
""fullscreenenter"",""5"",""15124""
","
",373.61000000010245,NA,48,NA,NA,3000,1,"1015.6400000001304,1270.4600000001956",3232,images/tutgreenplanet.jpg,images/tutalien2,images/tutalien1,images/tutrocket1,images/tutalien2,images/t.png,2,practice,false,2,rare,1,2020-06-21T00:45:33Z,sub103
two-step-fixation,108,529110,0.0-61.0-2.15,TRUE,FALSE,FALSE,TRUE,"""event"",""trial"",""time""
""fullscreenenter"",""5"",""15124""
","
","
","""event"",""trial"",""time""
""fullscreenenter"",""5"",""15124""
","
",NA,images/earth.jpg,NA,NA,NA,NA,NA,NA,NA,NA,NA,NA,NA,NA,NA,fixation,NA,NA,NA,NA,NA,NA,sub103
d3-animate-choice,109,531942,0.0-61.0-0.16,TRUE,FALSE,FALSE,TRUE,"""event"",""trial"",""time""
""fullscreenenter"",""5"",""15124""
","
","
","""event"",""trial"",""time""
""fullscreenenter"",""5"",""15124""
","
",586.9050000001444,NA,32,NA,NA,3000,1,821.9400000000605,48,images/earth.jpg,images/tutrocket1,images/tutrocket2,null,images/tutrocket1,NA,1,practice,null,NA,NA,NA,NA,sub103
d3-animate-choice,110,534760,0.0-61.0-1.16,TRUE,FALSE,FALSE,TRUE,"""event"",""trial"",""time""
""fullscreenenter"",""5"",""15124""
","
","
","""event"",""trial"",""time""
""fullscreenenter"",""5"",""15124""
","
",455.16500000003725,NA,32,NA,NA,3000,1,"808.8600000001024,1107.7550000000047,1476.9249999999302,1803.1749999999302",48483232,images/tutyellowplanet.jpg,images/tutalien4,images/tutalien3,images/tutrocket1,images/tutalien4,images/nothing.png,2,practice,true,NA,common,0,2020-06-21T00:45:40Z,sub103
two-step-fixation,111,535772,0.0-61.0-2.16,TRUE,FALSE,FALSE,TRUE,"""event"",""trial"",""time""
""fullscreenenter"",""5"",""15124""
","
","
","""event"",""trial"",""time""
""fullscreenenter"",""5"",""15124""
","
",NA,images/earth.jpg,NA,NA,NA,NA,NA,NA,NA,NA,NA,NA,NA,NA,NA,fixation,NA,NA,NA,NA,NA,NA,sub103
d3-animate-choice,112,538024,0.0-61.0-0.17,TRUE,FALSE,FALSE,TRUE,"""event"",""trial"",""time""
""fullscreenenter"",""5"",""15124""
","
","
","""event"",""trial"",""time""
""fullscreenenter"",""5"",""15124""
","
",244.3649999999907,NA,48,NA,NA,3000,1,"521.2900000001537,901.3549999999814",4848,images/earth.jpg,images/tutrocket1,images/tutrocket2,null,images/tutrocket1,NA,1,practice,null,2,NA,NA,NA,sub103
d3-animate-choice,113,540316,0.0-61.0-1.17,TRUE,FALSE,FALSE,TRUE,"""event"",""trial"",""time""
""fullscreenenter"",""5"",""15124""
","
","
","""event"",""trial"",""time""
""fullscreenenter"",""5"",""15124""
","
",282.27499999979045,NA,49,NA,NA,3000,1,1049.3149999999441,32,images/tutgreenplanet.jpg,images/tutalien2,images/tutalien1,images/tutrocket1,images/tutalien1,images/nothing.png,2,practice,false,1,rare,0,2020-06-21T00:45:45Z,sub103
two-step-fixation,114,541326,0.0-61.0-2.17,TRUE,FALSE,FALSE,TRUE,"""event"",""trial"",""time""
""fullscreenenter"",""5"",""15124""
","
","
","""event"",""trial"",""time""
""fullscreenenter"",""5"",""15124""
","
",NA,images/earth.jpg,NA,NA,NA,NA,NA,NA,NA,NA,NA,NA,NA,NA,NA,fixation,NA,NA,NA,NA,NA,NA,sub103
d3-animate-choice,115,543725,0.0-61.0-0.18,TRUE,FALSE,FALSE,TRUE,"""event"",""trial"",""time""
""fullscreenenter"",""5"",""15124""
","
","
","""event"",""trial"",""time""
""fullscreenenter"",""5"",""15124""
","
",383.8200000000652,NA,48,NA,NA,3000,1,NA,NA,images/earth.jpg,images/tutrocket1,images/tutrocket2,null,images/tutrocket1,NA,1,practice,null,2,NA,NA,NA,sub103
d3-animate-choice,116,546565,0.0-61.0-1.18,TRUE,FALSE,FALSE,TRUE,"""event"",""trial"",""time""
""fullscreenenter"",""5"",""15124""
","
","
","""event"",""trial"",""time""
""fullscreenenter"",""5"",""15124""
","
",536.4650000002002,NA,32,NA,NA,3000,1,"823.7650000001304,1553.5350000000326",4832,images/tutyellowplanet.jpg,images/tutalien4,images/tutalien3,images/tutrocket1,images/tutalien4,images/nothing.png,2,practice,true,NA,common,0,2020-06-21T00:45:52Z,sub103
two-step-fixation,117,547573,0.0-61.0-2.18,TRUE,FALSE,FALSE,TRUE,"""event"",""trial"",""time""
""fullscreenenter"",""5"",""15124""
","
","
","""event"",""trial"",""time""
""fullscreenenter"",""5"",""15124""
","
",NA,images/earth.jpg,NA,NA,NA,NA,NA,NA,NA,NA,NA,NA,NA,NA,NA,fixation,NA,NA,NA,NA,NA,NA,sub103
d3-animate-choice,118,549945,0.0-61.0-0.19,TRUE,FALSE,FALSE,TRUE,"""event"",""trial"",""time""
""fullscreenenter"",""5"",""15124""
","
","
","""event"",""trial"",""time""
""fullscreenenter"",""5"",""15124""
","
",360.3049999999348,NA,49,NA,NA,3000,1,NA,NA,images/earth.jpg,images/tutrocket1,images/tutrocket2,null,images/tutrocket2,NA,1,practice,null,1,NA,NA,NA,sub103
d3-animate-choice,119,552332,0.0-61.0-1.19,TRUE,FALSE,FALSE,TRUE,"""event"",""trial"",""time""
""fullscreenenter"",""5"",""15124""
","
","
","""event"",""trial"",""time""
""fullscreenenter"",""5"",""15124""
","
",377.9099999999162,NA,49,NA,NA,3000,1,"980.0049999998882,1826.654999999795",3232,images/tutgreenplanet.jpg,images/tutalien2,images/tutalien1,images/tutrocket2,images/tutalien1,images/nothing.png,2,practice,true,1,common,0,2020-06-21T00:45:57Z,sub103
two-step-fixation,120,553344,0.0-61.0-2.19,TRUE,FALSE,FALSE,TRUE,"""event"",""trial"",""time""
""fullscreenenter"",""5"",""15124""
","
","
","""event"",""trial"",""time""
""fullscreenenter"",""5"",""15124""
","
",NA,images/earth.jpg,NA,NA,NA,NA,NA,NA,NA,NA,NA,NA,NA,NA,NA,fixation,NA,NA,NA,NA,NA,NA,sub103
d3-instructions,121,560419,0.0-62.0,TRUE,FALSE,FALSE,TRUE,"""event"",""trial"",""time""
""fullscreenenter"",""5"",""15124""
","
","
","""event"",""trial"",""time""
""fullscreenenter"",""5"",""15124""
","
",NA,NA,NA,NA,NA,NA,NA,NA,NA,NA,NA,NA,NA,NA,NA,NA,NA,NA,NA,NA,NA,NA,sub103
audio-keyboard-response,122,564184,0.0-63.0,TRUE,FALSE,FALSE,TRUE,"""event"",""trial"",""time""
""fullscreenenter"",""5"",""15124""
","
","
","""event"",""trial"",""time""
""fullscreenenter"",""5"",""15124""
","
",3760,audio/instructions/treasure_feedback.wav,32,NA,NA,NA,NA,NA,NA,NA,NA,NA,NA,NA,NA,NA,NA,NA,NA,NA,NA,NA,sub103
d3-instructions,123,585121,0.0-64.0,TRUE,FALSE,FALSE,TRUE,"""event"",""trial"",""time""
""fullscreenenter"",""5"",""15124""
""blur"",""124"",""590028""
""focus"",""124"",""593327""
","""event"",""trial"",""time""
""blur"",""124"",""590028""
","""event"",""trial"",""time""
""focus"",""124"",""593327""
","""event"",""trial"",""time""
""fullscreenenter"",""5"",""15124""
","
",NA,NA,NA,NA,NA,NA,NA,NA,NA,NA,NA,NA,NA,NA,NA,NA,NA,NA,NA,NA,NA,NA,sub103
d3-instructions,124,602730,0.0-65.0,TRUE,FALSE,FALSE,TRUE,"""event"",""trial"",""time""
""fullscreenenter"",""5"",""15124""
""blur"",""124"",""590028""
""focus"",""124"",""593327""
","""event"",""trial"",""time""
""blur"",""124"",""590028""
","""event"",""trial"",""time""
""focus"",""124"",""593327""
","""event"",""trial"",""time""
""fullscreenenter"",""5"",""15124""
","
",NA,NA,NA,NA,NA,NA,NA,NA,NA,NA,NA,NA,NA,NA,NA,NA,NA,NA,NA,NA,NA,NA,sub103
d3-instructions,125,629518,0.0-66.0,TRUE,FALSE,FALSE,TRUE,"""event"",""trial"",""time""
""fullscreenenter"",""5"",""15124""
""blur"",""124"",""590028""
""focus"",""124"",""593327""
","""event"",""trial"",""time""
""blur"",""124"",""590028""
","""event"",""trial"",""time""
""focus"",""124"",""593327""
","""event"",""trial"",""time""
""fullscreenenter"",""5"",""15124""
","
",NA,NA,NA,NA,NA,NA,NA,NA,NA,NA,NA,NA,NA,NA,NA,NA,NA,NA,NA,NA,NA,NA,sub103
d3-instructions,126,644750,0.0-67.0,TRUE,FALSE,FALSE,TRUE,"""event"",""trial"",""time""
""fullscreenenter"",""5"",""15124""
""blur"",""124"",""590028""
""focus"",""124"",""593327""
","""event"",""trial"",""time""
""blur"",""124"",""590028""
","""event"",""trial"",""time""
""focus"",""124"",""593327""
","""event"",""trial"",""time""
""fullscreenenter"",""5"",""15124""
","
",NA,NA,NA,NA,NA,NA,NA,NA,NA,NA,NA,NA,NA,NA,NA,NA,NA,NA,NA,NA,NA,NA,sub103
d3-instructions,127,653714,0.0-68.0,TRUE,FALSE,FALSE,TRUE,"""event"",""trial"",""time""
""fullscreenenter"",""5"",""15124""
""blur"",""124"",""590028""
""focus"",""124"",""593327""
","""event"",""trial"",""time""
""blur"",""124"",""590028""
","""event"",""trial"",""time""
""focus"",""124"",""593327""
","""event"",""trial"",""time""
""fullscreenenter"",""5"",""15124""
","
",NA,NA,NA,NA,NA,NA,NA,NA,NA,NA,NA,NA,NA,NA,NA,NA,NA,NA,NA,NA,NA,NA,sub103
instructions-quiz,128,661852,0.0-69.0,TRUE,FALSE,FALSE,TRUE,"""event"",""trial"",""time""
""fullscreenenter"",""5"",""15124""
""blur"",""124"",""590028""
""focus"",""124"",""593327""
","""event"",""trial"",""time""
""blur"",""124"",""590028""
","""event"",""trial"",""time""
""focus"",""124"",""593327""
","""event"",""trial"",""time""
""fullscreenenter"",""5"",""15124""
","
",8131.755000000121,audio/quiz/Q1_Prompt.wav,NA,1,NA,NA,NA,NA,NA,NA,NA,NA,NA,NA,NA,NA,NA,NA,NA,NA,NA,NA,sub103
audio-keyboard-response,129,671025,0.0-70.0,TRUE,FALSE,FALSE,TRUE,"""event"",""trial"",""time""
""fullscreenenter"",""5"",""15124""
""blur"",""124"",""590028""
""focus"",""124"",""593327""
","""event"",""trial"",""time""
""blur"",""124"",""590028""
","""event"",""trial"",""time""
""focus"",""124"",""593327""
","""event"",""trial"",""time""
""fullscreenenter"",""5"",""15124""
","
",null,audio/quiz/Q1_Correct.wav,null,NA,NA,NA,NA,NA,NA,NA,NA,NA,NA,NA,NA,NA,NA,NA,NA,NA,NA,NA,sub103
instructions-quiz,130,680445,0.0-71.0,TRUE,FALSE,FALSE,TRUE,"""event"",""trial"",""time""
""fullscreenenter"",""5"",""15124""
""blur"",""124"",""590028""
""focus"",""124"",""593327""
","""event"",""trial"",""time""
""blur"",""124"",""590028""
","""event"",""trial"",""time""
""focus"",""124"",""593327""
","""event"",""trial"",""time""
""fullscreenenter"",""5"",""15124""
","
",9416.764999999898,audio/quiz/Q2_Prompt.wav,NA,1,NA,NA,NA,NA,NA,NA,NA,NA,NA,NA,NA,NA,NA,NA,NA,NA,NA,NA,sub103
audio-keyboard-response,131,694524,0.0-72.0,TRUE,FALSE,FALSE,TRUE,"""event"",""trial"",""time""
""fullscreenenter"",""5"",""15124""
""blur"",""124"",""590028""
""focus"",""124"",""593327""
","""event"",""trial"",""time""
""blur"",""124"",""590028""
","""event"",""trial"",""time""
""focus"",""124"",""593327""
","""event"",""trial"",""time""
""fullscreenenter"",""5"",""15124""
","
",null,audio/quiz/Q2_Incorrect.wav,null,NA,NA,NA,NA,NA,NA,NA,NA,NA,NA,NA,NA,NA,NA,NA,NA,NA,NA,NA,sub103
instructions-quiz,132,699525,0.0-73.0,TRUE,FALSE,FALSE,TRUE,"""event"",""trial"",""time""
""fullscreenenter"",""5"",""15124""
""blur"",""124"",""590028""
""focus"",""124"",""593327""
","""event"",""trial"",""time""
""blur"",""124"",""590028""
","""event"",""trial"",""time""
""focus"",""124"",""593327""
","""event"",""trial"",""time""
""fullscreenenter"",""5"",""15124""
","
",4997.700000000186,audio/quiz/Q3_Prompt.wav,NA,1,NA,NA,NA,NA,NA,NA,NA,NA,NA,NA,NA,NA,NA,NA,NA,NA,NA,NA,sub103
audio-keyboard-response,133,705324,0.0-74.0,TRUE,FALSE,FALSE,TRUE,"""event"",""trial"",""time""
""fullscreenenter"",""5"",""15124""
""blur"",""124"",""590028""
""focus"",""124"",""593327""
","""event"",""trial"",""time""
""blur"",""124"",""590028""
","""event"",""trial"",""time""
""focus"",""124"",""593327""
","""event"",""trial"",""time""
""fullscreenenter"",""5"",""15124""
","
",null,audio/quiz/Q3_Correct.wav,null,NA,NA,NA,NA,NA,NA,NA,NA,NA,NA,NA,NA,NA,NA,NA,NA,NA,NA,NA,sub103
d3-instructions,134,717520,0.0-75.0,TRUE,FALSE,FALSE,TRUE,"""event"",""trial"",""time""
""fullscreenenter"",""5"",""15124""
""blur"",""124"",""590028""
""focus"",""124"",""593327""
","""event"",""trial"",""time""
""blur"",""124"",""590028""
","""event"",""trial"",""time""
""focus"",""124"",""593327""
","""event"",""trial"",""time""
""fullscreenenter"",""5"",""15124""
","
",NA,NA,NA,NA,NA,NA,NA,NA,NA,NA,NA,NA,NA,NA,NA,NA,NA,NA,NA,NA,NA,NA,sub103
d3-animate-choice,135,720502,0.0-76.0-0.0,TRUE,FALSE,FALSE,TRUE,"""event"",""trial"",""time""
""fullscreenenter"",""5"",""15124""
""blur"",""124"",""590028""
""focus"",""124"",""593327""
","""event"",""trial"",""time""
""blur"",""124"",""590028""
","""event"",""trial"",""time""
""focus"",""124"",""593327""
","""event"",""trial"",""time""
""fullscreenenter"",""5"",""15124""
","
",974.3299999999581,NA,49,NA,NA,3000,1,"1320.5649999999441,1744.8049999998184",3232,images/earth.jpg,images/rocket2,images/rocket1,null,images/rocket1,NA,1,real,null,1,NA,NA,NA,sub103
d3-animate-choice,136,723110,0.0-76.0-1.0,TRUE,FALSE,FALSE,TRUE,"""event"",""trial"",""time""
""fullscreenenter"",""5"",""15124""
""blur"",""124"",""590028""
""focus"",""124"",""593327""
","""event"",""trial"",""time""
""blur"",""124"",""590028""
","""event"",""trial"",""time""
""focus"",""124"",""593327""
","""event"",""trial"",""time""
""fullscreenenter"",""5"",""15124""
","
",595.809999999823,NA,49,NA,NA,3000,1,990.6649999998044,32,images/purpleplanet.jpg,images/alien4,images/alien3,images/rocket1,images/alien3,images/nothing.png,2,real,true,1,common,0,2020-06-21T00:48:48Z,sub103
two-step-fixation,137,724118,0.0-76.0-2.0,TRUE,FALSE,FALSE,TRUE,"""event"",""trial"",""time""
""fullscreenenter"",""5"",""15124""
""blur"",""124"",""590028""
""focus"",""124"",""593327""
","""event"",""trial"",""time""
""blur"",""124"",""590028""
","""event"",""trial"",""time""
""focus"",""124"",""593327""
","""event"",""trial"",""time""
""fullscreenenter"",""5"",""15124""
","
",NA,images/earth.jpg,NA,NA,NA,NA,NA,NA,NA,NA,NA,NA,NA,NA,NA,fixation,NA,NA,NA,NA,NA,NA,sub103
d3-animate-choice,138,726481,0.0-76.0-0.1,TRUE,FALSE,FALSE,TRUE,"""event"",""trial"",""time""
""fullscreenenter"",""5"",""15124""
""blur"",""124"",""590028""
""focus"",""124"",""593327""
","""event"",""trial"",""time""
""blur"",""124"",""590028""
","""event"",""trial"",""time""
""focus"",""124"",""593327""
","""event"",""trial"",""time""
""fullscreenenter"",""5"",""15124""
","
",355.3400000000838,NA,49,NA,NA,3000,1,520.5949999999721,32,images/earth.jpg,images/rocket2,images/rocket1,null,images/rocket1,NA,1,real,null,1,NA,NA,NA,sub103
d3-animate-choice,139,728731,0.0-76.0-1.1,TRUE,FALSE,FALSE,TRUE,"""event"",""trial"",""time""
""fullscreenenter"",""5"",""15124""
""blur"",""124"",""590028""
""focus"",""124"",""593327""
","""event"",""trial"",""time""
""blur"",""124"",""590028""
","""event"",""trial"",""time""
""focus"",""124"",""593327""
","""event"",""trial"",""time""
""fullscreenenter"",""5"",""15124""
","
",233.80000000016298,NA,49,NA,NA,3000,1,419.41500000003725,32,images/purpleplanet.jpg,images/alien4,images/alien3,images/rocket1,images/alien3,images/t.png,2,real,true,1,common,1,2020-06-21T00:48:54Z,sub103
two-step-fixation,140,729741,0.0-76.0-2.1,TRUE,FALSE,FALSE,TRUE,"""event"",""trial"",""time""
""fullscreenenter"",""5"",""15124""
""blur"",""124"",""590028""
""focus"",""124"",""593327""
","""event"",""trial"",""time""
""blur"",""124"",""590028""
","""event"",""trial"",""time""
""focus"",""124"",""593327""
","""event"",""trial"",""time""
""fullscreenenter"",""5"",""15124""
","
",NA,images/earth.jpg,NA,NA,NA,NA,NA,NA,NA,NA,NA,NA,NA,NA,NA,fixation,NA,NA,NA,NA,NA,NA,sub103
d3-animate-choice,141,731982,0.0-76.0-0.2,TRUE,FALSE,FALSE,TRUE,"""event"",""trial"",""time""
""fullscreenenter"",""5"",""15124""
""blur"",""124"",""590028""
""focus"",""124"",""593327""
","""event"",""trial"",""time""
""blur"",""124"",""590028""
","""event"",""trial"",""time""
""focus"",""124"",""593327""
","""event"",""trial"",""time""
""fullscreenenter"",""5"",""15124""
","
",228.30000000004657,NA,49,NA,NA,3000,1,400.0799999999581,32,images/earth.jpg,images/rocket2,images/rocket1,null,images/rocket1,NA,1,real,null,1,NA,NA,NA,sub103
d3-animate-choice,142,734116,0.0-76.0-1.2,TRUE,FALSE,FALSE,TRUE,"""event"",""trial"",""time""
""fullscreenenter"",""5"",""15124""
""blur"",""124"",""590028""
""focus"",""124"",""593327""
","""event"",""trial"",""time""
""blur"",""124"",""590028""
","""event"",""trial"",""time""
""focus"",""124"",""593327""
","""event"",""trial"",""time""
""fullscreenenter"",""5"",""15124""
","
",127.42000000004191,NA,49,NA,NA,3000,1,268.7399999999907,32,images/redplanet1.jpg,images/alien2,images/alien1,images/rocket1,images/alien1,images/nothing.png,2,real,false,1,rare,0,2020-06-21T00:48:59Z,sub103
two-step-fixation,143,735121,0.0-76.0-2.2,TRUE,FALSE,FALSE,TRUE,"""event"",""trial"",""time""
""fullscreenenter"",""5"",""15124""
""blur"",""124"",""590028""
""focus"",""124"",""593327""
","""event"",""trial"",""time""
""blur"",""124"",""590028""
","""event"",""trial"",""time""
""focus"",""124"",""593327""
","""event"",""trial"",""time""
""fullscreenenter"",""5"",""15124""
","
",NA,images/earth.jpg,NA,NA,NA,NA,NA,NA,NA,NA,NA,NA,NA,NA,NA,fixation,NA,NA,NA,NA,NA,NA,sub103
d3-animate-choice,144,737612,0.0-76.0-0.3,TRUE,FALSE,FALSE,TRUE,"""event"",""trial"",""time""
""fullscreenenter"",""5"",""15124""
""blur"",""124"",""590028""
""focus"",""124"",""593327""
","""event"",""trial"",""time""
""blur"",""124"",""590028""
","""event"",""trial"",""time""
""focus"",""124"",""593327""
","""event"",""trial"",""time""
""fullscreenenter"",""5"",""15124""
","
",483.3800000001211,NA,49,NA,NA,3000,1,626.1600000000326,32,images/earth.jpg,images/rocket2,images/rocket1,null,images/rocket1,NA,1,real,null,1,NA,NA,NA,sub103
d3-animate-choice,145,739859,0.0-76.0-1.3,TRUE,FALSE,FALSE,TRUE,"""event"",""trial"",""time""
""fullscreenenter"",""5"",""15124""
""blur"",""124"",""590028""
""focus"",""124"",""593327""
","""event"",""trial"",""time""
""blur"",""124"",""590028""
","""event"",""trial"",""time""
""focus"",""124"",""593327""
","""event"",""trial"",""time""
""fullscreenenter"",""5"",""15124""
","
",240.0800000000745,NA,49,NA,NA,3000,1,361.3549999999814,32,images/purpleplanet.jpg,images/alien4,images/alien3,images/rocket1,images/alien3,images/nothing.png,2,real,true,1,common,0,2020-06-21T00:49:05Z,sub103
two-step-fixation,146,740866,0.0-76.0-2.3,TRUE,FALSE,FALSE,TRUE,"""event"",""trial"",""time""
""fullscreenenter"",""5"",""15124""
""blur"",""124"",""590028""
""focus"",""124"",""593327""
","""event"",""trial"",""time""
""blur"",""124"",""590028""
","""event"",""trial"",""time""
""focus"",""124"",""593327""
","""event"",""trial"",""time""
""fullscreenenter"",""5"",""15124""
","
",NA,images/earth.jpg,NA,NA,NA,NA,NA,NA,NA,NA,NA,NA,NA,NA,NA,fixation,NA,NA,NA,NA,NA,NA,sub103
d3-animate-choice,147,743267,0.0-76.0-0.4,TRUE,FALSE,FALSE,TRUE,"""event"",""trial"",""time""
""fullscreenenter"",""5"",""15124""
""blur"",""124"",""590028""
""focus"",""124"",""593327""
","""event"",""trial"",""time""
""blur"",""124"",""590028""
","""event"",""trial"",""time""
""focus"",""124"",""593327""
","""event"",""trial"",""time""
""fullscreenenter"",""5"",""15124""
","
",394.23499999998603,NA,49,NA,NA,3000,1,688.2799999997951,32,images/earth.jpg,images/rocket2,images/rocket1,null,images/rocket1,NA,1,real,null,1,NA,NA,NA,sub103
d3-animate-choice,148,745529,0.0-76.0-1.4,TRUE,FALSE,FALSE,TRUE,"""event"",""trial"",""time""
""fullscreenenter"",""5"",""15124""
""blur"",""124"",""590028""
""focus"",""124"",""593327""
","""event"",""trial"",""time""
""blur"",""124"",""590028""
","""event"",""trial"",""time""
""focus"",""124"",""593327""
","""event"",""trial"",""time""
""fullscreenenter"",""5"",""15124""
","
",248.10499999986496,NA,49,NA,NA,3000,1,418.0699999999488,32,images/purpleplanet.jpg,images/alien4,images/alien3,images/rocket1,images/alien3,images/t.png,2,real,true,1,common,1,2020-06-21T00:49:10Z,sub103
two-step-fixation,149,746541,0.0-76.0-2.4,TRUE,FALSE,FALSE,TRUE,"""event"",""trial"",""time""
""fullscreenenter"",""5"",""15124""
""blur"",""124"",""590028""
""focus"",""124"",""593327""
","""event"",""trial"",""time""
""blur"",""124"",""590028""
","""event"",""trial"",""time""
""focus"",""124"",""593327""
","""event"",""trial"",""time""
""fullscreenenter"",""5"",""15124""
","
",NA,images/earth.jpg,NA,NA,NA,NA,NA,NA,NA,NA,NA,NA,NA,NA,NA,fixation,NA,NA,NA,NA,NA,NA,sub103
d3-animate-choice,150,748914,0.0-76.0-0.5,TRUE,FALSE,FALSE,TRUE,"""event"",""trial"",""time""
""fullscreenenter"",""5"",""15124""
""blur"",""124"",""590028""
""focus"",""124"",""593327""
","""event"",""trial"",""time""
""blur"",""124"",""590028""
","""event"",""trial"",""time""
""focus"",""124"",""593327""
","""event"",""trial"",""time""
""fullscreenenter"",""5"",""15124""
","
",366.58499999996275,NA,49,NA,NA,3000,1,518.4399999998277,32,images/earth.jpg,images/rocket2,images/rocket1,null,images/rocket1,NA,1,real,null,1,NA,NA,NA,sub103
d3-animate-choice,151,751144,0.0-76.0-1.5,TRUE,FALSE,FALSE,TRUE,"""event"",""trial"",""time""
""fullscreenenter"",""5"",""15124""
""blur"",""124"",""590028""
""focus"",""124"",""593327""
","""event"",""trial"",""time""
""blur"",""124"",""590028""
","""event"",""trial"",""time""
""focus"",""124"",""593327""
","""event"",""trial"",""time""
""fullscreenenter"",""5"",""15124""
","
",215.11999999999534,NA,49,NA,NA,3000,1,314.10499999986496,32,images/purpleplanet.jpg,images/alien4,images/alien3,images/rocket1,images/alien3,images/nothing.png,2,real,true,1,common,0,2020-06-21T00:49:16Z,sub103
two-step-fixation,152,752156,0.0-76.0-2.5,TRUE,FALSE,FALSE,TRUE,"""event"",""trial"",""time""
""fullscreenenter"",""5"",""15124""
""blur"",""124"",""590028""
""focus"",""124"",""593327""
","""event"",""trial"",""time""
""blur"",""124"",""590028""
","""event"",""trial"",""time""
""focus"",""124"",""593327""
","""event"",""trial"",""time""
""fullscreenenter"",""5"",""15124""
","
",NA,images/earth.jpg,NA,NA,NA,NA,NA,NA,NA,NA,NA,NA,NA,NA,NA,fixation,NA,NA,NA,NA,NA,NA,sub103
d3-animate-choice,153,754706,0.0-76.0-0.6,TRUE,FALSE,FALSE,TRUE,"""event"",""trial"",""time""
""fullscreenenter"",""5"",""15124""
""blur"",""124"",""590028""
""focus"",""124"",""593327""
","""event"",""trial"",""time""
""blur"",""124"",""590028""
","""event"",""trial"",""time""
""focus"",""124"",""593327""
","""event"",""trial"",""time""
""fullscreenenter"",""5"",""15124""
","
",530.0899999999674,NA,49,NA,NA,3000,1,725.9149999999208,32,images/earth.jpg,images/rocket2,images/rocket1,null,images/rocket1,NA,1,real,null,1,NA,NA,NA,sub103
d3-animate-choice,154,756789,0.0-76.0-1.6,TRUE,FALSE,FALSE,TRUE,"""event"",""trial"",""time""
""fullscreenenter"",""5"",""15124""
""blur"",""124"",""590028""
""focus"",""124"",""593327""
","""event"",""trial"",""time""
""blur"",""124"",""590028""
","""event"",""trial"",""time""
""focus"",""124"",""593327""
","""event"",""trial"",""time""
""fullscreenenter"",""5"",""15124""
","
",71.33500000007916,NA,49,NA,NA,3000,1,235.84000000008382,32,images/purpleplanet.jpg,images/alien4,images/alien3,images/rocket1,images/alien3,images/t.png,2,real,true,1,common,1,2020-06-21T00:49:22Z,sub103
two-step-fixation,155,757805,0.0-76.0-2.6,TRUE,FALSE,FALSE,TRUE,"""event"",""trial"",""time""
""fullscreenenter"",""5"",""15124""
""blur"",""124"",""590028""
""focus"",""124"",""593327""
","""event"",""trial"",""time""
""blur"",""124"",""590028""
","""event"",""trial"",""time""
""focus"",""124"",""593327""
","""event"",""trial"",""time""
""fullscreenenter"",""5"",""15124""
","
",NA,images/earth.jpg,NA,NA,NA,NA,NA,NA,NA,NA,NA,NA,NA,NA,NA,fixation,NA,NA,NA,NA,NA,NA,sub103
d3-animate-choice,156,760366,0.0-76.0-0.7,TRUE,FALSE,FALSE,TRUE,"""event"",""trial"",""time""
""fullscreenenter"",""5"",""15124""
""blur"",""124"",""590028""
""focus"",""124"",""593327""
","""event"",""trial"",""time""
""blur"",""124"",""590028""
","""event"",""trial"",""time""
""focus"",""124"",""593327""
","""event"",""trial"",""time""
""fullscreenenter"",""5"",""15124""
","
",550.4400000000605,NA,49,NA,NA,3000,1,758.7049999999581,32,images/earth.jpg,images/rocket2,images/rocket1,null,images/rocket1,NA,1,real,null,1,NA,NA,NA,sub103
d3-animate-choice,157,762404,0.0-76.0-1.7,TRUE,FALSE,FALSE,TRUE,"""event"",""trial"",""time""
""fullscreenenter"",""5"",""15124""
""blur"",""124"",""590028""
""focus"",""124"",""593327""
","""event"",""trial"",""time""
""blur"",""124"",""590028""
","""event"",""trial"",""time""
""focus"",""124"",""593327""
","""event"",""trial"",""time""
""fullscreenenter"",""5"",""15124""
","
",22.979999999981374,NA,49,NA,NA,3000,1,223.49499999999534,32,images/purpleplanet.jpg,images/alien4,images/alien3,images/rocket1,images/alien3,images/nothing.png,2,real,true,1,common,0,2020-06-21T00:49:27Z,sub103
two-step-fixation,158,763411,0.0-76.0-2.7,TRUE,FALSE,FALSE,TRUE,"""event"",""trial"",""time""
""fullscreenenter"",""5"",""15124""
""blur"",""124"",""590028""
""focus"",""124"",""593327""
","""event"",""trial"",""time""
""blur"",""124"",""590028""
","""event"",""trial"",""time""
""focus"",""124"",""593327""
","""event"",""trial"",""time""
""fullscreenenter"",""5"",""15124""
","
",NA,images/earth.jpg,NA,NA,NA,NA,NA,NA,NA,NA,NA,NA,NA,NA,NA,fixation,NA,NA,NA,NA,NA,NA,sub103
d3-animate-choice,159,765882,0.0-76.0-0.8,TRUE,FALSE,FALSE,TRUE,"""event"",""trial"",""time""
""fullscreenenter"",""5"",""15124""
""blur"",""124"",""590028""
""focus"",""124"",""593327""
","""event"",""trial"",""time""
""blur"",""124"",""590028""
","""event"",""trial"",""time""
""focus"",""124"",""593327""
","""event"",""trial"",""time""
""fullscreenenter"",""5"",""15124""
","
",463.1450000000186,NA,49,NA,NA,3000,1,"605.5999999998603,1355.8249999999534,1524.655000000028",324932,images/earth.jpg,images/rocket2,images/rocket1,null,images/rocket1,NA,1,real,null,1,NA,NA,NA,sub103
d3-animate-choice,160,768286,0.0-76.0-1.8,TRUE,FALSE,FALSE,TRUE,"""event"",""trial"",""time""
""fullscreenenter"",""5"",""15124""
""blur"",""124"",""590028""
""focus"",""124"",""593327""
","""event"",""trial"",""time""
""blur"",""124"",""590028""
","""event"",""trial"",""time""
""focus"",""124"",""593327""
","""event"",""trial"",""time""
""fullscreenenter"",""5"",""15124""
","
",394.9350000000559,NA,49,NA,NA,3000,1,496.18499999993946,32,images/purpleplanet.jpg,images/alien4,images/alien3,images/rocket1,images/alien3,images/nothing.png,2,real,true,1,common,0,2020-06-21T00:49:33Z,sub103
two-step-fixation,161,769295,0.0-76.0-2.8,TRUE,FALSE,FALSE,TRUE,"""event"",""trial"",""time""
""fullscreenenter"",""5"",""15124""
""blur"",""124"",""590028""
""focus"",""124"",""593327""
","""event"",""trial"",""time""
""blur"",""124"",""590028""
","""event"",""trial"",""time""
""focus"",""124"",""593327""
","""event"",""trial"",""time""
""fullscreenenter"",""5"",""15124""
","
",NA,images/earth.jpg,NA,NA,NA,NA,NA,NA,NA,NA,NA,NA,NA,NA,NA,fixation,NA,NA,NA,NA,NA,NA,sub103
d3-animate-choice,162,771711,0.0-76.0-0.9,TRUE,FALSE,FALSE,TRUE,"""event"",""trial"",""time""
""fullscreenenter"",""5"",""15124""
""blur"",""124"",""590028""
""focus"",""124"",""593327""
","""event"",""trial"",""time""
""blur"",""124"",""590028""
","""event"",""trial"",""time""
""focus"",""124"",""593327""
","""event"",""trial"",""time""
""fullscreenenter"",""5"",""15124""
","
",407.5350000000326,NA,49,NA,NA,3000,1,539.8250000000698,32,images/earth.jpg,images/rocket2,images/rocket1,null,images/rocket1,NA,1,real,null,1,NA,NA,NA,sub103
d3-animate-choice,163,774060,0.0-76.0-1.9,TRUE,FALSE,FALSE,TRUE,"""event"",""trial"",""time""
""fullscreenenter"",""5"",""15124""
""blur"",""124"",""590028""
""focus"",""124"",""593327""
","""event"",""trial"",""time""
""blur"",""124"",""590028""
","""event"",""trial"",""time""
""focus"",""124"",""593327""
","""event"",""trial"",""time""
""fullscreenenter"",""5"",""15124""
","
",338.28499999979977,NA,49,NA,NA,3000,1,412.39999999990687,32,images/purpleplanet.jpg,images/alien4,images/alien3,images/rocket1,images/alien3,images/nothing.png,2,real,true,1,common,0,2020-06-21T00:49:39Z,sub103
two-step-fixation,164,775069,0.0-76.0-2.9,TRUE,FALSE,FALSE,TRUE,"""event"",""trial"",""time""
""fullscreenenter"",""5"",""15124""
""blur"",""124"",""590028""
""focus"",""124"",""593327""
","""event"",""trial"",""time""
""blur"",""124"",""590028""
","""event"",""trial"",""time""
""focus"",""124"",""593327""
","""event"",""trial"",""time""
""fullscreenenter"",""5"",""15124""
","
",NA,images/earth.jpg,NA,NA,NA,NA,NA,NA,NA,NA,NA,NA,NA,NA,NA,fixation,NA,NA,NA,NA,NA,NA,sub103
d3-animate-choice,165,777620,0.0-76.0-0.10,TRUE,FALSE,FALSE,TRUE,"""event"",""trial"",""time""
""fullscreenenter"",""5"",""15124""
""blur"",""124"",""590028""
""focus"",""124"",""593327""
","""event"",""trial"",""time""
""blur"",""124"",""590028""
","""event"",""trial"",""time""
""focus"",""124"",""593327""
","""event"",""trial"",""time""
""fullscreenenter"",""5"",""15124""
","
",537.535000000149,NA,49,NA,NA,3000,1,"638.5050000001211,2026.4949999999953,2202.70000000007",324932,images/earth.jpg,images/rocket2,images/rocket1,null,images/rocket1,NA,1,real,null,1,NA,NA,NA,sub103
d3-animate-choice,166,779960,0.0-76.0-1.10,TRUE,FALSE,FALSE,TRUE,"""event"",""trial"",""time""
""fullscreenenter"",""5"",""15124""
""blur"",""124"",""590028""
""focus"",""124"",""593327""
","""event"",""trial"",""time""
""blur"",""124"",""590028""
","""event"",""trial"",""time""
""focus"",""124"",""593327""
","""event"",""trial"",""time""
""fullscreenenter"",""5"",""15124""
","
",330.85000000009313,NA,49,NA,NA,3000,1,558.9100000000326,32,images/redplanet1.jpg,images/alien2,images/alien1,images/rocket1,images/alien1,images/nothing.png,2,real,false,1,rare,0,2020-06-21T00:49:45Z,sub103
two-step-fixation,167,780967,0.0-76.0-2.10,TRUE,FALSE,FALSE,TRUE,"""event"",""trial"",""time""
""fullscreenenter"",""5"",""15124""
""blur"",""124"",""590028""
""focus"",""124"",""593327""
","""event"",""trial"",""time""
""blur"",""124"",""590028""
","""event"",""trial"",""time""
""focus"",""124"",""593327""
","""event"",""trial"",""time""
""fullscreenenter"",""5"",""15124""
","
",NA,images/earth.jpg,NA,NA,NA,NA,NA,NA,NA,NA,NA,NA,NA,NA,NA,fixation,NA,NA,NA,NA,NA,NA,sub103
d3-animate-choice,168,783381,0.0-76.0-0.11,TRUE,FALSE,FALSE,TRUE,"""event"",""trial"",""time""
""fullscreenenter"",""5"",""15124""
""blur"",""124"",""590028""
""focus"",""124"",""593327""
","""event"",""trial"",""time""
""blur"",""124"",""590028""
","""event"",""trial"",""time""
""focus"",""124"",""593327""
","""event"",""trial"",""time""
""fullscreenenter"",""5"",""15124""
","
",403.70999999996275,NA,49,NA,NA,3000,1,"543.160000000149,1488.1350000000093",3232,images/earth.jpg,images/rocket2,images/rocket1,null,images/rocket1,NA,1,real,null,1,NA,NA,NA,sub103
d3-animate-choice,169,785852,0.0-76.0-1.11,TRUE,FALSE,FALSE,TRUE,"""event"",""trial"",""time""
""fullscreenenter"",""5"",""15124""
""blur"",""124"",""590028""
""focus"",""124"",""593327""
","""event"",""trial"",""time""
""blur"",""124"",""590028""
","""event"",""trial"",""time""
""focus"",""124"",""593327""
","""event"",""trial"",""time""
""fullscreenenter"",""5"",""15124""
","
",466.9300000000512,NA,49,NA,NA,3000,1,469.33499999996275,32,images/purpleplanet.jpg,images/alien4,images/alien3,images/rocket1,images/alien3,images/t.png,2,real,true,1,common,1,2020-06-21T00:49:51Z,sub103
two-step-fixation,170,786864,0.0-76.0-2.11,TRUE,FALSE,FALSE,TRUE,"""event"",""trial"",""time""
""fullscreenenter"",""5"",""15124""
""blur"",""124"",""590028""
""focus"",""124"",""593327""
","""event"",""trial"",""time""
""blur"",""124"",""590028""
","""event"",""trial"",""time""
""focus"",""124"",""593327""
","""event"",""trial"",""time""
""fullscreenenter"",""5"",""15124""
","
",NA,images/earth.jpg,NA,NA,NA,NA,NA,NA,NA,NA,NA,NA,NA,NA,NA,fixation,NA,NA,NA,NA,NA,NA,sub103
d3-animate-choice,171,789519,0.0-76.0-0.12,TRUE,FALSE,FALSE,TRUE,"""event"",""trial"",""time""
""fullscreenenter"",""5"",""15124""
""blur"",""124"",""590028""
""focus"",""124"",""593327""
","""event"",""trial"",""time""
""blur"",""124"",""590028""
","""event"",""trial"",""time""
""focus"",""124"",""593327""
","""event"",""trial"",""time""
""fullscreenenter"",""5"",""15124""
","
",648.4849999998696,NA,49,NA,NA,3000,1,712.3399999999674,32,images/earth.jpg,images/rocket2,images/rocket1,null,images/rocket1,NA,1,real,null,1,NA,NA,NA,sub103
d3-animate-choice,172,791926,0.0-76.0-1.12,TRUE,FALSE,FALSE,TRUE,"""event"",""trial"",""time""
""fullscreenenter"",""5"",""15124""
""blur"",""124"",""590028""
""focus"",""124"",""593327""
","""event"",""trial"",""time""
""blur"",""124"",""590028""
","""event"",""trial"",""time""
""focus"",""124"",""593327""
","""event"",""trial"",""time""
""fullscreenenter"",""5"",""15124""
","
",399.7499999998836,NA,49,NA,NA,3000,1,469.0200000000186,32,images/purpleplanet.jpg,images/alien4,images/alien3,images/rocket1,images/alien3,images/nothing.png,2,real,true,1,common,0,2020-06-21T00:49:57Z,sub103
two-step-fixation,173,792936,0.0-76.0-2.12,TRUE,FALSE,FALSE,TRUE,"""event"",""trial"",""time""
""fullscreenenter"",""5"",""15124""
""blur"",""124"",""590028""
""focus"",""124"",""593327""
","""event"",""trial"",""time""
""blur"",""124"",""590028""
","""event"",""trial"",""time""
""focus"",""124"",""593327""
","""event"",""trial"",""time""
""fullscreenenter"",""5"",""15124""
","
",NA,images/earth.jpg,NA,NA,NA,NA,NA,NA,NA,NA,NA,NA,NA,NA,NA,fixation,NA,NA,NA,NA,NA,NA,sub103
d3-animate-choice,174,795220,0.0-76.0-0.13,TRUE,FALSE,FALSE,TRUE,"""event"",""trial"",""time""
""fullscreenenter"",""5"",""15124""
""blur"",""124"",""590028""
""focus"",""124"",""593327""
","""event"",""trial"",""time""
""blur"",""124"",""590028""
","""event"",""trial"",""time""
""focus"",""124"",""593327""
","""event"",""trial"",""time""
""fullscreenenter"",""5"",""15124""
","
",269.65500000002794,NA,49,NA,NA,3000,1,507.89000000001397,32,images/earth.jpg,images/rocket2,images/rocket1,null,images/rocket1,NA,1,real,null,1,NA,NA,NA,sub103
d3-animate-choice,175,797790,0.0-76.0-1.13,TRUE,FALSE,FALSE,TRUE,"""event"",""trial"",""time""
""fullscreenenter"",""5"",""15124""
""blur"",""124"",""590028""
""focus"",""124"",""593327""
","""event"",""trial"",""time""
""blur"",""124"",""590028""
","""event"",""trial"",""time""
""focus"",""124"",""593327""
","""event"",""trial"",""time""
""fullscreenenter"",""5"",""15124""
","
",563.2150000000838,NA,49,NA,NA,3000,1,695.2100000000792,32,images/purpleplanet.jpg,images/alien4,images/alien3,images/rocket1,images/alien3,images/nothing.png,2,real,true,1,common,0,2020-06-21T00:50:03Z,sub103
two-step-fixation,176,798805,0.0-76.0-2.13,TRUE,FALSE,FALSE,TRUE,"""event"",""trial"",""time""
""fullscreenenter"",""5"",""15124""
""blur"",""124"",""590028""
""focus"",""124"",""593327""
","""event"",""trial"",""time""
""blur"",""124"",""590028""
","""event"",""trial"",""time""
""focus"",""124"",""593327""
","""event"",""trial"",""time""
""fullscreenenter"",""5"",""15124""
","
",NA,images/earth.jpg,NA,NA,NA,NA,NA,NA,NA,NA,NA,NA,NA,NA,NA,fixation,NA,NA,NA,NA,NA,NA,sub103
d3-animate-choice,177,801246,0.0-76.0-0.14,TRUE,FALSE,FALSE,TRUE,"""event"",""trial"",""time""
""fullscreenenter"",""5"",""15124""
""blur"",""124"",""590028""
""focus"",""124"",""593327""
","""event"",""trial"",""time""
""blur"",""124"",""590028""
","""event"",""trial"",""time""
""focus"",""124"",""593327""
","""event"",""trial"",""time""
""fullscreenenter"",""5"",""15124""
","
",428.15500000002794,NA,49,NA,NA,3000,1,"575.0549999999348,1924.5700000000652,2168.6049999999814",324932,images/earth.jpg,images/rocket2,images/rocket1,null,images/rocket1,NA,1,real,null,1,NA,NA,NA,sub103
d3-animate-choice,178,803472,0.0-76.0-1.14,TRUE,FALSE,FALSE,TRUE,"""event"",""trial"",""time""
""fullscreenenter"",""5"",""15124""
""blur"",""124"",""590028""
""focus"",""124"",""593327""
","""event"",""trial"",""time""
""blur"",""124"",""590028""
","""event"",""trial"",""time""
""focus"",""124"",""593327""
","""event"",""trial"",""time""
""fullscreenenter"",""5"",""15124""
","
",216.88999999989755,NA,49,NA,NA,3000,1,363.46000000007916,32,images/redplanet1.jpg,images/alien2,images/alien1,images/rocket1,images/alien1,images/nothing.png,2,real,false,1,rare,0,2020-06-21T00:50:08Z,sub103
two-step-fixation,179,804480,0.0-76.0-2.14,TRUE,FALSE,FALSE,TRUE,"""event"",""trial"",""time""
""fullscreenenter"",""5"",""15124""
""blur"",""124"",""590028""
""focus"",""124"",""593327""
","""event"",""trial"",""time""
""blur"",""124"",""590028""
","""event"",""trial"",""time""
""focus"",""124"",""593327""
","""event"",""trial"",""time""
""fullscreenenter"",""5"",""15124""
","
",NA,images/earth.jpg,NA,NA,NA,NA,NA,NA,NA,NA,NA,NA,NA,NA,NA,fixation,NA,NA,NA,NA,NA,NA,sub103
d3-animate-choice,180,807012,0.0-76.0-0.15,TRUE,FALSE,FALSE,TRUE,"""event"",""trial"",""time""
""fullscreenenter"",""5"",""15124""
""blur"",""124"",""590028""
""focus"",""124"",""593327""
","""event"",""trial"",""time""
""blur"",""124"",""590028""
","""event"",""trial"",""time""
""focus"",""124"",""593327""
","""event"",""trial"",""time""
""fullscreenenter"",""5"",""15124""
","
",525.75,NA,48,NA,NA,3000,1,"676.4149999999208,1452.6499999999069",3232,images/earth.jpg,images/rocket2,images/rocket1,null,images/rocket2,NA,1,real,null,2,NA,NA,NA,sub103
d3-animate-choice,181,809303,0.0-76.0-1.15,TRUE,FALSE,FALSE,TRUE,"""event"",""trial"",""time""
""fullscreenenter"",""5"",""15124""
""blur"",""124"",""590028""
""focus"",""124"",""593327""
","""event"",""trial"",""time""
""blur"",""124"",""590028""
","""event"",""trial"",""time""
""focus"",""124"",""593327""
","""event"",""trial"",""time""
""fullscreenenter"",""5"",""15124""
","
",278.4650000000838,NA,48,NA,NA,3000,1,397.44999999995343,32,images/redplanet1.jpg,images/alien2,images/alien1,images/rocket2,images/alien2,images/t.png,2,real,true,2,common,1,2020-06-21T00:50:14Z,sub103
two-step-fixation,182,810308,0.0-76.0-2.15,TRUE,FALSE,FALSE,TRUE,"""event"",""trial"",""time""
""fullscreenenter"",""5"",""15124""
""blur"",""124"",""590028""
""focus"",""124"",""593327""
","""event"",""trial"",""time""
""blur"",""124"",""590028""
","""event"",""trial"",""time""
""focus"",""124"",""593327""
","""event"",""trial"",""time""
""fullscreenenter"",""5"",""15124""
","
",NA,images/earth.jpg,NA,NA,NA,NA,NA,NA,NA,NA,NA,NA,NA,NA,NA,fixation,NA,NA,NA,NA,NA,NA,sub103
d3-animate-choice,183,812921,0.0-76.0-0.16,TRUE,FALSE,FALSE,TRUE,"""event"",""trial"",""time""
""fullscreenenter"",""5"",""15124""
""blur"",""124"",""590028""
""focus"",""124"",""593327""
","""event"",""trial"",""time""
""blur"",""124"",""590028""
","""event"",""trial"",""time""
""focus"",""124"",""593327""
","""event"",""trial"",""time""
""fullscreenenter"",""5"",""15124""
","
",599.2750000000233,NA,48,NA,NA,3000,1,"740.3450000002049,1909.1700000001583",3232,images/earth.jpg,images/rocket2,images/rocket1,null,images/rocket2,NA,1,real,null,2,NA,NA,NA,sub103
d3-animate-choice,184,815237,0.0-76.0-1.16,TRUE,FALSE,FALSE,TRUE,"""event"",""trial"",""time""
""fullscreenenter"",""5"",""15124""
""blur"",""124"",""590028""
""focus"",""124"",""593327""
","""event"",""trial"",""time""
""blur"",""124"",""590028""
","""event"",""trial"",""time""
""focus"",""124"",""593327""
","""event"",""trial"",""time""
""fullscreenenter"",""5"",""15124""
","
",306.94999999995343,NA,48,NA,NA,3000,1,457.7249999999767,32,images/purpleplanet.jpg,images/alien4,images/alien3,images/rocket2,images/alien4,images/nothing.png,2,real,false,2,rare,0,2020-06-21T00:50:20Z,sub103
two-step-fixation,185,816247,0.0-76.0-2.16,TRUE,FALSE,FALSE,TRUE,"""event"",""trial"",""time""
""fullscreenenter"",""5"",""15124""
""blur"",""124"",""590028""
""focus"",""124"",""593327""
","""event"",""trial"",""time""
""blur"",""124"",""590028""
","""event"",""trial"",""time""
""focus"",""124"",""593327""
","""event"",""trial"",""time""
""fullscreenenter"",""5"",""15124""
","
",NA,images/earth.jpg,NA,NA,NA,NA,NA,NA,NA,NA,NA,NA,NA,NA,NA,fixation,NA,NA,NA,NA,NA,NA,sub103
d3-animate-choice,186,818580,0.0-76.0-0.17,TRUE,FALSE,FALSE,TRUE,"""event"",""trial"",""time""
""fullscreenenter"",""5"",""15124""
""blur"",""124"",""590028""
""focus"",""124"",""593327""
","""event"",""trial"",""time""
""blur"",""124"",""590028""
","""event"",""trial"",""time""
""focus"",""124"",""593327""
","""event"",""trial"",""time""
""fullscreenenter"",""5"",""15124""
","
",324.19000000006054,NA,48,NA,NA,3000,1,"440.18499999993946,1576.704999999958",3232,images/earth.jpg,images/rocket2,images/rocket1,null,images/rocket2,NA,1,real,null,2,NA,NA,NA,sub103
d3-animate-choice,187,820850,0.0-76.0-1.17,TRUE,FALSE,FALSE,TRUE,"""event"",""trial"",""time""
""fullscreenenter"",""5"",""15124""
""blur"",""124"",""590028""
""focus"",""124"",""593327""
","""event"",""trial"",""time""
""blur"",""124"",""590028""
","""event"",""trial"",""time""
""focus"",""124"",""593327""
","""event"",""trial"",""time""
""fullscreenenter"",""5"",""15124""
","
",261.0549999999348,NA,48,NA,NA,3000,1,525.0850000000792,32,images/redplanet1.jpg,images/alien2,images/alien1,images/rocket2,images/alien2,images/t.png,2,real,true,2,common,1,2020-06-21T00:50:26Z,sub103
two-step-fixation,188,821868,0.0-76.0-2.17,TRUE,FALSE,FALSE,TRUE,"""event"",""trial"",""time""
""fullscreenenter"",""5"",""15124""
""blur"",""124"",""590028""
""focus"",""124"",""593327""
","""event"",""trial"",""time""
""blur"",""124"",""590028""
","""event"",""trial"",""time""
""focus"",""124"",""593327""
","""event"",""trial"",""time""
""fullscreenenter"",""5"",""15124""
","
",NA,images/earth.jpg,NA,NA,NA,NA,NA,NA,NA,NA,NA,NA,NA,NA,NA,fixation,NA,NA,NA,NA,NA,NA,sub103
d3-animate-choice,189,824378,0.0-76.0-0.18,TRUE,FALSE,FALSE,TRUE,"""event"",""trial"",""time""
""fullscreenenter"",""5"",""15124""
""blur"",""124"",""590028""
""focus"",""124"",""593327""
","""event"",""trial"",""time""
""blur"",""124"",""590028""
","""event"",""trial"",""time""
""focus"",""124"",""593327""
","""event"",""trial"",""time""
""fullscreenenter"",""5"",""15124""
","
",499.52499999990687,NA,48,NA,NA,3000,1,701.5699999999488,32,images/earth.jpg,images/rocket2,images/rocket1,null,images/rocket2,NA,1,real,null,2,NA,NA,NA,sub103
d3-animate-choice,190,826579,0.0-76.0-1.18,TRUE,FALSE,FALSE,TRUE,"""event"",""trial"",""time""
""fullscreenenter"",""5"",""15124""
""blur"",""124"",""590028""
""focus"",""124"",""593327""
","""event"",""trial"",""time""
""blur"",""124"",""590028""
","""event"",""trial"",""time""
""focus"",""124"",""593327""
","""event"",""trial"",""time""
""fullscreenenter"",""5"",""15124""
","
",192.85499999998137,NA,48,NA,NA,3000,1,301.72999999986496,32,images/redplanet1.jpg,images/alien2,images/alien1,images/rocket2,images/alien2,images/t.png,2,real,true,2,common,1,2020-06-21T00:50:32Z,sub103
two-step-fixation,191,827594,0.0-76.0-2.18,TRUE,FALSE,FALSE,TRUE,"""event"",""trial"",""time""
""fullscreenenter"",""5"",""15124""
""blur"",""124"",""590028""
""focus"",""124"",""593327""
","""event"",""trial"",""time""
""blur"",""124"",""590028""
","""event"",""trial"",""time""
""focus"",""124"",""593327""
","""event"",""trial"",""time""
""fullscreenenter"",""5"",""15124""
","
",NA,images/earth.jpg,NA,NA,NA,NA,NA,NA,NA,NA,NA,NA,NA,NA,NA,fixation,NA,NA,NA,NA,NA,NA,sub103
d3-animate-choice,192,830082,0.0-76.0-0.19,TRUE,FALSE,FALSE,TRUE,"""event"",""trial"",""time""
""fullscreenenter"",""5"",""15124""
""blur"",""124"",""590028""
""focus"",""124"",""593327""
","""event"",""trial"",""time""
""blur"",""124"",""590028""
","""event"",""trial"",""time""
""focus"",""124"",""593327""
","""event"",""trial"",""time""
""fullscreenenter"",""5"",""15124""
","
",478.4000000002561,NA,48,NA,NA,3000,1,"735.5100000000093,2354.109999999986",3248,images/earth.jpg,images/rocket2,images/rocket1,null,images/rocket2,NA,1,real,null,2,NA,NA,NA,sub103
d3-animate-choice,193,832768,0.0-76.0-1.19,TRUE,FALSE,FALSE,TRUE,"""event"",""trial"",""time""
""fullscreenenter"",""5"",""15124""
""blur"",""124"",""590028""
""focus"",""124"",""593327""
","""event"",""trial"",""time""
""blur"",""124"",""590028""
","""event"",""trial"",""time""
""focus"",""124"",""593327""
","""event"",""trial"",""time""
""fullscreenenter"",""5"",""15124""
","
",79.70999999996275,NA,32,NA,NA,3000,1,"673.309999999823,858.8899999998976",4832,images/redplanet1.jpg,images/alien2,images/alien1,images/rocket2,images/alien2,images/t.png,2,real,true,NA,common,1,2020-06-21T00:50:38Z,sub103
two-step-fixation,194,833780,0.0-76.0-2.19,TRUE,FALSE,FALSE,TRUE,"""event"",""trial"",""time""
""fullscreenenter"",""5"",""15124""
""blur"",""124"",""590028""
""focus"",""124"",""593327""
","""event"",""trial"",""time""
""blur"",""124"",""590028""
","""event"",""trial"",""time""
""focus"",""124"",""593327""
","""event"",""trial"",""time""
""fullscreenenter"",""5"",""15124""
","
",NA,images/earth.jpg,NA,NA,NA,NA,NA,NA,NA,NA,NA,NA,NA,NA,NA,fixation,NA,NA,NA,NA,NA,NA,sub103
d3-animate-choice,195,836228,0.0-76.0-0.20,TRUE,FALSE,FALSE,TRUE,"""event"",""trial"",""time""
""fullscreenenter"",""5"",""15124""
""blur"",""124"",""590028""
""focus"",""124"",""593327""
","""event"",""trial"",""time""
""blur"",""124"",""590028""
","""event"",""trial"",""time""
""focus"",""124"",""593327""
","""event"",""trial"",""time""
""fullscreenenter"",""5"",""15124""
","
",439.9200000000419,NA,48,NA,NA,3000,1,605.7949999999255,32,images/earth.jpg,images/rocket2,images/rocket1,null,images/rocket2,NA,1,real,null,2,NA,NA,NA,sub103
d3-animate-choice,196,838549,0.0-76.0-1.20,TRUE,FALSE,FALSE,TRUE,"""event"",""trial"",""time""
""fullscreenenter"",""5"",""15124""
""blur"",""124"",""590028""
""focus"",""124"",""593327""
","""event"",""trial"",""time""
""blur"",""124"",""590028""
","""event"",""trial"",""time""
""focus"",""124"",""593327""
","""event"",""trial"",""time""
""fullscreenenter"",""5"",""15124""
","
",313.00499999988824,NA,48,NA,NA,3000,1,483.2599999998929,32,images/redplanet1.jpg,images/alien2,images/alien1,images/rocket2,images/alien2,images/t.png,2,real,true,2,common,1,2020-06-21T00:50:43Z,sub103
two-step-fixation,197,839558,0.0-76.0-2.20,TRUE,FALSE,FALSE,TRUE,"""event"",""trial"",""time""
""fullscreenenter"",""5"",""15124""
""blur"",""124"",""590028""
""focus"",""124"",""593327""
","""event"",""trial"",""time""
""blur"",""124"",""590028""
","""event"",""trial"",""time""
""focus"",""124"",""593327""
","""event"",""trial"",""time""
""fullscreenenter"",""5"",""15124""
","
",NA,images/earth.jpg,NA,NA,NA,NA,NA,NA,NA,NA,NA,NA,NA,NA,NA,fixation,NA,NA,NA,NA,NA,NA,sub103
d3-animate-choice,198,842048,0.0-76.0-0.21,TRUE,FALSE,FALSE,TRUE,"""event"",""trial"",""time""
""fullscreenenter"",""5"",""15124""
""blur"",""124"",""590028""
""focus"",""124"",""593327""
","""event"",""trial"",""time""
""blur"",""124"",""590028""
","""event"",""trial"",""time""
""focus"",""124"",""593327""
","""event"",""trial"",""time""
""fullscreenenter"",""5"",""15124""
","
",475.6549999999115,NA,48,NA,NA,3000,1,623.2999999999302,32,images/earth.jpg,images/rocket2,images/rocket1,null,images/rocket2,NA,1,real,null,2,NA,NA,NA,sub103
d3-animate-choice,199,844462,0.0-76.0-1.21,TRUE,FALSE,FALSE,TRUE,"""event"",""trial"",""time""
""fullscreenenter"",""5"",""15124""
""blur"",""124"",""590028""
""focus"",""124"",""593327""
","""event"",""trial"",""time""
""blur"",""124"",""590028""
","""event"",""trial"",""time""
""focus"",""124"",""593327""
","""event"",""trial"",""time""
""fullscreenenter"",""5"",""15124""
","
",403.19999999995343,NA,48,NA,NA,3000,1,480.04999999993015,32,images/redplanet1.jpg,images/alien2,images/alien1,images/rocket2,images/alien2,images/t.png,2,real,true,2,common,1,2020-06-21T00:50:49Z,sub103
two-step-fixation,200,845472,0.0-76.0-2.21,TRUE,FALSE,FALSE,TRUE,"""event"",""trial"",""time""
""fullscreenenter"",""5"",""15124""
""blur"",""124"",""590028""
""focus"",""124"",""593327""
","""event"",""trial"",""time""
""blur"",""124"",""590028""
","""event"",""trial"",""time""
""focus"",""124"",""593327""
","""event"",""trial"",""time""
""fullscreenenter"",""5"",""15124""
","
",NA,images/earth.jpg,NA,NA,NA,NA,NA,NA,NA,NA,NA,NA,NA,NA,NA,fixation,NA,NA,NA,NA,NA,NA,sub103
d3-animate-choice,201,847859,0.0-76.0-0.22,TRUE,FALSE,FALSE,TRUE,"""event"",""trial"",""time""
""fullscreenenter"",""5"",""15124""
""blur"",""124"",""590028""
""focus"",""124"",""593327""
","""event"",""trial"",""time""
""blur"",""124"",""590028""
","""event"",""trial"",""time""
""focus"",""124"",""593327""
","""event"",""trial"",""time""
""fullscreenenter"",""5"",""15124""
","
",378.1649999998044,NA,48,NA,NA,3000,1,"478.92499999993015,1201.419999999809",3232,images/earth.jpg,images/rocket2,images/rocket1,null,images/rocket2,NA,1,real,null,2,NA,NA,NA,sub103
d3-animate-choice,202,850291,0.0-76.0-1.22,TRUE,FALSE,FALSE,TRUE,"""event"",""trial"",""time""
""fullscreenenter"",""5"",""15124""
""blur"",""124"",""590028""
""focus"",""124"",""593327""
","""event"",""trial"",""time""
""blur"",""124"",""590028""
","""event"",""trial"",""time""
""focus"",""124"",""593327""
","""event"",""trial"",""time""
""fullscreenenter"",""5"",""15124""
","
",424.13999999989755,NA,48,NA,NA,3000,1,530.5499999999302,32,images/purpleplanet.jpg,images/alien4,images/alien3,images/rocket2,images/alien4,images/t.png,2,real,false,2,rare,1,2020-06-21T00:50:55Z,sub103
two-step-fixation,203,851298,0.0-76.0-2.22,TRUE,FALSE,FALSE,TRUE,"""event"",""trial"",""time""
""fullscreenenter"",""5"",""15124""
""blur"",""124"",""590028""
""focus"",""124"",""593327""
","""event"",""trial"",""time""
""blur"",""124"",""590028""
","""event"",""trial"",""time""
""focus"",""124"",""593327""
","""event"",""trial"",""time""
""fullscreenenter"",""5"",""15124""
","
",NA,images/earth.jpg,NA,NA,NA,NA,NA,NA,NA,NA,NA,NA,NA,NA,NA,fixation,NA,NA,NA,NA,NA,NA,sub103
d3-animate-choice,204,853725,0.0-76.0-0.23,TRUE,FALSE,FALSE,TRUE,"""event"",""trial"",""time""
""fullscreenenter"",""5"",""15124""
""blur"",""124"",""590028""
""focus"",""124"",""593327""
","""event"",""trial"",""time""
""blur"",""124"",""590028""
","""event"",""trial"",""time""
""focus"",""124"",""593327""
","""event"",""trial"",""time""
""fullscreenenter"",""5"",""15124""
","
",415.46999999985565,NA,48,NA,NA,3000,1,"554.324999999837,1425.6749999999302",3232,images/earth.jpg,images/rocket2,images/rocket1,null,images/rocket2,NA,1,real,null,2,NA,NA,NA,sub103
d3-animate-choice,205,856011,0.0-76.0-1.23,TRUE,FALSE,FALSE,TRUE,"""event"",""trial"",""time""
""fullscreenenter"",""5"",""15124""
""blur"",""124"",""590028""
""focus"",""124"",""593327""
","""event"",""trial"",""time""
""blur"",""124"",""590028""
","""event"",""trial"",""time""
""focus"",""124"",""593327""
","""event"",""trial"",""time""
""fullscreenenter"",""5"",""15124""
","
",278.03999999992084,NA,48,NA,NA,3000,1,392.91500000015367,32,images/purpleplanet.jpg,images/alien4,images/alien3,images/rocket2,images/alien4,images/t.png,2,real,false,2,rare,1,2020-06-21T00:51:01Z,sub103
two-step-fixation,206,857024,0.0-76.0-2.23,TRUE,FALSE,FALSE,TRUE,"""event"",""trial"",""time""
""fullscreenenter"",""5"",""15124""
""blur"",""124"",""590028""
""focus"",""124"",""593327""
","""event"",""trial"",""time""
""blur"",""124"",""590028""
","""event"",""trial"",""time""
""focus"",""124"",""593327""
","""event"",""trial"",""time""
""fullscreenenter"",""5"",""15124""
","
",NA,images/earth.jpg,NA,NA,NA,NA,NA,NA,NA,NA,NA,NA,NA,NA,NA,fixation,NA,NA,NA,NA,NA,NA,sub103
d3-animate-choice,207,859496,0.0-76.0-0.24,TRUE,FALSE,FALSE,TRUE,"""event"",""trial"",""time""
""fullscreenenter"",""5"",""15124""
""blur"",""124"",""590028""
""focus"",""124"",""593327""
","""event"",""trial"",""time""
""blur"",""124"",""590028""
","""event"",""trial"",""time""
""focus"",""124"",""593327""
","""event"",""trial"",""time""
""fullscreenenter"",""5"",""15124""
","
",464.51499999989755,NA,48,NA,NA,3000,1,"618.839999999851,1214.6149999998743",3232,images/earth.jpg,images/rocket2,images/rocket1,null,images/rocket2,NA,1,real,null,2,NA,NA,NA,sub103
d3-animate-choice,208,861839,0.0-76.0-1.24,TRUE,FALSE,FALSE,TRUE,"""event"",""trial"",""time""
""fullscreenenter"",""5"",""15124""
""blur"",""124"",""590028""
""focus"",""124"",""593327""
","""event"",""trial"",""time""
""blur"",""124"",""590028""
","""event"",""trial"",""time""
""focus"",""124"",""593327""
","""event"",""trial"",""time""
""fullscreenenter"",""5"",""15124""
","
",334.7050000000745,NA,48,NA,NA,3000,1,433.23499999998603,32,images/redplanet1.jpg,images/alien2,images/alien1,images/rocket2,images/alien2,images/t.png,2,real,true,2,common,1,2020-06-21T00:51:07Z,sub103
two-step-fixation,209,862846,0.0-76.0-2.24,TRUE,FALSE,FALSE,TRUE,"""event"",""trial"",""time""
""fullscreenenter"",""5"",""15124""
""blur"",""124"",""590028""
""focus"",""124"",""593327""
","""event"",""trial"",""time""
""blur"",""124"",""590028""
","""event"",""trial"",""time""
""focus"",""124"",""593327""
","""event"",""trial"",""time""
""fullscreenenter"",""5"",""15124""
","
",NA,images/earth.jpg,NA,NA,NA,NA,NA,NA,NA,NA,NA,NA,NA,NA,NA,fixation,NA,NA,NA,NA,NA,NA,sub103
d3-animate-choice,210,865205,0.0-76.0-0.25,TRUE,FALSE,FALSE,TRUE,"""event"",""trial"",""time""
""fullscreenenter"",""5"",""15124""
""blur"",""124"",""590028""
""focus"",""124"",""593327""
","""event"",""trial"",""time""
""blur"",""124"",""590028""
","""event"",""trial"",""time""
""focus"",""124"",""593327""
","""event"",""trial"",""time""
""fullscreenenter"",""5"",""15124""
","
",347.1350000000093,NA,48,NA,NA,3000,1,492.53999999992084,32,images/earth.jpg,images/rocket2,images/rocket1,null,images/rocket2,NA,1,real,null,2,NA,NA,NA,sub103
d3-animate-choice,211,867273,0.0-76.0-1.25,TRUE,FALSE,FALSE,TRUE,"""event"",""trial"",""time""
""fullscreenenter"",""5"",""15124""
""blur"",""124"",""590028""
""focus"",""124"",""593327""
","""event"",""trial"",""time""
""blur"",""124"",""590028""
","""event"",""trial"",""time""
""focus"",""124"",""593327""
","""event"",""trial"",""time""
""fullscreenenter"",""5"",""15124""
","
",57.14499999990221,NA,48,NA,NA,3000,1,254.31500000006054,32,images/redplanet1.jpg,images/alien2,images/alien1,images/rocket2,images/alien2,images/nothing.png,2,real,true,2,common,0,2020-06-21T00:51:12Z,sub103
two-step-fixation,212,868283,0.0-76.0-2.25,TRUE,FALSE,FALSE,TRUE,"""event"",""trial"",""time""
""fullscreenenter"",""5"",""15124""
""blur"",""124"",""590028""
""focus"",""124"",""593327""
","""event"",""trial"",""time""
""blur"",""124"",""590028""
","""event"",""trial"",""time""
""focus"",""124"",""593327""
","""event"",""trial"",""time""
""fullscreenenter"",""5"",""15124""
","
",NA,images/earth.jpg,NA,NA,NA,NA,NA,NA,NA,NA,NA,NA,NA,NA,NA,fixation,NA,NA,NA,NA,NA,NA,sub103
d3-animate-choice,213,870856,0.0-76.0-0.26,TRUE,FALSE,FALSE,TRUE,"""event"",""trial"",""time""
""fullscreenenter"",""5"",""15124""
""blur"",""124"",""590028""
""focus"",""124"",""593327""
","""event"",""trial"",""time""
""blur"",""124"",""590028""
","""event"",""trial"",""time""
""focus"",""124"",""593327""
","""event"",""trial"",""time""
""fullscreenenter"",""5"",""15124""
","
",558.0149999997811,NA,49,NA,NA,3000,1,678.9249999999302,32,images/earth.jpg,images/rocket2,images/rocket1,null,images/rocket1,NA,1,real,null,1,NA,NA,NA,sub103
d3-animate-choice,214,873188,0.0-76.0-1.26,TRUE,FALSE,FALSE,TRUE,"""event"",""trial"",""time""
""fullscreenenter"",""5"",""15124""
""blur"",""124"",""590028""
""focus"",""124"",""593327""
","""event"",""trial"",""time""
""blur"",""124"",""590028""
","""event"",""trial"",""time""
""focus"",""124"",""593327""
","""event"",""trial"",""time""
""fullscreenenter"",""5"",""15124""
","
",320.3699999998789,NA,49,NA,NA,3000,1,391.2299999999814,32,images/purpleplanet.jpg,images/alien4,images/alien3,images/rocket1,images/alien3,images/nothing.png,2,real,true,1,common,0,2020-06-21T00:51:18Z,sub103
two-step-fixation,215,874194,0.0-76.0-2.26,TRUE,FALSE,FALSE,TRUE,"""event"",""trial"",""time""
""fullscreenenter"",""5"",""15124""
""blur"",""124"",""590028""
""focus"",""124"",""593327""
","""event"",""trial"",""time""
""blur"",""124"",""590028""
","""event"",""trial"",""time""
""focus"",""124"",""593327""
","""event"",""trial"",""time""
""fullscreenenter"",""5"",""15124""
","
",NA,images/earth.jpg,NA,NA,NA,NA,NA,NA,NA,NA,NA,NA,NA,NA,NA,fixation,NA,NA,NA,NA,NA,NA,sub103
d3-animate-choice,216,876615,0.0-76.0-0.27,TRUE,FALSE,FALSE,TRUE,"""event"",""trial"",""time""
""fullscreenenter"",""5"",""15124""
""blur"",""124"",""590028""
""focus"",""124"",""593327""
","""event"",""trial"",""time""
""blur"",""124"",""590028""
","""event"",""trial"",""time""
""focus"",""124"",""593327""
","""event"",""trial"",""time""
""fullscreenenter"",""5"",""15124""
","
",410.46000000007916,NA,49,NA,NA,3000,1,512.2850000000326,32,images/earth.jpg,images/rocket2,images/rocket1,null,images/rocket1,NA,1,real,null,1,NA,NA,NA,sub103
d3-animate-choice,217,879089,0.0-76.0-1.27,TRUE,FALSE,FALSE,TRUE,"""event"",""trial"",""time""
""fullscreenenter"",""5"",""15124""
""blur"",""124"",""590028""
""focus"",""124"",""593327""
","""event"",""trial"",""time""
""blur"",""124"",""590028""
","""event"",""trial"",""time""
""focus"",""124"",""593327""
","""event"",""trial"",""time""
""fullscreenenter"",""5"",""15124""
","
",465.19999999995343,NA,49,NA,NA,3000,1,657.9400000000605,32,images/purpleplanet.jpg,images/alien4,images/alien3,images/rocket1,images/alien3,images/nothing.png,2,real,true,1,common,0,2020-06-21T00:51:24Z,sub103
two-step-fixation,218,880103,0.0-76.0-2.27,TRUE,FALSE,FALSE,TRUE,"""event"",""trial"",""time""
""fullscreenenter"",""5"",""15124""
""blur"",""124"",""590028""
""focus"",""124"",""593327""
","""event"",""trial"",""time""
""blur"",""124"",""590028""
","""event"",""trial"",""time""
""focus"",""124"",""593327""
","""event"",""trial"",""time""
""fullscreenenter"",""5"",""15124""
","
",NA,images/earth.jpg,NA,NA,NA,NA,NA,NA,NA,NA,NA,NA,NA,NA,NA,fixation,NA,NA,NA,NA,NA,NA,sub103
d3-animate-choice,219,882487,0.0-76.0-0.28,TRUE,FALSE,FALSE,TRUE,"""event"",""trial"",""time""
""fullscreenenter"",""5"",""15124""
""blur"",""124"",""590028""
""focus"",""124"",""593327""
","""event"",""trial"",""time""
""blur"",""124"",""590028""
","""event"",""trial"",""time""
""focus"",""124"",""593327""
","""event"",""trial"",""time""
""fullscreenenter"",""5"",""15124""
","
",373.28000000002794,NA,48,NA,NA,3000,1,533.5400000001537,32,images/earth.jpg,images/rocket2,images/rocket1,null,images/rocket2,NA,1,real,null,2,NA,NA,NA,sub103
d3-animate-choice,220,884825,0.0-76.0-1.28,TRUE,FALSE,FALSE,TRUE,"""event"",""trial"",""time""
""fullscreenenter"",""5"",""15124""
""blur"",""124"",""590028""
""focus"",""124"",""593327""
","""event"",""trial"",""time""
""blur"",""124"",""590028""
","""event"",""trial"",""time""
""focus"",""124"",""593327""
","""event"",""trial"",""time""
""fullscreenenter"",""5"",""15124""
","
",328.375,NA,48,NA,NA,3000,1,440.6199999998789,32,images/redplanet1.jpg,images/alien2,images/alien1,images/rocket2,images/alien2,images/t.png,2,real,true,2,common,1,2020-06-21T00:51:30Z,sub103
two-step-fixation,221,885836,0.0-76.0-2.28,TRUE,FALSE,FALSE,TRUE,"""event"",""trial"",""time""
""fullscreenenter"",""5"",""15124""
""blur"",""124"",""590028""
""focus"",""124"",""593327""
","""event"",""trial"",""time""
""blur"",""124"",""590028""
","""event"",""trial"",""time""
""focus"",""124"",""593327""
","""event"",""trial"",""time""
""fullscreenenter"",""5"",""15124""
","
",NA,images/earth.jpg,NA,NA,NA,NA,NA,NA,NA,NA,NA,NA,NA,NA,NA,fixation,NA,NA,NA,NA,NA,NA,sub103
d3-animate-choice,222,888444,0.0-76.0-0.29,TRUE,FALSE,FALSE,TRUE,"""event"",""trial"",""time""
""fullscreenenter"",""5"",""15124""
""blur"",""124"",""590028""
""focus"",""124"",""593327""
","""event"",""trial"",""time""
""blur"",""124"",""590028""
","""event"",""trial"",""time""
""focus"",""124"",""593327""
","""event"",""trial"",""time""
""fullscreenenter"",""5"",""15124""
","
",598.854999999865,NA,48,NA,NA,3000,1,722.6900000000605,32,images/earth.jpg,images/rocket2,images/rocket1,null,images/rocket2,NA,1,real,null,2,NA,NA,NA,sub103
d3-animate-choice,223,890706,0.0-76.0-1.29,TRUE,FALSE,FALSE,TRUE,"""event"",""trial"",""time""
""fullscreenenter"",""5"",""15124""
""blur"",""124"",""590028""
""focus"",""124"",""593327""
","""event"",""trial"",""time""
""blur"",""124"",""590028""
","""event"",""trial"",""time""
""focus"",""124"",""593327""
","""event"",""trial"",""time""
""fullscreenenter"",""5"",""15124""
","
",251.90000000002328,NA,48,NA,NA,3000,1,417.05500000016764,32,images/redplanet1.jpg,images/alien2,images/alien1,images/rocket2,images/alien2,images/nothing.png,2,real,true,2,common,0,2020-06-21T00:51:36Z,sub103
two-step-fixation,224,891716,0.0-76.0-2.29,TRUE,FALSE,FALSE,TRUE,"""event"",""trial"",""time""
""fullscreenenter"",""5"",""15124""
""blur"",""124"",""590028""
""focus"",""124"",""593327""
","""event"",""trial"",""time""
""blur"",""124"",""590028""
","""event"",""trial"",""time""
""focus"",""124"",""593327""
","""event"",""trial"",""time""
""fullscreenenter"",""5"",""15124""
","
",NA,images/earth.jpg,NA,NA,NA,NA,NA,NA,NA,NA,NA,NA,NA,NA,NA,fixation,NA,NA,NA,NA,NA,NA,sub103
d3-animate-choice,225,894241,0.0-76.0-0.30,TRUE,FALSE,FALSE,TRUE,"""event"",""trial"",""time""
""fullscreenenter"",""5"",""15124""
""blur"",""124"",""590028""
""focus"",""124"",""593327""
