trial_type,trial_index,time_elapsed,internal_node_id,rocket_sides,red_planet_first_rocket,red_display_order,purple_display_order,interactions,blur_events,focus_events,fullscreenenter_events,fullscreenexit_events,rt,stimulus,key_press,button_pressed,success,duration,valid_pressed,rts,keys,planet_text,right_text,left_text,center_text,chosen_text,reward_text,trial_stage,practice_trial,transition_type,choice,transition,reward,timestamp,subject_id
pavlovia,0,9,0.0-0.0,FALSE,FALSE,TRUE,FALSE,"
","
","
","
","
",NA,NA,NA,NA,NA,NA,NA,NA,NA,NA,NA,NA,NA,NA,NA,NA,NA,NA,NA,NA,NA,NA,sub63
html-keyboard-response,1,3094,0.0-1.0,FALSE,FALSE,TRUE,FALSE,"
","
","
","
","
",3083.324999999604,Welcome! Press the space bar to begin.,32,NA,NA,NA,NA,NA,NA,NA,NA,NA,NA,NA,NA,NA,NA,NA,NA,NA,NA,NA,sub63
audio-keyboard-response,2,58761,0.0-2.0,FALSE,FALSE,TRUE,FALSE,"
","
","
","
","
",54843,audio/beep_loop.wav,32,NA,NA,NA,NA,NA,NA,NA,NA,NA,NA,NA,NA,NA,NA,NA,NA,NA,NA,NA,sub63
audio-button-response,3,62132,0.0-3.0,FALSE,FALSE,TRUE,FALSE,"
","
","
","
","
",NaN,audio/fish.mp3,NA,1,NA,NA,NA,NA,NA,NA,NA,NA,NA,NA,NA,NA,NA,NA,NA,NA,NA,NA,sub63
audio-button-response,4,64796,0.0-4.0,FALSE,FALSE,TRUE,FALSE,"""event"",""trial"",""time""
""fullscreenenter"",""5"",""82398""
","
","
","""event"",""trial"",""time""
""fullscreenenter"",""5"",""82398""
","
",NaN,audio/tiger.mp3,NA,4,NA,NA,NA,NA,NA,NA,NA,NA,NA,NA,NA,NA,NA,NA,NA,NA,NA,NA,sub63
fullscreen,5,83382,0.0-5.0,FALSE,FALSE,TRUE,FALSE,"""event"",""trial"",""time""
""fullscreenenter"",""5"",""82398""
","
","
","""event"",""trial"",""time""
""fullscreenenter"",""5"",""82398""
","
",NA,NA,NA,NA,TRUE,NA,NA,NA,NA,NA,NA,NA,NA,NA,NA,NA,NA,NA,NA,NA,NA,NA,sub63
d3-instructions,6,97644,0.0-6.0,FALSE,FALSE,TRUE,FALSE,"""event"",""trial"",""time""
""fullscreenenter"",""5"",""82398""
","
","
","""event"",""trial"",""time""
""fullscreenenter"",""5"",""82398""
","
",NA,NA,NA,NA,NA,NA,NA,NA,NA,NA,NA,NA,NA,NA,NA,NA,NA,NA,NA,NA,NA,NA,sub63
d3-instructions,7,107243,0.0-7.0,FALSE,FALSE,TRUE,FALSE,"""event"",""trial"",""time""
""fullscreenenter"",""5"",""82398""
","
","
","""event"",""trial"",""time""
""fullscreenenter"",""5"",""82398""
","
",NA,NA,NA,NA,NA,NA,NA,NA,NA,NA,NA,NA,NA,NA,NA,NA,NA,NA,NA,NA,NA,NA,sub63
d3-instructions,8,114616,0.0-8.0,FALSE,FALSE,TRUE,FALSE,"""event"",""trial"",""time""
""fullscreenenter"",""5"",""82398""
","
","
","""event"",""trial"",""time""
""fullscreenenter"",""5"",""82398""
","
",NA,NA,NA,NA,NA,NA,NA,NA,NA,NA,NA,NA,NA,NA,NA,NA,NA,NA,NA,NA,NA,NA,sub63
d3-instructions,9,125546,0.0-9.0,FALSE,FALSE,TRUE,FALSE,"""event"",""trial"",""time""
""fullscreenenter"",""5"",""82398""
","
","
","""event"",""trial"",""time""
""fullscreenenter"",""5"",""82398""
","
",NA,NA,NA,NA,NA,NA,NA,NA,NA,NA,NA,NA,NA,NA,NA,NA,NA,NA,NA,NA,NA,NA,sub63
d3-instructions,10,145714,0.0-10.0,FALSE,FALSE,TRUE,FALSE,"""event"",""trial"",""time""
""fullscreenenter"",""5"",""82398""
","
","
","""event"",""trial"",""time""
""fullscreenenter"",""5"",""82398""
","
",NA,NA,NA,NA,NA,NA,NA,NA,NA,NA,NA,NA,NA,NA,NA,NA,NA,NA,NA,NA,NA,NA,sub63
d3-animate-choice,11,149035,0.0-11.0,FALSE,FALSE,TRUE,FALSE,"""event"",""trial"",""time""
""fullscreenenter"",""5"",""82398""
","
","
","""event"",""trial"",""time""
""fullscreenenter"",""5"",""82398""
","
",1310.9049999911804,NA,49,NA,NA,3000,1,"2344.7500000038417,3238.199999992503",4949,images/tutgreenplanet.jpg,images/tutalien1,images/tutalien2,null,images/tutalien2,NA,NA,practice,null,NA,NA,NA,NA,sub63
d3-animate-choice,12,152313,0.0-12.0,FALSE,FALSE,TRUE,FALSE,"""event"",""trial"",""time""
""fullscreenenter"",""5"",""82398""
","
","
","""event"",""trial"",""time""
""fullscreenenter"",""5"",""82398""
","
",1269.8450000025332,NA,48,NA,NA,3000,1,NA,NA,images/tutgreenplanet.jpg,images/tutalien1,images/tutalien2,null,images/tutalien1,NA,NA,practice,null,NA,NA,NA,NA,sub63
d3-animate-choice,13,155404,0.0-13.0,FALSE,FALSE,TRUE,FALSE,"""event"",""trial"",""time""
""fullscreenenter"",""5"",""82398""
","
","
","""event"",""trial"",""time""
""fullscreenenter"",""5"",""82398""
","
",1085.4899999976624,NA,49,NA,NA,3000,1,2409.1449999978067,49,images/tutgreenplanet.jpg,images/tutalien1,images/tutalien2,null,images/tutalien2,NA,NA,practice,null,NA,NA,NA,NA,sub63
d3-animate-choice,14,163041,0.0-14.0,FALSE,FALSE,TRUE,FALSE,"""event"",""trial"",""time""
""fullscreenenter"",""5"",""82398""
","
","
","""event"",""trial"",""time""
""fullscreenenter"",""5"",""82398""
","
",2431.255000003148,NA,32,NA,NA,3000,1,"5630.145000002813,6939.760000008391",4848,images/tutgreenplanet.jpg,images/tutalien1,images/tutalien2,null,images/tutalien1,NA,NA,practice,null,NA,NA,NA,NA,sub63
d3-instructions,15,170473,0.0-15.0,FALSE,FALSE,TRUE,FALSE,"""event"",""trial"",""time""
""fullscreenenter"",""5"",""82398""
","
","
","""event"",""trial"",""time""
""fullscreenenter"",""5"",""82398""
","
",NA,NA,NA,NA,NA,NA,NA,NA,NA,NA,NA,NA,NA,NA,NA,NA,NA,NA,NA,NA,NA,NA,sub63
d3-instructions,16,177329,0.0-16.0,FALSE,FALSE,TRUE,FALSE,"""event"",""trial"",""time""
""fullscreenenter"",""5"",""82398""
","
","
","""event"",""trial"",""time""
""fullscreenenter"",""5"",""82398""
","
",NA,NA,NA,NA,NA,NA,NA,NA,NA,NA,NA,NA,NA,NA,NA,NA,NA,NA,NA,NA,NA,NA,sub63
d3-instructions,17,186393,0.0-17.0,FALSE,FALSE,TRUE,FALSE,"""event"",""trial"",""time""
""fullscreenenter"",""5"",""82398""
","
","
","""event"",""trial"",""time""
""fullscreenenter"",""5"",""82398""
","
",NA,NA,NA,NA,NA,NA,NA,NA,NA,NA,NA,NA,NA,NA,NA,NA,NA,NA,NA,NA,NA,NA,sub63
d3-instructions,18,199929,0.0-18.0,FALSE,FALSE,TRUE,FALSE,"""event"",""trial"",""time""
""fullscreenenter"",""5"",""82398""
","
","
","""event"",""trial"",""time""
""fullscreenenter"",""5"",""82398""
","
",NA,NA,NA,NA,NA,NA,NA,NA,NA,NA,NA,NA,NA,NA,NA,NA,NA,NA,NA,NA,NA,NA,sub63
d3-instructions,19,217769,0.0-19.0,FALSE,FALSE,TRUE,FALSE,"""event"",""trial"",""time""
""fullscreenenter"",""5"",""82398""
","
","
","""event"",""trial"",""time""
""fullscreenenter"",""5"",""82398""
","
",NA,NA,NA,NA,NA,NA,NA,NA,NA,NA,NA,NA,NA,NA,NA,NA,NA,NA,NA,NA,NA,NA,sub63
d3-animate-choice,20,220468,0.0-20.0,FALSE,FALSE,TRUE,FALSE,"""event"",""trial"",""time""
""fullscreenenter"",""5"",""82398""
","
","
","""event"",""trial"",""time""
""fullscreenenter"",""5"",""82398""
","
",691.2700000102632,NA,49,NA,NA,3000,1,NA,NA,images/tutyellowplanet.jpg,null,images/tutalien3,null,images/tutalien3,images/nothing.png,NA,practice,null,NA,NA,NA,NA,sub63
d3-animate-choice,21,222832,0.0-21.0,FALSE,FALSE,TRUE,FALSE,"""event"",""trial"",""time""
""fullscreenenter"",""5"",""82398""
","
","
","""event"",""trial"",""time""
""fullscreenenter"",""5"",""82398""
","
",356.9900000002235,NA,49,NA,NA,3000,1,NA,NA,images/tutyellowplanet.jpg,null,images/tutalien3,null,images/tutalien3,images/t.png,NA,practice,null,NA,NA,NA,NA,sub63
d3-animate-choice,22,225236,0.0-22.0,FALSE,FALSE,TRUE,FALSE,"""event"",""trial"",""time""
""fullscreenenter"",""5"",""82398""
","
","
","""event"",""trial"",""time""
""fullscreenenter"",""5"",""82398""
","
",401.07500000158325,NA,49,NA,NA,3000,1,NA,NA,images/tutyellowplanet.jpg,null,images/tutalien3,null,images/tutalien3,images/t.png,NA,practice,null,NA,NA,NA,NA,sub63
d3-animate-choice,23,227664,0.0-23.0,FALSE,FALSE,TRUE,FALSE,"""event"",""trial"",""time""
""fullscreenenter"",""5"",""82398""
","
","
","""event"",""trial"",""time""
""fullscreenenter"",""5"",""82398""
","
",420.5800000054296,NA,49,NA,NA,3000,1,NA,NA,images/tutyellowplanet.jpg,null,images/tutalien3,null,images/tutalien3,images/t.png,NA,practice,null,NA,NA,NA,NA,sub63
d3-animate-choice,24,229978,0.0-24.0,FALSE,FALSE,TRUE,FALSE,"""event"",""trial"",""time""
""fullscreenenter"",""5"",""82398""
","
","
","""event"",""trial"",""time""
""fullscreenenter"",""5"",""82398""
","
",308.69999999413267,NA,49,NA,NA,3000,1,NA,NA,images/tutyellowplanet.jpg,null,images/tutalien3,null,images/tutalien3,images/t.png,NA,practice,null,NA,NA,NA,NA,sub63
d3-animate-choice,25,232269,0.0-25.0,FALSE,FALSE,TRUE,FALSE,"""event"",""trial"",""time""
""fullscreenenter"",""5"",""82398""
","
","
","""event"",""trial"",""time""
""fullscreenenter"",""5"",""82398""
","
",284.3049999937648,NA,49,NA,NA,3000,1,NA,NA,images/tutyellowplanet.jpg,null,images/tutalien3,null,images/tutalien3,images/t.png,NA,practice,null,NA,NA,NA,NA,sub63
d3-animate-choice,26,234532,0.0-26.0,FALSE,FALSE,TRUE,FALSE,"""event"",""trial"",""time""
""fullscreenenter"",""5"",""82398""
","
","
","""event"",""trial"",""time""
""fullscreenenter"",""5"",""82398""
","
",256.0499999963213,NA,49,NA,NA,3000,1,NA,NA,images/tutyellowplanet.jpg,null,images/tutalien3,null,images/tutalien3,images/t.png,NA,practice,null,NA,NA,NA,NA,sub63
d3-animate-choice,27,237226,0.0-27.0,FALSE,FALSE,TRUE,FALSE,"""event"",""trial"",""time""
""fullscreenenter"",""5"",""82398""
","
","
","""event"",""trial"",""time""
""fullscreenenter"",""5"",""82398""
","
",687.0000000053551,NA,49,NA,NA,3000,1,NA,NA,images/tutyellowplanet.jpg,null,images/tutalien3,null,images/tutalien3,images/t.png,NA,practice,null,NA,NA,NA,NA,sub63
d3-animate-choice,28,239575,0.0-28.0,FALSE,FALSE,TRUE,FALSE,"""event"",""trial"",""time""
""fullscreenenter"",""5"",""82398""
","
","
","""event"",""trial"",""time""
""fullscreenenter"",""5"",""82398""
","
",344.0649999974994,NA,49,NA,NA,3000,1,NA,NA,images/tutyellowplanet.jpg,null,images/tutalien3,null,images/tutalien3,images/t.png,NA,practice,null,NA,NA,NA,NA,sub63
d3-animate-choice,29,241942,0.0-29.0,FALSE,FALSE,TRUE,FALSE,"""event"",""trial"",""time""
""fullscreenenter"",""5"",""82398""
","
","
","""event"",""trial"",""time""
""fullscreenenter"",""5"",""82398""
","
",361.7649999941932,NA,49,NA,NA,3000,1,NA,NA,images/tutyellowplanet.jpg,null,images/tutalien3,null,images/tutalien3,images/t.png,NA,practice,null,NA,NA,NA,NA,sub63
d3-instructions,30,249025,0.0-30.0,FALSE,FALSE,TRUE,FALSE,"""event"",""trial"",""time""
""fullscreenenter"",""5"",""82398""
","
","
","""event"",""trial"",""time""
""fullscreenenter"",""5"",""82398""
","
",NA,NA,NA,NA,NA,NA,NA,NA,NA,NA,NA,NA,NA,NA,NA,NA,NA,NA,NA,NA,NA,NA,sub63
d3-instructions,31,260882,0.0-31.0,FALSE,FALSE,TRUE,FALSE,"""event"",""trial"",""time""
""fullscreenenter"",""5"",""82398""
","
","
","""event"",""trial"",""time""
""fullscreenenter"",""5"",""82398""
","
",NA,NA,NA,NA,NA,NA,NA,NA,NA,NA,NA,NA,NA,NA,NA,NA,NA,NA,NA,NA,NA,NA,sub63
d3-instructions,32,270337,0.0-32.0,FALSE,FALSE,TRUE,FALSE,"""event"",""trial"",""time""
""fullscreenenter"",""5"",""82398""
","
","
","""event"",""trial"",""time""
""fullscreenenter"",""5"",""82398""
","
",NA,NA,NA,NA,NA,NA,NA,NA,NA,NA,NA,NA,NA,NA,NA,NA,NA,NA,NA,NA,NA,NA,sub63
d3-instructions,33,274635,0.0-33.0,FALSE,FALSE,TRUE,FALSE,"""event"",""trial"",""time""
""fullscreenenter"",""5"",""82398""
","
","
","""event"",""trial"",""time""
""fullscreenenter"",""5"",""82398""
","
",NA,NA,NA,NA,NA,NA,NA,NA,NA,NA,NA,NA,NA,NA,NA,NA,NA,NA,NA,NA,NA,NA,sub63
d3-animate-choice,34,278311,0.0-34.0,FALSE,FALSE,TRUE,FALSE,"""event"",""trial"",""time""
""fullscreenenter"",""5"",""82398""
","
","
","""event"",""trial"",""time""
""fullscreenenter"",""5"",""82398""
","
",1670.5499999952735,NA,49,NA,NA,3000,1,NA,NA,images/tutgreenplanet.jpg,images/tutalien1,images/tutalien2,null,images/tutalien2,images/t.png,NA,practice,null,NA,NA,NA,NA,sub63
d3-animate-choice,35,280577,0.0-35.0,FALSE,FALSE,TRUE,FALSE,"""event"",""trial"",""time""
""fullscreenenter"",""5"",""82398""
","
","
","""event"",""trial"",""time""
""fullscreenenter"",""5"",""82398""
","
",261.70999999158084,NA,49,NA,NA,3000,1,NA,NA,images/tutgreenplanet.jpg,images/tutalien1,images/tutalien2,null,images/tutalien2,images/t.png,NA,practice,null,NA,NA,NA,NA,sub63
d3-animate-choice,36,282812,0.0-36.0,FALSE,FALSE,TRUE,FALSE,"""event"",""trial"",""time""
""fullscreenenter"",""5"",""82398""
","
","
","""event"",""trial"",""time""
""fullscreenenter"",""5"",""82398""
","
",229.87999999895692,NA,49,NA,NA,3000,1,NA,NA,images/tutgreenplanet.jpg,images/tutalien1,images/tutalien2,null,images/tutalien2,images/t.png,NA,practice,null,NA,NA,NA,NA,sub63
d3-animate-choice,37,284977,0.0-37.0,FALSE,FALSE,TRUE,FALSE,"""event"",""trial"",""time""
""fullscreenenter"",""5"",""82398""
","
","
","""event"",""trial"",""time""
""fullscreenenter"",""5"",""82398""
","
",159.4349999941187,NA,49,NA,NA,3000,1,NA,NA,images/tutgreenplanet.jpg,images/tutalien1,images/tutalien2,null,images/tutalien2,images/t.png,NA,practice,null,NA,NA,NA,NA,sub63
d3-animate-choice,38,287282,0.0-38.0,FALSE,FALSE,TRUE,FALSE,"""event"",""trial"",""time""
""fullscreenenter"",""5"",""82398""
","
","
","""event"",""trial"",""time""
""fullscreenenter"",""5"",""82398""
","
",298.2250000059139,NA,49,NA,NA,3000,1,NA,NA,images/tutgreenplanet.jpg,images/tutalien1,images/tutalien2,null,images/tutalien2,images/t.png,NA,practice,null,NA,NA,NA,NA,sub63
d3-animate-choice,39,289526,0.0-39.0,FALSE,FALSE,TRUE,FALSE,"""event"",""trial"",""time""
""fullscreenenter"",""5"",""82398""
","
","
","""event"",""trial"",""time""
""fullscreenenter"",""5"",""82398""
","
",236.27500000293367,NA,49,NA,NA,3000,1,NA,NA,images/tutgreenplanet.jpg,images/tutalien1,images/tutalien2,null,images/tutalien2,images/t.png,NA,practice,null,NA,NA,NA,NA,sub63
d3-animate-choice,40,291790,0.0-40.0,FALSE,FALSE,TRUE,FALSE,"""event"",""trial"",""time""
""fullscreenenter"",""5"",""82398""
","
","
","""event"",""trial"",""time""
""fullscreenenter"",""5"",""82398""
","
",256.2249999900814,NA,49,NA,NA,3000,1,NA,NA,images/tutgreenplanet.jpg,images/tutalien1,images/tutalien2,null,images/tutalien2,images/t.png,NA,practice,null,NA,NA,NA,NA,sub63
d3-animate-choice,41,293935,0.0-41.0,FALSE,FALSE,TRUE,FALSE,"""event"",""trial"",""time""
""fullscreenenter"",""5"",""82398""
","
","
","""event"",""trial"",""time""
""fullscreenenter"",""5"",""82398""
","
",141.12000000022817,NA,49,NA,NA,3000,1,NA,NA,images/tutgreenplanet.jpg,images/tutalien1,images/tutalien2,null,images/tutalien2,images/nothing.png,NA,practice,null,NA,NA,NA,NA,sub63
d3-animate-choice,42,296240,0.0-42.0,FALSE,FALSE,TRUE,FALSE,"""event"",""trial"",""time""
""fullscreenenter"",""5"",""82398""
","
","
","""event"",""trial"",""time""
""fullscreenenter"",""5"",""82398""
","
",297.29000000224914,NA,48,NA,NA,3000,1,1799.7199999954319,48,images/tutgreenplanet.jpg,images/tutalien1,images/tutalien2,null,images/tutalien1,images/nothing.png,NA,practice,null,NA,NA,NA,NA,sub63
d3-animate-choice,43,298469,0.0-43.0,FALSE,FALSE,TRUE,FALSE,"""event"",""trial"",""time""
""fullscreenenter"",""5"",""82398""
","
","
","""event"",""trial"",""time""
""fullscreenenter"",""5"",""82398""
","
",221.57999999762978,NA,48,NA,NA,3000,1,NA,NA,images/tutgreenplanet.jpg,images/tutalien1,images/tutalien2,null,images/tutalien1,images/nothing.png,NA,practice,null,NA,NA,NA,NA,sub63
d3-instructions,44,312775,0.0-44.0,FALSE,FALSE,TRUE,FALSE,"""event"",""trial"",""time""
""fullscreenenter"",""5"",""82398""
","
","
","""event"",""trial"",""time""
""fullscreenenter"",""5"",""82398""
","
",NA,NA,NA,NA,NA,NA,NA,NA,NA,NA,NA,NA,NA,NA,NA,NA,NA,NA,NA,NA,NA,NA,sub63
d3-instructions,45,316430,0.0-45.0,FALSE,FALSE,TRUE,FALSE,"""event"",""trial"",""time""
""fullscreenenter"",""5"",""82398""
","
","
","""event"",""trial"",""time""
""fullscreenenter"",""5"",""82398""
","
",NA,NA,NA,NA,NA,NA,NA,NA,NA,NA,NA,NA,NA,NA,NA,NA,NA,NA,NA,NA,NA,NA,sub63
d3-instructions,46,321901,0.0-46.0,FALSE,FALSE,TRUE,FALSE,"""event"",""trial"",""time""
""fullscreenenter"",""5"",""82398""
","
","
","""event"",""trial"",""time""
""fullscreenenter"",""5"",""82398""
","
",NA,NA,NA,NA,NA,NA,NA,NA,NA,NA,NA,NA,NA,NA,NA,NA,NA,NA,NA,NA,NA,NA,sub63
d3-instructions,47,339047,0.0-47.0,FALSE,FALSE,TRUE,FALSE,"""event"",""trial"",""time""
""fullscreenenter"",""5"",""82398""
","
","
","""event"",""trial"",""time""
""fullscreenenter"",""5"",""82398""
","
",NA,NA,NA,NA,NA,NA,NA,NA,NA,NA,NA,NA,NA,NA,NA,NA,NA,NA,NA,NA,NA,NA,sub63
d3-instructions,48,346453,0.0-48.0,FALSE,FALSE,TRUE,FALSE,"""event"",""trial"",""time""
""fullscreenenter"",""5"",""82398""
","
","
","""event"",""trial"",""time""
""fullscreenenter"",""5"",""82398""
","
",NA,NA,NA,NA,NA,NA,NA,NA,NA,NA,NA,NA,NA,NA,NA,NA,NA,NA,NA,NA,NA,NA,sub63
d3-instructions,49,357330,0.0-49.0,FALSE,FALSE,TRUE,FALSE,"""event"",""trial"",""time""
""fullscreenenter"",""5"",""82398""
","
","
","""event"",""trial"",""time""
""fullscreenenter"",""5"",""82398""
","
",NA,NA,NA,NA,NA,NA,NA,NA,NA,NA,NA,NA,NA,NA,NA,NA,NA,NA,NA,NA,NA,NA,sub63
d3-instructions,50,368175,0.0-50.0,FALSE,FALSE,TRUE,FALSE,"""event"",""trial"",""time""
""fullscreenenter"",""5"",""82398""
","
","
","""event"",""trial"",""time""
""fullscreenenter"",""5"",""82398""
","
",NA,NA,NA,NA,NA,NA,NA,NA,NA,NA,NA,NA,NA,NA,NA,NA,NA,NA,NA,NA,NA,NA,sub63
d3-instructions,51,370816,0.0-51.0,FALSE,FALSE,TRUE,FALSE,"""event"",""trial"",""time""
""fullscreenenter"",""5"",""82398""
","
","
","""event"",""trial"",""time""
""fullscreenenter"",""5"",""82398""
","
",NA,NA,NA,NA,NA,NA,NA,NA,NA,NA,NA,NA,NA,NA,NA,NA,NA,NA,NA,NA,NA,NA,sub63
d3-instructions,52,373034,0.0-52.0,FALSE,FALSE,TRUE,FALSE,"""event"",""trial"",""time""
""fullscreenenter"",""5"",""82398""
","
","
","""event"",""trial"",""time""
""fullscreenenter"",""5"",""82398""
","
",NA,NA,NA,NA,NA,NA,NA,NA,NA,NA,NA,NA,NA,NA,NA,NA,NA,NA,NA,NA,NA,NA,sub63
d3-instructions,53,385095,0.0-53.0,FALSE,FALSE,TRUE,FALSE,"""event"",""trial"",""time""
""fullscreenenter"",""5"",""82398""
","
","
","""event"",""trial"",""time""
""fullscreenenter"",""5"",""82398""
","
",NA,NA,NA,NA,NA,NA,NA,NA,NA,NA,NA,NA,NA,NA,NA,NA,NA,NA,NA,NA,NA,NA,sub63
d3-instructions,54,399694,0.0-54.0,FALSE,FALSE,TRUE,FALSE,"""event"",""trial"",""time""
""fullscreenenter"",""5"",""82398""
","
","
","""event"",""trial"",""time""
""fullscreenenter"",""5"",""82398""
","
",NA,NA,NA,NA,NA,NA,NA,NA,NA,NA,NA,NA,NA,NA,NA,NA,NA,NA,NA,NA,NA,NA,sub63
d3-instructions,55,404522,0.0-55.0,FALSE,FALSE,TRUE,FALSE,"""event"",""trial"",""time""
""fullscreenenter"",""5"",""82398""
","
","
","""event"",""trial"",""time""
""fullscreenenter"",""5"",""82398""
","
",NA,NA,NA,NA,NA,NA,NA,NA,NA,NA,NA,NA,NA,NA,NA,NA,NA,NA,NA,NA,NA,NA,sub63
d3-instructions,56,413487,0.0-56.0,FALSE,FALSE,TRUE,FALSE,"""event"",""trial"",""time""
""fullscreenenter"",""5"",""82398""
","
","
","""event"",""trial"",""time""
""fullscreenenter"",""5"",""82398""
","
",NA,NA,NA,NA,NA,NA,NA,NA,NA,NA,NA,NA,NA,NA,NA,NA,NA,NA,NA,NA,NA,NA,sub63
d3-instructions,57,423314,0.0-57.0,FALSE,FALSE,TRUE,FALSE,"""event"",""trial"",""time""
""fullscreenenter"",""5"",""82398""
","
","
","""event"",""trial"",""time""
""fullscreenenter"",""5"",""82398""
","
",NA,NA,NA,NA,NA,NA,NA,NA,NA,NA,NA,NA,NA,NA,NA,NA,NA,NA,NA,NA,NA,NA,sub63
d3-instructions,58,434450,0.0-58.0,FALSE,FALSE,TRUE,FALSE,"""event"",""trial"",""time""
""fullscreenenter"",""5"",""82398""
","
","
","""event"",""trial"",""time""
""fullscreenenter"",""5"",""82398""
","
",NA,NA,NA,NA,NA,NA,NA,NA,NA,NA,NA,NA,NA,NA,NA,NA,NA,NA,NA,NA,NA,NA,sub63
d3-instructions,59,440021,0.0-59.0,FALSE,FALSE,TRUE,FALSE,"""event"",""trial"",""time""
""fullscreenenter"",""5"",""82398""
","
","
","""event"",""trial"",""time""
""fullscreenenter"",""5"",""82398""
","
",NA,NA,NA,NA,NA,NA,NA,NA,NA,NA,NA,NA,NA,NA,NA,NA,NA,NA,NA,NA,NA,NA,sub63
d3-instructions,60,449174,0.0-60.0,FALSE,FALSE,TRUE,FALSE,"""event"",""trial"",""time""
""fullscreenenter"",""5"",""82398""
","
","
","""event"",""trial"",""time""
""fullscreenenter"",""5"",""82398""
","
",NA,NA,NA,NA,NA,NA,NA,NA,NA,NA,NA,NA,NA,NA,NA,NA,NA,NA,NA,NA,NA,NA,sub63
d3-animate-choice,61,453182,0.0-61.0-0.0,FALSE,FALSE,TRUE,FALSE,"""event"",""trial"",""time""
""fullscreenenter"",""5"",""82398""
","
","
","""event"",""trial"",""time""
""fullscreenenter"",""5"",""82398""
","
",2664.115000006859,NA,49,NA,NA,3000,1,NA,NA,images/earth.jpg,images/tutrocket1,images/tutrocket2,null,images/tutrocket2,NA,1,practice,null,1,NA,NA,NA,sub63
d3-animate-choice,62,456567,0.0-61.0-1.0,FALSE,FALSE,TRUE,FALSE,"""event"",""trial"",""time""
""fullscreenenter"",""5"",""82398""
","
","
","""event"",""trial"",""time""
""fullscreenenter"",""5"",""82398""
","
",1377.585000009276,NA,49,NA,NA,3000,1,3306.9950000062818,48,images/tutgreenplanet.jpg,images/tutalien2,images/tutalien1,images/tutrocket2,images/tutalien1,images/nothing.png,2,practice,true,1,common,0,2020-06-19T16:35:40Z,sub63
two-step-fixation,63,457595,0.0-61.0-2.0,FALSE,FALSE,TRUE,FALSE,"""event"",""trial"",""time""
""fullscreenenter"",""5"",""82398""
","
","
","""event"",""trial"",""time""
""fullscreenenter"",""5"",""82398""
","
",NA,images/earth.jpg,NA,NA,NA,NA,NA,NA,NA,NA,NA,NA,NA,NA,NA,fixation,NA,NA,NA,NA,NA,NA,sub63
d3-animate-choice,64,460168,0.0-61.0-0.1,FALSE,FALSE,TRUE,FALSE,"""event"",""trial"",""time""
""fullscreenenter"",""5"",""82398""
","
","
","""event"",""trial"",""time""
""fullscreenenter"",""5"",""82398""
","
",563.0100000125822,NA,48,NA,NA,3000,1,NA,NA,images/earth.jpg,images/tutrocket1,images/tutrocket2,null,images/tutrocket1,NA,1,practice,null,2,NA,NA,NA,sub63
d3-animate-choice,65,463608,0.0-61.0-1.1,FALSE,FALSE,TRUE,FALSE,"""event"",""trial"",""time""
""fullscreenenter"",""5"",""82398""
","
","
","""event"",""trial"",""time""
""fullscreenenter"",""5"",""82398""
","
",1431.2000000063563,NA,48,NA,NA,3000,1,NA,NA,images/tutyellowplanet.jpg,images/tutalien4,images/tutalien3,images/tutrocket1,images/tutalien4,images/nothing.png,2,practice,true,2,common,0,2020-06-19T16:35:47Z,sub63
two-step-fixation,66,464616,0.0-61.0-2.1,FALSE,FALSE,TRUE,FALSE,"""event"",""trial"",""time""
""fullscreenenter"",""5"",""82398""
","
","
","""event"",""trial"",""time""
""fullscreenenter"",""5"",""82398""
","
",NA,images/earth.jpg,NA,NA,NA,NA,NA,NA,NA,NA,NA,NA,NA,NA,NA,fixation,NA,NA,NA,NA,NA,NA,sub63
d3-animate-choice,67,467165,0.0-61.0-0.2,FALSE,FALSE,TRUE,FALSE,"""event"",""trial"",""time""
""fullscreenenter"",""5"",""82398""
","
","
","""event"",""trial"",""time""
""fullscreenenter"",""5"",""82398""
","
",542.1950000018114,NA,49,NA,NA,3000,1,NA,NA,images/earth.jpg,images/tutrocket1,images/tutrocket2,null,images/tutrocket2,NA,1,practice,null,1,NA,NA,NA,sub63
d3-animate-choice,68,469971,0.0-61.0-1.2,FALSE,FALSE,TRUE,FALSE,"""event"",""trial"",""time""
""fullscreenenter"",""5"",""82398""
","
","
","""event"",""trial"",""time""
""fullscreenenter"",""5"",""82398""
","
",796.9949999969685,NA,49,NA,NA,3000,1,NA,NA,images/tutgreenplanet.jpg,images/tutalien2,images/tutalien1,images/tutrocket2,images/tutalien1,images/t.png,2,practice,true,1,common,1,2020-06-19T16:35:53Z,sub63
two-step-fixation,69,470975,0.0-61.0-2.2,FALSE,FALSE,TRUE,FALSE,"""event"",""trial"",""time""
""fullscreenenter"",""5"",""82398""
","
","
","""event"",""trial"",""time""
""fullscreenenter"",""5"",""82398""
","
",NA,images/earth.jpg,NA,NA,NA,NA,NA,NA,NA,NA,NA,NA,NA,NA,NA,fixation,NA,NA,NA,NA,NA,NA,sub63
d3-animate-choice,70,473320,0.0-61.0-0.3,FALSE,FALSE,TRUE,FALSE,"""event"",""trial"",""time""
""fullscreenenter"",""5"",""82398""
","
","
","""event"",""trial"",""time""
""fullscreenenter"",""5"",""82398""
","
",337.9350000031991,NA,49,NA,NA,3000,1,NA,NA,images/earth.jpg,images/tutrocket1,images/tutrocket2,null,images/tutrocket2,NA,1,practice,null,1,NA,NA,NA,sub63
d3-animate-choice,71,475641,0.0-61.0-1.3,FALSE,FALSE,TRUE,FALSE,"""event"",""trial"",""time""
""fullscreenenter"",""5"",""82398""
","
","
","""event"",""trial"",""time""
""fullscreenenter"",""5"",""82398""
","
",313.9850000006845,NA,49,NA,NA,3000,1,NA,NA,images/tutyellowplanet.jpg,images/tutalien4,images/tutalien3,images/tutrocket2,images/tutalien3,images/nothing.png,2,practice,false,1,rare,0,2020-06-19T16:35:59Z,sub63
two-step-fixation,72,476647,0.0-61.0-2.3,FALSE,FALSE,TRUE,FALSE,"""event"",""trial"",""time""
""fullscreenenter"",""5"",""82398""
","
","
","""event"",""trial"",""time""
""fullscreenenter"",""5"",""82398""
","
",NA,images/earth.jpg,NA,NA,NA,NA,NA,NA,NA,NA,NA,NA,NA,NA,NA,fixation,NA,NA,NA,NA,NA,NA,sub63
d3-animate-choice,73,478923,0.0-61.0-0.4,FALSE,FALSE,TRUE,FALSE,"""event"",""trial"",""time""
""fullscreenenter"",""5"",""82398""
","
","
","""event"",""trial"",""time""
""fullscreenenter"",""5"",""82398""
","
",271.5250000037486,NA,48,NA,NA,3000,1,NA,NA,images/earth.jpg,images/tutrocket1,images/tutrocket2,null,images/tutrocket1,NA,1,practice,null,2,NA,NA,NA,sub63
d3-animate-choice,74,481224,0.0-61.0-1.4,FALSE,FALSE,TRUE,FALSE,"""event"",""trial"",""time""
""fullscreenenter"",""5"",""82398""
","
","
","""event"",""trial"",""time""
""fullscreenenter"",""5"",""82398""
","
",296.71999999845866,NA,49,NA,NA,3000,1,NA,NA,images/tutyellowplanet.jpg,images/tutalien4,images/tutalien3,images/tutrocket1,images/tutalien3,images/nothing.png,2,practice,true,1,common,0,2020-06-19T16:36:04Z,sub63
two-step-fixation,75,482231,0.0-61.0-2.4,FALSE,FALSE,TRUE,FALSE,"""event"",""trial"",""time""
""fullscreenenter"",""5"",""82398""
","
","
","""event"",""trial"",""time""
""fullscreenenter"",""5"",""82398""
","
",NA,images/earth.jpg,NA,NA,NA,NA,NA,NA,NA,NA,NA,NA,NA,NA,NA,fixation,NA,NA,NA,NA,NA,NA,sub63
d3-animate-choice,76,484696,0.0-61.0-0.5,FALSE,FALSE,TRUE,FALSE,"""event"",""trial"",""time""
""fullscreenenter"",""5"",""82398""
","
","
","""event"",""trial"",""time""
""fullscreenenter"",""5"",""82398""
","
",459.9599999928614,NA,48,NA,NA,3000,1,NA,NA,images/earth.jpg,images/tutrocket1,images/tutrocket2,null,images/tutrocket1,NA,1,practice,null,2,NA,NA,NA,sub63
d3-animate-choice,77,487018,0.0-61.0-1.5,FALSE,FALSE,TRUE,FALSE,"""event"",""trial"",""time""
""fullscreenenter"",""5"",""82398""
","
","
","""event"",""trial"",""time""
""fullscreenenter"",""5"",""82398""
","
",316.23000001127366,NA,49,NA,NA,3000,1,NA,NA,images/tutgreenplanet.jpg,images/tutalien2,images/tutalien1,images/tutrocket1,images/tutalien1,images/nothing.png,2,practice,false,1,rare,0,2020-06-19T16:36:10Z,sub63
two-step-fixation,78,488022,0.0-61.0-2.5,FALSE,FALSE,TRUE,FALSE,"""event"",""trial"",""time""
""fullscreenenter"",""5"",""82398""
","
","
","""event"",""trial"",""time""
""fullscreenenter"",""5"",""82398""
","
",NA,images/earth.jpg,NA,NA,NA,NA,NA,NA,NA,NA,NA,NA,NA,NA,NA,fixation,NA,NA,NA,NA,NA,NA,sub63
d3-animate-choice,79,491066,0.0-61.0-0.6,FALSE,FALSE,TRUE,FALSE,"""event"",""trial"",""time""
""fullscreenenter"",""5"",""82398""
","
","
","""event"",""trial"",""time""
""fullscreenenter"",""5"",""82398""
","
",1039.3550000007963,NA,49,NA,NA,3000,1,NA,NA,images/earth.jpg,images/tutrocket1,images/tutrocket2,null,images/tutrocket2,NA,1,practice,null,1,NA,NA,NA,sub63
d3-animate-choice,80,493657,0.0-61.0-1.6,FALSE,FALSE,TRUE,FALSE,"""event"",""trial"",""time""
""fullscreenenter"",""5"",""82398""
","
","
","""event"",""trial"",""time""
""fullscreenenter"",""5"",""82398""
","
",583.070000007865,NA,48,NA,NA,3000,1,NA,NA,images/tutgreenplanet.jpg,images/tutalien2,images/tutalien1,images/tutrocket2,images/tutalien2,images/nothing.png,2,practice,true,2,common,0,2020-06-19T16:36:17Z,sub63
two-step-fixation,81,494663,0.0-61.0-2.6,FALSE,FALSE,TRUE,FALSE,"""event"",""trial"",""time""
""fullscreenenter"",""5"",""82398""
","
","
","""event"",""trial"",""time""
""fullscreenenter"",""5"",""82398""
","
",NA,images/earth.jpg,NA,NA,NA,NA,NA,NA,NA,NA,NA,NA,NA,NA,NA,fixation,NA,NA,NA,NA,NA,NA,sub63
d3-animate-choice,82,496981,0.0-61.0-0.7,FALSE,FALSE,TRUE,FALSE,"""event"",""trial"",""time""
""fullscreenenter"",""5"",""82398""
","
","
","""event"",""trial"",""time""
""fullscreenenter"",""5"",""82398""
","
",313.5249999904772,NA,49,NA,NA,3000,1,NA,NA,images/earth.jpg,images/tutrocket1,images/tutrocket2,null,images/tutrocket2,NA,1,practice,null,1,NA,NA,NA,sub63
d3-animate-choice,83,499452,0.0-61.0-1.7,FALSE,FALSE,TRUE,FALSE,"""event"",""trial"",""time""
""fullscreenenter"",""5"",""82398""
","
","
","""event"",""trial"",""time""
""fullscreenenter"",""5"",""82398""
","
",462.8050000028452,NA,49,NA,NA,3000,1,NA,NA,images/tutyellowplanet.jpg,images/tutalien4,images/tutalien3,images/tutrocket2,images/tutalien3,images/nothing.png,2,practice,false,1,rare,0,2020-06-19T16:36:23Z,sub63
two-step-fixation,84,500459,0.0-61.0-2.7,FALSE,FALSE,TRUE,FALSE,"""event"",""trial"",""time""
""fullscreenenter"",""5"",""82398""
","
","
","""event"",""trial"",""time""
""fullscreenenter"",""5"",""82398""
","
",NA,images/earth.jpg,NA,NA,NA,NA,NA,NA,NA,NA,NA,NA,NA,NA,NA,fixation,NA,NA,NA,NA,NA,NA,sub63
d3-animate-choice,85,502970,0.0-61.0-0.8,FALSE,FALSE,TRUE,FALSE,"""event"",""trial"",""time""
""fullscreenenter"",""5"",""82398""
","
","
","""event"",""trial"",""time""
""fullscreenenter"",""5"",""82398""
","
",505.39500000013504,NA,48,NA,NA,3000,1,NA,NA,images/earth.jpg,images/tutrocket1,images/tutrocket2,null,images/tutrocket1,NA,1,practice,null,2,NA,NA,NA,sub63
d3-animate-choice,86,505467,0.0-61.0-1.8,FALSE,FALSE,TRUE,FALSE,"""event"",""trial"",""time""
""fullscreenenter"",""5"",""82398""
","
","
","""event"",""trial"",""time""
""fullscreenenter"",""5"",""82398""
","
",490.30999999376945,NA,48,NA,NA,3000,1,NA,NA,images/tutyellowplanet.jpg,images/tutalien4,images/tutalien3,images/tutrocket1,images/tutalien4,images/t.png,2,practice,true,2,common,1,2020-06-19T16:36:29Z,sub63
two-step-fixation,87,506474,0.0-61.0-2.8,FALSE,FALSE,TRUE,FALSE,"""event"",""trial"",""time""
""fullscreenenter"",""5"",""82398""
","
","
","""event"",""trial"",""time""
""fullscreenenter"",""5"",""82398""
","
",NA,images/earth.jpg,NA,NA,NA,NA,NA,NA,NA,NA,NA,NA,NA,NA,NA,fixation,NA,NA,NA,NA,NA,NA,sub63
d3-animate-choice,88,508758,0.0-61.0-0.9,FALSE,FALSE,TRUE,FALSE,"""event"",""trial"",""time""
""fullscreenenter"",""5"",""82398""
","
","
","""event"",""trial"",""time""
""fullscreenenter"",""5"",""82398""
","
",279.8949999996694,NA,48,NA,NA,3000,1,NA,NA,images/earth.jpg,images/tutrocket1,images/tutrocket2,null,images/tutrocket1,NA,1,practice,null,2,NA,NA,NA,sub63
d3-animate-choice,89,511141,0.0-61.0-1.9,FALSE,FALSE,TRUE,FALSE,"""event"",""trial"",""time""
""fullscreenenter"",""5"",""82398""
","
","
","""event"",""trial"",""time""
""fullscreenenter"",""5"",""82398""
","
",378.3850000036182,NA,48,NA,NA,3000,1,NA,NA,images/tutgreenplanet.jpg,images/tutalien2,images/tutalien1,images/tutrocket1,images/tutalien2,images/nothing.png,2,practice,false,2,rare,0,2020-06-19T16:36:34Z,sub63
two-step-fixation,90,512147,0.0-61.0-2.9,FALSE,FALSE,TRUE,FALSE,"""event"",""trial"",""time""
""fullscreenenter"",""5"",""82398""
","
","
","""event"",""trial"",""time""
""fullscreenenter"",""5"",""82398""
","
",NA,images/earth.jpg,NA,NA,NA,NA,NA,NA,NA,NA,NA,NA,NA,NA,NA,fixation,NA,NA,NA,NA,NA,NA,sub63
d3-animate-choice,91,514306,0.0-61.0-0.10,FALSE,FALSE,TRUE,FALSE,"""event"",""trial"",""time""
""fullscreenenter"",""5"",""82398""
","
","
","""event"",""trial"",""time""
""fullscreenenter"",""5"",""82398""
","
",149.2149999976391,NA,48,NA,NA,3000,1,NA,NA,images/earth.jpg,images/tutrocket1,images/tutrocket2,null,images/tutrocket1,NA,1,practice,null,2,NA,NA,NA,sub63
d3-animate-choice,92,516769,0.0-61.0-1.10,FALSE,FALSE,TRUE,FALSE,"""event"",""trial"",""time""
""fullscreenenter"",""5"",""82398""
","
","
","""event"",""trial"",""time""
""fullscreenenter"",""5"",""82398""
","
",457.3650000093039,NA,49,NA,NA,3000,1,NA,NA,images/tutyellowplanet.jpg,images/tutalien4,images/tutalien3,images/tutrocket1,images/tutalien3,images/t.png,2,practice,true,1,common,1,2020-06-19T16:36:40Z,sub63
two-step-fixation,93,517773,0.0-61.0-2.10,FALSE,FALSE,TRUE,FALSE,"""event"",""trial"",""time""
""fullscreenenter"",""5"",""82398""
","
","
","""event"",""trial"",""time""
""fullscreenenter"",""5"",""82398""
","
",NA,images/earth.jpg,NA,NA,NA,NA,NA,NA,NA,NA,NA,NA,NA,NA,NA,fixation,NA,NA,NA,NA,NA,NA,sub63
d3-animate-choice,94,520179,0.0-61.0-0.11,FALSE,FALSE,TRUE,FALSE,"""event"",""trial"",""time""
""fullscreenenter"",""5"",""82398""
","
","
","""event"",""trial"",""time""
""fullscreenenter"",""5"",""82398""
","
",398.31500001309905,NA,49,NA,NA,3000,1,NA,NA,images/earth.jpg,images/tutrocket1,images/tutrocket2,null,images/tutrocket2,NA,1,practice,null,1,NA,NA,NA,sub63
d3-animate-choice,95,522549,0.0-61.0-1.11,FALSE,FALSE,TRUE,FALSE,"""event"",""trial"",""time""
""fullscreenenter"",""5"",""82398""
","
","
","""event"",""trial"",""time""
""fullscreenenter"",""5"",""82398""
","
",362.6900000090245,NA,48,NA,NA,3000,1,NA,NA,images/tutyellowplanet.jpg,images/tutalien4,images/tutalien3,images/tutrocket2,images/tutalien4,images/nothing.png,2,practice,false,2,rare,0,2020-06-19T16:36:46Z,sub63
two-step-fixation,96,523558,0.0-61.0-2.11,FALSE,FALSE,TRUE,FALSE,"""event"",""trial"",""time""
""fullscreenenter"",""5"",""82398""
","
","
","""event"",""trial"",""time""
""fullscreenenter"",""5"",""82398""
","
",NA,images/earth.jpg,NA,NA,NA,NA,NA,NA,NA,NA,NA,NA,NA,NA,NA,fixation,NA,NA,NA,NA,NA,NA,sub63
d3-animate-choice,97,526123,0.0-61.0-0.12,FALSE,FALSE,TRUE,FALSE,"""event"",""trial"",""time""
""fullscreenenter"",""5"",""82398""
","
","
","""event"",""trial"",""time""
""fullscreenenter"",""5"",""82398""
","
",557.9050000087591,NA,49,NA,NA,3000,1,NA,NA,images/earth.jpg,images/tutrocket1,images/tutrocket2,null,images/tutrocket2,NA,1,practice,null,1,NA,NA,NA,sub63
d3-animate-choice,98,528501,0.0-61.0-1.12,FALSE,FALSE,TRUE,FALSE,"""event"",""trial"",""time""
""fullscreenenter"",""5"",""82398""
","
","
","""event"",""trial"",""time""
""fullscreenenter"",""5"",""82398""
","
",367.6899999991292,NA,49,NA,NA,3000,1,NA,NA,images/tutgreenplanet.jpg,images/tutalien2,images/tutalien1,images/tutrocket2,images/tutalien1,images/nothing.png,2,practice,true,1,common,0,2020-06-19T16:36:52Z,sub63
two-step-fixation,99,529506,0.0-61.0-2.12,FALSE,FALSE,TRUE,FALSE,"""event"",""trial"",""time""
""fullscreenenter"",""5"",""82398""
","
","
","""event"",""trial"",""time""
""fullscreenenter"",""5"",""82398""
","
",NA,images/earth.jpg,NA,NA,NA,NA,NA,NA,NA,NA,NA,NA,NA,NA,NA,fixation,NA,NA,NA,NA,NA,NA,sub63
d3-animate-choice,100,531882,0.0-61.0-0.13,FALSE,FALSE,TRUE,FALSE,"""event"",""trial"",""time""
""fullscreenenter"",""5"",""82398""
","
","
","""event"",""trial"",""time""
""fullscreenenter"",""5"",""82398""
","
",370.2999999950407,NA,48,NA,NA,3000,1,NA,NA,images/earth.jpg,images/tutrocket1,images/tutrocket2,null,images/tutrocket1,NA,1,practice,null,2,NA,NA,NA,sub63
d3-animate-choice,101,534407,0.0-61.0-1.13,FALSE,FALSE,TRUE,FALSE,"""event"",""trial"",""time""
""fullscreenenter"",""5"",""82398""
","
","
","""event"",""trial"",""time""
""fullscreenenter"",""5"",""82398""
","
",519.9699999939185,NA,49,NA,NA,3000,1,NA,NA,images/tutyellowplanet.jpg,images/tutalien4,images/tutalien3,images/tutrocket1,images/tutalien3,images/nothing.png,2,practice,true,1,common,0,2020-06-19T16:36:57Z,sub63
two-step-fixation,102,535414,0.0-61.0-2.13,FALSE,FALSE,TRUE,FALSE,"""event"",""trial"",""time""
""fullscreenenter"",""5"",""82398""
","
","
","""event"",""trial"",""time""
""fullscreenenter"",""5"",""82398""
","
",NA,images/earth.jpg,NA,NA,NA,NA,NA,NA,NA,NA,NA,NA,NA,NA,NA,fixation,NA,NA,NA,NA,NA,NA,sub63
d3-animate-choice,103,537712,0.0-61.0-0.14,FALSE,FALSE,TRUE,FALSE,"""event"",""trial"",""time""
""fullscreenenter"",""5"",""82398""
","
","
","""event"",""trial"",""time""
""fullscreenenter"",""5"",""82398""
","
",289.29500000958797,NA,49,NA,NA,3000,1,NA,NA,images/earth.jpg,images/tutrocket1,images/tutrocket2,null,images/tutrocket2,NA,1,practice,null,1,NA,NA,NA,sub63
d3-animate-choice,104,540062,0.0-61.0-1.14,FALSE,FALSE,TRUE,FALSE,"""event"",""trial"",""time""
""fullscreenenter"",""5"",""82398""
","
","
","""event"",""trial"",""time""
""fullscreenenter"",""5"",""82398""
","
",345.86500001023524,NA,48,NA,NA,3000,1,NA,NA,images/tutgreenplanet.jpg,images/tutalien2,images/tutalien1,images/tutrocket2,images/tutalien2,images/nothing.png,2,practice,true,2,common,0,2020-06-19T16:37:03Z,sub63
two-step-fixation,105,541066,0.0-61.0-2.14,FALSE,FALSE,TRUE,FALSE,"""event"",""trial"",""time""
""fullscreenenter"",""5"",""82398""
","
","
","""event"",""trial"",""time""
""fullscreenenter"",""5"",""82398""
","
",NA,images/earth.jpg,NA,NA,NA,NA,NA,NA,NA,NA,NA,NA,NA,NA,NA,fixation,NA,NA,NA,NA,NA,NA,sub63
d3-animate-choice,106,543337,0.0-61.0-0.15,FALSE,FALSE,TRUE,FALSE,"""event"",""trial"",""time""
""fullscreenenter"",""5"",""82398""
","
","
","""event"",""trial"",""time""
""fullscreenenter"",""5"",""82398""
","
",266.6750000062166,NA,48,NA,NA,3000,1,NA,NA,images/earth.jpg,images/tutrocket1,images/tutrocket2,null,images/tutrocket1,NA,1,practice,null,2,NA,NA,NA,sub63
d3-animate-choice,107,545881,0.0-61.0-1.15,FALSE,FALSE,TRUE,FALSE,"""event"",""trial"",""time""
""fullscreenenter"",""5"",""82398""
","
","
","""event"",""trial"",""time""
""fullscreenenter"",""5"",""82398""
","
",537.1699999959674,NA,48,NA,NA,3000,1,NA,NA,images/tutgreenplanet.jpg,images/tutalien2,images/tutalien1,images/tutrocket1,images/tutalien2,images/t.png,2,practice,false,2,rare,1,2020-06-19T16:37:09Z,sub63
two-step-fixation,108,546889,0.0-61.0-2.15,FALSE,FALSE,TRUE,FALSE,"""event"",""trial"",""time""
""fullscreenenter"",""5"",""82398""
","
","
","""event"",""trial"",""time""
""fullscreenenter"",""5"",""82398""
","
",NA,images/earth.jpg,NA,NA,NA,NA,NA,NA,NA,NA,NA,NA,NA,NA,NA,fixation,NA,NA,NA,NA,NA,NA,sub63
d3-animate-choice,109,549182,0.0-61.0-0.16,FALSE,FALSE,TRUE,FALSE,"""event"",""trial"",""time""
""fullscreenenter"",""5"",""82398""
","
","
","""event"",""trial"",""time""
""fullscreenenter"",""5"",""82398""
","
",283.5499999928288,NA,49,NA,NA,3000,1,NA,NA,images/earth.jpg,images/tutrocket1,images/tutrocket2,null,images/tutrocket2,NA,1,practice,null,1,NA,NA,NA,sub63
d3-animate-choice,110,551660,0.0-61.0-1.16,FALSE,FALSE,TRUE,FALSE,"""event"",""trial"",""time""
""fullscreenenter"",""5"",""82398""
","
","
","""event"",""trial"",""time""
""fullscreenenter"",""5"",""82398""
","
",469.3950000073528,NA,48,NA,NA,3000,1,NA,NA,images/tutgreenplanet.jpg,images/tutalien2,images/tutalien1,images/tutrocket2,images/tutalien2,images/t.png,2,practice,true,2,common,1,2020-06-19T16:37:15Z,sub63
two-step-fixation,111,552667,0.0-61.0-2.16,FALSE,FALSE,TRUE,FALSE,"""event"",""trial"",""time""
""fullscreenenter"",""5"",""82398""
","
","
","""event"",""trial"",""time""
""fullscreenenter"",""5"",""82398""
","
",NA,images/earth.jpg,NA,NA,NA,NA,NA,NA,NA,NA,NA,NA,NA,NA,NA,fixation,NA,NA,NA,NA,NA,NA,sub63
d3-animate-choice,112,554993,0.0-61.0-0.17,FALSE,FALSE,TRUE,FALSE,"""event"",""trial"",""time""
""fullscreenenter"",""5"",""82398""
","
","
","""event"",""trial"",""time""
""fullscreenenter"",""5"",""82398""
","
",318.7000000034459,NA,48,NA,NA,3000,1,NA,NA,images/earth.jpg,images/tutrocket1,images/tutrocket2,null,images/tutrocket1,NA,1,practice,null,2,NA,NA,NA,sub63
d3-animate-choice,113,557799,0.0-61.0-1.17,FALSE,FALSE,TRUE,FALSE,"""event"",""trial"",""time""
""fullscreenenter"",""5"",""82398""
","
","
","""event"",""trial"",""time""
""fullscreenenter"",""5"",""82398""
","
",800.3049999970244,NA,49,NA,NA,3000,1,NA,NA,images/tutyellowplanet.jpg,images/tutalien4,images/tutalien3,images/tutrocket1,images/tutalien3,images/nothing.png,2,practice,true,1,common,0,2020-06-19T16:37:21Z,sub63
two-step-fixation,114,558805,0.0-61.0-2.17,FALSE,FALSE,TRUE,FALSE,"""event"",""trial"",""time""
""fullscreenenter"",""5"",""82398""
","
","
","""event"",""trial"",""time""
""fullscreenenter"",""5"",""82398""
","
",NA,images/earth.jpg,NA,NA,NA,NA,NA,NA,NA,NA,NA,NA,NA,NA,NA,fixation,NA,NA,NA,NA,NA,NA,sub63
d3-animate-choice,115,561131,0.0-61.0-0.18,FALSE,FALSE,TRUE,FALSE,"""event"",""trial"",""time""
""fullscreenenter"",""5"",""82398""
","
","
","""event"",""trial"",""time""
""fullscreenenter"",""5"",""82398""
","
",318.33999999798834,NA,49,NA,NA,3000,1,NA,NA,images/earth.jpg,images/tutrocket1,images/tutrocket2,null,images/tutrocket2,NA,1,practice,null,1,NA,NA,NA,sub63
d3-animate-choice,116,563558,0.0-61.0-1.18,FALSE,FALSE,TRUE,FALSE,"""event"",""trial"",""time""
""fullscreenenter"",""5"",""82398""
","
","
","""event"",""trial"",""time""
""fullscreenenter"",""5"",""82398""
","
",419.3749999976717,NA,48,NA,NA,3000,1,NA,NA,images/tutyellowplanet.jpg,images/tutalien4,images/tutalien3,images/tutrocket2,images/tutalien4,images/nothing.png,2,practice,false,2,rare,0,2020-06-19T16:37:27Z,sub63
two-step-fixation,117,564566,0.0-61.0-2.18,FALSE,FALSE,TRUE,FALSE,"""event"",""trial"",""time""
""fullscreenenter"",""5"",""82398""
","
","
","""event"",""trial"",""time""
""fullscreenenter"",""5"",""82398""
","
",NA,images/earth.jpg,NA,NA,NA,NA,NA,NA,NA,NA,NA,NA,NA,NA,NA,fixation,NA,NA,NA,NA,NA,NA,sub63
d3-animate-choice,118,566852,0.0-61.0-0.19,FALSE,FALSE,TRUE,FALSE,"""event"",""trial"",""time""
""fullscreenenter"",""5"",""82398""
","
","
","""event"",""trial"",""time""
""fullscreenenter"",""5"",""82398""
","
",279.1799999977229,NA,48,NA,NA,3000,1,NA,NA,images/earth.jpg,images/tutrocket1,images/tutrocket2,null,images/tutrocket1,NA,1,practice,null,2,NA,NA,NA,sub63
d3-animate-choice,119,569330,0.0-61.0-1.19,FALSE,FALSE,TRUE,FALSE,"""event"",""trial"",""time""
""fullscreenenter"",""5"",""82398""
","
","
","""event"",""trial"",""time""
""fullscreenenter"",""5"",""82398""
","
",473.51999999955297,NA,48,NA,NA,3000,1,NA,NA,images/tutyellowplanet.jpg,images/tutalien4,images/tutalien3,images/tutrocket1,images/tutalien4,images/nothing.png,2,practice,true,2,common,0,2020-06-19T16:37:32Z,sub63
two-step-fixation,120,570335,0.0-61.0-2.19,FALSE,FALSE,TRUE,FALSE,"""event"",""trial"",""time""
""fullscreenenter"",""5"",""82398""
","
","
","""event"",""trial"",""time""
""fullscreenenter"",""5"",""82398""
","
",NA,images/earth.jpg,NA,NA,NA,NA,NA,NA,NA,NA,NA,NA,NA,NA,NA,fixation,NA,NA,NA,NA,NA,NA,sub63
d3-instructions,121,577960,0.0-62.0,FALSE,FALSE,TRUE,FALSE,"""event"",""trial"",""time""
""fullscreenenter"",""5"",""82398""
","
","
","""event"",""trial"",""time""
""fullscreenenter"",""5"",""82398""
","
",NA,NA,NA,NA,NA,NA,NA,NA,NA,NA,NA,NA,NA,NA,NA,NA,NA,NA,NA,NA,NA,NA,sub63
audio-keyboard-response,122,583018,0.0-63.0,FALSE,FALSE,TRUE,FALSE,"""event"",""trial"",""time""
""fullscreenenter"",""5"",""82398""
","
","
","""event"",""trial"",""time""
""fullscreenenter"",""5"",""82398""
","
",5056,audio/instructions/treasure_feedback.wav,32,NA,NA,NA,NA,NA,NA,NA,NA,NA,NA,NA,NA,NA,NA,NA,NA,NA,NA,NA,sub63
d3-instructions,123,602985,0.0-64.0,FALSE,FALSE,TRUE,FALSE,"""event"",""trial"",""time""
""fullscreenenter"",""5"",""82398""
","
","
","""event"",""trial"",""time""
""fullscreenenter"",""5"",""82398""
","
",NA,NA,NA,NA,NA,NA,NA,NA,NA,NA,NA,NA,NA,NA,NA,NA,NA,NA,NA,NA,NA,NA,sub63
d3-instructions,124,614458,0.0-65.0,FALSE,FALSE,TRUE,FALSE,"""event"",""trial"",""time""
""fullscreenenter"",""5"",""82398""
","
","
","""event"",""trial"",""time""
""fullscreenenter"",""5"",""82398""
","
",NA,NA,NA,NA,NA,NA,NA,NA,NA,NA,NA,NA,NA,NA,NA,NA,NA,NA,NA,NA,NA,NA,sub63
d3-instructions,125,626659,0.0-66.0,FALSE,FALSE,TRUE,FALSE,"""event"",""trial"",""time""
""fullscreenenter"",""5"",""82398""
","
","
","""event"",""trial"",""time""
""fullscreenenter"",""5"",""82398""
","
",NA,NA,NA,NA,NA,NA,NA,NA,NA,NA,NA,NA,NA,NA,NA,NA,NA,NA,NA,NA,NA,NA,sub63
d3-instructions,126,639274,0.0-67.0,FALSE,FALSE,TRUE,FALSE,"""event"",""trial"",""time""
""fullscreenenter"",""5"",""82398""
","
","
","""event"",""trial"",""time""
""fullscreenenter"",""5"",""82398""
","
",NA,NA,NA,NA,NA,NA,NA,NA,NA,NA,NA,NA,NA,NA,NA,NA,NA,NA,NA,NA,NA,NA,sub63
d3-instructions,127,656516,0.0-68.0,FALSE,FALSE,TRUE,FALSE,"""event"",""trial"",""time""
""fullscreenenter"",""5"",""82398""
","
","
","""event"",""trial"",""time""
""fullscreenenter"",""5"",""82398""
","
",NA,NA,NA,NA,NA,NA,NA,NA,NA,NA,NA,NA,NA,NA,NA,NA,NA,NA,NA,NA,NA,NA,sub63
instructions-quiz,128,662847,0.0-69.0,FALSE,FALSE,TRUE,FALSE,"""event"",""trial"",""time""
""fullscreenenter"",""5"",""82398""
","
","
","""event"",""trial"",""time""
""fullscreenenter"",""5"",""82398""
","
",6327.069999999367,audio/quiz/Q1_Prompt.wav,NA,1,NA,NA,NA,NA,NA,NA,NA,NA,NA,NA,NA,NA,NA,NA,NA,NA,NA,NA,sub63
audio-keyboard-response,129,671954,0.0-70.0,FALSE,FALSE,TRUE,FALSE,"""event"",""trial"",""time""
""fullscreenenter"",""5"",""82398""
","
","
","""event"",""trial"",""time""
""fullscreenenter"",""5"",""82398""
","
",9104,audio/quiz/Q1_Correct.wav,32,NA,NA,NA,NA,NA,NA,NA,NA,NA,NA,NA,NA,NA,NA,NA,NA,NA,NA,NA,sub63
instructions-quiz,130,675733,0.0-71.0,FALSE,FALSE,TRUE,FALSE,"""event"",""trial"",""time""
""fullscreenenter"",""5"",""82398""
","
","
","""event"",""trial"",""time""
""fullscreenenter"",""5"",""82398""
","
",3776.8949999881443,audio/quiz/Q2_Prompt.wav,NA,0,NA,NA,NA,NA,NA,NA,NA,NA,NA,NA,NA,NA,NA,NA,NA,NA,NA,NA,sub63
audio-keyboard-response,131,677854,0.0-72.0,FALSE,FALSE,TRUE,FALSE,"""event"",""trial"",""time""
""fullscreenenter"",""5"",""82398""
","
","
","""event"",""trial"",""time""
""fullscreenenter"",""5"",""82398""
","
",2117,audio/quiz/Q2_Correct.wav,32,NA,NA,NA,NA,NA,NA,NA,NA,NA,NA,NA,NA,NA,NA,NA,NA,NA,NA,NA,sub63
instructions-quiz,132,681051,0.0-73.0,FALSE,FALSE,TRUE,FALSE,"""event"",""trial"",""time""
""fullscreenenter"",""5"",""82398""
","
","
","""event"",""trial"",""time""
""fullscreenenter"",""5"",""82398""
","
",3195.6350000109524,audio/quiz/Q3_Prompt.wav,NA,1,NA,NA,NA,NA,NA,NA,NA,NA,NA,NA,NA,NA,NA,NA,NA,NA,NA,NA,sub63
audio-keyboard-response,133,682099,0.0-74.0,FALSE,FALSE,TRUE,FALSE,"""event"",""trial"",""time""
""fullscreenenter"",""5"",""82398""
","
","
","""event"",""trial"",""time""
""fullscreenenter"",""5"",""82398""
","
",1051,audio/quiz/Q3_Correct.wav,32,NA,NA,NA,NA,NA,NA,NA,NA,NA,NA,NA,NA,NA,NA,NA,NA,NA,NA,NA,sub63
d3-instructions,134,690220,0.0-75.0,FALSE,FALSE,TRUE,FALSE,"""event"",""trial"",""time""
""fullscreenenter"",""5"",""82398""
","
","
","""event"",""trial"",""time""
""fullscreenenter"",""5"",""82398""
","
",NA,NA,NA,NA,NA,NA,NA,NA,NA,NA,NA,NA,NA,NA,NA,NA,NA,NA,NA,NA,NA,NA,sub63
d3-animate-choice,135,693646,0.0-76.0-0.0,FALSE,FALSE,TRUE,FALSE,"""event"",""trial"",""time""
""fullscreenenter"",""5"",""82398""
","
","
","""event"",""trial"",""time""
""fullscreenenter"",""5"",""82398""
","
",1418.4749999985797,NA,48,NA,NA,3000,1,NA,NA,images/earth.jpg,images/rocket1,images/rocket2,null,images/rocket1,NA,1,real,null,2,NA,NA,NA,sub63
d3-animate-choice,136,696052,0.0-76.0-1.0,FALSE,FALSE,TRUE,FALSE,"""event"",""trial"",""time""
""fullscreenenter"",""5"",""82398""
","
","
","""event"",""trial"",""time""
""fullscreenenter"",""5"",""82398""
","
",400.4150000109803,NA,49,NA,NA,3000,1,NA,NA,images/purpleplanet.jpg,images/alien4,images/alien3,images/rocket1,images/alien3,images/nothing.png,2,real,true,1,common,0,2020-06-19T16:39:39Z,sub63
two-step-fixation,137,697055,0.0-76.0-2.0,FALSE,FALSE,TRUE,FALSE,"""event"",""trial"",""time""
""fullscreenenter"",""5"",""82398""
","
","
","""event"",""trial"",""time""
""fullscreenenter"",""5"",""82398""
","
",NA,images/earth.jpg,NA,NA,NA,NA,NA,NA,NA,NA,NA,NA,NA,NA,NA,fixation,NA,NA,NA,NA,NA,NA,sub63
d3-animate-choice,138,699374,0.0-76.0-0.1,FALSE,FALSE,TRUE,FALSE,"""event"",""trial"",""time""
""fullscreenenter"",""5"",""82398""
","
","
","""event"",""trial"",""time""
""fullscreenenter"",""5"",""82398""
","
",314.82500000856817,NA,49,NA,NA,3000,1,NA,NA,images/earth.jpg,images/rocket1,images/rocket2,null,images/rocket2,NA,1,real,null,1,NA,NA,NA,sub63
d3-animate-choice,139,701898,0.0-76.0-1.1,FALSE,FALSE,TRUE,FALSE,"""event"",""trial"",""time""
""fullscreenenter"",""5"",""82398""
","
","
","""event"",""trial"",""time""
""fullscreenenter"",""5"",""82398""
","
",520.635000008042,NA,48,NA,NA,3000,1,NA,NA,images/redplanet1.jpg,images/alien2,images/alien1,images/rocket2,images/alien2,images/nothing.png,2,real,true,2,common,0,2020-06-19T16:39:45Z,sub63
two-step-fixation,140,702902,0.0-76.0-2.1,FALSE,FALSE,TRUE,FALSE,"""event"",""trial"",""time""
""fullscreenenter"",""5"",""82398""
","
","
","""event"",""trial"",""time""
""fullscreenenter"",""5"",""82398""
","
",NA,images/earth.jpg,NA,NA,NA,NA,NA,NA,NA,NA,NA,NA,NA,NA,NA,fixation,NA,NA,NA,NA,NA,NA,sub63
d3-animate-choice,141,705180,0.0-76.0-0.2,FALSE,FALSE,TRUE,FALSE,"""event"",""trial"",""time""
""fullscreenenter"",""5"",""82398""
","
","
","""event"",""trial"",""time""
""fullscreenenter"",""5"",""82398""
","
",272.0450000051642,NA,49,NA,NA,3000,1,NA,NA,images/earth.jpg,images/rocket1,images/rocket2,null,images/rocket2,NA,1,real,null,1,NA,NA,NA,sub63
d3-animate-choice,142,707686,0.0-76.0-1.2,FALSE,FALSE,TRUE,FALSE,"""event"",""trial"",""time""
""fullscreenenter"",""5"",""82398""
","
","
","""event"",""trial"",""time""
""fullscreenenter"",""5"",""82398""
","
",501.3199999957578,NA,49,NA,NA,3000,1,NA,NA,images/redplanet1.jpg,images/alien2,images/alien1,images/rocket2,images/alien1,images/t.png,2,real,true,1,common,1,2020-06-19T16:39:51Z,sub63
two-step-fixation,143,708690,0.0-76.0-2.2,FALSE,FALSE,TRUE,FALSE,"""event"",""trial"",""time""
""fullscreenenter"",""5"",""82398""
","
","
","""event"",""trial"",""time""
""fullscreenenter"",""5"",""82398""
","
",NA,images/earth.jpg,NA,NA,NA,NA,NA,NA,NA,NA,NA,NA,NA,NA,NA,fixation,NA,NA,NA,NA,NA,NA,sub63
d3-animate-choice,144,711099,0.0-76.0-0.3,FALSE,FALSE,TRUE,FALSE,"""event"",""trial"",""time""
""fullscreenenter"",""5"",""82398""
","
","
","""event"",""trial"",""time""
""fullscreenenter"",""5"",""82398""
","
",403.40500000456814,NA,48,NA,NA,3000,1,NA,NA,images/earth.jpg,images/rocket1,images/rocket2,null,images/rocket1,NA,1,real,null,2,NA,NA,NA,sub63
d3-animate-choice,145,713535,0.0-76.0-1.3,FALSE,FALSE,TRUE,FALSE,"""event"",""trial"",""time""
""fullscreenenter"",""5"",""82398""
","
","
","""event"",""trial"",""time""
""fullscreenenter"",""5"",""82398""
","
",429.32500000461005,NA,48,NA,NA,3000,1,NA,NA,images/purpleplanet.jpg,images/alien4,images/alien3,images/rocket1,images/alien4,images/t.png,2,real,true,2,common,1,2020-06-19T16:39:57Z,sub63
two-step-fixation,146,714542,0.0-76.0-2.3,FALSE,FALSE,TRUE,FALSE,"""event"",""trial"",""time""
""fullscreenenter"",""5"",""82398""
","
","
","""event"",""trial"",""time""
""fullscreenenter"",""5"",""82398""
","
",NA,images/earth.jpg,NA,NA,NA,NA,NA,NA,NA,NA,NA,NA,NA,NA,NA,fixation,NA,NA,NA,NA,NA,NA,sub63
d3-animate-choice,147,716810,0.0-76.0-0.4,FALSE,FALSE,TRUE,FALSE,"""event"",""trial"",""time""
""fullscreenenter"",""5"",""82398""
","
","
","""event"",""trial"",""time""
""fullscreenenter"",""5"",""82398""
","
",260.0899999961257,NA,49,NA,NA,3000,1,NA,NA,images/earth.jpg,images/rocket1,images/rocket2,null,images/rocket2,NA,1,real,null,1,NA,NA,NA,sub63
d3-animate-choice,148,719250,0.0-76.0-1.4,FALSE,FALSE,TRUE,FALSE,"""event"",""trial"",""time""
""fullscreenenter"",""5"",""82398""
","
","
","""event"",""trial"",""time""
""fullscreenenter"",""5"",""82398""
","
",433.2799999974668,NA,49,NA,NA,3000,1,NA,NA,images/redplanet1.jpg,images/alien2,images/alien1,images/rocket2,images/alien1,images/t.png,2,real,true,1,common,1,2020-06-19T16:40:02Z,sub63
two-step-fixation,149,720254,0.0-76.0-2.4,FALSE,FALSE,TRUE,FALSE,"""event"",""trial"",""time""
""fullscreenenter"",""5"",""82398""
","
","
","""event"",""trial"",""time""
""fullscreenenter"",""5"",""82398""
","
",NA,images/earth.jpg,NA,NA,NA,NA,NA,NA,NA,NA,NA,NA,NA,NA,NA,fixation,NA,NA,NA,NA,NA,NA,sub63
d3-animate-choice,150,722523,0.0-76.0-0.5,FALSE,FALSE,TRUE,FALSE,"""event"",""trial"",""time""
""fullscreenenter"",""5"",""82398""
","
","
","""event"",""trial"",""time""
""fullscreenenter"",""5"",""82398""
","
",265.58000000659376,NA,48,NA,NA,3000,1,NA,NA,images/earth.jpg,images/rocket1,images/rocket2,null,images/rocket1,NA,1,real,null,2,NA,NA,NA,sub63
d3-animate-choice,151,724858,0.0-76.0-1.5,FALSE,FALSE,TRUE,FALSE,"""event"",""trial"",""time""
""fullscreenenter"",""5"",""82398""
","
","
","""event"",""trial"",""time""
""fullscreenenter"",""5"",""82398""
","
",328.39000000967644,NA,48,NA,NA,3000,1,NA,NA,images/purpleplanet.jpg,images/alien4,images/alien3,images/rocket1,images/alien4,images/t.png,2,real,true,2,common,1,2020-06-19T16:40:08Z,sub63
two-step-fixation,152,725861,0.0-76.0-2.5,FALSE,FALSE,TRUE,FALSE,"""event"",""trial"",""time""
""fullscreenenter"",""5"",""82398""
","
","
","""event"",""trial"",""time""
""fullscreenenter"",""5"",""82398""
","
",NA,images/earth.jpg,NA,NA,NA,NA,NA,NA,NA,NA,NA,NA,NA,NA,NA,fixation,NA,NA,NA,NA,NA,NA,sub63
d3-animate-choice,153,728167,0.0-76.0-0.6,FALSE,FALSE,TRUE,FALSE,"""event"",""trial"",""time""
""fullscreenenter"",""5"",""82398""
","
","
","""event"",""trial"",""time""
""fullscreenenter"",""5"",""82398""
","
",301.62500000733417,NA,48,NA,NA,3000,1,NA,NA,images/earth.jpg,images/rocket1,images/rocket2,null,images/rocket1,NA,1,real,null,2,NA,NA,NA,sub63
d3-animate-choice,154,730621,0.0-76.0-1.6,FALSE,FALSE,TRUE,FALSE,"""event"",""trial"",""time""
""fullscreenenter"",""5"",""82398""
","
","
","""event"",""trial"",""time""
""fullscreenenter"",""5"",""82398""
","
",449.04500000120606,NA,48,NA,NA,3000,1,NA,NA,images/purpleplanet.jpg,images/alien4,images/alien3,images/rocket1,images/alien4,images/t.png,2,real,true,2,common,1,2020-06-19T16:40:14Z,sub63
two-step-fixation,155,731626,0.0-76.0-2.6,FALSE,FALSE,TRUE,FALSE,"""event"",""trial"",""time""
""fullscreenenter"",""5"",""82398""
","
","
","""event"",""trial"",""time""
""fullscreenenter"",""5"",""82398""
","
",NA,images/earth.jpg,NA,NA,NA,NA,NA,NA,NA,NA,NA,NA,NA,NA,NA,fixation,NA,NA,NA,NA,NA,NA,sub63
d3-animate-choice,156,733903,0.0-76.0-0.7,FALSE,FALSE,TRUE,FALSE,"""event"",""trial"",""time""
""fullscreenenter"",""5"",""82398""
","
","
","""event"",""trial"",""time""
""fullscreenenter"",""5"",""82398""
","
",271.4249999989988,NA,48,NA,NA,3000,1,NA,NA,images/earth.jpg,images/rocket1,images/rocket2,null,images/rocket1,NA,1,real,null,2,NA,NA,NA,sub63
d3-animate-choice,157,736227,0.0-76.0-1.7,FALSE,FALSE,TRUE,FALSE,"""event"",""trial"",""time""
""fullscreenenter"",""5"",""82398""
","
","
","""event"",""trial"",""time""
""fullscreenenter"",""5"",""82398""
","
",317.04499998886604,NA,48,NA,NA,3000,1,NA,NA,images/redplanet1.jpg,images/alien2,images/alien1,images/rocket1,images/alien2,images/nothing.png,2,real,false,2,rare,0,2020-06-19T16:40:19Z,sub63
two-step-fixation,158,737232,0.0-76.0-2.7,FALSE,FALSE,TRUE,FALSE,"""event"",""trial"",""time""
""fullscreenenter"",""5"",""82398""
","
","
","""event"",""trial"",""time""
""fullscreenenter"",""5"",""82398""
","
",NA,images/earth.jpg,NA,NA,NA,NA,NA,NA,NA,NA,NA,NA,NA,NA,NA,fixation,NA,NA,NA,NA,NA,NA,sub63
d3-animate-choice,159,739505,0.0-76.0-0.8,FALSE,FALSE,TRUE,FALSE,"""event"",""trial"",""time""
""fullscreenenter"",""5"",""82398""
","
","
","""event"",""trial"",""time""
""fullscreenenter"",""5"",""82398""
","
",267.59500001207925,NA,49,NA,NA,3000,1,NA,NA,images/earth.jpg,images/rocket1,images/rocket2,null,images/rocket2,NA,1,real,null,1,NA,NA,NA,sub63
d3-animate-choice,160,741924,0.0-76.0-1.8,FALSE,FALSE,TRUE,FALSE,"""event"",""trial"",""time""
""fullscreenenter"",""5"",""82398""
","
","
","""event"",""trial"",""time""
""fullscreenenter"",""5"",""82398""
","
",413.6700000090059,NA,49,NA,NA,3000,1,NA,NA,images/redplanet1.jpg,images/alien2,images/alien1,images/rocket2,images/alien1,images/t.png,2,real,true,1,common,1,2020-06-19T16:40:25Z,sub63
two-step-fixation,161,742929,0.0-76.0-2.8,FALSE,FALSE,TRUE,FALSE,"""event"",""trial"",""time""
""fullscreenenter"",""5"",""82398""
","
","
","""event"",""trial"",""time""
""fullscreenenter"",""5"",""82398""
","
",NA,images/earth.jpg,NA,NA,NA,NA,NA,NA,NA,NA,NA,NA,NA,NA,NA,fixation,NA,NA,NA,NA,NA,NA,sub63
d3-animate-choice,162,744982,0.0-76.0-0.9,FALSE,FALSE,TRUE,FALSE,"""event"",""trial"",""time""
""fullscreenenter"",""5"",""82398""
","
","
","""event"",""trial"",""time""
""fullscreenenter"",""5"",""82398""
","
",46.62500000267755,NA,49,NA,NA,3000,1,NA,NA,images/earth.jpg,images/rocket1,images/rocket2,null,images/rocket2,NA,1,real,null,1,NA,NA,NA,sub63
d3-animate-choice,163,747399,0.0-76.0-1.9,FALSE,FALSE,TRUE,FALSE,"""event"",""trial"",""time""
""fullscreenenter"",""5"",""82398""
","
","
","""event"",""trial"",""time""
""fullscreenenter"",""5"",""82398""
","
",409.70499999821186,NA,49,NA,NA,3000,1,NA,NA,images/redplanet1.jpg,images/alien2,images/alien1,images/rocket2,images/alien1,images/nothing.png,2,real,true,1,common,0,2020-06-19T16:40:30Z,sub63
two-step-fixation,164,748405,0.0-76.0-2.9,FALSE,FALSE,TRUE,FALSE,"""event"",""trial"",""time""
""fullscreenenter"",""5"",""82398""
","
","
","""event"",""trial"",""time""
""fullscreenenter"",""5"",""82398""
","
",NA,images/earth.jpg,NA,NA,NA,NA,NA,NA,NA,NA,NA,NA,NA,NA,NA,fixation,NA,NA,NA,NA,NA,NA,sub63
d3-animate-choice,165,750748,0.0-76.0-0.10,FALSE,FALSE,TRUE,FALSE,"""event"",""trial"",""time""
""fullscreenenter"",""5"",""82398""
","
","
","""event"",""trial"",""time""
""fullscreenenter"",""5"",""82398""
","
",337.59500000451226,NA,48,NA,NA,3000,1,NA,NA,images/earth.jpg,images/rocket1,images/rocket2,null,images/rocket1,NA,1,real,null,2,NA,NA,NA,sub63
d3-animate-choice,166,753110,0.0-76.0-1.10,FALSE,FALSE,TRUE,FALSE,"""event"",""trial"",""time""
""fullscreenenter"",""5"",""82398""
","
","
","""event"",""trial"",""time""
""fullscreenenter"",""5"",""82398""
","
",357.6549999997951,NA,48,NA,NA,3000,1,NA,NA,images/redplanet1.jpg,images/alien2,images/alien1,images/rocket1,images/alien2,images/nothing.png,2,real,false,2,rare,0,2020-06-19T16:40:36Z,sub63
two-step-fixation,167,754118,0.0-76.0-2.10,FALSE,FALSE,TRUE,FALSE,"""event"",""trial"",""time""
""fullscreenenter"",""5"",""82398""
","
","
","""event"",""trial"",""time""
""fullscreenenter"",""5"",""82398""
","
",NA,images/earth.jpg,NA,NA,NA,NA,NA,NA,NA,NA,NA,NA,NA,NA,NA,fixation,NA,NA,NA,NA,NA,NA,sub63
d3-animate-choice,168,756342,0.0-76.0-0.11,FALSE,FALSE,TRUE,FALSE,"""event"",""trial"",""time""
""fullscreenenter"",""5"",""82398""
","
","
","""event"",""trial"",""time""
""fullscreenenter"",""5"",""82398""
","
",218.07000000262633,NA,48,NA,NA,3000,1,NA,NA,images/earth.jpg,images/rocket1,images/rocket2,null,images/rocket1,NA,1,real,null,2,NA,NA,NA,sub63
d3-animate-choice,169,758715,0.0-76.0-1.11,FALSE,FALSE,TRUE,FALSE,"""event"",""trial"",""time""
""fullscreenenter"",""5"",""82398""
","
","
","""event"",""trial"",""time""
""fullscreenenter"",""5"",""82398""
","
",365.91999999654945,NA,48,NA,NA,3000,1,NA,NA,images/purpleplanet.jpg,images/alien4,images/alien3,images/rocket1,images/alien4,images/nothing.png,2,real,true,2,common,0,2020-06-19T16:40:42Z,sub63
two-step-fixation,170,759720,0.0-76.0-2.11,FALSE,FALSE,TRUE,FALSE,"""event"",""trial"",""time""
""fullscreenenter"",""5"",""82398""
","
","
","""event"",""trial"",""time""
""fullscreenenter"",""5"",""82398""
","
",NA,images/earth.jpg,NA,NA,NA,NA,NA,NA,NA,NA,NA,NA,NA,NA,NA,fixation,NA,NA,NA,NA,NA,NA,sub63
d3-animate-choice,171,762503,0.0-76.0-0.12,FALSE,FALSE,TRUE,FALSE,"""event"",""trial"",""time""
""fullscreenenter"",""5"",""82398""
","
","
","""event"",""trial"",""time""
""fullscreenenter"",""5"",""82398""
","
",774.3999999947846,NA,49,NA,NA,3000,1,NA,NA,images/earth.jpg,images/rocket1,images/rocket2,null,images/rocket2,NA,1,real,null,1,NA,NA,NA,sub63
d3-animate-choice,172,765083,0.0-76.0-1.12,FALSE,FALSE,TRUE,FALSE,"""event"",""trial"",""time""
""fullscreenenter"",""5"",""82398""
","
","
","""event"",""trial"",""time""
""fullscreenenter"",""5"",""82398""
","
",574.9150000046939,NA,49,NA,NA,3000,1,NA,NA,images/redplanet1.jpg,images/alien2,images/alien1,images/rocket2,images/alien1,images/t.png,2,real,true,1,common,1,2020-06-19T16:40:48Z,sub63
two-step-fixation,173,766087,0.0-76.0-2.12,FALSE,FALSE,TRUE,FALSE,"""event"",""trial"",""time""
""fullscreenenter"",""5"",""82398""
","
","
","""event"",""trial"",""time""
""fullscreenenter"",""5"",""82398""
","
",NA,images/earth.jpg,NA,NA,NA,NA,NA,NA,NA,NA,NA,NA,NA,NA,NA,fixation,NA,NA,NA,NA,NA,NA,sub63
d3-animate-choice,174,768227,0.0-76.0-0.13,FALSE,FALSE,TRUE,FALSE,"""event"",""trial"",""time""
""fullscreenenter"",""5"",""82398""
","
","
","""event"",""trial"",""time""
""fullscreenenter"",""5"",""82398""
","
",135.57500000752043,NA,49,NA,NA,3000,1,NA,NA,images/earth.jpg,images/rocket1,images/rocket2,null,images/rocket2,NA,1,real,null,1,NA,NA,NA,sub63
d3-animate-choice,175,770814,0.0-76.0-1.13,FALSE,FALSE,TRUE,FALSE,"""event"",""trial"",""time""
""fullscreenenter"",""5"",""82398""
","
","
","""event"",""trial"",""time""
""fullscreenenter"",""5"",""82398""
","
",583.4000000031665,NA,48,NA,NA,3000,1,NA,NA,images/purpleplanet.jpg,images/alien4,images/alien3,images/rocket2,images/alien4,images/t.png,2,real,false,2,rare,1,2020-06-19T16:40:54Z,sub63
two-step-fixation,176,771819,0.0-76.0-2.13,FALSE,FALSE,TRUE,FALSE,"""event"",""trial"",""time""
""fullscreenenter"",""5"",""82398""
","
","
","""event"",""trial"",""time""
""fullscreenenter"",""5"",""82398""
","
",NA,images/earth.jpg,NA,NA,NA,NA,NA,NA,NA,NA,NA,NA,NA,NA,NA,fixation,NA,NA,NA,NA,NA,NA,sub63
d3-animate-choice,177,774093,0.0-76.0-0.14,FALSE,FALSE,TRUE,FALSE,"""event"",""trial"",""time""
""fullscreenenter"",""5"",""82398""
","
","
","""event"",""trial"",""time""
""fullscreenenter"",""5"",""82398""
","
",270.05500000086613,NA,48,NA,NA,3000,1,NA,NA,images/earth.jpg,images/rocket1,images/rocket2,null,images/rocket1,NA,1,real,null,2,NA,NA,NA,sub63
d3-animate-choice,178,776587,0.0-76.0-1.14,FALSE,FALSE,TRUE,FALSE,"""event"",""trial"",""time""
""fullscreenenter"",""5"",""82398""
","
","
","""event"",""trial"",""time""
""fullscreenenter"",""5"",""82398""
","
",489.9299999960931,NA,48,NA,NA,3000,1,NA,NA,images/purpleplanet.jpg,images/alien4,images/alien3,images/rocket1,images/alien4,images/t.png,2,real,true,2,common,1,2020-06-19T16:41:00Z,sub63
two-step-fixation,179,777591,0.0-76.0-2.14,FALSE,FALSE,TRUE,FALSE,"""event"",""trial"",""time""
""fullscreenenter"",""5"",""82398""
","
","
","""event"",""trial"",""time""
""fullscreenenter"",""5"",""82398""
","
",NA,images/earth.jpg,NA,NA,NA,NA,NA,NA,NA,NA,NA,NA,NA,NA,NA,fixation,NA,NA,NA,NA,NA,NA,sub63
d3-animate-choice,180,779921,0.0-76.0-0.15,FALSE,FALSE,TRUE,FALSE,"""event"",""trial"",""time""
""fullscreenenter"",""5"",""82398""
","
","
","""event"",""trial"",""time""
""fullscreenenter"",""5"",""82398""
","
",322.6799999974901,NA,49,NA,NA,3000,1,NA,NA,images/earth.jpg,images/rocket1,images/rocket2,null,images/rocket2,NA,1,real,null,1,NA,NA,NA,sub63
d3-animate-choice,181,782363,0.0-76.0-1.15,FALSE,FALSE,TRUE,FALSE,"""event"",""trial"",""time""
""fullscreenenter"",""5"",""82398""
","
","
","""event"",""trial"",""time""
""fullscreenenter"",""5"",""82398""
","
",434.6649999934016,NA,49,NA,NA,3000,1,NA,NA,images/redplanet1.jpg,images/alien2,images/alien1,images/rocket2,images/alien1,images/t.png,2,real,true,1,common,1,2020-06-19T16:41:05Z,sub63
two-step-fixation,182,783367,0.0-76.0-2.15,FALSE,FALSE,TRUE,FALSE,"""event"",""trial"",""time""
""fullscreenenter"",""5"",""82398""
","
","
","""event"",""trial"",""time""
""fullscreenenter"",""5"",""82398""
","
",NA,images/earth.jpg,NA,NA,NA,NA,NA,NA,NA,NA,NA,NA,NA,NA,NA,fixation,NA,NA,NA,NA,NA,NA,sub63
d3-animate-choice,183,785640,0.0-76.0-0.16,FALSE,FALSE,TRUE,FALSE,"""event"",""trial"",""time""
""fullscreenenter"",""5"",""82398""
","
","
","""event"",""trial"",""time""
""fullscreenenter"",""5"",""82398""
","
",268.3649999962654,NA,49,NA,NA,3000,1,NA,NA,images/earth.jpg,images/rocket1,images/rocket2,null,images/rocket2,NA,1,real,null,1,NA,NA,NA,sub63
d3-animate-choice,184,788134,0.0-76.0-1.16,FALSE,FALSE,TRUE,FALSE,"""event"",""trial"",""time""
""fullscreenenter"",""5"",""82398""
","
","
","""event"",""trial"",""time""
""fullscreenenter"",""5"",""82398""
","
",486.51499999687076,NA,49,NA,NA,3000,1,NA,NA,images/redplanet1.jpg,images/alien2,images/alien1,images/rocket2,images/alien1,images/t.png,2,real,true,1,common,1,2020-06-19T16:41:11Z,sub63
two-step-fixation,185,789140,0.0-76.0-2.16,FALSE,FALSE,TRUE,FALSE,"""event"",""trial"",""time""
""fullscreenenter"",""5"",""82398""
","
","
","""event"",""trial"",""time""
""fullscreenenter"",""5"",""82398""
","
",NA,images/earth.jpg,NA,NA,NA,NA,NA,NA,NA,NA,NA,NA,NA,NA,NA,fixation,NA,NA,NA,NA,NA,NA,sub63
d3-animate-choice,186,791372,0.0-76.0-0.17,FALSE,FALSE,TRUE,FALSE,"""event"",""trial"",""time""
""fullscreenenter"",""5"",""82398""
","
","
","""event"",""trial"",""time""
""fullscreenenter"",""5"",""82398""
","
",228.10999999637716,NA,49,NA,NA,3000,1,NA,NA,images/earth.jpg,images/rocket1,images/rocket2,null,images/rocket2,NA,1,real,null,1,NA,NA,NA,sub63
d3-animate-choice,187,793743,0.0-76.0-1.17,FALSE,FALSE,TRUE,FALSE,"""event"",""trial"",""time""
""fullscreenenter"",""5"",""82398""
","
","
","""event"",""trial"",""time""
""fullscreenenter"",""5"",""82398""
","
",365.82500000076834,NA,49,NA,NA,3000,1,NA,NA,images/redplanet1.jpg,images/alien2,images/alien1,images/rocket2,images/alien1,images/nothing.png,2,real,true,1,common,0,2020-06-19T16:41:17Z,sub63
two-step-fixation,188,794747,0.0-76.0-2.17,FALSE,FALSE,TRUE,FALSE,"""event"",""trial"",""time""
""fullscreenenter"",""5"",""82398""
","
","
","""event"",""trial"",""time""
""fullscreenenter"",""5"",""82398""
","
",NA,images/earth.jpg,NA,NA,NA,NA,NA,NA,NA,NA,NA,NA,NA,NA,NA,fixation,NA,NA,NA,NA,NA,NA,sub63
d3-animate-choice,189,797058,0.0-76.0-0.18,FALSE,FALSE,TRUE,FALSE,"""event"",""trial"",""time""
""fullscreenenter"",""5"",""82398""
","
","
","""event"",""trial"",""time""
""fullscreenenter"",""5"",""82398""
","
",305.9099999954924,NA,48,NA,NA,3000,1,NA,NA,images/earth.jpg,images/rocket1,images/rocket2,null,images/rocket1,NA,1,real,null,2,NA,NA,NA,sub63
d3-animate-choice,190,799594,0.0-76.0-1.18,FALSE,FALSE,TRUE,FALSE,"""event"",""trial"",""time""
""fullscreenenter"",""5"",""82398""
","
","
","""event"",""trial"",""time""
""fullscreenenter"",""5"",""82398""
","
",532.2900000028312,NA,48,NA,NA,3000,1,NA,NA,images/purpleplanet.jpg,images/alien4,images/alien3,images/rocket1,images/alien4,images/t.png,2,real,true,2,common,1,2020-06-19T16:41:23Z,sub63
two-step-fixation,191,800598,0.0-76.0-2.18,FALSE,FALSE,TRUE,FALSE,"""event"",""trial"",""time""
""fullscreenenter"",""5"",""82398""
","
","
","""event"",""trial"",""time""
""fullscreenenter"",""5"",""82398""
","
",NA,images/earth.jpg,NA,NA,NA,NA,NA,NA,NA,NA,NA,NA,NA,NA,NA,fixation,NA,NA,NA,NA,NA,NA,sub63
d3-animate-choice,192,802910,0.0-76.0-0.19,FALSE,FALSE,TRUE,FALSE,"""event"",""trial"",""time""
""fullscreenenter"",""5"",""82398""
","
","
","""event"",""trial"",""time""
""fullscreenenter"",""5"",""82398""
","
",306.3150000089081,NA,48,NA,NA,3000,1,NA,NA,images/earth.jpg,images/rocket1,images/rocket2,null,images/rocket1,NA,1,real,null,2,NA,NA,NA,sub63
d3-animate-choice,193,805376,0.0-76.0-1.19,FALSE,FALSE,TRUE,FALSE,"""event"",""trial"",""time""
""fullscreenenter"",""5"",""82398""
","
","
","""event"",""trial"",""time""
""fullscreenenter"",""5"",""82398""
","
",461.7900000012014,NA,48,NA,NA,3000,1,NA,NA,images/purpleplanet.jpg,images/alien4,images/alien3,images/rocket1,images/alien4,images/t.png,2,real,true,2,common,1,2020-06-19T16:41:28Z,sub63
two-step-fixation,194,806380,0.0-76.0-2.19,FALSE,FALSE,TRUE,FALSE,"""event"",""trial"",""time""
""fullscreenenter"",""5"",""82398""
","
","
","""event"",""trial"",""time""
""fullscreenenter"",""5"",""82398""
","
",NA,images/earth.jpg,NA,NA,NA,NA,NA,NA,NA,NA,NA,NA,NA,NA,NA,fixation,NA,NA,NA,NA,NA,NA,sub63
d3-animate-choice,195,808671,0.0-76.0-0.20,FALSE,FALSE,TRUE,FALSE,"""event"",""trial"",""time""
""fullscreenenter"",""5"",""82398""
","
","
","""event"",""trial"",""time""
""fullscreenenter"",""5"",""82398""
","
",283.2300000009127,NA,48,NA,NA,3000,1,NA,NA,images/earth.jpg,images/rocket1,images/rocket2,null,images/rocket1,NA,1,real,null,2,NA,NA,NA,sub63
d3-animate-choice,196,811079,0.0-76.0-1.20,FALSE,FALSE,TRUE,FALSE,"""event"",""trial"",""time""
""fullscreenenter"",""5"",""82398""
","
","
","""event"",""trial"",""time""
""fullscreenenter"",""5"",""82398""
","
",402.9500000033295,NA,48,NA,NA,3000,1,NA,NA,images/purpleplanet.jpg,images/alien4,images/alien3,images/rocket1,images/alien4,images/nothing.png,2,real,true,2,common,0,2020-06-19T16:41:34Z,sub63
two-step-fixation,197,812084,0.0-76.0-2.20,FALSE,FALSE,TRUE,FALSE,"""event"",""trial"",""time""
""fullscreenenter"",""5"",""82398""
","
","
","""event"",""trial"",""time""
""fullscreenenter"",""5"",""82398""
","
",NA,images/earth.jpg,NA,NA,NA,NA,NA,NA,NA,NA,NA,NA,NA,NA,NA,fixation,NA,NA,NA,NA,NA,NA,sub63
d3-animate-choice,198,814376,0.0-76.0-0.21,FALSE,FALSE,TRUE,FALSE,"""event"",""trial"",""time""
""fullscreenenter"",""5"",""82398""
","
","
","""event"",""trial"",""time""
""fullscreenenter"",""5"",""82398""
","
",282.7649999962887,NA,49,NA,NA,3000,1,NA,NA,images/earth.jpg,images/rocket1,images/rocket2,null,images/rocket2,NA,1,real,null,1,NA,NA,NA,sub63
d3-animate-choice,199,816911,0.0-76.0-1.21,FALSE,FALSE,TRUE,FALSE,"""event"",""trial"",""time""
""fullscreenenter"",""5"",""82398""
","
","
","""event"",""trial"",""time""
""fullscreenenter"",""5"",""82398""
","
",530.5999999982305,NA,49,NA,NA,3000,1,NA,NA,images/redplanet1.jpg,images/alien2,images/alien1,images/rocket2,images/alien1,images/nothing.png,2,real,true,1,common,0,2020-06-19T16:41:40Z,sub63
two-step-fixation,200,817916,0.0-76.0-2.21,FALSE,FALSE,TRUE,FALSE,"""event"",""trial"",""time""
""fullscreenenter"",""5"",""82398""
","
","
","""event"",""trial"",""time""
""fullscreenenter"",""5"",""82398""
","
",NA,images/earth.jpg,NA,NA,NA,NA,NA,NA,NA,NA,NA,NA,NA,NA,NA,fixation,NA,NA,NA,NA,NA,NA,sub63
d3-animate-choice,201,820180,0.0-76.0-0.22,FALSE,FALSE,TRUE,FALSE,"""event"",""trial"",""time""
""fullscreenenter"",""5"",""82398""
","
","
","""event"",""trial"",""time""
""fullscreenenter"",""5"",""82398""
","
",256.55999999435153,NA,49,NA,NA,3000,1,NA,NA,images/earth.jpg,images/rocket1,images/rocket2,null,images/rocket2,NA,1,real,null,1,NA,NA,NA,sub63
d3-animate-choice,202,822622,0.0-76.0-1.22,FALSE,FALSE,TRUE,FALSE,"""event"",""trial"",""time""
""fullscreenenter"",""5"",""82398""
","
","
","""event"",""trial"",""time""
""fullscreenenter"",""5"",""82398""
","
",437.56500000017695,NA,48,NA,NA,3000,1,NA,NA,images/purpleplanet.jpg,images/alien4,images/alien3,images/rocket2,images/alien4,images/t.png,2,real,false,2,rare,1,2020-06-19T16:41:46Z,sub63
two-step-fixation,203,823626,0.0-76.0-2.22,FALSE,FALSE,TRUE,FALSE,"""event"",""trial"",""time""
""fullscreenenter"",""5"",""82398""
","
","
","""event"",""trial"",""time""
""fullscreenenter"",""5"",""82398""
","
",NA,images/earth.jpg,NA,NA,NA,NA,NA,NA,NA,NA,NA,NA,NA,NA,NA,fixation,NA,NA,NA,NA,NA,NA,sub63
d3-animate-choice,204,825751,0.0-76.0-0.23,FALSE,FALSE,TRUE,FALSE,"""event"",""trial"",""time""
""fullscreenenter"",""5"",""82398""
","
","
","""event"",""trial"",""time""
""fullscreenenter"",""5"",""82398""
","
",119.39499998698011,NA,49,NA,NA,3000,1,NA,NA,images/earth.jpg,images/rocket1,images/rocket2,null,images/rocket2,NA,1,real,null,1,NA,NA,NA,sub63
d3-animate-choice,205,828405,0.0-76.0-1.23,FALSE,FALSE,TRUE,FALSE,"""event"",""trial"",""time""
""fullscreenenter"",""5"",""82398""
","
","
","""event"",""trial"",""time""
""fullscreenenter"",""5"",""82398""
","
",649.7749999980442,NA,49,NA,NA,3000,1,NA,NA,images/redplanet1.jpg,images/alien2,images/alien1,images/rocket2,images/alien1,images/nothing.png,2,real,true,1,common,0,2020-06-19T16:41:51Z,sub63
two-step-fixation,206,829412,0.0-76.0-2.23,FALSE,FALSE,TRUE,FALSE,"""event"",""trial"",""time""
""fullscreenenter"",""5"",""82398""
","
","
","""event"",""trial"",""time""
""fullscreenenter"",""5"",""82398""
","
",NA,images/earth.jpg,NA,NA,NA,NA,NA,NA,NA,NA,NA,NA,NA,NA,NA,fixation,NA,NA,NA,NA,NA,NA,sub63
d3-animate-choice,207,831655,0.0-76.0-0.24,FALSE,FALSE,TRUE,FALSE,"""event"",""trial"",""time""
""fullscreenenter"",""5"",""82398""
","
","
","""event"",""trial"",""time""
""fullscreenenter"",""5"",""82398""
","
",237.14000001200475,NA,49,NA,NA,3000,1,NA,NA,images/earth.jpg,images/rocket1,images/rocket2,null,images/rocket2,NA,1,real,null,1,NA,NA,NA,sub63
d3-animate-choice,208,834547,0.0-76.0-1.24,FALSE,FALSE,TRUE,FALSE,"""event"",""trial"",""time""
""fullscreenenter"",""5"",""82398""
","
","
","""event"",""trial"",""time""
""fullscreenenter"",""5"",""82398""
","
",884.0000000054715,NA,48,NA,NA,3000,1,NA,NA,images/redplanet1.jpg,images/alien2,images/alien1,images/rocket2,images/alien2,images/nothing.png,2,real,true,2,common,0,2020-06-19T16:41:58Z,sub63
two-step-fixation,209,835554,0.0-76.0-2.24,FALSE,FALSE,TRUE,FALSE,"""event"",""trial"",""time""
""fullscreenenter"",""5"",""82398""
","
","
","""event"",""trial"",""time""
""fullscreenenter"",""5"",""82398""
","
",NA,images/earth.jpg,NA,NA,NA,NA,NA,NA,NA,NA,NA,NA,NA,NA,NA,fixation,NA,NA,NA,NA,NA,NA,sub63
d3-animate-choice,210,837871,0.0-76.0-0.25,FALSE,FALSE,TRUE,FALSE,"""event"",""trial"",""time""
""fullscreenenter"",""5"",""82398""
","
","
","""event"",""trial"",""time""
""fullscreenenter"",""5"",""82398""
","
",311.20999999984633,NA,48,NA,NA,3000,1,NA,NA,images/earth.jpg,images/rocket1,images/rocket2,null,images/rocket1,NA,1,real,null,2,NA,NA,NA,sub63
d3-animate-choice,211,840402,0.0-76.0-1.25,FALSE,FALSE,TRUE,FALSE,"""event"",""trial"",""time""
""fullscreenenter"",""5"",""82398""
","
","
","""event"",""trial"",""time""
""fullscreenenter"",""5"",""82398""
","
",526.5599999984261,NA,49,NA,NA,3000,1,NA,NA,images/redplanet1.jpg,images/alien2,images/alien1,images/rocket1,images/alien1,images/t.png,2,real,false,1,rare,1,2020-06-19T16:42:03Z,sub63
two-step-fixation,212,841407,0.0-76.0-2.25,FALSE,FALSE,TRUE,FALSE,"""event"",""trial"",""time""
""fullscreenenter"",""5"",""82398""
","
","
","""event"",""trial"",""time""
""fullscreenenter"",""5"",""82398""
","
",NA,images/earth.jpg,NA,NA,NA,NA,NA,NA,NA,NA,NA,NA,NA,NA,NA,fixation,NA,NA,NA,NA,NA,NA,sub63
d3-animate-choice,213,843957,0.0-76.0-0.26,FALSE,FALSE,TRUE,FALSE,"""event"",""trial"",""time""
""fullscreenenter"",""5"",""82398""
","
","
","""event"",""trial"",""time""
""fullscreenenter"",""5"",""82398""
","
",544.9900000094203,NA,48,NA,NA,3000,1,NA,NA,images/earth.jpg,images/rocket1,images/rocket2,null,images/rocket1,NA,1,real,null,2,NA,NA,NA,sub63
d3-animate-choice,214,846502,0.0-76.0-1.26,FALSE,FALSE,TRUE,FALSE,"""event"",""trial"",""time""
""fullscreenenter"",""5"",""82398""
","
","
","""event"",""trial"",""time""
""fullscreenenter"",""5"",""82398""
","
",540.515000000596,NA,48,NA,NA,3000,1,NA,NA,images/purpleplanet.jpg,images/alien4,images/alien3,images/rocket1,images/alien4,images/t.png,2,real,true,2,common,1,2020-06-19T16:42:10Z,sub63
two-step-fixation,215,847506,0.0-76.0-2.26,FALSE,FALSE,TRUE,FALSE,"""event"",""trial"",""time""
""fullscreenenter"",""5"",""82398""
","
","
","""event"",""trial"",""time""
""fullscreenenter"",""5"",""82398""
","
",NA,images/earth.jpg,NA,NA,NA,NA,NA,NA,NA,NA,NA,NA,NA,NA,NA,fixation,NA,NA,NA,NA,NA,NA,sub63
d3-animate-choice,216,849819,0.0-76.0-0.27,FALSE,FALSE,TRUE,FALSE,"""event"",""trial"",""time""
""fullscreenenter"",""5"",""82398""
","
","
","""event"",""trial"",""time""
""fullscreenenter"",""5"",""82398""
","
",307.0000000006985,NA,48,NA,NA,3000,1,NA,NA,images/earth.jpg,images/rocket1,images/rocket2,null,images/rocket1,NA,1,real,null,2,NA,NA,NA,sub63
d3-animate-choice,217,852214,0.0-76.0-1.27,FALSE,FALSE,TRUE,FALSE,"""event"",""trial"",""time""
""fullscreenenter"",""5"",""82398""
","
","
","""event"",""trial"",""time""
""fullscreenenter"",""5"",""82398""
","
",384.83999999880325,NA,48,NA,NA,3000,1,NA,NA,images/purpleplanet.jpg,images/alien4,images/alien3,images/rocket1,images/alien4,images/t.png,2,real,true,2,common,1,2020-06-19T16:42:15Z,sub63
two-step-fixation,218,853222,0.0-76.0-2.27,FALSE,FALSE,TRUE,FALSE,"""event"",""trial"",""time""
""fullscreenenter"",""5"",""82398""
","
","
","""event"",""trial"",""time""
""fullscreenenter"",""5"",""82398""
","
",NA,images/earth.jpg,NA,NA,NA,NA,NA,NA,NA,NA,NA,NA,NA,NA,NA,fixation,NA,NA,NA,NA,NA,NA,sub63
d3-animate-choice,219,855637,0.0-76.0-0.28,FALSE,FALSE,TRUE,FALSE,"""event"",""trial"",""time""
""fullscreenenter"",""5"",""82398""
","
","
","""event"",""trial"",""time""
""fullscreenenter"",""5"",""82398""
","
",407.7350000006845,NA,49,NA,NA,3000,1,NA,NA,images/earth.jpg,images/rocket1,images/rocket2,null,images/rocket2,NA,1,real,null,1,NA,NA,NA,sub63
d3-animate-choice,220,858032,0.0-76.0-1.28,FALSE,FALSE,TRUE,FALSE,"""event"",""trial"",""time""
""fullscreenenter"",""5"",""82398""
","
","
","""event"",""trial"",""time""
""fullscreenenter"",""5"",""82398""
","
",388.52000000770204,NA,49,NA,NA,3000,1,NA,NA,images/purpleplanet.jpg,images/alien4,images/alien3,images/rocket2,images/alien3,images/t.png,2,real,false,1,rare,1,2020-06-19T16:42:21Z,sub63
two-step-fixation,221,859036,0.0-76.0-2.28,FALSE,FALSE,TRUE,FALSE,"""event"",""trial"",""time""
""fullscreenenter"",""5"",""82398""
","
","
","""event"",""trial"",""time""
""fullscreenenter"",""5"",""82398""
","
",NA,images/earth.jpg,NA,NA,NA,NA,NA,NA,NA,NA,NA,NA,NA,NA,NA,fixation,NA,NA,NA,NA,NA,NA,sub63
d3-animate-choice,222,861476,0.0-76.0-0.29,FALSE,FALSE,TRUE,FALSE,"""event"",""trial"",""time""
""fullscreenenter"",""5"",""82398""
","
","
","""event"",""trial"",""time""
""fullscreenenter"",""5"",""82398""
","
",435.4249999887543,NA,49,NA,NA,3000,1,NA,NA,images/earth.jpg,images/rocket1,images/rocket2,null,images/rocket2,NA,1,real,null,1,NA,NA,NA,sub63
d3-animate-choice,223,864267,0.0-76.0-1.29,FALSE,FALSE,TRUE,FALSE,"""event"",""trial"",""time""
""fullscreenenter"",""5"",""82398""
","
","
","""event"",""trial"",""time""
""fullscreenenter"",""5"",""82398""
","
",786.1100000009174,NA,49,NA,NA,3000,1,NA,NA,images/redplanet1.jpg,images/alien2,images/alien1,images/rocket2,images/alien1,images/t.png,2,real,true,1,common,1,2020-06-19T16:42:27Z,sub63
two-step-fixation,224,865271,0.0-76.0-2.29,FALSE,FALSE,TRUE,FALSE,"""event"",""trial"",""time""
""fullscreenenter"",""5"",""82398""
","
","
","""event"",""trial"",""time""
""fullscreenenter"",""5"",""82398""
","
",NA,images/earth.jpg,NA,NA,NA,NA,NA,NA,NA,NA,NA,NA,NA,NA,NA,fixation,NA,NA,NA,NA,NA,NA,sub63
d3-animate-choice,225,867633,0.0-76.0-0.30,FALSE,FALSE,TRUE,FALSE,"""event"",""trial"",""time""
""fullscreenenter"",""5"",""82398""
","
","
","""event"",""trial"",""time""
""fullscreenenter"",""5"",""82398""
","
",357.12999998941086,NA,48,NA,NA,3000,1,NA,NA,images/earth.jpg,images/rocket1,images/rocket2,null,images/rocket1,NA,1,real,null,2,NA,NA,NA,sub63
d3-animate-choice,226,870249,0.0-76.0-1.30,FALSE,FALSE,TRUE,FALSE,"""event"",""trial"",""time""
""fullscreenenter"",""5"",""82398""
","
","
","""event"",""trial"",""time""
""fullscreenenter"",""5"",""82398""
","
",610.3199999924982,NA,49,NA,NA,3000,1,NA,NA,images/redplanet1.jpg,images/alien2,images/alien1,images/rocket1,images/alien1,images/t.png,2,real,false,1,rare,1,2020-06-19T16:42:33Z,sub63
two-step-fixation,227,871253,0.0-76.0-2.30,FALSE,FALSE,TRUE,FALSE,"""event"",""trial"",""time""
""fullscreenenter"",""5"",""82398""
","
","
","""event"",""trial"",""time""
""fullscreenenter"",""5"",""82398""
","
",NA,images/earth.jpg,NA,NA,NA,NA,NA,NA,NA,NA,NA,NA,NA,NA,NA,fixation,NA,NA,NA,NA,NA,NA,sub63
d3-animate-choice,228,873603,0.0-76.0-0.31,FALSE,FALSE,TRUE,FALSE,"""event"",""trial"",""time""
""fullscreenenter"",""5"",""82398""
","
","
","""event"",""trial"",""time""
""fullscreenenter"",""5"",""82398""
","
",345.45999999681953,NA,48,NA,NA,3000,1,NA,NA,images/earth.jpg,images/rocket1,images/rocket2,null,images/rocket1,NA,1,real,null,2,NA,NA,NA,sub63
d3-animate-choice,229,876040,0.0-76.0-1.31,FALSE,FALSE,TRUE,FALSE,"""event"",""trial"",""time""
""fullscreenenter"",""5"",""82398""
","
","
","""event"",""trial"",""time""
""fullscreenenter"",""5"",""82398""
","
",432.2749999992084,NA,48,NA,NA,3000,1,NA,NA,images/purpleplanet.jpg,images/alien4,images/alien3,images/rocket1,images/alien4,images/t.png,2,real,true,2,common,1,2020-06-19T16:42:39Z,sub63
two-step-fixation,230,877046,0.0-76.0-2.31,FALSE,FALSE,TRUE,FALSE,"""event"",""trial"",""time""
""fullscreenenter"",""5"",""82398""
","
","
","""event"",""trial"",""time""
""fullscreenenter"",""5"",""82398""
","
",NA,images/earth.jpg,NA,NA,NA,NA,NA,NA,NA,NA,NA,NA,NA,NA,NA,fixation,NA,NA,NA,NA,NA,NA,sub63
d3-animate-choice,231,879456,0.0-76.0-0.32,FALSE,FALSE,TRUE,FALSE,"""event"",""trial"",""time""
""fullscreenenter"",""5"",""82398""
","
","
","""event"",""trial"",""time""
""fullscreenenter"",""5"",""82398""
","
",403.38999999221414,NA,49,NA,NA,3000,1,NA,NA,images/earth.jpg,images/rocket1,images/rocket2,null,images/rocket2,NA,1,real,null,1,NA,NA,NA,sub63
d3-animate-choice,232,881958,0.0-76.0-1.32,FALSE,FALSE,TRUE,FALSE,"""event"",""trial"",""time""
""fullscreenenter"",""5"",""82398""
","
","
","""event"",""trial"",""time""
""fullscreenenter"",""5"",""82398""
","
",497.08000000100583,NA,49,NA,NA,3000,1,NA,NA,images/redplanet1.jpg,images/alien2,images/alien1,images/rocket2,images/alien1,images/t.png,2,real,true,1,common,1,2020-06-19T16:42:45Z,sub63
two-step-fixation,233,882963,0.0-76.0-2.32,FALSE,FALSE,TRUE,FALSE,"""event"",""trial"",""time""
""fullscreenenter"",""5"",""82398""
","
","
","""event"",""trial"",""time""
""fullscreenenter"",""5"",""82398""
","
",NA,images/earth.jpg,NA,NA,NA,NA,NA,NA,NA,NA,NA,NA,NA,NA,NA,fixation,NA,NA,NA,NA,NA,NA,sub63
d3-animate-choice,234,885230,0.0-76.0-0.33,FALSE,FALSE,TRUE,FALSE,"""event"",""trial"",""time""
""fullscreenenter"",""5"",""82398""
","
","
","""event"",""trial"",""time""
""fullscreenenter"",""5"",""82398""
","
",262.2600000031525,NA,49,NA,NA,3000,1,NA,NA,images/earth.jpg,images/rocket1,images/rocket2,null,images/rocket2,NA,1,real,null,1,NA,NA,NA,sub63
d3-animate-choice,235,887754,0.0-76.0-1.33,FALSE,FALSE,TRUE,FALSE,"""event"",""trial"",""time""
""fullscreenenter"",""5"",""82398""
","
","
","""event"",""trial"",""time""
""fullscreenenter"",""5"",""82398""
","
",517.6949999877252,NA,49,NA,NA,3000,1,NA,NA,images/redplanet1.jpg,images/alien2,images/alien1,images/rocket2,images/alien1,images/nothing.png,2,real,true,1,common,0,2020-06-19T16:42:51Z,sub63
two-step-fixation,236,888760,0.0-76.0-2.33,FALSE,FALSE,TRUE,FALSE,"""event"",""trial"",""time""
""fullscreenenter"",""5"",""82398""
","
","
","""event"",""trial"",""time""
""fullscreenenter"",""5"",""82398""
","
",NA,images/earth.jpg,NA,NA,NA,NA,NA,NA,NA,NA,NA,NA,NA,NA,NA,fixation,NA,NA,NA,NA,NA,NA,sub63
d3-animate-choice,237,891017,0.0-76.0-0.34,FALSE,FALSE,TRUE,FALSE,"""event"",""trial"",""time""
""fullscreenenter"",""5"",""82398""
","
","
","""event"",""trial"",""time""
""fullscreenenter"",""5"",""82398""
","
",249.9099999986356,NA,48,NA,NA,3000,1,NA,NA,images/earth.jpg,images/rocket1,images/rocket2,null,images/rocket1,NA,1,real,null,2,NA,NA,NA,sub63
d3-animate-choice,238,893416,0.0-76.0-1.34,FALSE,FALSE,TRUE,FALSE,"""event"",""trial"",""time""
""fullscreenenter"",""5"",""82398""
","
","
","""event"",""trial"",""time""
""fullscreenenter"",""5"",""82398""
","
",393.26500000606757,NA,48,NA,NA,3000,1,NA,NA,images/purpleplanet.jpg,images/alien4,images/alien3,images/rocket1,images/alien4,images/t.png,2,real,true,2,common,1,2020-06-19T16:42:56Z,sub63
two-step-fixation,239,894421,0.0-76.0-2.34,FALSE,FALSE,TRUE,FALSE,"""event"",""trial"",""time""
""fullscreenenter"",""5"",""82398""
","
","
","""event"",""trial"",""time""
""fullscreenenter"",""5"",""82398""
","
",NA,images/earth.jpg,NA,NA,NA,NA,NA,NA,NA,NA,NA,NA,NA,NA,NA,fixation,NA,NA,NA,NA,NA,NA,sub63
d3-animate-choice,240,896895,0.0-76.0-0.35,FALSE,FALSE,TRUE,FALSE,"""event"",""trial"",""time""
""fullscreenenter"",""5"",""82398""
","
","
","""event"",""trial"",""time""
""fullscreenenter"",""5"",""82398""
","
",468.33000000333413,NA,48,NA,NA,3000,1,NA,NA,images/earth.jpg,images/rocket1,images/rocket2,null,images/rocket1,NA,1,real,null,2,NA,NA,NA,sub63
d3-animate-choice,241,899368,0.0-76.0-1.35,FALSE,FALSE,TRUE,FALSE,"""event"",""trial"",""time""
""fullscreenenter"",""5"",""82398""
","
","
","""event"",""trial"",""time""
""fullscreenenter"",""5"",""82398""
","
",469.01500000967644,NA,48,NA,NA,3000,1,NA,NA,images/purpleplanet.jpg,images/alien4,images/alien3,images/rocket1,images/alien4,images/t.png,2,real,true,2,common,1,2020-06-19T16:43:02Z,sub63
two-step-fixation,242,900372,0.0-76.0-2.35,FALSE,FALSE,TRUE,FALSE,"""event"",""trial"",""time""
""fullscreenenter"",""5"",""82398""
","
","
","""event"",""trial"",""time""
""fullscreenenter"",""5"",""82398""
","
",NA,images/earth.jpg,NA,NA,NA,NA,NA,NA,NA,NA,NA,NA,NA,NA,NA,fixation,NA,NA,NA,NA,NA,NA,sub63
d3-animate-choice,243,902670,0.0-76.0-0.36,FALSE,FALSE,TRUE,FALSE,"""event"",""trial"",""time""
""fullscreenenter"",""5"",""82398""
","
","
","""event"",""trial"",""time""
""fullscreenenter"",""5"",""82398""
","
",292.8399999946123,NA,48,NA,NA,3000,1,NA,NA,images/earth.jpg,images/rocket1,images/rocket2,null,images/rocket1,NA,1,real,null,2,NA,NA,NA,sub63
d3-animate-choice,244,905181,0.0-76.0-1.36,FALSE,FALSE,TRUE,FALSE,"""event"",""trial"",""time""
""fullscreenenter"",""5"",""82398""
","
","
","""event"",""trial"",""time""
""fullscreenenter"",""5"",""82398""
","
",506.7599999892991,NA,48,NA,NA,3000,1,NA,NA,images/purpleplanet.jpg,images/alien4,images/alien3,images/rocket1,images/alien4,images/t.png,2,real,true,2,common,1,2020-06-19T16:43:08Z,sub63
two-step-fixation,245,906187,0.0-76.0-2.36,FALSE,FALSE,TRUE,FALSE,"""event"",""trial"",""time""
""fullscreenenter"",""5"",""82398""
","
","
","""event"",""trial"",""time""
""fullscreenenter"",""5"",""82398""
","
",NA,images/earth.jpg,NA,NA,NA,NA,NA,NA,NA,NA,NA,NA,NA,NA,NA,fixation,NA,NA,NA,NA,NA,NA,sub63
d3-animate-choice,246,908701,0.0-76.0-0.37,FALSE,FALSE,TRUE,FALSE,"""event"",""trial"",""time""
""fullscreenenter"",""5"",""82398""
","
","
","""event"",""trial"",""time""
""fullscreenenter"",""5"",""82398""
","
",510.4999999894062,NA,48,NA,NA,3000,1,NA,NA,images/earth.jpg,images/rocket1,images/rocket2,null,images/rocket1,NA,1,real,null,2,NA,NA,NA,sub63
d3-animate-choice,247,911289,0.0-76.0-1.37,FALSE,FALSE,TRUE,FALSE,"""event"",""trial"",""time""
""fullscreenenter"",""5"",""82398""
","
","
","""event"",""trial"",""time""
""fullscreenenter"",""5"",""82398""
","
",581.9550000014715,NA,48,NA,NA,3000,1,NA,NA,images/purpleplanet.jpg,images/alien4,images/alien3,images/rocket1,images/alien4,images/t.png,2,real,true,2,common,1,2020-06-19T16:43:14Z,sub63
two-step-fixation,248,912293,0.0-76.0-2.37,FALSE,FALSE,TRUE,FALSE,"""event"",""trial"",""time""
""fullscreenenter"",""5"",""82398""
","
","
","""event"",""trial"",""time""
""fullscreenenter"",""5"",""82398""
","
",NA,images/earth.jpg,NA,NA,NA,NA,NA,NA,NA,NA,NA,NA,NA,NA,NA,fixation,NA,NA,NA,NA,NA,NA,sub63
d3-animate-choice,249,914551,0.0-76.0-0.38,FALSE,FALSE,TRUE,FALSE,"""event"",""trial"",""time""
""fullscreenenter"",""5"",""82398""
","
","
","""event"",""trial"",""time""
""fullscreenenter"",""5"",""82398""
","
",252.4450000055367,NA,48,NA,NA,3000,1,NA,NA,images/earth.jpg,images/rocket1,images/rocket2,null,images/rocket1,NA,1,real,null,2,NA,NA,NA,sub63
d3-animate-choice,250,917007,0.0-76.0-1.38,FALSE,FALSE,TRUE,FALSE,"""event"",""trial"",""time""
""fullscreenenter"",""5"",""82398""
","
","
","""event"",""trial"",""time""
""fullscreenenter"",""5"",""82398""
","
",451.0849999933271,NA,48,NA,NA,3000,1,NA,NA,images/purpleplanet.jpg,images/alien4,images/alien3,images/rocket1,images/alien4,images/t.png,2,real,true,2,common,1,2020-06-19T16:43:20Z,sub63
two-step-fixation,251,918011,0.0-76.0-2.38,FALSE,FALSE,TRUE,FALSE,"""event"",""trial"",""time""
""fullscreenenter"",""5"",""82398""
","
","
","""event"",""trial"",""time""
""fullscreenenter"",""5"",""82398""
","
",NA,images/earth.jpg,NA,NA,NA,NA,NA,NA,NA,NA,NA,NA,NA,NA,NA,fixation,NA,NA,NA,NA,NA,NA,sub63
d3-animate-choice,252,920932,0.0-76.0-0.39,FALSE,FALSE,TRUE,FALSE,"""event"",""trial"",""time""
""fullscreenenter"",""5"",""82398""
","
","
","""event"",""trial"",""time""
""fullscreenenter"",""5"",""82398""
","
",915.1449999917531,NA,48,NA,NA,3000,1,NA,NA,images/earth.jpg,images/rocket1,images/rocket2,null,images/rocket1,NA,1,real,null,2,NA,NA,NA,sub63
d3-animate-choice,253,923322,0.0-76.0-1.39,FALSE,FALSE,TRUE,FALSE,"""event"",""trial"",""time""
""fullscreenenter"",""5"",""82398""
","
","
","""event"",""trial"",""time""
""fullscreenenter"",""5"",""82398""
","
",383.50999999966007,NA,48,NA,NA,3000,1,NA,NA,images/purpleplanet.jpg,images/alien4,images/alien3,images/rocket1,images/alien4,images/t.png,2,real,true,2,common,1,2020-06-19T16:43:26Z,sub63
two-step-fixation,254,924328,0.0-76.0-2.39,FALSE,FALSE,TRUE,FALSE,"""event"",""trial"",""time""
""fullscreenenter"",""5"",""82398""
","
","
","""event"",""trial"",""time""
""fullscreenenter"",""5"",""82398""
","
",NA,images/earth.jpg,NA,NA,NA,NA,NA,NA,NA,NA,NA,NA,NA,NA,NA,fixation,NA,NA,NA,NA,NA,NA,sub63
d3-animate-choice,255,926613,0.0-76.0-0.40,FALSE,FALSE,TRUE,FALSE,"""event"",""trial"",""time""
""fullscreenenter"",""5"",""82398""
","
","
","""event"",""trial"",""time""
""fullscreenenter"",""5"",""82398""
","
",280.2899999951478,NA,48,NA,NA,3000,1,NA,NA,images/earth.jpg,images/rocket1,images/rocket2,null,images/rocket1,NA,1,real,null,2,NA,NA,NA,sub63
d3-animate-choice,256,928977,0.0-76.0-1.40,FALSE,FALSE,TRUE,FALSE,"""event"",""trial"",""time""
""fullscreenenter"",""5"",""82398""
","
","
","""event"",""trial"",""time""
""fullscreenenter"",""5"",""82398""
","
",358.97999998996966,NA,48,NA,NA,3000,1,NA,NA,images/purpleplanet.jpg,images/alien4,images/alien3,images/rocket1,images/alien4,images/t.png,2,real,true,2,common,1,2020-06-19T16:43:32Z,sub63
two-step-fixation,257,929982,0.0-76.0-2.40,FALSE,FALSE,TRUE,FALSE,"""event"",""trial"",""time""
""fullscreenenter"",""5"",""82398""
","
","
","""event"",""trial"",""time""
""fullscreenenter"",""5"",""82398""
","
",NA,images/earth.jpg,NA,NA,NA,NA,NA,NA,NA,NA,NA,NA,NA,NA,NA,fixation,NA,NA,NA,NA,NA,NA,sub63
d3-animate-choice,258,932336,0.0-76.0-0.41,FALSE,FALSE,TRUE,FALSE,"""event"",""trial"",""time""
""fullscreenenter"",""5"",""82398""
","
","
","""event"",""trial"",""time""
""fullscreenenter"",""5"",""82398""
","
",349.09000000334345,NA,48,NA,NA,3000,1,NA,NA,images/earth.jpg,images/rocket1,images/rocket2,null,images/rocket1,NA,1,real,null,2,NA,NA,NA,sub63
d3-animate-choice,259,934966,0.0-76.0-1.41,FALSE,FALSE,TRUE,FALSE,"""event"",""trial"",""time""
""fullscreenenter"",""5"",""82398""
","
","
","""event"",""trial"",""time""
""fullscreenenter"",""5"",""82398""
","
",625.6700000085402,NA,49,NA,NA,3000,1,NA,NA,images/redplanet1.jpg,images/alien2,images/alien1,images/rocket1,images/alien1,images/t.png,2,real,false,1,rare,1,2020-06-19T16:43:38Z,sub63
two-step-fixation,260,935971,0.0-76.0-2.41,FALSE,FALSE,TRUE,FALSE,"""event"",""trial"",""time""
""fullscreenenter"",""5"",""82398""
","
","
","""event"",""trial"",""time""
""fullscreenenter"",""5"",""82398""
","
",NA,images/earth.jpg,NA,NA,NA,NA,NA,NA,NA,NA,NA,NA,NA,NA,NA,fixation,NA,NA,NA,NA,NA,NA,sub63
d3-animate-choice,261,938314,0.0-76.0-0.42,FALSE,FALSE,TRUE,FALSE,"""event"",""trial"",""time""
""fullscreenenter"",""5"",""82398""
","
","
","""event"",""trial"",""time""
""fullscreenenter"",""5"",""82398""
","
",335.3599999973085,NA,49,NA,NA,3000,1,NA,NA,images/earth.jpg,images/rocket1,images/rocket2,null,images/rocket2,NA,1,real,null,1,NA,NA,NA,sub63
d3-animate-choice,262,940685,0.0-76.0-1.42,FALSE,FALSE,TRUE,FALSE,"""event"",""trial"",""time""
""fullscreenenter"",""5"",""82398""
","
","
","""event"",""trial"",""time""
""fullscreenenter"",""5"",""82398""
","
",364.0449999948032,NA,49,NA,NA,3000,1,NA,NA,images/redplanet1.jpg,images/alien2,images/alien1,images/rocket2,images/alien1,images/t.png,2,real,true,1,common,1,2020-06-19T16:43:44Z,sub63
two-step-fixation,263,941689,0.0-76.0-2.42,FALSE,FALSE,TRUE,FALSE,"""event"",""trial"",""time""
""fullscreenenter"",""5"",""82398""
","
","
","""event"",""trial"",""time""
""fullscreenenter"",""5"",""82398""
","
",NA,images/earth.jpg,NA,NA,NA,NA,NA,NA,NA,NA,NA,NA,NA,NA,NA,fixation,NA,NA,NA,NA,NA,NA,sub63
d3-animate-choice,264,944098,0.0-76.0-0.43,FALSE,FALSE,TRUE,FALSE,"""event"",""trial"",""time""
""fullscreenenter"",""5"",""82398""
","
","
","""event"",""trial"",""time""
""fullscreenenter"",""5"",""82398""
","
",404.8800000018673,NA,49,NA,NA,3000,1,NA,NA,images/earth.jpg,images/rocket1,images/rocket2,null,images/rocket2,NA,1,real,null,1,NA,NA,NA,sub63
d3-animate-choice,265,946521,0.0-76.0-1.43,FALSE,FALSE,TRUE,FALSE,"""event"",""trial"",""time""
""fullscreenenter"",""5"",""82398""
","
","
","""event"",""trial"",""time""
""fullscreenenter"",""5"",""82398""
","
",419.4800000113901,NA,49,NA,NA,3000,1,NA,NA,images/redplanet1.jpg,images/alien2,images/alien1,images/rocket2,images/alien1,images/nothing.png,2,real,true,1,common,0,2020-06-19T16:43:50Z,sub63
two-step-fixation,266,947530,0.0-76.0-2.43,FALSE,FALSE,TRUE,FALSE,"""event"",""trial"",""time""
""fullscreenenter"",""5"",""82398""
","
","
","""event"",""trial"",""time""
""fullscreenenter"",""5"",""82398""
","
",NA,images/earth.jpg,NA,NA,NA,NA,NA,NA,NA,NA,NA,NA,NA,NA,NA,fixation,NA,NA,NA,NA,NA,NA,sub63
d3-animate-choice,267,949822,0.0-76.0-0.44,FALSE,FALSE,TRUE,FALSE,"""event"",""trial"",""time""
""fullscreenenter"",""5"",""82398""
","
","
","""event"",""trial"",""time""
""fullscreenenter"",""5"",""82398""
","
",287.5250000070082,NA,48,NA,NA,3000,1,NA,NA,images/earth.jpg,images/rocket1,images/rocket2,null,images/rocket1,NA,1,real,null,2,NA,NA,NA,sub63
d3-animate-choice,268,952237,0.0-76.0-1.44,FALSE,FALSE,TRUE,FALSE,"""event"",""trial"",""time""
""fullscreenenter"",""5"",""82398""
","
","
","""event"",""trial"",""time""
""fullscreenenter"",""5"",""82398""
","
",411.099999997532,NA,48,NA,NA,3000,1,NA,NA,images/purpleplanet.jpg,images/alien4,images/alien3,images/rocket1,images/alien4,images/t.png,2,real,true,2,common,1,2020-06-19T16:43:55Z,sub63
two-step-fixation,269,953241,0.0-76.0-2.44,FALSE,FALSE,TRUE,FALSE,"""event"",""trial"",""time""
""fullscreenenter"",""5"",""82398""
","
","
","""event"",""trial"",""time""
""fullscreenenter"",""5"",""82398""
","
",NA,images/earth.jpg,NA,NA,NA,NA,NA,NA,NA,NA,NA,NA,NA,NA,NA,fixation,NA,NA,NA,NA,NA,NA,sub63
d3-animate-choice,270,956580,0.0-76.0-0.45,FALSE,FALSE,TRUE,FALSE,"""event"",""trial"",""time""
""fullscreenenter"",""5"",""82398""
","
","
","""event"",""trial"",""time""
""fullscreenenter"",""5"",""82398""
","
",1332.68500000122,NA,48,NA,NA,3000,1,NA,NA,images/earth.jpg,images/rocket1,images/rocket2,null,images/rocket1,NA,1,real,null,2,NA,NA,NA,sub63
d3-animate-choice,271,959304,0.0-76.0-1.45,FALSE,FALSE,TRUE,FALSE,"""event"",""trial"",""time""
""fullscreenenter"",""5"",""82398""
","
","
","""event"",""trial"",""time""
""fullscreenenter"",""5"",""82398""
","
",716.7750000080559,NA,48,NA,NA,3000,1,NA,NA,images/purpleplanet.jpg,images/alien4,images/alien3,images/rocket1,images/alien4,images/nothing.png,2,real,true,2,common,0,2020-06-19T16:44:02Z,sub63
two-step-fixation,272,960308,0.0-76.0-2.45,FALSE,FALSE,TRUE,FALSE,"""event"",""trial"",""time""
""fullscreenenter"",""5"",""82398""
","
","
","""event"",""trial"",""time""
""fullscreenenter"",""5"",""82398""
","
",NA,images/earth.jpg,NA,NA,NA,NA,NA,NA,NA,NA,NA,NA,NA,NA,NA,fixation,NA,NA,NA,NA,NA,NA,sub63
d3-animate-choice,273,962708,0.0-76.0-0.46,FALSE,FALSE,TRUE,FALSE,"""event"",""trial"",""time""
""fullscreenenter"",""5"",""82398""
","
","
","""event"",""trial"",""time""
""fullscreenenter"",""5"",""82398""
","
",393.5549999878276,NA,49,NA,NA,3000,1,NA,NA,images/earth.jpg,images/rocket1,images/rocket2,null,images/rocket2,NA,1,real,null,1,NA,NA,NA,sub63
d3-animate-choice,274,965195,0.0-76.0-1.46,FALSE,FALSE,TRUE,FALSE,"""event"",""trial"",""time""
""fullscreenenter"",""5"",""82398""
","
","
","""event"",""trial"",""time""
""fullscreenenter"",""5"",""82398""
","
",481.5749999979744,NA,49,NA,NA,3000,1,NA,NA,images/redplanet1.jpg,images/alien2,images/alien1,images/rocket2,images/alien1,images/t.png,2,real,true,1,common,1,2020-06-19T16:44:08Z,sub63
two-step-fixation,275,966200,0.0-76.0-2.46,FALSE,FALSE,TRUE,FALSE,"""event"",""trial"",""time""
""fullscreenenter"",""5"",""82398""
","
","
","""event"",""trial"",""time""
""fullscreenenter"",""5"",""82398""
","
",NA,images/earth.jpg,NA,NA,NA,NA,NA,NA,NA,NA,NA,NA,NA,NA,NA,fixation,NA,NA,NA,NA,NA,NA,sub63
d3-animate-choice,276,968705,0.0-76.0-0.47,FALSE,FALSE,TRUE,FALSE,"""event"",""trial"",""time""
""fullscreenenter"",""5"",""82398""
","
","
","""event"",""trial"",""time""
""fullscreenenter"",""5"",""82398""
","
",500.6250000005821,NA,48,NA,NA,3000,1,NA,NA,images/earth.jpg,images/rocket1,images/rocket2,null,images/rocket1,NA,1,real,null,2,NA,NA,NA,sub63
d3-animate-choice,277,971233,0.0-76.0-1.47,FALSE,FALSE,TRUE,FALSE,"""event"",""trial"",""time""
""fullscreenenter"",""5"",""82398""
","
","
","""event"",""trial"",""time""
""fullscreenenter"",""5"",""82398""
","
",523.0950000113808,NA,49,NA,NA,3000,1,NA,NA,images/purpleplanet.jpg,images/alien4,images/alien3,images/rocket1,images/alien3,images/nothing.png,2,real,true,1,common,0,2020-06-19T16:44:14Z,sub63
two-step-fixation,278,972238,0.0-76.0-2.47,FALSE,FALSE,TRUE,FALSE,"""event"",""trial"",""time""
""fullscreenenter"",""5"",""82398""
","
","
","""event"",""trial"",""time""
""fullscreenenter"",""5"",""82398""
","
",NA,images/earth.jpg,NA,NA,NA,NA,NA,NA,NA,NA,NA,NA,NA,NA,NA,fixation,NA,NA,NA,NA,NA,NA,sub63
d3-animate-choice,279,974617,0.0-76.0-0.48,FALSE,FALSE,TRUE,FALSE,"""event"",""trial"",""time""
""fullscreenenter"",""5"",""82398""
","
","
","""event"",""trial"",""time""
""fullscreenenter"",""5"",""82398""
","
",373.64000000525266,NA,49,NA,NA,3000,1,NA,NA,images/earth.jpg,images/rocket1,images/rocket2,null,images/rocket2,NA,1,real,null,1,NA,NA,NA,sub63
d3-animate-choice,280,977057,0.0-76.0-1.48,FALSE,FALSE,TRUE,FALSE,"""event"",""trial"",""time""
""fullscreenenter"",""5"",""82398""
","
","
","""event"",""trial"",""time""
""fullscreenenter"",""5"",""82398""
","
",435.0899999990361,NA,49,NA,NA,3000,1,NA,NA,images/redplanet1.jpg,images/alien2,images/alien1,images/rocket2,images/alien1,images/t.png,2,real,true,1,common,1,2020-06-19T16:44:20Z,sub63
two-step-fixation,281,978061,0.0-76.0-2.48,FALSE,FALSE,TRUE,FALSE,"""event"",""trial"",""time""
""fullscreenenter"",""5"",""82398""
","
","
","""event"",""trial"",""time""
""fullscreenenter"",""5"",""82398""
","
",NA,images/earth.jpg,NA,NA,NA,NA,NA,NA,NA,NA,NA,NA,NA,NA,NA,fixation,NA,NA,NA,NA,NA,NA,sub63
d3-animate-choice,282,980389,0.0-76.0-0.49,FALSE,FALSE,TRUE,FALSE,"""event"",""trial"",""time""
""fullscreenenter"",""5"",""82398""
","
","
","""event"",""trial"",""time""
""fullscreenenter"",""5"",""82398""
","
",323.61999999557156,NA,49,NA,NA,3000,1,NA,NA,images/earth.jpg,images/rocket1,images/rocket2,null,images/rocket2,NA,1,real,null,1,NA,NA,NA,sub63
