trial_type,trial_index,time_elapsed,internal_node_id,rocket_sides,red_planet_first_rocket,red_display_order,purple_display_order,interactions,blur_events,focus_events,fullscreenenter_events,fullscreenexit_events,rt,stimulus,key_press,button_pressed,success,duration,valid_pressed,rts,keys,planet_text,right_text,left_text,center_text,chosen_text,reward_text,trial_stage,practice_trial,transition_type,choice,transition,reward,timestamp,subject_id
pavlovia,0,4,0.0-0.0,FALSE,TRUE,FALSE,FALSE,"
","
","
","
","
",NA,NA,NA,NA,NA,NA,NA,NA,NA,NA,NA,NA,NA,NA,NA,NA,NA,NA,NA,NA,NA,NA,sub2
html-keyboard-response,1,2258,0.0-1.0,FALSE,TRUE,FALSE,FALSE,"
","
","
","
","
",2253.000000000002,Welcome! Press the space bar to begin.,32,NA,NA,NA,NA,NA,NA,NA,NA,NA,NA,NA,NA,NA,NA,NA,NA,NA,NA,NA,sub2
audio-keyboard-response,2,8059,0.0-2.0,FALSE,TRUE,FALSE,FALSE,"
","
","
","
","
",5765,audio/beep_loop.wav,32,NA,NA,NA,NA,NA,NA,NA,NA,NA,NA,NA,NA,NA,NA,NA,NA,NA,NA,NA,sub2
audio-button-response,3,11978,0.0-3.0,FALSE,TRUE,FALSE,FALSE,"
","
","
","
","
",NaN,audio/fish.mp3,NA,1,NA,NA,NA,NA,NA,NA,NA,NA,NA,NA,NA,NA,NA,NA,NA,NA,NA,NA,sub2
audio-button-response,4,17083,0.0-4.0,FALSE,TRUE,FALSE,FALSE,"""event"",""trial"",""time""
""fullscreenenter"",""5"",""22863""
","
","
","""event"",""trial"",""time""
""fullscreenenter"",""5"",""22863""
","
",NaN,audio/tiger.mp3,NA,4,NA,NA,NA,NA,NA,NA,NA,NA,NA,NA,NA,NA,NA,NA,NA,NA,NA,NA,sub2
fullscreen,5,23786,0.0-5.0,FALSE,TRUE,FALSE,FALSE,"""event"",""trial"",""time""
""fullscreenenter"",""5"",""22863""
","
","
","""event"",""trial"",""time""
""fullscreenenter"",""5"",""22863""
","
",NA,NA,NA,NA,TRUE,NA,NA,NA,NA,NA,NA,NA,NA,NA,NA,NA,NA,NA,NA,NA,NA,NA,sub2
d3-instructions,6,39413,0.0-6.0,FALSE,TRUE,FALSE,FALSE,"""event"",""trial"",""time""
""fullscreenenter"",""5"",""22863""
","
","
","""event"",""trial"",""time""
""fullscreenenter"",""5"",""22863""
","
",NA,NA,NA,NA,NA,NA,NA,NA,NA,NA,NA,NA,NA,NA,NA,NA,NA,NA,NA,NA,NA,NA,sub2
d3-instructions,7,58310,0.0-7.0,FALSE,TRUE,FALSE,FALSE,"""event"",""trial"",""time""
""fullscreenenter"",""5"",""22863""
","
","
","""event"",""trial"",""time""
""fullscreenenter"",""5"",""22863""
","
",NA,NA,NA,NA,NA,NA,NA,NA,NA,NA,NA,NA,NA,NA,NA,NA,NA,NA,NA,NA,NA,NA,sub2
d3-instructions,8,65540,0.0-8.0,FALSE,TRUE,FALSE,FALSE,"""event"",""trial"",""time""
""fullscreenenter"",""5"",""22863""
","
","
","""event"",""trial"",""time""
""fullscreenenter"",""5"",""22863""
","
",NA,NA,NA,NA,NA,NA,NA,NA,NA,NA,NA,NA,NA,NA,NA,NA,NA,NA,NA,NA,NA,NA,sub2
d3-instructions,9,76426,0.0-9.0,FALSE,TRUE,FALSE,FALSE,"""event"",""trial"",""time""
""fullscreenenter"",""5"",""22863""
","
","
","""event"",""trial"",""time""
""fullscreenenter"",""5"",""22863""
","
",NA,NA,NA,NA,NA,NA,NA,NA,NA,NA,NA,NA,NA,NA,NA,NA,NA,NA,NA,NA,NA,NA,sub2
d3-instructions,10,95895,0.0-10.0,FALSE,TRUE,FALSE,FALSE,"""event"",""trial"",""time""
""fullscreenenter"",""5"",""22863""
","
","
","""event"",""trial"",""time""
""fullscreenenter"",""5"",""22863""
","
",NA,NA,NA,NA,NA,NA,NA,NA,NA,NA,NA,NA,NA,NA,NA,NA,NA,NA,NA,NA,NA,NA,sub2
d3-animate-choice,11,99000,0.0-11.0,FALSE,TRUE,FALSE,FALSE,"""event"",""trial"",""time""
""fullscreenenter"",""5"",""22863""
","
","
","""event"",""trial"",""time""
""fullscreenenter"",""5"",""22863""
","
",1099,NA,49,NA,NA,3000,1,2257,48,images/tutgreenplanet.jpg,images/tutalien1,images/tutalien2,null,images/tutalien2,NA,NA,practice,null,NA,NA,NA,NA,sub2
d3-animate-choice,12,101105,0.0-12.0,FALSE,TRUE,FALSE,FALSE,"""event"",""trial"",""time""
""fullscreenenter"",""5"",""22863""
","
","
","""event"",""trial"",""time""
""fullscreenenter"",""5"",""22863""
","
",103,NA,49,NA,NA,3000,1,1869,48,images/tutgreenplanet.jpg,images/tutalien1,images/tutalien2,null,images/tutalien2,NA,NA,practice,null,NA,NA,NA,NA,sub2
d3-animate-choice,13,103901,0.0-13.0,FALSE,TRUE,FALSE,FALSE,"""event"",""trial"",""time""
""fullscreenenter"",""5"",""22863""
","
","
","""event"",""trial"",""time""
""fullscreenenter"",""5"",""22863""
","
",792.0000000000146,NA,48,NA,NA,3000,1,NA,NA,images/tutgreenplanet.jpg,images/tutalien1,images/tutalien2,null,images/tutalien1,NA,NA,practice,null,NA,NA,NA,NA,sub2
d3-animate-choice,14,106039,0.0-14.0,FALSE,TRUE,FALSE,FALSE,"""event"",""trial"",""time""
""fullscreenenter"",""5"",""22863""
","
","
","""event"",""trial"",""time""
""fullscreenenter"",""5"",""22863""
","
",134,NA,48,NA,NA,3000,1,1845,49,images/tutgreenplanet.jpg,images/tutalien1,images/tutalien2,null,images/tutalien1,NA,NA,practice,null,NA,NA,NA,NA,sub2
d3-instructions,15,112879,0.0-15.0,FALSE,TRUE,FALSE,FALSE,"""event"",""trial"",""time""
""fullscreenenter"",""5"",""22863""
","
","
","""event"",""trial"",""time""
""fullscreenenter"",""5"",""22863""
","
",NA,NA,NA,NA,NA,NA,NA,NA,NA,NA,NA,NA,NA,NA,NA,NA,NA,NA,NA,NA,NA,NA,sub2
d3-instructions,16,118174,0.0-16.0,FALSE,TRUE,FALSE,FALSE,"""event"",""trial"",""time""
""fullscreenenter"",""5"",""22863""
","
","
","""event"",""trial"",""time""
""fullscreenenter"",""5"",""22863""
","
",NA,NA,NA,NA,NA,NA,NA,NA,NA,NA,NA,NA,NA,NA,NA,NA,NA,NA,NA,NA,NA,NA,sub2
d3-instructions,17,128693,0.0-17.0,FALSE,TRUE,FALSE,FALSE,"""event"",""trial"",""time""
""fullscreenenter"",""5"",""22863""
","
","
","""event"",""trial"",""time""
""fullscreenenter"",""5"",""22863""
","
",NA,NA,NA,NA,NA,NA,NA,NA,NA,NA,NA,NA,NA,NA,NA,NA,NA,NA,NA,NA,NA,NA,sub2
d3-instructions,18,143579,0.0-18.0,FALSE,TRUE,FALSE,FALSE,"""event"",""trial"",""time""
""fullscreenenter"",""5"",""22863""
","
","
","""event"",""trial"",""time""
""fullscreenenter"",""5"",""22863""
","
",NA,NA,NA,NA,NA,NA,NA,NA,NA,NA,NA,NA,NA,NA,NA,NA,NA,NA,NA,NA,NA,NA,sub2
d3-instructions,19,158671,0.0-19.0,FALSE,TRUE,FALSE,FALSE,"""event"",""trial"",""time""
""fullscreenenter"",""5"",""22863""
","
","
","""event"",""trial"",""time""
""fullscreenenter"",""5"",""22863""
","
",NA,NA,NA,NA,NA,NA,NA,NA,NA,NA,NA,NA,NA,NA,NA,NA,NA,NA,NA,NA,NA,NA,sub2
d3-animate-choice,20,161531,0.0-20.0,FALSE,TRUE,FALSE,FALSE,"""event"",""trial"",""time""
""fullscreenenter"",""5"",""22863""
","
","
","""event"",""trial"",""time""
""fullscreenenter"",""5"",""22863""
","
",857,NA,49,NA,NA,3000,1,NA,NA,images/tutyellowplanet.jpg,null,images/tutalien3,null,images/tutalien3,images/t.png,NA,practice,null,NA,NA,NA,NA,sub2
d3-animate-choice,21,165276,0.0-21.0,FALSE,TRUE,FALSE,FALSE,"""event"",""trial"",""time""
""fullscreenenter"",""5"",""22863""
","
","
","""event"",""trial"",""time""
""fullscreenenter"",""5"",""22863""
","
",1742.000000000029,NA,49,NA,NA,3000,1,NA,NA,images/tutyellowplanet.jpg,null,images/tutalien3,null,images/tutalien3,images/nothing.png,NA,practice,null,NA,NA,NA,NA,sub2
d3-animate-choice,22,167737,0.0-22.0,FALSE,TRUE,FALSE,FALSE,"""event"",""trial"",""time""
""fullscreenenter"",""5"",""22863""
","
","
","""event"",""trial"",""time""
""fullscreenenter"",""5"",""22863""
","
",457,NA,49,NA,NA,3000,1,NA,NA,images/tutyellowplanet.jpg,null,images/tutalien3,null,images/tutalien3,images/t.png,NA,practice,null,NA,NA,NA,NA,sub2
d3-animate-choice,23,170126,0.0-23.0,FALSE,TRUE,FALSE,FALSE,"""event"",""trial"",""time""
""fullscreenenter"",""5"",""22863""
","
","
","""event"",""trial"",""time""
""fullscreenenter"",""5"",""22863""
","
",385.9999999999709,NA,49,NA,NA,3000,1,NA,NA,images/tutyellowplanet.jpg,null,images/tutalien3,null,images/tutalien3,images/t.png,NA,practice,null,NA,NA,NA,NA,sub2
d3-animate-choice,24,172526,0.0-24.0,FALSE,TRUE,FALSE,FALSE,"""event"",""trial"",""time""
""fullscreenenter"",""5"",""22863""
","
","
","""event"",""trial"",""time""
""fullscreenenter"",""5"",""22863""
","
",397,NA,49,NA,NA,3000,1,NA,NA,images/tutyellowplanet.jpg,null,images/tutalien3,null,images/tutalien3,images/t.png,NA,practice,null,NA,NA,NA,NA,sub2
d3-animate-choice,25,175175,0.0-25.0,FALSE,TRUE,FALSE,FALSE,"""event"",""trial"",""time""
""fullscreenenter"",""5"",""22863""
","
","
","""event"",""trial"",""time""
""fullscreenenter"",""5"",""22863""
","
",645.0000000000291,NA,49,NA,NA,3000,1,NA,NA,images/tutyellowplanet.jpg,null,images/tutalien3,null,images/tutalien3,images/t.png,NA,practice,null,NA,NA,NA,NA,sub2
d3-animate-choice,26,177707,0.0-26.0,FALSE,TRUE,FALSE,FALSE,"""event"",""trial"",""time""
""fullscreenenter"",""5"",""22863""
","
","
","""event"",""trial"",""time""
""fullscreenenter"",""5"",""22863""
","
",529,NA,49,NA,NA,3000,1,NA,NA,images/tutyellowplanet.jpg,null,images/tutalien3,null,images/tutalien3,images/t.png,NA,practice,null,NA,NA,NA,NA,sub2
d3-animate-choice,27,180090,0.0-27.0,FALSE,TRUE,FALSE,FALSE,"""event"",""trial"",""time""
""fullscreenenter"",""5"",""22863""
","
","
","""event"",""trial"",""time""
""fullscreenenter"",""5"",""22863""
","
",381,NA,49,NA,NA,3000,1,NA,NA,images/tutyellowplanet.jpg,null,images/tutalien3,null,images/tutalien3,images/t.png,NA,practice,null,NA,NA,NA,NA,sub2
d3-animate-choice,28,182585,0.0-28.0,FALSE,TRUE,FALSE,FALSE,"""event"",""trial"",""time""
""fullscreenenter"",""5"",""22863""
","
","
","""event"",""trial"",""time""
""fullscreenenter"",""5"",""22863""
","
",492,NA,49,NA,NA,3000,1,NA,NA,images/tutyellowplanet.jpg,null,images/tutalien3,null,images/tutalien3,images/t.png,NA,practice,null,NA,NA,NA,NA,sub2
d3-animate-choice,29,184897,0.0-29.0,FALSE,TRUE,FALSE,FALSE,"""event"",""trial"",""time""
""fullscreenenter"",""5"",""22863""
","
","
","""event"",""trial"",""time""
""fullscreenenter"",""5"",""22863""
","
",309,NA,49,NA,NA,3000,1,NA,NA,images/tutyellowplanet.jpg,null,images/tutalien3,null,images/tutalien3,images/t.png,NA,practice,null,NA,NA,NA,NA,sub2
d3-instructions,30,192827,0.0-30.0,FALSE,TRUE,FALSE,FALSE,"""event"",""trial"",""time""
""fullscreenenter"",""5"",""22863""
","
","
","""event"",""trial"",""time""
""fullscreenenter"",""5"",""22863""
","
",NA,NA,NA,NA,NA,NA,NA,NA,NA,NA,NA,NA,NA,NA,NA,NA,NA,NA,NA,NA,NA,NA,sub2
d3-instructions,31,202667,0.0-31.0,FALSE,TRUE,FALSE,FALSE,"""event"",""trial"",""time""
""fullscreenenter"",""5"",""22863""
","
","
","""event"",""trial"",""time""
""fullscreenenter"",""5"",""22863""
","
",NA,NA,NA,NA,NA,NA,NA,NA,NA,NA,NA,NA,NA,NA,NA,NA,NA,NA,NA,NA,NA,NA,sub2
d3-instructions,32,215501,0.0-32.0,FALSE,TRUE,FALSE,FALSE,"""event"",""trial"",""time""
""fullscreenenter"",""5"",""22863""
","
","
","""event"",""trial"",""time""
""fullscreenenter"",""5"",""22863""
","
",NA,NA,NA,NA,NA,NA,NA,NA,NA,NA,NA,NA,NA,NA,NA,NA,NA,NA,NA,NA,NA,NA,sub2
d3-instructions,33,222098,0.0-33.0,FALSE,TRUE,FALSE,FALSE,"""event"",""trial"",""time""
""fullscreenenter"",""5"",""22863""
","
","
","""event"",""trial"",""time""
""fullscreenenter"",""5"",""22863""
","
",NA,NA,NA,NA,NA,NA,NA,NA,NA,NA,NA,NA,NA,NA,NA,NA,NA,NA,NA,NA,NA,NA,sub2
d3-animate-choice,34,226343,0.0-34.0,FALSE,TRUE,FALSE,FALSE,"""event"",""trial"",""time""
""fullscreenenter"",""5"",""22863""
","
","
","""event"",""trial"",""time""
""fullscreenenter"",""5"",""22863""
","
",2242,NA,49,NA,NA,3000,1,NA,NA,images/tutgreenplanet.jpg,images/tutalien1,images/tutalien2,null,images/tutalien2,images/t.png,NA,practice,null,NA,NA,NA,NA,sub2
d3-animate-choice,35,228820,0.0-35.0,FALSE,TRUE,FALSE,FALSE,"""event"",""trial"",""time""
""fullscreenenter"",""5"",""22863""
","
","
","""event"",""trial"",""time""
""fullscreenenter"",""5"",""22863""
","
",473,NA,48,NA,NA,3000,1,NA,NA,images/tutgreenplanet.jpg,images/tutalien1,images/tutalien2,null,images/tutalien1,images/nothing.png,NA,practice,null,NA,NA,NA,NA,sub2
d3-animate-choice,36,231300,0.0-36.0,FALSE,TRUE,FALSE,FALSE,"""event"",""trial"",""time""
""fullscreenenter"",""5"",""22863""
","
","
","""event"",""trial"",""time""
""fullscreenenter"",""5"",""22863""
","
",477,NA,48,NA,NA,3000,1,NA,NA,images/tutgreenplanet.jpg,images/tutalien1,images/tutalien2,null,images/tutalien1,images/nothing.png,NA,practice,null,NA,NA,NA,NA,sub2
d3-animate-choice,37,233669,0.0-37.0,FALSE,TRUE,FALSE,FALSE,"""event"",""trial"",""time""
""fullscreenenter"",""5"",""22863""
","
","
","""event"",""trial"",""time""
""fullscreenenter"",""5"",""22863""
","
",365,NA,48,NA,NA,3000,1,NA,NA,images/tutgreenplanet.jpg,images/tutalien1,images/tutalien2,null,images/tutalien1,images/nothing.png,NA,practice,null,NA,NA,NA,NA,sub2
d3-animate-choice,38,235994,0.0-38.0,FALSE,TRUE,FALSE,FALSE,"""event"",""trial"",""time""
""fullscreenenter"",""5"",""22863""
","
","
","""event"",""trial"",""time""
""fullscreenenter"",""5"",""22863""
","
",322,NA,49,NA,NA,3000,1,NA,NA,images/tutgreenplanet.jpg,images/tutalien1,images/tutalien2,null,images/tutalien2,images/t.png,NA,practice,null,NA,NA,NA,NA,sub2
d3-animate-choice,39,238265,0.0-39.0,FALSE,TRUE,FALSE,FALSE,"""event"",""trial"",""time""
""fullscreenenter"",""5"",""22863""
","
","
","""event"",""trial"",""time""
""fullscreenenter"",""5"",""22863""
","
",268,NA,49,NA,NA,3000,1,NA,NA,images/tutgreenplanet.jpg,images/tutalien1,images/tutalien2,null,images/tutalien2,images/t.png,NA,practice,null,NA,NA,NA,NA,sub2
d3-animate-choice,40,240696,0.0-40.0,FALSE,TRUE,FALSE,FALSE,"""event"",""trial"",""time""
""fullscreenenter"",""5"",""22863""
","
","
","""event"",""trial"",""time""
""fullscreenenter"",""5"",""22863""
","
",429,NA,49,NA,NA,3000,1,NA,NA,images/tutgreenplanet.jpg,images/tutalien1,images/tutalien2,null,images/tutalien2,images/t.png,NA,practice,null,NA,NA,NA,NA,sub2
d3-animate-choice,41,243105,0.0-41.0,FALSE,TRUE,FALSE,FALSE,"""event"",""trial"",""time""
""fullscreenenter"",""5"",""22863""
","
","
","""event"",""trial"",""time""
""fullscreenenter"",""5"",""22863""
","
",406,NA,49,NA,NA,3000,1,NA,NA,images/tutgreenplanet.jpg,images/tutalien1,images/tutalien2,null,images/tutalien2,images/t.png,NA,practice,null,NA,NA,NA,NA,sub2
d3-animate-choice,42,245444,0.0-42.0,FALSE,TRUE,FALSE,FALSE,"""event"",""trial"",""time""
""fullscreenenter"",""5"",""22863""
","
","
","""event"",""trial"",""time""
""fullscreenenter"",""5"",""22863""
","
",336.0000000000291,NA,49,NA,NA,3000,1,NA,NA,images/tutgreenplanet.jpg,images/tutalien1,images/tutalien2,null,images/tutalien2,images/t.png,NA,practice,null,NA,NA,NA,NA,sub2
d3-animate-choice,43,247738,0.0-43.0,FALSE,TRUE,FALSE,FALSE,"""event"",""trial"",""time""
""fullscreenenter"",""5"",""22863""
","
","
","""event"",""trial"",""time""
""fullscreenenter"",""5"",""22863""
","
",291,NA,49,NA,NA,3000,1,NA,NA,images/tutgreenplanet.jpg,images/tutalien1,images/tutalien2,null,images/tutalien2,images/t.png,NA,practice,null,NA,NA,NA,NA,sub2
d3-instructions,44,263002,0.0-44.0,FALSE,TRUE,FALSE,FALSE,"""event"",""trial"",""time""
""fullscreenenter"",""5"",""22863""
","
","
","""event"",""trial"",""time""
""fullscreenenter"",""5"",""22863""
","
",NA,NA,NA,NA,NA,NA,NA,NA,NA,NA,NA,NA,NA,NA,NA,NA,NA,NA,NA,NA,NA,NA,sub2
d3-instructions,45,269965,0.0-45.0,FALSE,TRUE,FALSE,FALSE,"""event"",""trial"",""time""
""fullscreenenter"",""5"",""22863""
","
","
","""event"",""trial"",""time""
""fullscreenenter"",""5"",""22863""
","
",NA,NA,NA,NA,NA,NA,NA,NA,NA,NA,NA,NA,NA,NA,NA,NA,NA,NA,NA,NA,NA,NA,sub2
d3-instructions,46,277088,0.0-46.0,FALSE,TRUE,FALSE,FALSE,"""event"",""trial"",""time""
""fullscreenenter"",""5"",""22863""
","
","
","""event"",""trial"",""time""
""fullscreenenter"",""5"",""22863""
","
",NA,NA,NA,NA,NA,NA,NA,NA,NA,NA,NA,NA,NA,NA,NA,NA,NA,NA,NA,NA,NA,NA,sub2
d3-instructions,47,293947,0.0-47.0,FALSE,TRUE,FALSE,FALSE,"""event"",""trial"",""time""
""fullscreenenter"",""5"",""22863""
","
","
","""event"",""trial"",""time""
""fullscreenenter"",""5"",""22863""
","
",NA,NA,NA,NA,NA,NA,NA,NA,NA,NA,NA,NA,NA,NA,NA,NA,NA,NA,NA,NA,NA,NA,sub2
d3-instructions,48,300930,0.0-48.0,FALSE,TRUE,FALSE,FALSE,"""event"",""trial"",""time""
""fullscreenenter"",""5"",""22863""
","
","
","""event"",""trial"",""time""
""fullscreenenter"",""5"",""22863""
","
",NA,NA,NA,NA,NA,NA,NA,NA,NA,NA,NA,NA,NA,NA,NA,NA,NA,NA,NA,NA,NA,NA,sub2
d3-instructions,49,311126,0.0-49.0,FALSE,TRUE,FALSE,FALSE,"""event"",""trial"",""time""
""fullscreenenter"",""5"",""22863""
","
","
","""event"",""trial"",""time""
""fullscreenenter"",""5"",""22863""
","
",NA,NA,NA,NA,NA,NA,NA,NA,NA,NA,NA,NA,NA,NA,NA,NA,NA,NA,NA,NA,NA,NA,sub2
d3-instructions,50,321659,0.0-50.0,FALSE,TRUE,FALSE,FALSE,"""event"",""trial"",""time""
""fullscreenenter"",""5"",""22863""
","
","
","""event"",""trial"",""time""
""fullscreenenter"",""5"",""22863""
","
",NA,NA,NA,NA,NA,NA,NA,NA,NA,NA,NA,NA,NA,NA,NA,NA,NA,NA,NA,NA,NA,NA,sub2
d3-instructions,51,326193,0.0-51.0,FALSE,TRUE,FALSE,FALSE,"""event"",""trial"",""time""
""fullscreenenter"",""5"",""22863""
","
","
","""event"",""trial"",""time""
""fullscreenenter"",""5"",""22863""
","
",NA,NA,NA,NA,NA,NA,NA,NA,NA,NA,NA,NA,NA,NA,NA,NA,NA,NA,NA,NA,NA,NA,sub2
d3-instructions,52,329322,0.0-52.0,FALSE,TRUE,FALSE,FALSE,"""event"",""trial"",""time""
""fullscreenenter"",""5"",""22863""
","
","
","""event"",""trial"",""time""
""fullscreenenter"",""5"",""22863""
","
",NA,NA,NA,NA,NA,NA,NA,NA,NA,NA,NA,NA,NA,NA,NA,NA,NA,NA,NA,NA,NA,NA,sub2
d3-instructions,53,341899,0.0-53.0,FALSE,TRUE,FALSE,FALSE,"""event"",""trial"",""time""
""fullscreenenter"",""5"",""22863""
","
","
","""event"",""trial"",""time""
""fullscreenenter"",""5"",""22863""
","
",NA,NA,NA,NA,NA,NA,NA,NA,NA,NA,NA,NA,NA,NA,NA,NA,NA,NA,NA,NA,NA,NA,sub2
d3-instructions,54,355196,0.0-54.0,FALSE,TRUE,FALSE,FALSE,"""event"",""trial"",""time""
""fullscreenenter"",""5"",""22863""
","
","
","""event"",""trial"",""time""
""fullscreenenter"",""5"",""22863""
","
",NA,NA,NA,NA,NA,NA,NA,NA,NA,NA,NA,NA,NA,NA,NA,NA,NA,NA,NA,NA,NA,NA,sub2
d3-instructions,55,366044,0.0-55.0,FALSE,TRUE,FALSE,FALSE,"""event"",""trial"",""time""
""fullscreenenter"",""5"",""22863""
","
","
","""event"",""trial"",""time""
""fullscreenenter"",""5"",""22863""
","
",NA,NA,NA,NA,NA,NA,NA,NA,NA,NA,NA,NA,NA,NA,NA,NA,NA,NA,NA,NA,NA,NA,sub2
d3-instructions,56,375347,0.0-56.0,FALSE,TRUE,FALSE,FALSE,"""event"",""trial"",""time""
""fullscreenenter"",""5"",""22863""
","
","
","""event"",""trial"",""time""
""fullscreenenter"",""5"",""22863""
","
",NA,NA,NA,NA,NA,NA,NA,NA,NA,NA,NA,NA,NA,NA,NA,NA,NA,NA,NA,NA,NA,NA,sub2
d3-instructions,57,386105,0.0-57.0,FALSE,TRUE,FALSE,FALSE,"""event"",""trial"",""time""
""fullscreenenter"",""5"",""22863""
","
","
","""event"",""trial"",""time""
""fullscreenenter"",""5"",""22863""
","
",NA,NA,NA,NA,NA,NA,NA,NA,NA,NA,NA,NA,NA,NA,NA,NA,NA,NA,NA,NA,NA,NA,sub2
d3-instructions,58,398310,0.0-58.0,FALSE,TRUE,FALSE,FALSE,"""event"",""trial"",""time""
""fullscreenenter"",""5"",""22863""
","
","
","""event"",""trial"",""time""
""fullscreenenter"",""5"",""22863""
","
",NA,NA,NA,NA,NA,NA,NA,NA,NA,NA,NA,NA,NA,NA,NA,NA,NA,NA,NA,NA,NA,NA,sub2
d3-instructions,59,403279,0.0-59.0,FALSE,TRUE,FALSE,FALSE,"""event"",""trial"",""time""
""fullscreenenter"",""5"",""22863""
","
","
","""event"",""trial"",""time""
""fullscreenenter"",""5"",""22863""
","
",NA,NA,NA,NA,NA,NA,NA,NA,NA,NA,NA,NA,NA,NA,NA,NA,NA,NA,NA,NA,NA,NA,sub2
d3-instructions,60,408313,0.0-60.0,FALSE,TRUE,FALSE,FALSE,"""event"",""trial"",""time""
""fullscreenenter"",""5"",""22863""
","
","
","""event"",""trial"",""time""
""fullscreenenter"",""5"",""22863""
","
",NA,NA,NA,NA,NA,NA,NA,NA,NA,NA,NA,NA,NA,NA,NA,NA,NA,NA,NA,NA,NA,NA,sub2
d3-animate-choice,61,411047,0.0-61.0-0.0,FALSE,TRUE,FALSE,FALSE,"""event"",""trial"",""time""
""fullscreenenter"",""5"",""22863""
","
","
","""event"",""trial"",""time""
""fullscreenenter"",""5"",""22863""
","
",730.0000000000582,NA,49,NA,NA,3000,1,NA,NA,images/earth.jpg,images/tutrocket2,images/tutrocket1,null,images/tutrocket1,NA,1,practice,null,1,NA,NA,NA,sub2
d3-animate-choice,62,413891,0.0-61.0-1.0,FALSE,TRUE,FALSE,FALSE,"""event"",""trial"",""time""
""fullscreenenter"",""5"",""22863""
","
","
","""event"",""trial"",""time""
""fullscreenenter"",""5"",""22863""
","
",840.0000000000582,NA,49,NA,NA,3000,1,NA,NA,images/tutgreenplanet.jpg,images/tutalien2,images/tutalien1,images/tutrocket1,images/tutalien1,images/t.png,2,practice,true,1,common,1,2020-06-09T20:00:03Z,sub2
two-step-fixation,63,414894,0.0-61.0-2.0,FALSE,TRUE,FALSE,FALSE,"""event"",""trial"",""time""
""fullscreenenter"",""5"",""22863""
","
","
","""event"",""trial"",""time""
""fullscreenenter"",""5"",""22863""
","
",NA,images/earth.jpg,NA,NA,NA,NA,NA,NA,NA,NA,NA,NA,NA,NA,NA,fixation,NA,NA,NA,NA,NA,NA,sub2
d3-animate-choice,64,417309,0.0-61.0-0.1,FALSE,TRUE,FALSE,FALSE,"""event"",""trial"",""time""
""fullscreenenter"",""5"",""22863""
","
","
","""event"",""trial"",""time""
""fullscreenenter"",""5"",""22863""
","
",411,NA,48,NA,NA,3000,1,NA,NA,images/earth.jpg,images/tutrocket2,images/tutrocket1,null,images/tutrocket2,NA,1,practice,null,2,NA,NA,NA,sub2
d3-animate-choice,65,419998,0.0-61.0-1.1,FALSE,TRUE,FALSE,FALSE,"""event"",""trial"",""time""
""fullscreenenter"",""5"",""22863""
","
","
","""event"",""trial"",""time""
""fullscreenenter"",""5"",""22863""
","
",685,NA,48,NA,NA,3000,1,NA,NA,images/tutyellowplanet.jpg,images/tutalien4,images/tutalien3,images/tutrocket2,images/tutalien4,images/t.png,2,practice,true,2,common,1,2020-06-09T20:00:09Z,sub2
two-step-fixation,66,421001,0.0-61.0-2.1,FALSE,TRUE,FALSE,FALSE,"""event"",""trial"",""time""
""fullscreenenter"",""5"",""22863""
","
","
","""event"",""trial"",""time""
""fullscreenenter"",""5"",""22863""
","
",NA,images/earth.jpg,NA,NA,NA,NA,NA,NA,NA,NA,NA,NA,NA,NA,NA,fixation,NA,NA,NA,NA,NA,NA,sub2
d3-animate-choice,67,423346,0.0-61.0-0.2,FALSE,TRUE,FALSE,FALSE,"""event"",""trial"",""time""
""fullscreenenter"",""5"",""22863""
","
","
","""event"",""trial"",""time""
""fullscreenenter"",""5"",""22863""
","
",342.9999999999418,NA,49,NA,NA,3000,1,NA,NA,images/earth.jpg,images/tutrocket2,images/tutrocket1,null,images/tutrocket1,NA,1,practice,null,1,NA,NA,NA,sub2
d3-animate-choice,68,426087,0.0-61.0-1.2,FALSE,TRUE,FALSE,FALSE,"""event"",""trial"",""time""
""fullscreenenter"",""5"",""22863""
","
","
","""event"",""trial"",""time""
""fullscreenenter"",""5"",""22863""
","
",739.0000000000582,NA,49,NA,NA,3000,1,NA,NA,images/tutgreenplanet.jpg,images/tutalien2,images/tutalien1,images/tutrocket1,images/tutalien1,images/nothing.png,2,practice,true,1,common,0,2020-06-09T20:00:15Z,sub2
two-step-fixation,69,427090,0.0-61.0-2.2,FALSE,TRUE,FALSE,FALSE,"""event"",""trial"",""time""
""fullscreenenter"",""5"",""22863""
","
","
","""event"",""trial"",""time""
""fullscreenenter"",""5"",""22863""
","
",NA,images/earth.jpg,NA,NA,NA,NA,NA,NA,NA,NA,NA,NA,NA,NA,NA,fixation,NA,NA,NA,NA,NA,NA,sub2
d3-animate-choice,70,429415,0.0-61.0-0.3,FALSE,TRUE,FALSE,FALSE,"""event"",""trial"",""time""
""fullscreenenter"",""5"",""22863""
","
","
","""event"",""trial"",""time""
""fullscreenenter"",""5"",""22863""
","
",322.0000000000582,NA,48,NA,NA,3000,1,NA,NA,images/earth.jpg,images/tutrocket2,images/tutrocket1,null,images/tutrocket2,NA,1,practice,null,2,NA,NA,NA,sub2
d3-animate-choice,71,431844,0.0-61.0-1.3,FALSE,TRUE,FALSE,FALSE,"""event"",""trial"",""time""
""fullscreenenter"",""5"",""22863""
","
","
","""event"",""trial"",""time""
""fullscreenenter"",""5"",""22863""
","
",427,NA,49,NA,NA,3000,1,NA,NA,images/tutgreenplanet.jpg,images/tutalien2,images/tutalien1,images/tutrocket2,images/tutalien1,images/t.png,2,practice,false,1,rare,1,2020-06-09T20:00:21Z,sub2
two-step-fixation,72,432847,0.0-61.0-2.3,FALSE,TRUE,FALSE,FALSE,"""event"",""trial"",""time""
""fullscreenenter"",""5"",""22863""
","
","
","""event"",""trial"",""time""
""fullscreenenter"",""5"",""22863""
","
",NA,images/earth.jpg,NA,NA,NA,NA,NA,NA,NA,NA,NA,NA,NA,NA,NA,fixation,NA,NA,NA,NA,NA,NA,sub2
d3-animate-choice,73,435279,0.0-61.0-0.4,FALSE,TRUE,FALSE,FALSE,"""event"",""trial"",""time""
""fullscreenenter"",""5"",""22863""
","
","
","""event"",""trial"",""time""
""fullscreenenter"",""5"",""22863""
","
",430.9999999999418,NA,48,NA,NA,3000,1,NA,NA,images/earth.jpg,images/tutrocket2,images/tutrocket1,null,images/tutrocket2,NA,1,practice,null,2,NA,NA,NA,sub2
d3-animate-choice,74,437699,0.0-61.0-1.4,FALSE,TRUE,FALSE,FALSE,"""event"",""trial"",""time""
""fullscreenenter"",""5"",""22863""
","
","
","""event"",""trial"",""time""
""fullscreenenter"",""5"",""22863""
","
",417,NA,49,NA,NA,3000,1,NA,NA,images/tutyellowplanet.jpg,images/tutalien4,images/tutalien3,images/tutrocket2,images/tutalien3,images/t.png,2,practice,true,1,common,1,2020-06-09T20:00:26Z,sub2
two-step-fixation,75,438701,0.0-61.0-2.4,FALSE,TRUE,FALSE,FALSE,"""event"",""trial"",""time""
""fullscreenenter"",""5"",""22863""
","
","
","""event"",""trial"",""time""
""fullscreenenter"",""5"",""22863""
","
",NA,images/earth.jpg,NA,NA,NA,NA,NA,NA,NA,NA,NA,NA,NA,NA,NA,fixation,NA,NA,NA,NA,NA,NA,sub2
d3-animate-choice,76,440984,0.0-61.0-0.5,FALSE,TRUE,FALSE,FALSE,"""event"",""trial"",""time""
""fullscreenenter"",""5"",""22863""
","
","
","""event"",""trial"",""time""
""fullscreenenter"",""5"",""22863""
","
",280,NA,49,NA,NA,3000,1,NA,NA,images/earth.jpg,images/tutrocket2,images/tutrocket1,null,images/tutrocket1,NA,1,practice,null,1,NA,NA,NA,sub2
d3-animate-choice,77,443500,0.0-61.0-1.5,FALSE,TRUE,FALSE,FALSE,"""event"",""trial"",""time""
""fullscreenenter"",""5"",""22863""
","
","
","""event"",""trial"",""time""
""fullscreenenter"",""5"",""22863""
","
",512.9999999999418,NA,49,NA,NA,3000,1,NA,NA,images/tutgreenplanet.jpg,images/tutalien2,images/tutalien1,images/tutrocket1,images/tutalien1,images/t.png,2,practice,true,1,common,1,2020-06-09T20:00:32Z,sub2
two-step-fixation,78,444502,0.0-61.0-2.5,FALSE,TRUE,FALSE,FALSE,"""event"",""trial"",""time""
""fullscreenenter"",""5"",""22863""
","
","
","""event"",""trial"",""time""
""fullscreenenter"",""5"",""22863""
","
",NA,images/earth.jpg,NA,NA,NA,NA,NA,NA,NA,NA,NA,NA,NA,NA,NA,fixation,NA,NA,NA,NA,NA,NA,sub2
d3-animate-choice,79,446839,0.0-61.0-0.6,FALSE,TRUE,FALSE,FALSE,"""event"",""trial"",""time""
""fullscreenenter"",""5"",""22863""
","
","
","""event"",""trial"",""time""
""fullscreenenter"",""5"",""22863""
","
",333,NA,48,NA,NA,3000,1,NA,NA,images/earth.jpg,images/tutrocket2,images/tutrocket1,null,images/tutrocket2,NA,1,practice,null,2,NA,NA,NA,sub2
d3-animate-choice,80,449421,0.0-61.0-1.6,FALSE,TRUE,FALSE,FALSE,"""event"",""trial"",""time""
""fullscreenenter"",""5"",""22863""
","
","
","""event"",""trial"",""time""
""fullscreenenter"",""5"",""22863""
","
",579,NA,48,NA,NA,3000,1,NA,NA,images/tutyellowplanet.jpg,images/tutalien4,images/tutalien3,images/tutrocket2,images/tutalien4,images/t.png,2,practice,true,2,common,1,2020-06-09T20:00:38Z,sub2
two-step-fixation,81,450424,0.0-61.0-2.6,FALSE,TRUE,FALSE,FALSE,"""event"",""trial"",""time""
""fullscreenenter"",""5"",""22863""
","
","
","""event"",""trial"",""time""
""fullscreenenter"",""5"",""22863""
","
",NA,images/earth.jpg,NA,NA,NA,NA,NA,NA,NA,NA,NA,NA,NA,NA,NA,fixation,NA,NA,NA,NA,NA,NA,sub2
d3-animate-choice,82,452718,0.0-61.0-0.7,FALSE,TRUE,FALSE,FALSE,"""event"",""trial"",""time""
""fullscreenenter"",""5"",""22863""
","
","
","""event"",""trial"",""time""
""fullscreenenter"",""5"",""22863""
","
",290.9999999999418,NA,49,NA,NA,3000,1,NA,NA,images/earth.jpg,images/tutrocket2,images/tutrocket1,null,images/tutrocket1,NA,1,practice,null,1,NA,NA,NA,sub2
d3-animate-choice,83,455098,0.0-61.0-1.7,FALSE,TRUE,FALSE,FALSE,"""event"",""trial"",""time""
""fullscreenenter"",""5"",""22863""
","
","
","""event"",""trial"",""time""
""fullscreenenter"",""5"",""22863""
","
",377,NA,48,NA,NA,3000,1,NA,NA,images/tutyellowplanet.jpg,images/tutalien4,images/tutalien3,images/tutrocket1,images/tutalien4,images/t.png,2,practice,false,2,rare,1,2020-06-09T20:00:44Z,sub2
two-step-fixation,84,456101,0.0-61.0-2.7,FALSE,TRUE,FALSE,FALSE,"""event"",""trial"",""time""
""fullscreenenter"",""5"",""22863""
","
","
","""event"",""trial"",""time""
""fullscreenenter"",""5"",""22863""
","
",NA,images/earth.jpg,NA,NA,NA,NA,NA,NA,NA,NA,NA,NA,NA,NA,NA,fixation,NA,NA,NA,NA,NA,NA,sub2
d3-animate-choice,85,458634,0.0-61.0-0.8,FALSE,TRUE,FALSE,FALSE,"""event"",""trial"",""time""
""fullscreenenter"",""5"",""22863""
","
","
","""event"",""trial"",""time""
""fullscreenenter"",""5"",""22863""
","
",532,NA,48,NA,NA,3000,1,NA,NA,images/earth.jpg,images/tutrocket2,images/tutrocket1,null,images/tutrocket2,NA,1,practice,null,2,NA,NA,NA,sub2
d3-animate-choice,86,461143,0.0-61.0-1.8,FALSE,TRUE,FALSE,FALSE,"""event"",""trial"",""time""
""fullscreenenter"",""5"",""22863""
","
","
","""event"",""trial"",""time""
""fullscreenenter"",""5"",""22863""
","
",505,NA,48,NA,NA,3000,1,NA,NA,images/tutyellowplanet.jpg,images/tutalien4,images/tutalien3,images/tutrocket2,images/tutalien4,images/t.png,2,practice,true,2,common,1,2020-06-09T20:00:50Z,sub2
two-step-fixation,87,462145,0.0-61.0-2.8,FALSE,TRUE,FALSE,FALSE,"""event"",""trial"",""time""
""fullscreenenter"",""5"",""22863""
","
","
","""event"",""trial"",""time""
""fullscreenenter"",""5"",""22863""
","
",NA,images/earth.jpg,NA,NA,NA,NA,NA,NA,NA,NA,NA,NA,NA,NA,NA,fixation,NA,NA,NA,NA,NA,NA,sub2
d3-animate-choice,88,464400,0.0-61.0-0.9,FALSE,TRUE,FALSE,FALSE,"""event"",""trial"",""time""
""fullscreenenter"",""5"",""22863""
","
","
","""event"",""trial"",""time""
""fullscreenenter"",""5"",""22863""
","
",250.9999999999418,NA,48,NA,NA,3000,1,NA,NA,images/earth.jpg,images/tutrocket2,images/tutrocket1,null,images/tutrocket2,NA,1,practice,null,2,NA,NA,NA,sub2
d3-animate-choice,89,466901,0.0-61.0-1.9,FALSE,TRUE,FALSE,FALSE,"""event"",""trial"",""time""
""fullscreenenter"",""5"",""22863""
","
","
","""event"",""trial"",""time""
""fullscreenenter"",""5"",""22863""
","
",499,NA,48,NA,NA,3000,1,NA,NA,images/tutyellowplanet.jpg,images/tutalien4,images/tutalien3,images/tutrocket2,images/tutalien4,images/nothing.png,2,practice,true,2,common,0,2020-06-09T20:00:56Z,sub2
two-step-fixation,90,467904,0.0-61.0-2.9,FALSE,TRUE,FALSE,FALSE,"""event"",""trial"",""time""
""fullscreenenter"",""5"",""22863""
","
","
","""event"",""trial"",""time""
""fullscreenenter"",""5"",""22863""
","
",NA,images/earth.jpg,NA,NA,NA,NA,NA,NA,NA,NA,NA,NA,NA,NA,NA,fixation,NA,NA,NA,NA,NA,NA,sub2
d3-animate-choice,91,470184,0.0-61.0-0.10,FALSE,TRUE,FALSE,FALSE,"""event"",""trial"",""time""
""fullscreenenter"",""5"",""22863""
","
","
","""event"",""trial"",""time""
""fullscreenenter"",""5"",""22863""
","
",278.0000000000582,NA,48,NA,NA,3000,1,NA,NA,images/earth.jpg,images/tutrocket2,images/tutrocket1,null,images/tutrocket2,NA,1,practice,null,2,NA,NA,NA,sub2
d3-animate-choice,92,472583,0.0-61.0-1.10,FALSE,TRUE,FALSE,FALSE,"""event"",""trial"",""time""
""fullscreenenter"",""5"",""22863""
","
","
","""event"",""trial"",""time""
""fullscreenenter"",""5"",""22863""
","
",396.0000000000582,NA,48,NA,NA,3000,1,NA,NA,images/tutyellowplanet.jpg,images/tutalien4,images/tutalien3,images/tutrocket2,images/tutalien4,images/nothing.png,2,practice,true,2,common,0,2020-06-09T20:01:01Z,sub2
two-step-fixation,93,473586,0.0-61.0-2.10,FALSE,TRUE,FALSE,FALSE,"""event"",""trial"",""time""
""fullscreenenter"",""5"",""22863""
","
","
","""event"",""trial"",""time""
""fullscreenenter"",""5"",""22863""
","
",NA,images/earth.jpg,NA,NA,NA,NA,NA,NA,NA,NA,NA,NA,NA,NA,NA,fixation,NA,NA,NA,NA,NA,NA,sub2
d3-animate-choice,94,476150,0.0-61.0-0.11,FALSE,TRUE,FALSE,FALSE,"""event"",""trial"",""time""
""fullscreenenter"",""5"",""22863""
","
","
","""event"",""trial"",""time""
""fullscreenenter"",""5"",""22863""
","
",560.9999999999418,NA,49,NA,NA,3000,1,NA,NA,images/earth.jpg,images/tutrocket2,images/tutrocket1,null,images/tutrocket1,NA,1,practice,null,1,NA,NA,NA,sub2
d3-animate-choice,95,478773,0.0-61.0-1.11,FALSE,TRUE,FALSE,FALSE,"""event"",""trial"",""time""
""fullscreenenter"",""5"",""22863""
","
","
","""event"",""trial"",""time""
""fullscreenenter"",""5"",""22863""
","
",618.9999999999418,NA,48,NA,NA,3000,1,NA,NA,images/tutgreenplanet.jpg,images/tutalien2,images/tutalien1,images/tutrocket1,images/tutalien2,images/nothing.png,2,practice,true,2,common,0,2020-06-09T20:01:08Z,sub2
two-step-fixation,96,479775,0.0-61.0-2.11,FALSE,TRUE,FALSE,FALSE,"""event"",""trial"",""time""
""fullscreenenter"",""5"",""22863""
","
","
","""event"",""trial"",""time""
""fullscreenenter"",""5"",""22863""
","
",NA,images/earth.jpg,NA,NA,NA,NA,NA,NA,NA,NA,NA,NA,NA,NA,NA,fixation,NA,NA,NA,NA,NA,NA,sub2
d3-animate-choice,97,482145,0.0-61.0-0.12,FALSE,TRUE,FALSE,FALSE,"""event"",""trial"",""time""
""fullscreenenter"",""5"",""22863""
","
","
","""event"",""trial"",""time""
""fullscreenenter"",""5"",""22863""
","
",366.9999999999418,NA,48,NA,NA,3000,1,NA,NA,images/earth.jpg,images/tutrocket2,images/tutrocket1,null,images/tutrocket2,NA,1,practice,null,2,NA,NA,NA,sub2
d3-animate-choice,98,484597,0.0-61.0-1.12,FALSE,TRUE,FALSE,FALSE,"""event"",""trial"",""time""
""fullscreenenter"",""5"",""22863""
","
","
","""event"",""trial"",""time""
""fullscreenenter"",""5"",""22863""
","
",448.9999999999418,NA,49,NA,NA,3000,1,NA,NA,images/tutyellowplanet.jpg,images/tutalien4,images/tutalien3,images/tutrocket2,images/tutalien3,images/nothing.png,2,practice,true,1,common,0,2020-06-09T20:01:13Z,sub2
two-step-fixation,99,485600,0.0-61.0-2.12,FALSE,TRUE,FALSE,FALSE,"""event"",""trial"",""time""
""fullscreenenter"",""5"",""22863""
","
","
","""event"",""trial"",""time""
""fullscreenenter"",""5"",""22863""
","
",NA,images/earth.jpg,NA,NA,NA,NA,NA,NA,NA,NA,NA,NA,NA,NA,NA,fixation,NA,NA,NA,NA,NA,NA,sub2
d3-animate-choice,100,487927,0.0-61.0-0.13,FALSE,TRUE,FALSE,FALSE,"""event"",""trial"",""time""
""fullscreenenter"",""5"",""22863""
","
","
","""event"",""trial"",""time""
""fullscreenenter"",""5"",""22863""
","
",324.0000000000582,NA,49,NA,NA,3000,1,NA,NA,images/earth.jpg,images/tutrocket2,images/tutrocket1,null,images/tutrocket1,NA,1,practice,null,1,NA,NA,NA,sub2
d3-animate-choice,101,490354,0.0-61.0-1.13,FALSE,TRUE,FALSE,FALSE,"""event"",""trial"",""time""
""fullscreenenter"",""5"",""22863""
","
","
","""event"",""trial"",""time""
""fullscreenenter"",""5"",""22863""
","
",424,NA,49,NA,NA,3000,1,NA,NA,images/tutyellowplanet.jpg,images/tutalien4,images/tutalien3,images/tutrocket1,images/tutalien3,images/t.png,2,practice,false,1,rare,1,2020-06-09T20:01:19Z,sub2
two-step-fixation,102,491356,0.0-61.0-2.13,FALSE,TRUE,FALSE,FALSE,"""event"",""trial"",""time""
""fullscreenenter"",""5"",""22863""
","
","
","""event"",""trial"",""time""
""fullscreenenter"",""5"",""22863""
","
",NA,images/earth.jpg,NA,NA,NA,NA,NA,NA,NA,NA,NA,NA,NA,NA,NA,fixation,NA,NA,NA,NA,NA,NA,sub2
d3-animate-choice,103,493872,0.0-61.0-0.14,FALSE,TRUE,FALSE,FALSE,"""event"",""trial"",""time""
""fullscreenenter"",""5"",""22863""
","
","
","""event"",""trial"",""time""
""fullscreenenter"",""5"",""22863""
","
",513,NA,48,NA,NA,3000,1,NA,NA,images/earth.jpg,images/tutrocket2,images/tutrocket1,null,images/tutrocket2,NA,1,practice,null,2,NA,NA,NA,sub2
d3-animate-choice,104,496272,0.0-61.0-1.14,FALSE,TRUE,FALSE,FALSE,"""event"",""trial"",""time""
""fullscreenenter"",""5"",""22863""
","
","
","""event"",""trial"",""time""
""fullscreenenter"",""5"",""22863""
","
",396.9999999999418,NA,48,NA,NA,3000,1,NA,NA,images/tutyellowplanet.jpg,images/tutalien4,images/tutalien3,images/tutrocket2,images/tutalien4,images/nothing.png,2,practice,true,2,common,0,2020-06-09T20:01:25Z,sub2
two-step-fixation,105,497274,0.0-61.0-2.14,FALSE,TRUE,FALSE,FALSE,"""event"",""trial"",""time""
""fullscreenenter"",""5"",""22863""
","
","
","""event"",""trial"",""time""
""fullscreenenter"",""5"",""22863""
","
",NA,images/earth.jpg,NA,NA,NA,NA,NA,NA,NA,NA,NA,NA,NA,NA,NA,fixation,NA,NA,NA,NA,NA,NA,sub2
d3-animate-choice,106,499587,0.0-61.0-0.15,FALSE,TRUE,FALSE,FALSE,"""event"",""trial"",""time""
""fullscreenenter"",""5"",""22863""
","
","
","""event"",""trial"",""time""
""fullscreenenter"",""5"",""22863""
","
",309,NA,49,NA,NA,3000,1,NA,NA,images/earth.jpg,images/tutrocket2,images/tutrocket1,null,images/tutrocket1,NA,1,practice,null,1,NA,NA,NA,sub2
d3-animate-choice,107,502115,0.0-61.0-1.15,FALSE,TRUE,FALSE,FALSE,"""event"",""trial"",""time""
""fullscreenenter"",""5"",""22863""
","
","
","""event"",""trial"",""time""
""fullscreenenter"",""5"",""22863""
","
",523,NA,49,NA,NA,3000,1,NA,NA,images/tutgreenplanet.jpg,images/tutalien2,images/tutalien1,images/tutrocket1,images/tutalien1,images/t.png,2,practice,true,1,common,1,2020-06-09T20:01:31Z,sub2
two-step-fixation,108,503117,0.0-61.0-2.15,FALSE,TRUE,FALSE,FALSE,"""event"",""trial"",""time""
""fullscreenenter"",""5"",""22863""
","
","
","""event"",""trial"",""time""
""fullscreenenter"",""5"",""22863""
","
",NA,images/earth.jpg,NA,NA,NA,NA,NA,NA,NA,NA,NA,NA,NA,NA,NA,fixation,NA,NA,NA,NA,NA,NA,sub2
d3-animate-choice,109,505406,0.0-61.0-0.16,FALSE,TRUE,FALSE,FALSE,"""event"",""trial"",""time""
""fullscreenenter"",""5"",""22863""
","
","
","""event"",""trial"",""time""
""fullscreenenter"",""5"",""22863""
","
",285,NA,49,NA,NA,3000,1,NA,NA,images/earth.jpg,images/tutrocket2,images/tutrocket1,null,images/tutrocket1,NA,1,practice,null,1,NA,NA,NA,sub2
d3-animate-choice,110,507846,0.0-61.0-1.16,FALSE,TRUE,FALSE,FALSE,"""event"",""trial"",""time""
""fullscreenenter"",""5"",""22863""
","
","
","""event"",""trial"",""time""
""fullscreenenter"",""5"",""22863""
","
",437.0000000000582,NA,49,NA,NA,3000,1,NA,NA,images/tutgreenplanet.jpg,images/tutalien2,images/tutalien1,images/tutrocket1,images/tutalien1,images/nothing.png,2,practice,true,1,common,0,2020-06-09T20:01:37Z,sub2
two-step-fixation,111,508848,0.0-61.0-2.16,FALSE,TRUE,FALSE,FALSE,"""event"",""trial"",""time""
""fullscreenenter"",""5"",""22863""
","
","
","""event"",""trial"",""time""
""fullscreenenter"",""5"",""22863""
","
",NA,images/earth.jpg,NA,NA,NA,NA,NA,NA,NA,NA,NA,NA,NA,NA,NA,fixation,NA,NA,NA,NA,NA,NA,sub2
d3-animate-choice,112,511237,0.0-61.0-0.17,FALSE,TRUE,FALSE,FALSE,"""event"",""trial"",""time""
""fullscreenenter"",""5"",""22863""
","
","
","""event"",""trial"",""time""
""fullscreenenter"",""5"",""22863""
","
",385.9999999999418,NA,49,NA,NA,3000,1,NA,NA,images/earth.jpg,images/tutrocket2,images/tutrocket1,null,images/tutrocket1,NA,1,practice,null,1,NA,NA,NA,sub2
d3-animate-choice,113,513618,0.0-61.0-1.17,FALSE,TRUE,FALSE,FALSE,"""event"",""trial"",""time""
""fullscreenenter"",""5"",""22863""
","
","
","""event"",""trial"",""time""
""fullscreenenter"",""5"",""22863""
","
",377,NA,48,NA,NA,3000,1,NA,NA,images/tutgreenplanet.jpg,images/tutalien2,images/tutalien1,images/tutrocket1,images/tutalien2,images/nothing.png,2,practice,true,2,common,0,2020-06-09T20:01:42Z,sub2
two-step-fixation,114,514621,0.0-61.0-2.17,FALSE,TRUE,FALSE,FALSE,"""event"",""trial"",""time""
""fullscreenenter"",""5"",""22863""
","
","
","""event"",""trial"",""time""
""fullscreenenter"",""5"",""22863""
","
",NA,images/earth.jpg,NA,NA,NA,NA,NA,NA,NA,NA,NA,NA,NA,NA,NA,fixation,NA,NA,NA,NA,NA,NA,sub2
d3-animate-choice,115,517227,0.0-61.0-0.18,FALSE,TRUE,FALSE,FALSE,"""event"",""trial"",""time""
""fullscreenenter"",""5"",""22863""
","
","
","""event"",""trial"",""time""
""fullscreenenter"",""5"",""22863""
","
",602,NA,49,NA,NA,3000,1,NA,NA,images/earth.jpg,images/tutrocket2,images/tutrocket1,null,images/tutrocket1,NA,1,practice,null,1,NA,NA,NA,sub2
d3-animate-choice,116,519569,0.0-61.0-1.18,FALSE,TRUE,FALSE,FALSE,"""event"",""trial"",""time""
""fullscreenenter"",""5"",""22863""
","
","
","""event"",""trial"",""time""
""fullscreenenter"",""5"",""22863""
","
",339,NA,49,NA,NA,3000,1,NA,NA,images/tutgreenplanet.jpg,images/tutalien2,images/tutalien1,images/tutrocket1,images/tutalien1,images/nothing.png,2,practice,true,1,common,0,2020-06-09T20:01:48Z,sub2
two-step-fixation,117,520571,0.0-61.0-2.18,FALSE,TRUE,FALSE,FALSE,"""event"",""trial"",""time""
""fullscreenenter"",""5"",""22863""
","
","
","""event"",""trial"",""time""
""fullscreenenter"",""5"",""22863""
","
",NA,images/earth.jpg,NA,NA,NA,NA,NA,NA,NA,NA,NA,NA,NA,NA,NA,fixation,NA,NA,NA,NA,NA,NA,sub2
d3-animate-choice,118,523036,0.0-61.0-0.19,FALSE,TRUE,FALSE,FALSE,"""event"",""trial"",""time""
""fullscreenenter"",""5"",""22863""
","
","
","""event"",""trial"",""time""
""fullscreenenter"",""5"",""22863""
","
",461,NA,48,NA,NA,3000,1,NA,NA,images/earth.jpg,images/tutrocket2,images/tutrocket1,null,images/tutrocket2,NA,1,practice,null,2,NA,NA,NA,sub2
d3-animate-choice,119,525400,0.0-61.0-1.19,FALSE,TRUE,FALSE,FALSE,"""event"",""trial"",""time""
""fullscreenenter"",""5"",""22863""
","
","
","""event"",""trial"",""time""
""fullscreenenter"",""5"",""22863""
","
",362,NA,49,NA,NA,3000,1,NA,NA,images/tutgreenplanet.jpg,images/tutalien2,images/tutalien1,images/tutrocket2,images/tutalien1,images/t.png,2,practice,false,1,rare,1,2020-06-09T20:01:54Z,sub2
two-step-fixation,120,526403,0.0-61.0-2.19,FALSE,TRUE,FALSE,FALSE,"""event"",""trial"",""time""
""fullscreenenter"",""5"",""22863""
","
","
","""event"",""trial"",""time""
""fullscreenenter"",""5"",""22863""
","
",NA,images/earth.jpg,NA,NA,NA,NA,NA,NA,NA,NA,NA,NA,NA,NA,NA,fixation,NA,NA,NA,NA,NA,NA,sub2
d3-instructions,121,532454,0.0-62.0,FALSE,TRUE,FALSE,FALSE,"""event"",""trial"",""time""
""fullscreenenter"",""5"",""22863""
","
","
","""event"",""trial"",""time""
""fullscreenenter"",""5"",""22863""
","
",NA,NA,NA,NA,NA,NA,NA,NA,NA,NA,NA,NA,NA,NA,NA,NA,NA,NA,NA,NA,NA,NA,sub2
audio-keyboard-response,122,536154,0.0-63.0,FALSE,TRUE,FALSE,FALSE,"""event"",""trial"",""time""
""fullscreenenter"",""5"",""22863""
","
","
","""event"",""trial"",""time""
""fullscreenenter"",""5"",""22863""
","
",3699,audio/instructions/treasure_feedback.wav,32,NA,NA,NA,NA,NA,NA,NA,NA,NA,NA,NA,NA,NA,NA,NA,NA,NA,NA,NA,sub2
d3-instructions,123,553645,0.0-64.0,FALSE,TRUE,FALSE,FALSE,"""event"",""trial"",""time""
""fullscreenenter"",""5"",""22863""
","
","
","""event"",""trial"",""time""
""fullscreenenter"",""5"",""22863""
","
",NA,NA,NA,NA,NA,NA,NA,NA,NA,NA,NA,NA,NA,NA,NA,NA,NA,NA,NA,NA,NA,NA,sub2
d3-instructions,124,568263,0.0-65.0,FALSE,TRUE,FALSE,FALSE,"""event"",""trial"",""time""
""fullscreenenter"",""5"",""22863""
","
","
","""event"",""trial"",""time""
""fullscreenenter"",""5"",""22863""
","
",NA,NA,NA,NA,NA,NA,NA,NA,NA,NA,NA,NA,NA,NA,NA,NA,NA,NA,NA,NA,NA,NA,sub2
d3-instructions,125,591834,0.0-66.0,FALSE,TRUE,FALSE,FALSE,"""event"",""trial"",""time""
""fullscreenenter"",""5"",""22863""
","
","
","""event"",""trial"",""time""
""fullscreenenter"",""5"",""22863""
","
",NA,NA,NA,NA,NA,NA,NA,NA,NA,NA,NA,NA,NA,NA,NA,NA,NA,NA,NA,NA,NA,NA,sub2
d3-instructions,126,609682,0.0-67.0,FALSE,TRUE,FALSE,FALSE,"""event"",""trial"",""time""
""fullscreenenter"",""5"",""22863""
","
","
","""event"",""trial"",""time""
""fullscreenenter"",""5"",""22863""
","
",NA,NA,NA,NA,NA,NA,NA,NA,NA,NA,NA,NA,NA,NA,NA,NA,NA,NA,NA,NA,NA,NA,sub2
d3-instructions,127,616272,0.0-68.0,FALSE,TRUE,FALSE,FALSE,"""event"",""trial"",""time""
""fullscreenenter"",""5"",""22863""
","
","
","""event"",""trial"",""time""
""fullscreenenter"",""5"",""22863""
","
",NA,NA,NA,NA,NA,NA,NA,NA,NA,NA,NA,NA,NA,NA,NA,NA,NA,NA,NA,NA,NA,NA,sub2
instructions-quiz,128,620183,0.0-69.0,FALSE,TRUE,FALSE,FALSE,"""event"",""trial"",""time""
""fullscreenenter"",""5"",""22863""
","
","
","""event"",""trial"",""time""
""fullscreenenter"",""5"",""22863""
","
",3910,audio/quiz/Q1_Prompt.wav,NA,1,NA,NA,NA,NA,NA,NA,NA,NA,NA,NA,NA,NA,NA,NA,NA,NA,NA,NA,sub2
audio-keyboard-response,129,629350,0.0-70.0,FALSE,TRUE,FALSE,FALSE,"""event"",""trial"",""time""
""fullscreenenter"",""5"",""22863""
","
","
","""event"",""trial"",""time""
""fullscreenenter"",""5"",""22863""
","
",null,audio/quiz/Q1_Correct.wav,null,NA,NA,NA,NA,NA,NA,NA,NA,NA,NA,NA,NA,NA,NA,NA,NA,NA,NA,NA,sub2
instructions-quiz,130,638073,0.0-71.0,FALSE,TRUE,FALSE,FALSE,"""event"",""trial"",""time""
""fullscreenenter"",""5"",""22863""
","
","
","""event"",""trial"",""time""
""fullscreenenter"",""5"",""22863""
","
",8721,audio/quiz/Q2_Prompt.wav,NA,0,NA,NA,NA,NA,NA,NA,NA,NA,NA,NA,NA,NA,NA,NA,NA,NA,NA,NA,sub2
audio-keyboard-response,131,650942,0.0-72.0,FALSE,TRUE,FALSE,FALSE,"""event"",""trial"",""time""
""fullscreenenter"",""5"",""22863""
","
","
","""event"",""trial"",""time""
""fullscreenenter"",""5"",""22863""
","
",null,audio/quiz/Q2_Correct.wav,null,NA,NA,NA,NA,NA,NA,NA,NA,NA,NA,NA,NA,NA,NA,NA,NA,NA,NA,NA,sub2
instructions-quiz,132,654241,0.0-73.0,FALSE,TRUE,FALSE,FALSE,"""event"",""trial"",""time""
""fullscreenenter"",""5"",""22863""
","
","
","""event"",""trial"",""time""
""fullscreenenter"",""5"",""22863""
","
",3298,audio/quiz/Q3_Prompt.wav,NA,1,NA,NA,NA,NA,NA,NA,NA,NA,NA,NA,NA,NA,NA,NA,NA,NA,NA,NA,sub2
audio-keyboard-response,133,660041,0.0-74.0,FALSE,TRUE,FALSE,FALSE,"""event"",""trial"",""time""
""fullscreenenter"",""5"",""22863""
","
","
","""event"",""trial"",""time""
""fullscreenenter"",""5"",""22863""
","
",null,audio/quiz/Q3_Correct.wav,null,NA,NA,NA,NA,NA,NA,NA,NA,NA,NA,NA,NA,NA,NA,NA,NA,NA,NA,NA,sub2
d3-instructions,134,668611,0.0-75.0,FALSE,TRUE,FALSE,FALSE,"""event"",""trial"",""time""
""fullscreenenter"",""5"",""22863""
","
","
","""event"",""trial"",""time""
""fullscreenenter"",""5"",""22863""
","
",NA,NA,NA,NA,NA,NA,NA,NA,NA,NA,NA,NA,NA,NA,NA,NA,NA,NA,NA,NA,NA,NA,sub2
d3-animate-choice,135,672615,0.0-76.0-0.0,FALSE,TRUE,FALSE,FALSE,"""event"",""trial"",""time""
""fullscreenenter"",""5"",""22863""
","
","
","""event"",""trial"",""time""
""fullscreenenter"",""5"",""22863""
","
",2759.0000000001164,NA,78,NA,NA,3000,1,3183,48,images/earth.jpg,images/rocket1,images/rocket2,null,images/rocket1,NA,1,real,null,NA,NA,NA,NA,sub2
d3-animate-choice,136,676303,0.0-76.0-1.0,FALSE,TRUE,FALSE,FALSE,"""event"",""trial"",""time""
""fullscreenenter"",""5"",""22863""
","
","
","""event"",""trial"",""time""
""fullscreenenter"",""5"",""22863""
","
",1329,NA,57,NA,NA,3000,1,1684,48,images/redplanet1.jpg,images/alien2,images/alien1,images/rocket1,images/alien2,images/nothing.png,2,real,true,NA,common,0,2020-06-09T20:04:25Z,sub2
two-step-fixation,137,677305,0.0-76.0-2.0,FALSE,TRUE,FALSE,FALSE,"""event"",""trial"",""time""
""fullscreenenter"",""5"",""22863""
","
","
","""event"",""trial"",""time""
""fullscreenenter"",""5"",""22863""
","
",NA,images/earth.jpg,NA,NA,NA,NA,NA,NA,NA,NA,NA,NA,NA,NA,NA,fixation,NA,NA,NA,NA,NA,NA,sub2
d3-animate-choice,138,679636,0.0-76.0-0.1,FALSE,TRUE,FALSE,FALSE,"""event"",""trial"",""time""
""fullscreenenter"",""5"",""22863""
","
","
","""event"",""trial"",""time""
""fullscreenenter"",""5"",""22863""
","
",330,NA,49,NA,NA,3000,1,NA,NA,images/earth.jpg,images/rocket1,images/rocket2,null,images/rocket2,NA,1,real,null,1,NA,NA,NA,sub2
d3-animate-choice,139,682049,0.0-76.0-1.1,FALSE,TRUE,FALSE,FALSE,"""event"",""trial"",""time""
""fullscreenenter"",""5"",""22863""
","
","
","""event"",""trial"",""time""
""fullscreenenter"",""5"",""22863""
","
",410,NA,49,NA,NA,3000,1,NA,NA,images/purpleplanet.jpg,images/alien4,images/alien3,images/rocket2,images/alien3,images/t.png,2,real,true,1,common,1,2020-06-09T20:04:31Z,sub2
two-step-fixation,140,683051,0.0-76.0-2.1,FALSE,TRUE,FALSE,FALSE,"""event"",""trial"",""time""
""fullscreenenter"",""5"",""22863""
","
","
","""event"",""trial"",""time""
""fullscreenenter"",""5"",""22863""
","
",NA,images/earth.jpg,NA,NA,NA,NA,NA,NA,NA,NA,NA,NA,NA,NA,NA,fixation,NA,NA,NA,NA,NA,NA,sub2
d3-animate-choice,141,685436,0.0-76.0-0.2,FALSE,TRUE,FALSE,FALSE,"""event"",""trial"",""time""
""fullscreenenter"",""5"",""22863""
","
","
","""event"",""trial"",""time""
""fullscreenenter"",""5"",""22863""
","
",381,NA,49,NA,NA,3000,1,NA,NA,images/earth.jpg,images/rocket1,images/rocket2,null,images/rocket2,NA,1,real,null,1,NA,NA,NA,sub2
d3-animate-choice,142,687916,0.0-76.0-1.2,FALSE,TRUE,FALSE,FALSE,"""event"",""trial"",""time""
""fullscreenenter"",""5"",""22863""
","
","
","""event"",""trial"",""time""
""fullscreenenter"",""5"",""22863""
","
",478,NA,49,NA,NA,3000,1,NA,NA,images/purpleplanet.jpg,images/alien4,images/alien3,images/rocket2,images/alien3,images/t.png,2,real,true,1,common,1,2020-06-09T20:04:37Z,sub2
two-step-fixation,143,688918,0.0-76.0-2.2,FALSE,TRUE,FALSE,FALSE,"""event"",""trial"",""time""
""fullscreenenter"",""5"",""22863""
","
","
","""event"",""trial"",""time""
""fullscreenenter"",""5"",""22863""
","
",NA,images/earth.jpg,NA,NA,NA,NA,NA,NA,NA,NA,NA,NA,NA,NA,NA,fixation,NA,NA,NA,NA,NA,NA,sub2
d3-animate-choice,144,691314,0.0-76.0-0.3,FALSE,TRUE,FALSE,FALSE,"""event"",""trial"",""time""
""fullscreenenter"",""5"",""22863""
","
","
","""event"",""trial"",""time""
""fullscreenenter"",""5"",""22863""
","
",392,NA,49,NA,NA,3000,1,NA,NA,images/earth.jpg,images/rocket1,images/rocket2,null,images/rocket2,NA,1,real,null,1,NA,NA,NA,sub2
d3-animate-choice,145,693671,0.0-76.0-1.3,FALSE,TRUE,FALSE,FALSE,"""event"",""trial"",""time""
""fullscreenenter"",""5"",""22863""
","
","
","""event"",""trial"",""time""
""fullscreenenter"",""5"",""22863""
","
",354.0000000001164,NA,48,NA,NA,3000,1,NA,NA,images/purpleplanet.jpg,images/alien4,images/alien3,images/rocket2,images/alien4,images/t.png,2,real,true,2,common,1,2020-06-09T20:04:42Z,sub2
two-step-fixation,146,694673,0.0-76.0-2.3,FALSE,TRUE,FALSE,FALSE,"""event"",""trial"",""time""
""fullscreenenter"",""5"",""22863""
","
","
","""event"",""trial"",""time""
""fullscreenenter"",""5"",""22863""
","
",NA,images/earth.jpg,NA,NA,NA,NA,NA,NA,NA,NA,NA,NA,NA,NA,NA,fixation,NA,NA,NA,NA,NA,NA,sub2
d3-animate-choice,147,697295,0.0-76.0-0.4,FALSE,TRUE,FALSE,FALSE,"""event"",""trial"",""time""
""fullscreenenter"",""5"",""22863""
","
","
","""event"",""trial"",""time""
""fullscreenenter"",""5"",""22863""
","
",618.9999999998836,NA,48,NA,NA,3000,1,NA,NA,images/earth.jpg,images/rocket1,images/rocket2,null,images/rocket1,NA,1,real,null,2,NA,NA,NA,sub2
d3-animate-choice,148,699841,0.0-76.0-1.4,FALSE,TRUE,FALSE,FALSE,"""event"",""trial"",""time""
""fullscreenenter"",""5"",""22863""
","
","
","""event"",""trial"",""time""
""fullscreenenter"",""5"",""22863""
","
",543,NA,48,NA,NA,3000,1,NA,NA,images/purpleplanet.jpg,images/alien4,images/alien3,images/rocket1,images/alien4,images/nothing.png,2,real,false,2,rare,0,2020-06-09T20:04:49Z,sub2
two-step-fixation,149,700844,0.0-76.0-2.4,FALSE,TRUE,FALSE,FALSE,"""event"",""trial"",""time""
""fullscreenenter"",""5"",""22863""
","
","
","""event"",""trial"",""time""
""fullscreenenter"",""5"",""22863""
","
",NA,images/earth.jpg,NA,NA,NA,NA,NA,NA,NA,NA,NA,NA,NA,NA,NA,fixation,NA,NA,NA,NA,NA,NA,sub2
d3-animate-choice,150,703225,0.0-76.0-0.5,FALSE,TRUE,FALSE,FALSE,"""event"",""trial"",""time""
""fullscreenenter"",""5"",""22863""
","
","
","""event"",""trial"",""time""
""fullscreenenter"",""5"",""22863""
","
",377,NA,48,NA,NA,3000,1,NA,NA,images/earth.jpg,images/rocket1,images/rocket2,null,images/rocket1,NA,1,real,null,2,NA,NA,NA,sub2
d3-animate-choice,151,705814,0.0-76.0-1.5,FALSE,TRUE,FALSE,FALSE,"""event"",""trial"",""time""
""fullscreenenter"",""5"",""22863""
","
","
","""event"",""trial"",""time""
""fullscreenenter"",""5"",""22863""
","
",586,NA,49,NA,NA,3000,1,NA,NA,images/redplanet1.jpg,images/alien2,images/alien1,images/rocket1,images/alien1,images/t.png,2,real,true,1,common,1,2020-06-09T20:04:55Z,sub2
two-step-fixation,152,706817,0.0-76.0-2.5,FALSE,TRUE,FALSE,FALSE,"""event"",""trial"",""time""
""fullscreenenter"",""5"",""22863""
","
","
","""event"",""trial"",""time""
""fullscreenenter"",""5"",""22863""
","
",NA,images/earth.jpg,NA,NA,NA,NA,NA,NA,NA,NA,NA,NA,NA,NA,NA,fixation,NA,NA,NA,NA,NA,NA,sub2
d3-animate-choice,153,709129,0.0-76.0-0.6,FALSE,TRUE,FALSE,FALSE,"""event"",""trial"",""time""
""fullscreenenter"",""5"",""22863""
","
","
","""event"",""trial"",""time""
""fullscreenenter"",""5"",""22863""
","
",308.9999999998836,NA,49,NA,NA,3000,1,NA,NA,images/earth.jpg,images/rocket1,images/rocket2,null,images/rocket2,NA,1,real,null,1,NA,NA,NA,sub2
d3-animate-choice,154,711818,0.0-76.0-1.6,FALSE,TRUE,FALSE,FALSE,"""event"",""trial"",""time""
""fullscreenenter"",""5"",""22863""
","
","
","""event"",""trial"",""time""
""fullscreenenter"",""5"",""22863""
","
",686,NA,49,NA,NA,3000,1,NA,NA,images/purpleplanet.jpg,images/alien4,images/alien3,images/rocket2,images/alien3,images/t.png,2,real,true,1,common,1,2020-06-09T20:05:01Z,sub2
two-step-fixation,155,712820,0.0-76.0-2.6,FALSE,TRUE,FALSE,FALSE,"""event"",""trial"",""time""
""fullscreenenter"",""5"",""22863""
","
","
","""event"",""trial"",""time""
""fullscreenenter"",""5"",""22863""
","
",NA,images/earth.jpg,NA,NA,NA,NA,NA,NA,NA,NA,NA,NA,NA,NA,NA,fixation,NA,NA,NA,NA,NA,NA,sub2
d3-animate-choice,156,715288,0.0-76.0-0.7,FALSE,TRUE,FALSE,FALSE,"""event"",""trial"",""time""
""fullscreenenter"",""5"",""22863""
","
","
","""event"",""trial"",""time""
""fullscreenenter"",""5"",""22863""
","
",465,NA,49,NA,NA,3000,1,NA,NA,images/earth.jpg,images/rocket1,images/rocket2,null,images/rocket2,NA,1,real,null,1,NA,NA,NA,sub2
d3-animate-choice,157,717585,0.0-76.0-1.7,FALSE,TRUE,FALSE,FALSE,"""event"",""trial"",""time""
""fullscreenenter"",""5"",""22863""
","
","
","""event"",""trial"",""time""
""fullscreenenter"",""5"",""22863""
","
",293.9999999998836,NA,49,NA,NA,3000,1,NA,NA,images/purpleplanet.jpg,images/alien4,images/alien3,images/rocket2,images/alien3,images/t.png,2,real,true,1,common,1,2020-06-09T20:05:06Z,sub2
two-step-fixation,158,718588,0.0-76.0-2.7,FALSE,TRUE,FALSE,FALSE,"""event"",""trial"",""time""
""fullscreenenter"",""5"",""22863""
","
","
","""event"",""trial"",""time""
""fullscreenenter"",""5"",""22863""
","
",NA,images/earth.jpg,NA,NA,NA,NA,NA,NA,NA,NA,NA,NA,NA,NA,NA,fixation,NA,NA,NA,NA,NA,NA,sub2
d3-animate-choice,159,720859,0.0-76.0-0.8,FALSE,TRUE,FALSE,FALSE,"""event"",""trial"",""time""
""fullscreenenter"",""5"",""22863""
","
","
","""event"",""trial"",""time""
""fullscreenenter"",""5"",""22863""
","
",270,NA,49,NA,NA,3000,1,NA,NA,images/earth.jpg,images/rocket1,images/rocket2,null,images/rocket2,NA,1,real,null,1,NA,NA,NA,sub2
d3-animate-choice,160,723282,0.0-76.0-1.8,FALSE,TRUE,FALSE,FALSE,"""event"",""trial"",""time""
""fullscreenenter"",""5"",""22863""
","
","
","""event"",""trial"",""time""
""fullscreenenter"",""5"",""22863""
","
",419,NA,48,NA,NA,3000,1,NA,NA,images/redplanet1.jpg,images/alien2,images/alien1,images/rocket2,images/alien2,images/t.png,2,real,false,2,rare,1,2020-06-09T20:05:12Z,sub2
two-step-fixation,161,724284,0.0-76.0-2.8,FALSE,TRUE,FALSE,FALSE,"""event"",""trial"",""time""
""fullscreenenter"",""5"",""22863""
","
","
","""event"",""trial"",""time""
""fullscreenenter"",""5"",""22863""
","
",NA,images/earth.jpg,NA,NA,NA,NA,NA,NA,NA,NA,NA,NA,NA,NA,NA,fixation,NA,NA,NA,NA,NA,NA,sub2
d3-animate-choice,162,726668,0.0-76.0-0.9,FALSE,TRUE,FALSE,FALSE,"""event"",""trial"",""time""
""fullscreenenter"",""5"",""22863""
","
","
","""event"",""trial"",""time""
""fullscreenenter"",""5"",""22863""
","
",382,NA,49,NA,NA,3000,1,NA,NA,images/earth.jpg,images/rocket1,images/rocket2,null,images/rocket2,NA,1,real,null,1,NA,NA,NA,sub2
d3-animate-choice,163,729013,0.0-76.0-1.9,FALSE,TRUE,FALSE,FALSE,"""event"",""trial"",""time""
""fullscreenenter"",""5"",""22863""
","
","
","""event"",""trial"",""time""
""fullscreenenter"",""5"",""22863""
","
",343,NA,49,NA,NA,3000,1,NA,NA,images/purpleplanet.jpg,images/alien4,images/alien3,images/rocket2,images/alien3,images/t.png,2,real,true,1,common,1,2020-06-09T20:05:18Z,sub2
two-step-fixation,164,730016,0.0-76.0-2.9,FALSE,TRUE,FALSE,FALSE,"""event"",""trial"",""time""
""fullscreenenter"",""5"",""22863""
","
","
","""event"",""trial"",""time""
""fullscreenenter"",""5"",""22863""
","
",NA,images/earth.jpg,NA,NA,NA,NA,NA,NA,NA,NA,NA,NA,NA,NA,NA,fixation,NA,NA,NA,NA,NA,NA,sub2
d3-animate-choice,165,732373,0.0-76.0-0.10,FALSE,TRUE,FALSE,FALSE,"""event"",""trial"",""time""
""fullscreenenter"",""5"",""22863""
","
","
","""event"",""trial"",""time""
""fullscreenenter"",""5"",""22863""
","
",355,NA,48,NA,NA,3000,1,NA,NA,images/earth.jpg,images/rocket1,images/rocket2,null,images/rocket1,NA,1,real,null,2,NA,NA,NA,sub2
d3-animate-choice,166,734748,0.0-76.0-1.10,FALSE,TRUE,FALSE,FALSE,"""event"",""trial"",""time""
""fullscreenenter"",""5"",""22863""
","
","
","""event"",""trial"",""time""
""fullscreenenter"",""5"",""22863""
","
",371,NA,48,NA,NA,3000,1,NA,NA,images/purpleplanet.jpg,images/alien4,images/alien3,images/rocket1,images/alien4,images/t.png,2,real,false,2,rare,1,2020-06-09T20:05:24Z,sub2
two-step-fixation,167,735750,0.0-76.0-2.10,FALSE,TRUE,FALSE,FALSE,"""event"",""trial"",""time""
""fullscreenenter"",""5"",""22863""
","
","
","""event"",""trial"",""time""
""fullscreenenter"",""5"",""22863""
","
",NA,images/earth.jpg,NA,NA,NA,NA,NA,NA,NA,NA,NA,NA,NA,NA,NA,fixation,NA,NA,NA,NA,NA,NA,sub2
d3-animate-choice,168,738148,0.0-76.0-0.11,FALSE,TRUE,FALSE,FALSE,"""event"",""trial"",""time""
""fullscreenenter"",""5"",""22863""
","
","
","""event"",""trial"",""time""
""fullscreenenter"",""5"",""22863""
","
",395,NA,48,NA,NA,3000,1,NA,NA,images/earth.jpg,images/rocket1,images/rocket2,null,images/rocket1,NA,1,real,null,2,NA,NA,NA,sub2
d3-animate-choice,169,740945,0.0-76.0-1.11,FALSE,TRUE,FALSE,FALSE,"""event"",""trial"",""time""
""fullscreenenter"",""5"",""22863""
","
","
","""event"",""trial"",""time""
""fullscreenenter"",""5"",""22863""
","
",794,NA,49,NA,NA,3000,1,NA,NA,images/redplanet1.jpg,images/alien2,images/alien1,images/rocket1,images/alien1,images/t.png,2,real,true,1,common,1,2020-06-09T20:05:30Z,sub2
two-step-fixation,170,741948,0.0-76.0-2.11,FALSE,TRUE,FALSE,FALSE,"""event"",""trial"",""time""
""fullscreenenter"",""5"",""22863""
","
","
","""event"",""trial"",""time""
""fullscreenenter"",""5"",""22863""
","
",NA,images/earth.jpg,NA,NA,NA,NA,NA,NA,NA,NA,NA,NA,NA,NA,NA,fixation,NA,NA,NA,NA,NA,NA,sub2
d3-animate-choice,171,744404,0.0-76.0-0.12,FALSE,TRUE,FALSE,FALSE,"""event"",""trial"",""time""
""fullscreenenter"",""5"",""22863""
","
","
","""event"",""trial"",""time""
""fullscreenenter"",""5"",""22863""
","
",452,NA,48,NA,NA,3000,1,NA,NA,images/earth.jpg,images/rocket1,images/rocket2,null,images/rocket1,NA,1,real,null,2,NA,NA,NA,sub2
d3-animate-choice,172,746842,0.0-76.0-1.12,FALSE,TRUE,FALSE,FALSE,"""event"",""trial"",""time""
""fullscreenenter"",""5"",""22863""
","
","
","""event"",""trial"",""time""
""fullscreenenter"",""5"",""22863""
","
",435,NA,49,NA,NA,3000,1,NA,NA,images/redplanet1.jpg,images/alien2,images/alien1,images/rocket1,images/alien1,images/t.png,2,real,true,1,common,1,2020-06-09T20:05:36Z,sub2
two-step-fixation,173,747844,0.0-76.0-2.12,FALSE,TRUE,FALSE,FALSE,"""event"",""trial"",""time""
""fullscreenenter"",""5"",""22863""
","
","
","""event"",""trial"",""time""
""fullscreenenter"",""5"",""22863""
","
",NA,images/earth.jpg,NA,NA,NA,NA,NA,NA,NA,NA,NA,NA,NA,NA,NA,fixation,NA,NA,NA,NA,NA,NA,sub2
d3-animate-choice,174,750122,0.0-76.0-0.13,FALSE,TRUE,FALSE,FALSE,"""event"",""trial"",""time""
""fullscreenenter"",""5"",""22863""
","
","
","""event"",""trial"",""time""
""fullscreenenter"",""5"",""22863""
","
",274,NA,49,NA,NA,3000,1,NA,NA,images/earth.jpg,images/rocket1,images/rocket2,null,images/rocket2,NA,1,real,null,1,NA,NA,NA,sub2
d3-animate-choice,175,752434,0.0-76.0-1.13,FALSE,TRUE,FALSE,FALSE,"""event"",""trial"",""time""
""fullscreenenter"",""5"",""22863""
","
","
","""event"",""trial"",""time""
""fullscreenenter"",""5"",""22863""
","
",308,NA,49,NA,NA,3000,1,NA,NA,images/purpleplanet.jpg,images/alien4,images/alien3,images/rocket2,images/alien3,images/nothing.png,2,real,true,1,common,0,2020-06-09T20:05:41Z,sub2
two-step-fixation,176,753436,0.0-76.0-2.13,FALSE,TRUE,FALSE,FALSE,"""event"",""trial"",""time""
""fullscreenenter"",""5"",""22863""
","
","
","""event"",""trial"",""time""
""fullscreenenter"",""5"",""22863""
","
",NA,images/earth.jpg,NA,NA,NA,NA,NA,NA,NA,NA,NA,NA,NA,NA,NA,fixation,NA,NA,NA,NA,NA,NA,sub2
d3-animate-choice,177,755770,0.0-76.0-0.14,FALSE,TRUE,FALSE,FALSE,"""event"",""trial"",""time""
""fullscreenenter"",""5"",""22863""
","
","
","""event"",""trial"",""time""
""fullscreenenter"",""5"",""22863""
","
",331,NA,48,NA,NA,3000,1,NA,NA,images/earth.jpg,images/rocket1,images/rocket2,null,images/rocket1,NA,1,real,null,2,NA,NA,NA,sub2
d3-animate-choice,178,758170,0.0-76.0-1.14,FALSE,TRUE,FALSE,FALSE,"""event"",""trial"",""time""
""fullscreenenter"",""5"",""22863""
","
","
","""event"",""trial"",""time""
""fullscreenenter"",""5"",""22863""
","
",395.9999999998836,NA,49,NA,NA,3000,1,NA,NA,images/redplanet1.jpg,images/alien2,images/alien1,images/rocket1,images/alien1,images/t.png,2,real,true,1,common,1,2020-06-09T20:05:47Z,sub2
two-step-fixation,179,759173,0.0-76.0-2.14,FALSE,TRUE,FALSE,FALSE,"""event"",""trial"",""time""
""fullscreenenter"",""5"",""22863""
","
","
","""event"",""trial"",""time""
""fullscreenenter"",""5"",""22863""
","
",NA,images/earth.jpg,NA,NA,NA,NA,NA,NA,NA,NA,NA,NA,NA,NA,NA,fixation,NA,NA,NA,NA,NA,NA,sub2
d3-animate-choice,180,761542,0.0-76.0-0.15,FALSE,TRUE,FALSE,FALSE,"""event"",""trial"",""time""
""fullscreenenter"",""5"",""22863""
","
","
","""event"",""trial"",""time""
""fullscreenenter"",""5"",""22863""
","
",366.0000000001164,NA,48,NA,NA,3000,1,NA,NA,images/earth.jpg,images/rocket1,images/rocket2,null,images/rocket1,NA,1,real,null,2,NA,NA,NA,sub2
d3-animate-choice,181,763932,0.0-76.0-1.15,FALSE,TRUE,FALSE,FALSE,"""event"",""trial"",""time""
""fullscreenenter"",""5"",""22863""
","
","
","""event"",""trial"",""time""
""fullscreenenter"",""5"",""22863""
","
",387,NA,49,NA,NA,3000,1,NA,NA,images/redplanet1.jpg,images/alien2,images/alien1,images/rocket1,images/alien1,images/t.png,2,real,true,1,common,1,2020-06-09T20:05:53Z,sub2
two-step-fixation,182,764933,0.0-76.0-2.15,FALSE,TRUE,FALSE,FALSE,"""event"",""trial"",""time""
""fullscreenenter"",""5"",""22863""
","
","
","""event"",""trial"",""time""
""fullscreenenter"",""5"",""22863""
","
",NA,images/earth.jpg,NA,NA,NA,NA,NA,NA,NA,NA,NA,NA,NA,NA,NA,fixation,NA,NA,NA,NA,NA,NA,sub2
d3-animate-choice,183,767211,0.0-76.0-0.16,FALSE,TRUE,FALSE,FALSE,"""event"",""trial"",""time""
""fullscreenenter"",""5"",""22863""
","
","
","""event"",""trial"",""time""
""fullscreenenter"",""5"",""22863""
","
",274,NA,48,NA,NA,3000,1,NA,NA,images/earth.jpg,images/rocket1,images/rocket2,null,images/rocket1,NA,1,real,null,2,NA,NA,NA,sub2
d3-animate-choice,184,769636,0.0-76.0-1.16,FALSE,TRUE,FALSE,FALSE,"""event"",""trial"",""time""
""fullscreenenter"",""5"",""22863""
","
","
","""event"",""trial"",""time""
""fullscreenenter"",""5"",""22863""
","
",422,NA,49,NA,NA,3000,1,NA,NA,images/redplanet1.jpg,images/alien2,images/alien1,images/rocket1,images/alien1,images/t.png,2,real,true,1,common,1,2020-06-09T20:05:58Z,sub2
two-step-fixation,185,770638,0.0-76.0-2.16,FALSE,TRUE,FALSE,FALSE,"""event"",""trial"",""time""
""fullscreenenter"",""5"",""22863""
","
","
","""event"",""trial"",""time""
""fullscreenenter"",""5"",""22863""
","
",NA,images/earth.jpg,NA,NA,NA,NA,NA,NA,NA,NA,NA,NA,NA,NA,NA,fixation,NA,NA,NA,NA,NA,NA,sub2
d3-animate-choice,186,772962,0.0-76.0-0.17,FALSE,TRUE,FALSE,FALSE,"""event"",""trial"",""time""
""fullscreenenter"",""5"",""22863""
","
","
","""event"",""trial"",""time""
""fullscreenenter"",""5"",""22863""
","
",322,NA,48,NA,NA,3000,1,NA,NA,images/earth.jpg,images/rocket1,images/rocket2,null,images/rocket1,NA,1,real,null,2,NA,NA,NA,sub2
d3-animate-choice,187,775944,0.0-76.0-1.17,FALSE,TRUE,FALSE,FALSE,"""event"",""trial"",""time""
""fullscreenenter"",""5"",""22863""
","
","
","""event"",""trial"",""time""
""fullscreenenter"",""5"",""22863""
","
",979,NA,49,NA,NA,3000,1,NA,NA,images/purpleplanet.jpg,images/alien4,images/alien3,images/rocket1,images/alien3,images/t.png,2,real,false,1,rare,1,2020-06-09T20:06:05Z,sub2
two-step-fixation,188,776947,0.0-76.0-2.17,FALSE,TRUE,FALSE,FALSE,"""event"",""trial"",""time""
""fullscreenenter"",""5"",""22863""
","
","
","""event"",""trial"",""time""
""fullscreenenter"",""5"",""22863""
","
",NA,images/earth.jpg,NA,NA,NA,NA,NA,NA,NA,NA,NA,NA,NA,NA,NA,fixation,NA,NA,NA,NA,NA,NA,sub2
d3-animate-choice,189,779631,0.0-76.0-0.18,FALSE,TRUE,FALSE,FALSE,"""event"",""trial"",""time""
""fullscreenenter"",""5"",""22863""
","
","
","""event"",""trial"",""time""
""fullscreenenter"",""5"",""22863""
","
",680,NA,48,NA,NA,3000,1,NA,NA,images/earth.jpg,images/rocket1,images/rocket2,null,images/rocket1,NA,1,real,null,2,NA,NA,NA,sub2
d3-animate-choice,190,782252,0.0-76.0-1.18,FALSE,TRUE,FALSE,FALSE,"""event"",""trial"",""time""
""fullscreenenter"",""5"",""22863""
","
","
","""event"",""trial"",""time""
""fullscreenenter"",""5"",""22863""
","
",618,NA,48,NA,NA,3000,1,NA,NA,images/redplanet1.jpg,images/alien2,images/alien1,images/rocket1,images/alien2,images/t.png,2,real,true,2,common,1,2020-06-09T20:06:11Z,sub2
two-step-fixation,191,783254,0.0-76.0-2.18,FALSE,TRUE,FALSE,FALSE,"""event"",""trial"",""time""
""fullscreenenter"",""5"",""22863""
","
","
","""event"",""trial"",""time""
""fullscreenenter"",""5"",""22863""
","
",NA,images/earth.jpg,NA,NA,NA,NA,NA,NA,NA,NA,NA,NA,NA,NA,NA,fixation,NA,NA,NA,NA,NA,NA,sub2
d3-animate-choice,192,785794,0.0-76.0-0.19,FALSE,TRUE,FALSE,FALSE,"""event"",""trial"",""time""
""fullscreenenter"",""5"",""22863""
","
","
","""event"",""trial"",""time""
""fullscreenenter"",""5"",""22863""
","
",536,NA,48,NA,NA,3000,1,NA,NA,images/earth.jpg,images/rocket1,images/rocket2,null,images/rocket1,NA,1,real,null,2,NA,NA,NA,sub2
d3-animate-choice,193,788575,0.0-76.0-1.19,FALSE,TRUE,FALSE,FALSE,"""event"",""trial"",""time""
""fullscreenenter"",""5"",""22863""
","
","
","""event"",""trial"",""time""
""fullscreenenter"",""5"",""22863""
","
",776.9999999998836,NA,48,NA,NA,3000,1,NA,NA,images/purpleplanet.jpg,images/alien4,images/alien3,images/rocket1,images/alien4,images/nothing.png,2,real,false,2,rare,0,2020-06-09T20:06:17Z,sub2
two-step-fixation,194,789577,0.0-76.0-2.19,FALSE,TRUE,FALSE,FALSE,"""event"",""trial"",""time""
""fullscreenenter"",""5"",""22863""
","
","
","""event"",""trial"",""time""
""fullscreenenter"",""5"",""22863""
","
",NA,images/earth.jpg,NA,NA,NA,NA,NA,NA,NA,NA,NA,NA,NA,NA,NA,fixation,NA,NA,NA,NA,NA,NA,sub2
d3-animate-choice,195,792095,0.0-76.0-0.20,FALSE,TRUE,FALSE,FALSE,"""event"",""trial"",""time""
""fullscreenenter"",""5"",""22863""
","
","
","""event"",""trial"",""time""
""fullscreenenter"",""5"",""22863""
","
",514,NA,48,NA,NA,3000,1,NA,NA,images/earth.jpg,images/rocket1,images/rocket2,null,images/rocket1,NA,1,real,null,2,NA,NA,NA,sub2
d3-animate-choice,196,794876,0.0-76.0-1.20,FALSE,TRUE,FALSE,FALSE,"""event"",""trial"",""time""
""fullscreenenter"",""5"",""22863""
","
","
","""event"",""trial"",""time""
""fullscreenenter"",""5"",""22863""
","
",778,NA,49,NA,NA,3000,1,NA,NA,images/redplanet1.jpg,images/alien2,images/alien1,images/rocket1,images/alien1,images/t.png,2,real,true,1,common,1,2020-06-09T20:06:24Z,sub2
two-step-fixation,197,795879,0.0-76.0-2.20,FALSE,TRUE,FALSE,FALSE,"""event"",""trial"",""time""
""fullscreenenter"",""5"",""22863""
","
","
","""event"",""trial"",""time""
""fullscreenenter"",""5"",""22863""
","
",NA,images/earth.jpg,NA,NA,NA,NA,NA,NA,NA,NA,NA,NA,NA,NA,NA,fixation,NA,NA,NA,NA,NA,NA,sub2
d3-animate-choice,198,798309,0.0-76.0-0.21,FALSE,TRUE,FALSE,FALSE,"""event"",""trial"",""time""
""fullscreenenter"",""5"",""22863""
","
","
","""event"",""trial"",""time""
""fullscreenenter"",""5"",""22863""
","
",427,NA,49,NA,NA,3000,1,NA,NA,images/earth.jpg,images/rocket1,images/rocket2,null,images/rocket2,NA,1,real,null,1,NA,NA,NA,sub2
d3-animate-choice,199,800741,0.0-76.0-1.21,FALSE,TRUE,FALSE,FALSE,"""event"",""trial"",""time""
""fullscreenenter"",""5"",""22863""
","
","
","""event"",""trial"",""time""
""fullscreenenter"",""5"",""22863""
","
",429,NA,49,NA,NA,3000,1,NA,NA,images/purpleplanet.jpg,images/alien4,images/alien3,images/rocket2,images/alien3,images/t.png,2,real,true,1,common,1,2020-06-09T20:06:29Z,sub2
two-step-fixation,200,801744,0.0-76.0-2.21,FALSE,TRUE,FALSE,FALSE,"""event"",""trial"",""time""
""fullscreenenter"",""5"",""22863""
","
","
","""event"",""trial"",""time""
""fullscreenenter"",""5"",""22863""
","
",NA,images/earth.jpg,NA,NA,NA,NA,NA,NA,NA,NA,NA,NA,NA,NA,NA,fixation,NA,NA,NA,NA,NA,NA,sub2
d3-animate-choice,201,804055,0.0-76.0-0.22,FALSE,TRUE,FALSE,FALSE,"""event"",""trial"",""time""
""fullscreenenter"",""5"",""22863""
","
","
","""event"",""trial"",""time""
""fullscreenenter"",""5"",""22863""
","
",308,NA,49,NA,NA,3000,1,NA,NA,images/earth.jpg,images/rocket1,images/rocket2,null,images/rocket2,NA,1,real,null,1,NA,NA,NA,sub2
d3-animate-choice,202,806455,0.0-76.0-1.22,FALSE,TRUE,FALSE,FALSE,"""event"",""trial"",""time""
""fullscreenenter"",""5"",""22863""
","
","
","""event"",""trial"",""time""
""fullscreenenter"",""5"",""22863""
","
",396,NA,48,NA,NA,3000,1,NA,NA,images/purpleplanet.jpg,images/alien4,images/alien3,images/rocket2,images/alien4,images/nothing.png,2,real,true,2,common,0,2020-06-09T20:06:35Z,sub2
two-step-fixation,203,807458,0.0-76.0-2.22,FALSE,TRUE,FALSE,FALSE,"""event"",""trial"",""time""
""fullscreenenter"",""5"",""22863""
","
","
","""event"",""trial"",""time""
""fullscreenenter"",""5"",""22863""
","
",NA,images/earth.jpg,NA,NA,NA,NA,NA,NA,NA,NA,NA,NA,NA,NA,NA,fixation,NA,NA,NA,NA,NA,NA,sub2
d3-animate-choice,204,809791,0.0-76.0-0.23,FALSE,TRUE,FALSE,FALSE,"""event"",""trial"",""time""
""fullscreenenter"",""5"",""22863""
","
","
","""event"",""trial"",""time""
""fullscreenenter"",""5"",""22863""
","
",330,NA,49,NA,NA,3000,1,NA,NA,images/earth.jpg,images/rocket1,images/rocket2,null,images/rocket2,NA,1,real,null,1,NA,NA,NA,sub2
d3-animate-choice,205,812197,0.0-76.0-1.23,FALSE,TRUE,FALSE,FALSE,"""event"",""trial"",""time""
""fullscreenenter"",""5"",""22863""
","
","
","""event"",""trial"",""time""
""fullscreenenter"",""5"",""22863""
","
",404,NA,49,NA,NA,3000,1,NA,NA,images/purpleplanet.jpg,images/alien4,images/alien3,images/rocket2,images/alien3,images/nothing.png,2,real,true,1,common,0,2020-06-09T20:06:41Z,sub2
two-step-fixation,206,813199,0.0-76.0-2.23,FALSE,TRUE,FALSE,FALSE,"""event"",""trial"",""time""
""fullscreenenter"",""5"",""22863""
","
","
","""event"",""trial"",""time""
""fullscreenenter"",""5"",""22863""
","
",NA,images/earth.jpg,NA,NA,NA,NA,NA,NA,NA,NA,NA,NA,NA,NA,NA,fixation,NA,NA,NA,NA,NA,NA,sub2
d3-animate-choice,207,815482,0.0-76.0-0.24,FALSE,TRUE,FALSE,FALSE,"""event"",""trial"",""time""
""fullscreenenter"",""5"",""22863""
","
","
","""event"",""trial"",""time""
""fullscreenenter"",""5"",""22863""
","
",279.9999999998836,NA,48,NA,NA,3000,1,NA,NA,images/earth.jpg,images/rocket1,images/rocket2,null,images/rocket1,NA,1,real,null,2,NA,NA,NA,sub2
d3-animate-choice,208,818124,0.0-76.0-1.24,FALSE,TRUE,FALSE,FALSE,"""event"",""trial"",""time""
""fullscreenenter"",""5"",""22863""
","
","
","""event"",""trial"",""time""
""fullscreenenter"",""5"",""22863""
","
",638,NA,49,NA,NA,3000,1,NA,NA,images/purpleplanet.jpg,images/alien4,images/alien3,images/rocket1,images/alien3,images/nothing.png,2,real,false,1,rare,0,2020-06-09T20:06:47Z,sub2
two-step-fixation,209,819127,0.0-76.0-2.24,FALSE,TRUE,FALSE,FALSE,"""event"",""trial"",""time""
""fullscreenenter"",""5"",""22863""
","
","
","""event"",""trial"",""time""
""fullscreenenter"",""5"",""22863""
","
",NA,images/earth.jpg,NA,NA,NA,NA,NA,NA,NA,NA,NA,NA,NA,NA,NA,fixation,NA,NA,NA,NA,NA,NA,sub2
d3-animate-choice,210,821437,0.0-76.0-0.25,FALSE,TRUE,FALSE,FALSE,"""event"",""trial"",""time""
""fullscreenenter"",""5"",""22863""
","
","
","""event"",""trial"",""time""
""fullscreenenter"",""5"",""22863""
","
",308,NA,48,NA,NA,3000,1,NA,NA,images/earth.jpg,images/rocket1,images/rocket2,null,images/rocket1,NA,1,real,null,2,NA,NA,NA,sub2
d3-animate-choice,211,823802,0.0-76.0-1.25,FALSE,TRUE,FALSE,FALSE,"""event"",""trial"",""time""
""fullscreenenter"",""5"",""22863""
","
","
","""event"",""trial"",""time""
""fullscreenenter"",""5"",""22863""
","
",362,NA,49,NA,NA,3000,1,NA,NA,images/purpleplanet.jpg,images/alien4,images/alien3,images/rocket1,images/alien3,images/t.png,2,real,false,1,rare,1,2020-06-09T20:06:53Z,sub2
two-step-fixation,212,824805,0.0-76.0-2.25,FALSE,TRUE,FALSE,FALSE,"""event"",""trial"",""time""
""fullscreenenter"",""5"",""22863""
","
","
","""event"",""trial"",""time""
""fullscreenenter"",""5"",""22863""
","
",NA,images/earth.jpg,NA,NA,NA,NA,NA,NA,NA,NA,NA,NA,NA,NA,NA,fixation,NA,NA,NA,NA,NA,NA,sub2
d3-animate-choice,213,827260,0.0-76.0-0.26,FALSE,TRUE,FALSE,FALSE,"""event"",""trial"",""time""
""fullscreenenter"",""5"",""22863""
","
","
","""event"",""trial"",""time""
""fullscreenenter"",""5"",""22863""
","
",452,NA,48,NA,NA,3000,1,NA,NA,images/earth.jpg,images/rocket1,images/rocket2,null,images/rocket1,NA,1,real,null,2,NA,NA,NA,sub2
d3-animate-choice,214,829823,0.0-76.0-1.26,FALSE,TRUE,FALSE,FALSE,"""event"",""trial"",""time""
""fullscreenenter"",""5"",""22863""
","
","
","""event"",""trial"",""time""
""fullscreenenter"",""5"",""22863""
","
",560,NA,49,NA,NA,3000,1,NA,NA,images/redplanet1.jpg,images/alien2,images/alien1,images/rocket1,images/alien1,images/t.png,2,real,true,1,common,1,2020-06-09T20:06:59Z,sub2
two-step-fixation,215,830826,0.0-76.0-2.26,FALSE,TRUE,FALSE,FALSE,"""event"",""trial"",""time""
""fullscreenenter"",""5"",""22863""
","
","
","""event"",""trial"",""time""
""fullscreenenter"",""5"",""22863""
","
",NA,images/earth.jpg,NA,NA,NA,NA,NA,NA,NA,NA,NA,NA,NA,NA,NA,fixation,NA,NA,NA,NA,NA,NA,sub2
d3-animate-choice,216,833251,0.0-76.0-0.27,FALSE,TRUE,FALSE,FALSE,"""event"",""trial"",""time""
""fullscreenenter"",""5"",""22863""
","
","
","""event"",""trial"",""time""
""fullscreenenter"",""5"",""22863""
","
",421.0000000001164,NA,48,NA,NA,3000,1,NA,NA,images/earth.jpg,images/rocket1,images/rocket2,null,images/rocket1,NA,1,real,null,2,NA,NA,NA,sub2
d3-animate-choice,217,835723,0.0-76.0-1.27,FALSE,TRUE,FALSE,FALSE,"""event"",""trial"",""time""
""fullscreenenter"",""5"",""22863""
","
","
","""event"",""trial"",""time""
""fullscreenenter"",""5"",""22863""
","
",469,NA,49,NA,NA,3000,1,NA,NA,images/redplanet1.jpg,images/alien2,images/alien1,images/rocket1,images/alien1,images/nothing.png,2,real,true,1,common,0,2020-06-09T20:07:04Z,sub2
two-step-fixation,218,836726,0.0-76.0-2.27,FALSE,TRUE,FALSE,FALSE,"""event"",""trial"",""time""
""fullscreenenter"",""5"",""22863""
","
","
","""event"",""trial"",""time""
""fullscreenenter"",""5"",""22863""
","
",NA,images/earth.jpg,NA,NA,NA,NA,NA,NA,NA,NA,NA,NA,NA,NA,NA,fixation,NA,NA,NA,NA,NA,NA,sub2
d3-animate-choice,219,839209,0.0-76.0-0.28,FALSE,TRUE,FALSE,FALSE,"""event"",""trial"",""time""
""fullscreenenter"",""5"",""22863""
","
","
","""event"",""trial"",""time""
""fullscreenenter"",""5"",""22863""
","
",480,NA,48,NA,NA,3000,1,NA,NA,images/earth.jpg,images/rocket1,images/rocket2,null,images/rocket1,NA,1,real,null,2,NA,NA,NA,sub2
d3-animate-choice,220,841806,0.0-76.0-1.28,FALSE,TRUE,FALSE,FALSE,"""event"",""trial"",""time""
""fullscreenenter"",""5"",""22863""
","
","
","""event"",""trial"",""time""
""fullscreenenter"",""5"",""22863""
","
",595,NA,48,NA,NA,3000,1,NA,NA,images/purpleplanet.jpg,images/alien4,images/alien3,images/rocket1,images/alien4,images/t.png,2,real,false,2,rare,1,2020-06-09T20:07:11Z,sub2
two-step-fixation,221,842809,0.0-76.0-2.28,FALSE,TRUE,FALSE,FALSE,"""event"",""trial"",""time""
""fullscreenenter"",""5"",""22863""
","
","
","""event"",""trial"",""time""
""fullscreenenter"",""5"",""22863""
","
",NA,images/earth.jpg,NA,NA,NA,NA,NA,NA,NA,NA,NA,NA,NA,NA,NA,fixation,NA,NA,NA,NA,NA,NA,sub2
d3-animate-choice,222,845263,0.0-76.0-0.29,FALSE,TRUE,FALSE,FALSE,"""event"",""trial"",""time""
""fullscreenenter"",""5"",""22863""
","
","
","""event"",""trial"",""time""
""fullscreenenter"",""5"",""22863""
","
",452,NA,48,NA,NA,3000,1,NA,NA,images/earth.jpg,images/rocket1,images/rocket2,null,images/rocket1,NA,1,real,null,2,NA,NA,NA,sub2
d3-animate-choice,223,847711,0.0-76.0-1.29,FALSE,TRUE,FALSE,FALSE,"""event"",""trial"",""time""
""fullscreenenter"",""5"",""22863""
","
","
","""event"",""trial"",""time""
""fullscreenenter"",""5"",""22863""
","
",445,NA,49,NA,NA,3000,1,NA,NA,images/redplanet1.jpg,images/alien2,images/alien1,images/rocket1,images/alien1,images/nothing.png,2,real,true,1,common,0,2020-06-09T20:07:16Z,sub2
two-step-fixation,224,848714,0.0-76.0-2.29,FALSE,TRUE,FALSE,FALSE,"""event"",""trial"",""time""
""fullscreenenter"",""5"",""22863""
","
","
","""event"",""trial"",""time""
""fullscreenenter"",""5"",""22863""
","
",NA,images/earth.jpg,NA,NA,NA,NA,NA,NA,NA,NA,NA,NA,NA,NA,NA,fixation,NA,NA,NA,NA,NA,NA,sub2
d3-animate-choice,225,851191,0.0-76.0-0.30,FALSE,TRUE,FALSE,FALSE,"""event"",""trial"",""time""
""fullscreenenter"",""5"",""22863""
","
","
","""event"",""trial"",""time""
""fullscreenenter"",""5"",""22863""
","
",473.9999999998836,NA,49,NA,NA,3000,1,NA,NA,images/earth.jpg,images/rocket1,images/rocket2,null,images/rocket2,NA,1,real,null,1,NA,NA,NA,sub2
d3-animate-choice,226,853646,0.0-76.0-1.30,FALSE,TRUE,FALSE,FALSE,"""event"",""trial"",""time""
""fullscreenenter"",""5"",""22863""
","
","
","""event"",""trial"",""time""
""fullscreenenter"",""5"",""22863""
","
",452,NA,48,NA,NA,3000,1,NA,NA,images/purpleplanet.jpg,images/alien4,images/alien3,images/rocket2,images/alien4,images/t.png,2,real,true,2,common,1,2020-06-09T20:07:22Z,sub2
two-step-fixation,227,854649,0.0-76.0-2.30,FALSE,TRUE,FALSE,FALSE,"""event"",""trial"",""time""
""fullscreenenter"",""5"",""22863""
","
","
","""event"",""trial"",""time""
""fullscreenenter"",""5"",""22863""
","
",NA,images/earth.jpg,NA,NA,NA,NA,NA,NA,NA,NA,NA,NA,NA,NA,NA,fixation,NA,NA,NA,NA,NA,NA,sub2
d3-animate-choice,228,857105,0.0-76.0-0.31,FALSE,TRUE,FALSE,FALSE,"""event"",""trial"",""time""
""fullscreenenter"",""5"",""22863""
","
","
","""event"",""trial"",""time""
""fullscreenenter"",""5"",""22863""
","
",453,NA,49,NA,NA,3000,1,NA,NA,images/earth.jpg,images/rocket1,images/rocket2,null,images/rocket2,NA,1,real,null,1,NA,NA,NA,sub2
d3-animate-choice,229,859484,0.0-76.0-1.31,FALSE,TRUE,FALSE,FALSE,"""event"",""trial"",""time""
""fullscreenenter"",""5"",""22863""
","
","
","""event"",""trial"",""time""
""fullscreenenter"",""5"",""22863""
","
",377,NA,48,NA,NA,3000,1,NA,NA,images/purpleplanet.jpg,images/alien4,images/alien3,images/rocket2,images/alien4,images/t.png,2,real,true,2,common,1,2020-06-09T20:07:28Z,sub2
two-step-fixation,230,860487,0.0-76.0-2.31,FALSE,TRUE,FALSE,FALSE,"""event"",""trial"",""time""
""fullscreenenter"",""5"",""22863""
","
","
","""event"",""trial"",""time""
""fullscreenenter"",""5"",""22863""
","
",NA,images/earth.jpg,NA,NA,NA,NA,NA,NA,NA,NA,NA,NA,NA,NA,NA,fixation,NA,NA,NA,NA,NA,NA,sub2
d3-animate-choice,231,863124,0.0-76.0-0.32,FALSE,TRUE,FALSE,FALSE,"""event"",""trial"",""time""
""fullscreenenter"",""5"",""22863""
","
","
","""event"",""trial"",""time""
""fullscreenenter"",""5"",""22863""
","
",634,NA,49,NA,NA,3000,1,NA,NA,images/earth.jpg,images/rocket1,images/rocket2,null,images/rocket2,NA,1,real,null,1,NA,NA,NA,sub2
d3-animate-choice,232,865520,0.0-76.0-1.32,FALSE,TRUE,FALSE,FALSE,"""event"",""trial"",""time""
""fullscreenenter"",""5"",""22863""
","
","
","""event"",""trial"",""time""
""fullscreenenter"",""5"",""22863""
","
",393.0000000001164,NA,48,NA,NA,3000,1,NA,NA,images/purpleplanet.jpg,images/alien4,images/alien3,images/rocket2,images/alien4,images/t.png,2,real,true,2,common,1,2020-06-09T20:07:34Z,sub2
two-step-fixation,233,866522,0.0-76.0-2.32,FALSE,TRUE,FALSE,FALSE,"""event"",""trial"",""time""
""fullscreenenter"",""5"",""22863""
","
","
","""event"",""trial"",""time""
""fullscreenenter"",""5"",""22863""
","
",NA,images/earth.jpg,NA,NA,NA,NA,NA,NA,NA,NA,NA,NA,NA,NA,NA,fixation,NA,NA,NA,NA,NA,NA,sub2
d3-animate-choice,234,869008,0.0-76.0-0.33,FALSE,TRUE,FALSE,FALSE,"""event"",""trial"",""time""
""fullscreenenter"",""5"",""22863""
","
","
","""event"",""trial"",""time""
""fullscreenenter"",""5"",""22863""
","
",483,NA,49,NA,NA,3000,1,NA,NA,images/earth.jpg,images/rocket1,images/rocket2,null,images/rocket2,NA,1,real,null,1,NA,NA,NA,sub2
d3-animate-choice,235,871624,0.0-76.0-1.33,FALSE,TRUE,FALSE,FALSE,"""event"",""trial"",""time""
""fullscreenenter"",""5"",""22863""
","
","
","""event"",""trial"",""time""
""fullscreenenter"",""5"",""22863""
","
",613,NA,48,NA,NA,3000,1,NA,NA,images/purpleplanet.jpg,images/alien4,images/alien3,images/rocket2,images/alien4,images/nothing.png,2,real,true,2,common,0,2020-06-09T20:07:40Z,sub2
two-step-fixation,236,872626,0.0-76.0-2.33,FALSE,TRUE,FALSE,FALSE,"""event"",""trial"",""time""
""fullscreenenter"",""5"",""22863""
","
","
","""event"",""trial"",""time""
""fullscreenenter"",""5"",""22863""
","
",NA,images/earth.jpg,NA,NA,NA,NA,NA,NA,NA,NA,NA,NA,NA,NA,NA,fixation,NA,NA,NA,NA,NA,NA,sub2
d3-animate-choice,237,875000,0.0-76.0-0.34,FALSE,TRUE,FALSE,FALSE,"""event"",""trial"",""time""
""fullscreenenter"",""5"",""22863""
","
","
","""event"",""trial"",""time""
""fullscreenenter"",""5"",""22863""
","
",371,NA,48,NA,NA,3000,1,NA,NA,images/earth.jpg,images/rocket1,images/rocket2,null,images/rocket1,NA,1,real,null,2,NA,NA,NA,sub2
d3-animate-choice,238,877762,0.0-76.0-1.34,FALSE,TRUE,FALSE,FALSE,"""event"",""trial"",""time""
""fullscreenenter"",""5"",""22863""
","
","
","""event"",""trial"",""time""
""fullscreenenter"",""5"",""22863""
","
",759,NA,49,NA,NA,3000,1,NA,NA,images/redplanet1.jpg,images/alien2,images/alien1,images/rocket1,images/alien1,images/t.png,2,real,true,1,common,1,2020-06-09T20:07:47Z,sub2
two-step-fixation,239,878764,0.0-76.0-2.34,FALSE,TRUE,FALSE,FALSE,"""event"",""trial"",""time""
""fullscreenenter"",""5"",""22863""
","
","
","""event"",""trial"",""time""
""fullscreenenter"",""5"",""22863""
","
",NA,images/earth.jpg,NA,NA,NA,NA,NA,NA,NA,NA,NA,NA,NA,NA,NA,fixation,NA,NA,NA,NA,NA,NA,sub2
d3-animate-choice,240,881179,0.0-76.0-0.35,FALSE,TRUE,FALSE,FALSE,"""event"",""trial"",""time""
""fullscreenenter"",""5"",""22863""
","
","
","""event"",""trial"",""time""
""fullscreenenter"",""5"",""22863""
","
",411,NA,48,NA,NA,3000,1,NA,NA,images/earth.jpg,images/rocket1,images/rocket2,null,images/rocket1,NA,1,real,null,2,NA,NA,NA,sub2
d3-animate-choice,241,883660,0.0-76.0-1.35,FALSE,TRUE,FALSE,FALSE,"""event"",""trial"",""time""
""fullscreenenter"",""5"",""22863""
","
","
","""event"",""trial"",""time""
""fullscreenenter"",""5"",""22863""
","
",478,NA,48,NA,NA,3000,1,NA,NA,images/redplanet1.jpg,images/alien2,images/alien1,images/rocket1,images/alien2,images/t.png,2,real,true,2,common,1,2020-06-09T20:07:52Z,sub2
two-step-fixation,242,884663,0.0-76.0-2.35,FALSE,TRUE,FALSE,FALSE,"""event"",""trial"",""time""
""fullscreenenter"",""5"",""22863""
","
","
","""event"",""trial"",""time""
""fullscreenenter"",""5"",""22863""
","
",NA,images/earth.jpg,NA,NA,NA,NA,NA,NA,NA,NA,NA,NA,NA,NA,NA,fixation,NA,NA,NA,NA,NA,NA,sub2
d3-animate-choice,243,887125,0.0-76.0-0.36,FALSE,TRUE,FALSE,FALSE,"""event"",""trial"",""time""
""fullscreenenter"",""5"",""22863""
","
","
","""event"",""trial"",""time""
""fullscreenenter"",""5"",""22863""
","
",458,NA,48,NA,NA,3000,1,NA,NA,images/earth.jpg,images/rocket1,images/rocket2,null,images/rocket1,NA,1,real,null,2,NA,NA,NA,sub2
d3-animate-choice,244,889594,0.0-76.0-1.36,FALSE,TRUE,FALSE,FALSE,"""event"",""trial"",""time""
""fullscreenenter"",""5"",""22863""
","
","
","""event"",""trial"",""time""
""fullscreenenter"",""5"",""22863""
","
",468,NA,48,NA,NA,3000,1,NA,NA,images/redplanet1.jpg,images/alien2,images/alien1,images/rocket1,images/alien2,images/nothing.png,2,real,true,2,common,0,2020-06-09T20:07:58Z,sub2
two-step-fixation,245,890596,0.0-76.0-2.36,FALSE,TRUE,FALSE,FALSE,"""event"",""trial"",""time""
""fullscreenenter"",""5"",""22863""
","
","
","""event"",""trial"",""time""
""fullscreenenter"",""5"",""22863""
","
",NA,images/earth.jpg,NA,NA,NA,NA,NA,NA,NA,NA,NA,NA,NA,NA,NA,fixation,NA,NA,NA,NA,NA,NA,sub2
d3-animate-choice,246,893069,0.0-76.0-0.37,FALSE,TRUE,FALSE,FALSE,"""event"",""trial"",""time""
""fullscreenenter"",""5"",""22863""
","
","
","""event"",""trial"",""time""
""fullscreenenter"",""5"",""22863""
","
",471,NA,49,NA,NA,3000,1,NA,NA,images/earth.jpg,images/rocket1,images/rocket2,null,images/rocket2,NA,1,real,null,1,NA,NA,NA,sub2
d3-animate-choice,247,895446,0.0-76.0-1.37,FALSE,TRUE,FALSE,FALSE,"""event"",""trial"",""time""
""fullscreenenter"",""5"",""22863""
","
","
","""event"",""trial"",""time""
""fullscreenenter"",""5"",""22863""
","
",373,NA,48,NA,NA,3000,1,2199,49,images/purpleplanet.jpg,images/alien4,images/alien3,images/rocket2,images/alien4,images/nothing.png,2,real,true,2,common,0,2020-06-09T20:08:04Z,sub2
two-step-fixation,248,896449,0.0-76.0-2.37,FALSE,TRUE,FALSE,FALSE,"""event"",""trial"",""time""
""fullscreenenter"",""5"",""22863""
","
","
","""event"",""trial"",""time""
""fullscreenenter"",""5"",""22863""
","
",NA,images/earth.jpg,NA,NA,NA,NA,NA,NA,NA,NA,NA,NA,NA,NA,NA,fixation,NA,NA,NA,NA,NA,NA,sub2
d3-animate-choice,249,898827,0.0-76.0-0.38,FALSE,TRUE,FALSE,FALSE,"""event"",""trial"",""time""
""fullscreenenter"",""5"",""22863""
","
","
","""event"",""trial"",""time""
""fullscreenenter"",""5"",""22863""
","
",375,NA,48,NA,NA,3000,1,NA,NA,images/earth.jpg,images/rocket1,images/rocket2,null,images/rocket1,NA,1,real,null,2,NA,NA,NA,sub2
d3-animate-choice,250,901210,0.0-76.0-1.38,FALSE,TRUE,FALSE,FALSE,"""event"",""trial"",""time""
""fullscreenenter"",""5"",""22863""
","
","
","""event"",""trial"",""time""
""fullscreenenter"",""5"",""22863""
","
",381,NA,49,NA,NA,3000,1,NA,NA,images/redplanet1.jpg,images/alien2,images/alien1,images/rocket1,images/alien1,images/t.png,2,real,true,1,common,1,2020-06-09T20:08:10Z,sub2
two-step-fixation,251,902213,0.0-76.0-2.38,FALSE,TRUE,FALSE,FALSE,"""event"",""trial"",""time""
""fullscreenenter"",""5"",""22863""
","
","
","""event"",""trial"",""time""
""fullscreenenter"",""5"",""22863""
","
",NA,images/earth.jpg,NA,NA,NA,NA,NA,NA,NA,NA,NA,NA,NA,NA,NA,fixation,NA,NA,NA,NA,NA,NA,sub2
d3-animate-choice,252,904595,0.0-76.0-0.39,FALSE,TRUE,FALSE,FALSE,"""event"",""trial"",""time""
""fullscreenenter"",""5"",""22863""
","
","
","""event"",""trial"",""time""
""fullscreenenter"",""5"",""22863""
","
",378,NA,48,NA,NA,3000,1,NA,NA,images/earth.jpg,images/rocket1,images/rocket2,null,images/rocket1,NA,1,real,null,2,NA,NA,NA,sub2
d3-animate-choice,253,907074,0.0-76.0-1.39,FALSE,TRUE,FALSE,FALSE,"""event"",""trial"",""time""
""fullscreenenter"",""5"",""22863""
","
","
","""event"",""trial"",""time""
""fullscreenenter"",""5"",""22863""
","
",476,NA,49,NA,NA,3000,1,NA,NA,images/redplanet1.jpg,images/alien2,images/alien1,images/rocket1,images/alien1,images/t.png,2,real,true,1,common,1,2020-06-09T20:08:16Z,sub2
two-step-fixation,254,908077,0.0-76.0-2.39,FALSE,TRUE,FALSE,FALSE,"""event"",""trial"",""time""
""fullscreenenter"",""5"",""22863""
","
","
","""event"",""trial"",""time""
""fullscreenenter"",""5"",""22863""
","
",NA,images/earth.jpg,NA,NA,NA,NA,NA,NA,NA,NA,NA,NA,NA,NA,NA,fixation,NA,NA,NA,NA,NA,NA,sub2
d3-animate-choice,255,910570,0.0-76.0-0.40,FALSE,TRUE,FALSE,FALSE,"""event"",""trial"",""time""
""fullscreenenter"",""5"",""22863""
","
","
","""event"",""trial"",""time""
""fullscreenenter"",""5"",""22863""
","
",490,NA,48,NA,NA,3000,1,NA,NA,images/earth.jpg,images/rocket1,images/rocket2,null,images/rocket1,NA,1,real,null,2,NA,NA,NA,sub2
d3-animate-choice,256,912992,0.0-76.0-1.40,FALSE,TRUE,FALSE,FALSE,"""event"",""trial"",""time""
""fullscreenenter"",""5"",""22863""
","
","
","""event"",""trial"",""time""
""fullscreenenter"",""5"",""22863""
","
",419.0000000001164,NA,49,NA,NA,3000,1,NA,NA,images/redplanet1.jpg,images/alien2,images/alien1,images/rocket1,images/alien1,images/t.png,2,real,true,1,common,1,2020-06-09T20:08:22Z,sub2
two-step-fixation,257,913995,0.0-76.0-2.40,FALSE,TRUE,FALSE,FALSE,"""event"",""trial"",""time""
""fullscreenenter"",""5"",""22863""
","
","
","""event"",""trial"",""time""
""fullscreenenter"",""5"",""22863""
","
",NA,images/earth.jpg,NA,NA,NA,NA,NA,NA,NA,NA,NA,NA,NA,NA,NA,fixation,NA,NA,NA,NA,NA,NA,sub2
d3-animate-choice,258,916951,0.0-76.0-0.41,FALSE,TRUE,FALSE,FALSE,"""event"",""trial"",""time""
""fullscreenenter"",""5"",""22863""
","
","
","""event"",""trial"",""time""
""fullscreenenter"",""5"",""22863""
","
",953,NA,48,NA,NA,3000,1,NA,NA,images/earth.jpg,images/rocket1,images/rocket2,null,images/rocket1,NA,1,real,null,2,NA,NA,NA,sub2
d3-animate-choice,259,919710,0.0-76.0-1.41,FALSE,TRUE,FALSE,FALSE,"""event"",""trial"",""time""
""fullscreenenter"",""5"",""22863""
","
","
","""event"",""trial"",""time""
""fullscreenenter"",""5"",""22863""
","
",755,NA,49,NA,NA,3000,1,NA,NA,images/purpleplanet.jpg,images/alien4,images/alien3,images/rocket1,images/alien3,images/nothing.png,2,real,false,1,rare,0,2020-06-09T20:08:28Z,sub2
two-step-fixation,260,920713,0.0-76.0-2.41,FALSE,TRUE,FALSE,FALSE,"""event"",""trial"",""time""
""fullscreenenter"",""5"",""22863""
","
","
","""event"",""trial"",""time""
""fullscreenenter"",""5"",""22863""
","
",NA,images/earth.jpg,NA,NA,NA,NA,NA,NA,NA,NA,NA,NA,NA,NA,NA,fixation,NA,NA,NA,NA,NA,NA,sub2
d3-animate-choice,261,923363,0.0-76.0-0.42,FALSE,TRUE,FALSE,FALSE,"""event"",""trial"",""time""
""fullscreenenter"",""5"",""22863""
","
","
","""event"",""trial"",""time""
""fullscreenenter"",""5"",""22863""
","
",647,NA,48,NA,NA,3000,1,NA,NA,images/earth.jpg,images/rocket1,images/rocket2,null,images/rocket1,NA,1,real,null,2,NA,NA,NA,sub2
d3-animate-choice,262,926062,0.0-76.0-1.42,FALSE,TRUE,FALSE,FALSE,"""event"",""trial"",""time""
""fullscreenenter"",""5"",""22863""
","
","
","""event"",""trial"",""time""
""fullscreenenter"",""5"",""22863""
","
",695,NA,49,NA,NA,3000,1,NA,NA,images/redplanet1.jpg,images/alien2,images/alien1,images/rocket1,images/alien1,images/t.png,2,real,true,1,common,1,2020-06-09T20:08:35Z,sub2
two-step-fixation,263,927065,0.0-76.0-2.42,FALSE,TRUE,FALSE,FALSE,"""event"",""trial"",""time""
""fullscreenenter"",""5"",""22863""
","
","
","""event"",""trial"",""time""
""fullscreenenter"",""5"",""22863""
","
",NA,images/earth.jpg,NA,NA,NA,NA,NA,NA,NA,NA,NA,NA,NA,NA,NA,fixation,NA,NA,NA,NA,NA,NA,sub2
d3-animate-choice,264,930211,0.0-76.0-0.43,FALSE,TRUE,FALSE,FALSE,"""event"",""trial"",""time""
""fullscreenenter"",""5"",""22863""
","
","
","""event"",""trial"",""time""
""fullscreenenter"",""5"",""22863""
","
",1143,NA,48,NA,NA,3000,1,NA,NA,images/earth.jpg,images/rocket1,images/rocket2,null,images/rocket1,NA,1,real,null,2,NA,NA,NA,sub2
d3-animate-choice,265,932952,0.0-76.0-1.43,FALSE,TRUE,FALSE,FALSE,"""event"",""trial"",""time""
""fullscreenenter"",""5"",""22863""
","
","
","""event"",""trial"",""time""
""fullscreenenter"",""5"",""22863""
","
",737,NA,49,NA,NA,3000,1,NA,NA,images/redplanet1.jpg,images/alien2,images/alien1,images/rocket1,images/alien1,images/t.png,2,real,true,1,common,1,2020-06-09T20:08:42Z,sub2
two-step-fixation,266,933955,0.0-76.0-2.43,FALSE,TRUE,FALSE,FALSE,"""event"",""trial"",""time""
""fullscreenenter"",""5"",""22863""
","
","
","""event"",""trial"",""time""
""fullscreenenter"",""5"",""22863""
","
",NA,images/earth.jpg,NA,NA,NA,NA,NA,NA,NA,NA,NA,NA,NA,NA,NA,fixation,NA,NA,NA,NA,NA,NA,sub2
d3-animate-choice,267,936317,0.0-76.0-0.44,FALSE,TRUE,FALSE,FALSE,"""event"",""trial"",""time""
""fullscreenenter"",""5"",""22863""
","
","
","""event"",""trial"",""time""
""fullscreenenter"",""5"",""22863""
","
",359,NA,48,NA,NA,3000,1,NA,NA,images/earth.jpg,images/rocket1,images/rocket2,null,images/rocket1,NA,1,real,null,2,NA,NA,NA,sub2
d3-animate-choice,268,938712,0.0-76.0-1.44,FALSE,TRUE,FALSE,FALSE,"""event"",""trial"",""time""
""fullscreenenter"",""5"",""22863""
","
","
","""event"",""trial"",""time""
""fullscreenenter"",""5"",""22863""
","
",392.9999999998836,NA,49,NA,NA,3000,1,NA,NA,images/redplanet1.jpg,images/alien2,images/alien1,images/rocket1,images/alien1,images/nothing.png,2,real,true,1,common,0,2020-06-09T20:08:47Z,sub2
two-step-fixation,269,939715,0.0-76.0-2.44,FALSE,TRUE,FALSE,FALSE,"""event"",""trial"",""time""
""fullscreenenter"",""5"",""22863""
","
","
","""event"",""trial"",""time""
""fullscreenenter"",""5"",""22863""
","
",NA,images/earth.jpg,NA,NA,NA,NA,NA,NA,NA,NA,NA,NA,NA,NA,NA,fixation,NA,NA,NA,NA,NA,NA,sub2
d3-animate-choice,270,942075,0.0-76.0-0.45,FALSE,TRUE,FALSE,FALSE,"""event"",""trial"",""time""
""fullscreenenter"",""5"",""22863""
","
","
","""event"",""trial"",""time""
""fullscreenenter"",""5"",""22863""
","
",358,NA,48,NA,NA,3000,1,NA,NA,images/earth.jpg,images/rocket1,images/rocket2,null,images/rocket1,NA,1,real,null,2,NA,NA,NA,sub2
d3-animate-choice,271,944818,0.0-76.0-1.45,FALSE,TRUE,FALSE,FALSE,"""event"",""trial"",""time""
""fullscreenenter"",""5"",""22863""
","
","
","""event"",""trial"",""time""
""fullscreenenter"",""5"",""22863""
","
",740,NA,48,NA,NA,3000,1,NA,NA,images/purpleplanet.jpg,images/alien4,images/alien3,images/rocket1,images/alien4,images/nothing.png,2,real,false,2,rare,0,2020-06-09T20:08:54Z,sub2
two-step-fixation,272,945821,0.0-76.0-2.45,FALSE,TRUE,FALSE,FALSE,"""event"",""trial"",""time""
""fullscreenenter"",""5"",""22863""
","
","
","""event"",""trial"",""time""
""fullscreenenter"",""5"",""22863""
","
",NA,images/earth.jpg,NA,NA,NA,NA,NA,NA,NA,NA,NA,NA,NA,NA,NA,fixation,NA,NA,NA,NA,NA,NA,sub2
d3-animate-choice,273,948244,0.0-76.0-0.46,FALSE,TRUE,FALSE,FALSE,"""event"",""trial"",""time""
""fullscreenenter"",""5"",""22863""
","
","
","""event"",""trial"",""time""
""fullscreenenter"",""5"",""22863""
","
",421,NA,48,NA,NA,3000,1,NA,NA,images/earth.jpg,images/rocket1,images/rocket2,null,images/rocket1,NA,1,real,null,2,NA,NA,NA,sub2
d3-animate-choice,274,951069,0.0-76.0-1.46,FALSE,TRUE,FALSE,FALSE,"""event"",""trial"",""time""
""fullscreenenter"",""5"",""22863""
","
","
","""event"",""trial"",""time""
""fullscreenenter"",""5"",""22863""
","
",822,NA,49,NA,NA,3000,1,NA,NA,images/redplanet1.jpg,images/alien2,images/alien1,images/rocket1,images/alien1,images/nothing.png,2,real,true,1,common,0,2020-06-09T20:09:00Z,sub2
two-step-fixation,275,952071,0.0-76.0-2.46,FALSE,TRUE,FALSE,FALSE,"""event"",""trial"",""time""
""fullscreenenter"",""5"",""22863""
","
","
","""event"",""trial"",""time""
""fullscreenenter"",""5"",""22863""
","
",NA,images/earth.jpg,NA,NA,NA,NA,NA,NA,NA,NA,NA,NA,NA,NA,NA,fixation,NA,NA,NA,NA,NA,NA,sub2
d3-animate-choice,276,954716,0.0-76.0-0.47,FALSE,TRUE,FALSE,FALSE,"""event"",""trial"",""time""
""fullscreenenter"",""5"",""22863""
","
","
","""event"",""trial"",""time""
""fullscreenenter"",""5"",""22863""
","
",642,NA,48,NA,NA,3000,1,NA,NA,images/earth.jpg,images/rocket1,images/rocket2,null,images/rocket1,NA,1,real,null,2,NA,NA,NA,sub2
d3-animate-choice,277,957542,0.0-76.0-1.47,FALSE,TRUE,FALSE,FALSE,"""event"",""trial"",""time""
""fullscreenenter"",""5"",""22863""
","
","
","""event"",""trial"",""time""
""fullscreenenter"",""5"",""22863""
","
",822.9999999998836,NA,49,NA,NA,3000,1,NA,NA,images/redplanet1.jpg,images/alien2,images/alien1,images/rocket1,images/alien1,images/nothing.png,2,real,true,1,common,0,2020-06-09T20:09:06Z,sub2
two-step-fixation,278,958545,0.0-76.0-2.47,FALSE,TRUE,FALSE,FALSE,"""event"",""trial"",""time""
""fullscreenenter"",""5"",""22863""
","
","
","""event"",""trial"",""time""
""fullscreenenter"",""5"",""22863""
","
",NA,images/earth.jpg,NA,NA,NA,NA,NA,NA,NA,NA,NA,NA,NA,NA,NA,fixation,NA,NA,NA,NA,NA,NA,sub2
d3-animate-choice,279,961179,0.0-76.0-0.48,FALSE,TRUE,FALSE,FALSE,"""event"",""trial"",""time""
""fullscreenenter"",""5"",""22863""
","
","
","""event"",""trial"",""time""
""fullscreenenter"",""5"",""22863""
","
",631,NA,49,NA,NA,3000,1,NA,NA,images/earth.jpg,images/rocket1,images/rocket2,null,images/rocket2,NA,1,real,null,1,NA,NA,NA,sub2
d3-animate-choice,280,963714,0.0-76.0-1.48,FALSE,TRUE,FALSE,FALSE,"""event"",""trial"",""time""
""fullscreenenter"",""5"",""22863""
","
","
","""event"",""trial"",""time""
""fullscreenenter"",""5"",""22863""
","
",532.0000000001164,NA,48,NA,NA,3000,1,NA,NA,images/purpleplanet.jpg,images/alien4,images/alien3,images/rocket2,images/alien4,images/nothing.png,2,real,true,2,common,0,2020-06-09T20:09:12Z,sub2
two-step-fixation,281,964717,0.0-76.0-2.48,FALSE,TRUE,FALSE,FALSE,"""event"",""trial"",""time""
""fullscreenenter"",""5"",""22863""
","
","
","""event"",""trial"",""time""
""fullscreenenter"",""5"",""22863""
","
",NA,images/earth.jpg,NA,NA,NA,NA,NA,NA,NA,NA,NA,NA,NA,NA,NA,fixation,NA,NA,NA,NA,NA,NA,sub2
d3-animate-choice,282,967064,0.0-76.0-0.49,FALSE,TRUE,FALSE,FALSE,"""event"",""trial"",""time""
""fullscreenenter"",""5"",""22863""
","
","
","""event"",""trial"",""time""
""fullscreenenter"",""5"",""22863""
","
",344,NA,49,NA,NA,3000,1,NA,NA,images/earth.jpg,images/rocket1,images/rocket2,null,images/rocket2,NA,1,real,null,1,NA,NA,NA,sub2
d3-animate-choice,283,969531,0.0-76.0-1.49,FALSE,TRUE,FALSE,FALSE,"""event"",""trial"",""time""
""fullscreenenter"",""5"",""22863""
","
","
","""event"",""trial"",""time""
""fullscreenenter"",""5"",""22863""
","
",463,NA,49,NA,NA,3000,1,NA,NA,images/purpleplanet.jpg,images/alien4,images/alien3,images/rocket2,images/alien3,images/t.png,2,real,true,1,common,1,2020-06-09T20:09:18Z,sub2
two-step-fixation,284,970534,0.0-76.0-2.49,FALSE,TRUE,FALSE,FALSE,"""event"",""trial"",""time""
""fullscreenenter"",""5"",""22863""
","
","
","""event"",""trial"",""time""
""fullscreenenter"",""5"",""22863""
","
",NA,images/earth.jpg,NA,NA,NA,NA,NA,NA,NA,NA,NA,NA,NA,NA,NA,fixation,NA,NA,NA,NA,NA,NA,sub2
audio-button-response-2,285,990223,0.0-77.0,FALSE,TRUE,FALSE,FALSE,"""event"",""trial"",""time""
""fullscreenenter"",""5"",""22863""
","
","
","""event"",""trial"",""time""
""fullscreenenter"",""5"",""22863""
","
",19686.000000000116,audio/instructions/break_1.wav,NA,0,NA,NA,NA,NA,NA,NA,NA,NA,NA,NA,NA,NA,NA,NA,NA,NA,NA,NA,sub2
d3-animate-choice,286,993429,0.0-78.0-0.0,FALSE,TRUE,FALSE,FALSE,"""event"",""trial"",""time""
""fullscreenenter"",""5"",""22863""
","
","
","""event"",""trial"",""time""
""fullscreenenter"",""5"",""22863""
","
",1204,NA,48,NA,NA,3000,1,NA,NA,images/earth.jpg,images/rocket1,images/rocket2,null,images/rocket1,NA,1,real,null,2,NA,NA,NA,sub2
d3-animate-choice,287,996456,0.0-78.0-1.0,FALSE,TRUE,FALSE,FALSE,"""event"",""trial"",""time""
""fullscreenenter"",""5"",""22863""
","
","
","""event"",""trial"",""time""
""fullscreenenter"",""5"",""22863""
","
",1024.9999999998836,NA,48,NA,NA,3000,1,NA,NA,images/redplanet1.jpg,images/alien2,images/alien1,images/rocket1,images/alien2,images/nothing.png,2,real,true,2,common,0,2020-06-09T20:09:45Z,sub2
two-step-fixation,288,997457,0.0-78.0-2.0,FALSE,TRUE,FALSE,FALSE,"""event"",""trial"",""time""
""fullscreenenter"",""5"",""22863""
","
","
","""event"",""trial"",""time""
""fullscreenenter"",""5"",""22863""
","
",NA,images/earth.jpg,NA,NA,NA,NA,NA,NA,NA,NA,NA,NA,NA,NA,NA,fixation,NA,NA,NA,NA,NA,NA,sub2
d3-animate-choice,289,999819,0.0-78.0-0.1,FALSE,TRUE,FALSE,FALSE,"""event"",""trial"",""time""
