trial_type,trial_index,time_elapsed,internal_node_id,rocket_sides,red_planet_first_rocket,red_display_order,purple_display_order,interactions,blur_events,focus_events,fullscreenenter_events,fullscreenexit_events,rt,stimulus,key_press,button_pressed,success,duration,valid_pressed,rts,keys,planet_text,right_text,left_text,center_text,chosen_text,reward_text,trial_stage,practice_trial,transition_type,choice,transition,reward,timestamp,subject_id
pavlovia,0,3,0.0-0.0,TRUE,FALSE,TRUE,FALSE,"
","
","
","
","
",NA,NA,NA,NA,NA,NA,NA,NA,NA,NA,NA,NA,NA,NA,NA,NA,NA,NA,NA,NA,NA,NA,sub8
html-keyboard-response,1,5626,0.0-1.0,TRUE,FALSE,TRUE,FALSE,"
","
","
","
","
",5622.169999987818,Welcome! Press the space bar to begin.,32,NA,NA,NA,NA,NA,NA,NA,NA,NA,NA,NA,NA,NA,NA,NA,NA,NA,NA,NA,sub8
audio-keyboard-response,2,8610,0.0-2.0,TRUE,FALSE,TRUE,FALSE,"
","
","
","
","
",2969,audio/beep_loop.wav,32,NA,NA,NA,NA,NA,NA,NA,NA,NA,NA,NA,NA,NA,NA,NA,NA,NA,NA,NA,sub8
audio-button-response,3,10167,0.0-3.0,TRUE,FALSE,TRUE,FALSE,"
","
","
","
","
",NaN,audio/fish.mp3,NA,1,NA,NA,NA,NA,NA,NA,NA,NA,NA,NA,NA,NA,NA,NA,NA,NA,NA,NA,sub8
audio-button-response,4,12547,0.0-4.0,TRUE,FALSE,TRUE,FALSE,"""event"",""trial"",""time""
""fullscreenenter"",""5"",""17906""
","
","
","""event"",""trial"",""time""
""fullscreenenter"",""5"",""17906""
","
",NaN,audio/tiger.mp3,NA,4,NA,NA,NA,NA,NA,NA,NA,NA,NA,NA,NA,NA,NA,NA,NA,NA,NA,NA,sub8
fullscreen,5,18901,0.0-5.0,TRUE,FALSE,TRUE,FALSE,"""event"",""trial"",""time""
""fullscreenenter"",""5"",""17906""
","
","
","""event"",""trial"",""time""
""fullscreenenter"",""5"",""17906""
","
",NA,NA,NA,NA,TRUE,NA,NA,NA,NA,NA,NA,NA,NA,NA,NA,NA,NA,NA,NA,NA,NA,NA,sub8
d3-instructions,6,32217,0.0-6.0,TRUE,FALSE,TRUE,FALSE,"""event"",""trial"",""time""
""fullscreenenter"",""5"",""17906""
","
","
","""event"",""trial"",""time""
""fullscreenenter"",""5"",""17906""
","
",NA,NA,NA,NA,NA,NA,NA,NA,NA,NA,NA,NA,NA,NA,NA,NA,NA,NA,NA,NA,NA,NA,sub8
d3-instructions,7,40968,0.0-7.0,TRUE,FALSE,TRUE,FALSE,"""event"",""trial"",""time""
""fullscreenenter"",""5"",""17906""
","
","
","""event"",""trial"",""time""
""fullscreenenter"",""5"",""17906""
","
",NA,NA,NA,NA,NA,NA,NA,NA,NA,NA,NA,NA,NA,NA,NA,NA,NA,NA,NA,NA,NA,NA,sub8
d3-instructions,8,49001,0.0-8.0,TRUE,FALSE,TRUE,FALSE,"""event"",""trial"",""time""
""fullscreenenter"",""5"",""17906""
","
","
","""event"",""trial"",""time""
""fullscreenenter"",""5"",""17906""
","
",NA,NA,NA,NA,NA,NA,NA,NA,NA,NA,NA,NA,NA,NA,NA,NA,NA,NA,NA,NA,NA,NA,sub8
d3-instructions,9,60753,0.0-9.0,TRUE,FALSE,TRUE,FALSE,"""event"",""trial"",""time""
""fullscreenenter"",""5"",""17906""
","
","
","""event"",""trial"",""time""
""fullscreenenter"",""5"",""17906""
","
",NA,NA,NA,NA,NA,NA,NA,NA,NA,NA,NA,NA,NA,NA,NA,NA,NA,NA,NA,NA,NA,NA,sub8
d3-instructions,10,80057,0.0-10.0,TRUE,FALSE,TRUE,FALSE,"""event"",""trial"",""time""
""fullscreenenter"",""5"",""17906""
","
","
","""event"",""trial"",""time""
""fullscreenenter"",""5"",""17906""
","
",NA,NA,NA,NA,NA,NA,NA,NA,NA,NA,NA,NA,NA,NA,NA,NA,NA,NA,NA,NA,NA,NA,sub8
d3-animate-choice,11,83315,0.0-11.0,TRUE,FALSE,TRUE,FALSE,"""event"",""trial"",""time""
""fullscreenenter"",""5"",""17906""
","
","
","""event"",""trial"",""time""
""fullscreenenter"",""5"",""17906""
","
",1253.7700000102632,NA,49,NA,NA,3000,1,2590.7049999805167,48,images/tutgreenplanet.jpg,images/tutalien1,images/tutalien2,null,images/tutalien2,NA,NA,practice,null,NA,NA,NA,NA,sub8
d3-animate-choice,12,86081,0.0-12.0,TRUE,FALSE,TRUE,FALSE,"""event"",""trial"",""time""
""fullscreenenter"",""5"",""17906""
","
","
","""event"",""trial"",""time""
""fullscreenenter"",""5"",""17906""
","
",764.2800000030547,NA,48,NA,NA,3000,1,NA,NA,images/tutgreenplanet.jpg,images/tutalien1,images/tutalien2,null,images/tutalien1,NA,NA,practice,null,NA,NA,NA,NA,sub8
d3-animate-choice,13,90075,0.0-13.0,TRUE,FALSE,TRUE,FALSE,"""event"",""trial"",""time""
""fullscreenenter"",""5"",""17906""
","
","
","""event"",""trial"",""time""
""fullscreenenter"",""5"",""17906""
","
",1990.7600000151433,NA,49,NA,NA,3000,1,3493.8700000056997,48,images/tutgreenplanet.jpg,images/tutalien1,images/tutalien2,null,images/tutalien2,NA,NA,practice,null,NA,NA,NA,NA,sub8
d3-animate-choice,14,92362,0.0-14.0,TRUE,FALSE,TRUE,FALSE,"""event"",""trial"",""time""
""fullscreenenter"",""5"",""17906""
","
","
","""event"",""trial"",""time""
""fullscreenenter"",""5"",""17906""
","
",284.44999997736886,NA,48,NA,NA,3000,1,NA,NA,images/tutgreenplanet.jpg,images/tutalien1,images/tutalien2,null,images/tutalien1,NA,NA,practice,null,NA,NA,NA,NA,sub8
d3-instructions,15,98681,0.0-15.0,TRUE,FALSE,TRUE,FALSE,"""event"",""trial"",""time""
""fullscreenenter"",""5"",""17906""
","
","
","""event"",""trial"",""time""
""fullscreenenter"",""5"",""17906""
","
",NA,NA,NA,NA,NA,NA,NA,NA,NA,NA,NA,NA,NA,NA,NA,NA,NA,NA,NA,NA,NA,NA,sub8
d3-instructions,16,106008,0.0-16.0,TRUE,FALSE,TRUE,FALSE,"""event"",""trial"",""time""
""fullscreenenter"",""5"",""17906""
","
","
","""event"",""trial"",""time""
""fullscreenenter"",""5"",""17906""
","
",NA,NA,NA,NA,NA,NA,NA,NA,NA,NA,NA,NA,NA,NA,NA,NA,NA,NA,NA,NA,NA,NA,sub8
d3-instructions,17,117353,0.0-17.0,TRUE,FALSE,TRUE,FALSE,"""event"",""trial"",""time""
""fullscreenenter"",""5"",""17906""
","
","
","""event"",""trial"",""time""
""fullscreenenter"",""5"",""17906""
","
",NA,NA,NA,NA,NA,NA,NA,NA,NA,NA,NA,NA,NA,NA,NA,NA,NA,NA,NA,NA,NA,NA,sub8
d3-instructions,18,130664,0.0-18.0,TRUE,FALSE,TRUE,FALSE,"""event"",""trial"",""time""
""fullscreenenter"",""5"",""17906""
","
","
","""event"",""trial"",""time""
""fullscreenenter"",""5"",""17906""
","
",NA,NA,NA,NA,NA,NA,NA,NA,NA,NA,NA,NA,NA,NA,NA,NA,NA,NA,NA,NA,NA,NA,sub8
d3-instructions,19,144545,0.0-19.0,TRUE,FALSE,TRUE,FALSE,"""event"",""trial"",""time""
""fullscreenenter"",""5"",""17906""
","
","
","""event"",""trial"",""time""
""fullscreenenter"",""5"",""17906""
","
",NA,NA,NA,NA,NA,NA,NA,NA,NA,NA,NA,NA,NA,NA,NA,NA,NA,NA,NA,NA,NA,NA,sub8
d3-animate-choice,20,147745,0.0-20.0,TRUE,FALSE,TRUE,FALSE,"""event"",""trial"",""time""
""fullscreenenter"",""5"",""17906""
","
","
","""event"",""trial"",""time""
""fullscreenenter"",""5"",""17906""
","
",1198.2849999913014,NA,49,NA,NA,3000,1,NA,NA,images/tutyellowplanet.jpg,null,images/tutalien3,null,images/tutalien3,images/t.png,NA,practice,null,NA,NA,NA,NA,sub8
d3-animate-choice,21,150450,0.0-21.0,TRUE,FALSE,TRUE,FALSE,"""event"",""trial"",""time""
""fullscreenenter"",""5"",""17906""
","
","
","""event"",""trial"",""time""
""fullscreenenter"",""5"",""17906""
","
",702.7099999831989,NA,49,NA,NA,3000,1,NA,NA,images/tutyellowplanet.jpg,null,images/tutalien3,null,images/tutalien3,images/t.png,NA,practice,null,NA,NA,NA,NA,sub8
d3-animate-choice,22,152746,0.0-22.0,TRUE,FALSE,TRUE,FALSE,"""event"",""trial"",""time""
""fullscreenenter"",""5"",""17906""
","
","
","""event"",""trial"",""time""
""fullscreenenter"",""5"",""17906""
","
",294.27499999292195,NA,49,NA,NA,3000,1,NA,NA,images/tutyellowplanet.jpg,null,images/tutalien3,null,images/tutalien3,images/t.png,NA,practice,null,NA,NA,NA,NA,sub8
d3-animate-choice,23,155040,0.0-23.0,TRUE,FALSE,TRUE,FALSE,"""event"",""trial"",""time""
""fullscreenenter"",""5"",""17906""
","
","
","""event"",""trial"",""time""
""fullscreenenter"",""5"",""17906""
","
",292.6900000311434,NA,49,NA,NA,3000,1,NA,NA,images/tutyellowplanet.jpg,null,images/tutalien3,null,images/tutalien3,images/t.png,NA,practice,null,NA,NA,NA,NA,sub8
d3-animate-choice,24,157314,0.0-24.0,TRUE,FALSE,TRUE,FALSE,"""event"",""trial"",""time""
""fullscreenenter"",""5"",""17906""
","
","
","""event"",""trial"",""time""
""fullscreenenter"",""5"",""17906""
","
",271.57500002067536,NA,49,NA,NA,3000,1,NA,NA,images/tutyellowplanet.jpg,null,images/tutalien3,null,images/tutalien3,images/t.png,NA,practice,null,NA,NA,NA,NA,sub8
d3-animate-choice,25,159338,0.0-25.0,TRUE,FALSE,TRUE,FALSE,"""event"",""trial"",""time""
""fullscreenenter"",""5"",""17906""
","
","
","""event"",""trial"",""time""
""fullscreenenter"",""5"",""17906""
","
",21.27999998629093,NA,49,NA,NA,3000,1,NA,NA,images/tutyellowplanet.jpg,null,images/tutalien3,null,images/tutalien3,images/t.png,NA,practice,null,NA,NA,NA,NA,sub8
d3-animate-choice,26,161433,0.0-26.0,TRUE,FALSE,TRUE,FALSE,"""event"",""trial"",""time""
""fullscreenenter"",""5"",""17906""
","
","
","""event"",""trial"",""time""
""fullscreenenter"",""5"",""17906""
","
",93.6750000109896,NA,49,NA,NA,3000,1,NA,NA,images/tutyellowplanet.jpg,null,images/tutalien3,null,images/tutalien3,images/t.png,NA,practice,null,NA,NA,NA,NA,sub8
d3-animate-choice,27,163450,0.0-27.0,TRUE,FALSE,TRUE,FALSE,"""event"",""trial"",""time""
""fullscreenenter"",""5"",""17906""
","
","
","""event"",""trial"",""time""
""fullscreenenter"",""5"",""17906""
","
",14.685000001918525,NA,49,NA,NA,3000,1,NA,NA,images/tutyellowplanet.jpg,null,images/tutalien3,null,images/tutalien3,images/t.png,NA,practice,null,NA,NA,NA,NA,sub8
d3-animate-choice,28,165601,0.0-28.0,TRUE,FALSE,TRUE,FALSE,"""event"",""trial"",""time""
""fullscreenenter"",""5"",""17906""
","
","
","""event"",""trial"",""time""
""fullscreenenter"",""5"",""17906""
","
",149.54999997280538,NA,49,NA,NA,3000,1,2110.5899999965914,49,images/tutyellowplanet.jpg,null,images/tutalien3,null,images/tutalien3,images/t.png,NA,practice,null,NA,NA,NA,NA,sub8
d3-animate-choice,29,167978,0.0-29.0,TRUE,FALSE,TRUE,FALSE,"""event"",""trial"",""time""
""fullscreenenter"",""5"",""17906""
","
","
","""event"",""trial"",""time""
""fullscreenenter"",""5"",""17906""
","
",374.3499999982305,NA,49,NA,NA,3000,1,NA,NA,images/tutyellowplanet.jpg,null,images/tutalien3,null,images/tutalien3,images/t.png,NA,practice,null,NA,NA,NA,NA,sub8
d3-instructions,30,175833,0.0-30.0,TRUE,FALSE,TRUE,FALSE,"""event"",""trial"",""time""
""fullscreenenter"",""5"",""17906""
","
","
","""event"",""trial"",""time""
""fullscreenenter"",""5"",""17906""
","
",NA,NA,NA,NA,NA,NA,NA,NA,NA,NA,NA,NA,NA,NA,NA,NA,NA,NA,NA,NA,NA,NA,sub8
d3-instructions,31,188017,0.0-31.0,TRUE,FALSE,TRUE,FALSE,"""event"",""trial"",""time""
""fullscreenenter"",""5"",""17906""
","
","
","""event"",""trial"",""time""
""fullscreenenter"",""5"",""17906""
","
",NA,NA,NA,NA,NA,NA,NA,NA,NA,NA,NA,NA,NA,NA,NA,NA,NA,NA,NA,NA,NA,NA,sub8
d3-instructions,32,196024,0.0-32.0,TRUE,FALSE,TRUE,FALSE,"""event"",""trial"",""time""
""fullscreenenter"",""5"",""17906""
","
","
","""event"",""trial"",""time""
""fullscreenenter"",""5"",""17906""
","
",NA,NA,NA,NA,NA,NA,NA,NA,NA,NA,NA,NA,NA,NA,NA,NA,NA,NA,NA,NA,NA,NA,sub8
d3-instructions,33,206616,0.0-33.0,TRUE,FALSE,TRUE,FALSE,"""event"",""trial"",""time""
""fullscreenenter"",""5"",""17906""
","
","
","""event"",""trial"",""time""
""fullscreenenter"",""5"",""17906""
","
",NA,NA,NA,NA,NA,NA,NA,NA,NA,NA,NA,NA,NA,NA,NA,NA,NA,NA,NA,NA,NA,NA,sub8
d3-animate-choice,34,210761,0.0-34.0,TRUE,FALSE,TRUE,FALSE,"""event"",""trial"",""time""
""fullscreenenter"",""5"",""17906""
","
","
","""event"",""trial"",""time""
""fullscreenenter"",""5"",""17906""
","
",2142.6700000301935,NA,49,NA,NA,3000,1,NA,NA,images/tutgreenplanet.jpg,images/tutalien1,images/tutalien2,null,images/tutalien2,images/t.png,NA,practice,null,NA,NA,NA,NA,sub8
d3-animate-choice,35,214233,0.0-35.0,TRUE,FALSE,TRUE,FALSE,"""event"",""trial"",""time""
""fullscreenenter"",""5"",""17906""
","
","
","""event"",""trial"",""time""
""fullscreenenter"",""5"",""17906""
","
",1470.694999967236,NA,49,NA,NA,3000,1,NA,NA,images/tutgreenplanet.jpg,images/tutalien1,images/tutalien2,null,images/tutalien2,images/t.png,NA,practice,null,NA,NA,NA,NA,sub8
d3-animate-choice,36,217226,0.0-36.0,TRUE,FALSE,TRUE,FALSE,"""event"",""trial"",""time""
""fullscreenenter"",""5"",""17906""
","
","
","""event"",""trial"",""time""
""fullscreenenter"",""5"",""17906""
","
",989.7500000079162,NA,49,NA,NA,3000,1,NA,NA,images/tutgreenplanet.jpg,images/tutalien1,images/tutalien2,null,images/tutalien2,images/t.png,NA,practice,null,NA,NA,NA,NA,sub8
d3-animate-choice,37,220298,0.0-37.0,TRUE,FALSE,TRUE,FALSE,"""event"",""trial"",""time""
""fullscreenenter"",""5"",""17906""
","
","
","""event"",""trial"",""time""
""fullscreenenter"",""5"",""17906""
","
",1069.8299999930896,NA,49,NA,NA,3000,1,NA,NA,images/tutgreenplanet.jpg,images/tutalien1,images/tutalien2,null,images/tutalien2,images/t.png,NA,practice,null,NA,NA,NA,NA,sub8
d3-animate-choice,38,223409,0.0-38.0,TRUE,FALSE,TRUE,FALSE,"""event"",""trial"",""time""
""fullscreenenter"",""5"",""17906""
","
","
","""event"",""trial"",""time""
""fullscreenenter"",""5"",""17906""
","
",1109.2599999974482,NA,48,NA,NA,3000,1,NA,NA,images/tutgreenplanet.jpg,images/tutalien1,images/tutalien2,null,images/tutalien1,images/nothing.png,NA,practice,null,NA,NA,NA,NA,sub8
d3-animate-choice,39,226265,0.0-39.0,TRUE,FALSE,TRUE,FALSE,"""event"",""trial"",""time""
""fullscreenenter"",""5"",""17906""
","
","
","""event"",""trial"",""time""
""fullscreenenter"",""5"",""17906""
","
",854.749999998603,NA,49,NA,NA,3000,1,NA,NA,images/tutgreenplanet.jpg,images/tutalien1,images/tutalien2,null,images/tutalien2,images/t.png,NA,practice,null,NA,NA,NA,NA,sub8
d3-animate-choice,40,228754,0.0-40.0,TRUE,FALSE,TRUE,FALSE,"""event"",""trial"",""time""
""fullscreenenter"",""5"",""17906""
","
","
","""event"",""trial"",""time""
""fullscreenenter"",""5"",""17906""
","
",486.5400000126101,NA,49,NA,NA,3000,1,NA,NA,images/tutgreenplanet.jpg,images/tutalien1,images/tutalien2,null,images/tutalien2,images/t.png,NA,practice,null,NA,NA,NA,NA,sub8
d3-animate-choice,41,231337,0.0-41.0,TRUE,FALSE,TRUE,FALSE,"""event"",""trial"",""time""
""fullscreenenter"",""5"",""17906""
","
","
","""event"",""trial"",""time""
""fullscreenenter"",""5"",""17906""
","
",581.6200000117533,NA,49,NA,NA,3000,1,NA,NA,images/tutgreenplanet.jpg,images/tutalien1,images/tutalien2,null,images/tutalien2,images/t.png,NA,practice,null,NA,NA,NA,NA,sub8
d3-animate-choice,42,233961,0.0-42.0,TRUE,FALSE,TRUE,FALSE,"""event"",""trial"",""time""
""fullscreenenter"",""5"",""17906""
","
","
","""event"",""trial"",""time""
""fullscreenenter"",""5"",""17906""
","
",622.4550000042655,NA,49,NA,NA,3000,1,NA,NA,images/tutgreenplanet.jpg,images/tutalien1,images/tutalien2,null,images/tutalien2,images/t.png,NA,practice,null,NA,NA,NA,NA,sub8
d3-animate-choice,43,236353,0.0-43.0,TRUE,FALSE,TRUE,FALSE,"""event"",""trial"",""time""
""fullscreenenter"",""5"",""17906""
","
","
","""event"",""trial"",""time""
""fullscreenenter"",""5"",""17906""
","
",390.0100000319071,NA,49,NA,NA,3000,1,NA,NA,images/tutgreenplanet.jpg,images/tutalien1,images/tutalien2,null,images/tutalien2,images/t.png,NA,practice,null,NA,NA,NA,NA,sub8
d3-instructions,44,250856,0.0-44.0,TRUE,FALSE,TRUE,FALSE,"""event"",""trial"",""time""
""fullscreenenter"",""5"",""17906""
","
","
","""event"",""trial"",""time""
""fullscreenenter"",""5"",""17906""
","
",NA,NA,NA,NA,NA,NA,NA,NA,NA,NA,NA,NA,NA,NA,NA,NA,NA,NA,NA,NA,NA,NA,sub8
d3-instructions,45,260169,0.0-45.0,TRUE,FALSE,TRUE,FALSE,"""event"",""trial"",""time""
""fullscreenenter"",""5"",""17906""
","
","
","""event"",""trial"",""time""
""fullscreenenter"",""5"",""17906""
","
",NA,NA,NA,NA,NA,NA,NA,NA,NA,NA,NA,NA,NA,NA,NA,NA,NA,NA,NA,NA,NA,NA,sub8
d3-instructions,46,267057,0.0-46.0,TRUE,FALSE,TRUE,FALSE,"""event"",""trial"",""time""
""fullscreenenter"",""5"",""17906""
","
","
","""event"",""trial"",""time""
""fullscreenenter"",""5"",""17906""
","
",NA,NA,NA,NA,NA,NA,NA,NA,NA,NA,NA,NA,NA,NA,NA,NA,NA,NA,NA,NA,NA,NA,sub8
d3-instructions,47,284529,0.0-47.0,TRUE,FALSE,TRUE,FALSE,"""event"",""trial"",""time""
""fullscreenenter"",""5"",""17906""
","
","
","""event"",""trial"",""time""
""fullscreenenter"",""5"",""17906""
","
",NA,NA,NA,NA,NA,NA,NA,NA,NA,NA,NA,NA,NA,NA,NA,NA,NA,NA,NA,NA,NA,NA,sub8
d3-instructions,48,291809,0.0-48.0,TRUE,FALSE,TRUE,FALSE,"""event"",""trial"",""time""
""fullscreenenter"",""5"",""17906""
","
","
","""event"",""trial"",""time""
""fullscreenenter"",""5"",""17906""
","
",NA,NA,NA,NA,NA,NA,NA,NA,NA,NA,NA,NA,NA,NA,NA,NA,NA,NA,NA,NA,NA,NA,sub8
d3-instructions,49,303496,0.0-49.0,TRUE,FALSE,TRUE,FALSE,"""event"",""trial"",""time""
""fullscreenenter"",""5"",""17906""
","
","
","""event"",""trial"",""time""
""fullscreenenter"",""5"",""17906""
","
",NA,NA,NA,NA,NA,NA,NA,NA,NA,NA,NA,NA,NA,NA,NA,NA,NA,NA,NA,NA,NA,NA,sub8
d3-instructions,50,312848,0.0-50.0,TRUE,FALSE,TRUE,FALSE,"""event"",""trial"",""time""
""fullscreenenter"",""5"",""17906""
","
","
","""event"",""trial"",""time""
""fullscreenenter"",""5"",""17906""
","
",NA,NA,NA,NA,NA,NA,NA,NA,NA,NA,NA,NA,NA,NA,NA,NA,NA,NA,NA,NA,NA,NA,sub8
d3-instructions,51,317408,0.0-51.0,TRUE,FALSE,TRUE,FALSE,"""event"",""trial"",""time""
""fullscreenenter"",""5"",""17906""
","
","
","""event"",""trial"",""time""
""fullscreenenter"",""5"",""17906""
","
",NA,NA,NA,NA,NA,NA,NA,NA,NA,NA,NA,NA,NA,NA,NA,NA,NA,NA,NA,NA,NA,NA,sub8
d3-instructions,52,321040,0.0-52.0,TRUE,FALSE,TRUE,FALSE,"""event"",""trial"",""time""
""fullscreenenter"",""5"",""17906""
","
","
","""event"",""trial"",""time""
""fullscreenenter"",""5"",""17906""
","
",NA,NA,NA,NA,NA,NA,NA,NA,NA,NA,NA,NA,NA,NA,NA,NA,NA,NA,NA,NA,NA,NA,sub8
d3-instructions,53,334424,0.0-53.0,TRUE,FALSE,TRUE,FALSE,"""event"",""trial"",""time""
""fullscreenenter"",""5"",""17906""
","
","
","""event"",""trial"",""time""
""fullscreenenter"",""5"",""17906""
","
",NA,NA,NA,NA,NA,NA,NA,NA,NA,NA,NA,NA,NA,NA,NA,NA,NA,NA,NA,NA,NA,NA,sub8
d3-instructions,54,347504,0.0-54.0,TRUE,FALSE,TRUE,FALSE,"""event"",""trial"",""time""
""fullscreenenter"",""5"",""17906""
","
","
","""event"",""trial"",""time""
""fullscreenenter"",""5"",""17906""
","
",NA,NA,NA,NA,NA,NA,NA,NA,NA,NA,NA,NA,NA,NA,NA,NA,NA,NA,NA,NA,NA,NA,sub8
d3-instructions,55,357832,0.0-55.0,TRUE,FALSE,TRUE,FALSE,"""event"",""trial"",""time""
""fullscreenenter"",""5"",""17906""
","
","
","""event"",""trial"",""time""
""fullscreenenter"",""5"",""17906""
","
",NA,NA,NA,NA,NA,NA,NA,NA,NA,NA,NA,NA,NA,NA,NA,NA,NA,NA,NA,NA,NA,NA,sub8
d3-instructions,56,366600,0.0-56.0,TRUE,FALSE,TRUE,FALSE,"""event"",""trial"",""time""
""fullscreenenter"",""5"",""17906""
","
","
","""event"",""trial"",""time""
""fullscreenenter"",""5"",""17906""
","
",NA,NA,NA,NA,NA,NA,NA,NA,NA,NA,NA,NA,NA,NA,NA,NA,NA,NA,NA,NA,NA,NA,sub8
d3-instructions,57,376920,0.0-57.0,TRUE,FALSE,TRUE,FALSE,"""event"",""trial"",""time""
""fullscreenenter"",""5"",""17906""
","
","
","""event"",""trial"",""time""
""fullscreenenter"",""5"",""17906""
","
",NA,NA,NA,NA,NA,NA,NA,NA,NA,NA,NA,NA,NA,NA,NA,NA,NA,NA,NA,NA,NA,NA,sub8
d3-instructions,58,388504,0.0-58.0,TRUE,FALSE,TRUE,FALSE,"""event"",""trial"",""time""
""fullscreenenter"",""5"",""17906""
","
","
","""event"",""trial"",""time""
""fullscreenenter"",""5"",""17906""
","
",NA,NA,NA,NA,NA,NA,NA,NA,NA,NA,NA,NA,NA,NA,NA,NA,NA,NA,NA,NA,NA,NA,sub8
d3-instructions,59,394416,0.0-59.0,TRUE,FALSE,TRUE,FALSE,"""event"",""trial"",""time""
""fullscreenenter"",""5"",""17906""
","
","
","""event"",""trial"",""time""
""fullscreenenter"",""5"",""17906""
","
",NA,NA,NA,NA,NA,NA,NA,NA,NA,NA,NA,NA,NA,NA,NA,NA,NA,NA,NA,NA,NA,NA,sub8
d3-instructions,60,401385,0.0-60.0,TRUE,FALSE,TRUE,FALSE,"""event"",""trial"",""time""
""fullscreenenter"",""5"",""17906""
","
","
","""event"",""trial"",""time""
""fullscreenenter"",""5"",""17906""
","
",NA,NA,NA,NA,NA,NA,NA,NA,NA,NA,NA,NA,NA,NA,NA,NA,NA,NA,NA,NA,NA,NA,sub8
d3-animate-choice,61,404353,0.0-61.0-0.0,TRUE,FALSE,TRUE,FALSE,"""event"",""trial"",""time""
""fullscreenenter"",""5"",""17906""
","
","
","""event"",""trial"",""time""
""fullscreenenter"",""5"",""17906""
","
",966.3799999980256,NA,49,NA,NA,3000,1,NA,NA,images/earth.jpg,images/tutrocket2,images/tutrocket1,null,images/tutrocket1,NA,1,practice,null,1,NA,NA,NA,sub8
d3-animate-choice,62,407450,0.0-61.0-1.0,TRUE,FALSE,TRUE,FALSE,"""event"",""trial"",""time""
""fullscreenenter"",""5"",""17906""
","
","
","""event"",""trial"",""time""
""fullscreenenter"",""5"",""17906""
","
",1092.9299999843352,NA,49,NA,NA,3000,1,NA,NA,images/tutgreenplanet.jpg,images/tutalien2,images/tutalien1,images/tutrocket1,images/tutalien1,images/nothing.png,2,practice,false,1,rare,0,2020-06-09T18:13:26Z,sub8
two-step-fixation,63,408453,0.0-61.0-2.0,TRUE,FALSE,TRUE,FALSE,"""event"",""trial"",""time""
""fullscreenenter"",""5"",""17906""
","
","
","""event"",""trial"",""time""
""fullscreenenter"",""5"",""17906""
","
",NA,images/earth.jpg,NA,NA,NA,NA,NA,NA,NA,NA,NA,NA,NA,NA,NA,fixation,NA,NA,NA,NA,NA,NA,sub8
d3-animate-choice,64,410817,0.0-61.0-0.1,TRUE,FALSE,TRUE,FALSE,"""event"",""trial"",""time""
""fullscreenenter"",""5"",""17906""
","
","
","""event"",""trial"",""time""
""fullscreenenter"",""5"",""17906""
","
",361.7099999682978,NA,49,NA,NA,3000,1,NA,NA,images/earth.jpg,images/tutrocket2,images/tutrocket1,null,images/tutrocket1,NA,1,practice,null,1,NA,NA,NA,sub8
d3-animate-choice,65,414266,0.0-61.0-1.1,TRUE,FALSE,TRUE,FALSE,"""event"",""trial"",""time""
""fullscreenenter"",""5"",""17906""
","
","
","""event"",""trial"",""time""
""fullscreenenter"",""5"",""17906""
","
",1446.6799999936484,NA,48,NA,NA,3000,1,NA,NA,images/tutgreenplanet.jpg,images/tutalien2,images/tutalien1,images/tutrocket1,images/tutalien2,images/nothing.png,2,practice,false,2,rare,0,2020-06-09T18:13:33Z,sub8
two-step-fixation,66,415268,0.0-61.0-2.1,TRUE,FALSE,TRUE,FALSE,"""event"",""trial"",""time""
""fullscreenenter"",""5"",""17906""
","
","
","""event"",""trial"",""time""
""fullscreenenter"",""5"",""17906""
","
",NA,images/earth.jpg,NA,NA,NA,NA,NA,NA,NA,NA,NA,NA,NA,NA,NA,fixation,NA,NA,NA,NA,NA,NA,sub8
d3-animate-choice,67,418721,0.0-61.0-0.2,TRUE,FALSE,TRUE,FALSE,"""event"",""trial"",""time""
""fullscreenenter"",""5"",""17906""
","
","
","""event"",""trial"",""time""
""fullscreenenter"",""5"",""17906""
","
",1451.0899999877438,NA,48,NA,NA,3000,1,NA,NA,images/earth.jpg,images/tutrocket2,images/tutrocket1,null,images/tutrocket2,NA,1,practice,null,2,NA,NA,NA,sub8
d3-animate-choice,68,421978,0.0-61.0-1.2,TRUE,FALSE,TRUE,FALSE,"""event"",""trial"",""time""
""fullscreenenter"",""5"",""17906""
","
","
","""event"",""trial"",""time""
""fullscreenenter"",""5"",""17906""
","
",1254.4149999739602,NA,48,NA,NA,3000,1,NA,NA,images/tutgreenplanet.jpg,images/tutalien2,images/tutalien1,images/tutrocket2,images/tutalien2,images/nothing.png,2,practice,true,2,common,0,2020-06-09T18:13:41Z,sub8
two-step-fixation,69,422979,0.0-61.0-2.2,TRUE,FALSE,TRUE,FALSE,"""event"",""trial"",""time""
""fullscreenenter"",""5"",""17906""
","
","
","""event"",""trial"",""time""
""fullscreenenter"",""5"",""17906""
","
",NA,images/earth.jpg,NA,NA,NA,NA,NA,NA,NA,NA,NA,NA,NA,NA,NA,fixation,NA,NA,NA,NA,NA,NA,sub8
d3-animate-choice,70,425882,0.0-61.0-0.3,TRUE,FALSE,TRUE,FALSE,"""event"",""trial"",""time""
""fullscreenenter"",""5"",""17906""
","
","
","""event"",""trial"",""time""
""fullscreenenter"",""5"",""17906""
","
",899.9650000478141,NA,48,NA,NA,3000,1,NA,NA,images/earth.jpg,images/tutrocket2,images/tutrocket1,null,images/tutrocket2,NA,1,practice,null,2,NA,NA,NA,sub8
d3-animate-choice,71,429081,0.0-61.0-1.3,TRUE,FALSE,TRUE,FALSE,"""event"",""trial"",""time""
""fullscreenenter"",""5"",""17906""
","
","
","""event"",""trial"",""time""
""fullscreenenter"",""5"",""17906""
","
",1197.2250000108033,NA,49,NA,NA,3000,1,NA,NA,images/tutyellowplanet.jpg,images/tutalien4,images/tutalien3,images/tutrocket2,images/tutalien3,images/nothing.png,2,practice,false,1,rare,0,2020-06-09T18:13:48Z,sub8
two-step-fixation,72,430084,0.0-61.0-2.3,TRUE,FALSE,TRUE,FALSE,"""event"",""trial"",""time""
""fullscreenenter"",""5"",""17906""
","
","
","""event"",""trial"",""time""
""fullscreenenter"",""5"",""17906""
","
",NA,images/earth.jpg,NA,NA,NA,NA,NA,NA,NA,NA,NA,NA,NA,NA,NA,fixation,NA,NA,NA,NA,NA,NA,sub8
d3-animate-choice,73,432800,0.0-61.0-0.4,TRUE,FALSE,TRUE,FALSE,"""event"",""trial"",""time""
""fullscreenenter"",""5"",""17906""
","
","
","""event"",""trial"",""time""
""fullscreenenter"",""5"",""17906""
","
",715.1799999992363,NA,48,NA,NA,3000,1,NA,NA,images/earth.jpg,images/tutrocket2,images/tutrocket1,null,images/tutrocket2,NA,1,practice,null,2,NA,NA,NA,sub8
d3-animate-choice,74,435490,0.0-61.0-1.4,TRUE,FALSE,TRUE,FALSE,"""event"",""trial"",""time""
""fullscreenenter"",""5"",""17906""
","
","
","""event"",""trial"",""time""
""fullscreenenter"",""5"",""17906""
","
",687.3499999637716,NA,48,NA,NA,3000,1,NA,NA,images/tutgreenplanet.jpg,images/tutalien2,images/tutalien1,images/tutrocket2,images/tutalien2,images/t.png,2,practice,true,2,common,1,2020-06-09T18:13:54Z,sub8
two-step-fixation,75,436492,0.0-61.0-2.4,TRUE,FALSE,TRUE,FALSE,"""event"",""trial"",""time""
""fullscreenenter"",""5"",""17906""
","
","
","""event"",""trial"",""time""
""fullscreenenter"",""5"",""17906""
","
",NA,images/earth.jpg,NA,NA,NA,NA,NA,NA,NA,NA,NA,NA,NA,NA,NA,fixation,NA,NA,NA,NA,NA,NA,sub8
d3-animate-choice,76,439289,0.0-61.0-0.5,TRUE,FALSE,TRUE,FALSE,"""event"",""trial"",""time""
""fullscreenenter"",""5"",""17906""
","
","
","""event"",""trial"",""time""
""fullscreenenter"",""5"",""17906""
","
",794.3300000042655,NA,48,NA,NA,3000,1,NA,NA,images/earth.jpg,images/tutrocket2,images/tutrocket1,null,images/tutrocket2,NA,1,practice,null,2,NA,NA,NA,sub8
d3-animate-choice,77,442153,0.0-61.0-1.5,TRUE,FALSE,TRUE,FALSE,"""event"",""trial"",""time""
""fullscreenenter"",""5"",""17906""
","
","
","""event"",""trial"",""time""
""fullscreenenter"",""5"",""17906""
","
",862.2050000121817,NA,48,NA,NA,3000,1,NA,NA,images/tutgreenplanet.jpg,images/tutalien2,images/tutalien1,images/tutrocket2,images/tutalien2,images/nothing.png,2,practice,true,2,common,0,2020-06-09T18:14:01Z,sub8
two-step-fixation,78,443156,0.0-61.0-2.5,TRUE,FALSE,TRUE,FALSE,"""event"",""trial"",""time""
""fullscreenenter"",""5"",""17906""
","
","
","""event"",""trial"",""time""
""fullscreenenter"",""5"",""17906""
","
",NA,images/earth.jpg,NA,NA,NA,NA,NA,NA,NA,NA,NA,NA,NA,NA,NA,fixation,NA,NA,NA,NA,NA,NA,sub8
d3-animate-choice,79,445825,0.0-61.0-0.6,TRUE,FALSE,TRUE,FALSE,"""event"",""trial"",""time""
""fullscreenenter"",""5"",""17906""
","
","
","""event"",""trial"",""time""
""fullscreenenter"",""5"",""17906""
","
",666.9049999909475,NA,48,NA,NA,3000,1,NA,NA,images/earth.jpg,images/tutrocket2,images/tutrocket1,null,images/tutrocket2,NA,1,practice,null,2,NA,NA,NA,sub8
d3-animate-choice,80,448721,0.0-61.0-1.6,TRUE,FALSE,TRUE,FALSE,"""event"",""trial"",""time""
""fullscreenenter"",""5"",""17906""
","
","
","""event"",""trial"",""time""
""fullscreenenter"",""5"",""17906""
","
",893.6700000194833,NA,49,NA,NA,3000,1,NA,NA,images/tutgreenplanet.jpg,images/tutalien2,images/tutalien1,images/tutrocket2,images/tutalien1,images/nothing.png,2,practice,true,1,common,0,2020-06-09T18:14:07Z,sub8
two-step-fixation,81,449723,0.0-61.0-2.6,TRUE,FALSE,TRUE,FALSE,"""event"",""trial"",""time""
""fullscreenenter"",""5"",""17906""
","
","
","""event"",""trial"",""time""
""fullscreenenter"",""5"",""17906""
","
",NA,images/earth.jpg,NA,NA,NA,NA,NA,NA,NA,NA,NA,NA,NA,NA,NA,fixation,NA,NA,NA,NA,NA,NA,sub8
d3-animate-choice,82,452305,0.0-61.0-0.7,TRUE,FALSE,TRUE,FALSE,"""event"",""trial"",""time""
""fullscreenenter"",""5"",""17906""
","
","
","""event"",""trial"",""time""
""fullscreenenter"",""5"",""17906""
","
",580.3949999972247,NA,48,NA,NA,3000,1,NA,NA,images/earth.jpg,images/tutrocket2,images/tutrocket1,null,images/tutrocket2,NA,1,practice,null,2,NA,NA,NA,sub8
d3-animate-choice,83,454937,0.0-61.0-1.7,TRUE,FALSE,TRUE,FALSE,"""event"",""trial"",""time""
""fullscreenenter"",""5"",""17906""
","
","
","""event"",""trial"",""time""
""fullscreenenter"",""5"",""17906""
","
",629.7599999816157,NA,49,NA,NA,3000,1,NA,NA,images/tutgreenplanet.jpg,images/tutalien2,images/tutalien1,images/tutrocket2,images/tutalien1,images/t.png,2,practice,true,1,common,1,2020-06-09T18:14:13Z,sub8
two-step-fixation,84,455939,0.0-61.0-2.7,TRUE,FALSE,TRUE,FALSE,"""event"",""trial"",""time""
""fullscreenenter"",""5"",""17906""
","
","
","""event"",""trial"",""time""
""fullscreenenter"",""5"",""17906""
","
",NA,images/earth.jpg,NA,NA,NA,NA,NA,NA,NA,NA,NA,NA,NA,NA,NA,fixation,NA,NA,NA,NA,NA,NA,sub8
d3-animate-choice,85,459513,0.0-61.0-0.8,TRUE,FALSE,TRUE,FALSE,"""event"",""trial"",""time""
""fullscreenenter"",""5"",""17906""
","
","
","""event"",""trial"",""time""
""fullscreenenter"",""5"",""17906""
","
",1572.0349999610335,NA,49,NA,NA,3000,1,NA,NA,images/earth.jpg,images/tutrocket2,images/tutrocket1,null,images/tutrocket1,NA,1,practice,null,1,NA,NA,NA,sub8
d3-animate-choice,86,462313,0.0-61.0-1.8,TRUE,FALSE,TRUE,FALSE,"""event"",""trial"",""time""
""fullscreenenter"",""5"",""17906""
","
","
","""event"",""trial"",""time""
""fullscreenenter"",""5"",""17906""
","
",797.7450000471435,NA,48,NA,NA,3000,1,NA,NA,images/tutyellowplanet.jpg,images/tutalien4,images/tutalien3,images/tutrocket1,images/tutalien4,images/t.png,2,practice,true,2,common,1,2020-06-09T18:14:21Z,sub8
two-step-fixation,87,463314,0.0-61.0-2.8,TRUE,FALSE,TRUE,FALSE,"""event"",""trial"",""time""
""fullscreenenter"",""5"",""17906""
","
","
","""event"",""trial"",""time""
""fullscreenenter"",""5"",""17906""
","
",NA,images/earth.jpg,NA,NA,NA,NA,NA,NA,NA,NA,NA,NA,NA,NA,NA,fixation,NA,NA,NA,NA,NA,NA,sub8
d3-animate-choice,88,465880,0.0-61.0-0.9,TRUE,FALSE,TRUE,FALSE,"""event"",""trial"",""time""
""fullscreenenter"",""5"",""17906""
","
","
","""event"",""trial"",""time""
""fullscreenenter"",""5"",""17906""
","
",564.0649999841116,NA,49,NA,NA,3000,1,NA,NA,images/earth.jpg,images/tutrocket2,images/tutrocket1,null,images/tutrocket1,NA,1,practice,null,1,NA,NA,NA,sub8
d3-animate-choice,89,468473,0.0-61.0-1.9,TRUE,FALSE,TRUE,FALSE,"""event"",""trial"",""time""
""fullscreenenter"",""5"",""17906""
","
","
","""event"",""trial"",""time""
""fullscreenenter"",""5"",""17906""
","
",590.7899999874644,NA,48,NA,NA,3000,1,NA,NA,images/tutyellowplanet.jpg,images/tutalien4,images/tutalien3,images/tutrocket1,images/tutalien4,images/nothing.png,2,practice,true,2,common,0,2020-06-09T18:14:27Z,sub8
two-step-fixation,90,469476,0.0-61.0-2.9,TRUE,FALSE,TRUE,FALSE,"""event"",""trial"",""time""
""fullscreenenter"",""5"",""17906""
","
","
","""event"",""trial"",""time""
""fullscreenenter"",""5"",""17906""
","
",NA,images/earth.jpg,NA,NA,NA,NA,NA,NA,NA,NA,NA,NA,NA,NA,NA,fixation,NA,NA,NA,NA,NA,NA,sub8
d3-animate-choice,91,472201,0.0-61.0-0.10,TRUE,FALSE,TRUE,FALSE,"""event"",""trial"",""time""
""fullscreenenter"",""5"",""17906""
","
","
","""event"",""trial"",""time""
""fullscreenenter"",""5"",""17906""
","
",722.2500000498258,NA,49,NA,NA,3000,1,NA,NA,images/earth.jpg,images/tutrocket2,images/tutrocket1,null,images/tutrocket1,NA,1,practice,null,1,NA,NA,NA,sub8
d3-animate-choice,92,475298,0.0-61.0-1.10,TRUE,FALSE,TRUE,FALSE,"""event"",""trial"",""time""
""fullscreenenter"",""5"",""17906""
","
","
","""event"",""trial"",""time""
""fullscreenenter"",""5"",""17906""
","
",1094.855000032112,NA,49,NA,NA,3000,1,NA,NA,images/tutyellowplanet.jpg,images/tutalien4,images/tutalien3,images/tutrocket1,images/tutalien3,images/nothing.png,2,practice,true,1,common,0,2020-06-09T18:14:34Z,sub8
two-step-fixation,93,476299,0.0-61.0-2.10,TRUE,FALSE,TRUE,FALSE,"""event"",""trial"",""time""
""fullscreenenter"",""5"",""17906""
","
","
","""event"",""trial"",""time""
""fullscreenenter"",""5"",""17906""
","
",NA,images/earth.jpg,NA,NA,NA,NA,NA,NA,NA,NA,NA,NA,NA,NA,NA,fixation,NA,NA,NA,NA,NA,NA,sub8
d3-animate-choice,94,478857,0.0-61.0-0.11,TRUE,FALSE,TRUE,FALSE,"""event"",""trial"",""time""
""fullscreenenter"",""5"",""17906""
","
","
","""event"",""trial"",""time""
""fullscreenenter"",""5"",""17906""
","
",555.0400000065565,NA,49,NA,NA,3000,1,NA,NA,images/earth.jpg,images/tutrocket2,images/tutrocket1,null,images/tutrocket1,NA,1,practice,null,1,NA,NA,NA,sub8
d3-animate-choice,95,481361,0.0-61.0-1.11,TRUE,FALSE,TRUE,FALSE,"""event"",""trial"",""time""
""fullscreenenter"",""5"",""17906""
","
","
","""event"",""trial"",""time""
""fullscreenenter"",""5"",""17906""
","
",501.6099999775179,NA,48,NA,NA,3000,1,NA,NA,images/tutyellowplanet.jpg,images/tutalien4,images/tutalien3,images/tutrocket1,images/tutalien4,images/nothing.png,2,practice,true,2,common,0,2020-06-09T18:14:40Z,sub8
two-step-fixation,96,482363,0.0-61.0-2.11,TRUE,FALSE,TRUE,FALSE,"""event"",""trial"",""time""
""fullscreenenter"",""5"",""17906""
","
","
","""event"",""trial"",""time""
""fullscreenenter"",""5"",""17906""
","
",NA,images/earth.jpg,NA,NA,NA,NA,NA,NA,NA,NA,NA,NA,NA,NA,NA,fixation,NA,NA,NA,NA,NA,NA,sub8
d3-animate-choice,97,485066,0.0-61.0-0.12,TRUE,FALSE,TRUE,FALSE,"""event"",""trial"",""time""
""fullscreenenter"",""5"",""17906""
","
","
","""event"",""trial"",""time""
""fullscreenenter"",""5"",""17906""
","
",699.8899999889545,NA,49,NA,NA,3000,1,NA,NA,images/earth.jpg,images/tutrocket2,images/tutrocket1,null,images/tutrocket1,NA,1,practice,null,1,NA,NA,NA,sub8
d3-animate-choice,98,487410,0.0-61.0-1.12,TRUE,FALSE,TRUE,FALSE,"""event"",""trial"",""time""
""fullscreenenter"",""5"",""17906""
","
","
","""event"",""trial"",""time""
""fullscreenenter"",""5"",""17906""
","
",342.0449999975972,NA,49,NA,NA,3000,1,NA,NA,images/tutyellowplanet.jpg,images/tutalien4,images/tutalien3,images/tutrocket1,images/tutalien3,images/t.png,2,practice,true,1,common,1,2020-06-09T18:14:46Z,sub8
two-step-fixation,99,488412,0.0-61.0-2.12,TRUE,FALSE,TRUE,FALSE,"""event"",""trial"",""time""
""fullscreenenter"",""5"",""17906""
","
","
","""event"",""trial"",""time""
""fullscreenenter"",""5"",""17906""
","
",NA,images/earth.jpg,NA,NA,NA,NA,NA,NA,NA,NA,NA,NA,NA,NA,NA,fixation,NA,NA,NA,NA,NA,NA,sub8
d3-animate-choice,100,490985,0.0-61.0-0.13,TRUE,FALSE,TRUE,FALSE,"""event"",""trial"",""time""
""fullscreenenter"",""5"",""17906""
","
","
","""event"",""trial"",""time""
""fullscreenenter"",""5"",""17906""
","
",570.6399999908172,NA,49,NA,NA,3000,1,NA,NA,images/earth.jpg,images/tutrocket2,images/tutrocket1,null,images/tutrocket1,NA,1,practice,null,1,NA,NA,NA,sub8
d3-animate-choice,101,493466,0.0-61.0-1.13,TRUE,FALSE,TRUE,FALSE,"""event"",""trial"",""time""
""fullscreenenter"",""5"",""17906""
","
","
","""event"",""trial"",""time""
""fullscreenenter"",""5"",""17906""
","
",478.40000002179295,NA,49,NA,NA,3000,1,NA,NA,images/tutyellowplanet.jpg,images/tutalien4,images/tutalien3,images/tutrocket1,images/tutalien3,images/t.png,2,practice,true,1,common,1,2020-06-09T18:14:52Z,sub8
two-step-fixation,102,494468,0.0-61.0-2.13,TRUE,FALSE,TRUE,FALSE,"""event"",""trial"",""time""
""fullscreenenter"",""5"",""17906""
","
","
","""event"",""trial"",""time""
""fullscreenenter"",""5"",""17906""
","
",NA,images/earth.jpg,NA,NA,NA,NA,NA,NA,NA,NA,NA,NA,NA,NA,NA,fixation,NA,NA,NA,NA,NA,NA,sub8
d3-animate-choice,103,497050,0.0-61.0-0.14,TRUE,FALSE,TRUE,FALSE,"""event"",""trial"",""time""
""fullscreenenter"",""5"",""17906""
","
","
","""event"",""trial"",""time""
""fullscreenenter"",""5"",""17906""
","
",579.6850000042468,NA,49,NA,NA,3000,1,NA,NA,images/earth.jpg,images/tutrocket2,images/tutrocket1,null,images/tutrocket1,NA,1,practice,null,1,NA,NA,NA,sub8
d3-animate-choice,104,499586,0.0-61.0-1.14,TRUE,FALSE,TRUE,FALSE,"""event"",""trial"",""time""
""fullscreenenter"",""5"",""17906""
","
","
","""event"",""trial"",""time""
""fullscreenenter"",""5"",""17906""
","
",534.2950000194833,NA,49,NA,NA,3000,1,NA,NA,images/tutyellowplanet.jpg,images/tutalien4,images/tutalien3,images/tutrocket1,images/tutalien3,images/t.png,2,practice,true,1,common,1,2020-06-09T18:14:58Z,sub8
two-step-fixation,105,500588,0.0-61.0-2.14,TRUE,FALSE,TRUE,FALSE,"""event"",""trial"",""time""
""fullscreenenter"",""5"",""17906""
","
","
","""event"",""trial"",""time""
""fullscreenenter"",""5"",""17906""
","
",NA,images/earth.jpg,NA,NA,NA,NA,NA,NA,NA,NA,NA,NA,NA,NA,NA,fixation,NA,NA,NA,NA,NA,NA,sub8
d3-animate-choice,106,503193,0.0-61.0-0.15,TRUE,FALSE,TRUE,FALSE,"""event"",""trial"",""time""
""fullscreenenter"",""5"",""17906""
","
","
","""event"",""trial"",""time""
""fullscreenenter"",""5"",""17906""
","
",602.405000012368,NA,48,NA,NA,3000,1,NA,NA,images/earth.jpg,images/tutrocket2,images/tutrocket1,null,images/tutrocket2,NA,1,practice,null,2,NA,NA,NA,sub8
d3-animate-choice,107,505928,0.0-61.0-1.15,TRUE,FALSE,TRUE,FALSE,"""event"",""trial"",""time""
""fullscreenenter"",""5"",""17906""
","
","
","""event"",""trial"",""time""
""fullscreenenter"",""5"",""17906""
","
",733.4549999795854,NA,49,NA,NA,3000,1,NA,NA,images/tutgreenplanet.jpg,images/tutalien2,images/tutalien1,images/tutrocket2,images/tutalien1,images/nothing.png,2,practice,true,1,common,0,2020-06-09T18:15:04Z,sub8
two-step-fixation,108,506930,0.0-61.0-2.15,TRUE,FALSE,TRUE,FALSE,"""event"",""trial"",""time""
""fullscreenenter"",""5"",""17906""
","
","
","""event"",""trial"",""time""
""fullscreenenter"",""5"",""17906""
","
",NA,images/earth.jpg,NA,NA,NA,NA,NA,NA,NA,NA,NA,NA,NA,NA,NA,fixation,NA,NA,NA,NA,NA,NA,sub8
d3-animate-choice,109,509289,0.0-61.0-0.16,TRUE,FALSE,TRUE,FALSE,"""event"",""trial"",""time""
""fullscreenenter"",""5"",""17906""
","
","
","""event"",""trial"",""time""
""fullscreenenter"",""5"",""17906""
","
",356.3950000097975,NA,48,NA,NA,3000,1,NA,NA,images/earth.jpg,images/tutrocket2,images/tutrocket1,null,images/tutrocket2,NA,1,practice,null,2,NA,NA,NA,sub8
d3-animate-choice,110,512474,0.0-61.0-1.16,TRUE,FALSE,TRUE,FALSE,"""event"",""trial"",""time""
""fullscreenenter"",""5"",""17906""
","
","
","""event"",""trial"",""time""
""fullscreenenter"",""5"",""17906""
","
",1182.1650000056252,NA,49,NA,NA,3000,1,NA,NA,images/tutyellowplanet.jpg,images/tutalien4,images/tutalien3,images/tutrocket2,images/tutalien3,images/t.png,2,practice,false,1,rare,1,2020-06-09T18:15:11Z,sub8
two-step-fixation,111,513476,0.0-61.0-2.16,TRUE,FALSE,TRUE,FALSE,"""event"",""trial"",""time""
""fullscreenenter"",""5"",""17906""
","
","
","""event"",""trial"",""time""
""fullscreenenter"",""5"",""17906""
","
",NA,images/earth.jpg,NA,NA,NA,NA,NA,NA,NA,NA,NA,NA,NA,NA,NA,fixation,NA,NA,NA,NA,NA,NA,sub8
d3-animate-choice,112,515833,0.0-61.0-0.17,TRUE,FALSE,TRUE,FALSE,"""event"",""trial"",""time""
""fullscreenenter"",""5"",""17906""
","
","
","""event"",""trial"",""time""
""fullscreenenter"",""5"",""17906""
","
",354.38500001328066,NA,48,NA,NA,3000,1,NA,NA,images/earth.jpg,images/tutrocket2,images/tutrocket1,null,images/tutrocket2,NA,1,practice,null,2,NA,NA,NA,sub8
d3-animate-choice,113,518625,0.0-61.0-1.17,TRUE,FALSE,TRUE,FALSE,"""event"",""trial"",""time""
""fullscreenenter"",""5"",""17906""
","
","
","""event"",""trial"",""time""
""fullscreenenter"",""5"",""17906""
","
",789.8600000189617,NA,48,NA,NA,3000,1,NA,NA,images/tutgreenplanet.jpg,images/tutalien2,images/tutalien1,images/tutrocket2,images/tutalien2,images/t.png,2,practice,true,2,common,1,2020-06-09T18:15:17Z,sub8
two-step-fixation,114,519627,0.0-61.0-2.17,TRUE,FALSE,TRUE,FALSE,"""event"",""trial"",""time""
""fullscreenenter"",""5"",""17906""
","
","
","""event"",""trial"",""time""
""fullscreenenter"",""5"",""17906""
","
",NA,images/earth.jpg,NA,NA,NA,NA,NA,NA,NA,NA,NA,NA,NA,NA,NA,fixation,NA,NA,NA,NA,NA,NA,sub8
d3-animate-choice,115,522065,0.0-61.0-0.18,TRUE,FALSE,TRUE,FALSE,"""event"",""trial"",""time""
""fullscreenenter"",""5"",""17906""
","
","
","""event"",""trial"",""time""
""fullscreenenter"",""5"",""17906""
","
",435.1100000203587,NA,48,NA,NA,3000,1,NA,NA,images/earth.jpg,images/tutrocket2,images/tutrocket1,null,images/tutrocket2,NA,1,practice,null,2,NA,NA,NA,sub8
d3-animate-choice,116,524641,0.0-61.0-1.18,TRUE,FALSE,TRUE,FALSE,"""event"",""trial"",""time""
""fullscreenenter"",""5"",""17906""
","
","
","""event"",""trial"",""time""
""fullscreenenter"",""5"",""17906""
","
",573.6299999989569,NA,48,NA,NA,3000,1,NA,NA,images/tutgreenplanet.jpg,images/tutalien2,images/tutalien1,images/tutrocket2,images/tutalien2,images/nothing.png,2,practice,true,2,common,0,2020-06-09T18:15:23Z,sub8
two-step-fixation,117,525643,0.0-61.0-2.18,TRUE,FALSE,TRUE,FALSE,"""event"",""trial"",""time""
""fullscreenenter"",""5"",""17906""
","
","
","""event"",""trial"",""time""
""fullscreenenter"",""5"",""17906""
","
",NA,images/earth.jpg,NA,NA,NA,NA,NA,NA,NA,NA,NA,NA,NA,NA,NA,fixation,NA,NA,NA,NA,NA,NA,sub8
d3-animate-choice,118,527953,0.0-61.0-0.19,TRUE,FALSE,TRUE,FALSE,"""event"",""trial"",""time""
""fullscreenenter"",""5"",""17906""
","
","
","""event"",""trial"",""time""
""fullscreenenter"",""5"",""17906""
","
",307.0949999964796,NA,49,NA,NA,3000,1,NA,NA,images/earth.jpg,images/tutrocket2,images/tutrocket1,null,images/tutrocket1,NA,1,practice,null,1,NA,NA,NA,sub8
d3-animate-choice,119,530913,0.0-61.0-1.19,TRUE,FALSE,TRUE,FALSE,"""event"",""trial"",""time""
""fullscreenenter"",""5"",""17906""
","
","
","""event"",""trial"",""time""
""fullscreenenter"",""5"",""17906""
","
",957.9899999662302,NA,48,NA,NA,3000,1,NA,NA,images/tutgreenplanet.jpg,images/tutalien2,images/tutalien1,images/tutrocket1,images/tutalien2,images/nothing.png,2,practice,false,2,rare,0,2020-06-09T18:15:29Z,sub8
two-step-fixation,120,531915,0.0-61.0-2.19,TRUE,FALSE,TRUE,FALSE,"""event"",""trial"",""time""
""fullscreenenter"",""5"",""17906""
","
","
","""event"",""trial"",""time""
""fullscreenenter"",""5"",""17906""
","
",NA,images/earth.jpg,NA,NA,NA,NA,NA,NA,NA,NA,NA,NA,NA,NA,NA,fixation,NA,NA,NA,NA,NA,NA,sub8
d3-instructions,121,539224,0.0-62.0,TRUE,FALSE,TRUE,FALSE,"""event"",""trial"",""time""
""fullscreenenter"",""5"",""17906""
","
","
","""event"",""trial"",""time""
""fullscreenenter"",""5"",""17906""
","
",NA,NA,NA,NA,NA,NA,NA,NA,NA,NA,NA,NA,NA,NA,NA,NA,NA,NA,NA,NA,NA,NA,sub8
audio-keyboard-response,122,544303,0.0-63.0,TRUE,FALSE,TRUE,FALSE,"""event"",""trial"",""time""
""fullscreenenter"",""5"",""17906""
","
","
","""event"",""trial"",""time""
""fullscreenenter"",""5"",""17906""
","
",5079,audio/instructions/treasure_feedback.wav,32,NA,NA,NA,NA,NA,NA,NA,NA,NA,NA,NA,NA,NA,NA,NA,NA,NA,NA,NA,sub8
d3-instructions,123,564104,0.0-64.0,TRUE,FALSE,TRUE,FALSE,"""event"",""trial"",""time""
""fullscreenenter"",""5"",""17906""
","
","
","""event"",""trial"",""time""
""fullscreenenter"",""5"",""17906""
","
",NA,NA,NA,NA,NA,NA,NA,NA,NA,NA,NA,NA,NA,NA,NA,NA,NA,NA,NA,NA,NA,NA,sub8
d3-instructions,124,578368,0.0-65.0,TRUE,FALSE,TRUE,FALSE,"""event"",""trial"",""time""
""fullscreenenter"",""5"",""17906""
","
","
","""event"",""trial"",""time""
""fullscreenenter"",""5"",""17906""
","
",NA,NA,NA,NA,NA,NA,NA,NA,NA,NA,NA,NA,NA,NA,NA,NA,NA,NA,NA,NA,NA,NA,sub8
d3-instructions,125,603039,0.0-66.0,TRUE,FALSE,TRUE,FALSE,"""event"",""trial"",""time""
""fullscreenenter"",""5"",""17906""
","
","
","""event"",""trial"",""time""
""fullscreenenter"",""5"",""17906""
","
",NA,NA,NA,NA,NA,NA,NA,NA,NA,NA,NA,NA,NA,NA,NA,NA,NA,NA,NA,NA,NA,NA,sub8
d3-instructions,126,619223,0.0-67.0,TRUE,FALSE,TRUE,FALSE,"""event"",""trial"",""time""
""fullscreenenter"",""5"",""17906""
","
","
","""event"",""trial"",""time""
""fullscreenenter"",""5"",""17906""
","
",NA,NA,NA,NA,NA,NA,NA,NA,NA,NA,NA,NA,NA,NA,NA,NA,NA,NA,NA,NA,NA,NA,sub8
d3-instructions,127,628264,0.0-68.0,TRUE,FALSE,TRUE,FALSE,"""event"",""trial"",""time""
""fullscreenenter"",""5"",""17906""
","
","
","""event"",""trial"",""time""
""fullscreenenter"",""5"",""17906""
","
",NA,NA,NA,NA,NA,NA,NA,NA,NA,NA,NA,NA,NA,NA,NA,NA,NA,NA,NA,NA,NA,NA,sub8
instructions-quiz,128,633458,0.0-69.0,TRUE,FALSE,TRUE,FALSE,"""event"",""trial"",""time""
""fullscreenenter"",""5"",""17906""
","
","
","""event"",""trial"",""time""
""fullscreenenter"",""5"",""17906""
","
",5193.325000000186,audio/quiz/Q1_Prompt.wav,NA,1,NA,NA,NA,NA,NA,NA,NA,NA,NA,NA,NA,NA,NA,NA,NA,NA,NA,NA,sub8
audio-keyboard-response,129,642622,0.0-70.0,TRUE,FALSE,TRUE,FALSE,"""event"",""trial"",""time""
""fullscreenenter"",""5"",""17906""
","
","
","""event"",""trial"",""time""
""fullscreenenter"",""5"",""17906""
","
",null,audio/quiz/Q1_Correct.wav,null,NA,NA,NA,NA,NA,NA,NA,NA,NA,NA,NA,NA,NA,NA,NA,NA,NA,NA,NA,sub8
instructions-quiz,130,652105,0.0-71.0,TRUE,FALSE,TRUE,FALSE,"""event"",""trial"",""time""
""fullscreenenter"",""5"",""17906""
","
","
","""event"",""trial"",""time""
""fullscreenenter"",""5"",""17906""
","
",9482.230000023264,audio/quiz/Q2_Prompt.wav,NA,0,NA,NA,NA,NA,NA,NA,NA,NA,NA,NA,NA,NA,NA,NA,NA,NA,NA,NA,sub8
audio-keyboard-response,131,664972,0.0-72.0,TRUE,FALSE,TRUE,FALSE,"""event"",""trial"",""time""
""fullscreenenter"",""5"",""17906""
","
","
","""event"",""trial"",""time""
""fullscreenenter"",""5"",""17906""
","
",null,audio/quiz/Q2_Correct.wav,null,NA,NA,NA,NA,NA,NA,NA,NA,NA,NA,NA,NA,NA,NA,NA,NA,NA,NA,NA,sub8
instructions-quiz,132,670029,0.0-73.0,TRUE,FALSE,TRUE,FALSE,"""event"",""trial"",""time""
""fullscreenenter"",""5"",""17906""
","
","
","""event"",""trial"",""time""
""fullscreenenter"",""5"",""17906""
","
",5056.304999976419,audio/quiz/Q3_Prompt.wav,NA,1,NA,NA,NA,NA,NA,NA,NA,NA,NA,NA,NA,NA,NA,NA,NA,NA,NA,NA,sub8
audio-keyboard-response,133,675823,0.0-74.0,TRUE,FALSE,TRUE,FALSE,"""event"",""trial"",""time""
""fullscreenenter"",""5"",""17906""
","
","
","""event"",""trial"",""time""
""fullscreenenter"",""5"",""17906""
","
",null,audio/quiz/Q3_Correct.wav,null,NA,NA,NA,NA,NA,NA,NA,NA,NA,NA,NA,NA,NA,NA,NA,NA,NA,NA,NA,sub8
d3-instructions,134,689815,0.0-75.0,TRUE,FALSE,TRUE,FALSE,"""event"",""trial"",""time""
""fullscreenenter"",""5"",""17906""
","
","
","""event"",""trial"",""time""
""fullscreenenter"",""5"",""17906""
","
",NA,NA,NA,NA,NA,NA,NA,NA,NA,NA,NA,NA,NA,NA,NA,NA,NA,NA,NA,NA,NA,NA,sub8
d3-animate-choice,135,692840,0.0-76.0-0.0,TRUE,FALSE,TRUE,FALSE,"""event"",""trial"",""time""
""fullscreenenter"",""5"",""17906""
","
","
","""event"",""trial"",""time""
""fullscreenenter"",""5"",""17906""
","
",1023.1000000494532,NA,49,NA,NA,3000,1,NA,NA,images/earth.jpg,images/rocket2,images/rocket1,null,images/rocket1,NA,1,real,null,1,NA,NA,NA,sub8
d3-animate-choice,136,695744,0.0-76.0-1.0,TRUE,FALSE,TRUE,FALSE,"""event"",""trial"",""time""
""fullscreenenter"",""5"",""17906""
","
","
","""event"",""trial"",""time""
""fullscreenenter"",""5"",""17906""
","
",901.0899999993853,NA,49,NA,NA,3000,1,NA,NA,images/redplanet1.jpg,images/alien2,images/alien1,images/rocket1,images/alien1,images/nothing.png,2,real,false,1,rare,0,2020-06-09T18:18:14Z,sub8
two-step-fixation,137,696746,0.0-76.0-2.0,TRUE,FALSE,TRUE,FALSE,"""event"",""trial"",""time""
""fullscreenenter"",""5"",""17906""
","
","
","""event"",""trial"",""time""
""fullscreenenter"",""5"",""17906""
","
",NA,images/earth.jpg,NA,NA,NA,NA,NA,NA,NA,NA,NA,NA,NA,NA,NA,fixation,NA,NA,NA,NA,NA,NA,sub8
d3-animate-choice,138,699201,0.0-76.0-0.1,TRUE,FALSE,TRUE,FALSE,"""event"",""trial"",""time""
""fullscreenenter"",""5"",""17906""
","
","
","""event"",""trial"",""time""
""fullscreenenter"",""5"",""17906""
","
",451.679999998305,NA,49,NA,NA,3000,1,NA,NA,images/earth.jpg,images/rocket2,images/rocket1,null,images/rocket1,NA,1,real,null,1,NA,NA,NA,sub8
d3-animate-choice,139,702401,0.0-76.0-1.1,TRUE,FALSE,TRUE,FALSE,"""event"",""trial"",""time""
""fullscreenenter"",""5"",""17906""
","
","
","""event"",""trial"",""time""
""fullscreenenter"",""5"",""17906""
","
",1197.4600000539795,NA,49,NA,NA,3000,1,NA,NA,images/purpleplanet.jpg,images/alien4,images/alien3,images/rocket1,images/alien3,images/nothing.png,2,real,true,1,common,0,2020-06-09T18:18:21Z,sub8
two-step-fixation,140,703403,0.0-76.0-2.1,TRUE,FALSE,TRUE,FALSE,"""event"",""trial"",""time""
""fullscreenenter"",""5"",""17906""
","
","
","""event"",""trial"",""time""
""fullscreenenter"",""5"",""17906""
","
",NA,images/earth.jpg,NA,NA,NA,NA,NA,NA,NA,NA,NA,NA,NA,NA,NA,fixation,NA,NA,NA,NA,NA,NA,sub8
d3-animate-choice,141,705897,0.0-76.0-0.2,TRUE,FALSE,TRUE,FALSE,"""event"",""trial"",""time""
""fullscreenenter"",""5"",""17906""
","
","
","""event"",""trial"",""time""
""fullscreenenter"",""5"",""17906""
","
",491.6999999550171,NA,49,NA,NA,3000,1,NA,NA,images/earth.jpg,images/rocket2,images/rocket1,null,images/rocket1,NA,1,real,null,1,NA,NA,NA,sub8
d3-animate-choice,142,708737,0.0-76.0-1.2,TRUE,FALSE,TRUE,FALSE,"""event"",""trial"",""time""
""fullscreenenter"",""5"",""17906""
","
","
","""event"",""trial"",""time""
""fullscreenenter"",""5"",""17906""
","
",837.264999980107,NA,48,NA,NA,3000,1,NA,NA,images/purpleplanet.jpg,images/alien4,images/alien3,images/rocket1,images/alien4,images/t.png,2,real,true,2,common,1,2020-06-09T18:18:27Z,sub8
two-step-fixation,143,709739,0.0-76.0-2.2,TRUE,FALSE,TRUE,FALSE,"""event"",""trial"",""time""
""fullscreenenter"",""5"",""17906""
","
","
","""event"",""trial"",""time""
""fullscreenenter"",""5"",""17906""
","
",NA,images/earth.jpg,NA,NA,NA,NA,NA,NA,NA,NA,NA,NA,NA,NA,NA,fixation,NA,NA,NA,NA,NA,NA,sub8
d3-animate-choice,144,712281,0.0-76.0-0.3,TRUE,FALSE,TRUE,FALSE,"""event"",""trial"",""time""
""fullscreenenter"",""5"",""17906""
","
","
","""event"",""trial"",""time""
""fullscreenenter"",""5"",""17906""
","
",540.0749999680556,NA,49,NA,NA,3000,1,NA,NA,images/earth.jpg,images/rocket2,images/rocket1,null,images/rocket1,NA,1,real,null,1,NA,NA,NA,sub8
d3-animate-choice,145,714705,0.0-76.0-1.3,TRUE,FALSE,TRUE,FALSE,"""event"",""trial"",""time""
""fullscreenenter"",""5"",""17906""
","
","
","""event"",""trial"",""time""
""fullscreenenter"",""5"",""17906""
","
",421.6049999813549,NA,48,NA,NA,3000,1,NA,NA,images/purpleplanet.jpg,images/alien4,images/alien3,images/rocket1,images/alien4,images/nothing.png,2,real,true,2,common,0,2020-06-09T18:18:33Z,sub8
two-step-fixation,146,715708,0.0-76.0-2.3,TRUE,FALSE,TRUE,FALSE,"""event"",""trial"",""time""
""fullscreenenter"",""5"",""17906""
","
","
","""event"",""trial"",""time""
""fullscreenenter"",""5"",""17906""
","
",NA,images/earth.jpg,NA,NA,NA,NA,NA,NA,NA,NA,NA,NA,NA,NA,NA,fixation,NA,NA,NA,NA,NA,NA,sub8
d3-animate-choice,147,718657,0.0-76.0-0.4,TRUE,FALSE,TRUE,FALSE,"""event"",""trial"",""time""
""fullscreenenter"",""5"",""17906""
","
","
","""event"",""trial"",""time""
""fullscreenenter"",""5"",""17906""
","
",947.0199999632314,NA,48,NA,NA,3000,1,NA,NA,images/earth.jpg,images/rocket2,images/rocket1,null,images/rocket2,NA,1,real,null,2,NA,NA,NA,sub8
d3-animate-choice,148,721768,0.0-76.0-1.4,TRUE,FALSE,TRUE,FALSE,"""event"",""trial"",""time""
""fullscreenenter"",""5"",""17906""
","
","
","""event"",""trial"",""time""
""fullscreenenter"",""5"",""17906""
","
",1109.375,NA,49,NA,NA,3000,1,NA,NA,images/purpleplanet.jpg,images/alien4,images/alien3,images/rocket2,images/alien3,images/t.png,2,real,false,1,rare,1,2020-06-09T18:18:40Z,sub8
two-step-fixation,149,722769,0.0-76.0-2.4,TRUE,FALSE,TRUE,FALSE,"""event"",""trial"",""time""
""fullscreenenter"",""5"",""17906""
","
","
","""event"",""trial"",""time""
""fullscreenenter"",""5"",""17906""
","
",NA,images/earth.jpg,NA,NA,NA,NA,NA,NA,NA,NA,NA,NA,NA,NA,NA,fixation,NA,NA,NA,NA,NA,NA,sub8
d3-animate-choice,150,725160,0.0-76.0-0.5,TRUE,FALSE,TRUE,FALSE,"""event"",""trial"",""time""
""fullscreenenter"",""5"",""17906""
","
","
","""event"",""trial"",""time""
""fullscreenenter"",""5"",""17906""
","
",389.2049999558367,NA,48,NA,NA,3000,1,NA,NA,images/earth.jpg,images/rocket2,images/rocket1,null,images/rocket2,NA,1,real,null,2,NA,NA,NA,sub8
d3-animate-choice,151,727985,0.0-76.0-1.5,TRUE,FALSE,TRUE,FALSE,"""event"",""trial"",""time""
""fullscreenenter"",""5"",""17906""
","
","
","""event"",""trial"",""time""
""fullscreenenter"",""5"",""17906""
","
",823.000000033062,NA,49,NA,NA,3000,1,NA,NA,images/purpleplanet.jpg,images/alien4,images/alien3,images/rocket2,images/alien3,images/nothing.png,2,real,false,1,rare,0,2020-06-09T18:18:47Z,sub8
two-step-fixation,152,728987,0.0-76.0-2.5,TRUE,FALSE,TRUE,FALSE,"""event"",""trial"",""time""
""fullscreenenter"",""5"",""17906""
","
","
","""event"",""trial"",""time""
""fullscreenenter"",""5"",""17906""
","
",NA,images/earth.jpg,NA,NA,NA,NA,NA,NA,NA,NA,NA,NA,NA,NA,NA,fixation,NA,NA,NA,NA,NA,NA,sub8
d3-animate-choice,153,731665,0.0-76.0-0.6,TRUE,FALSE,TRUE,FALSE,"""event"",""trial"",""time""
""fullscreenenter"",""5"",""17906""
","
","
","""event"",""trial"",""time""
""fullscreenenter"",""5"",""17906""
","
",675.8100000442937,NA,49,NA,NA,3000,1,NA,NA,images/earth.jpg,images/rocket2,images/rocket1,null,images/rocket1,NA,1,real,null,1,NA,NA,NA,sub8
d3-animate-choice,154,734568,0.0-76.0-1.6,TRUE,FALSE,TRUE,FALSE,"""event"",""trial"",""time""
""fullscreenenter"",""5"",""17906""
","
","
","""event"",""trial"",""time""
""fullscreenenter"",""5"",""17906""
","
",901.5150000341237,NA,49,NA,NA,3000,1,NA,NA,images/purpleplanet.jpg,images/alien4,images/alien3,images/rocket1,images/alien3,images/t.png,2,real,true,1,common,1,2020-06-09T18:18:53Z,sub8
two-step-fixation,155,735570,0.0-76.0-2.6,TRUE,FALSE,TRUE,FALSE,"""event"",""trial"",""time""
""fullscreenenter"",""5"",""17906""
","
","
","""event"",""trial"",""time""
""fullscreenenter"",""5"",""17906""
","
",NA,images/earth.jpg,NA,NA,NA,NA,NA,NA,NA,NA,NA,NA,NA,NA,NA,fixation,NA,NA,NA,NA,NA,NA,sub8
d3-animate-choice,156,738057,0.0-76.0-0.7,TRUE,FALSE,TRUE,FALSE,"""event"",""trial"",""time""
""fullscreenenter"",""5"",""17906""
","
","
","""event"",""trial"",""time""
""fullscreenenter"",""5"",""17906""
","
",484.2250000219792,NA,49,NA,NA,3000,1,NA,NA,images/earth.jpg,images/rocket2,images/rocket1,null,images/rocket1,NA,1,real,null,1,NA,NA,NA,sub8
d3-animate-choice,157,740528,0.0-76.0-1.7,TRUE,FALSE,TRUE,FALSE,"""event"",""trial"",""time""
""fullscreenenter"",""5"",""17906""
","
","
","""event"",""trial"",""time""
""fullscreenenter"",""5"",""17906""
","
",469.2500000237487,NA,49,NA,NA,3000,1,NA,NA,images/purpleplanet.jpg,images/alien4,images/alien3,images/rocket1,images/alien3,images/nothing.png,2,real,true,1,common,0,2020-06-09T18:18:59Z,sub8
two-step-fixation,158,741530,0.0-76.0-2.7,TRUE,FALSE,TRUE,FALSE,"""event"",""trial"",""time""
""fullscreenenter"",""5"",""17906""
","
","
","""event"",""trial"",""time""
""fullscreenenter"",""5"",""17906""
","
",NA,images/earth.jpg,NA,NA,NA,NA,NA,NA,NA,NA,NA,NA,NA,NA,NA,fixation,NA,NA,NA,NA,NA,NA,sub8
d3-animate-choice,159,743865,0.0-76.0-0.8,TRUE,FALSE,TRUE,FALSE,"""event"",""trial"",""time""
""fullscreenenter"",""5"",""17906""
","
","
","""event"",""trial"",""time""
""fullscreenenter"",""5"",""17906""
","
",332.4049999937415,NA,48,NA,NA,3000,1,NA,NA,images/earth.jpg,images/rocket2,images/rocket1,null,images/rocket2,NA,1,real,null,2,NA,NA,NA,sub8
d3-animate-choice,160,746617,0.0-76.0-1.8,TRUE,FALSE,TRUE,FALSE,"""event"",""trial"",""time""
""fullscreenenter"",""5"",""17906""
","
","
","""event"",""trial"",""time""
""fullscreenenter"",""5"",""17906""
","
",748.9899999927729,NA,48,NA,NA,3000,1,NA,NA,images/redplanet1.jpg,images/alien2,images/alien1,images/rocket2,images/alien2,images/nothing.png,2,real,true,2,common,0,2020-06-09T18:19:05Z,sub8
two-step-fixation,161,747619,0.0-76.0-2.8,TRUE,FALSE,TRUE,FALSE,"""event"",""trial"",""time""
""fullscreenenter"",""5"",""17906""
","
","
","""event"",""trial"",""time""
""fullscreenenter"",""5"",""17906""
","
",NA,images/earth.jpg,NA,NA,NA,NA,NA,NA,NA,NA,NA,NA,NA,NA,NA,fixation,NA,NA,NA,NA,NA,NA,sub8
d3-animate-choice,162,750056,0.0-76.0-0.9,TRUE,FALSE,TRUE,FALSE,"""event"",""trial"",""time""
""fullscreenenter"",""5"",""17906""
","
","
","""event"",""trial"",""time""
""fullscreenenter"",""5"",""17906""
","
",434.5800000010058,NA,48,NA,NA,3000,1,NA,NA,images/earth.jpg,images/rocket2,images/rocket1,null,images/rocket2,NA,1,real,null,2,NA,NA,NA,sub8
d3-animate-choice,163,752601,0.0-76.0-1.9,TRUE,FALSE,TRUE,FALSE,"""event"",""trial"",""time""
""fullscreenenter"",""5"",""17906""
","
","
","""event"",""trial"",""time""
""fullscreenenter"",""5"",""17906""
","
",541.8850000132807,NA,49,NA,NA,3000,1,NA,NA,images/redplanet1.jpg,images/alien2,images/alien1,images/rocket2,images/alien1,images/nothing.png,2,real,true,1,common,0,2020-06-09T18:19:11Z,sub8
two-step-fixation,164,753602,0.0-76.0-2.9,TRUE,FALSE,TRUE,FALSE,"""event"",""trial"",""time""
""fullscreenenter"",""5"",""17906""
","
","
","""event"",""trial"",""time""
""fullscreenenter"",""5"",""17906""
","
",NA,images/earth.jpg,NA,NA,NA,NA,NA,NA,NA,NA,NA,NA,NA,NA,NA,fixation,NA,NA,NA,NA,NA,NA,sub8
d3-animate-choice,165,756081,0.0-76.0-0.10,TRUE,FALSE,TRUE,FALSE,"""event"",""trial"",""time""
""fullscreenenter"",""5"",""17906""
","
","
","""event"",""trial"",""time""
""fullscreenenter"",""5"",""17906""
","
",476.55500000109896,NA,49,NA,NA,3000,1,NA,NA,images/earth.jpg,images/rocket2,images/rocket1,null,images/rocket1,NA,1,real,null,1,NA,NA,NA,sub8
d3-animate-choice,166,759377,0.0-76.0-1.10,TRUE,FALSE,TRUE,FALSE,"""event"",""trial"",""time""
""fullscreenenter"",""5"",""17906""
","
","
","""event"",""trial"",""time""
""fullscreenenter"",""5"",""17906""
","
",1293.500000028871,NA,48,NA,NA,3000,1,NA,NA,images/purpleplanet.jpg,images/alien4,images/alien3,images/rocket1,images/alien4,images/t.png,2,real,true,2,common,1,2020-06-09T18:19:18Z,sub8
two-step-fixation,167,760378,0.0-76.0-2.10,TRUE,FALSE,TRUE,FALSE,"""event"",""trial"",""time""
""fullscreenenter"",""5"",""17906""
","
","
","""event"",""trial"",""time""
""fullscreenenter"",""5"",""17906""
","
",NA,images/earth.jpg,NA,NA,NA,NA,NA,NA,NA,NA,NA,NA,NA,NA,NA,fixation,NA,NA,NA,NA,NA,NA,sub8
d3-animate-choice,168,762666,0.0-76.0-0.11,TRUE,FALSE,TRUE,FALSE,"""event"",""trial"",""time""
""fullscreenenter"",""5"",""17906""
","
","
","""event"",""trial"",""time""
""fullscreenenter"",""5"",""17906""
","
",284.5250000245869,NA,49,NA,NA,3000,1,NA,NA,images/earth.jpg,images/rocket2,images/rocket1,null,images/rocket1,NA,1,real,null,1,NA,NA,NA,sub8
d3-animate-choice,169,764984,0.0-76.0-1.11,TRUE,FALSE,TRUE,FALSE,"""event"",""trial"",""time""
""fullscreenenter"",""5"",""17906""
","
","
","""event"",""trial"",""time""
""fullscreenenter"",""5"",""17906""
","
",316.2199999787845,NA,48,NA,NA,3000,1,NA,NA,images/purpleplanet.jpg,images/alien4,images/alien3,images/rocket1,images/alien4,images/t.png,2,real,true,2,common,1,2020-06-09T18:19:24Z,sub8
two-step-fixation,170,765985,0.0-76.0-2.11,TRUE,FALSE,TRUE,FALSE,"""event"",""trial"",""time""
""fullscreenenter"",""5"",""17906""
","
","
","""event"",""trial"",""time""
""fullscreenenter"",""5"",""17906""
","
",NA,images/earth.jpg,NA,NA,NA,NA,NA,NA,NA,NA,NA,NA,NA,NA,NA,fixation,NA,NA,NA,NA,NA,NA,sub8
d3-animate-choice,171,768305,0.0-76.0-0.12,TRUE,FALSE,TRUE,FALSE,"""event"",""trial"",""time""
""fullscreenenter"",""5"",""17906""
","
","
","""event"",""trial"",""time""
""fullscreenenter"",""5"",""17906""
","
",317.13999999919906,NA,49,NA,NA,3000,1,NA,NA,images/earth.jpg,images/rocket2,images/rocket1,null,images/rocket1,NA,1,real,null,1,NA,NA,NA,sub8
d3-animate-choice,172,771425,0.0-76.0-1.12,TRUE,FALSE,TRUE,FALSE,"""event"",""trial"",""time""
""fullscreenenter"",""5"",""17906""
","
","
","""event"",""trial"",""time""
""fullscreenenter"",""5"",""17906""
","
",1117.3900000285357,NA,49,NA,NA,3000,1,NA,NA,images/redplanet1.jpg,images/alien2,images/alien1,images/rocket1,images/alien1,images/t.png,2,real,false,1,rare,1,2020-06-09T18:19:30Z,sub8
two-step-fixation,173,772427,0.0-76.0-2.12,TRUE,FALSE,TRUE,FALSE,"""event"",""trial"",""time""
""fullscreenenter"",""5"",""17906""
","
","
","""event"",""trial"",""time""
""fullscreenenter"",""5"",""17906""
","
",NA,images/earth.jpg,NA,NA,NA,NA,NA,NA,NA,NA,NA,NA,NA,NA,NA,fixation,NA,NA,NA,NA,NA,NA,sub8
d3-animate-choice,174,775217,0.0-76.0-0.13,TRUE,FALSE,TRUE,FALSE,"""event"",""trial"",""time""
""fullscreenenter"",""5"",""17906""
","
","
","""event"",""trial"",""time""
""fullscreenenter"",""5"",""17906""
","
",788.2150000077672,NA,49,NA,NA,3000,1,NA,NA,images/earth.jpg,images/rocket2,images/rocket1,null,images/rocket1,NA,1,real,null,1,NA,NA,NA,sub8
d3-animate-choice,175,777960,0.0-76.0-1.13,TRUE,FALSE,TRUE,FALSE,"""event"",""trial"",""time""
""fullscreenenter"",""5"",""17906""
","
","
","""event"",""trial"",""time""
""fullscreenenter"",""5"",""17906""
","
",740.9450000268407,NA,49,NA,NA,3000,1,NA,NA,images/redplanet1.jpg,images/alien2,images/alien1,images/rocket1,images/alien1,images/nothing.png,2,real,false,1,rare,0,2020-06-09T18:19:37Z,sub8
two-step-fixation,176,778962,0.0-76.0-2.13,TRUE,FALSE,TRUE,FALSE,"""event"",""trial"",""time""
""fullscreenenter"",""5"",""17906""
","
","
","""event"",""trial"",""time""
""fullscreenenter"",""5"",""17906""
","
",NA,images/earth.jpg,NA,NA,NA,NA,NA,NA,NA,NA,NA,NA,NA,NA,NA,fixation,NA,NA,NA,NA,NA,NA,sub8
d3-animate-choice,177,781289,0.0-76.0-0.14,TRUE,FALSE,TRUE,FALSE,"""event"",""trial"",""time""
""fullscreenenter"",""5"",""17906""
","
","
","""event"",""trial"",""time""
""fullscreenenter"",""5"",""17906""
","
",324.4399999966845,NA,49,NA,NA,3000,1,NA,NA,images/earth.jpg,images/rocket2,images/rocket1,null,images/rocket1,NA,1,real,null,1,NA,NA,NA,sub8
d3-animate-choice,178,783808,0.0-76.0-1.14,TRUE,FALSE,TRUE,FALSE,"""event"",""trial"",""time""
""fullscreenenter"",""5"",""17906""
","
","
","""event"",""trial"",""time""
""fullscreenenter"",""5"",""17906""
","
",517.5749999471009,NA,48,NA,NA,3000,1,NA,NA,images/purpleplanet.jpg,images/alien4,images/alien3,images/rocket1,images/alien4,images/t.png,2,real,true,2,common,1,2020-06-09T18:19:42Z,sub8
two-step-fixation,179,784810,0.0-76.0-2.14,TRUE,FALSE,TRUE,FALSE,"""event"",""trial"",""time""
""fullscreenenter"",""5"",""17906""
","
","
","""event"",""trial"",""time""
""fullscreenenter"",""5"",""17906""
","
",NA,images/earth.jpg,NA,NA,NA,NA,NA,NA,NA,NA,NA,NA,NA,NA,NA,fixation,NA,NA,NA,NA,NA,NA,sub8
d3-animate-choice,180,787185,0.0-76.0-0.15,TRUE,FALSE,TRUE,FALSE,"""event"",""trial"",""time""
""fullscreenenter"",""5"",""17906""
","
","
","""event"",""trial"",""time""
""fullscreenenter"",""5"",""17906""
","
",373.26999998185784,NA,48,NA,NA,3000,1,NA,NA,images/earth.jpg,images/rocket2,images/rocket1,null,images/rocket2,NA,1,real,null,2,NA,NA,NA,sub8
d3-animate-choice,181,790240,0.0-76.0-1.15,TRUE,FALSE,TRUE,FALSE,"""event"",""trial"",""time""
""fullscreenenter"",""5"",""17906""
","
","
","""event"",""trial"",""time""
""fullscreenenter"",""5"",""17906""
","
",1052.6500000269152,NA,48,NA,NA,3000,1,NA,NA,images/purpleplanet.jpg,images/alien4,images/alien3,images/rocket2,images/alien4,images/t.png,2,real,false,2,rare,1,2020-06-09T18:19:49Z,sub8
two-step-fixation,182,791242,0.0-76.0-2.15,TRUE,FALSE,TRUE,FALSE,"""event"",""trial"",""time""
""fullscreenenter"",""5"",""17906""
","
","
","""event"",""trial"",""time""
""fullscreenenter"",""5"",""17906""
","
",NA,images/earth.jpg,NA,NA,NA,NA,NA,NA,NA,NA,NA,NA,NA,NA,NA,fixation,NA,NA,NA,NA,NA,NA,sub8
d3-animate-choice,183,793546,0.0-76.0-0.16,TRUE,FALSE,TRUE,FALSE,"""event"",""trial"",""time""
""fullscreenenter"",""5"",""17906""
","
","
","""event"",""trial"",""time""
""fullscreenenter"",""5"",""17906""
","
",300.7750000106171,NA,48,NA,NA,3000,1,NA,NA,images/earth.jpg,images/rocket2,images/rocket1,null,images/rocket2,NA,1,real,null,2,NA,NA,NA,sub8
d3-animate-choice,184,796528,0.0-76.0-1.16,TRUE,FALSE,TRUE,FALSE,"""event"",""trial"",""time""
""fullscreenenter"",""5"",""17906""
","
","
","""event"",""trial"",""time""
""fullscreenenter"",""5"",""17906""
","
",979.845000023488,NA,48,NA,NA,3000,1,NA,NA,images/redplanet1.jpg,images/alien2,images/alien1,images/rocket2,images/alien2,images/t.png,2,real,true,2,common,1,2020-06-09T18:19:55Z,sub8
two-step-fixation,185,797531,0.0-76.0-2.16,TRUE,FALSE,TRUE,FALSE,"""event"",""trial"",""time""
""fullscreenenter"",""5"",""17906""
","
","
","""event"",""trial"",""time""
""fullscreenenter"",""5"",""17906""
","
",NA,images/earth.jpg,NA,NA,NA,NA,NA,NA,NA,NA,NA,NA,NA,NA,NA,fixation,NA,NA,NA,NA,NA,NA,sub8
d3-animate-choice,186,799912,0.0-76.0-0.17,TRUE,FALSE,TRUE,FALSE,"""event"",""trial"",""time""
""fullscreenenter"",""5"",""17906""
","
","
","""event"",""trial"",""time""
""fullscreenenter"",""5"",""17906""
","
",379.51499997870997,NA,49,NA,NA,3000,1,NA,NA,images/earth.jpg,images/rocket2,images/rocket1,null,images/rocket1,NA,1,real,null,1,NA,NA,NA,sub8
d3-animate-choice,187,802554,0.0-76.0-1.17,TRUE,FALSE,TRUE,FALSE,"""event"",""trial"",""time""
""fullscreenenter"",""5"",""17906""
","
","
","""event"",""trial"",""time""
""fullscreenenter"",""5"",""17906""
","
",638.9849999686703,NA,48,NA,NA,3000,1,NA,NA,images/redplanet1.jpg,images/alien2,images/alien1,images/rocket1,images/alien2,images/nothing.png,2,real,false,2,rare,0,2020-06-09T18:20:01Z,sub8
two-step-fixation,188,803555,0.0-76.0-2.17,TRUE,FALSE,TRUE,FALSE,"""event"",""trial"",""time""
""fullscreenenter"",""5"",""17906""
","
","
","""event"",""trial"",""time""
""fullscreenenter"",""5"",""17906""
","
",NA,images/earth.jpg,NA,NA,NA,NA,NA,NA,NA,NA,NA,NA,NA,NA,NA,fixation,NA,NA,NA,NA,NA,NA,sub8
d3-animate-choice,189,805809,0.0-76.0-0.18,TRUE,FALSE,TRUE,FALSE,"""event"",""trial"",""time""
""fullscreenenter"",""5"",""17906""
","
","
","""event"",""trial"",""time""
""fullscreenenter"",""5"",""17906""
","
",250.83500001346692,NA,49,NA,NA,3000,1,NA,NA,images/earth.jpg,images/rocket2,images/rocket1,null,images/rocket1,NA,1,real,null,1,NA,NA,NA,sub8
d3-animate-choice,190,808257,0.0-76.0-1.18,TRUE,FALSE,TRUE,FALSE,"""event"",""trial"",""time""
""fullscreenenter"",""5"",""17906""
","
","
","""event"",""trial"",""time""
""fullscreenenter"",""5"",""17906""
","
",445.23000001208857,NA,48,NA,NA,3000,1,NA,NA,images/purpleplanet.jpg,images/alien4,images/alien3,images/rocket1,images/alien4,images/nothing.png,2,real,true,2,common,0,2020-06-09T18:20:07Z,sub8
two-step-fixation,191,809259,0.0-76.0-2.18,TRUE,FALSE,TRUE,FALSE,"""event"",""trial"",""time""
""fullscreenenter"",""5"",""17906""
","
","
","""event"",""trial"",""time""
""fullscreenenter"",""5"",""17906""
","
",NA,images/earth.jpg,NA,NA,NA,NA,NA,NA,NA,NA,NA,NA,NA,NA,NA,fixation,NA,NA,NA,NA,NA,NA,sub8
d3-animate-choice,192,811953,0.0-76.0-0.19,TRUE,FALSE,TRUE,FALSE,"""event"",""trial"",""time""
""fullscreenenter"",""5"",""17906""
","
","
","""event"",""trial"",""time""
""fullscreenenter"",""5"",""17906""
","
",691.8099999893457,NA,48,NA,NA,3000,1,NA,NA,images/earth.jpg,images/rocket2,images/rocket1,null,images/rocket2,NA,1,real,null,2,NA,NA,NA,sub8
d3-animate-choice,193,815216,0.0-76.0-1.19,TRUE,FALSE,TRUE,FALSE,"""event"",""trial"",""time""
""fullscreenenter"",""5"",""17906""
","
","
","""event"",""trial"",""time""
""fullscreenenter"",""5"",""17906""
","
",1261.1049999832176,NA,48,NA,NA,3000,1,NA,NA,images/redplanet1.jpg,images/alien2,images/alien1,images/rocket2,images/alien2,images/t.png,2,real,true,2,common,1,2020-06-09T18:20:14Z,sub8
two-step-fixation,194,816218,0.0-76.0-2.19,TRUE,FALSE,TRUE,FALSE,"""event"",""trial"",""time""
""fullscreenenter"",""5"",""17906""
","
","
","""event"",""trial"",""time""
""fullscreenenter"",""5"",""17906""
","
",NA,images/earth.jpg,NA,NA,NA,NA,NA,NA,NA,NA,NA,NA,NA,NA,NA,fixation,NA,NA,NA,NA,NA,NA,sub8
d3-animate-choice,195,818840,0.0-76.0-0.20,TRUE,FALSE,TRUE,FALSE,"""event"",""trial"",""time""
""fullscreenenter"",""5"",""17906""
","
","
","""event"",""trial"",""time""
""fullscreenenter"",""5"",""17906""
","
",619.4800000521354,NA,48,NA,NA,3000,1,NA,NA,images/earth.jpg,images/rocket2,images/rocket1,null,images/rocket2,NA,1,real,null,2,NA,NA,NA,sub8
d3-animate-choice,196,821168,0.0-76.0-1.20,TRUE,FALSE,TRUE,FALSE,"""event"",""trial"",""time""
""fullscreenenter"",""5"",""17906""
","
","
","""event"",""trial"",""time""
""fullscreenenter"",""5"",""17906""
","
",326.0899999877438,NA,48,NA,NA,3000,1,NA,NA,images/redplanet1.jpg,images/alien2,images/alien1,images/rocket2,images/alien2,images/nothing.png,2,real,true,2,common,0,2020-06-09T18:20:20Z,sub8
two-step-fixation,197,822169,0.0-76.0-2.20,TRUE,FALSE,TRUE,FALSE,"""event"",""trial"",""time""
""fullscreenenter"",""5"",""17906""
","
","
","""event"",""trial"",""time""
""fullscreenenter"",""5"",""17906""
","
",NA,images/earth.jpg,NA,NA,NA,NA,NA,NA,NA,NA,NA,NA,NA,NA,NA,fixation,NA,NA,NA,NA,NA,NA,sub8
d3-animate-choice,198,824416,0.0-76.0-0.21,TRUE,FALSE,TRUE,FALSE,"""event"",""trial"",""time""
""fullscreenenter"",""5"",""17906""
","
","
","""event"",""trial"",""time""
""fullscreenenter"",""5"",""17906""
","
",244.95500000193715,NA,48,NA,NA,3000,1,NA,NA,images/earth.jpg,images/rocket2,images/rocket1,null,images/rocket2,NA,1,real,null,2,NA,NA,NA,sub8
d3-animate-choice,199,826841,0.0-76.0-1.21,TRUE,FALSE,TRUE,FALSE,"""event"",""trial"",""time""
""fullscreenenter"",""5"",""17906""
","
","
","""event"",""trial"",""time""
""fullscreenenter"",""5"",""17906""
","
",421.95999994874,NA,49,NA,NA,3000,1,NA,NA,images/redplanet1.jpg,images/alien2,images/alien1,images/rocket2,images/alien1,images/t.png,2,real,true,1,common,1,2020-06-09T18:20:25Z,sub8
two-step-fixation,200,827843,0.0-76.0-2.21,TRUE,FALSE,TRUE,FALSE,"""event"",""trial"",""time""
""fullscreenenter"",""5"",""17906""
","
","
","""event"",""trial"",""time""
""fullscreenenter"",""5"",""17906""
","
",NA,images/earth.jpg,NA,NA,NA,NA,NA,NA,NA,NA,NA,NA,NA,NA,NA,fixation,NA,NA,NA,NA,NA,NA,sub8
d3-animate-choice,201,830721,0.0-76.0-0.22,TRUE,FALSE,TRUE,FALSE,"""event"",""trial"",""time""
""fullscreenenter"",""5"",""17906""
","
","
","""event"",""trial"",""time""
""fullscreenenter"",""5"",""17906""
","
",875.594999990426,NA,48,NA,NA,3000,1,NA,NA,images/earth.jpg,images/rocket2,images/rocket1,null,images/rocket2,NA,1,real,null,2,NA,NA,NA,sub8
d3-animate-choice,202,833328,0.0-76.0-1.22,TRUE,FALSE,TRUE,FALSE,"""event"",""trial"",""time""
""fullscreenenter"",""5"",""17906""
","
","
","""event"",""trial"",""time""
""fullscreenenter"",""5"",""17906""
","
",605.5649999761954,NA,49,NA,NA,3000,1,NA,NA,images/redplanet1.jpg,images/alien2,images/alien1,images/rocket2,images/alien1,images/nothing.png,2,real,true,1,common,0,2020-06-09T18:20:32Z,sub8
two-step-fixation,203,834330,0.0-76.0-2.22,TRUE,FALSE,TRUE,FALSE,"""event"",""trial"",""time""
""fullscreenenter"",""5"",""17906""
","
","
","""event"",""trial"",""time""
""fullscreenenter"",""5"",""17906""
","
",NA,images/earth.jpg,NA,NA,NA,NA,NA,NA,NA,NA,NA,NA,NA,NA,NA,fixation,NA,NA,NA,NA,NA,NA,sub8
d3-animate-choice,204,836816,0.0-76.0-0.23,TRUE,FALSE,TRUE,FALSE,"""event"",""trial"",""time""
""fullscreenenter"",""5"",""17906""
","
","
","""event"",""trial"",""time""
""fullscreenenter"",""5"",""17906""
","
",483.80000004544854,NA,49,NA,NA,3000,1,NA,NA,images/earth.jpg,images/rocket2,images/rocket1,null,images/rocket1,NA,1,real,null,1,NA,NA,NA,sub8
d3-animate-choice,205,839416,0.0-76.0-1.23,TRUE,FALSE,TRUE,FALSE,"""event"",""trial"",""time""
""fullscreenenter"",""5"",""17906""
","
","
","""event"",""trial"",""time""
""fullscreenenter"",""5"",""17906""
","
",598.2500000391155,NA,49,NA,NA,3000,1,NA,NA,images/purpleplanet.jpg,images/alien4,images/alien3,images/rocket1,images/alien3,images/nothing.png,2,real,true,1,common,0,2020-06-09T18:20:38Z,sub8
two-step-fixation,206,840418,0.0-76.0-2.23,TRUE,FALSE,TRUE,FALSE,"""event"",""trial"",""time""
""fullscreenenter"",""5"",""17906""
","
","
","""event"",""trial"",""time""
""fullscreenenter"",""5"",""17906""
","
",NA,images/earth.jpg,NA,NA,NA,NA,NA,NA,NA,NA,NA,NA,NA,NA,NA,fixation,NA,NA,NA,NA,NA,NA,sub8
d3-animate-choice,207,842840,0.0-76.0-0.24,TRUE,FALSE,TRUE,FALSE,"""event"",""trial"",""time""
""fullscreenenter"",""5"",""17906""
","
","
","""event"",""trial"",""time""
""fullscreenenter"",""5"",""17906""
","
",420.4700000118464,NA,49,NA,NA,3000,1,NA,NA,images/earth.jpg,images/rocket2,images/rocket1,null,images/rocket1,NA,1,real,null,1,NA,NA,NA,sub8
d3-animate-choice,208,845288,0.0-76.0-1.24,TRUE,FALSE,TRUE,FALSE,"""event"",""trial"",""time""
""fullscreenenter"",""5"",""17906""
","
","
","""event"",""trial"",""time""
""fullscreenenter"",""5"",""17906""
","
",445.5900000175461,NA,48,NA,NA,3000,1,NA,NA,images/purpleplanet.jpg,images/alien4,images/alien3,images/rocket1,images/alien4,images/t.png,2,real,true,2,common,1,2020-06-09T18:20:44Z,sub8
two-step-fixation,209,846290,0.0-76.0-2.24,TRUE,FALSE,TRUE,FALSE,"""event"",""trial"",""time""
""fullscreenenter"",""5"",""17906""
","
","
","""event"",""trial"",""time""
""fullscreenenter"",""5"",""17906""
","
",NA,images/earth.jpg,NA,NA,NA,NA,NA,NA,NA,NA,NA,NA,NA,NA,NA,fixation,NA,NA,NA,NA,NA,NA,sub8
d3-animate-choice,210,848624,0.0-76.0-0.25,TRUE,FALSE,TRUE,FALSE,"""event"",""trial"",""time""
""fullscreenenter"",""5"",""17906""
","
","
","""event"",""trial"",""time""
""fullscreenenter"",""5"",""17906""
","
",332.2349999798462,NA,49,NA,NA,3000,1,NA,NA,images/earth.jpg,images/rocket2,images/rocket1,null,images/rocket1,NA,1,real,null,1,NA,NA,NA,sub8
d3-animate-choice,211,851193,0.0-76.0-1.25,TRUE,FALSE,TRUE,FALSE,"""event"",""trial"",""time""
""fullscreenenter"",""5"",""17906""
","
","
","""event"",""trial"",""time""
""fullscreenenter"",""5"",""17906""
","
",566.1449999897741,NA,48,NA,NA,3000,1,NA,NA,images/purpleplanet.jpg,images/alien4,images/alien3,images/rocket1,images/alien4,images/t.png,2,real,true,2,common,1,2020-06-09T18:20:50Z,sub8
two-step-fixation,212,852195,0.0-76.0-2.25,TRUE,FALSE,TRUE,FALSE,"""event"",""trial"",""time""
""fullscreenenter"",""5"",""17906""
","
","
","""event"",""trial"",""time""
""fullscreenenter"",""5"",""17906""
","
",NA,images/earth.jpg,NA,NA,NA,NA,NA,NA,NA,NA,NA,NA,NA,NA,NA,fixation,NA,NA,NA,NA,NA,NA,sub8
d3-animate-choice,213,854401,0.0-76.0-0.26,TRUE,FALSE,TRUE,FALSE,"""event"",""trial"",""time""
""fullscreenenter"",""5"",""17906""
","
","
","""event"",""trial"",""time""
""fullscreenenter"",""5"",""17906""
","
",203.16499995533377,NA,49,NA,NA,3000,1,NA,NA,images/earth.jpg,images/rocket2,images/rocket1,null,images/rocket1,NA,1,real,null,1,NA,NA,NA,sub8
d3-animate-choice,214,856688,0.0-76.0-1.26,TRUE,FALSE,TRUE,FALSE,"""event"",""trial"",""time""
""fullscreenenter"",""5"",""17906""
","
","
","""event"",""trial"",""time""
""fullscreenenter"",""5"",""17906""
","
",285.83499998785555,NA,48,NA,NA,3000,1,NA,NA,images/purpleplanet.jpg,images/alien4,images/alien3,images/rocket1,images/alien4,images/t.png,2,real,true,2,common,1,2020-06-09T18:20:55Z,sub8
two-step-fixation,215,857691,0.0-76.0-2.26,TRUE,FALSE,TRUE,FALSE,"""event"",""trial"",""time""
""fullscreenenter"",""5"",""17906""
","
","
","""event"",""trial"",""time""
""fullscreenenter"",""5"",""17906""
","
",NA,images/earth.jpg,NA,NA,NA,NA,NA,NA,NA,NA,NA,NA,NA,NA,NA,fixation,NA,NA,NA,NA,NA,NA,sub8
d3-animate-choice,216,860288,0.0-76.0-0.27,TRUE,FALSE,TRUE,FALSE,"""event"",""trial"",""time""
""fullscreenenter"",""5"",""17906""
","
","
","""event"",""trial"",""time""
""fullscreenenter"",""5"",""17906""
","
",595.7000000053085,NA,49,NA,NA,3000,1,NA,NA,images/earth.jpg,images/rocket2,images/rocket1,null,images/rocket1,NA,1,real,null,1,NA,NA,NA,sub8
d3-animate-choice,217,862713,0.0-76.0-1.27,TRUE,FALSE,TRUE,FALSE,"""event"",""trial"",""time""
""fullscreenenter"",""5"",""17906""
","
","
","""event"",""trial"",""time""
""fullscreenenter"",""5"",""17906""
","
",422.6899999775924,NA,48,NA,NA,3000,1,NA,NA,images/purpleplanet.jpg,images/alien4,images/alien3,images/rocket1,images/alien4,images/nothing.png,2,real,true,2,common,0,2020-06-09T18:21:01Z,sub8
two-step-fixation,218,863715,0.0-76.0-2.27,TRUE,FALSE,TRUE,FALSE,"""event"",""trial"",""time""
""fullscreenenter"",""5"",""17906""
","
","
","""event"",""trial"",""time""
""fullscreenenter"",""5"",""17906""
","
",NA,images/earth.jpg,NA,NA,NA,NA,NA,NA,NA,NA,NA,NA,NA,NA,NA,fixation,NA,NA,NA,NA,NA,NA,sub8
d3-animate-choice,219,866064,0.0-76.0-0.28,TRUE,FALSE,TRUE,FALSE,"""event"",""trial"",""time""
""fullscreenenter"",""5"",""17906""
","
","
","""event"",""trial"",""time""
""fullscreenenter"",""5"",""17906""
","
",347.5149999721907,NA,48,NA,NA,3000,1,NA,NA,images/earth.jpg,images/rocket2,images/rocket1,null,images/rocket2,NA,1,real,null,2,NA,NA,NA,sub8
d3-animate-choice,220,869111,0.0-76.0-1.28,TRUE,FALSE,TRUE,FALSE,"""event"",""trial"",""time""
""fullscreenenter"",""5"",""17906""
","
","
","""event"",""trial"",""time""
""fullscreenenter"",""5"",""17906""
","
",1045.4599999939092,NA,48,NA,NA,3000,1,NA,NA,images/purpleplanet.jpg,images/alien4,images/alien3,images/rocket2,images/alien4,images/t.png,2,real,false,2,rare,1,2020-06-09T18:21:08Z,sub8
two-step-fixation,221,870114,0.0-76.0-2.28,TRUE,FALSE,TRUE,FALSE,"""event"",""trial"",""time""
""fullscreenenter"",""5"",""17906""
","
","
","""event"",""trial"",""time""
""fullscreenenter"",""5"",""17906""
","
",NA,images/earth.jpg,NA,NA,NA,NA,NA,NA,NA,NA,NA,NA,NA,NA,NA,fixation,NA,NA,NA,NA,NA,NA,sub8
d3-animate-choice,222,872448,0.0-76.0-0.29,TRUE,FALSE,TRUE,FALSE,"""event"",""trial"",""time""
""fullscreenenter"",""5"",""17906""
","
","
","""event"",""trial"",""time""
""fullscreenenter"",""5"",""17906""
","
",332.5250000343658,NA,48,NA,NA,3000,1,NA,NA,images/earth.jpg,images/rocket2,images/rocket1,null,images/rocket2,NA,1,real,null,2,NA,NA,NA,sub8
d3-animate-choice,223,874873,0.0-76.0-1.29,TRUE,FALSE,TRUE,FALSE,"""event"",""trial"",""time""
""fullscreenenter"",""5"",""17906""
","
","
","""event"",""trial"",""time""
""fullscreenenter"",""5"",""17906""
","
",421.7099999659695,NA,48,NA,NA,3000,1,NA,NA,images/purpleplanet.jpg,images/alien4,images/alien3,images/rocket2,images/alien4,images/nothing.png,2,real,false,2,rare,0,2020-06-09T18:21:13Z,sub8
two-step-fixation,224,875875,0.0-76.0-2.29,TRUE,FALSE,TRUE,FALSE,"""event"",""trial"",""time""
""fullscreenenter"",""5"",""17906""
","
","
","""event"",""trial"",""time""
""fullscreenenter"",""5"",""17906""
","
",NA,images/earth.jpg,NA,NA,NA,NA,NA,NA,NA,NA,NA,NA,NA,NA,NA,fixation,NA,NA,NA,NA,NA,NA,sub8
d3-animate-choice,225,878176,0.0-76.0-0.30,TRUE,FALSE,TRUE,FALSE,"""event"",""trial"",""time""
""fullscreenenter"",""5"",""17906""
","
","
","""event"",""trial"",""time""
""fullscreenenter"",""5"",""17906""
","
",298.82999998517334,NA,48,NA,NA,3000,1,NA,NA,images/earth.jpg,images/rocket2,images/rocket1,null,images/rocket2,NA,1,real,null,2,NA,NA,NA,sub8
d3-animate-choice,226,880975,0.0-76.0-1.30,TRUE,FALSE,TRUE,FALSE,"""event"",""trial"",""time""
""fullscreenenter"",""5"",""17906""
","
","
","""event"",""trial"",""time""
""fullscreenenter"",""5"",""17906""
","
",797.069999971427,NA,49,NA,NA,3000,1,NA,NA,images/purpleplanet.jpg,images/alien4,images/alien3,images/rocket2,images/alien3,images/nothing.png,2,real,false,1,rare,0,2020-06-09T18:21:20Z,sub8
two-step-fixation,227,881977,0.0-76.0-2.30,TRUE,FALSE,TRUE,FALSE,"""event"",""trial"",""time""
""fullscreenenter"",""5"",""17906""
","
","
","""event"",""trial"",""time""
""fullscreenenter"",""5"",""17906""
","
",NA,images/earth.jpg,NA,NA,NA,NA,NA,NA,NA,NA,NA,NA,NA,NA,NA,fixation,NA,NA,NA,NA,NA,NA,sub8
d3-animate-choice,228,884217,0.0-76.0-0.31,TRUE,FALSE,TRUE,FALSE,"""event"",""trial"",""time""
""fullscreenenter"",""5"",""17906""
","
","
","""event"",""trial"",""time""
""fullscreenenter"",""5"",""17906""
","
",237.27499996311963,NA,49,NA,NA,3000,1,NA,NA,images/earth.jpg,images/rocket2,images/rocket1,null,images/rocket1,NA,1,real,null,1,NA,NA,NA,sub8
d3-animate-choice,229,887417,0.0-76.0-1.31,TRUE,FALSE,TRUE,FALSE,"""event"",""trial"",""time""
""fullscreenenter"",""5"",""17906""
","
","
","""event"",""trial"",""time""
""fullscreenenter"",""5"",""17906""
","
",1197.5000000093132,NA,48,NA,NA,3000,1,NA,NA,images/redplanet1.jpg,images/alien2,images/alien1,images/rocket1,images/alien2,images/nothing.png,2,real,false,2,rare,0,2020-06-09T18:21:26Z,sub8
two-step-fixation,230,888419,0.0-76.0-2.31,TRUE,FALSE,TRUE,FALSE,"""event"",""trial"",""time""
""fullscreenenter"",""5"",""17906""
","
","
","""event"",""trial"",""time""
""fullscreenenter"",""5"",""17906""
","
",NA,images/earth.jpg,NA,NA,NA,NA,NA,NA,NA,NA,NA,NA,NA,NA,NA,fixation,NA,NA,NA,NA,NA,NA,sub8
d3-animate-choice,231,891312,0.0-76.0-0.32,TRUE,FALSE,TRUE,FALSE,"""event"",""trial"",""time""
""fullscreenenter"",""5"",""17906""
","
","
","""event"",""trial"",""time""
""fullscreenenter"",""5"",""17906""
","
",890.4999999795109,NA,49,NA,NA,3000,1,NA,NA,images/earth.jpg,images/rocket2,images/rocket1,null,images/rocket1,NA,1,real,null,1,NA,NA,NA,sub8
d3-animate-choice,232,894168,0.0-76.0-1.32,TRUE,FALSE,TRUE,FALSE,"""event"",""trial"",""time""
""fullscreenenter"",""5"",""17906""
","
","
","""event"",""trial"",""time""
""fullscreenenter"",""5"",""17906""
","
",853.6650000023656,NA,49,NA,NA,3000,1,NA,NA,images/redplanet1.jpg,images/alien2,images/alien1,images/rocket1,images/alien1,images/nothing.png,2,real,false,1,rare,0,2020-06-09T18:21:33Z,sub8
two-step-fixation,233,895169,0.0-76.0-2.32,TRUE,FALSE,TRUE,FALSE,"""event"",""trial"",""time""
""fullscreenenter"",""5"",""17906""
","
","
","""event"",""trial"",""time""
""fullscreenenter"",""5"",""17906""
","
",NA,images/earth.jpg,NA,NA,NA,NA,NA,NA,NA,NA,NA,NA,NA,NA,NA,fixation,NA,NA,NA,NA,NA,NA,sub8
d3-animate-choice,234,897552,0.0-76.0-0.33,TRUE,FALSE,TRUE,FALSE,"""event"",""trial"",""time""
""fullscreenenter"",""5"",""17906""
","
","
","""event"",""trial"",""time""
""fullscreenenter"",""5"",""17906""
","
",380.6050000130199,NA,49,NA,NA,3000,1,NA,NA,images/earth.jpg,images/rocket2,images/rocket1,null,images/rocket1,NA,1,real,null,1,NA,NA,NA,sub8
d3-animate-choice,235,900280,0.0-76.0-1.33,TRUE,FALSE,TRUE,FALSE,"""event"",""trial"",""time""
""fullscreenenter"",""5"",""17906""
","
","
","""event"",""trial"",""time""
""fullscreenenter"",""5"",""17906""
","
",726.2449999689125,NA,48,NA,NA,3000,1,NA,NA,images/purpleplanet.jpg,images/alien4,images/alien3,images/rocket1,images/alien4,images/t.png,2,real,true,2,common,1,2020-06-09T18:21:39Z,sub8
two-step-fixation,236,901283,0.0-76.0-2.33,TRUE,FALSE,TRUE,FALSE,"""event"",""trial"",""time""
""fullscreenenter"",""5"",""17906""
","
","
","""event"",""trial"",""time""
""fullscreenenter"",""5"",""17906""
","
",NA,images/earth.jpg,NA,NA,NA,NA,NA,NA,NA,NA,NA,NA,NA,NA,NA,fixation,NA,NA,NA,NA,NA,NA,sub8
d3-animate-choice,237,903609,0.0-76.0-0.34,TRUE,FALSE,TRUE,FALSE,"""event"",""trial"",""time""
""fullscreenenter"",""5"",""17906""
","
","
","""event"",""trial"",""time""
""fullscreenenter"",""5"",""17906""
","
",323.26000003376976,NA,49,NA,NA,3000,1,NA,NA,images/earth.jpg,images/rocket2,images/rocket1,null,images/rocket1,NA,1,real,null,1,NA,NA,NA,sub8
d3-animate-choice,238,906048,0.0-76.0-1.34,TRUE,FALSE,TRUE,FALSE,"""event"",""trial"",""time""
""fullscreenenter"",""5"",""17906""
","
","
","""event"",""trial"",""time""
""fullscreenenter"",""5"",""17906""
","
",437.4400000087917,NA,48,NA,NA,3000,1,NA,NA,images/purpleplanet.jpg,images/alien4,images/alien3,images/rocket1,images/alien4,images/t.png,2,real,true,2,common,1,2020-06-09T18:21:45Z,sub8
two-step-fixation,239,907051,0.0-76.0-2.34,TRUE,FALSE,TRUE,FALSE,"""event"",""trial"",""time""
""fullscreenenter"",""5"",""17906""
","
","
","""event"",""trial"",""time""
""fullscreenenter"",""5"",""17906""
","
",NA,images/earth.jpg,NA,NA,NA,NA,NA,NA,NA,NA,NA,NA,NA,NA,NA,fixation,NA,NA,NA,NA,NA,NA,sub8
d3-animate-choice,240,909616,0.0-76.0-0.35,TRUE,FALSE,TRUE,FALSE,"""event"",""trial"",""time""
""fullscreenenter"",""5"",""17906""
","
","
","""event"",""trial"",""time""
""fullscreenenter"",""5"",""17906""
","
",562.5,NA,49,NA,NA,3000,1,NA,NA,images/earth.jpg,images/rocket2,images/rocket1,null,images/rocket1,NA,1,real,null,1,NA,NA,NA,sub8
d3-animate-choice,241,912031,0.0-76.0-1.35,TRUE,FALSE,TRUE,FALSE,"""event"",""trial"",""time""
""fullscreenenter"",""5"",""17906""
","
","
","""event"",""trial"",""time""
""fullscreenenter"",""5"",""17906""
","
",413.8399999937974,NA,48,NA,NA,3000,1,NA,NA,images/purpleplanet.jpg,images/alien4,images/alien3,images/rocket1,images/alien4,images/t.png,2,real,true,2,common,1,2020-06-09T18:21:51Z,sub8
two-step-fixation,242,913033,0.0-76.0-2.35,TRUE,FALSE,TRUE,FALSE,"""event"",""trial"",""time""
""fullscreenenter"",""5"",""17906""
","
","
","""event"",""trial"",""time""
""fullscreenenter"",""5"",""17906""
","
",NA,images/earth.jpg,NA,NA,NA,NA,NA,NA,NA,NA,NA,NA,NA,NA,NA,fixation,NA,NA,NA,NA,NA,NA,sub8
d3-animate-choice,243,915352,0.0-76.0-0.36,TRUE,FALSE,TRUE,FALSE,"""event"",""trial"",""time""
""fullscreenenter"",""5"",""17906""
","
","
","""event"",""trial"",""time""
""fullscreenenter"",""5"",""17906""
","
",316.85500004095957,NA,49,NA,NA,3000,1,NA,NA,images/earth.jpg,images/rocket2,images/rocket1,null,images/rocket1,NA,1,real,null,1,NA,NA,NA,sub8
d3-animate-choice,244,917744,0.0-76.0-1.36,TRUE,FALSE,TRUE,FALSE,"""event"",""trial"",""time""
""fullscreenenter"",""5"",""17906""
","
","
","""event"",""trial"",""time""
""fullscreenenter"",""5"",""17906""
","
",390.4949999996461,NA,48,NA,NA,3000,1,NA,NA,images/purpleplanet.jpg,images/alien4,images/alien3,images/rocket1,images/alien4,images/t.png,2,real,true,2,common,1,2020-06-09T18:21:56Z,sub8
two-step-fixation,245,918747,0.0-76.0-2.36,TRUE,FALSE,TRUE,FALSE,"""event"",""trial"",""time""
""fullscreenenter"",""5"",""17906""
","
","
","""event"",""trial"",""time""
""fullscreenenter"",""5"",""17906""
","
",NA,images/earth.jpg,NA,NA,NA,NA,NA,NA,NA,NA,NA,NA,NA,NA,NA,fixation,NA,NA,NA,NA,NA,NA,sub8
d3-animate-choice,246,921200,0.0-76.0-0.37,TRUE,FALSE,TRUE,FALSE,"""event"",""trial"",""time""
""fullscreenenter"",""5"",""17906""
","
","
","""event"",""trial"",""time""
""fullscreenenter"",""5"",""17906""
","
",451.5900000114925,NA,48,NA,NA,3000,1,NA,NA,images/earth.jpg,images/rocket2,images/rocket1,null,images/rocket2,NA,1,real,null,2,NA,NA,NA,sub8
d3-animate-choice,247,923912,0.0-76.0-1.37,TRUE,FALSE,TRUE,FALSE,"""event"",""trial"",""time""
""fullscreenenter"",""5"",""17906""
","
","
","""event"",""trial"",""time""
""fullscreenenter"",""5"",""17906""
","
",709.3450000393204,NA,48,NA,NA,3000,1,NA,NA,images/purpleplanet.jpg,images/alien4,images/alien3,images/rocket2,images/alien4,images/t.png,2,real,false,2,rare,1,2020-06-09T18:22:02Z,sub8
two-step-fixation,248,924914,0.0-76.0-2.37,TRUE,FALSE,TRUE,FALSE,"""event"",""trial"",""time""
""fullscreenenter"",""5"",""17906""
","
","
","""event"",""trial"",""time""
""fullscreenenter"",""5"",""17906""
","
",NA,images/earth.jpg,NA,NA,NA,NA,NA,NA,NA,NA,NA,NA,NA,NA,NA,fixation,NA,NA,NA,NA,NA,NA,sub8
d3-animate-choice,249,927512,0.0-76.0-0.38,TRUE,FALSE,TRUE,FALSE,"""event"",""trial"",""time""
""fullscreenenter"",""5"",""17906""
","
","
","""event"",""trial"",""time""
""fullscreenenter"",""5"",""17906""
","
",596.3700000429526,NA,48,NA,NA,3000,1,NA,NA,images/earth.jpg,images/rocket2,images/rocket1,null,images/rocket2,NA,1,real,null,2,NA,NA,NA,sub8
d3-animate-choice,250,931064,0.0-76.0-1.38,TRUE,FALSE,TRUE,FALSE,"""event"",""trial"",""time""
""fullscreenenter"",""5"",""17906""
","
","
","""event"",""trial"",""time""
""fullscreenenter"",""5"",""17906""
","
",1549.3900000001304,NA,49,NA,NA,3000,1,NA,NA,images/redplanet1.jpg,images/alien2,images/alien1,images/rocket2,images/alien1,images/t.png,2,real,true,1,common,1,2020-06-09T18:22:10Z,sub8
two-step-fixation,251,932066,0.0-76.0-2.38,TRUE,FALSE,TRUE,FALSE,"""event"",""trial"",""time""
""fullscreenenter"",""5"",""17906""
","
","
","""event"",""trial"",""time""
""fullscreenenter"",""5"",""17906""
","
",NA,images/earth.jpg,NA,NA,NA,NA,NA,NA,NA,NA,NA,NA,NA,NA,NA,fixation,NA,NA,NA,NA,NA,NA,sub8
d3-animate-choice,252,934385,0.0-76.0-0.39,TRUE,FALSE,TRUE,FALSE,"""event"",""trial"",""time""
""fullscreenenter"",""5"",""17906""
","
","
","""event"",""trial"",""time""
""fullscreenenter"",""5"",""17906""
","
",315.8549999934621,NA,49,NA,NA,3000,1,NA,NA,images/earth.jpg,images/rocket2,images/rocket1,null,images/rocket1,NA,1,real,null,1,NA,NA,NA,sub8
d3-animate-choice,253,936880,0.0-76.0-1.39,TRUE,FALSE,TRUE,FALSE,"""event"",""trial"",""time""
""fullscreenenter"",""5"",""17906""
","
","
","""event"",""trial"",""time""
""fullscreenenter"",""5"",""17906""
","
",493.2849999750033,NA,48,NA,NA,3000,1,NA,NA,images/purpleplanet.jpg,images/alien4,images/alien3,images/rocket1,images/alien4,images/t.png,2,real,true,2,common,1,2020-06-09T18:22:15Z,sub8
two-step-fixation,254,937882,0.0-76.0-2.39,TRUE,FALSE,TRUE,FALSE,"""event"",""trial"",""time""
""fullscreenenter"",""5"",""17906""
","
","
","""event"",""trial"",""time""
""fullscreenenter"",""5"",""17906""
","
",NA,images/earth.jpg,NA,NA,NA,NA,NA,NA,NA,NA,NA,NA,NA,NA,NA,fixation,NA,NA,NA,NA,NA,NA,sub8
d3-animate-choice,255,940176,0.0-76.0-0.40,TRUE,FALSE,TRUE,FALSE,"""event"",""trial"",""time""
""fullscreenenter"",""5"",""17906""
","
","
","""event"",""trial"",""time""
""fullscreenenter"",""5"",""17906""
","
",290.4149999958463,NA,49,NA,NA,3000,1,NA,NA,images/earth.jpg,images/rocket2,images/rocket1,null,images/rocket1,NA,1,real,null,1,NA,NA,NA,sub8
d3-animate-choice,256,942488,0.0-76.0-1.40,TRUE,FALSE,TRUE,FALSE,"""event"",""trial"",""time""
""fullscreenenter"",""5"",""17906""
","
","
","""event"",""trial"",""time""
""fullscreenenter"",""5"",""17906""
","
",310.0149999954738,NA,48,NA,NA,3000,1,NA,NA,images/purpleplanet.jpg,images/alien4,images/alien3,images/rocket1,images/alien4,images/t.png,2,real,true,2,common,1,2020-06-09T18:22:21Z,sub8
two-step-fixation,257,943490,0.0-76.0-2.40,TRUE,FALSE,TRUE,FALSE,"""event"",""trial"",""time""
""fullscreenenter"",""5"",""17906""
","
","
","""event"",""trial"",""time""
""fullscreenenter"",""5"",""17906""
","
",NA,images/earth.jpg,NA,NA,NA,NA,NA,NA,NA,NA,NA,NA,NA,NA,NA,fixation,NA,NA,NA,NA,NA,NA,sub8
d3-animate-choice,258,945801,0.0-76.0-0.41,TRUE,FALSE,TRUE,FALSE,"""event"",""trial"",""time""
""fullscreenenter"",""5"",""17906""
","
","
","""event"",""trial"",""time""
""fullscreenenter"",""5"",""17906""
","
",308.6699999985285,NA,49,NA,NA,3000,1,NA,NA,images/earth.jpg,images/rocket2,images/rocket1,null,images/rocket1,NA,1,real,null,1,NA,NA,NA,sub8
d3-animate-choice,259,948209,0.0-76.0-1.41,TRUE,FALSE,TRUE,FALSE,"""event"",""trial"",""time""
""fullscreenenter"",""5"",""17906""
","
","
","""event"",""trial"",""time""
""fullscreenenter"",""5"",""17906""
","
",405.70499998284504,NA,48,NA,NA,3000,1,NA,NA,images/purpleplanet.jpg,images/alien4,images/alien3,images/rocket1,images/alien4,images/t.png,2,real,true,2,common,1,2020-06-09T18:22:27Z,sub8
two-step-fixation,260,949211,0.0-76.0-2.41,TRUE,FALSE,TRUE,FALSE,"""event"",""trial"",""time""
""fullscreenenter"",""5"",""17906""
","
","
","""event"",""trial"",""time""
""fullscreenenter"",""5"",""17906""
","
",NA,images/earth.jpg,NA,NA,NA,NA,NA,NA,NA,NA,NA,NA,NA,NA,NA,fixation,NA,NA,NA,NA,NA,NA,sub8
d3-animate-choice,261,951488,0.0-76.0-0.42,TRUE,FALSE,TRUE,FALSE,"""event"",""trial"",""time""
""fullscreenenter"",""5"",""17906""
","
","
","""event"",""trial"",""time""
""fullscreenenter"",""5"",""17906""
","
",274.88500002073124,NA,49,NA,NA,3000,1,NA,NA,images/earth.jpg,images/rocket2,images/rocket1,null,images/rocket1,NA,1,real,null,1,NA,NA,NA,sub8
d3-animate-choice,262,953800,0.0-76.0-1.42,TRUE,FALSE,TRUE,FALSE,"""event"",""trial"",""time""
""fullscreenenter"",""5"",""17906""
","
","
","""event"",""trial"",""time""
""fullscreenenter"",""5"",""17906""
","
",309.7849999903701,NA,48,NA,NA,3000,1,NA,NA,images/redplanet1.jpg,images/alien2,images/alien1,images/rocket1,images/alien2,images/t.png,2,real,false,2,rare,1,2020-06-09T18:22:32Z,sub8
two-step-fixation,263,954802,0.0-76.0-2.42,TRUE,FALSE,TRUE,FALSE,"""event"",""trial"",""time""
""fullscreenenter"",""5"",""17906""
","
","
","""event"",""trial"",""time""
""fullscreenenter"",""5"",""17906""
","
",NA,images/earth.jpg,NA,NA,NA,NA,NA,NA,NA,NA,NA,NA,NA,NA,NA,fixation,NA,NA,NA,NA,NA,NA,sub8
d3-animate-choice,264,957128,0.0-76.0-0.43,TRUE,FALSE,TRUE,FALSE,"""event"",""trial"",""time""
""fullscreenenter"",""5"",""17906""
","
","
","""event"",""trial"",""time""
""fullscreenenter"",""5"",""17906""
","
",324.1799999959767,NA,49,NA,NA,3000,1,NA,NA,images/earth.jpg,images/rocket2,images/rocket1,null,images/rocket1,NA,1,real,null,1,NA,NA,NA,sub8
d3-animate-choice,265,959938,0.0-76.0-1.43,TRUE,FALSE,TRUE,FALSE,"""event"",""trial"",""time""
""fullscreenenter"",""5"",""17906""
","
","
","""event"",""trial"",""time""
""fullscreenenter"",""5"",""17906""
","
",806.9050000049174,NA,49,NA,NA,3000,1,NA,NA,images/redplanet1.jpg,images/alien2,images/alien1,images/rocket1,images/alien1,images/nothing.png,2,real,false,1,rare,0,2020-06-09T18:22:39Z,sub8
two-step-fixation,266,960940,0.0-76.0-2.43,TRUE,FALSE,TRUE,FALSE,"""event"",""trial"",""time""
""fullscreenenter"",""5"",""17906""
","
","
","""event"",""trial"",""time""
""fullscreenenter"",""5"",""17906""
","
",NA,images/earth.jpg,NA,NA,NA,NA,NA,NA,NA,NA,NA,NA,NA,NA,NA,fixation,NA,NA,NA,NA,NA,NA,sub8
d3-animate-choice,267,963816,0.0-76.0-0.44,TRUE,FALSE,TRUE,FALSE,"""event"",""trial"",""time""
""fullscreenenter"",""5"",""17906""
","
","
","""event"",""trial"",""time""
""fullscreenenter"",""5"",""17906""
","
",874.2099999799393,NA,48,NA,NA,3000,1,NA,NA,images/earth.jpg,images/rocket2,images/rocket1,null,images/rocket2,NA,1,real,null,2,NA,NA,NA,sub8
d3-animate-choice,268,966360,0.0-76.0-1.44,TRUE,FALSE,TRUE,FALSE,"""event"",""trial"",""time""
""fullscreenenter"",""5"",""17906""
","
","
","""event"",""trial"",""time""
""fullscreenenter"",""5"",""17906""
","
",542.2350000008009,NA,48,NA,NA,3000,1,NA,NA,images/redplanet1.jpg,images/alien2,images/alien1,images/rocket2,images/alien2,images/t.png,2,real,true,2,common,1,2020-06-09T18:22:45Z,sub8
two-step-fixation,269,967362,0.0-76.0-2.44,TRUE,FALSE,TRUE,FALSE,"""event"",""trial"",""time""
""fullscreenenter"",""5"",""17906""
","
","
","""event"",""trial"",""time""
""fullscreenenter"",""5"",""17906""
","
",NA,images/earth.jpg,NA,NA,NA,NA,NA,NA,NA,NA,NA,NA,NA,NA,NA,fixation,NA,NA,NA,NA,NA,NA,sub8
d3-animate-choice,270,969633,0.0-76.0-0.45,TRUE,FALSE,TRUE,FALSE,"""event"",""trial"",""time""
""fullscreenenter"",""5"",""17906""
","
","
","""event"",""trial"",""time""
""fullscreenenter"",""5"",""17906""
","
",268.3449999894947,NA,48,NA,NA,3000,1,NA,NA,images/earth.jpg,images/rocket2,images/rocket1,null,images/rocket2,NA,1,real,null,2,NA,NA,NA,sub8
d3-animate-choice,271,972423,0.0-76.0-1.45,TRUE,FALSE,TRUE,FALSE,"""event"",""trial"",""time""
""fullscreenenter"",""5"",""17906""
","
","
","""event"",""trial"",""time""
""fullscreenenter"",""5"",""17906""
","
",787.9700000048615,NA,48,NA,NA,3000,1,NA,NA,images/redplanet1.jpg,images/alien2,images/alien1,images/rocket2,images/alien2,images/nothing.png,2,real,true,2,common,0,2020-06-09T18:22:51Z,sub8
two-step-fixation,272,973425,0.0-76.0-2.45,TRUE,FALSE,TRUE,FALSE,"""event"",""trial"",""time""
""fullscreenenter"",""5"",""17906""
","
","
","""event"",""trial"",""time""
""fullscreenenter"",""5"",""17906""
","
",NA,images/earth.jpg,NA,NA,NA,NA,NA,NA,NA,NA,NA,NA,NA,NA,NA,fixation,NA,NA,NA,NA,NA,NA,sub8
d3-animate-choice,273,975448,0.0-76.0-0.46,TRUE,FALSE,TRUE,FALSE,"""event"",""trial"",""time""
""fullscreenenter"",""5"",""17906""
","
","
","""event"",""trial"",""time""
""fullscreenenter"",""5"",""17906""
","
",20.615000044927,NA,49,NA,NA,3000,1,NA,NA,images/earth.jpg,images/rocket2,images/rocket1,null,images/rocket1,NA,1,real,null,1,NA,NA,NA,sub8
d3-animate-choice,274,977897,0.0-76.0-1.46,TRUE,FALSE,TRUE,FALSE,"""event"",""trial"",""time""
""fullscreenenter"",""5"",""17906""
","
","
","""event"",""trial"",""time""
""fullscreenenter"",""5"",""17906""
","
",445.975000038743,NA,48,NA,NA,3000,1,NA,NA,images/purpleplanet.jpg,images/alien4,images/alien3,images/rocket1,images/alien4,images/t.png,2,real,true,2,common,1,2020-06-09T18:22:56Z,sub8
two-step-fixation,275,978899,0.0-76.0-2.46,TRUE,FALSE,TRUE,FALSE,"""event"",""trial"",""time""
""fullscreenenter"",""5"",""17906""
","
","
","""event"",""trial"",""time""
""fullscreenenter"",""5"",""17906""
","
",NA,images/earth.jpg,NA,NA,NA,NA,NA,NA,NA,NA,NA,NA,NA,NA,NA,fixation,NA,NA,NA,NA,NA,NA,sub8
d3-animate-choice,276,981296,0.0-76.0-0.47,TRUE,FALSE,TRUE,FALSE,"""event"",""trial"",""time""
""fullscreenenter"",""5"",""17906""
","
","
","""event"",""trial"",""time""
""fullscreenenter"",""5"",""17906""
","
",394.7000000043772,NA,49,NA,NA,3000,1,NA,NA,images/earth.jpg,images/rocket2,images/rocket1,null,images/rocket1,NA,1,real,null,1,NA,NA,NA,sub8
d3-animate-choice,277,983768,0.0-76.0-1.47,TRUE,FALSE,TRUE,FALSE,"""event"",""trial"",""time""
""fullscreenenter"",""5"",""17906""
","
","
","""event"",""trial"",""time""
""fullscreenenter"",""5"",""17906""
","
",469.6750000002794,NA,48,NA,NA,3000,1,NA,NA,images/purpleplanet.jpg,images/alien4,images/alien3,images/rocket1,images/alien4,images/nothing.png,2,real,true,2,common,0,2020-06-09T18:23:02Z,sub8
two-step-fixation,278,984771,0.0-76.0-2.47,TRUE,FALSE,TRUE,FALSE,"""event"",""trial"",""time""
""fullscreenenter"",""5"",""17906""
","
","
","""event"",""trial"",""time""
""fullscreenenter"",""5"",""17906""
","
",NA,images/earth.jpg,NA,NA,NA,NA,NA,NA,NA,NA,NA,NA,NA,NA,NA,fixation,NA,NA,NA,NA,NA,NA,sub8
d3-animate-choice,279,987112,0.0-76.0-0.48,TRUE,FALSE,TRUE,FALSE,"""event"",""trial"",""time""
""fullscreenenter"",""5"",""17906""
","
","
","""event"",""trial"",""time""
""fullscreenenter"",""5"",""17906""
","
",339.02499999385327,NA,49,NA,NA,3000,1,NA,NA,images/earth.jpg,images/rocket2,images/rocket1,null,images/rocket1,NA,1,real,null,1,NA,NA,NA,sub8
d3-animate-choice,280,989745,0.0-76.0-1.48,TRUE,FALSE,TRUE,FALSE,"""event"",""trial"",""time""
""fullscreenenter"",""5"",""17906""
","
","
","""event"",""trial"",""time""
""fullscreenenter"",""5"",""17906""
","
",630.2499999874271,NA,49,NA,NA,3000,1,NA,NA,images/purpleplanet.jpg,images/alien4,images/alien3,images/rocket1,images/alien3,images/nothing.png,2,real,true,1,common,0,2020-06-09T18:23:08Z,sub8
two-step-fixation,281,990747,0.0-76.0-2.48,TRUE,FALSE,TRUE,FALSE,"""event"",""trial"",""time""
""fullscreenenter"",""5"",""17906""
","
","
","""event"",""trial"",""time""
""fullscreenenter"",""5"",""17906""
","
",NA,images/earth.jpg,NA,NA,NA,NA,NA,NA,NA,NA,NA,NA,NA,NA,NA,fixation,NA,NA,NA,NA,NA,NA,sub8
d3-animate-choice,282,992857,0.0-76.0-0.49,TRUE,FALSE,TRUE,FALSE,"""event"",""trial"",""time""
""fullscreenenter"",""5"",""17906""
","
","
","""event"",""trial"",""time""
""fullscreenenter"",""5"",""17906""
","
",107.55000001518056,NA,48,NA,NA,3000,1,NA,NA,images/earth.jpg,images/rocket2,images/rocket1,null,images/rocket2,NA,1,real,null,2,NA,NA,NA,sub8
d3-animate-choice,283,995232,0.0-76.0-1.49,TRUE,FALSE,TRUE,FALSE,"""event"",""trial"",""time""
""fullscreenenter"",""5"",""17906""
","
","
","""event"",""trial"",""time""
""fullscreenenter"",""5"",""17906""
","
",372.6299999980256,NA,48,NA,NA,3000,1,NA,NA,images/redplanet1.jpg,images/alien2,images/alien1,images/rocket2,images/alien2,images/nothing.png,2,real,true,2,common,0,2020-06-09T18:23:14Z,sub8
two-step-fixation,284,996235,0.0-76.0-2.49,TRUE,FALSE,TRUE,FALSE,"""event"",""trial"",""time""
""fullscreenenter"",""5"",""17906""
","
","
","""event"",""trial"",""time""
""fullscreenenter"",""5"",""17906""
","
