trial_type,trial_index,time_elapsed,internal_node_id,rocket_sides,red_planet_first_rocket,red_display_order,purple_display_order,interactions,blur_events,focus_events,fullscreenenter_events,fullscreenexit_events,rt,stimulus,key_press,button_pressed,success,duration,valid_pressed,rts,keys,planet_text,right_text,left_text,center_text,chosen_text,reward_text,trial_stage,practice_trial,transition_type,choice,transition,reward,timestamp,subject_id
pavlovia,0,4,0.0-0.0,FALSE,FALSE,TRUE,FALSE,"
","
","
","
","
",NA,NA,NA,NA,NA,NA,NA,NA,NA,NA,NA,NA,NA,NA,NA,NA,NA,NA,NA,NA,NA,NA,sub30
html-keyboard-response,1,1095,0.0-1.0,FALSE,FALSE,TRUE,FALSE,"
","
","
","
","
",1089.1450000053737,Welcome! Press the space bar to begin.,32,NA,NA,NA,NA,NA,NA,NA,NA,NA,NA,NA,NA,NA,NA,NA,NA,NA,NA,NA,sub30
audio-keyboard-response,2,4857,0.0-2.0,FALSE,FALSE,TRUE,FALSE,"
","
","
","
","
",3104,audio/beep_loop.wav,32,NA,NA,NA,NA,NA,NA,NA,NA,NA,NA,NA,NA,NA,NA,NA,NA,NA,NA,NA,sub30
audio-button-response,3,7934,0.0-3.0,FALSE,FALSE,TRUE,FALSE,"
","
","
","
","
",NaN,audio/fish.mp3,NA,1,NA,NA,NA,NA,NA,NA,NA,NA,NA,NA,NA,NA,NA,NA,NA,NA,NA,NA,sub30
audio-button-response,4,11407,0.0-4.0,FALSE,FALSE,TRUE,FALSE,"""event"",""trial"",""time""
""fullscreenenter"",""5"",""16064""
","
","
","""event"",""trial"",""time""
""fullscreenenter"",""5"",""16064""
","
",NaN,audio/tiger.mp3,NA,4,NA,NA,NA,NA,NA,NA,NA,NA,NA,NA,NA,NA,NA,NA,NA,NA,NA,NA,sub30
fullscreen,5,17057,0.0-5.0,FALSE,FALSE,TRUE,FALSE,"""event"",""trial"",""time""
""fullscreenenter"",""5"",""16064""
","
","
","""event"",""trial"",""time""
""fullscreenenter"",""5"",""16064""
","
",NA,NA,NA,NA,TRUE,NA,NA,NA,NA,NA,NA,NA,NA,NA,NA,NA,NA,NA,NA,NA,NA,NA,sub30
d3-instructions,6,30020,0.0-6.0,FALSE,FALSE,TRUE,FALSE,"""event"",""trial"",""time""
""fullscreenenter"",""5"",""16064""
","
","
","""event"",""trial"",""time""
""fullscreenenter"",""5"",""16064""
","
",NA,NA,NA,NA,NA,NA,NA,NA,NA,NA,NA,NA,NA,NA,NA,NA,NA,NA,NA,NA,NA,NA,sub30
d3-instructions,7,37928,0.0-7.0,FALSE,FALSE,TRUE,FALSE,"""event"",""trial"",""time""
""fullscreenenter"",""5"",""16064""
","
","
","""event"",""trial"",""time""
""fullscreenenter"",""5"",""16064""
","
",NA,NA,NA,NA,NA,NA,NA,NA,NA,NA,NA,NA,NA,NA,NA,NA,NA,NA,NA,NA,NA,NA,sub30
d3-instructions,8,44842,0.0-8.0,FALSE,FALSE,TRUE,FALSE,"""event"",""trial"",""time""
""fullscreenenter"",""5"",""16064""
","
","
","""event"",""trial"",""time""
""fullscreenenter"",""5"",""16064""
","
",NA,NA,NA,NA,NA,NA,NA,NA,NA,NA,NA,NA,NA,NA,NA,NA,NA,NA,NA,NA,NA,NA,sub30
d3-instructions,9,55315,0.0-9.0,FALSE,FALSE,TRUE,FALSE,"""event"",""trial"",""time""
""fullscreenenter"",""5"",""16064""
","
","
","""event"",""trial"",""time""
""fullscreenenter"",""5"",""16064""
","
",NA,NA,NA,NA,NA,NA,NA,NA,NA,NA,NA,NA,NA,NA,NA,NA,NA,NA,NA,NA,NA,NA,sub30
d3-instructions,10,77834,0.0-10.0,FALSE,FALSE,TRUE,FALSE,"""event"",""trial"",""time""
""fullscreenenter"",""5"",""16064""
","
","
","""event"",""trial"",""time""
""fullscreenenter"",""5"",""16064""
","
",NA,NA,NA,NA,NA,NA,NA,NA,NA,NA,NA,NA,NA,NA,NA,NA,NA,NA,NA,NA,NA,NA,sub30
d3-animate-choice,11,81780,0.0-11.0,FALSE,FALSE,TRUE,FALSE,"""event"",""trial"",""time""
""fullscreenenter"",""5"",""16064""
","
","
","""event"",""trial"",""time""
""fullscreenenter"",""5"",""16064""
","
",1929.1950000042561,NA,48,NA,NA,3000,1,NA,NA,images/tutgreenplanet.jpg,images/tutalien1,images/tutalien2,null,images/tutalien1,NA,NA,practice,null,NA,NA,NA,NA,sub30
d3-animate-choice,12,85451,0.0-12.0,FALSE,FALSE,TRUE,FALSE,"""event"",""trial"",""time""
""fullscreenenter"",""5"",""16064""
","
","
","""event"",""trial"",""time""
""fullscreenenter"",""5"",""16064""
","
",1666.9099999999162,NA,49,NA,NA,3000,1,NA,NA,images/tutgreenplanet.jpg,images/tutalien1,images/tutalien2,null,images/tutalien2,NA,NA,practice,null,NA,NA,NA,NA,sub30
d3-animate-choice,13,89418,0.0-13.0,FALSE,FALSE,TRUE,FALSE,"""event"",""trial"",""time""
""fullscreenenter"",""5"",""16064""
","
","
","""event"",""trial"",""time""
""fullscreenenter"",""5"",""16064""
","
",1959.659999993164,NA,48,NA,NA,3000,1,NA,NA,images/tutgreenplanet.jpg,images/tutalien1,images/tutalien2,null,images/tutalien1,NA,NA,practice,null,NA,NA,NA,NA,sub30
d3-animate-choice,14,92266,0.0-14.0,FALSE,FALSE,TRUE,FALSE,"""event"",""trial"",""time""
""fullscreenenter"",""5"",""16064""
","
","
","""event"",""trial"",""time""
""fullscreenenter"",""5"",""16064""
","
",842.6899999903981,NA,49,NA,NA,3000,1,NA,NA,images/tutgreenplanet.jpg,images/tutalien1,images/tutalien2,null,images/tutalien2,NA,NA,practice,null,NA,NA,NA,NA,sub30
d3-instructions,15,98354,0.0-15.0,FALSE,FALSE,TRUE,FALSE,"""event"",""trial"",""time""
""fullscreenenter"",""5"",""16064""
","
","
","""event"",""trial"",""time""
""fullscreenenter"",""5"",""16064""
","
",NA,NA,NA,NA,NA,NA,NA,NA,NA,NA,NA,NA,NA,NA,NA,NA,NA,NA,NA,NA,NA,NA,sub30
d3-instructions,16,104672,0.0-16.0,FALSE,FALSE,TRUE,FALSE,"""event"",""trial"",""time""
""fullscreenenter"",""5"",""16064""
","
","
","""event"",""trial"",""time""
""fullscreenenter"",""5"",""16064""
","
",NA,NA,NA,NA,NA,NA,NA,NA,NA,NA,NA,NA,NA,NA,NA,NA,NA,NA,NA,NA,NA,NA,sub30
d3-instructions,17,112522,0.0-17.0,FALSE,FALSE,TRUE,FALSE,"""event"",""trial"",""time""
""fullscreenenter"",""5"",""16064""
","
","
","""event"",""trial"",""time""
""fullscreenenter"",""5"",""16064""
","
",NA,NA,NA,NA,NA,NA,NA,NA,NA,NA,NA,NA,NA,NA,NA,NA,NA,NA,NA,NA,NA,NA,sub30
d3-instructions,18,124801,0.0-18.0,FALSE,FALSE,TRUE,FALSE,"""event"",""trial"",""time""
""fullscreenenter"",""5"",""16064""
","
","
","""event"",""trial"",""time""
""fullscreenenter"",""5"",""16064""
","
",NA,NA,NA,NA,NA,NA,NA,NA,NA,NA,NA,NA,NA,NA,NA,NA,NA,NA,NA,NA,NA,NA,sub30
d3-instructions,19,137850,0.0-19.0,FALSE,FALSE,TRUE,FALSE,"""event"",""trial"",""time""
""fullscreenenter"",""5"",""16064""
","
","
","""event"",""trial"",""time""
""fullscreenenter"",""5"",""16064""
","
",NA,NA,NA,NA,NA,NA,NA,NA,NA,NA,NA,NA,NA,NA,NA,NA,NA,NA,NA,NA,NA,NA,sub30
d3-animate-choice,20,140755,0.0-20.0,FALSE,FALSE,TRUE,FALSE,"""event"",""trial"",""time""
""fullscreenenter"",""5"",""16064""
","
","
","""event"",""trial"",""time""
""fullscreenenter"",""5"",""16064""
","
",900.484999991022,NA,49,NA,NA,3000,1,NA,NA,images/tutyellowplanet.jpg,null,images/tutalien3,null,images/tutalien3,images/t.png,NA,practice,null,NA,NA,NA,NA,sub30
d3-animate-choice,21,143206,0.0-21.0,FALSE,FALSE,TRUE,FALSE,"""event"",""trial"",""time""
""fullscreenenter"",""5"",""16064""
","
","
","""event"",""trial"",""time""
""fullscreenenter"",""5"",""16064""
","
",446.37499999953434,NA,49,NA,NA,3000,1,NA,NA,images/tutyellowplanet.jpg,null,images/tutalien3,null,images/tutalien3,images/nothing.png,NA,practice,null,NA,NA,NA,NA,sub30
d3-animate-choice,22,145545,0.0-22.0,FALSE,FALSE,TRUE,FALSE,"""event"",""trial"",""time""
""fullscreenenter"",""5"",""16064""
","
","
","""event"",""trial"",""time""
""fullscreenenter"",""5"",""16064""
","
",333.28000002074987,NA,49,NA,NA,3000,1,2189.2100000113714,49,images/tutyellowplanet.jpg,null,images/tutalien3,null,images/tutalien3,images/t.png,NA,practice,null,NA,NA,NA,NA,sub30
d3-animate-choice,23,148954,0.0-23.0,FALSE,FALSE,TRUE,FALSE,"""event"",""trial"",""time""
""fullscreenenter"",""5"",""16064""
","
","
","""event"",""trial"",""time""
""fullscreenenter"",""5"",""16064""
","
",1402.3849999939557,NA,49,NA,NA,3000,1,NA,NA,images/tutyellowplanet.jpg,null,images/tutalien3,null,images/tutalien3,images/t.png,NA,practice,null,NA,NA,NA,NA,sub30
d3-animate-choice,24,151473,0.0-24.0,FALSE,FALSE,TRUE,FALSE,"""event"",""trial"",""time""
""fullscreenenter"",""5"",""16064""
","
","
","""event"",""trial"",""time""
""fullscreenenter"",""5"",""16064""
","
",514.0950000204612,NA,49,NA,NA,3000,1,NA,NA,images/tutyellowplanet.jpg,null,images/tutalien3,null,images/tutalien3,images/nothing.png,NA,practice,null,NA,NA,NA,NA,sub30
d3-animate-choice,25,154026,0.0-25.0,FALSE,FALSE,TRUE,FALSE,"""event"",""trial"",""time""
""fullscreenenter"",""5"",""16064""
","
","
","""event"",""trial"",""time""
""fullscreenenter"",""5"",""16064""
","
",547.8849999781232,NA,49,NA,NA,3000,1,NA,NA,images/tutyellowplanet.jpg,null,images/tutalien3,null,images/tutalien3,images/t.png,NA,practice,null,NA,NA,NA,NA,sub30
d3-animate-choice,26,156527,0.0-26.0,FALSE,FALSE,TRUE,FALSE,"""event"",""trial"",""time""
""fullscreenenter"",""5"",""16064""
","
","
","""event"",""trial"",""time""
""fullscreenenter"",""5"",""16064""
","
",495.0550000066869,NA,49,NA,NA,3000,1,NA,NA,images/tutyellowplanet.jpg,null,images/tutalien3,null,images/tutalien3,images/t.png,NA,practice,null,NA,NA,NA,NA,sub30
d3-animate-choice,27,159106,0.0-27.0,FALSE,FALSE,TRUE,FALSE,"""event"",""trial"",""time""
""fullscreenenter"",""5"",""16064""
","
","
","""event"",""trial"",""time""
""fullscreenenter"",""5"",""16064""
","
",572.5849999871571,NA,49,NA,NA,3000,1,NA,NA,images/tutyellowplanet.jpg,null,images/tutalien3,null,images/tutalien3,images/t.png,NA,practice,null,NA,NA,NA,NA,sub30
d3-animate-choice,28,161606,0.0-28.0,FALSE,FALSE,TRUE,FALSE,"""event"",""trial"",""time""
""fullscreenenter"",""5"",""16064""
","
","
","""event"",""trial"",""time""
""fullscreenenter"",""5"",""16064""
","
",496.5350000129547,NA,49,NA,NA,3000,1,2154.775000002701,49,images/tutyellowplanet.jpg,null,images/tutalien3,null,images/tutalien3,images/t.png,NA,practice,null,NA,NA,NA,NA,sub30
d3-animate-choice,29,163961,0.0-29.0,FALSE,FALSE,TRUE,FALSE,"""event"",""trial"",""time""
""fullscreenenter"",""5"",""16064""
","
","
","""event"",""trial"",""time""
""fullscreenenter"",""5"",""16064""
","
",351.040000008652,NA,49,NA,NA,3000,1,NA,NA,images/tutyellowplanet.jpg,null,images/tutalien3,null,images/tutalien3,images/t.png,NA,practice,null,NA,NA,NA,NA,sub30
d3-instructions,30,169755,0.0-30.0,FALSE,FALSE,TRUE,FALSE,"""event"",""trial"",""time""
""fullscreenenter"",""5"",""16064""
","
","
","""event"",""trial"",""time""
""fullscreenenter"",""5"",""16064""
","
",NA,NA,NA,NA,NA,NA,NA,NA,NA,NA,NA,NA,NA,NA,NA,NA,NA,NA,NA,NA,NA,NA,sub30
d3-instructions,31,179744,0.0-31.0,FALSE,FALSE,TRUE,FALSE,"""event"",""trial"",""time""
""fullscreenenter"",""5"",""16064""
","
","
","""event"",""trial"",""time""
""fullscreenenter"",""5"",""16064""
","
",NA,NA,NA,NA,NA,NA,NA,NA,NA,NA,NA,NA,NA,NA,NA,NA,NA,NA,NA,NA,NA,NA,sub30
d3-instructions,32,186433,0.0-32.0,FALSE,FALSE,TRUE,FALSE,"""event"",""trial"",""time""
""fullscreenenter"",""5"",""16064""
","
","
","""event"",""trial"",""time""
""fullscreenenter"",""5"",""16064""
","
",NA,NA,NA,NA,NA,NA,NA,NA,NA,NA,NA,NA,NA,NA,NA,NA,NA,NA,NA,NA,NA,NA,sub30
d3-instructions,33,193206,0.0-33.0,FALSE,FALSE,TRUE,FALSE,"""event"",""trial"",""time""
""fullscreenenter"",""5"",""16064""
","
","
","""event"",""trial"",""time""
""fullscreenenter"",""5"",""16064""
","
",NA,NA,NA,NA,NA,NA,NA,NA,NA,NA,NA,NA,NA,NA,NA,NA,NA,NA,NA,NA,NA,NA,sub30
d3-animate-choice,34,196299,0.0-34.0,FALSE,FALSE,TRUE,FALSE,"""event"",""trial"",""time""
""fullscreenenter"",""5"",""16064""
","
","
","""event"",""trial"",""time""
""fullscreenenter"",""5"",""16064""
","
",1086.2400000041816,NA,49,NA,NA,3000,1,NA,NA,images/tutgreenplanet.jpg,images/tutalien1,images/tutalien2,null,images/tutalien2,images/t.png,NA,practice,null,NA,NA,NA,NA,sub30
d3-animate-choice,35,199239,0.0-35.0,FALSE,FALSE,TRUE,FALSE,"""event"",""trial"",""time""
""fullscreenenter"",""5"",""16064""
","
","
","""event"",""trial"",""time""
""fullscreenenter"",""5"",""16064""
","
",934.0850000153296,NA,48,NA,NA,3000,1,NA,NA,images/tutgreenplanet.jpg,images/tutalien1,images/tutalien2,null,images/tutalien1,images/nothing.png,NA,practice,null,NA,NA,NA,NA,sub30
d3-animate-choice,36,201611,0.0-36.0,FALSE,FALSE,TRUE,FALSE,"""event"",""trial"",""time""
""fullscreenenter"",""5"",""16064""
","
","
","""event"",""trial"",""time""
""fullscreenenter"",""5"",""16064""
","
",364.06999998143874,NA,49,NA,NA,3000,1,NA,NA,images/tutgreenplanet.jpg,images/tutalien1,images/tutalien2,null,images/tutalien2,images/nothing.png,NA,practice,null,NA,NA,NA,NA,sub30
d3-animate-choice,37,203955,0.0-37.0,FALSE,FALSE,TRUE,FALSE,"""event"",""trial"",""time""
""fullscreenenter"",""5"",""16064""
","
","
","""event"",""trial"",""time""
""fullscreenenter"",""5"",""16064""
","
",339.7899999981746,NA,49,NA,NA,3000,1,NA,NA,images/tutgreenplanet.jpg,images/tutalien1,images/tutalien2,null,images/tutalien2,images/nothing.png,NA,practice,null,NA,NA,NA,NA,sub30
d3-animate-choice,38,206287,0.0-38.0,FALSE,FALSE,TRUE,FALSE,"""event"",""trial"",""time""
""fullscreenenter"",""5"",""16064""
","
","
","""event"",""trial"",""time""
""fullscreenenter"",""5"",""16064""
","
",327.8449999925215,NA,48,NA,NA,3000,1,NA,NA,images/tutgreenplanet.jpg,images/tutalien1,images/tutalien2,null,images/tutalien1,images/nothing.png,NA,practice,null,NA,NA,NA,NA,sub30
d3-animate-choice,39,208586,0.0-39.0,FALSE,FALSE,TRUE,FALSE,"""event"",""trial"",""time""
""fullscreenenter"",""5"",""16064""
","
","
","""event"",""trial"",""time""
""fullscreenenter"",""5"",""16064""
","
",290.5299999983981,NA,48,NA,NA,3000,1,NA,NA,images/tutgreenplanet.jpg,images/tutalien1,images/tutalien2,null,images/tutalien1,images/nothing.png,NA,practice,null,NA,NA,NA,NA,sub30
d3-animate-choice,40,210911,0.0-40.0,FALSE,FALSE,TRUE,FALSE,"""event"",""trial"",""time""
""fullscreenenter"",""5"",""16064""
","
","
","""event"",""trial"",""time""
""fullscreenenter"",""5"",""16064""
","
",319.50499999220483,NA,48,NA,NA,3000,1,NA,NA,images/tutgreenplanet.jpg,images/tutalien1,images/tutalien2,null,images/tutalien1,images/nothing.png,NA,practice,null,NA,NA,NA,NA,sub30
d3-animate-choice,41,213197,0.0-41.0,FALSE,FALSE,TRUE,FALSE,"""event"",""trial"",""time""
""fullscreenenter"",""5"",""16064""
","
","
","""event"",""trial"",""time""
""fullscreenenter"",""5"",""16064""
","
",281.09000000404194,NA,48,NA,NA,3000,1,NA,NA,images/tutgreenplanet.jpg,images/tutalien1,images/tutalien2,null,images/tutalien1,images/nothing.png,NA,practice,null,NA,NA,NA,NA,sub30
d3-animate-choice,42,215458,0.0-42.0,FALSE,FALSE,TRUE,FALSE,"""event"",""trial"",""time""
""fullscreenenter"",""5"",""16064""
","
","
","""event"",""trial"",""time""
""fullscreenenter"",""5"",""16064""
","
",255.95999998040497,NA,49,NA,NA,3000,1,NA,NA,images/tutgreenplanet.jpg,images/tutalien1,images/tutalien2,null,images/tutalien2,images/t.png,NA,practice,null,NA,NA,NA,NA,sub30
d3-animate-choice,43,217743,0.0-43.0,FALSE,FALSE,TRUE,FALSE,"""event"",""trial"",""time""
""fullscreenenter"",""5"",""16064""
","
","
","""event"",""trial"",""time""
""fullscreenenter"",""5"",""16064""
","
",280.41000000666827,NA,49,NA,NA,3000,1,NA,NA,images/tutgreenplanet.jpg,images/tutalien1,images/tutalien2,null,images/tutalien2,images/t.png,NA,practice,null,NA,NA,NA,NA,sub30
d3-instructions,44,229698,0.0-44.0,FALSE,FALSE,TRUE,FALSE,"""event"",""trial"",""time""
""fullscreenenter"",""5"",""16064""
","
","
","""event"",""trial"",""time""
""fullscreenenter"",""5"",""16064""
","
",NA,NA,NA,NA,NA,NA,NA,NA,NA,NA,NA,NA,NA,NA,NA,NA,NA,NA,NA,NA,NA,NA,sub30
d3-instructions,45,234887,0.0-45.0,FALSE,FALSE,TRUE,FALSE,"""event"",""trial"",""time""
""fullscreenenter"",""5"",""16064""
","
","
","""event"",""trial"",""time""
""fullscreenenter"",""5"",""16064""
","
",NA,NA,NA,NA,NA,NA,NA,NA,NA,NA,NA,NA,NA,NA,NA,NA,NA,NA,NA,NA,NA,NA,sub30
d3-instructions,46,238834,0.0-46.0,FALSE,FALSE,TRUE,FALSE,"""event"",""trial"",""time""
""fullscreenenter"",""5"",""16064""
","
","
","""event"",""trial"",""time""
""fullscreenenter"",""5"",""16064""
","
",NA,NA,NA,NA,NA,NA,NA,NA,NA,NA,NA,NA,NA,NA,NA,NA,NA,NA,NA,NA,NA,NA,sub30
d3-instructions,47,255273,0.0-47.0,FALSE,FALSE,TRUE,FALSE,"""event"",""trial"",""time""
""fullscreenenter"",""5"",""16064""
","
","
","""event"",""trial"",""time""
""fullscreenenter"",""5"",""16064""
","
",NA,NA,NA,NA,NA,NA,NA,NA,NA,NA,NA,NA,NA,NA,NA,NA,NA,NA,NA,NA,NA,NA,sub30
d3-instructions,48,261226,0.0-48.0,FALSE,FALSE,TRUE,FALSE,"""event"",""trial"",""time""
""fullscreenenter"",""5"",""16064""
","
","
","""event"",""trial"",""time""
""fullscreenenter"",""5"",""16064""
","
",NA,NA,NA,NA,NA,NA,NA,NA,NA,NA,NA,NA,NA,NA,NA,NA,NA,NA,NA,NA,NA,NA,sub30
d3-instructions,49,271659,0.0-49.0,FALSE,FALSE,TRUE,FALSE,"""event"",""trial"",""time""
""fullscreenenter"",""5"",""16064""
","
","
","""event"",""trial"",""time""
""fullscreenenter"",""5"",""16064""
","
",NA,NA,NA,NA,NA,NA,NA,NA,NA,NA,NA,NA,NA,NA,NA,NA,NA,NA,NA,NA,NA,NA,sub30
d3-instructions,50,280726,0.0-50.0,FALSE,FALSE,TRUE,FALSE,"""event"",""trial"",""time""
""fullscreenenter"",""5"",""16064""
","
","
","""event"",""trial"",""time""
""fullscreenenter"",""5"",""16064""
","
",NA,NA,NA,NA,NA,NA,NA,NA,NA,NA,NA,NA,NA,NA,NA,NA,NA,NA,NA,NA,NA,NA,sub30
d3-instructions,51,283057,0.0-51.0,FALSE,FALSE,TRUE,FALSE,"""event"",""trial"",""time""
""fullscreenenter"",""5"",""16064""
","
","
","""event"",""trial"",""time""
""fullscreenenter"",""5"",""16064""
","
",NA,NA,NA,NA,NA,NA,NA,NA,NA,NA,NA,NA,NA,NA,NA,NA,NA,NA,NA,NA,NA,NA,sub30
d3-instructions,52,285439,0.0-52.0,FALSE,FALSE,TRUE,FALSE,"""event"",""trial"",""time""
""fullscreenenter"",""5"",""16064""
","
","
","""event"",""trial"",""time""
""fullscreenenter"",""5"",""16064""
","
",NA,NA,NA,NA,NA,NA,NA,NA,NA,NA,NA,NA,NA,NA,NA,NA,NA,NA,NA,NA,NA,NA,sub30
d3-instructions,53,296580,0.0-53.0,FALSE,FALSE,TRUE,FALSE,"""event"",""trial"",""time""
""fullscreenenter"",""5"",""16064""
","
","
","""event"",""trial"",""time""
""fullscreenenter"",""5"",""16064""
","
",NA,NA,NA,NA,NA,NA,NA,NA,NA,NA,NA,NA,NA,NA,NA,NA,NA,NA,NA,NA,NA,NA,sub30
d3-instructions,54,308692,0.0-54.0,FALSE,FALSE,TRUE,FALSE,"""event"",""trial"",""time""
""fullscreenenter"",""5"",""16064""
","
","
","""event"",""trial"",""time""
""fullscreenenter"",""5"",""16064""
","
",NA,NA,NA,NA,NA,NA,NA,NA,NA,NA,NA,NA,NA,NA,NA,NA,NA,NA,NA,NA,NA,NA,sub30
d3-instructions,55,318969,0.0-55.0,FALSE,FALSE,TRUE,FALSE,"""event"",""trial"",""time""
""fullscreenenter"",""5"",""16064""
","
","
","""event"",""trial"",""time""
""fullscreenenter"",""5"",""16064""
","
",NA,NA,NA,NA,NA,NA,NA,NA,NA,NA,NA,NA,NA,NA,NA,NA,NA,NA,NA,NA,NA,NA,sub30
d3-instructions,56,326897,0.0-56.0,FALSE,FALSE,TRUE,FALSE,"""event"",""trial"",""time""
""fullscreenenter"",""5"",""16064""
","
","
","""event"",""trial"",""time""
""fullscreenenter"",""5"",""16064""
","
",NA,NA,NA,NA,NA,NA,NA,NA,NA,NA,NA,NA,NA,NA,NA,NA,NA,NA,NA,NA,NA,NA,sub30
d3-instructions,57,336352,0.0-57.0,FALSE,FALSE,TRUE,FALSE,"""event"",""trial"",""time""
""fullscreenenter"",""5"",""16064""
","
","
","""event"",""trial"",""time""
""fullscreenenter"",""5"",""16064""
","
",NA,NA,NA,NA,NA,NA,NA,NA,NA,NA,NA,NA,NA,NA,NA,NA,NA,NA,NA,NA,NA,NA,sub30
d3-instructions,58,346728,0.0-58.0,FALSE,FALSE,TRUE,FALSE,"""event"",""trial"",""time""
""fullscreenenter"",""5"",""16064""
","
","
","""event"",""trial"",""time""
""fullscreenenter"",""5"",""16064""
","
",NA,NA,NA,NA,NA,NA,NA,NA,NA,NA,NA,NA,NA,NA,NA,NA,NA,NA,NA,NA,NA,NA,sub30
d3-instructions,59,350697,0.0-59.0,FALSE,FALSE,TRUE,FALSE,"""event"",""trial"",""time""
""fullscreenenter"",""5"",""16064""
","
","
","""event"",""trial"",""time""
""fullscreenenter"",""5"",""16064""
","
",NA,NA,NA,NA,NA,NA,NA,NA,NA,NA,NA,NA,NA,NA,NA,NA,NA,NA,NA,NA,NA,NA,sub30
d3-instructions,60,356840,0.0-60.0,FALSE,FALSE,TRUE,FALSE,"""event"",""trial"",""time""
""fullscreenenter"",""5"",""16064""
","
","
","""event"",""trial"",""time""
""fullscreenenter"",""5"",""16064""
","
",NA,NA,NA,NA,NA,NA,NA,NA,NA,NA,NA,NA,NA,NA,NA,NA,NA,NA,NA,NA,NA,NA,sub30
d3-animate-choice,61,359775,0.0-61.0-0.0,FALSE,FALSE,TRUE,FALSE,"""event"",""trial"",""time""
""fullscreenenter"",""5"",""16064""
","
","
","""event"",""trial"",""time""
""fullscreenenter"",""5"",""16064""
","
",925.9900000179186,NA,49,NA,NA,3000,1,NA,NA,images/earth.jpg,images/tutrocket2,images/tutrocket1,null,images/tutrocket1,NA,1,practice,null,1,NA,NA,NA,sub30
d3-animate-choice,62,363787,0.0-61.0-1.0,FALSE,FALSE,TRUE,FALSE,"""event"",""trial"",""time""
""fullscreenenter"",""5"",""16064""
","
","
","""event"",""trial"",""time""
""fullscreenenter"",""5"",""16064""
","
",3319.324999989476,NA,49,NA,NA,3000,0,NA,NA,images/tutgreenplanet.jpg,images/tutalien2,images/tutalien1,images/tutrocket1,NA,NA,2,practice,false,1,rare,0,2020-06-10T17:58:15Z,sub30
two-step-fixation,63,364807,0.0-61.0-2.0,FALSE,FALSE,TRUE,FALSE,"""event"",""trial"",""time""
""fullscreenenter"",""5"",""16064""
","
","
","""event"",""trial"",""time""
""fullscreenenter"",""5"",""16064""
","
",NA,images/earth.jpg,NA,NA,NA,NA,NA,NA,NA,NA,NA,NA,NA,NA,NA,fixation,NA,NA,NA,NA,NA,NA,sub30
d3-animate-choice,64,367737,0.0-61.0-0.1,FALSE,FALSE,TRUE,FALSE,"""event"",""trial"",""time""
""fullscreenenter"",""5"",""16064""
","
","
","""event"",""trial"",""time""
""fullscreenenter"",""5"",""16064""
","
",925.6300000124611,NA,48,NA,NA,3000,1,NA,NA,images/earth.jpg,images/tutrocket2,images/tutrocket1,null,images/tutrocket2,NA,1,practice,null,2,NA,NA,NA,sub30
d3-animate-choice,65,370343,0.0-61.0-1.1,FALSE,FALSE,TRUE,FALSE,"""event"",""trial"",""time""
""fullscreenenter"",""5"",""16064""
","
","
","""event"",""trial"",""time""
""fullscreenenter"",""5"",""16064""
","
",594.8199999984354,NA,48,NA,NA,3000,1,NA,NA,images/tutgreenplanet.jpg,images/tutalien2,images/tutalien1,images/tutrocket2,images/tutalien2,images/nothing.png,2,practice,true,2,common,0,2020-06-10T17:58:22Z,sub30
two-step-fixation,66,371346,0.0-61.0-2.1,FALSE,FALSE,TRUE,FALSE,"""event"",""trial"",""time""
""fullscreenenter"",""5"",""16064""
","
","
","""event"",""trial"",""time""
""fullscreenenter"",""5"",""16064""
","
",NA,images/earth.jpg,NA,NA,NA,NA,NA,NA,NA,NA,NA,NA,NA,NA,NA,fixation,NA,NA,NA,NA,NA,NA,sub30
d3-animate-choice,67,374346,0.0-61.0-0.2,FALSE,FALSE,TRUE,FALSE,"""event"",""trial"",""time""
""fullscreenenter"",""5"",""16064""
","
","
","""event"",""trial"",""time""
""fullscreenenter"",""5"",""16064""
","
",995.1399999845307,NA,48,NA,NA,3000,1,NA,NA,images/earth.jpg,images/tutrocket2,images/tutrocket1,null,images/tutrocket2,NA,1,practice,null,2,NA,NA,NA,sub30
d3-animate-choice,68,377399,0.0-61.0-1.2,FALSE,FALSE,TRUE,FALSE,"""event"",""trial"",""time""
""fullscreenenter"",""5"",""16064""
","
","
","""event"",""trial"",""time""
""fullscreenenter"",""5"",""16064""
","
",1047.6999999955297,NA,49,NA,NA,3000,1,NA,NA,images/tutgreenplanet.jpg,images/tutalien2,images/tutalien1,images/tutrocket2,images/tutalien1,images/nothing.png,2,practice,true,1,common,0,2020-06-10T17:58:29Z,sub30
two-step-fixation,69,378406,0.0-61.0-2.2,FALSE,FALSE,TRUE,FALSE,"""event"",""trial"",""time""
""fullscreenenter"",""5"",""16064""
","
","
","""event"",""trial"",""time""
""fullscreenenter"",""5"",""16064""
","
",NA,images/earth.jpg,NA,NA,NA,NA,NA,NA,NA,NA,NA,NA,NA,NA,NA,fixation,NA,NA,NA,NA,NA,NA,sub30
d3-animate-choice,70,380796,0.0-61.0-0.3,FALSE,FALSE,TRUE,FALSE,"""event"",""trial"",""time""
""fullscreenenter"",""5"",""16064""
","
","
","""event"",""trial"",""time""
""fullscreenenter"",""5"",""16064""
","
",383.0350000062026,NA,49,NA,NA,3000,1,NA,NA,images/earth.jpg,images/tutrocket2,images/tutrocket1,null,images/tutrocket1,NA,1,practice,null,1,NA,NA,NA,sub30
d3-animate-choice,71,384002,0.0-61.0-1.3,FALSE,FALSE,TRUE,FALSE,"""event"",""trial"",""time""
""fullscreenenter"",""5"",""16064""
","
","
","""event"",""trial"",""time""
""fullscreenenter"",""5"",""16064""
","
",1196.9350000144914,NA,49,NA,NA,3000,1,NA,NA,images/tutyellowplanet.jpg,images/tutalien4,images/tutalien3,images/tutrocket1,images/tutalien3,images/nothing.png,2,practice,true,1,common,0,2020-06-10T17:58:36Z,sub30
two-step-fixation,72,385004,0.0-61.0-2.3,FALSE,FALSE,TRUE,FALSE,"""event"",""trial"",""time""
""fullscreenenter"",""5"",""16064""
","
","
","""event"",""trial"",""time""
""fullscreenenter"",""5"",""16064""
","
",NA,images/earth.jpg,NA,NA,NA,NA,NA,NA,NA,NA,NA,NA,NA,NA,NA,fixation,NA,NA,NA,NA,NA,NA,sub30
d3-animate-choice,73,387545,0.0-61.0-0.4,FALSE,FALSE,TRUE,FALSE,"""event"",""trial"",""time""
""fullscreenenter"",""5"",""16064""
","
","
","""event"",""trial"",""time""
""fullscreenenter"",""5"",""16064""
","
",534.2649999947753,NA,49,NA,NA,3000,1,NA,NA,images/earth.jpg,images/tutrocket2,images/tutrocket1,null,images/tutrocket1,NA,1,practice,null,1,NA,NA,NA,sub30
d3-animate-choice,74,391224,0.0-61.0-1.4,FALSE,FALSE,TRUE,FALSE,"""event"",""trial"",""time""
""fullscreenenter"",""5"",""16064""
","
","
","""event"",""trial"",""time""
""fullscreenenter"",""5"",""16064""
","
",1674.1599999950267,NA,49,NA,NA,3000,1,NA,NA,images/tutgreenplanet.jpg,images/tutalien2,images/tutalien1,images/tutrocket1,images/tutalien1,images/nothing.png,2,practice,false,1,rare,0,2020-06-10T17:58:43Z,sub30
two-step-fixation,75,392230,0.0-61.0-2.4,FALSE,FALSE,TRUE,FALSE,"""event"",""trial"",""time""
""fullscreenenter"",""5"",""16064""
","
","
","""event"",""trial"",""time""
""fullscreenenter"",""5"",""16064""
","
",NA,images/earth.jpg,NA,NA,NA,NA,NA,NA,NA,NA,NA,NA,NA,NA,NA,fixation,NA,NA,NA,NA,NA,NA,sub30
d3-animate-choice,76,395031,0.0-61.0-0.5,FALSE,FALSE,TRUE,FALSE,"""event"",""trial"",""time""
""fullscreenenter"",""5"",""16064""
","
","
","""event"",""trial"",""time""
""fullscreenenter"",""5"",""16064""
","
",795.9699999773875,NA,48,NA,NA,3000,1,NA,NA,images/earth.jpg,images/tutrocket2,images/tutrocket1,null,images/tutrocket2,NA,1,practice,null,2,NA,NA,NA,sub30
d3-animate-choice,77,397794,0.0-61.0-1.5,FALSE,FALSE,TRUE,FALSE,"""event"",""trial"",""time""
""fullscreenenter"",""5"",""16064""
","
","
","""event"",""trial"",""time""
""fullscreenenter"",""5"",""16064""
","
",758.6500000033993,NA,48,NA,NA,3000,1,NA,NA,images/tutgreenplanet.jpg,images/tutalien2,images/tutalien1,images/tutrocket2,images/tutalien2,images/nothing.png,2,practice,true,2,common,0,2020-06-10T17:58:49Z,sub30
two-step-fixation,78,398801,0.0-61.0-2.5,FALSE,FALSE,TRUE,FALSE,"""event"",""trial"",""time""
""fullscreenenter"",""5"",""16064""
","
","
","""event"",""trial"",""time""
""fullscreenenter"",""5"",""16064""
","
",NA,images/earth.jpg,NA,NA,NA,NA,NA,NA,NA,NA,NA,NA,NA,NA,NA,fixation,NA,NA,NA,NA,NA,NA,sub30
d3-animate-choice,79,401344,0.0-61.0-0.6,FALSE,FALSE,TRUE,FALSE,"""event"",""trial"",""time""
""fullscreenenter"",""5"",""16064""
","
","
","""event"",""trial"",""time""
""fullscreenenter"",""5"",""16064""
","
",537.2250000073109,NA,49,NA,NA,3000,1,NA,NA,images/earth.jpg,images/tutrocket2,images/tutrocket1,null,images/tutrocket1,NA,1,practice,null,1,NA,NA,NA,sub30
d3-animate-choice,80,404351,0.0-61.0-1.6,FALSE,FALSE,TRUE,FALSE,"""event"",""trial"",""time""
""fullscreenenter"",""5"",""16064""
","
","
","""event"",""trial"",""time""
""fullscreenenter"",""5"",""16064""
","
",996.8949999893084,NA,49,NA,NA,3000,1,NA,NA,images/tutgreenplanet.jpg,images/tutalien2,images/tutalien1,images/tutrocket1,images/tutalien1,images/t.png,2,practice,false,1,rare,1,2020-06-10T17:58:56Z,sub30
two-step-fixation,81,405356,0.0-61.0-2.6,FALSE,FALSE,TRUE,FALSE,"""event"",""trial"",""time""
""fullscreenenter"",""5"",""16064""
","
","
","""event"",""trial"",""time""
""fullscreenenter"",""5"",""16064""
","
",NA,images/earth.jpg,NA,NA,NA,NA,NA,NA,NA,NA,NA,NA,NA,NA,NA,fixation,NA,NA,NA,NA,NA,NA,sub30
d3-animate-choice,82,408455,0.0-61.0-0.7,FALSE,FALSE,TRUE,FALSE,"""event"",""trial"",""time""
""fullscreenenter"",""5"",""16064""
","
","
","""event"",""trial"",""time""
""fullscreenenter"",""5"",""16064""
","
",1092.3800000164192,NA,48,NA,NA,3000,1,NA,NA,images/earth.jpg,images/tutrocket2,images/tutrocket1,null,images/tutrocket2,NA,1,practice,null,2,NA,NA,NA,sub30
d3-animate-choice,83,412015,0.0-61.0-1.7,FALSE,FALSE,TRUE,FALSE,"""event"",""trial"",""time""
""fullscreenenter"",""5"",""16064""
","
","
","""event"",""trial"",""time""
""fullscreenenter"",""5"",""16064""
","
",1553.2799999928102,NA,49,NA,NA,3000,1,NA,NA,images/tutgreenplanet.jpg,images/tutalien2,images/tutalien1,images/tutrocket2,images/tutalien1,images/t.png,2,practice,true,1,common,1,2020-06-10T17:59:04Z,sub30
two-step-fixation,84,413017,0.0-61.0-2.7,FALSE,FALSE,TRUE,FALSE,"""event"",""trial"",""time""
""fullscreenenter"",""5"",""16064""
","
","
","""event"",""trial"",""time""
""fullscreenenter"",""5"",""16064""
","
",NA,images/earth.jpg,NA,NA,NA,NA,NA,NA,NA,NA,NA,NA,NA,NA,NA,fixation,NA,NA,NA,NA,NA,NA,sub30
d3-animate-choice,85,416270,0.0-61.0-0.8,FALSE,FALSE,TRUE,FALSE,"""event"",""trial"",""time""
""fullscreenenter"",""5"",""16064""
","
","
","""event"",""trial"",""time""
""fullscreenenter"",""5"",""16064""
","
",1248.909999994794,NA,49,NA,NA,3000,1,NA,NA,images/earth.jpg,images/tutrocket2,images/tutrocket1,null,images/tutrocket1,NA,1,practice,null,1,NA,NA,NA,sub30
d3-animate-choice,86,419331,0.0-61.0-1.8,FALSE,FALSE,TRUE,FALSE,"""event"",""trial"",""time""
""fullscreenenter"",""5"",""16064""
","
","
","""event"",""trial"",""time""
""fullscreenenter"",""5"",""16064""
","
",1055.99500000244,NA,49,NA,NA,3000,1,NA,NA,images/tutyellowplanet.jpg,images/tutalien4,images/tutalien3,images/tutrocket1,images/tutalien3,images/nothing.png,2,practice,true,1,common,0,2020-06-10T17:59:11Z,sub30
two-step-fixation,87,420337,0.0-61.0-2.8,FALSE,FALSE,TRUE,FALSE,"""event"",""trial"",""time""
""fullscreenenter"",""5"",""16064""
","
","
","""event"",""trial"",""time""
""fullscreenenter"",""5"",""16064""
","
",NA,images/earth.jpg,NA,NA,NA,NA,NA,NA,NA,NA,NA,NA,NA,NA,NA,fixation,NA,NA,NA,NA,NA,NA,sub30
d3-animate-choice,88,422911,0.0-61.0-0.9,FALSE,FALSE,TRUE,FALSE,"""event"",""trial"",""time""
""fullscreenenter"",""5"",""16064""
","
","
","""event"",""trial"",""time""
""fullscreenenter"",""5"",""16064""
","
",568.5099999827798,NA,49,NA,NA,3000,1,NA,NA,images/earth.jpg,images/tutrocket2,images/tutrocket1,null,images/tutrocket1,NA,1,practice,null,1,NA,NA,NA,sub30
d3-animate-choice,89,425257,0.0-61.0-1.9,FALSE,FALSE,TRUE,FALSE,"""event"",""trial"",""time""
""fullscreenenter"",""5"",""16064""
","
","
","""event"",""trial"",""time""
""fullscreenenter"",""5"",""16064""
","
",339.24499998101965,NA,48,NA,NA,3000,1,NA,NA,images/tutyellowplanet.jpg,images/tutalien4,images/tutalien3,images/tutrocket1,images/tutalien4,images/nothing.png,2,practice,true,2,common,0,2020-06-10T17:59:17Z,sub30
two-step-fixation,90,426262,0.0-61.0-2.9,FALSE,FALSE,TRUE,FALSE,"""event"",""trial"",""time""
""fullscreenenter"",""5"",""16064""
","
","
","""event"",""trial"",""time""
""fullscreenenter"",""5"",""16064""
","
",NA,images/earth.jpg,NA,NA,NA,NA,NA,NA,NA,NA,NA,NA,NA,NA,NA,fixation,NA,NA,NA,NA,NA,NA,sub30
d3-animate-choice,91,428565,0.0-61.0-0.10,FALSE,FALSE,TRUE,FALSE,"""event"",""trial"",""time""
""fullscreenenter"",""5"",""16064""
","
","
","""event"",""trial"",""time""
""fullscreenenter"",""5"",""16064""
","
",297.46000000159256,NA,49,NA,NA,3000,1,NA,NA,images/earth.jpg,images/tutrocket2,images/tutrocket1,null,images/tutrocket1,NA,1,practice,null,1,NA,NA,NA,sub30
d3-animate-choice,92,430889,0.0-61.0-1.10,FALSE,FALSE,TRUE,FALSE,"""event"",""trial"",""time""
""fullscreenenter"",""5"",""16064""
","
","
","""event"",""trial"",""time""
""fullscreenenter"",""5"",""16064""
","
",320.00500001595356,NA,48,NA,NA,3000,1,NA,NA,images/tutyellowplanet.jpg,images/tutalien4,images/tutalien3,images/tutrocket1,images/tutalien4,images/t.png,2,practice,true,2,common,1,2020-06-10T17:59:22Z,sub30
two-step-fixation,93,431895,0.0-61.0-2.10,FALSE,FALSE,TRUE,FALSE,"""event"",""trial"",""time""
""fullscreenenter"",""5"",""16064""
","
","
","""event"",""trial"",""time""
""fullscreenenter"",""5"",""16064""
","
",NA,images/earth.jpg,NA,NA,NA,NA,NA,NA,NA,NA,NA,NA,NA,NA,NA,fixation,NA,NA,NA,NA,NA,NA,sub30
d3-animate-choice,94,434225,0.0-61.0-0.11,FALSE,FALSE,TRUE,FALSE,"""event"",""trial"",""time""
""fullscreenenter"",""5"",""16064""
","
","
","""event"",""trial"",""time""
""fullscreenenter"",""5"",""16064""
","
",323.87000002199784,NA,49,NA,NA,3000,1,NA,NA,images/earth.jpg,images/tutrocket2,images/tutrocket1,null,images/tutrocket1,NA,1,practice,null,1,NA,NA,NA,sub30
d3-animate-choice,95,436587,0.0-61.0-1.11,FALSE,FALSE,TRUE,FALSE,"""event"",""trial"",""time""
""fullscreenenter"",""5"",""16064""
","
","
","""event"",""trial"",""time""
""fullscreenenter"",""5"",""16064""
","
",356.84999998193234,NA,48,NA,NA,3000,1,NA,NA,images/tutyellowplanet.jpg,images/tutalien4,images/tutalien3,images/tutrocket1,images/tutalien4,images/t.png,2,practice,true,2,common,1,2020-06-10T17:59:28Z,sub30
two-step-fixation,96,437596,0.0-61.0-2.11,FALSE,FALSE,TRUE,FALSE,"""event"",""trial"",""time""
""fullscreenenter"",""5"",""16064""
","
","
","""event"",""trial"",""time""
""fullscreenenter"",""5"",""16064""
","
",NA,images/earth.jpg,NA,NA,NA,NA,NA,NA,NA,NA,NA,NA,NA,NA,NA,fixation,NA,NA,NA,NA,NA,NA,sub30
d3-animate-choice,97,440172,0.0-61.0-0.12,FALSE,FALSE,TRUE,FALSE,"""event"",""trial"",""time""
""fullscreenenter"",""5"",""16064""
","
","
","""event"",""trial"",""time""
""fullscreenenter"",""5"",""16064""
","
",569.1049999732058,NA,49,NA,NA,3000,1,NA,NA,images/earth.jpg,images/tutrocket2,images/tutrocket1,null,images/tutrocket1,NA,1,practice,null,1,NA,NA,NA,sub30
d3-animate-choice,98,442758,0.0-61.0-1.12,FALSE,FALSE,TRUE,FALSE,"""event"",""trial"",""time""
""fullscreenenter"",""5"",""16064""
","
","
","""event"",""trial"",""time""
""fullscreenenter"",""5"",""16064""
","
",581.1249999969732,NA,48,NA,NA,3000,1,NA,NA,images/tutyellowplanet.jpg,images/tutalien4,images/tutalien3,images/tutrocket1,images/tutalien4,images/t.png,2,practice,true,2,common,1,2020-06-10T17:59:34Z,sub30
two-step-fixation,99,443763,0.0-61.0-2.12,FALSE,FALSE,TRUE,FALSE,"""event"",""trial"",""time""
""fullscreenenter"",""5"",""16064""
","
","
","""event"",""trial"",""time""
""fullscreenenter"",""5"",""16064""
","
",NA,images/earth.jpg,NA,NA,NA,NA,NA,NA,NA,NA,NA,NA,NA,NA,NA,fixation,NA,NA,NA,NA,NA,NA,sub30
d3-animate-choice,100,446058,0.0-61.0-0.13,FALSE,FALSE,TRUE,FALSE,"""event"",""trial"",""time""
""fullscreenenter"",""5"",""16064""
","
","
","""event"",""trial"",""time""
""fullscreenenter"",""5"",""16064""
","
",290.4250000137836,NA,48,NA,NA,3000,1,NA,NA,images/earth.jpg,images/tutrocket2,images/tutrocket1,null,images/tutrocket2,NA,1,practice,null,2,NA,NA,NA,sub30
d3-animate-choice,101,449194,0.0-61.0-1.13,FALSE,FALSE,TRUE,FALSE,"""event"",""trial"",""time""
""fullscreenenter"",""5"",""16064""
","
","
","""event"",""trial"",""time""
""fullscreenenter"",""5"",""16064""
","
",1132.3400000110269,NA,48,NA,NA,3000,1,NA,NA,images/tutyellowplanet.jpg,images/tutalien4,images/tutalien3,images/tutrocket2,images/tutalien4,images/nothing.png,2,practice,false,2,rare,0,2020-06-10T17:59:41Z,sub30
two-step-fixation,102,450200,0.0-61.0-2.13,FALSE,FALSE,TRUE,FALSE,"""event"",""trial"",""time""
""fullscreenenter"",""5"",""16064""
","
","
","""event"",""trial"",""time""
""fullscreenenter"",""5"",""16064""
","
",NA,images/earth.jpg,NA,NA,NA,NA,NA,NA,NA,NA,NA,NA,NA,NA,NA,fixation,NA,NA,NA,NA,NA,NA,sub30
d3-animate-choice,103,452525,0.0-61.0-0.14,FALSE,FALSE,TRUE,FALSE,"""event"",""trial"",""time""
""fullscreenenter"",""5"",""16064""
","
","
","""event"",""trial"",""time""
""fullscreenenter"",""5"",""16064""
","
",316.8749999895226,NA,48,NA,NA,3000,1,NA,NA,images/earth.jpg,images/tutrocket2,images/tutrocket1,null,images/tutrocket2,NA,1,practice,null,2,NA,NA,NA,sub30
d3-animate-choice,104,455352,0.0-61.0-1.14,FALSE,FALSE,TRUE,FALSE,"""event"",""trial"",""time""
""fullscreenenter"",""5"",""16064""
","
","
","""event"",""trial"",""time""
""fullscreenenter"",""5"",""16064""
","
",821.7949999962002,NA,49,NA,NA,3000,1,NA,NA,images/tutgreenplanet.jpg,images/tutalien2,images/tutalien1,images/tutrocket2,images/tutalien1,images/nothing.png,2,practice,true,1,common,0,2020-06-10T17:59:47Z,sub30
two-step-fixation,105,456358,0.0-61.0-2.14,FALSE,FALSE,TRUE,FALSE,"""event"",""trial"",""time""
""fullscreenenter"",""5"",""16064""
","
","
","""event"",""trial"",""time""
""fullscreenenter"",""5"",""16064""
","
",NA,images/earth.jpg,NA,NA,NA,NA,NA,NA,NA,NA,NA,NA,NA,NA,NA,fixation,NA,NA,NA,NA,NA,NA,sub30
d3-animate-choice,106,458652,0.0-61.0-0.15,FALSE,FALSE,TRUE,FALSE,"""event"",""trial"",""time""
""fullscreenenter"",""5"",""16064""
","
","
","""event"",""trial"",""time""
""fullscreenenter"",""5"",""16064""
","
",288.7100000225473,NA,48,NA,NA,3000,1,NA,NA,images/earth.jpg,images/tutrocket2,images/tutrocket1,null,images/tutrocket2,NA,1,practice,null,2,NA,NA,NA,sub30
d3-animate-choice,107,461262,0.0-61.0-1.15,FALSE,FALSE,TRUE,FALSE,"""event"",""trial"",""time""
""fullscreenenter"",""5"",""16064""
","
","
","""event"",""trial"",""time""
""fullscreenenter"",""5"",""16064""
","
",604.974999994738,NA,49,NA,NA,3000,1,NA,NA,images/tutgreenplanet.jpg,images/tutalien2,images/tutalien1,images/tutrocket2,images/tutalien1,images/t.png,2,practice,true,1,common,1,2020-06-10T17:59:53Z,sub30
two-step-fixation,108,462267,0.0-61.0-2.15,FALSE,FALSE,TRUE,FALSE,"""event"",""trial"",""time""
""fullscreenenter"",""5"",""16064""
","
","
","""event"",""trial"",""time""
""fullscreenenter"",""5"",""16064""
","
",NA,images/earth.jpg,NA,NA,NA,NA,NA,NA,NA,NA,NA,NA,NA,NA,NA,fixation,NA,NA,NA,NA,NA,NA,sub30
d3-animate-choice,109,464621,0.0-61.0-0.16,FALSE,FALSE,TRUE,FALSE,"""event"",""trial"",""time""
""fullscreenenter"",""5"",""16064""
","
","
","""event"",""trial"",""time""
""fullscreenenter"",""5"",""16064""
","
",348.18000000086613,NA,48,NA,NA,3000,1,NA,NA,images/earth.jpg,images/tutrocket2,images/tutrocket1,null,images/tutrocket2,NA,1,practice,null,2,NA,NA,NA,sub30
d3-animate-choice,110,466975,0.0-61.0-1.16,FALSE,FALSE,TRUE,FALSE,"""event"",""trial"",""time""
""fullscreenenter"",""5"",""16064""
","
","
","""event"",""trial"",""time""
""fullscreenenter"",""5"",""16064""
","
",346.59000000101514,NA,49,NA,NA,3000,1,NA,NA,images/tutgreenplanet.jpg,images/tutalien2,images/tutalien1,images/tutrocket2,images/tutalien1,images/nothing.png,2,practice,true,1,common,0,2020-06-10T17:59:59Z,sub30
two-step-fixation,111,467980,0.0-61.0-2.16,FALSE,FALSE,TRUE,FALSE,"""event"",""trial"",""time""
""fullscreenenter"",""5"",""16064""
","
","
","""event"",""trial"",""time""
""fullscreenenter"",""5"",""16064""
","
",NA,images/earth.jpg,NA,NA,NA,NA,NA,NA,NA,NA,NA,NA,NA,NA,NA,fixation,NA,NA,NA,NA,NA,NA,sub30
d3-animate-choice,112,470311,0.0-61.0-0.17,FALSE,FALSE,TRUE,FALSE,"""event"",""trial"",""time""
""fullscreenenter"",""5"",""16064""
","
","
","""event"",""trial"",""time""
""fullscreenenter"",""5"",""16064""
","
",323.96999999764375,NA,49,NA,NA,3000,1,NA,NA,images/earth.jpg,images/tutrocket2,images/tutrocket1,null,images/tutrocket1,NA,1,practice,null,1,NA,NA,NA,sub30
d3-animate-choice,113,473389,0.0-61.0-1.17,FALSE,FALSE,TRUE,FALSE,"""event"",""trial"",""time""
""fullscreenenter"",""5"",""16064""
","
","
","""event"",""trial"",""time""
""fullscreenenter"",""5"",""16064""
","
",1072.6549999963026,NA,49,NA,NA,3000,1,NA,NA,images/tutgreenplanet.jpg,images/tutalien2,images/tutalien1,images/tutrocket1,images/tutalien1,images/nothing.png,2,practice,false,1,rare,0,2020-06-10T18:00:05Z,sub30
two-step-fixation,114,474395,0.0-61.0-2.17,FALSE,FALSE,TRUE,FALSE,"""event"",""trial"",""time""
""fullscreenenter"",""5"",""16064""
","
","
","""event"",""trial"",""time""
""fullscreenenter"",""5"",""16064""
","
",NA,images/earth.jpg,NA,NA,NA,NA,NA,NA,NA,NA,NA,NA,NA,NA,NA,fixation,NA,NA,NA,NA,NA,NA,sub30
d3-animate-choice,115,476702,0.0-61.0-0.18,FALSE,FALSE,TRUE,FALSE,"""event"",""trial"",""time""
""fullscreenenter"",""5"",""16064""
","
","
","""event"",""trial"",""time""
""fullscreenenter"",""5"",""16064""
","
",301.949999993667,NA,49,NA,NA,3000,1,NA,NA,images/earth.jpg,images/tutrocket2,images/tutrocket1,null,images/tutrocket1,NA,1,practice,null,1,NA,NA,NA,sub30
d3-animate-choice,116,479779,0.0-61.0-1.18,FALSE,FALSE,TRUE,FALSE,"""event"",""trial"",""time""
""fullscreenenter"",""5"",""16064""
","
","
","""event"",""trial"",""time""
""fullscreenenter"",""5"",""16064""
","
",1072.7100000076462,NA,49,NA,NA,3000,1,NA,NA,images/tutgreenplanet.jpg,images/tutalien2,images/tutalien1,images/tutrocket1,images/tutalien1,images/nothing.png,2,practice,false,1,rare,0,2020-06-10T18:00:11Z,sub30
two-step-fixation,117,480785,0.0-61.0-2.18,FALSE,FALSE,TRUE,FALSE,"""event"",""trial"",""time""
""fullscreenenter"",""5"",""16064""
","
","
","""event"",""trial"",""time""
""fullscreenenter"",""5"",""16064""
","
",NA,images/earth.jpg,NA,NA,NA,NA,NA,NA,NA,NA,NA,NA,NA,NA,NA,fixation,NA,NA,NA,NA,NA,NA,sub30
d3-animate-choice,118,483090,0.0-61.0-0.19,FALSE,FALSE,TRUE,FALSE,"""event"",""trial"",""time""
""fullscreenenter"",""5"",""16064""
","
","
","""event"",""trial"",""time""
""fullscreenenter"",""5"",""16064""
","
",299.6149999962654,NA,49,NA,NA,3000,1,NA,NA,images/earth.jpg,images/tutrocket2,images/tutrocket1,null,images/tutrocket1,NA,1,practice,null,1,NA,NA,NA,sub30
d3-animate-choice,119,486424,0.0-61.0-1.19,FALSE,FALSE,TRUE,FALSE,"""event"",""trial"",""time""
""fullscreenenter"",""5"",""16064""
","
","
","""event"",""trial"",""time""
""fullscreenenter"",""5"",""16064""
","
",1329.669999977341,NA,48,NA,NA,3000,1,NA,NA,images/tutyellowplanet.jpg,images/tutalien4,images/tutalien3,images/tutrocket1,images/tutalien4,images/t.png,2,practice,true,2,common,1,2020-06-10T18:00:18Z,sub30
two-step-fixation,120,487430,0.0-61.0-2.19,FALSE,FALSE,TRUE,FALSE,"""event"",""trial"",""time""
""fullscreenenter"",""5"",""16064""
","
","
","""event"",""trial"",""time""
""fullscreenenter"",""5"",""16064""
","
",NA,images/earth.jpg,NA,NA,NA,NA,NA,NA,NA,NA,NA,NA,NA,NA,NA,fixation,NA,NA,NA,NA,NA,NA,sub30
d3-instructions,121,494150,0.0-62.0,FALSE,FALSE,TRUE,FALSE,"""event"",""trial"",""time""
""fullscreenenter"",""5"",""16064""
","
","
","""event"",""trial"",""time""
""fullscreenenter"",""5"",""16064""
","
",NA,NA,NA,NA,NA,NA,NA,NA,NA,NA,NA,NA,NA,NA,NA,NA,NA,NA,NA,NA,NA,NA,sub30
audio-keyboard-response,122,497500,0.0-63.0,FALSE,FALSE,TRUE,FALSE,"""event"",""trial"",""time""
""fullscreenenter"",""5"",""16064""
","
","
","""event"",""trial"",""time""
""fullscreenenter"",""5"",""16064""
","
",3349,audio/instructions/treasure_feedback.wav,32,NA,NA,NA,NA,NA,NA,NA,NA,NA,NA,NA,NA,NA,NA,NA,NA,NA,NA,NA,sub30
d3-instructions,123,504291,0.0-64.0,FALSE,FALSE,TRUE,FALSE,"""event"",""trial"",""time""
""fullscreenenter"",""5"",""16064""
","
","
","""event"",""trial"",""time""
""fullscreenenter"",""5"",""16064""
","
",NA,NA,NA,NA,NA,NA,NA,NA,NA,NA,NA,NA,NA,NA,NA,NA,NA,NA,NA,NA,NA,NA,sub30
d3-instructions,124,509006,0.0-65.0,FALSE,FALSE,TRUE,FALSE,"""event"",""trial"",""time""
""fullscreenenter"",""5"",""16064""
","
","
","""event"",""trial"",""time""
""fullscreenenter"",""5"",""16064""
","
",NA,NA,NA,NA,NA,NA,NA,NA,NA,NA,NA,NA,NA,NA,NA,NA,NA,NA,NA,NA,NA,NA,sub30
d3-instructions,125,516441,0.0-66.0,FALSE,FALSE,TRUE,FALSE,"""event"",""trial"",""time""
""fullscreenenter"",""5"",""16064""
","
","
","""event"",""trial"",""time""
""fullscreenenter"",""5"",""16064""
","
",NA,NA,NA,NA,NA,NA,NA,NA,NA,NA,NA,NA,NA,NA,NA,NA,NA,NA,NA,NA,NA,NA,sub30
d3-instructions,126,521979,0.0-67.0,FALSE,FALSE,TRUE,FALSE,"""event"",""trial"",""time""
""fullscreenenter"",""5"",""16064""
","
","
","""event"",""trial"",""time""
""fullscreenenter"",""5"",""16064""
","
",NA,NA,NA,NA,NA,NA,NA,NA,NA,NA,NA,NA,NA,NA,NA,NA,NA,NA,NA,NA,NA,NA,sub30
d3-instructions,127,525564,0.0-68.0,FALSE,FALSE,TRUE,FALSE,"""event"",""trial"",""time""
""fullscreenenter"",""5"",""16064""
","
","
","""event"",""trial"",""time""
""fullscreenenter"",""5"",""16064""
","
",NA,NA,NA,NA,NA,NA,NA,NA,NA,NA,NA,NA,NA,NA,NA,NA,NA,NA,NA,NA,NA,NA,sub30
instructions-quiz,128,528067,0.0-69.0,FALSE,FALSE,TRUE,FALSE,"""event"",""trial"",""time""
""fullscreenenter"",""5"",""16064""
","
","
","""event"",""trial"",""time""
""fullscreenenter"",""5"",""16064""
","
",2498.924999992596,audio/quiz/Q1_Prompt.wav,NA,1,NA,NA,NA,NA,NA,NA,NA,NA,NA,NA,NA,NA,NA,NA,NA,NA,NA,NA,sub30
audio-keyboard-response,129,537246,0.0-70.0,FALSE,FALSE,TRUE,FALSE,"""event"",""trial"",""time""
""fullscreenenter"",""5"",""16064""
","
","
","""event"",""trial"",""time""
""fullscreenenter"",""5"",""16064""
","
",null,audio/quiz/Q1_Correct.wav,null,NA,NA,NA,NA,NA,NA,NA,NA,NA,NA,NA,NA,NA,NA,NA,NA,NA,NA,NA,sub30
instructions-quiz,130,540692,0.0-71.0,FALSE,FALSE,TRUE,FALSE,"""event"",""trial"",""time""
""fullscreenenter"",""5"",""16064""
","
","
","""event"",""trial"",""time""
""fullscreenenter"",""5"",""16064""
","
",3444.324999989476,audio/quiz/Q2_Prompt.wav,NA,0,NA,NA,NA,NA,NA,NA,NA,NA,NA,NA,NA,NA,NA,NA,NA,NA,NA,NA,sub30
audio-keyboard-response,131,542647,0.0-72.0,FALSE,FALSE,TRUE,FALSE,"""event"",""trial"",""time""
""fullscreenenter"",""5"",""16064""
","
","
","""event"",""trial"",""time""
""fullscreenenter"",""5"",""16064""
","
",1952,audio/quiz/Q2_Correct.wav,32,NA,NA,NA,NA,NA,NA,NA,NA,NA,NA,NA,NA,NA,NA,NA,NA,NA,NA,NA,sub30
instructions-quiz,132,545207,0.0-73.0,FALSE,FALSE,TRUE,FALSE,"""event"",""trial"",""time""
""fullscreenenter"",""5"",""16064""
","
","
","""event"",""trial"",""time""
""fullscreenenter"",""5"",""16064""
","
",2558.21499999729,audio/quiz/Q3_Prompt.wav,NA,1,NA,NA,NA,NA,NA,NA,NA,NA,NA,NA,NA,NA,NA,NA,NA,NA,NA,NA,sub30
audio-keyboard-response,133,545805,0.0-74.0,FALSE,FALSE,TRUE,FALSE,"""event"",""trial"",""time""
""fullscreenenter"",""5"",""16064""
","
","
","""event"",""trial"",""time""
""fullscreenenter"",""5"",""16064""
","
",597,audio/quiz/Q3_Correct.wav,32,NA,NA,NA,NA,NA,NA,NA,NA,NA,NA,NA,NA,NA,NA,NA,NA,NA,NA,NA,sub30
d3-instructions,134,549237,0.0-75.0,FALSE,FALSE,TRUE,FALSE,"""event"",""trial"",""time""
""fullscreenenter"",""5"",""16064""
","
","
","""event"",""trial"",""time""
""fullscreenenter"",""5"",""16064""
","
",NA,NA,NA,NA,NA,NA,NA,NA,NA,NA,NA,NA,NA,NA,NA,NA,NA,NA,NA,NA,NA,NA,sub30
d3-animate-choice,135,552939,0.0-76.0-0.0,FALSE,FALSE,TRUE,FALSE,"""event"",""trial"",""time""
""fullscreenenter"",""5"",""16064""
","
","
","""event"",""trial"",""time""
""fullscreenenter"",""5"",""16064""
","
",1694.180000020424,NA,49,NA,NA,3000,1,NA,NA,images/earth.jpg,images/rocket1,images/rocket2,null,images/rocket2,NA,1,real,null,1,NA,NA,NA,sub30
d3-animate-choice,136,556288,0.0-76.0-1.0,FALSE,FALSE,TRUE,FALSE,"""event"",""trial"",""time""
""fullscreenenter"",""5"",""16064""
","
","
","""event"",""trial"",""time""
""fullscreenenter"",""5"",""16064""
","
",1343.8999999780208,NA,48,NA,NA,3000,1,NA,NA,images/purpleplanet.jpg,images/alien4,images/alien3,images/rocket2,images/alien4,images/nothing.png,2,real,false,2,rare,0,2020-06-10T18:01:28Z,sub30
two-step-fixation,137,557296,0.0-76.0-2.0,FALSE,FALSE,TRUE,FALSE,"""event"",""trial"",""time""
""fullscreenenter"",""5"",""16064""
","
","
","""event"",""trial"",""time""
""fullscreenenter"",""5"",""16064""
","
",NA,images/earth.jpg,NA,NA,NA,NA,NA,NA,NA,NA,NA,NA,NA,NA,NA,fixation,NA,NA,NA,NA,NA,NA,sub30
d3-animate-choice,138,559934,0.0-76.0-0.1,FALSE,FALSE,TRUE,FALSE,"""event"",""trial"",""time""
""fullscreenenter"",""5"",""16064""
","
","
","""event"",""trial"",""time""
""fullscreenenter"",""5"",""16064""
","
",631.2650000036228,NA,49,NA,NA,3000,1,NA,NA,images/earth.jpg,images/rocket1,images/rocket2,null,images/rocket2,NA,1,real,null,1,NA,NA,NA,sub30
d3-animate-choice,139,563062,0.0-76.0-1.1,FALSE,FALSE,TRUE,FALSE,"""event"",""trial"",""time""
""fullscreenenter"",""5"",""16064""
","
","
","""event"",""trial"",""time""
""fullscreenenter"",""5"",""16064""
","
",1122.0150000008289,NA,49,NA,NA,3000,1,NA,NA,images/purpleplanet.jpg,images/alien4,images/alien3,images/rocket2,images/alien3,images/nothing.png,2,real,false,1,rare,0,2020-06-10T18:01:35Z,sub30
two-step-fixation,140,564067,0.0-76.0-2.1,FALSE,FALSE,TRUE,FALSE,"""event"",""trial"",""time""
""fullscreenenter"",""5"",""16064""
","
","
","""event"",""trial"",""time""
""fullscreenenter"",""5"",""16064""
","
",NA,images/earth.jpg,NA,NA,NA,NA,NA,NA,NA,NA,NA,NA,NA,NA,NA,fixation,NA,NA,NA,NA,NA,NA,sub30
d3-animate-choice,141,566376,0.0-76.0-0.2,FALSE,FALSE,TRUE,FALSE,"""event"",""trial"",""time""
""fullscreenenter"",""5"",""16064""
","
","
","""event"",""trial"",""time""
""fullscreenenter"",""5"",""16064""
","
",302.54999999306165,NA,49,NA,NA,3000,1,NA,NA,images/earth.jpg,images/rocket1,images/rocket2,null,images/rocket2,NA,1,real,null,1,NA,NA,NA,sub30
d3-animate-choice,142,568889,0.0-76.0-1.2,FALSE,FALSE,TRUE,FALSE,"""event"",""trial"",""time""
""fullscreenenter"",""5"",""16064""
","
","
","""event"",""trial"",""time""
""fullscreenenter"",""5"",""16064""
","
",507.2050000017043,NA,48,NA,NA,3000,1,NA,NA,images/purpleplanet.jpg,images/alien4,images/alien3,images/rocket2,images/alien4,images/t.png,2,real,false,2,rare,1,2020-06-10T18:01:40Z,sub30
two-step-fixation,143,569901,0.0-76.0-2.2,FALSE,FALSE,TRUE,FALSE,"""event"",""trial"",""time""
""fullscreenenter"",""5"",""16064""
","
","
","""event"",""trial"",""time""
""fullscreenenter"",""5"",""16064""
","
",NA,images/earth.jpg,NA,NA,NA,NA,NA,NA,NA,NA,NA,NA,NA,NA,NA,fixation,NA,NA,NA,NA,NA,NA,sub30
d3-animate-choice,144,572321,0.0-76.0-0.3,FALSE,FALSE,TRUE,FALSE,"""event"",""trial"",""time""
""fullscreenenter"",""5"",""16064""
","
","
","""event"",""trial"",""time""
""fullscreenenter"",""5"",""16064""
","
",413.53499999968335,NA,48,NA,NA,3000,1,NA,NA,images/earth.jpg,images/rocket1,images/rocket2,null,images/rocket1,NA,1,real,null,2,NA,NA,NA,sub30
d3-animate-choice,145,575385,0.0-76.0-1.3,FALSE,FALSE,TRUE,FALSE,"""event"",""trial"",""time""
""fullscreenenter"",""5"",""16064""
","
","
","""event"",""trial"",""time""
""fullscreenenter"",""5"",""16064""
","
",1056.2400000053458,NA,49,NA,NA,3000,1,NA,NA,images/redplanet1.jpg,images/alien2,images/alien1,images/rocket1,images/alien1,images/nothing.png,2,real,false,1,rare,0,2020-06-10T18:01:47Z,sub30
two-step-fixation,146,576391,0.0-76.0-2.3,FALSE,FALSE,TRUE,FALSE,"""event"",""trial"",""time""
""fullscreenenter"",""5"",""16064""
","
","
","""event"",""trial"",""time""
""fullscreenenter"",""5"",""16064""
","
",NA,images/earth.jpg,NA,NA,NA,NA,NA,NA,NA,NA,NA,NA,NA,NA,NA,fixation,NA,NA,NA,NA,NA,NA,sub30
d3-animate-choice,147,578728,0.0-76.0-0.4,FALSE,FALSE,TRUE,FALSE,"""event"",""trial"",""time""
""fullscreenenter"",""5"",""16064""
","
","
","""event"",""trial"",""time""
""fullscreenenter"",""5"",""16064""
","
",330.61999999335967,NA,49,NA,NA,3000,1,NA,NA,images/earth.jpg,images/rocket1,images/rocket2,null,images/rocket2,NA,1,real,null,1,NA,NA,NA,sub30
d3-animate-choice,148,582184,0.0-76.0-1.4,FALSE,FALSE,TRUE,FALSE,"""event"",""trial"",""time""
""fullscreenenter"",""5"",""16064""
","
","
","""event"",""trial"",""time""
""fullscreenenter"",""5"",""16064""
","
",1448.5749999876134,NA,48,NA,NA,3000,1,NA,NA,images/redplanet1.jpg,images/alien2,images/alien1,images/rocket2,images/alien2,images/t.png,2,real,true,2,common,1,2020-06-10T18:01:54Z,sub30
two-step-fixation,149,583189,0.0-76.0-2.4,FALSE,FALSE,TRUE,FALSE,"""event"",""trial"",""time""
""fullscreenenter"",""5"",""16064""
","
","
","""event"",""trial"",""time""
""fullscreenenter"",""5"",""16064""
","
",NA,images/earth.jpg,NA,NA,NA,NA,NA,NA,NA,NA,NA,NA,NA,NA,NA,fixation,NA,NA,NA,NA,NA,NA,sub30
d3-animate-choice,150,585767,0.0-76.0-0.5,FALSE,FALSE,TRUE,FALSE,"""event"",""trial"",""time""
""fullscreenenter"",""5"",""16064""
","
","
","""event"",""trial"",""time""
""fullscreenenter"",""5"",""16064""
","
",574.1399999824353,NA,49,NA,NA,3000,1,NA,NA,images/earth.jpg,images/rocket1,images/rocket2,null,images/rocket2,NA,1,real,null,1,NA,NA,NA,sub30
d3-animate-choice,151,588970,0.0-76.0-1.5,FALSE,FALSE,TRUE,FALSE,"""event"",""trial"",""time""
""fullscreenenter"",""5"",""16064""
","
","
","""event"",""trial"",""time""
""fullscreenenter"",""5"",""16064""
","
",1197.4749999935739,NA,48,NA,NA,3000,1,NA,NA,images/redplanet1.jpg,images/alien2,images/alien1,images/rocket2,images/alien2,images/t.png,2,real,true,2,common,1,2020-06-10T18:02:01Z,sub30
two-step-fixation,152,589975,0.0-76.0-2.5,FALSE,FALSE,TRUE,FALSE,"""event"",""trial"",""time""
""fullscreenenter"",""5"",""16064""
","
","
","""event"",""trial"",""time""
""fullscreenenter"",""5"",""16064""
","
",NA,images/earth.jpg,NA,NA,NA,NA,NA,NA,NA,NA,NA,NA,NA,NA,NA,fixation,NA,NA,NA,NA,NA,NA,sub30
d3-animate-choice,153,593005,0.0-76.0-0.6,FALSE,FALSE,TRUE,FALSE,"""event"",""trial"",""time""
""fullscreenenter"",""5"",""16064""
","
","
","""event"",""trial"",""time""
""fullscreenenter"",""5"",""16064""
","
",1023.3000000007451,NA,48,NA,NA,3000,1,NA,NA,images/earth.jpg,images/rocket1,images/rocket2,null,images/rocket1,NA,1,real,null,2,NA,NA,NA,sub30
d3-animate-choice,154,595510,0.0-76.0-1.6,FALSE,FALSE,TRUE,FALSE,"""event"",""trial"",""time""
""fullscreenenter"",""5"",""16064""
","
","
","""event"",""trial"",""time""
""fullscreenenter"",""5"",""16064""
","
",499.1900000022724,NA,48,NA,NA,3000,1,NA,NA,images/redplanet1.jpg,images/alien2,images/alien1,images/rocket1,images/alien2,images/t.png,2,real,false,2,rare,1,2020-06-10T18:02:07Z,sub30
two-step-fixation,155,596515,0.0-76.0-2.6,FALSE,FALSE,TRUE,FALSE,"""event"",""trial"",""time""
""fullscreenenter"",""5"",""16064""
","
","
","""event"",""trial"",""time""
""fullscreenenter"",""5"",""16064""
","
",NA,images/earth.jpg,NA,NA,NA,NA,NA,NA,NA,NA,NA,NA,NA,NA,NA,fixation,NA,NA,NA,NA,NA,NA,sub30
d3-animate-choice,156,599075,0.0-76.0-0.7,FALSE,FALSE,TRUE,FALSE,"""event"",""trial"",""time""
""fullscreenenter"",""5"",""16064""
","
","
","""event"",""trial"",""time""
""fullscreenenter"",""5"",""16064""
","
",553.5000000090804,NA,48,NA,NA,3000,1,NA,NA,images/earth.jpg,images/rocket1,images/rocket2,null,images/rocket1,NA,1,real,null,2,NA,NA,NA,sub30
d3-animate-choice,157,601453,0.0-76.0-1.7,FALSE,FALSE,TRUE,FALSE,"""event"",""trial"",""time""
""fullscreenenter"",""5"",""16064""
","
","
","""event"",""trial"",""time""
""fullscreenenter"",""5"",""16064""
","
",373.1199999747332,NA,48,NA,NA,3000,1,NA,NA,images/purpleplanet.jpg,images/alien4,images/alien3,images/rocket1,images/alien4,images/t.png,2,real,true,2,common,1,2020-06-10T18:02:13Z,sub30
two-step-fixation,158,602458,0.0-76.0-2.7,FALSE,FALSE,TRUE,FALSE,"""event"",""trial"",""time""
""fullscreenenter"",""5"",""16064""
","
","
","""event"",""trial"",""time""
""fullscreenenter"",""5"",""16064""
","
",NA,images/earth.jpg,NA,NA,NA,NA,NA,NA,NA,NA,NA,NA,NA,NA,NA,fixation,NA,NA,NA,NA,NA,NA,sub30
d3-animate-choice,159,605351,0.0-76.0-0.8,FALSE,FALSE,TRUE,FALSE,"""event"",""trial"",""time""
""fullscreenenter"",""5"",""16064""
","
","
","""event"",""trial"",""time""
""fullscreenenter"",""5"",""16064""
","
",886.7250000184868,NA,48,NA,NA,3000,1,NA,NA,images/earth.jpg,images/rocket1,images/rocket2,null,images/rocket1,NA,1,real,null,2,NA,NA,NA,sub30
d3-animate-choice,160,608111,0.0-76.0-1.8,FALSE,FALSE,TRUE,FALSE,"""event"",""trial"",""time""
""fullscreenenter"",""5"",""16064""
","
","
","""event"",""trial"",""time""
""fullscreenenter"",""5"",""16064""
","
",753.1550000130665,NA,48,NA,NA,3000,1,NA,NA,images/purpleplanet.jpg,images/alien4,images/alien3,images/rocket1,images/alien4,images/t.png,2,real,true,2,common,1,2020-06-10T18:02:20Z,sub30
two-step-fixation,161,609118,0.0-76.0-2.8,FALSE,FALSE,TRUE,FALSE,"""event"",""trial"",""time""
""fullscreenenter"",""5"",""16064""
","
","
","""event"",""trial"",""time""
""fullscreenenter"",""5"",""16064""
","
",NA,images/earth.jpg,NA,NA,NA,NA,NA,NA,NA,NA,NA,NA,NA,NA,NA,fixation,NA,NA,NA,NA,NA,NA,sub30
d3-animate-choice,162,611491,0.0-76.0-0.9,FALSE,FALSE,TRUE,FALSE,"""event"",""trial"",""time""
""fullscreenenter"",""5"",""16064""
","
","
","""event"",""trial"",""time""
""fullscreenenter"",""5"",""16064""
","
",366.7600000044331,NA,49,NA,NA,3000,1,NA,NA,images/earth.jpg,images/rocket1,images/rocket2,null,images/rocket2,NA,1,real,null,1,NA,NA,NA,sub30
d3-animate-choice,163,614205,0.0-76.0-1.9,FALSE,FALSE,TRUE,FALSE,"""event"",""trial"",""time""
""fullscreenenter"",""5"",""16064""
","
","
","""event"",""trial"",""time""
""fullscreenenter"",""5"",""16064""
","
",708.4099999919999,NA,48,NA,NA,3000,1,NA,NA,images/purpleplanet.jpg,images/alien4,images/alien3,images/rocket2,images/alien4,images/nothing.png,2,real,false,2,rare,0,2020-06-10T18:02:26Z,sub30
two-step-fixation,164,615209,0.0-76.0-2.9,FALSE,FALSE,TRUE,FALSE,"""event"",""trial"",""time""
""fullscreenenter"",""5"",""16064""
","
","
","""event"",""trial"",""time""
""fullscreenenter"",""5"",""16064""
","
",NA,images/earth.jpg,NA,NA,NA,NA,NA,NA,NA,NA,NA,NA,NA,NA,NA,fixation,NA,NA,NA,NA,NA,NA,sub30
d3-animate-choice,165,617499,0.0-76.0-0.10,FALSE,FALSE,TRUE,FALSE,"""event"",""trial"",""time""
""fullscreenenter"",""5"",""16064""
","
","
","""event"",""trial"",""time""
""fullscreenenter"",""5"",""16064""
","
",285.5100000160746,NA,48,NA,NA,3000,1,NA,NA,images/earth.jpg,images/rocket1,images/rocket2,null,images/rocket1,NA,1,real,null,2,NA,NA,NA,sub30
d3-animate-choice,166,620174,0.0-76.0-1.10,FALSE,FALSE,TRUE,FALSE,"""event"",""trial"",""time""
""fullscreenenter"",""5"",""16064""
","
","
","""event"",""trial"",""time""
""fullscreenenter"",""5"",""16064""
","
",667.8950000205077,NA,48,NA,NA,3000,1,NA,NA,images/purpleplanet.jpg,images/alien4,images/alien3,images/rocket1,images/alien4,images/t.png,2,real,true,2,common,1,2020-06-10T18:02:32Z,sub30
two-step-fixation,167,621180,0.0-76.0-2.10,FALSE,FALSE,TRUE,FALSE,"""event"",""trial"",""time""
""fullscreenenter"",""5"",""16064""
","
","
","""event"",""trial"",""time""
""fullscreenenter"",""5"",""16064""
","
",NA,images/earth.jpg,NA,NA,NA,NA,NA,NA,NA,NA,NA,NA,NA,NA,NA,fixation,NA,NA,NA,NA,NA,NA,sub30
d3-animate-choice,168,624227,0.0-76.0-0.11,FALSE,FALSE,TRUE,FALSE,"""event"",""trial"",""time""
""fullscreenenter"",""5"",""16064""
","
","
","""event"",""trial"",""time""
""fullscreenenter"",""5"",""16064""
","
",1041.4100000052713,NA,48,NA,NA,3000,1,NA,NA,images/earth.jpg,images/rocket1,images/rocket2,null,images/rocket1,NA,1,real,null,2,NA,NA,NA,sub30
d3-animate-choice,169,626866,0.0-76.0-1.11,FALSE,FALSE,TRUE,FALSE,"""event"",""trial"",""time""
""fullscreenenter"",""5"",""16064""
","
","
","""event"",""trial"",""time""
""fullscreenenter"",""5"",""16064""
","
",634.1800000227522,NA,48,NA,NA,3000,1,NA,NA,images/purpleplanet.jpg,images/alien4,images/alien3,images/rocket1,images/alien4,images/nothing.png,2,real,true,2,common,0,2020-06-10T18:02:38Z,sub30
two-step-fixation,170,627871,0.0-76.0-2.11,FALSE,FALSE,TRUE,FALSE,"""event"",""trial"",""time""
""fullscreenenter"",""5"",""16064""
","
","
","""event"",""trial"",""time""
""fullscreenenter"",""5"",""16064""
","
",NA,images/earth.jpg,NA,NA,NA,NA,NA,NA,NA,NA,NA,NA,NA,NA,NA,fixation,NA,NA,NA,NA,NA,NA,sub30
d3-animate-choice,171,630254,0.0-76.0-0.12,FALSE,FALSE,TRUE,FALSE,"""event"",""trial"",""time""
""fullscreenenter"",""5"",""16064""
","
","
","""event"",""trial"",""time""
""fullscreenenter"",""5"",""16064""
","
",377.96500002150424,NA,49,NA,NA,3000,1,NA,NA,images/earth.jpg,images/rocket1,images/rocket2,null,images/rocket2,NA,1,real,null,1,NA,NA,NA,sub30
d3-animate-choice,172,632893,0.0-76.0-1.12,FALSE,FALSE,TRUE,FALSE,"""event"",""trial"",""time""
""fullscreenenter"",""5"",""16064""
","
","
","""event"",""trial"",""time""
""fullscreenenter"",""5"",""16064""
","
",634.634999994887,NA,48,NA,NA,3000,1,NA,NA,images/redplanet1.jpg,images/alien2,images/alien1,images/rocket2,images/alien2,images/nothing.png,2,real,true,2,common,0,2020-06-10T18:02:44Z,sub30
two-step-fixation,173,633899,0.0-76.0-2.12,FALSE,FALSE,TRUE,FALSE,"""event"",""trial"",""time""
""fullscreenenter"",""5"",""16064""
","
","
","""event"",""trial"",""time""
""fullscreenenter"",""5"",""16064""
","
",NA,images/earth.jpg,NA,NA,NA,NA,NA,NA,NA,NA,NA,NA,NA,NA,NA,fixation,NA,NA,NA,NA,NA,NA,sub30
d3-animate-choice,174,636021,0.0-76.0-0.13,FALSE,FALSE,TRUE,FALSE,"""event"",""trial"",""time""
""fullscreenenter"",""5"",""16064""
","
","
","""event"",""trial"",""time""
""fullscreenenter"",""5"",""16064""
","
",117.51500001992099,NA,49,NA,NA,3000,1,NA,NA,images/earth.jpg,images/rocket1,images/rocket2,null,images/rocket2,NA,1,real,null,1,NA,NA,NA,sub30
d3-animate-choice,175,638498,0.0-76.0-1.13,FALSE,FALSE,TRUE,FALSE,"""event"",""trial"",""time""
""fullscreenenter"",""5"",""16064""
","
","
","""event"",""trial"",""time""
""fullscreenenter"",""5"",""16064""
","
",471.1000000243075,NA,48,NA,NA,3000,1,NA,NA,images/redplanet1.jpg,images/alien2,images/alien1,images/rocket2,images/alien2,images/t.png,2,real,true,2,common,1,2020-06-10T18:02:50Z,sub30
two-step-fixation,176,639504,0.0-76.0-2.13,FALSE,FALSE,TRUE,FALSE,"""event"",""trial"",""time""
""fullscreenenter"",""5"",""16064""
","
","
","""event"",""trial"",""time""
""fullscreenenter"",""5"",""16064""
","
",NA,images/earth.jpg,NA,NA,NA,NA,NA,NA,NA,NA,NA,NA,NA,NA,NA,fixation,NA,NA,NA,NA,NA,NA,sub30
d3-animate-choice,177,641791,0.0-76.0-0.14,FALSE,FALSE,TRUE,FALSE,"""event"",""trial"",""time""
""fullscreenenter"",""5"",""16064""
","
","
","""event"",""trial"",""time""
""fullscreenenter"",""5"",""16064""
","
",280.83500001230277,NA,48,NA,NA,3000,1,NA,NA,images/earth.jpg,images/rocket1,images/rocket2,null,images/rocket1,NA,1,real,null,2,NA,NA,NA,sub30
d3-animate-choice,178,644756,0.0-76.0-1.14,FALSE,FALSE,TRUE,FALSE,"""event"",""trial"",""time""
""fullscreenenter"",""5"",""16064""
","
","
","""event"",""trial"",""time""
""fullscreenenter"",""5"",""16064""
","
",954.6550000086427,NA,49,NA,NA,3000,1,NA,NA,images/purpleplanet.jpg,images/alien4,images/alien3,images/rocket1,images/alien3,images/nothing.png,2,real,true,1,common,0,2020-06-10T18:02:56Z,sub30
two-step-fixation,179,645761,0.0-76.0-2.14,FALSE,FALSE,TRUE,FALSE,"""event"",""trial"",""time""
""fullscreenenter"",""5"",""16064""
","
","
","""event"",""trial"",""time""
""fullscreenenter"",""5"",""16064""
","
",NA,images/earth.jpg,NA,NA,NA,NA,NA,NA,NA,NA,NA,NA,NA,NA,NA,fixation,NA,NA,NA,NA,NA,NA,sub30
d3-animate-choice,180,648073,0.0-76.0-0.15,FALSE,FALSE,TRUE,FALSE,"""event"",""trial"",""time""
""fullscreenenter"",""5"",""16064""
","
","
","""event"",""trial"",""time""
""fullscreenenter"",""5"",""16064""
","
",305.690000008326,NA,48,NA,NA,3000,1,NA,NA,images/earth.jpg,images/rocket1,images/rocket2,null,images/rocket1,NA,1,real,null,2,NA,NA,NA,sub30
d3-animate-choice,181,650587,0.0-76.0-1.15,FALSE,FALSE,TRUE,FALSE,"""event"",""trial"",""time""
""fullscreenenter"",""5"",""16064""
","
","
","""event"",""trial"",""time""
""fullscreenenter"",""5"",""16064""
","
",509.699999995064,NA,49,NA,NA,3000,1,NA,NA,images/purpleplanet.jpg,images/alien4,images/alien3,images/rocket1,images/alien3,images/t.png,2,real,true,1,common,1,2020-06-10T18:03:02Z,sub30
two-step-fixation,182,651591,0.0-76.0-2.15,FALSE,FALSE,TRUE,FALSE,"""event"",""trial"",""time""
""fullscreenenter"",""5"",""16064""
","
","
","""event"",""trial"",""time""
""fullscreenenter"",""5"",""16064""
","
",NA,images/earth.jpg,NA,NA,NA,NA,NA,NA,NA,NA,NA,NA,NA,NA,NA,fixation,NA,NA,NA,NA,NA,NA,sub30
d3-animate-choice,183,654064,0.0-76.0-0.16,FALSE,FALSE,TRUE,FALSE,"""event"",""trial"",""time""
""fullscreenenter"",""5"",""16064""
","
","
","""event"",""trial"",""time""
""fullscreenenter"",""5"",""16064""
","
",468.894999998156,NA,49,NA,NA,3000,1,NA,NA,images/earth.jpg,images/rocket1,images/rocket2,null,images/rocket2,NA,1,real,null,1,NA,NA,NA,sub30
d3-animate-choice,184,656818,0.0-76.0-1.16,FALSE,FALSE,TRUE,FALSE,"""event"",""trial"",""time""
""fullscreenenter"",""5"",""16064""
","
","
","""event"",""trial"",""time""
""fullscreenenter"",""5"",""16064""
","
",748.5999999917112,NA,48,NA,NA,3000,1,NA,NA,images/redplanet1.jpg,images/alien2,images/alien1,images/rocket2,images/alien2,images/t.png,2,real,true,2,common,1,2020-06-10T18:03:08Z,sub30
two-step-fixation,185,657824,0.0-76.0-2.16,FALSE,FALSE,TRUE,FALSE,"""event"",""trial"",""time""
""fullscreenenter"",""5"",""16064""
","
","
","""event"",""trial"",""time""
""fullscreenenter"",""5"",""16064""
","
",NA,images/earth.jpg,NA,NA,NA,NA,NA,NA,NA,NA,NA,NA,NA,NA,NA,fixation,NA,NA,NA,NA,NA,NA,sub30
d3-animate-choice,186,660315,0.0-76.0-0.17,FALSE,FALSE,TRUE,FALSE,"""event"",""trial"",""time""
""fullscreenenter"",""5"",""16064""
","
","
","""event"",""trial"",""time""
""fullscreenenter"",""5"",""16064""
","
",485.22000000230037,NA,49,NA,NA,3000,1,NA,NA,images/earth.jpg,images/rocket1,images/rocket2,null,images/rocket2,NA,1,real,null,1,NA,NA,NA,sub30
d3-animate-choice,187,662683,0.0-76.0-1.17,FALSE,FALSE,TRUE,FALSE,"""event"",""trial"",""time""
""fullscreenenter"",""5"",""16064""
","
","
","""event"",""trial"",""time""
""fullscreenenter"",""5"",""16064""
","
",363.60499999136664,NA,48,NA,NA,3000,1,NA,NA,images/purpleplanet.jpg,images/alien4,images/alien3,images/rocket2,images/alien4,images/t.png,2,real,false,2,rare,1,2020-06-10T18:03:14Z,sub30
two-step-fixation,188,663689,0.0-76.0-2.17,FALSE,FALSE,TRUE,FALSE,"""event"",""trial"",""time""
""fullscreenenter"",""5"",""16064""
","
","
","""event"",""trial"",""time""
""fullscreenenter"",""5"",""16064""
","
",NA,images/earth.jpg,NA,NA,NA,NA,NA,NA,NA,NA,NA,NA,NA,NA,NA,fixation,NA,NA,NA,NA,NA,NA,sub30
d3-animate-choice,189,666622,0.0-76.0-0.18,FALSE,FALSE,TRUE,FALSE,"""event"",""trial"",""time""
""fullscreenenter"",""5"",""16064""
","
","
","""event"",""trial"",""time""
""fullscreenenter"",""5"",""16064""
","
",927.6549999776762,NA,48,NA,NA,3000,1,NA,NA,images/earth.jpg,images/rocket1,images/rocket2,null,images/rocket1,NA,1,real,null,2,NA,NA,NA,sub30
d3-animate-choice,190,670296,0.0-76.0-1.18,FALSE,FALSE,TRUE,FALSE,"""event"",""trial"",""time""
""fullscreenenter"",""5"",""16064""
","
","
","""event"",""trial"",""time""
""fullscreenenter"",""5"",""16064""
","
",1668.0900000210386,NA,49,NA,NA,3000,1,NA,NA,images/purpleplanet.jpg,images/alien4,images/alien3,images/rocket1,images/alien3,images/t.png,2,real,true,1,common,1,2020-06-10T18:03:22Z,sub30
two-step-fixation,191,671302,0.0-76.0-2.18,FALSE,FALSE,TRUE,FALSE,"""event"",""trial"",""time""
""fullscreenenter"",""5"",""16064""
","
","
","""event"",""trial"",""time""
""fullscreenenter"",""5"",""16064""
","
",NA,images/earth.jpg,NA,NA,NA,NA,NA,NA,NA,NA,NA,NA,NA,NA,NA,fixation,NA,NA,NA,NA,NA,NA,sub30
d3-animate-choice,192,674015,0.0-76.0-0.19,FALSE,FALSE,TRUE,FALSE,"""event"",""trial"",""time""
""fullscreenenter"",""5"",""16064""
","
","
","""event"",""trial"",""time""
""fullscreenenter"",""5"",""16064""
","
",705.6699999957345,NA,49,NA,NA,3000,1,NA,NA,images/earth.jpg,images/rocket1,images/rocket2,null,images/rocket2,NA,1,real,null,1,NA,NA,NA,sub30
d3-animate-choice,193,677209,0.0-76.0-1.19,FALSE,FALSE,TRUE,FALSE,"""event"",""trial"",""time""
""fullscreenenter"",""5"",""16064""
","
","
","""event"",""trial"",""time""
""fullscreenenter"",""5"",""16064""
","
",1185.1649999734946,NA,48,NA,NA,3000,1,NA,NA,images/redplanet1.jpg,images/alien2,images/alien1,images/rocket2,images/alien2,images/t.png,2,real,true,2,common,1,2020-06-10T18:03:29Z,sub30
two-step-fixation,194,678218,0.0-76.0-2.19,FALSE,FALSE,TRUE,FALSE,"""event"",""trial"",""time""
""fullscreenenter"",""5"",""16064""
","
","
","""event"",""trial"",""time""
""fullscreenenter"",""5"",""16064""
","
",NA,images/earth.jpg,NA,NA,NA,NA,NA,NA,NA,NA,NA,NA,NA,NA,NA,fixation,NA,NA,NA,NA,NA,NA,sub30
d3-animate-choice,195,680603,0.0-76.0-0.20,FALSE,FALSE,TRUE,FALSE,"""event"",""trial"",""time""
""fullscreenenter"",""5"",""16064""
","
","
","""event"",""trial"",""time""
""fullscreenenter"",""5"",""16064""
","
",379.400000005262,NA,49,NA,NA,3000,1,NA,NA,images/earth.jpg,images/rocket1,images/rocket2,null,images/rocket2,NA,1,real,null,1,NA,NA,NA,sub30
d3-animate-choice,196,684103,0.0-76.0-1.20,FALSE,FALSE,TRUE,FALSE,"""event"",""trial"",""time""
""fullscreenenter"",""5"",""16064""
","
","
","""event"",""trial"",""time""
""fullscreenenter"",""5"",""16064""
","
",1496.580000006361,NA,49,NA,NA,3000,1,NA,NA,images/purpleplanet.jpg,images/alien4,images/alien3,images/rocket2,images/alien3,images/t.png,2,real,false,1,rare,1,2020-06-10T18:03:36Z,sub30
two-step-fixation,197,685110,0.0-76.0-2.20,FALSE,FALSE,TRUE,FALSE,"""event"",""trial"",""time""
""fullscreenenter"",""5"",""16064""
","
","
","""event"",""trial"",""time""
""fullscreenenter"",""5"",""16064""
","
",NA,images/earth.jpg,NA,NA,NA,NA,NA,NA,NA,NA,NA,NA,NA,NA,NA,fixation,NA,NA,NA,NA,NA,NA,sub30
d3-animate-choice,198,687755,0.0-76.0-0.21,FALSE,FALSE,TRUE,FALSE,"""event"",""trial"",""time""
""fullscreenenter"",""5"",""16064""
","
","
","""event"",""trial"",""time""
""fullscreenenter"",""5"",""16064""
","
",638.4499999985565,NA,48,NA,NA,3000,1,NA,NA,images/earth.jpg,images/rocket1,images/rocket2,null,images/rocket1,NA,1,real,null,2,NA,NA,NA,sub30
d3-animate-choice,199,690920,0.0-76.0-1.21,FALSE,FALSE,TRUE,FALSE,"""event"",""trial"",""time""
""fullscreenenter"",""5"",""16064""
","
","
","""event"",""trial"",""time""
""fullscreenenter"",""5"",""16064""
","
",1158.6850000021514,NA,49,NA,NA,3000,1,NA,NA,images/purpleplanet.jpg,images/alien4,images/alien3,images/rocket1,images/alien3,images/t.png,2,real,true,1,common,1,2020-06-10T18:03:43Z,sub30
two-step-fixation,200,691926,0.0-76.0-2.21,FALSE,FALSE,TRUE,FALSE,"""event"",""trial"",""time""
""fullscreenenter"",""5"",""16064""
","
","
","""event"",""trial"",""time""
""fullscreenenter"",""5"",""16064""
","
",NA,images/earth.jpg,NA,NA,NA,NA,NA,NA,NA,NA,NA,NA,NA,NA,NA,fixation,NA,NA,NA,NA,NA,NA,sub30
d3-animate-choice,201,694836,0.0-76.0-0.22,FALSE,FALSE,TRUE,FALSE,"""event"",""trial"",""time""
""fullscreenenter"",""5"",""16064""
","
","
","""event"",""trial"",""time""
""fullscreenenter"",""5"",""16064""
","
",901.9750000152271,NA,49,NA,NA,3000,1,NA,NA,images/earth.jpg,images/rocket1,images/rocket2,null,images/rocket2,NA,1,real,null,1,NA,NA,NA,sub30
d3-animate-choice,202,698306,0.0-76.0-1.22,FALSE,FALSE,TRUE,FALSE,"""event"",""trial"",""time""
""fullscreenenter"",""5"",""16064""
","
","
","""event"",""trial"",""time""
""fullscreenenter"",""5"",""16064""
","
",1464.704999991227,NA,49,NA,NA,3000,1,NA,NA,images/purpleplanet.jpg,images/alien4,images/alien3,images/rocket2,images/alien3,images/nothing.png,2,real,false,1,rare,0,2020-06-10T18:03:50Z,sub30
two-step-fixation,203,699311,0.0-76.0-2.22,FALSE,FALSE,TRUE,FALSE,"""event"",""trial"",""time""
""fullscreenenter"",""5"",""16064""
","
","
","""event"",""trial"",""time""
""fullscreenenter"",""5"",""16064""
","
",NA,images/earth.jpg,NA,NA,NA,NA,NA,NA,NA,NA,NA,NA,NA,NA,NA,fixation,NA,NA,NA,NA,NA,NA,sub30
d3-animate-choice,204,701598,0.0-76.0-0.23,FALSE,FALSE,TRUE,FALSE,"""event"",""trial"",""time""
""fullscreenenter"",""5"",""16064""
","
","
","""event"",""trial"",""time""
""fullscreenenter"",""5"",""16064""
","
",284.0999999898486,NA,48,NA,NA,3000,1,NA,NA,images/earth.jpg,images/rocket1,images/rocket2,null,images/rocket1,NA,1,real,null,2,NA,NA,NA,sub30
d3-animate-choice,205,705068,0.0-76.0-1.23,FALSE,FALSE,TRUE,FALSE,"""event"",""trial"",""time""
""fullscreenenter"",""5"",""16064""
","
","
","""event"",""trial"",""time""
""fullscreenenter"",""5"",""16064""
","
",1462.52000000095,NA,48,NA,NA,3000,1,NA,NA,images/purpleplanet.jpg,images/alien4,images/alien3,images/rocket1,images/alien4,images/nothing.png,2,real,true,2,common,0,2020-06-10T18:03:57Z,sub30
two-step-fixation,206,706073,0.0-76.0-2.23,FALSE,FALSE,TRUE,FALSE,"""event"",""trial"",""time""
""fullscreenenter"",""5"",""16064""
","
","
","""event"",""trial"",""time""
""fullscreenenter"",""5"",""16064""
","
",NA,images/earth.jpg,NA,NA,NA,NA,NA,NA,NA,NA,NA,NA,NA,NA,NA,fixation,NA,NA,NA,NA,NA,NA,sub30
d3-animate-choice,207,708379,0.0-76.0-0.24,FALSE,FALSE,TRUE,FALSE,"""event"",""trial"",""time""
""fullscreenenter"",""5"",""16064""
","
","
","""event"",""trial"",""time""
""fullscreenenter"",""5"",""16064""
","
",300.36500000278465,NA,49,NA,NA,3000,1,NA,NA,images/earth.jpg,images/rocket1,images/rocket2,null,images/rocket2,NA,1,real,null,1,NA,NA,NA,sub30
d3-animate-choice,208,711189,0.0-76.0-1.24,FALSE,FALSE,TRUE,FALSE,"""event"",""trial"",""time""
""fullscreenenter"",""5"",""16064""
","
","
","""event"",""trial"",""time""
""fullscreenenter"",""5"",""16064""
","
",805.3350000118371,NA,48,NA,NA,3000,1,NA,NA,images/redplanet1.jpg,images/alien2,images/alien1,images/rocket2,images/alien2,images/nothing.png,2,real,true,2,common,0,2020-06-10T18:04:03Z,sub30
two-step-fixation,209,712195,0.0-76.0-2.24,FALSE,FALSE,TRUE,FALSE,"""event"",""trial"",""time""
""fullscreenenter"",""5"",""16064""
","
","
","""event"",""trial"",""time""
""fullscreenenter"",""5"",""16064""
","
",NA,images/earth.jpg,NA,NA,NA,NA,NA,NA,NA,NA,NA,NA,NA,NA,NA,fixation,NA,NA,NA,NA,NA,NA,sub30
d3-animate-choice,210,714458,0.0-76.0-0.25,FALSE,FALSE,TRUE,FALSE,"""event"",""trial"",""time""
""fullscreenenter"",""5"",""16064""
","
","
","""event"",""trial"",""time""
""fullscreenenter"",""5"",""16064""
","
",257.9900000127964,NA,49,NA,NA,3000,1,NA,NA,images/earth.jpg,images/rocket1,images/rocket2,null,images/rocket2,NA,1,real,null,1,NA,NA,NA,sub30
d3-animate-choice,211,717292,0.0-76.0-1.25,FALSE,FALSE,TRUE,FALSE,"""event"",""trial"",""time""
""fullscreenenter"",""5"",""16064""
","
","
","""event"",""trial"",""time""
""fullscreenenter"",""5"",""16064""
","
",829.040000011446,NA,49,NA,NA,3000,1,NA,NA,images/redplanet1.jpg,images/alien2,images/alien1,images/rocket2,images/alien1,images/t.png,2,real,true,1,common,1,2020-06-10T18:04:09Z,sub30
two-step-fixation,212,718295,0.0-76.0-2.25,FALSE,FALSE,TRUE,FALSE,"""event"",""trial"",""time""
""fullscreenenter"",""5"",""16064""
","
","
","""event"",""trial"",""time""
""fullscreenenter"",""5"",""16064""
","
",NA,images/earth.jpg,NA,NA,NA,NA,NA,NA,NA,NA,NA,NA,NA,NA,NA,fixation,NA,NA,NA,NA,NA,NA,sub30
d3-animate-choice,213,720614,0.0-76.0-0.26,FALSE,FALSE,TRUE,FALSE,"""event"",""trial"",""time""
""fullscreenenter"",""5"",""16064""
","
","
","""event"",""trial"",""time""
""fullscreenenter"",""5"",""16064""
","
",315.87500000023283,NA,48,NA,NA,3000,1,NA,NA,images/earth.jpg,images/rocket1,images/rocket2,null,images/rocket1,NA,1,real,null,2,NA,NA,NA,sub30
d3-animate-choice,214,722987,0.0-76.0-1.26,FALSE,FALSE,TRUE,FALSE,"""event"",""trial"",""time""
""fullscreenenter"",""5"",""16064""
","
","
","""event"",""trial"",""time""
""fullscreenenter"",""5"",""16064""
","
",366.2049999984447,NA,49,NA,NA,3000,1,NA,NA,images/purpleplanet.jpg,images/alien4,images/alien3,images/rocket1,images/alien3,images/nothing.png,2,real,true,1,common,0,2020-06-10T18:04:15Z,sub30
two-step-fixation,215,723992,0.0-76.0-2.26,FALSE,FALSE,TRUE,FALSE,"""event"",""trial"",""time""
""fullscreenenter"",""5"",""16064""
","
","
","""event"",""trial"",""time""
""fullscreenenter"",""5"",""16064""
","
",NA,images/earth.jpg,NA,NA,NA,NA,NA,NA,NA,NA,NA,NA,NA,NA,NA,fixation,NA,NA,NA,NA,NA,NA,sub30
d3-animate-choice,216,726332,0.0-76.0-0.27,FALSE,FALSE,TRUE,FALSE,"""event"",""trial"",""time""
""fullscreenenter"",""5"",""16064""
","
","
","""event"",""trial"",""time""
""fullscreenenter"",""5"",""16064""
","
",335.2500000037253,NA,49,NA,NA,3000,1,NA,NA,images/earth.jpg,images/rocket1,images/rocket2,null,images/rocket2,NA,1,real,null,1,NA,NA,NA,sub30
d3-animate-choice,217,729239,0.0-76.0-1.27,FALSE,FALSE,TRUE,FALSE,"""event"",""trial"",""time""
""fullscreenenter"",""5"",""16064""
","
","
","""event"",""trial"",""time""
""fullscreenenter"",""5"",""16064""
","
",903.3049999852665,NA,49,NA,NA,3000,1,NA,NA,images/redplanet1.jpg,images/alien2,images/alien1,images/rocket2,images/alien1,images/t.png,2,real,true,1,common,1,2020-06-10T18:04:21Z,sub30
two-step-fixation,218,730244,0.0-76.0-2.27,FALSE,FALSE,TRUE,FALSE,"""event"",""trial"",""time""
""fullscreenenter"",""5"",""16064""
","
","
","""event"",""trial"",""time""
""fullscreenenter"",""5"",""16064""
","
",NA,images/earth.jpg,NA,NA,NA,NA,NA,NA,NA,NA,NA,NA,NA,NA,NA,fixation,NA,NA,NA,NA,NA,NA,sub30
d3-animate-choice,219,732849,0.0-76.0-0.28,FALSE,FALSE,TRUE,FALSE,"""event"",""trial"",""time""
""fullscreenenter"",""5"",""16064""
","
","
","""event"",""trial"",""time""
""fullscreenenter"",""5"",""16064""
","
",598.8299999735318,NA,49,NA,NA,3000,1,NA,NA,images/earth.jpg,images/rocket1,images/rocket2,null,images/rocket2,NA,1,real,null,1,NA,NA,NA,sub30
d3-animate-choice,220,736695,0.0-76.0-1.28,FALSE,FALSE,TRUE,FALSE,"""event"",""trial"",""time""
""fullscreenenter"",""5"",""16064""
","
","
","""event"",""trial"",""time""
""fullscreenenter"",""5"",""16064""
","
",1840.08999998332,NA,48,NA,NA,3000,1,NA,NA,images/redplanet1.jpg,images/alien2,images/alien1,images/rocket2,images/alien2,images/t.png,2,real,true,2,common,1,2020-06-10T18:04:28Z,sub30
two-step-fixation,221,737700,0.0-76.0-2.28,FALSE,FALSE,TRUE,FALSE,"""event"",""trial"",""time""
""fullscreenenter"",""5"",""16064""
","
","
","""event"",""trial"",""time""
""fullscreenenter"",""5"",""16064""
","
",NA,images/earth.jpg,NA,NA,NA,NA,NA,NA,NA,NA,NA,NA,NA,NA,NA,fixation,NA,NA,NA,NA,NA,NA,sub30
d3-animate-choice,222,740109,0.0-76.0-0.29,FALSE,FALSE,TRUE,FALSE,"""event"",""trial"",""time""
""fullscreenenter"",""5"",""16064""
","
","
","""event"",""trial"",""time""
""fullscreenenter"",""5"",""16064""
","
",400.57999998680316,NA,48,NA,NA,3000,1,NA,NA,images/earth.jpg,images/rocket1,images/rocket2,null,images/rocket1,NA,1,real,null,2,NA,NA,NA,sub30
d3-animate-choice,223,743135,0.0-76.0-1.29,FALSE,FALSE,TRUE,FALSE,"""event"",""trial"",""time""
""fullscreenenter"",""5"",""16064""
","
","
","""event"",""trial"",""time""
""fullscreenenter"",""5"",""16064""
","
",1017.9800000041723,NA,49,NA,NA,3000,1,NA,NA,images/purpleplanet.jpg,images/alien4,images/alien3,images/rocket1,images/alien3,images/t.png,2,real,true,1,common,1,2020-06-10T18:04:35Z,sub30
two-step-fixation,224,744148,0.0-76.0-2.29,FALSE,FALSE,TRUE,FALSE,"""event"",""trial"",""time""
""fullscreenenter"",""5"",""16064""
","
","
","""event"",""trial"",""time""
""fullscreenenter"",""5"",""16064""
","
",NA,images/earth.jpg,NA,NA,NA,NA,NA,NA,NA,NA,NA,NA,NA,NA,NA,fixation,NA,NA,NA,NA,NA,NA,sub30
d3-animate-choice,225,746337,0.0-76.0-0.30,FALSE,FALSE,TRUE,FALSE,"""event"",""trial"",""time""
""fullscreenenter"",""5"",""16064""
","
","
","""event"",""trial"",""time""
""fullscreenenter"",""5"",""16064""
","
",177.9300000052899,NA,49,NA,NA,3000,1,NA,NA,images/earth.jpg,images/rocket1,images/rocket2,null,images/rocket2,NA,1,real,null,1,NA,NA,NA,sub30
d3-animate-choice,226,748843,0.0-76.0-1.30,FALSE,FALSE,TRUE,FALSE,"""event"",""trial"",""time""
""fullscreenenter"",""5"",""16064""
","
","
","""event"",""trial"",""time""
""fullscreenenter"",""5"",""16064""
","
",499.8349999950733,NA,48,NA,NA,3000,1,NA,NA,images/redplanet1.jpg,images/alien2,images/alien1,images/rocket2,images/alien2,images/nothing.png,2,real,true,2,common,0,2020-06-10T18:04:40Z,sub30
two-step-fixation,227,749855,0.0-76.0-2.30,FALSE,FALSE,TRUE,FALSE,"""event"",""trial"",""time""
""fullscreenenter"",""5"",""16064""
","
","
","""event"",""trial"",""time""
""fullscreenenter"",""5"",""16064""
","
",NA,images/earth.jpg,NA,NA,NA,NA,NA,NA,NA,NA,NA,NA,NA,NA,NA,fixation,NA,NA,NA,NA,NA,NA,sub30
d3-animate-choice,228,752191,0.0-76.0-0.31,FALSE,FALSE,TRUE,FALSE,"""event"",""trial"",""time""
""fullscreenenter"",""5"",""16064""
","
","
","""event"",""trial"",""time""
""fullscreenenter"",""5"",""16064""
","
",330.96000002115034,NA,48,NA,NA,3000,1,NA,NA,images/earth.jpg,images/rocket1,images/rocket2,null,images/rocket1,NA,1,real,null,2,NA,NA,NA,sub30
d3-animate-choice,229,754689,0.0-76.0-1.31,FALSE,FALSE,TRUE,FALSE,"""event"",""trial"",""time""
""fullscreenenter"",""5"",""16064""
","
","
","""event"",""trial"",""time""
""fullscreenenter"",""5"",""16064""
","
",491.93499999819323,NA,49,NA,NA,3000,1,NA,NA,images/redplanet1.jpg,images/alien2,images/alien1,images/rocket1,images/alien1,images/t.png,2,real,false,1,rare,1,2020-06-10T18:04:46Z,sub30
two-step-fixation,230,755696,0.0-76.0-2.31,FALSE,FALSE,TRUE,FALSE,"""event"",""trial"",""time""
""fullscreenenter"",""5"",""16064""
","
","
","""event"",""trial"",""time""
""fullscreenenter"",""5"",""16064""
","
",NA,images/earth.jpg,NA,NA,NA,NA,NA,NA,NA,NA,NA,NA,NA,NA,NA,fixation,NA,NA,NA,NA,NA,NA,sub30
d3-animate-choice,231,758483,0.0-76.0-0.32,FALSE,FALSE,TRUE,FALSE,"""event"",""trial"",""time""
""fullscreenenter"",""5"",""16064""
","
","
","""event"",""trial"",""time""
""fullscreenenter"",""5"",""16064""
","
",779.6550000202842,NA,49,NA,NA,3000,1,NA,NA,images/earth.jpg,images/rocket1,images/rocket2,null,images/rocket2,NA,1,real,null,1,NA,NA,NA,sub30
d3-animate-choice,232,761512,0.0-76.0-1.32,FALSE,FALSE,TRUE,FALSE,"""event"",""trial"",""time""
""fullscreenenter"",""5"",""16064""
","
","
","""event"",""trial"",""time""
""fullscreenenter"",""5"",""16064""
","
",1023.6349999904633,NA,49,NA,NA,3000,1,NA,NA,images/redplanet1.jpg,images/alien2,images/alien1,images/rocket2,images/alien1,images/nothing.png,2,real,true,1,common,0,2020-06-10T18:04:53Z,sub30
two-step-fixation,233,762519,0.0-76.0-2.32,FALSE,FALSE,TRUE,FALSE,"""event"",""trial"",""time""
""fullscreenenter"",""5"",""16064""
","
","
","""event"",""trial"",""time""
""fullscreenenter"",""5"",""16064""
","
",NA,images/earth.jpg,NA,NA,NA,NA,NA,NA,NA,NA,NA,NA,NA,NA,NA,fixation,NA,NA,NA,NA,NA,NA,sub30
d3-animate-choice,234,764954,0.0-76.0-0.33,FALSE,FALSE,TRUE,FALSE,"""event"",""trial"",""time""
""fullscreenenter"",""5"",""16064""
","
","
","""event"",""trial"",""time""
""fullscreenenter"",""5"",""16064""
","
",428.9299999945797,NA,48,NA,NA,3000,1,NA,NA,images/earth.jpg,images/rocket1,images/rocket2,null,images/rocket1,NA,1,real,null,2,NA,NA,NA,sub30
d3-animate-choice,235,768872,0.0-76.0-1.33,FALSE,FALSE,TRUE,FALSE,"""event"",""trial"",""time""
""fullscreenenter"",""5"",""16064""
","
","
","""event"",""trial"",""time""
""fullscreenenter"",""5"",""16064""
","
",1912.2599999827798,NA,48,NA,NA,3000,1,NA,NA,images/purpleplanet.jpg,images/alien4,images/alien3,images/rocket1,images/alien4,images/t.png,2,real,true,2,common,1,2020-06-10T18:05:00Z,sub30
two-step-fixation,236,769892,0.0-76.0-2.33,FALSE,FALSE,TRUE,FALSE,"""event"",""trial"",""time""
""fullscreenenter"",""5"",""16064""
","
","
","""event"",""trial"",""time""
""fullscreenenter"",""5"",""16064""
","
",NA,images/earth.jpg,NA,NA,NA,NA,NA,NA,NA,NA,NA,NA,NA,NA,NA,fixation,NA,NA,NA,NA,NA,NA,sub30
d3-animate-choice,237,772193,0.0-76.0-0.34,FALSE,FALSE,TRUE,FALSE,"""event"",""trial"",""time""
""fullscreenenter"",""5"",""16064""
","
","
","""event"",""trial"",""time""
""fullscreenenter"",""5"",""16064""
","
",295.17999998643063,NA,49,NA,NA,3000,1,NA,NA,images/earth.jpg,images/rocket1,images/rocket2,null,images/rocket2,NA,1,real,null,1,NA,NA,NA,sub30
d3-animate-choice,238,774690,0.0-76.0-1.34,FALSE,FALSE,TRUE,FALSE,"""event"",""trial"",""time""
""fullscreenenter"",""5"",""16064""
","
","
","""event"",""trial"",""time""
""fullscreenenter"",""5"",""16064""
","
",489.51000001397915,NA,48,NA,NA,3000,1,NA,NA,images/redplanet1.jpg,images/alien2,images/alien1,images/rocket2,images/alien2,images/t.png,2,real,true,2,common,1,2020-06-10T18:05:06Z,sub30
two-step-fixation,239,775695,0.0-76.0-2.34,FALSE,FALSE,TRUE,FALSE,"""event"",""trial"",""time""
""fullscreenenter"",""5"",""16064""
","
","
","""event"",""trial"",""time""
""fullscreenenter"",""5"",""16064""
","
",NA,images/earth.jpg,NA,NA,NA,NA,NA,NA,NA,NA,NA,NA,NA,NA,NA,fixation,NA,NA,NA,NA,NA,NA,sub30
d3-animate-choice,240,778019,0.0-76.0-0.35,FALSE,FALSE,TRUE,FALSE,"""event"",""trial"",""time""
""fullscreenenter"",""5"",""16064""
","
","
","""event"",""trial"",""time""
""fullscreenenter"",""5"",""16064""
","
",317.28499999735504,NA,48,NA,NA,3000,1,NA,NA,images/earth.jpg,images/rocket1,images/rocket2,null,images/rocket1,NA,1,real,null,2,NA,NA,NA,sub30
d3-animate-choice,241,781175,0.0-76.0-1.35,FALSE,FALSE,TRUE,FALSE,"""event"",""trial"",""time""
""fullscreenenter"",""5"",""16064""
","
","
","""event"",""trial"",""time""
""fullscreenenter"",""5"",""16064""
","
",1146.3600000133738,NA,49,NA,NA,3000,1,NA,NA,images/purpleplanet.jpg,images/alien4,images/alien3,images/rocket1,images/alien3,images/t.png,2,real,true,1,common,1,2020-06-10T18:05:13Z,sub30
two-step-fixation,242,782180,0.0-76.0-2.35,FALSE,FALSE,TRUE,FALSE,"""event"",""trial"",""time""
""fullscreenenter"",""5"",""16064""
","
","
","""event"",""trial"",""time""
""fullscreenenter"",""5"",""16064""
","
",NA,images/earth.jpg,NA,NA,NA,NA,NA,NA,NA,NA,NA,NA,NA,NA,NA,fixation,NA,NA,NA,NA,NA,NA,sub30
d3-animate-choice,243,784494,0.0-76.0-0.36,FALSE,FALSE,TRUE,FALSE,"""event"",""trial"",""time""
""fullscreenenter"",""5"",""16064""
","
","
","""event"",""trial"",""time""
""fullscreenenter"",""5"",""16064""
","
",307.28999999701045,NA,49,NA,NA,3000,1,NA,NA,images/earth.jpg,images/rocket1,images/rocket2,null,images/rocket2,NA,1,real,null,1,NA,NA,NA,sub30
d3-animate-choice,244,787514,0.0-76.0-1.36,FALSE,FALSE,TRUE,FALSE,"""event"",""trial"",""time""
""fullscreenenter"",""5"",""16064""
","
","
","""event"",""trial"",""time""
""fullscreenenter"",""5"",""16064""
","
",1016.0900000191759,NA,48,NA,NA,3000,1,NA,NA,images/redplanet1.jpg,images/alien2,images/alien1,images/rocket2,images/alien2,images/nothing.png,2,real,true,2,common,0,2020-06-10T18:05:19Z,sub30
two-step-fixation,245,788520,0.0-76.0-2.36,FALSE,FALSE,TRUE,FALSE,"""event"",""trial"",""time""
""fullscreenenter"",""5"",""16064""
","
","
","""event"",""trial"",""time""
""fullscreenenter"",""5"",""16064""
","
",NA,images/earth.jpg,NA,NA,NA,NA,NA,NA,NA,NA,NA,NA,NA,NA,NA,fixation,NA,NA,NA,NA,NA,NA,sub30
d3-animate-choice,246,790672,0.0-76.0-0.37,FALSE,FALSE,TRUE,FALSE,"""event"",""trial"",""time""
""fullscreenenter"",""5"",""16064""
","
","
","""event"",""trial"",""time""
""fullscreenenter"",""5"",""16064""
","
",145.72000000043772,NA,49,NA,NA,3000,1,NA,NA,images/earth.jpg,images/rocket1,images/rocket2,null,images/rocket2,NA,1,real,null,1,NA,NA,NA,sub30
d3-animate-choice,247,792994,0.0-76.0-1.37,FALSE,FALSE,TRUE,FALSE,"""event"",""trial"",""time""
""fullscreenenter"",""5"",""16064""
","
","
","""event"",""trial"",""time""
""fullscreenenter"",""5"",""16064""
","
",316.58000001334585,NA,48,NA,NA,3000,1,NA,NA,images/redplanet1.jpg,images/alien2,images/alien1,images/rocket2,images/alien2,images/nothing.png,2,real,true,2,common,0,2020-06-10T18:05:25Z,sub30
two-step-fixation,248,794000,0.0-76.0-2.37,FALSE,FALSE,TRUE,FALSE,"""event"",""trial"",""time""
""fullscreenenter"",""5"",""16064""
","
","
","""event"",""trial"",""time""
""fullscreenenter"",""5"",""16064""
","
",NA,images/earth.jpg,NA,NA,NA,NA,NA,NA,NA,NA,NA,NA,NA,NA,NA,fixation,NA,NA,NA,NA,NA,NA,sub30
d3-animate-choice,249,796415,0.0-76.0-0.38,FALSE,FALSE,TRUE,FALSE,"""event"",""trial"",""time""
""fullscreenenter"",""5"",""16064""
","
","
","""event"",""trial"",""time""
""fullscreenenter"",""5"",""16064""
","
",409.47500002221204,NA,48,NA,NA,3000,1,NA,NA,images/earth.jpg,images/rocket1,images/rocket2,null,images/rocket1,NA,1,real,null,2,NA,NA,NA,sub30
d3-animate-choice,250,799913,0.0-76.0-1.38,FALSE,FALSE,TRUE,FALSE,"""event"",""trial"",""time""
""fullscreenenter"",""5"",""16064""
","
","
","""event"",""trial"",""time""
""fullscreenenter"",""5"",""16064""
","
",1493.5050000203773,NA,49,NA,NA,3000,1,NA,NA,images/redplanet1.jpg,images/alien2,images/alien1,images/rocket1,images/alien1,images/t.png,2,real,false,1,rare,1,2020-06-10T18:05:32Z,sub30
two-step-fixation,251,800920,0.0-76.0-2.38,FALSE,FALSE,TRUE,FALSE,"""event"",""trial"",""time""
""fullscreenenter"",""5"",""16064""
","
","
","""event"",""trial"",""time""
""fullscreenenter"",""5"",""16064""
","
",NA,images/earth.jpg,NA,NA,NA,NA,NA,NA,NA,NA,NA,NA,NA,NA,NA,fixation,NA,NA,NA,NA,NA,NA,sub30
d3-animate-choice,252,803131,0.0-76.0-0.39,FALSE,FALSE,TRUE,FALSE,"""event"",""trial"",""time""
""fullscreenenter"",""5"",""16064""
","
","
","""event"",""trial"",""time""
""fullscreenenter"",""5"",""16064""
","
",206.02000001235865,NA,48,NA,NA,3000,1,NA,NA,images/earth.jpg,images/rocket1,images/rocket2,null,images/rocket1,NA,1,real,null,2,NA,NA,NA,sub30
d3-animate-choice,253,806304,0.0-76.0-1.39,FALSE,FALSE,TRUE,FALSE,"""event"",""trial"",""time""
""fullscreenenter"",""5"",""16064""
","
","
","""event"",""trial"",""time""
""fullscreenenter"",""5"",""16064""
","
",1166.3649999827612,NA,48,NA,NA,3000,1,NA,NA,images/purpleplanet.jpg,images/alien4,images/alien3,images/rocket1,images/alien4,images/t.png,2,real,true,2,common,1,2020-06-10T18:05:38Z,sub30
two-step-fixation,254,807309,0.0-76.0-2.39,FALSE,FALSE,TRUE,FALSE,"""event"",""trial"",""time""
""fullscreenenter"",""5"",""16064""
","
","
","""event"",""trial"",""time""
""fullscreenenter"",""5"",""16064""
","
",NA,images/earth.jpg,NA,NA,NA,NA,NA,NA,NA,NA,NA,NA,NA,NA,NA,fixation,NA,NA,NA,NA,NA,NA,sub30
d3-animate-choice,255,809635,0.0-76.0-0.40,FALSE,FALSE,TRUE,FALSE,"""event"",""trial"",""time""
""fullscreenenter"",""5"",""16064""
","
","
","""event"",""trial"",""time""
""fullscreenenter"",""5"",""16064""
","
",319.39499999862164,NA,49,NA,NA,3000,1,NA,NA,images/earth.jpg,images/rocket1,images/rocket2,null,images/rocket2,NA,1,real,null,1,NA,NA,NA,sub30
d3-animate-choice,256,812292,0.0-76.0-1.40,FALSE,FALSE,TRUE,FALSE,"""event"",""trial"",""time""
""fullscreenenter"",""5"",""16064""
","
","
","""event"",""trial"",""time""
""fullscreenenter"",""5"",""16064""
","
",651.2650000222493,NA,48,NA,NA,3000,1,NA,NA,images/purpleplanet.jpg,images/alien4,images/alien3,images/rocket2,images/alien4,images/nothing.png,2,real,false,2,rare,0,2020-06-10T18:05:44Z,sub30
two-step-fixation,257,813298,0.0-76.0-2.40,FALSE,FALSE,TRUE,FALSE,"""event"",""trial"",""time""
""fullscreenenter"",""5"",""16064""
","
","
","""event"",""trial"",""time""
""fullscreenenter"",""5"",""16064""
","
",NA,images/earth.jpg,NA,NA,NA,NA,NA,NA,NA,NA,NA,NA,NA,NA,NA,fixation,NA,NA,NA,NA,NA,NA,sub30
d3-animate-choice,258,815991,0.0-76.0-0.41,FALSE,FALSE,TRUE,FALSE,"""event"",""trial"",""time""
""fullscreenenter"",""5"",""16064""
","
","
","""event"",""trial"",""time""
""fullscreenenter"",""5"",""16064""
","
",685.7749999908265,NA,48,NA,NA,3000,1,NA,NA,images/earth.jpg,images/rocket1,images/rocket2,null,images/rocket1,NA,1,real,null,2,NA,NA,NA,sub30
d3-animate-choice,259,819198,0.0-76.0-1.41,FALSE,FALSE,TRUE,FALSE,"""event"",""trial"",""time""
""fullscreenenter"",""5"",""16064""
","
","
","""event"",""trial"",""time""
""fullscreenenter"",""5"",""16064""
","
",1201.7850000120234,NA,48,NA,NA,3000,1,NA,NA,images/redplanet1.jpg,images/alien2,images/alien1,images/rocket1,images/alien2,images/nothing.png,2,real,false,2,rare,0,2020-06-10T18:05:51Z,sub30
two-step-fixation,260,820204,0.0-76.0-2.41,FALSE,FALSE,TRUE,FALSE,"""event"",""trial"",""time""
""fullscreenenter"",""5"",""16064""
","
","
","""event"",""trial"",""time""
""fullscreenenter"",""5"",""16064""
","
",NA,images/earth.jpg,NA,NA,NA,NA,NA,NA,NA,NA,NA,NA,NA,NA,NA,fixation,NA,NA,NA,NA,NA,NA,sub30
d3-animate-choice,261,822490,0.0-76.0-0.42,FALSE,FALSE,TRUE,FALSE,"""event"",""trial"",""time""
""fullscreenenter"",""5"",""16064""
","
","
","""event"",""trial"",""time""
""fullscreenenter"",""5"",""16064""
","
",280.48499999567866,NA,49,NA,NA,3000,1,NA,NA,images/earth.jpg,images/rocket1,images/rocket2,null,images/rocket2,NA,1,real,null,1,NA,NA,NA,sub30
d3-animate-choice,262,824972,0.0-76.0-1.42,FALSE,FALSE,TRUE,FALSE,"""event"",""trial"",""time""
""fullscreenenter"",""5"",""16064""
","
","
","""event"",""trial"",""time""
""fullscreenenter"",""5"",""16064""
","
",475.8399999991525,NA,48,NA,NA,3000,1,NA,NA,images/redplanet1.jpg,images/alien2,images/alien1,images/rocket2,images/alien2,images/nothing.png,2,real,true,2,common,0,2020-06-10T18:05:57Z,sub30
two-step-fixation,263,825978,0.0-76.0-2.42,FALSE,FALSE,TRUE,FALSE,"""event"",""trial"",""time""
""fullscreenenter"",""5"",""16064""
","
","
","""event"",""trial"",""time""
""fullscreenenter"",""5"",""16064""
","
",NA,images/earth.jpg,NA,NA,NA,NA,NA,NA,NA,NA,NA,NA,NA,NA,NA,fixation,NA,NA,NA,NA,NA,NA,sub30
d3-animate-choice,264,828284,0.0-76.0-0.43,FALSE,FALSE,TRUE,FALSE,"""event"",""trial"",""time""
""fullscreenenter"",""5"",""16064""
","
","
","""event"",""trial"",""time""
""fullscreenenter"",""5"",""16064""
","
",300.51000000094064,NA,49,NA,NA,3000,1,NA,NA,images/earth.jpg,images/rocket1,images/rocket2,null,images/rocket2,NA,1,real,null,1,NA,NA,NA,sub30
d3-animate-choice,265,830809,0.0-76.0-1.43,FALSE,FALSE,TRUE,FALSE,"""event"",""trial"",""time""
""fullscreenenter"",""5"",""16064""
","
","
","""event"",""trial"",""time""
""fullscreenenter"",""5"",""16064""
","
",520.4950000043027,NA,49,NA,NA,3000,1,NA,NA,images/redplanet1.jpg,images/alien2,images/alien1,images/rocket2,images/alien1,images/t.png,2,real,true,1,common,1,2020-06-10T18:06:02Z,sub30
two-step-fixation,266,831815,0.0-76.0-2.43,FALSE,FALSE,TRUE,FALSE,"""event"",""trial"",""time""
""fullscreenenter"",""5"",""16064""
","
","
","""event"",""trial"",""time""
""fullscreenenter"",""5"",""16064""
","
",NA,images/earth.jpg,NA,NA,NA,NA,NA,NA,NA,NA,NA,NA,NA,NA,NA,fixation,NA,NA,NA,NA,NA,NA,sub30
d3-animate-choice,267,833968,0.0-76.0-0.44,FALSE,FALSE,TRUE,FALSE,"""event"",""trial"",""time""
""fullscreenenter"",""5"",""16064""
","
","
","""event"",""trial"",""time""
""fullscreenenter"",""5"",""16064""
","
",146.3999999978114,NA,48,NA,NA,3000,1,NA,NA,images/earth.jpg,images/rocket1,images/rocket2,null,images/rocket1,NA,1,real,null,2,NA,NA,NA,sub30
d3-animate-choice,268,836811,0.0-76.0-1.44,FALSE,FALSE,TRUE,FALSE,"""event"",""trial"",""time""
""fullscreenenter"",""5"",""16064""
","
","
","""event"",""trial"",""time""
""fullscreenenter"",""5"",""16064""
","
",837.4700000276789,NA,49,NA,NA,3000,1,NA,NA,images/redplanet1.jpg,images/alien2,images/alien1,images/rocket1,images/alien1,images/t.png,2,real,false,1,rare,1,2020-06-10T18:06:08Z,sub30
two-step-fixation,269,837816,0.0-76.0-2.44,FALSE,FALSE,TRUE,FALSE,"""event"",""trial"",""time""
""fullscreenenter"",""5"",""16064""
","
","
","""event"",""trial"",""time""
""fullscreenenter"",""5"",""16064""
","
",NA,images/earth.jpg,NA,NA,NA,NA,NA,NA,NA,NA,NA,NA,NA,NA,NA,fixation,NA,NA,NA,NA,NA,NA,sub30
d3-animate-choice,270,840392,0.0-76.0-0.45,FALSE,FALSE,TRUE,FALSE,"""event"",""trial"",""time""
""fullscreenenter"",""5"",""16064""
","
","
","""event"",""trial"",""time""
""fullscreenenter"",""5"",""16064""
","
",572.0049999945331,NA,48,NA,NA,3000,1,NA,NA,images/earth.jpg,images/rocket1,images/rocket2,null,images/rocket1,NA,1,real,null,2,NA,NA,NA,sub30
d3-animate-choice,271,843329,0.0-76.0-1.45,FALSE,FALSE,TRUE,FALSE,"""event"",""trial"",""time""
""fullscreenenter"",""5"",""16064""
","
","
","""event"",""trial"",""time""
""fullscreenenter"",""5"",""16064""
","
",934.4449999916833,NA,49,NA,NA,3000,1,NA,NA,images/redplanet1.jpg,images/alien2,images/alien1,images/rocket1,images/alien1,images/t.png,2,real,false,1,rare,1,2020-06-10T18:06:15Z,sub30
two-step-fixation,272,844337,0.0-76.0-2.45,FALSE,FALSE,TRUE,FALSE,"""event"",""trial"",""time""
""fullscreenenter"",""5"",""16064""
","
","
","""event"",""trial"",""time""
""fullscreenenter"",""5"",""16064""
","
",NA,images/earth.jpg,NA,NA,NA,NA,NA,NA,NA,NA,NA,NA,NA,NA,NA,fixation,NA,NA,NA,NA,NA,NA,sub30
d3-animate-choice,273,846393,0.0-76.0-0.46,FALSE,FALSE,TRUE,FALSE,"""event"",""trial"",""time""
""fullscreenenter"",""5"",""16064""
","
","
","""event"",""trial"",""time""
""fullscreenenter"",""5"",""16064""
","
",51.659999997355044,NA,49,NA,NA,3000,1,NA,NA,images/earth.jpg,images/rocket1,images/rocket2,null,images/rocket2,NA,1,real,null,1,NA,NA,NA,sub30
d3-animate-choice,274,849217,0.0-76.0-1.46,FALSE,FALSE,TRUE,FALSE,"""event"",""trial"",""time""
""fullscreenenter"",""5"",""16064""
","
","
","""event"",""trial"",""time""
""fullscreenenter"",""5"",""16064""
","
",820.6200000131503,NA,49,NA,NA,3000,1,NA,NA,images/redplanet1.jpg,images/alien2,images/alien1,images/rocket2,images/alien1,images/nothing.png,2,real,true,1,common,0,2020-06-10T18:06:21Z,sub30
two-step-fixation,275,850222,0.0-76.0-2.46,FALSE,FALSE,TRUE,FALSE,"""event"",""trial"",""time""
""fullscreenenter"",""5"",""16064""
","
","
","""event"",""trial"",""time""
""fullscreenenter"",""5"",""16064""
","
",NA,images/earth.jpg,NA,NA,NA,NA,NA,NA,NA,NA,NA,NA,NA,NA,NA,fixation,NA,NA,NA,NA,NA,NA,sub30
d3-animate-choice,276,852565,0.0-76.0-0.47,FALSE,FALSE,TRUE,FALSE,"""event"",""trial"",""time""
""fullscreenenter"",""5"",""16064""
","
","
","""event"",""trial"",""time""
""fullscreenenter"",""5"",""16064""
","
",337.53999997861683,NA,48,NA,NA,3000,1,NA,NA,images/earth.jpg,images/rocket1,images/rocket2,null,images/rocket1,NA,1,real,null,2,NA,NA,NA,sub30
d3-animate-choice,277,855423,0.0-76.0-1.47,FALSE,FALSE,TRUE,FALSE,"""event"",""trial"",""time""
""fullscreenenter"",""5"",""16064""
","
","
","""event"",""trial"",""time""
""fullscreenenter"",""5"",""16064""
","
",852.4299999990035,NA,49,NA,NA,3000,1,NA,NA,images/redplanet1.jpg,images/alien2,images/alien1,images/rocket1,images/alien1,images/t.png,2,real,false,1,rare,1,2020-06-10T18:06:27Z,sub30
two-step-fixation,278,856428,0.0-76.0-2.47,FALSE,FALSE,TRUE,FALSE,"""event"",""trial"",""time""
""fullscreenenter"",""5"",""16064""
","
","
","""event"",""trial"",""time""
""fullscreenenter"",""5"",""16064""
","
",NA,images/earth.jpg,NA,NA,NA,NA,NA,NA,NA,NA,NA,NA,NA,NA,NA,fixation,NA,NA,NA,NA,NA,NA,sub30
d3-animate-choice,279,858773,0.0-76.0-0.48,FALSE,FALSE,TRUE,FALSE,"""event"",""trial"",""time""
""fullscreenenter"",""5"",""16064""
","
","
","""event"",""trial"",""time""
""fullscreenenter"",""5"",""16064""
","
",340.3099999995902,NA,49,NA,NA,3000,1,NA,NA,images/earth.jpg,images/rocket1,images/rocket2,null,images/rocket2,NA,1,real,null,1,NA,NA,NA,sub30
d3-animate-choice,280,861254,0.0-76.0-1.48,FALSE,FALSE,TRUE,FALSE,"""event"",""trial"",""time""
""fullscreenenter"",""5"",""16064""
","
","
","""event"",""trial"",""time""
""fullscreenenter"",""5"",""16064""
","
",474.7700000007171,NA,49,NA,NA,3000,1,NA,NA,images/redplanet1.jpg,images/alien2,images/alien1,images/rocket2,images/alien1,images/nothing.png,2,real,true,1,common,0,2020-06-10T18:06:33Z,sub30
two-step-fixation,281,862259,0.0-76.0-2.48,FALSE,FALSE,TRUE,FALSE,"""event"",""trial"",""time""
""fullscreenenter"",""5"",""16064""
","
","
","""event"",""trial"",""time""
""fullscreenenter"",""5"",""16064""
","
",NA,images/earth.jpg,NA,NA,NA,NA,NA,NA,NA,NA,NA,NA,NA,NA,NA,fixation,NA,NA,NA,NA,NA,NA,sub30
d3-animate-choice,282,864580,0.0-76.0-0.49,FALSE,FALSE,TRUE,FALSE,"""event"",""trial"",""time""
""fullscreenenter"",""5"",""16064""
","
","
","""event"",""trial"",""time""
""fullscreenenter"",""5"",""16064""
","
",315.310000005411,NA,48,NA,NA,3000,1,NA,NA,images/earth.jpg,images/rocket1,images/rocket2,null,images/rocket1,NA,1,real,null,2,NA,NA,NA,sub30
d3-animate-choice,283,868054,0.0-76.0-1.49,FALSE,FALSE,TRUE,FALSE,"""event"",""trial"",""time""
