trial_type,trial_index,time_elapsed,internal_node_id,rocket_sides,red_planet_first_rocket,red_display_order,purple_display_order,interactions,blur_events,focus_events,fullscreenenter_events,fullscreenexit_events,rt,stimulus,key_press,button_pressed,success,duration,valid_pressed,rts,keys,planet_text,right_text,left_text,center_text,chosen_text,reward_text,trial_stage,practice_trial,transition_type,choice,transition,reward,timestamp,subject_id
pavlovia,0,4,0.0-0.0,FALSE,FALSE,TRUE,FALSE,"
","
","
","
","
",NA,NA,NA,NA,NA,NA,NA,NA,NA,NA,NA,NA,NA,NA,NA,NA,NA,NA,NA,NA,NA,NA,sub5
html-keyboard-response,1,2600,0.0-1.0,FALSE,FALSE,TRUE,FALSE,"
","
","
","
","
",2594.2100000102073,Welcome! Press the space bar to begin.,32,NA,NA,NA,NA,NA,NA,NA,NA,NA,NA,NA,NA,NA,NA,NA,NA,NA,NA,NA,sub5
audio-keyboard-response,2,6062,0.0-2.0,FALSE,FALSE,TRUE,FALSE,"
","
","
","
","
",3421,audio/beep_loop.wav,32,NA,NA,NA,NA,NA,NA,NA,NA,NA,NA,NA,NA,NA,NA,NA,NA,NA,NA,NA,sub5
audio-button-response,3,8750,0.0-3.0,FALSE,FALSE,TRUE,FALSE,"
","
","
","
","
",NaN,audio/fish.mp3,NA,1,NA,NA,NA,NA,NA,NA,NA,NA,NA,NA,NA,NA,NA,NA,NA,NA,NA,NA,sub5
audio-button-response,4,12356,0.0-4.0,FALSE,FALSE,TRUE,FALSE,"""event"",""trial"",""time""
""fullscreenenter"",""5"",""19718""
","
","
","""event"",""trial"",""time""
""fullscreenenter"",""5"",""19718""
","
",NaN,audio/tiger.mp3,NA,4,NA,NA,NA,NA,NA,NA,NA,NA,NA,NA,NA,NA,NA,NA,NA,NA,NA,NA,sub5
fullscreen,5,20695,0.0-5.0,FALSE,FALSE,TRUE,FALSE,"""event"",""trial"",""time""
""fullscreenenter"",""5"",""19718""
","
","
","""event"",""trial"",""time""
""fullscreenenter"",""5"",""19718""
","
",NA,NA,NA,NA,TRUE,NA,NA,NA,NA,NA,NA,NA,NA,NA,NA,NA,NA,NA,NA,NA,NA,NA,sub5
d3-instructions,6,33767,0.0-6.0,FALSE,FALSE,TRUE,FALSE,"""event"",""trial"",""time""
""fullscreenenter"",""5"",""19718""
","
","
","""event"",""trial"",""time""
""fullscreenenter"",""5"",""19718""
","
",NA,NA,NA,NA,NA,NA,NA,NA,NA,NA,NA,NA,NA,NA,NA,NA,NA,NA,NA,NA,NA,NA,sub5
d3-instructions,7,40990,0.0-7.0,FALSE,FALSE,TRUE,FALSE,"""event"",""trial"",""time""
""fullscreenenter"",""5"",""19718""
","
","
","""event"",""trial"",""time""
""fullscreenenter"",""5"",""19718""
","
",NA,NA,NA,NA,NA,NA,NA,NA,NA,NA,NA,NA,NA,NA,NA,NA,NA,NA,NA,NA,NA,NA,sub5
d3-instructions,8,48061,0.0-8.0,FALSE,FALSE,TRUE,FALSE,"""event"",""trial"",""time""
""fullscreenenter"",""5"",""19718""
","
","
","""event"",""trial"",""time""
""fullscreenenter"",""5"",""19718""
","
",NA,NA,NA,NA,NA,NA,NA,NA,NA,NA,NA,NA,NA,NA,NA,NA,NA,NA,NA,NA,NA,NA,sub5
d3-instructions,9,57653,0.0-9.0,FALSE,FALSE,TRUE,FALSE,"""event"",""trial"",""time""
""fullscreenenter"",""5"",""19718""
","
","
","""event"",""trial"",""time""
""fullscreenenter"",""5"",""19718""
","
",NA,NA,NA,NA,NA,NA,NA,NA,NA,NA,NA,NA,NA,NA,NA,NA,NA,NA,NA,NA,NA,NA,sub5
d3-instructions,10,81299,0.0-10.0,FALSE,FALSE,TRUE,FALSE,"""event"",""trial"",""time""
""fullscreenenter"",""5"",""19718""
","
","
","""event"",""trial"",""time""
""fullscreenenter"",""5"",""19718""
","
",NA,NA,NA,NA,NA,NA,NA,NA,NA,NA,NA,NA,NA,NA,NA,NA,NA,NA,NA,NA,NA,NA,sub5
d3-animate-choice,11,84149,0.0-11.0,FALSE,FALSE,TRUE,FALSE,"""event"",""trial"",""time""
""fullscreenenter"",""5"",""19718""
","
","
","""event"",""trial"",""time""
""fullscreenenter"",""5"",""19718""
","
",833.4999999497086,NA,49,NA,NA,3000,1,NA,NA,images/tutgreenplanet.jpg,images/tutalien1,images/tutalien2,null,images/tutalien2,NA,NA,practice,null,NA,NA,NA,NA,sub5
d3-animate-choice,12,86725,0.0-12.0,FALSE,FALSE,TRUE,FALSE,"""event"",""trial"",""time""
""fullscreenenter"",""5"",""19718""
","
","
","""event"",""trial"",""time""
""fullscreenenter"",""5"",""19718""
","
",569.029999896884,NA,48,NA,NA,3000,1,NA,NA,images/tutgreenplanet.jpg,images/tutalien1,images/tutalien2,null,images/tutalien1,NA,NA,practice,null,NA,NA,NA,NA,sub5
d3-animate-choice,13,89183,0.0-13.0,FALSE,FALSE,TRUE,FALSE,"""event"",""trial"",""time""
""fullscreenenter"",""5"",""19718""
","
","
","""event"",""trial"",""time""
""fullscreenenter"",""5"",""19718""
","
",452.02500000596046,NA,49,NA,NA,3000,1,1553.5099999979138,48,images/tutgreenplanet.jpg,images/tutalien1,images/tutalien2,null,images/tutalien2,NA,NA,practice,null,NA,NA,NA,NA,sub5
d3-animate-choice,14,91589,0.0-14.0,FALSE,FALSE,TRUE,FALSE,"""event"",""trial"",""time""
""fullscreenenter"",""5"",""19718""
","
","
","""event"",""trial"",""time""
""fullscreenenter"",""5"",""19718""
","
",400.0049999449402,NA,48,NA,NA,3000,1,"671.9499998725951,1023.9249998703599,1439.8999998811632",494849,images/tutgreenplanet.jpg,images/tutalien1,images/tutalien2,null,images/tutalien1,NA,NA,practice,null,NA,NA,NA,NA,sub5
d3-instructions,15,97559,0.0-15.0,FALSE,FALSE,TRUE,FALSE,"""event"",""trial"",""time""
""fullscreenenter"",""5"",""19718""
","
","
","""event"",""trial"",""time""
""fullscreenenter"",""5"",""19718""
","
",NA,NA,NA,NA,NA,NA,NA,NA,NA,NA,NA,NA,NA,NA,NA,NA,NA,NA,NA,NA,NA,NA,sub5
d3-instructions,16,102502,0.0-16.0,FALSE,FALSE,TRUE,FALSE,"""event"",""trial"",""time""
""fullscreenenter"",""5"",""19718""
","
","
","""event"",""trial"",""time""
""fullscreenenter"",""5"",""19718""
","
",NA,NA,NA,NA,NA,NA,NA,NA,NA,NA,NA,NA,NA,NA,NA,NA,NA,NA,NA,NA,NA,NA,sub5
d3-instructions,17,108617,0.0-17.0,FALSE,FALSE,TRUE,FALSE,"""event"",""trial"",""time""
""fullscreenenter"",""5"",""19718""
","
","
","""event"",""trial"",""time""
""fullscreenenter"",""5"",""19718""
","
",NA,NA,NA,NA,NA,NA,NA,NA,NA,NA,NA,NA,NA,NA,NA,NA,NA,NA,NA,NA,NA,NA,sub5
d3-instructions,18,124133,0.0-18.0,FALSE,FALSE,TRUE,FALSE,"""event"",""trial"",""time""
""fullscreenenter"",""5"",""19718""
","
","
","""event"",""trial"",""time""
""fullscreenenter"",""5"",""19718""
","
",NA,NA,NA,NA,NA,NA,NA,NA,NA,NA,NA,NA,NA,NA,NA,NA,NA,NA,NA,NA,NA,NA,sub5
d3-instructions,19,136788,0.0-19.0,FALSE,FALSE,TRUE,FALSE,"""event"",""trial"",""time""
""fullscreenenter"",""5"",""19718""
","
","
","""event"",""trial"",""time""
""fullscreenenter"",""5"",""19718""
","
",NA,NA,NA,NA,NA,NA,NA,NA,NA,NA,NA,NA,NA,NA,NA,NA,NA,NA,NA,NA,NA,NA,sub5
d3-animate-choice,20,140238,0.0-20.0,FALSE,FALSE,TRUE,FALSE,"""event"",""trial"",""time""
""fullscreenenter"",""5"",""19718""
","
","
","""event"",""trial"",""time""
""fullscreenenter"",""5"",""19718""
","
",1443.0050000082701,NA,49,NA,NA,3000,1,3322.849999880418,49,images/tutyellowplanet.jpg,null,images/tutalien3,null,images/tutalien3,images/t.png,NA,practice,null,NA,NA,NA,NA,sub5
d3-animate-choice,21,142805,0.0-21.0,FALSE,FALSE,TRUE,FALSE,"""event"",""trial"",""time""
""fullscreenenter"",""5"",""19718""
","
","
","""event"",""trial"",""time""
""fullscreenenter"",""5"",""19718""
","
",562.0500000659376,NA,49,NA,NA,3000,1,NA,NA,images/tutyellowplanet.jpg,null,images/tutalien3,null,images/tutalien3,images/t.png,NA,practice,null,NA,NA,NA,NA,sub5
d3-animate-choice,22,145110,0.0-22.0,FALSE,FALSE,TRUE,FALSE,"""event"",""trial"",""time""
""fullscreenenter"",""5"",""19718""
","
","
","""event"",""trial"",""time""
""fullscreenenter"",""5"",""19718""
","
",299.6950000524521,NA,49,NA,NA,3000,1,2075.544999912381,49,images/tutyellowplanet.jpg,null,images/tutalien3,null,images/tutalien3,images/nothing.png,NA,practice,null,NA,NA,NA,NA,sub5
d3-animate-choice,23,147509,0.0-23.0,FALSE,FALSE,TRUE,FALSE,"""event"",""trial"",""time""
""fullscreenenter"",""5"",""19718""
","
","
","""event"",""trial"",""time""
""fullscreenenter"",""5"",""19718""
","
",394.5450000464916,NA,49,NA,NA,3000,1,1924.9100000597537,49,images/tutyellowplanet.jpg,null,images/tutalien3,null,images/tutalien3,images/t.png,NA,practice,null,NA,NA,NA,NA,sub5
d3-animate-choice,24,149829,0.0-24.0,FALSE,FALSE,TRUE,FALSE,"""event"",""trial"",""time""
""fullscreenenter"",""5"",""19718""
","
","
","""event"",""trial"",""time""
""fullscreenenter"",""5"",""19718""
","
",315.4400000348687,NA,49,NA,NA,3000,1,1754.8249999526888,49,images/tutyellowplanet.jpg,null,images/tutalien3,null,images/tutalien3,images/nothing.png,NA,practice,null,NA,NA,NA,NA,sub5
d3-animate-choice,25,152149,0.0-25.0,FALSE,FALSE,TRUE,FALSE,"""event"",""trial"",""time""
""fullscreenenter"",""5"",""19718""
","
","
","""event"",""trial"",""time""
""fullscreenenter"",""5"",""19718""
","
",315.28500001877546,NA,49,NA,NA,3000,1,2187.1199999004602,49,images/tutyellowplanet.jpg,null,images/tutalien3,null,images/tutalien3,images/t.png,NA,practice,null,NA,NA,NA,NA,sub5
d3-animate-choice,26,154528,0.0-26.0,FALSE,FALSE,TRUE,FALSE,"""event"",""trial"",""time""
""fullscreenenter"",""5"",""19718""
","
","
","""event"",""trial"",""time""
""fullscreenenter"",""5"",""19718""
","
",370.91500009410083,NA,49,NA,NA,3000,1,NA,NA,images/tutyellowplanet.jpg,null,images/tutalien3,null,images/tutalien3,images/t.png,NA,practice,null,NA,NA,NA,NA,sub5
d3-animate-choice,27,156849,0.0-27.0,FALSE,FALSE,TRUE,FALSE,"""event"",""trial"",""time""
""fullscreenenter"",""5"",""19718""
","
","
","""event"",""trial"",""time""
""fullscreenenter"",""5"",""19718""
","
",314.58999984897673,NA,49,NA,NA,3000,1,NA,NA,images/tutyellowplanet.jpg,null,images/tutalien3,null,images/tutalien3,images/nothing.png,NA,practice,null,NA,NA,NA,NA,sub5
d3-animate-choice,28,159138,0.0-28.0,FALSE,FALSE,TRUE,FALSE,"""event"",""trial"",""time""
""fullscreenenter"",""5"",""19718""
","
","
","""event"",""trial"",""time""
""fullscreenenter"",""5"",""19718""
","
",283.14999979920685,NA,49,NA,NA,3000,1,2032.914999872446,49,images/tutyellowplanet.jpg,null,images/tutalien3,null,images/tutalien3,images/nothing.png,NA,practice,null,NA,NA,NA,NA,sub5
d3-animate-choice,29,161472,0.0-29.0,FALSE,FALSE,TRUE,FALSE,"""event"",""trial"",""time""
""fullscreenenter"",""5"",""19718""
","
","
","""event"",""trial"",""time""
""fullscreenenter"",""5"",""19718""
","
",328.66499992087483,NA,49,NA,NA,3000,1,NA,NA,images/tutyellowplanet.jpg,null,images/tutalien3,null,images/tutalien3,images/t.png,NA,practice,null,NA,NA,NA,NA,sub5
d3-instructions,30,169869,0.0-30.0,FALSE,FALSE,TRUE,FALSE,"""event"",""trial"",""time""
""fullscreenenter"",""5"",""19718""
","
","
","""event"",""trial"",""time""
""fullscreenenter"",""5"",""19718""
","
",NA,NA,NA,NA,NA,NA,NA,NA,NA,NA,NA,NA,NA,NA,NA,NA,NA,NA,NA,NA,NA,NA,sub5
d3-instructions,31,175198,0.0-31.0,FALSE,FALSE,TRUE,FALSE,"""event"",""trial"",""time""
""fullscreenenter"",""5"",""19718""
","
","
","""event"",""trial"",""time""
""fullscreenenter"",""5"",""19718""
","
",NA,NA,NA,NA,NA,NA,NA,NA,NA,NA,NA,NA,NA,NA,NA,NA,NA,NA,NA,NA,NA,NA,sub5
d3-instructions,32,183877,0.0-32.0,FALSE,FALSE,TRUE,FALSE,"""event"",""trial"",""time""
""fullscreenenter"",""5"",""19718""
","
","
","""event"",""trial"",""time""
""fullscreenenter"",""5"",""19718""
","
",NA,NA,NA,NA,NA,NA,NA,NA,NA,NA,NA,NA,NA,NA,NA,NA,NA,NA,NA,NA,NA,NA,sub5
d3-instructions,33,186388,0.0-33.0,FALSE,FALSE,TRUE,FALSE,"""event"",""trial"",""time""
""fullscreenenter"",""5"",""19718""
","
","
","""event"",""trial"",""time""
""fullscreenenter"",""5"",""19718""
","
",NA,NA,NA,NA,NA,NA,NA,NA,NA,NA,NA,NA,NA,NA,NA,NA,NA,NA,NA,NA,NA,NA,sub5
d3-animate-choice,34,190822,0.0-34.0,FALSE,FALSE,TRUE,FALSE,"""event"",""trial"",""time""
""fullscreenenter"",""5"",""19718""
","
","
","""event"",""trial"",""time""
""fullscreenenter"",""5"",""19718""
","
",2427.720000036061,NA,48,NA,NA,3000,1,NA,NA,images/tutgreenplanet.jpg,images/tutalien1,images/tutalien2,null,images/tutalien1,images/nothing.png,NA,practice,null,NA,NA,NA,NA,sub5
d3-animate-choice,35,193350,0.0-35.0,FALSE,FALSE,TRUE,FALSE,"""event"",""trial"",""time""
""fullscreenenter"",""5"",""19718""
","
","
","""event"",""trial"",""time""
""fullscreenenter"",""5"",""19718""
","
",523.1349999085069,NA,48,NA,NA,3000,1,NA,NA,images/tutgreenplanet.jpg,images/tutalien1,images/tutalien2,null,images/tutalien1,images/nothing.png,NA,practice,null,NA,NA,NA,NA,sub5
d3-animate-choice,36,195702,0.0-36.0,FALSE,FALSE,TRUE,FALSE,"""event"",""trial"",""time""
""fullscreenenter"",""5"",""19718""
","
","
","""event"",""trial"",""time""
""fullscreenenter"",""5"",""19718""
","
",346.39499988406897,NA,48,NA,NA,3000,1,NA,NA,images/tutgreenplanet.jpg,images/tutalien1,images/tutalien2,null,images/tutalien1,images/nothing.png,NA,practice,null,NA,NA,NA,NA,sub5
d3-animate-choice,37,197982,0.0-37.0,FALSE,FALSE,TRUE,FALSE,"""event"",""trial"",""time""
""fullscreenenter"",""5"",""19718""
","
","
","""event"",""trial"",""time""
""fullscreenenter"",""5"",""19718""
","
",274.2250000592321,NA,49,NA,NA,3000,1,NA,NA,images/tutgreenplanet.jpg,images/tutalien1,images/tutalien2,null,images/tutalien2,images/nothing.png,NA,practice,null,NA,NA,NA,NA,sub5
d3-animate-choice,38,200254,0.0-38.0,FALSE,FALSE,TRUE,FALSE,"""event"",""trial"",""time""
""fullscreenenter"",""5"",""19718""
","
","
","""event"",""trial"",""time""
""fullscreenenter"",""5"",""19718""
","
",264.96000005863607,NA,49,NA,NA,3000,1,NA,NA,images/tutgreenplanet.jpg,images/tutalien1,images/tutalien2,null,images/tutalien2,images/nothing.png,NA,practice,null,NA,NA,NA,NA,sub5
d3-animate-choice,39,202526,0.0-39.0,FALSE,FALSE,TRUE,FALSE,"""event"",""trial"",""time""
""fullscreenenter"",""5"",""19718""
","
","
","""event"",""trial"",""time""
""fullscreenenter"",""5"",""19718""
","
",266.2299999501556,NA,49,NA,NA,3000,1,NA,NA,images/tutgreenplanet.jpg,images/tutalien1,images/tutalien2,null,images/tutalien2,images/t.png,NA,practice,null,NA,NA,NA,NA,sub5
d3-animate-choice,40,204950,0.0-40.0,FALSE,FALSE,TRUE,FALSE,"""event"",""trial"",""time""
""fullscreenenter"",""5"",""19718""
","
","
","""event"",""trial"",""time""
""fullscreenenter"",""5"",""19718""
","
",419.83500006608665,NA,48,NA,NA,3000,1,NA,NA,images/tutgreenplanet.jpg,images/tutalien1,images/tutalien2,null,images/tutalien1,images/nothing.png,NA,practice,null,NA,NA,NA,NA,sub5
d3-animate-choice,41,207284,0.0-41.0,FALSE,FALSE,TRUE,FALSE,"""event"",""trial"",""time""
""fullscreenenter"",""5"",""19718""
","
","
","""event"",""trial"",""time""
""fullscreenenter"",""5"",""19718""
","
",330.49999992363155,NA,48,NA,NA,3000,1,NA,NA,images/tutgreenplanet.jpg,images/tutalien1,images/tutalien2,null,images/tutalien1,images/nothing.png,NA,practice,null,NA,NA,NA,NA,sub5
d3-animate-choice,42,209621,0.0-42.0,FALSE,FALSE,TRUE,FALSE,"""event"",""trial"",""time""
""fullscreenenter"",""5"",""19718""
","
","
","""event"",""trial"",""time""
""fullscreenenter"",""5"",""19718""
","
",331.56000007875264,NA,48,NA,NA,3000,1,NA,NA,images/tutgreenplanet.jpg,images/tutalien1,images/tutalien2,null,images/tutalien1,images/t.png,NA,practice,null,NA,NA,NA,NA,sub5
d3-animate-choice,43,211933,0.0-43.0,FALSE,FALSE,TRUE,FALSE,"""event"",""trial"",""time""
""fullscreenenter"",""5"",""19718""
","
","
","""event"",""trial"",""time""
""fullscreenenter"",""5"",""19718""
","
",306.30000005476177,NA,49,NA,NA,3000,1,1834.6450000535697,49,images/tutgreenplanet.jpg,images/tutalien1,images/tutalien2,null,images/tutalien2,images/t.png,NA,practice,null,NA,NA,NA,NA,sub5
d3-instructions,44,222614,0.0-44.0,FALSE,FALSE,TRUE,FALSE,"""event"",""trial"",""time""
""fullscreenenter"",""5"",""19718""
","
","
","""event"",""trial"",""time""
""fullscreenenter"",""5"",""19718""
","
",NA,NA,NA,NA,NA,NA,NA,NA,NA,NA,NA,NA,NA,NA,NA,NA,NA,NA,NA,NA,NA,NA,sub5
d3-instructions,45,229990,0.0-45.0,FALSE,FALSE,TRUE,FALSE,"""event"",""trial"",""time""
""fullscreenenter"",""5"",""19718""
","
","
","""event"",""trial"",""time""
""fullscreenenter"",""5"",""19718""
","
",NA,NA,NA,NA,NA,NA,NA,NA,NA,NA,NA,NA,NA,NA,NA,NA,NA,NA,NA,NA,NA,NA,sub5
d3-instructions,46,236300,0.0-46.0,FALSE,FALSE,TRUE,FALSE,"""event"",""trial"",""time""
""fullscreenenter"",""5"",""19718""
","
","
","""event"",""trial"",""time""
""fullscreenenter"",""5"",""19718""
","
",NA,NA,NA,NA,NA,NA,NA,NA,NA,NA,NA,NA,NA,NA,NA,NA,NA,NA,NA,NA,NA,NA,sub5
d3-instructions,47,253820,0.0-47.0,FALSE,FALSE,TRUE,FALSE,"""event"",""trial"",""time""
""fullscreenenter"",""5"",""19718""
","
","
","""event"",""trial"",""time""
""fullscreenenter"",""5"",""19718""
","
",NA,NA,NA,NA,NA,NA,NA,NA,NA,NA,NA,NA,NA,NA,NA,NA,NA,NA,NA,NA,NA,NA,sub5
d3-instructions,48,261115,0.0-48.0,FALSE,FALSE,TRUE,FALSE,"""event"",""trial"",""time""
""fullscreenenter"",""5"",""19718""
","
","
","""event"",""trial"",""time""
""fullscreenenter"",""5"",""19718""
","
",NA,NA,NA,NA,NA,NA,NA,NA,NA,NA,NA,NA,NA,NA,NA,NA,NA,NA,NA,NA,NA,NA,sub5
d3-instructions,49,267052,0.0-49.0,FALSE,FALSE,TRUE,FALSE,"""event"",""trial"",""time""
""fullscreenenter"",""5"",""19718""
","
","
","""event"",""trial"",""time""
""fullscreenenter"",""5"",""19718""
","
",NA,NA,NA,NA,NA,NA,NA,NA,NA,NA,NA,NA,NA,NA,NA,NA,NA,NA,NA,NA,NA,NA,sub5
d3-instructions,50,276662,0.0-50.0,FALSE,FALSE,TRUE,FALSE,"""event"",""trial"",""time""
""fullscreenenter"",""5"",""19718""
","
","
","""event"",""trial"",""time""
""fullscreenenter"",""5"",""19718""
","
",NA,NA,NA,NA,NA,NA,NA,NA,NA,NA,NA,NA,NA,NA,NA,NA,NA,NA,NA,NA,NA,NA,sub5
d3-instructions,51,279502,0.0-51.0,FALSE,FALSE,TRUE,FALSE,"""event"",""trial"",""time""
""fullscreenenter"",""5"",""19718""
","
","
","""event"",""trial"",""time""
""fullscreenenter"",""5"",""19718""
","
",NA,NA,NA,NA,NA,NA,NA,NA,NA,NA,NA,NA,NA,NA,NA,NA,NA,NA,NA,NA,NA,NA,sub5
d3-instructions,52,283078,0.0-52.0,FALSE,FALSE,TRUE,FALSE,"""event"",""trial"",""time""
""fullscreenenter"",""5"",""19718""
","
","
","""event"",""trial"",""time""
""fullscreenenter"",""5"",""19718""
","
",NA,NA,NA,NA,NA,NA,NA,NA,NA,NA,NA,NA,NA,NA,NA,NA,NA,NA,NA,NA,NA,NA,sub5
d3-instructions,53,296117,0.0-53.0,FALSE,FALSE,TRUE,FALSE,"""event"",""trial"",""time""
""fullscreenenter"",""5"",""19718""
","
","
","""event"",""trial"",""time""
""fullscreenenter"",""5"",""19718""
","
",NA,NA,NA,NA,NA,NA,NA,NA,NA,NA,NA,NA,NA,NA,NA,NA,NA,NA,NA,NA,NA,NA,sub5
d3-instructions,54,308343,0.0-54.0,FALSE,FALSE,TRUE,FALSE,"""event"",""trial"",""time""
""fullscreenenter"",""5"",""19718""
","
","
","""event"",""trial"",""time""
""fullscreenenter"",""5"",""19718""
","
",NA,NA,NA,NA,NA,NA,NA,NA,NA,NA,NA,NA,NA,NA,NA,NA,NA,NA,NA,NA,NA,NA,sub5
d3-instructions,55,313780,0.0-55.0,FALSE,FALSE,TRUE,FALSE,"""event"",""trial"",""time""
""fullscreenenter"",""5"",""19718""
","
","
","""event"",""trial"",""time""
""fullscreenenter"",""5"",""19718""
","
",NA,NA,NA,NA,NA,NA,NA,NA,NA,NA,NA,NA,NA,NA,NA,NA,NA,NA,NA,NA,NA,NA,sub5
d3-instructions,56,318052,0.0-56.0,FALSE,FALSE,TRUE,FALSE,"""event"",""trial"",""time""
""fullscreenenter"",""5"",""19718""
","
","
","""event"",""trial"",""time""
""fullscreenenter"",""5"",""19718""
","
",NA,NA,NA,NA,NA,NA,NA,NA,NA,NA,NA,NA,NA,NA,NA,NA,NA,NA,NA,NA,NA,NA,sub5
d3-instructions,57,328139,0.0-57.0,FALSE,FALSE,TRUE,FALSE,"""event"",""trial"",""time""
""fullscreenenter"",""5"",""19718""
","
","
","""event"",""trial"",""time""
""fullscreenenter"",""5"",""19718""
","
",NA,NA,NA,NA,NA,NA,NA,NA,NA,NA,NA,NA,NA,NA,NA,NA,NA,NA,NA,NA,NA,NA,sub5
d3-instructions,58,339254,0.0-58.0,FALSE,FALSE,TRUE,FALSE,"""event"",""trial"",""time""
""fullscreenenter"",""5"",""19718""
","
","
","""event"",""trial"",""time""
""fullscreenenter"",""5"",""19718""
","
",NA,NA,NA,NA,NA,NA,NA,NA,NA,NA,NA,NA,NA,NA,NA,NA,NA,NA,NA,NA,NA,NA,sub5
d3-instructions,59,344814,0.0-59.0,FALSE,FALSE,TRUE,FALSE,"""event"",""trial"",""time""
""fullscreenenter"",""5"",""19718""
","
","
","""event"",""trial"",""time""
""fullscreenenter"",""5"",""19718""
","
",NA,NA,NA,NA,NA,NA,NA,NA,NA,NA,NA,NA,NA,NA,NA,NA,NA,NA,NA,NA,NA,NA,sub5
d3-instructions,60,349816,0.0-60.0,FALSE,FALSE,TRUE,FALSE,"""event"",""trial"",""time""
""fullscreenenter"",""5"",""19718""
","
","
","""event"",""trial"",""time""
""fullscreenenter"",""5"",""19718""
","
",NA,NA,NA,NA,NA,NA,NA,NA,NA,NA,NA,NA,NA,NA,NA,NA,NA,NA,NA,NA,NA,NA,sub5
d3-animate-choice,61,353023,0.0-61.0-0.0,FALSE,FALSE,TRUE,FALSE,"""event"",""trial"",""time""
""fullscreenenter"",""5"",""19718""
","
","
","""event"",""trial"",""time""
""fullscreenenter"",""5"",""19718""
","
",1199.375000083819,NA,48,NA,NA,3000,1,NA,NA,images/earth.jpg,images/tutrocket2,images/tutrocket1,null,images/tutrocket2,NA,1,practice,null,2,NA,NA,NA,sub5
d3-animate-choice,62,357032,0.0-61.0-1.0,FALSE,FALSE,TRUE,FALSE,"""event"",""trial"",""time""
""fullscreenenter"",""5"",""19718""
","
","
","""event"",""trial"",""time""
""fullscreenenter"",""5"",""19718""
","
",2830.695000011474,NA,48,NA,NA,3000,1,NA,NA,images/tutgreenplanet.jpg,images/tutalien2,images/tutalien1,images/tutrocket2,images/tutalien2,NA,2,practice,true,2,common,0,2020-06-11T12:22:36Z,sub5
two-step-fixation,63,358044,0.0-61.0-2.0,FALSE,FALSE,TRUE,FALSE,"""event"",""trial"",""time""
""fullscreenenter"",""5"",""19718""
","
","
","""event"",""trial"",""time""
""fullscreenenter"",""5"",""19718""
","
",NA,images/earth.jpg,NA,NA,NA,NA,NA,NA,NA,NA,NA,NA,NA,NA,NA,fixation,NA,NA,NA,NA,NA,NA,sub5
d3-animate-choice,64,361231,0.0-61.0-0.1,FALSE,FALSE,TRUE,FALSE,"""event"",""trial"",""time""
""fullscreenenter"",""5"",""19718""
","
","
","""event"",""trial"",""time""
""fullscreenenter"",""5"",""19718""
","
",1180.869999807328,NA,49,NA,NA,3000,1,NA,NA,images/earth.jpg,images/tutrocket2,images/tutrocket1,null,images/tutrocket1,NA,1,practice,null,1,NA,NA,NA,sub5
d3-animate-choice,65,364502,0.0-61.0-1.1,FALSE,FALSE,TRUE,FALSE,"""event"",""trial"",""time""
""fullscreenenter"",""5"",""19718""
","
","
","""event"",""trial"",""time""
""fullscreenenter"",""5"",""19718""
","
",1265.1750000659376,NA,49,NA,NA,3000,1,NA,NA,images/tutyellowplanet.jpg,images/tutalien4,images/tutalien3,images/tutrocket1,images/tutalien3,images/nothing.png,2,practice,true,1,common,0,2020-06-11T12:22:44Z,sub5
two-step-fixation,66,365509,0.0-61.0-2.1,FALSE,FALSE,TRUE,FALSE,"""event"",""trial"",""time""
""fullscreenenter"",""5"",""19718""
","
","
","""event"",""trial"",""time""
""fullscreenenter"",""5"",""19718""
","
",NA,images/earth.jpg,NA,NA,NA,NA,NA,NA,NA,NA,NA,NA,NA,NA,NA,fixation,NA,NA,NA,NA,NA,NA,sub5
d3-animate-choice,67,368406,0.0-61.0-0.2,FALSE,FALSE,TRUE,FALSE,"""event"",""trial"",""time""
""fullscreenenter"",""5"",""19718""
","
","
","""event"",""trial"",""time""
""fullscreenenter"",""5"",""19718""
","
",890.1200001128018,NA,48,NA,NA,3000,1,NA,NA,images/earth.jpg,images/tutrocket2,images/tutrocket1,null,images/tutrocket2,NA,1,practice,null,2,NA,NA,NA,sub5
d3-animate-choice,68,371790,0.0-61.0-1.2,FALSE,FALSE,TRUE,FALSE,"""event"",""trial"",""time""
""fullscreenenter"",""5"",""19718""
","
","
","""event"",""trial"",""time""
""fullscreenenter"",""5"",""19718""
","
",1376.894999993965,NA,49,NA,NA,3000,1,NA,NA,images/tutgreenplanet.jpg,images/tutalien2,images/tutalien1,images/tutrocket2,images/tutalien1,images/nothing.png,2,practice,true,1,common,0,2020-06-11T12:22:51Z,sub5
two-step-fixation,69,372797,0.0-61.0-2.2,FALSE,FALSE,TRUE,FALSE,"""event"",""trial"",""time""
""fullscreenenter"",""5"",""19718""
","
","
","""event"",""trial"",""time""
""fullscreenenter"",""5"",""19718""
","
",NA,images/earth.jpg,NA,NA,NA,NA,NA,NA,NA,NA,NA,NA,NA,NA,NA,fixation,NA,NA,NA,NA,NA,NA,sub5
d3-animate-choice,70,376264,0.0-61.0-0.3,FALSE,FALSE,TRUE,FALSE,"""event"",""trial"",""time""
""fullscreenenter"",""5"",""19718""
","
","
","""event"",""trial"",""time""
""fullscreenenter"",""5"",""19718""
","
",1460.0700000301003,NA,48,NA,NA,3000,1,NA,NA,images/earth.jpg,images/tutrocket2,images/tutrocket1,null,images/tutrocket2,NA,1,practice,null,2,NA,NA,NA,sub5
d3-animate-choice,71,380277,0.0-61.0-1.3,FALSE,FALSE,TRUE,FALSE,"""event"",""trial"",""time""
""fullscreenenter"",""5"",""19718""
","
","
","""event"",""trial"",""time""
""fullscreenenter"",""5"",""19718""
","
",null,NA,null,NA,NA,3000,0,NA,NA,images/tutyellowplanet.jpg,images/tutalien4,images/tutalien3,images/tutrocket2,NA,NA,2,practice,false,NA,rare,0,2020-06-11T12:22:59Z,sub5
two-step-fixation,72,381280,0.0-61.0-2.3,FALSE,FALSE,TRUE,FALSE,"""event"",""trial"",""time""
""fullscreenenter"",""5"",""19718""
","
","
","""event"",""trial"",""time""
""fullscreenenter"",""5"",""19718""
","
",NA,images/earth.jpg,NA,NA,NA,NA,NA,NA,NA,NA,NA,NA,NA,NA,NA,fixation,NA,NA,NA,NA,NA,NA,sub5
d3-animate-choice,73,384357,0.0-61.0-0.4,FALSE,FALSE,TRUE,FALSE,"""event"",""trial"",""time""
""fullscreenenter"",""5"",""19718""
","
","
","""event"",""trial"",""time""
""fullscreenenter"",""5"",""19718""
","
",1070.2049999963492,NA,48,NA,NA,3000,1,NA,NA,images/earth.jpg,images/tutrocket2,images/tutrocket1,null,images/tutrocket2,NA,1,practice,null,2,NA,NA,NA,sub5
d3-animate-choice,74,386767,0.0-61.0-1.4,FALSE,FALSE,TRUE,FALSE,"""event"",""trial"",""time""
""fullscreenenter"",""5"",""19718""
","
","
","""event"",""trial"",""time""
""fullscreenenter"",""5"",""19718""
","
",403.5649998113513,NA,49,NA,NA,3000,1,NA,NA,images/tutyellowplanet.jpg,images/tutalien4,images/tutalien3,images/tutrocket2,images/tutalien3,images/nothing.png,2,practice,false,1,rare,0,2020-06-11T12:23:06Z,sub5
two-step-fixation,75,387773,0.0-61.0-2.4,FALSE,FALSE,TRUE,FALSE,"""event"",""trial"",""time""
""fullscreenenter"",""5"",""19718""
","
","
","""event"",""trial"",""time""
""fullscreenenter"",""5"",""19718""
","
",NA,images/earth.jpg,NA,NA,NA,NA,NA,NA,NA,NA,NA,NA,NA,NA,NA,fixation,NA,NA,NA,NA,NA,NA,sub5
d3-animate-choice,76,390357,0.0-61.0-0.5,FALSE,FALSE,TRUE,FALSE,"""event"",""trial"",""time""
""fullscreenenter"",""5"",""19718""
","
","
","""event"",""trial"",""time""
""fullscreenenter"",""5"",""19718""
","
",577.1699999459088,NA,48,NA,NA,3000,1,NA,NA,images/earth.jpg,images/tutrocket2,images/tutrocket1,null,images/tutrocket2,NA,1,practice,null,2,NA,NA,NA,sub5
d3-animate-choice,77,393733,0.0-61.0-1.5,FALSE,FALSE,TRUE,FALSE,"""event"",""trial"",""time""
""fullscreenenter"",""5"",""19718""
","
","
","""event"",""trial"",""time""
""fullscreenenter"",""5"",""19718""
","
",1368.914999999106,NA,49,NA,NA,3000,1,NA,NA,images/tutgreenplanet.jpg,images/tutalien2,images/tutalien1,images/tutrocket2,images/tutalien1,images/t.png,2,practice,true,1,common,1,2020-06-11T12:23:13Z,sub5
two-step-fixation,78,394744,0.0-61.0-2.5,FALSE,FALSE,TRUE,FALSE,"""event"",""trial"",""time""
""fullscreenenter"",""5"",""19718""
","
","
","""event"",""trial"",""time""
""fullscreenenter"",""5"",""19718""
","
",NA,images/earth.jpg,NA,NA,NA,NA,NA,NA,NA,NA,NA,NA,NA,NA,NA,fixation,NA,NA,NA,NA,NA,NA,sub5
d3-animate-choice,79,397170,0.0-61.0-0.6,FALSE,FALSE,TRUE,FALSE,"""event"",""trial"",""time""
""fullscreenenter"",""5"",""19718""
","
","
","""event"",""trial"",""time""
""fullscreenenter"",""5"",""19718""
","
",419.9099999386817,NA,48,NA,NA,3000,1,NA,NA,images/earth.jpg,images/tutrocket2,images/tutrocket1,null,images/tutrocket2,NA,1,practice,null,2,NA,NA,NA,sub5
d3-animate-choice,80,400191,0.0-61.0-1.6,FALSE,FALSE,TRUE,FALSE,"""event"",""trial"",""time""
""fullscreenenter"",""5"",""19718""
","
","
","""event"",""trial"",""time""
""fullscreenenter"",""5"",""19718""
","
",1015.0099999736995,NA,49,NA,NA,3000,1,NA,NA,images/tutgreenplanet.jpg,images/tutalien2,images/tutalien1,images/tutrocket2,images/tutalien1,images/nothing.png,2,practice,true,1,common,0,2020-06-11T12:23:19Z,sub5
two-step-fixation,81,401198,0.0-61.0-2.6,FALSE,FALSE,TRUE,FALSE,"""event"",""trial"",""time""
""fullscreenenter"",""5"",""19718""
","
","
","""event"",""trial"",""time""
""fullscreenenter"",""5"",""19718""
","
",NA,images/earth.jpg,NA,NA,NA,NA,NA,NA,NA,NA,NA,NA,NA,NA,NA,fixation,NA,NA,NA,NA,NA,NA,sub5
d3-animate-choice,82,403584,0.0-61.0-0.7,FALSE,FALSE,TRUE,FALSE,"""event"",""trial"",""time""
""fullscreenenter"",""5"",""19718""
","
","
","""event"",""trial"",""time""
""fullscreenenter"",""5"",""19718""
","
",379.39000013284385,NA,48,NA,NA,3000,1,NA,NA,images/earth.jpg,images/tutrocket2,images/tutrocket1,null,images/tutrocket2,NA,1,practice,null,2,NA,NA,NA,sub5
d3-animate-choice,83,406096,0.0-61.0-1.7,FALSE,FALSE,TRUE,FALSE,"""event"",""trial"",""time""
""fullscreenenter"",""5"",""19718""
","
","
","""event"",""trial"",""time""
""fullscreenenter"",""5"",""19718""
","
",505.3499999921769,NA,48,NA,NA,3000,1,NA,NA,images/tutgreenplanet.jpg,images/tutalien2,images/tutalien1,images/tutrocket2,images/tutalien2,images/nothing.png,2,practice,true,2,common,0,2020-06-11T12:23:25Z,sub5
two-step-fixation,84,407102,0.0-61.0-2.7,FALSE,FALSE,TRUE,FALSE,"""event"",""trial"",""time""
""fullscreenenter"",""5"",""19718""
","
","
","""event"",""trial"",""time""
""fullscreenenter"",""5"",""19718""
","
",NA,images/earth.jpg,NA,NA,NA,NA,NA,NA,NA,NA,NA,NA,NA,NA,NA,fixation,NA,NA,NA,NA,NA,NA,sub5
d3-animate-choice,85,409934,0.0-61.0-0.8,FALSE,FALSE,TRUE,FALSE,"""event"",""trial"",""time""
""fullscreenenter"",""5"",""19718""
","
","
","""event"",""trial"",""time""
""fullscreenenter"",""5"",""19718""
","
",825.8549999445677,NA,49,NA,NA,3000,1,NA,NA,images/earth.jpg,images/tutrocket2,images/tutrocket1,null,images/tutrocket1,NA,1,practice,null,1,NA,NA,NA,sub5
d3-animate-choice,86,412895,0.0-61.0-1.8,FALSE,FALSE,TRUE,FALSE,"""event"",""trial"",""time""
""fullscreenenter"",""5"",""19718""
","
","
","""event"",""trial"",""time""
""fullscreenenter"",""5"",""19718""
","
",954.2249999940395,NA,48,NA,NA,3000,1,NA,NA,images/tutyellowplanet.jpg,images/tutalien4,images/tutalien3,images/tutrocket1,images/tutalien4,images/t.png,2,practice,true,2,common,1,2020-06-11T12:23:32Z,sub5
two-step-fixation,87,413902,0.0-61.0-2.8,FALSE,FALSE,TRUE,FALSE,"""event"",""trial"",""time""
""fullscreenenter"",""5"",""19718""
","
","
","""event"",""trial"",""time""
""fullscreenenter"",""5"",""19718""
","
",NA,images/earth.jpg,NA,NA,NA,NA,NA,NA,NA,NA,NA,NA,NA,NA,NA,fixation,NA,NA,NA,NA,NA,NA,sub5
d3-animate-choice,88,416368,0.0-61.0-0.9,FALSE,FALSE,TRUE,FALSE,"""event"",""trial"",""time""
""fullscreenenter"",""5"",""19718""
","
","
","""event"",""trial"",""time""
""fullscreenenter"",""5"",""19718""
","
",460.07000003010035,NA,49,NA,NA,3000,1,595.9550000261515,49,images/earth.jpg,images/tutrocket2,images/tutrocket1,null,images/tutrocket1,NA,1,practice,null,1,NA,NA,NA,sub5
d3-animate-choice,89,418864,0.0-61.0-1.9,FALSE,FALSE,TRUE,FALSE,"""event"",""trial"",""time""
""fullscreenenter"",""5"",""19718""
","
","
","""event"",""trial"",""time""
""fullscreenenter"",""5"",""19718""
","
",490.6600001268089,NA,48,NA,NA,3000,1,NA,NA,images/tutyellowplanet.jpg,images/tutalien4,images/tutalien3,images/tutrocket1,images/tutalien4,images/nothing.png,2,practice,true,2,common,0,2020-06-11T12:23:38Z,sub5
two-step-fixation,90,419872,0.0-61.0-2.9,FALSE,FALSE,TRUE,FALSE,"""event"",""trial"",""time""
""fullscreenenter"",""5"",""19718""
","
","
","""event"",""trial"",""time""
""fullscreenenter"",""5"",""19718""
","
",NA,images/earth.jpg,NA,NA,NA,NA,NA,NA,NA,NA,NA,NA,NA,NA,NA,fixation,NA,NA,NA,NA,NA,NA,sub5
d3-animate-choice,91,422302,0.0-61.0-0.10,FALSE,FALSE,TRUE,FALSE,"""event"",""trial"",""time""
""fullscreenenter"",""5"",""19718""
","
","
","""event"",""trial"",""time""
""fullscreenenter"",""5"",""19718""
","
",424.8150000348687,NA,49,NA,NA,3000,1,NA,NA,images/earth.jpg,images/tutrocket2,images/tutrocket1,null,images/tutrocket1,NA,1,practice,null,1,NA,NA,NA,sub5
d3-animate-choice,92,424807,0.0-61.0-1.10,FALSE,FALSE,TRUE,FALSE,"""event"",""trial"",""time""
""fullscreenenter"",""5"",""19718""
","
","
","""event"",""trial"",""time""
""fullscreenenter"",""5"",""19718""
","
",500.9149999823421,NA,48,NA,NA,3000,1,NA,NA,images/tutyellowplanet.jpg,images/tutalien4,images/tutalien3,images/tutrocket1,images/tutalien4,images/t.png,2,practice,true,2,common,1,2020-06-11T12:23:44Z,sub5
two-step-fixation,93,425813,0.0-61.0-2.10,FALSE,FALSE,TRUE,FALSE,"""event"",""trial"",""time""
""fullscreenenter"",""5"",""19718""
","
","
","""event"",""trial"",""time""
""fullscreenenter"",""5"",""19718""
","
",NA,images/earth.jpg,NA,NA,NA,NA,NA,NA,NA,NA,NA,NA,NA,NA,NA,fixation,NA,NA,NA,NA,NA,NA,sub5
d3-animate-choice,94,428125,0.0-61.0-0.11,FALSE,FALSE,TRUE,FALSE,"""event"",""trial"",""time""
""fullscreenenter"",""5"",""19718""
","
","
","""event"",""trial"",""time""
""fullscreenenter"",""5"",""19718""
","
",305.8400000445545,NA,49,NA,NA,3000,1,NA,NA,images/earth.jpg,images/tutrocket2,images/tutrocket1,null,images/tutrocket1,NA,1,practice,null,1,NA,NA,NA,sub5
d3-animate-choice,95,431784,0.0-61.0-1.11,FALSE,FALSE,TRUE,FALSE,"""event"",""trial"",""time""
""fullscreenenter"",""5"",""19718""
","
","
","""event"",""trial"",""time""
""fullscreenenter"",""5"",""19718""
","
",1651.7600000370294,NA,49,NA,NA,3000,1,NA,NA,images/tutgreenplanet.jpg,images/tutalien2,images/tutalien1,images/tutrocket1,images/tutalien1,images/nothing.png,2,practice,false,1,rare,0,2020-06-11T12:23:51Z,sub5
two-step-fixation,96,432790,0.0-61.0-2.11,FALSE,FALSE,TRUE,FALSE,"""event"",""trial"",""time""
""fullscreenenter"",""5"",""19718""
","
","
","""event"",""trial"",""time""
""fullscreenenter"",""5"",""19718""
","
",NA,images/earth.jpg,NA,NA,NA,NA,NA,NA,NA,NA,NA,NA,NA,NA,NA,fixation,NA,NA,NA,NA,NA,NA,sub5
d3-animate-choice,97,435366,0.0-61.0-0.12,FALSE,FALSE,TRUE,FALSE,"""event"",""trial"",""time""
""fullscreenenter"",""5"",""19718""
","
","
","""event"",""trial"",""time""
""fullscreenenter"",""5"",""19718""
","
",569.2000000271946,NA,48,NA,NA,3000,1,NA,NA,images/earth.jpg,images/tutrocket2,images/tutrocket1,null,images/tutrocket2,NA,1,practice,null,2,NA,NA,NA,sub5
d3-animate-choice,98,437933,0.0-61.0-1.12,FALSE,FALSE,TRUE,FALSE,"""event"",""trial"",""time""
""fullscreenenter"",""5"",""19718""
","
","
","""event"",""trial"",""time""
""fullscreenenter"",""5"",""19718""
","
",561.7149998433888,NA,48,NA,NA,3000,1,NA,NA,images/tutyellowplanet.jpg,images/tutalien4,images/tutalien3,images/tutrocket2,images/tutalien4,images/t.png,2,practice,false,2,rare,1,2020-06-11T12:23:57Z,sub5
two-step-fixation,99,438940,0.0-61.0-2.12,FALSE,FALSE,TRUE,FALSE,"""event"",""trial"",""time""
""fullscreenenter"",""5"",""19718""
","
","
","""event"",""trial"",""time""
""fullscreenenter"",""5"",""19718""
","
",NA,images/earth.jpg,NA,NA,NA,NA,NA,NA,NA,NA,NA,NA,NA,NA,NA,fixation,NA,NA,NA,NA,NA,NA,sub5
d3-animate-choice,100,441310,0.0-61.0-0.13,FALSE,FALSE,TRUE,FALSE,"""event"",""trial"",""time""
""fullscreenenter"",""5"",""19718""
","
","
","""event"",""trial"",""time""
""fullscreenenter"",""5"",""19718""
","
",363.33499988541007,NA,49,NA,NA,3000,1,NA,NA,images/earth.jpg,images/tutrocket2,images/tutrocket1,null,images/tutrocket1,NA,1,practice,null,1,NA,NA,NA,sub5
d3-animate-choice,101,445118,0.0-61.0-1.13,FALSE,FALSE,TRUE,FALSE,"""event"",""trial"",""time""
""fullscreenenter"",""5"",""19718""
","
","
","""event"",""trial"",""time""
""fullscreenenter"",""5"",""19718""
","
",1802.0049999468029,NA,48,NA,NA,3000,1,NA,NA,images/tutyellowplanet.jpg,images/tutalien4,images/tutalien3,images/tutrocket1,images/tutalien4,images/t.png,2,practice,true,2,common,1,2020-06-11T12:24:04Z,sub5
two-step-fixation,102,446124,0.0-61.0-2.13,FALSE,FALSE,TRUE,FALSE,"""event"",""trial"",""time""
""fullscreenenter"",""5"",""19718""
","
","
","""event"",""trial"",""time""
""fullscreenenter"",""5"",""19718""
","
",NA,images/earth.jpg,NA,NA,NA,NA,NA,NA,NA,NA,NA,NA,NA,NA,NA,fixation,NA,NA,NA,NA,NA,NA,sub5
d3-animate-choice,103,449102,0.0-61.0-0.14,FALSE,FALSE,TRUE,FALSE,"""event"",""trial"",""time""
""fullscreenenter"",""5"",""19718""
","
","
","""event"",""trial"",""time""
""fullscreenenter"",""5"",""19718""
","
",970.1249999925494,NA,48,NA,NA,3000,1,NA,NA,images/earth.jpg,images/tutrocket2,images/tutrocket1,null,images/tutrocket2,NA,1,practice,null,2,NA,NA,NA,sub5
d3-animate-choice,104,451709,0.0-61.0-1.14,FALSE,FALSE,TRUE,FALSE,"""event"",""trial"",""time""
""fullscreenenter"",""5"",""19718""
","
","
","""event"",""trial"",""time""
""fullscreenenter"",""5"",""19718""
","
",601.0499999392778,NA,49,NA,NA,3000,1,NA,NA,images/tutgreenplanet.jpg,images/tutalien2,images/tutalien1,images/tutrocket2,images/tutalien1,images/nothing.png,2,practice,true,1,common,0,2020-06-11T12:24:11Z,sub5
two-step-fixation,105,452716,0.0-61.0-2.14,FALSE,FALSE,TRUE,FALSE,"""event"",""trial"",""time""
""fullscreenenter"",""5"",""19718""
","
","
","""event"",""trial"",""time""
""fullscreenenter"",""5"",""19718""
","
",NA,images/earth.jpg,NA,NA,NA,NA,NA,NA,NA,NA,NA,NA,NA,NA,NA,fixation,NA,NA,NA,NA,NA,NA,sub5
d3-animate-choice,106,455273,0.0-61.0-0.15,FALSE,FALSE,TRUE,FALSE,"""event"",""trial"",""time""
""fullscreenenter"",""5"",""19718""
","
","
","""event"",""trial"",""time""
""fullscreenenter"",""5"",""19718""
","
",547.0999998506159,NA,48,NA,NA,3000,1,NA,NA,images/earth.jpg,images/tutrocket2,images/tutrocket1,null,images/tutrocket2,NA,1,practice,null,2,NA,NA,NA,sub5
d3-animate-choice,107,457968,0.0-61.0-1.15,FALSE,FALSE,TRUE,FALSE,"""event"",""trial"",""time""
""fullscreenenter"",""5"",""19718""
","
","
","""event"",""trial"",""time""
""fullscreenenter"",""5"",""19718""
","
",688.8800000306219,NA,49,NA,NA,3000,1,NA,NA,images/tutgreenplanet.jpg,images/tutalien2,images/tutalien1,images/tutrocket2,images/tutalien1,images/nothing.png,2,practice,true,1,common,0,2020-06-11T12:24:17Z,sub5
two-step-fixation,108,458974,0.0-61.0-2.15,FALSE,FALSE,TRUE,FALSE,"""event"",""trial"",""time""
""fullscreenenter"",""5"",""19718""
","
","
","""event"",""trial"",""time""
""fullscreenenter"",""5"",""19718""
","
",NA,images/earth.jpg,NA,NA,NA,NA,NA,NA,NA,NA,NA,NA,NA,NA,NA,fixation,NA,NA,NA,NA,NA,NA,sub5
d3-animate-choice,109,461312,0.0-61.0-0.16,FALSE,FALSE,TRUE,FALSE,"""event"",""trial"",""time""
""fullscreenenter"",""5"",""19718""
","
","
","""event"",""trial"",""time""
""fullscreenenter"",""5"",""19718""
","
",331.37000002898276,NA,49,NA,NA,3000,1,NA,NA,images/earth.jpg,images/tutrocket2,images/tutrocket1,null,images/tutrocket1,NA,1,practice,null,1,NA,NA,NA,sub5
d3-animate-choice,110,464071,0.0-61.0-1.16,FALSE,FALSE,TRUE,FALSE,"""event"",""trial"",""time""
""fullscreenenter"",""5"",""19718""
","
","
","""event"",""trial"",""time""
""fullscreenenter"",""5"",""19718""
","
",753.3149998635054,NA,48,NA,NA,3000,1,NA,NA,images/tutyellowplanet.jpg,images/tutalien4,images/tutalien3,images/tutrocket1,images/tutalien4,images/t.png,2,practice,true,2,common,1,2020-06-11T12:24:23Z,sub5
two-step-fixation,111,465077,0.0-61.0-2.16,FALSE,FALSE,TRUE,FALSE,"""event"",""trial"",""time""
""fullscreenenter"",""5"",""19718""
","
","
","""event"",""trial"",""time""
""fullscreenenter"",""5"",""19718""
","
",NA,images/earth.jpg,NA,NA,NA,NA,NA,NA,NA,NA,NA,NA,NA,NA,NA,fixation,NA,NA,NA,NA,NA,NA,sub5
d3-animate-choice,112,467426,0.0-61.0-0.17,FALSE,FALSE,TRUE,FALSE,"""event"",""trial"",""time""
""fullscreenenter"",""5"",""19718""
","
","
","""event"",""trial"",""time""
""fullscreenenter"",""5"",""19718""
","
",342.1199999283999,NA,49,NA,NA,3000,1,NA,NA,images/earth.jpg,images/tutrocket2,images/tutrocket1,null,images/tutrocket1,NA,1,practice,null,1,NA,NA,NA,sub5
d3-animate-choice,113,469855,0.0-61.0-1.17,FALSE,FALSE,TRUE,FALSE,"""event"",""trial"",""time""
""fullscreenenter"",""5"",""19718""
","
","
","""event"",""trial"",""time""
""fullscreenenter"",""5"",""19718""
","
",423.1200001668185,NA,48,NA,NA,3000,1,NA,NA,images/tutyellowplanet.jpg,images/tutalien4,images/tutalien3,images/tutrocket1,images/tutalien4,images/nothing.png,2,practice,true,2,common,0,2020-06-11T12:24:29Z,sub5
two-step-fixation,114,470862,0.0-61.0-2.17,FALSE,FALSE,TRUE,FALSE,"""event"",""trial"",""time""
""fullscreenenter"",""5"",""19718""
","
","
","""event"",""trial"",""time""
""fullscreenenter"",""5"",""19718""
","
",NA,images/earth.jpg,NA,NA,NA,NA,NA,NA,NA,NA,NA,NA,NA,NA,NA,fixation,NA,NA,NA,NA,NA,NA,sub5
d3-animate-choice,115,473191,0.0-61.0-0.18,FALSE,FALSE,TRUE,FALSE,"""event"",""trial"",""time""
""fullscreenenter"",""5"",""19718""
","
","
","""event"",""trial"",""time""
""fullscreenenter"",""5"",""19718""
","
",322.2749999258667,NA,49,NA,NA,3000,1,NA,NA,images/earth.jpg,images/tutrocket2,images/tutrocket1,null,images/tutrocket1,NA,1,practice,null,1,NA,NA,NA,sub5
d3-animate-choice,116,476095,0.0-61.0-1.18,FALSE,FALSE,TRUE,FALSE,"""event"",""trial"",""time""
""fullscreenenter"",""5"",""19718""
","
","
","""event"",""trial"",""time""
""fullscreenenter"",""5"",""19718""
","
",897.6350000593811,NA,48,NA,NA,3000,1,NA,NA,images/tutyellowplanet.jpg,images/tutalien4,images/tutalien3,images/tutrocket1,images/tutalien4,images/nothing.png,2,practice,true,2,common,0,2020-06-11T12:24:35Z,sub5
two-step-fixation,117,477102,0.0-61.0-2.18,FALSE,FALSE,TRUE,FALSE,"""event"",""trial"",""time""
""fullscreenenter"",""5"",""19718""
","
","
","""event"",""trial"",""time""
""fullscreenenter"",""5"",""19718""
","
",NA,images/earth.jpg,NA,NA,NA,NA,NA,NA,NA,NA,NA,NA,NA,NA,NA,fixation,NA,NA,NA,NA,NA,NA,sub5
d3-animate-choice,118,479431,0.0-61.0-0.19,FALSE,FALSE,TRUE,FALSE,"""event"",""trial"",""time""
""fullscreenenter"",""5"",""19718""
","
","
","""event"",""trial"",""time""
""fullscreenenter"",""5"",""19718""
","
",322.36999995075166,NA,49,NA,NA,3000,1,NA,NA,images/earth.jpg,images/tutrocket2,images/tutrocket1,null,images/tutrocket1,NA,1,practice,null,1,NA,NA,NA,sub5
d3-animate-choice,119,481903,0.0-61.0-1.19,FALSE,FALSE,TRUE,FALSE,"""event"",""trial"",""time""
""fullscreenenter"",""5"",""19718""
","
","
","""event"",""trial"",""time""
""fullscreenenter"",""5"",""19718""
","
",465.4900000896305,NA,48,NA,NA,3000,1,NA,NA,images/tutyellowplanet.jpg,images/tutalien4,images/tutalien3,images/tutrocket1,images/tutalien4,images/nothing.png,2,practice,true,2,common,0,2020-06-11T12:24:41Z,sub5
two-step-fixation,120,482910,0.0-61.0-2.19,FALSE,FALSE,TRUE,FALSE,"""event"",""trial"",""time""
""fullscreenenter"",""5"",""19718""
","
","
","""event"",""trial"",""time""
""fullscreenenter"",""5"",""19718""
","
",NA,images/earth.jpg,NA,NA,NA,NA,NA,NA,NA,NA,NA,NA,NA,NA,NA,fixation,NA,NA,NA,NA,NA,NA,sub5
d3-instructions,121,486229,0.0-62.0,FALSE,FALSE,TRUE,FALSE,"""event"",""trial"",""time""
""fullscreenenter"",""5"",""19718""
","
","
","""event"",""trial"",""time""
""fullscreenenter"",""5"",""19718""
","
",NA,NA,NA,NA,NA,NA,NA,NA,NA,NA,NA,NA,NA,NA,NA,NA,NA,NA,NA,NA,NA,NA,sub5
audio-keyboard-response,122,489005,0.0-63.0,FALSE,FALSE,TRUE,FALSE,"""event"",""trial"",""time""
""fullscreenenter"",""5"",""19718""
","
","
","""event"",""trial"",""time""
""fullscreenenter"",""5"",""19718""
","
",2781,audio/instructions/treasure_feedback.wav,32,NA,NA,NA,NA,NA,NA,NA,NA,NA,NA,NA,NA,NA,NA,NA,NA,NA,NA,NA,sub5
d3-instructions,123,500420,0.0-64.0,FALSE,FALSE,TRUE,FALSE,"""event"",""trial"",""time""
""fullscreenenter"",""5"",""19718""
","
","
","""event"",""trial"",""time""
""fullscreenenter"",""5"",""19718""
","
",NA,NA,NA,NA,NA,NA,NA,NA,NA,NA,NA,NA,NA,NA,NA,NA,NA,NA,NA,NA,NA,NA,sub5
d3-instructions,124,510131,0.0-65.0,FALSE,FALSE,TRUE,FALSE,"""event"",""trial"",""time""
""fullscreenenter"",""5"",""19718""
","
","
","""event"",""trial"",""time""
""fullscreenenter"",""5"",""19718""
","
",NA,NA,NA,NA,NA,NA,NA,NA,NA,NA,NA,NA,NA,NA,NA,NA,NA,NA,NA,NA,NA,NA,sub5
d3-instructions,125,533270,0.0-66.0,FALSE,FALSE,TRUE,FALSE,"""event"",""trial"",""time""
""fullscreenenter"",""5"",""19718""
","
","
","""event"",""trial"",""time""
""fullscreenenter"",""5"",""19718""
","
",NA,NA,NA,NA,NA,NA,NA,NA,NA,NA,NA,NA,NA,NA,NA,NA,NA,NA,NA,NA,NA,NA,sub5
d3-instructions,126,544261,0.0-67.0,FALSE,FALSE,TRUE,FALSE,"""event"",""trial"",""time""
""fullscreenenter"",""5"",""19718""
","
","
","""event"",""trial"",""time""
""fullscreenenter"",""5"",""19718""
","
",NA,NA,NA,NA,NA,NA,NA,NA,NA,NA,NA,NA,NA,NA,NA,NA,NA,NA,NA,NA,NA,NA,sub5
d3-instructions,127,547509,0.0-68.0,FALSE,FALSE,TRUE,FALSE,"""event"",""trial"",""time""
""fullscreenenter"",""5"",""19718""
","
","
","""event"",""trial"",""time""
""fullscreenenter"",""5"",""19718""
","
",NA,NA,NA,NA,NA,NA,NA,NA,NA,NA,NA,NA,NA,NA,NA,NA,NA,NA,NA,NA,NA,NA,sub5
instructions-quiz,128,550238,0.0-69.0,FALSE,FALSE,TRUE,FALSE,"""event"",""trial"",""time""
""fullscreenenter"",""5"",""19718""
","
","
","""event"",""trial"",""time""
""fullscreenenter"",""5"",""19718""
","
",2724.4900001678616,audio/quiz/Q1_Prompt.wav,NA,1,NA,NA,NA,NA,NA,NA,NA,NA,NA,NA,NA,NA,NA,NA,NA,NA,NA,NA,sub5
audio-keyboard-response,129,559404,0.0-70.0,FALSE,FALSE,TRUE,FALSE,"""event"",""trial"",""time""
""fullscreenenter"",""5"",""19718""
","
","
","""event"",""trial"",""time""
""fullscreenenter"",""5"",""19718""
","
",null,audio/quiz/Q1_Correct.wav,null,NA,NA,NA,NA,NA,NA,NA,NA,NA,NA,NA,NA,NA,NA,NA,NA,NA,NA,NA,sub5
instructions-quiz,130,565493,0.0-71.0,FALSE,FALSE,TRUE,FALSE,"""event"",""trial"",""time""
""fullscreenenter"",""5"",""19718""
","
","
","""event"",""trial"",""time""
""fullscreenenter"",""5"",""19718""
","
",6086.480000056326,audio/quiz/Q2_Prompt.wav,NA,0,NA,NA,NA,NA,NA,NA,NA,NA,NA,NA,NA,NA,NA,NA,NA,NA,NA,NA,sub5
audio-keyboard-response,131,578365,0.0-72.0,FALSE,FALSE,TRUE,FALSE,"""event"",""trial"",""time""
""fullscreenenter"",""5"",""19718""
","
","
","""event"",""trial"",""time""
""fullscreenenter"",""5"",""19718""
","
",null,audio/quiz/Q2_Correct.wav,null,NA,NA,NA,NA,NA,NA,NA,NA,NA,NA,NA,NA,NA,NA,NA,NA,NA,NA,NA,sub5
instructions-quiz,132,581103,0.0-73.0,FALSE,FALSE,TRUE,FALSE,"""event"",""trial"",""time""
""fullscreenenter"",""5"",""19718""
","
","
","""event"",""trial"",""time""
""fullscreenenter"",""5"",""19718""
","
",2735.744999954477,audio/quiz/Q3_Prompt.wav,NA,1,NA,NA,NA,NA,NA,NA,NA,NA,NA,NA,NA,NA,NA,NA,NA,NA,NA,NA,sub5
audio-keyboard-response,133,586905,0.0-74.0,FALSE,FALSE,TRUE,FALSE,"""event"",""trial"",""time""
""fullscreenenter"",""5"",""19718""
","
","
","""event"",""trial"",""time""
""fullscreenenter"",""5"",""19718""
","
",null,audio/quiz/Q3_Correct.wav,null,NA,NA,NA,NA,NA,NA,NA,NA,NA,NA,NA,NA,NA,NA,NA,NA,NA,NA,NA,sub5
d3-instructions,134,592573,0.0-75.0,FALSE,FALSE,TRUE,FALSE,"""event"",""trial"",""time""
""fullscreenenter"",""5"",""19718""
","
","
","""event"",""trial"",""time""
""fullscreenenter"",""5"",""19718""
","
",NA,NA,NA,NA,NA,NA,NA,NA,NA,NA,NA,NA,NA,NA,NA,NA,NA,NA,NA,NA,NA,NA,sub5
d3-animate-choice,135,595919,0.0-76.0-0.0,FALSE,FALSE,TRUE,FALSE,"""event"",""trial"",""time""
""fullscreenenter"",""5"",""19718""
","
","
","""event"",""trial"",""time""
""fullscreenenter"",""5"",""19718""
","
",1341.9349999167025,NA,48,NA,NA,3000,1,NA,NA,images/earth.jpg,images/rocket1,images/rocket2,null,images/rocket1,NA,1,real,null,2,NA,NA,NA,sub5
d3-animate-choice,136,598622,0.0-76.0-1.0,FALSE,FALSE,TRUE,FALSE,"""event"",""trial"",""time""
""fullscreenenter"",""5"",""19718""
","
","
","""event"",""trial"",""time""
""fullscreenenter"",""5"",""19718""
","
",696.9800000078976,NA,49,NA,NA,3000,1,NA,NA,images/purpleplanet.jpg,images/alien4,images/alien3,images/rocket1,images/alien3,images/t.png,2,real,true,1,common,1,2020-06-11T12:26:38Z,sub5
two-step-fixation,137,599629,0.0-76.0-2.0,FALSE,FALSE,TRUE,FALSE,"""event"",""trial"",""time""
""fullscreenenter"",""5"",""19718""
","
","
","""event"",""trial"",""time""
""fullscreenenter"",""5"",""19718""
","
",NA,images/earth.jpg,NA,NA,NA,NA,NA,NA,NA,NA,NA,NA,NA,NA,NA,fixation,NA,NA,NA,NA,NA,NA,sub5
d3-animate-choice,138,602310,0.0-76.0-0.1,FALSE,FALSE,TRUE,FALSE,"""event"",""trial"",""time""
""fullscreenenter"",""5"",""19718""
","
","
","""event"",""trial"",""time""
""fullscreenenter"",""5"",""19718""
","
",674.1900001652539,NA,48,NA,NA,3000,1,NA,NA,images/earth.jpg,images/rocket1,images/rocket2,null,images/rocket1,NA,1,real,null,2,NA,NA,NA,sub5
d3-animate-choice,139,604984,0.0-76.0-1.1,FALSE,FALSE,TRUE,FALSE,"""event"",""trial"",""time""
""fullscreenenter"",""5"",""19718""
","
","
","""event"",""trial"",""time""
""fullscreenenter"",""5"",""19718""
","
",667.7550000604242,NA,49,NA,NA,3000,1,NA,NA,images/purpleplanet.jpg,images/alien4,images/alien3,images/rocket1,images/alien3,images/nothing.png,2,real,true,1,common,0,2020-06-11T12:26:44Z,sub5
two-step-fixation,140,605990,0.0-76.0-2.1,FALSE,FALSE,TRUE,FALSE,"""event"",""trial"",""time""
""fullscreenenter"",""5"",""19718""
","
","
","""event"",""trial"",""time""
""fullscreenenter"",""5"",""19718""
","
",NA,images/earth.jpg,NA,NA,NA,NA,NA,NA,NA,NA,NA,NA,NA,NA,NA,fixation,NA,NA,NA,NA,NA,NA,sub5
d3-animate-choice,141,608061,0.0-76.0-0.2,FALSE,FALSE,TRUE,FALSE,"""event"",""trial"",""time""
""fullscreenenter"",""5"",""19718""
","
","
","""event"",""trial"",""time""
""fullscreenenter"",""5"",""19718""
","
",64.66499995440245,NA,48,NA,NA,3000,1,NA,NA,images/earth.jpg,images/rocket1,images/rocket2,null,images/rocket1,NA,1,real,null,2,NA,NA,NA,sub5
d3-animate-choice,142,610445,0.0-76.0-1.2,FALSE,FALSE,TRUE,FALSE,"""event"",""trial"",""time""
""fullscreenenter"",""5"",""19718""
","
","
","""event"",""trial"",""time""
""fullscreenenter"",""5"",""19718""
","
",377.9400000348687,NA,49,NA,NA,3000,1,NA,NA,images/purpleplanet.jpg,images/alien4,images/alien3,images/rocket1,images/alien3,images/nothing.png,2,real,true,1,common,0,2020-06-11T12:26:50Z,sub5
two-step-fixation,143,611451,0.0-76.0-2.2,FALSE,FALSE,TRUE,FALSE,"""event"",""trial"",""time""
""fullscreenenter"",""5"",""19718""
","
","
","""event"",""trial"",""time""
""fullscreenenter"",""5"",""19718""
","
",NA,images/earth.jpg,NA,NA,NA,NA,NA,NA,NA,NA,NA,NA,NA,NA,NA,fixation,NA,NA,NA,NA,NA,NA,sub5
d3-animate-choice,144,613766,0.0-76.0-0.3,FALSE,FALSE,TRUE,FALSE,"""event"",""trial"",""time""
""fullscreenenter"",""5"",""19718""
","
","
","""event"",""trial"",""time""
""fullscreenenter"",""5"",""19718""
","
",307.35499993897974,NA,49,NA,NA,3000,1,NA,NA,images/earth.jpg,images/rocket1,images/rocket2,null,images/rocket2,NA,1,real,null,1,NA,NA,NA,sub5
d3-animate-choice,145,616583,0.0-76.0-1.3,FALSE,FALSE,TRUE,FALSE,"""event"",""trial"",""time""
""fullscreenenter"",""5"",""19718""
","
","
","""event"",""trial"",""time""
""fullscreenenter"",""5"",""19718""
","
",811.6649999283254,NA,48,NA,NA,3000,1,NA,NA,images/purpleplanet.jpg,images/alien4,images/alien3,images/rocket2,images/alien4,images/t.png,2,real,false,2,rare,1,2020-06-11T12:26:56Z,sub5
two-step-fixation,146,617590,0.0-76.0-2.3,FALSE,FALSE,TRUE,FALSE,"""event"",""trial"",""time""
""fullscreenenter"",""5"",""19718""
","
","
","""event"",""trial"",""time""
""fullscreenenter"",""5"",""19718""
","
",NA,images/earth.jpg,NA,NA,NA,NA,NA,NA,NA,NA,NA,NA,NA,NA,NA,fixation,NA,NA,NA,NA,NA,NA,sub5
d3-animate-choice,147,620182,0.0-76.0-0.4,FALSE,FALSE,TRUE,FALSE,"""event"",""trial"",""time""
""fullscreenenter"",""5"",""19718""
","
","
","""event"",""trial"",""time""
""fullscreenenter"",""5"",""19718""
","
",584.1250000521541,NA,49,NA,NA,3000,1,NA,NA,images/earth.jpg,images/rocket1,images/rocket2,null,images/rocket2,NA,1,real,null,1,NA,NA,NA,sub5
d3-animate-choice,148,623438,0.0-76.0-1.4,FALSE,FALSE,TRUE,FALSE,"""event"",""trial"",""time""
""fullscreenenter"",""5"",""19718""
","
","
","""event"",""trial"",""time""
""fullscreenenter"",""5"",""19718""
","
",1249.115000013262,NA,48,NA,NA,3000,1,NA,NA,images/redplanet1.jpg,images/alien2,images/alien1,images/rocket2,images/alien2,images/nothing.png,2,real,true,2,common,0,2020-06-11T12:27:03Z,sub5
two-step-fixation,149,624444,0.0-76.0-2.4,FALSE,FALSE,TRUE,FALSE,"""event"",""trial"",""time""
""fullscreenenter"",""5"",""19718""
","
","
","""event"",""trial"",""time""
""fullscreenenter"",""5"",""19718""
","
",NA,images/earth.jpg,NA,NA,NA,NA,NA,NA,NA,NA,NA,NA,NA,NA,NA,fixation,NA,NA,NA,NA,NA,NA,sub5
d3-animate-choice,150,626934,0.0-76.0-0.5,FALSE,FALSE,TRUE,FALSE,"""event"",""trial"",""time""
""fullscreenenter"",""5"",""19718""
","
","
","""event"",""trial"",""time""
""fullscreenenter"",""5"",""19718""
","
",483.0350000411272,NA,48,NA,NA,3000,1,NA,NA,images/earth.jpg,images/rocket1,images/rocket2,null,images/rocket1,NA,1,real,null,2,NA,NA,NA,sub5
d3-animate-choice,151,629876,0.0-76.0-1.5,FALSE,FALSE,TRUE,FALSE,"""event"",""trial"",""time""
""fullscreenenter"",""5"",""19718""
","
","
","""event"",""trial"",""time""
""fullscreenenter"",""5"",""19718""
","
",935.7750001363456,NA,48,NA,NA,3000,1,NA,NA,images/purpleplanet.jpg,images/alien4,images/alien3,images/rocket1,images/alien4,images/t.png,2,real,true,2,common,1,2020-06-11T12:27:09Z,sub5
two-step-fixation,152,630884,0.0-76.0-2.5,FALSE,FALSE,TRUE,FALSE,"""event"",""trial"",""time""
""fullscreenenter"",""5"",""19718""
","
","
","""event"",""trial"",""time""
""fullscreenenter"",""5"",""19718""
","
",NA,images/earth.jpg,NA,NA,NA,NA,NA,NA,NA,NA,NA,NA,NA,NA,NA,fixation,NA,NA,NA,NA,NA,NA,sub5
d3-animate-choice,153,633157,0.0-76.0-0.6,FALSE,FALSE,TRUE,FALSE,"""event"",""trial"",""time""
""fullscreenenter"",""5"",""19718""
","
","
","""event"",""trial"",""time""
""fullscreenenter"",""5"",""19718""
","
",266.30000001750886,NA,48,NA,NA,3000,1,NA,NA,images/earth.jpg,images/rocket1,images/rocket2,null,images/rocket1,NA,1,real,null,2,NA,NA,NA,sub5
d3-animate-choice,154,635816,0.0-76.0-1.6,FALSE,FALSE,TRUE,FALSE,"""event"",""trial"",""time""
""fullscreenenter"",""5"",""19718""
","
","
","""event"",""trial"",""time""
""fullscreenenter"",""5"",""19718""
","
",649.4050000328571,NA,48,NA,NA,3000,1,NA,NA,images/purpleplanet.jpg,images/alien4,images/alien3,images/rocket1,images/alien4,images/nothing.png,2,real,true,2,common,0,2020-06-11T12:27:15Z,sub5
two-step-fixation,155,636823,0.0-76.0-2.6,FALSE,FALSE,TRUE,FALSE,"""event"",""trial"",""time""
""fullscreenenter"",""5"",""19718""
","
","
","""event"",""trial"",""time""
""fullscreenenter"",""5"",""19718""
","
",NA,images/earth.jpg,NA,NA,NA,NA,NA,NA,NA,NA,NA,NA,NA,NA,NA,fixation,NA,NA,NA,NA,NA,NA,sub5
d3-animate-choice,156,638872,0.0-76.0-0.7,FALSE,FALSE,TRUE,FALSE,"""event"",""trial"",""time""
""fullscreenenter"",""5"",""19718""
","
","
","""event"",""trial"",""time""
""fullscreenenter"",""5"",""19718""
","
",42.240000097081065,NA,48,NA,NA,3000,1,NA,NA,images/earth.jpg,images/rocket1,images/rocket2,null,images/rocket1,NA,1,real,null,2,NA,NA,NA,sub5
d3-animate-choice,157,641487,0.0-76.0-1.7,FALSE,FALSE,TRUE,FALSE,"""event"",""trial"",""time""
""fullscreenenter"",""5"",""19718""
","
","
","""event"",""trial"",""time""
""fullscreenenter"",""5"",""19718""
","
",608.9499997906387,NA,48,NA,NA,3000,1,NA,NA,images/purpleplanet.jpg,images/alien4,images/alien3,images/rocket1,images/alien4,images/t.png,2,real,true,2,common,1,2020-06-11T12:27:21Z,sub5
two-step-fixation,158,642494,0.0-76.0-2.7,FALSE,FALSE,TRUE,FALSE,"""event"",""trial"",""time""
""fullscreenenter"",""5"",""19718""
","
","
","""event"",""trial"",""time""
""fullscreenenter"",""5"",""19718""
","
",NA,images/earth.jpg,NA,NA,NA,NA,NA,NA,NA,NA,NA,NA,NA,NA,NA,fixation,NA,NA,NA,NA,NA,NA,sub5
d3-animate-choice,159,644848,0.0-76.0-0.8,FALSE,FALSE,TRUE,FALSE,"""event"",""trial"",""time""
""fullscreenenter"",""5"",""19718""
","
","
","""event"",""trial"",""time""
""fullscreenenter"",""5"",""19718""
","
",346.9150001183152,NA,48,NA,NA,3000,1,NA,NA,images/earth.jpg,images/rocket1,images/rocket2,null,images/rocket1,NA,1,real,null,2,NA,NA,NA,sub5
d3-animate-choice,160,648297,0.0-76.0-1.8,FALSE,FALSE,TRUE,FALSE,"""event"",""trial"",""time""
""fullscreenenter"",""5"",""19718""
","
","
","""event"",""trial"",""time""
""fullscreenenter"",""5"",""19718""
","
",1442.4850000068545,NA,49,NA,NA,3000,1,NA,NA,images/redplanet1.jpg,images/alien2,images/alien1,images/rocket1,images/alien1,images/t.png,2,real,false,1,rare,1,2020-06-11T12:27:27Z,sub5
two-step-fixation,161,649304,0.0-76.0-2.8,FALSE,FALSE,TRUE,FALSE,"""event"",""trial"",""time""
""fullscreenenter"",""5"",""19718""
","
","
","""event"",""trial"",""time""
""fullscreenenter"",""5"",""19718""
","
",NA,images/earth.jpg,NA,NA,NA,NA,NA,NA,NA,NA,NA,NA,NA,NA,NA,fixation,NA,NA,NA,NA,NA,NA,sub5
d3-animate-choice,162,651774,0.0-76.0-0.9,FALSE,FALSE,TRUE,FALSE,"""event"",""trial"",""time""
""fullscreenenter"",""5"",""19718""
","
","
","""event"",""trial"",""time""
""fullscreenenter"",""5"",""19718""
","
",463.74500007368624,NA,49,NA,NA,3000,1,NA,NA,images/earth.jpg,images/rocket1,images/rocket2,null,images/rocket2,NA,1,real,null,1,NA,NA,NA,sub5
d3-animate-choice,163,654286,0.0-76.0-1.9,FALSE,FALSE,TRUE,FALSE,"""event"",""trial"",""time""
""fullscreenenter"",""5"",""19718""
","
","
","""event"",""trial"",""time""
""fullscreenenter"",""5"",""19718""
","
",506.0550000052899,NA,49,NA,NA,3000,1,NA,NA,images/redplanet1.jpg,images/alien2,images/alien1,images/rocket2,images/alien1,images/t.png,2,real,true,1,common,1,2020-06-11T12:27:33Z,sub5
two-step-fixation,164,655293,0.0-76.0-2.9,FALSE,FALSE,TRUE,FALSE,"""event"",""trial"",""time""
""fullscreenenter"",""5"",""19718""
","
","
","""event"",""trial"",""time""
""fullscreenenter"",""5"",""19718""
","
",NA,images/earth.jpg,NA,NA,NA,NA,NA,NA,NA,NA,NA,NA,NA,NA,NA,fixation,NA,NA,NA,NA,NA,NA,sub5
d3-animate-choice,165,657311,0.0-76.0-0.10,FALSE,FALSE,TRUE,FALSE,"""event"",""trial"",""time""
""fullscreenenter"",""5"",""19718""
","
","
","""event"",""trial"",""time""
""fullscreenenter"",""5"",""19718""
","
",10.755000170320272,NA,49,NA,NA,3000,1,NA,NA,images/earth.jpg,images/rocket1,images/rocket2,null,images/rocket2,NA,1,real,null,1,NA,NA,NA,sub5
d3-animate-choice,166,659625,0.0-76.0-1.10,FALSE,FALSE,TRUE,FALSE,"""event"",""trial"",""time""
""fullscreenenter"",""5"",""19718""
","
","
","""event"",""trial"",""time""
""fullscreenenter"",""5"",""19718""
","
",307.10499989800155,NA,49,NA,NA,3000,1,NA,NA,images/redplanet1.jpg,images/alien2,images/alien1,images/rocket2,images/alien1,images/nothing.png,2,real,true,1,common,0,2020-06-11T12:27:39Z,sub5
two-step-fixation,167,660631,0.0-76.0-2.10,FALSE,FALSE,TRUE,FALSE,"""event"",""trial"",""time""
""fullscreenenter"",""5"",""19718""
","
","
","""event"",""trial"",""time""
""fullscreenenter"",""5"",""19718""
","
",NA,images/earth.jpg,NA,NA,NA,NA,NA,NA,NA,NA,NA,NA,NA,NA,NA,fixation,NA,NA,NA,NA,NA,NA,sub5
d3-animate-choice,168,662942,0.0-76.0-0.11,FALSE,FALSE,TRUE,FALSE,"""event"",""trial"",""time""
""fullscreenenter"",""5"",""19718""
","
","
","""event"",""trial"",""time""
""fullscreenenter"",""5"",""19718""
","
",304.7149998601526,NA,48,NA,NA,3000,1,NA,NA,images/earth.jpg,images/rocket1,images/rocket2,null,images/rocket1,NA,1,real,null,2,NA,NA,NA,sub5
d3-animate-choice,169,665366,0.0-76.0-1.11,FALSE,FALSE,TRUE,FALSE,"""event"",""trial"",""time""
""fullscreenenter"",""5"",""19718""
","
","
","""event"",""trial"",""time""
""fullscreenenter"",""5"",""19718""
","
",417.8499998524785,NA,48,NA,NA,3000,1,NA,NA,images/purpleplanet.jpg,images/alien4,images/alien3,images/rocket1,images/alien4,images/nothing.png,2,real,true,2,common,0,2020-06-11T12:27:45Z,sub5
two-step-fixation,170,666372,0.0-76.0-2.11,FALSE,FALSE,TRUE,FALSE,"""event"",""trial"",""time""
""fullscreenenter"",""5"",""19718""
","
","
","""event"",""trial"",""time""
""fullscreenenter"",""5"",""19718""
","
",NA,images/earth.jpg,NA,NA,NA,NA,NA,NA,NA,NA,NA,NA,NA,NA,NA,fixation,NA,NA,NA,NA,NA,NA,sub5
d3-animate-choice,171,668379,0.0-76.0-0.12,FALSE,FALSE,TRUE,FALSE,"""event"",""trial"",""time""
""fullscreenenter"",""5"",""19718""
","
","
","""event"",""trial"",""time""
""fullscreenenter"",""5"",""19718""
","
",0.38499990478157997,NA,49,NA,NA,3000,1,NA,NA,images/earth.jpg,images/rocket1,images/rocket2,null,images/rocket2,NA,1,real,null,1,NA,NA,NA,sub5
d3-animate-choice,172,670832,0.0-76.0-1.12,FALSE,FALSE,TRUE,FALSE,"""event"",""trial"",""time""
""fullscreenenter"",""5"",""19718""
","
","
","""event"",""trial"",""time""
""fullscreenenter"",""5"",""19718""
","
",448.534999974072,NA,48,NA,NA,3000,1,NA,NA,images/redplanet1.jpg,images/alien2,images/alien1,images/rocket2,images/alien2,images/t.png,2,real,true,2,common,1,2020-06-11T12:27:50Z,sub5
two-step-fixation,173,671839,0.0-76.0-2.12,FALSE,FALSE,TRUE,FALSE,"""event"",""trial"",""time""
""fullscreenenter"",""5"",""19718""
","
","
","""event"",""trial"",""time""
""fullscreenenter"",""5"",""19718""
","
",NA,images/earth.jpg,NA,NA,NA,NA,NA,NA,NA,NA,NA,NA,NA,NA,NA,fixation,NA,NA,NA,NA,NA,NA,sub5
d3-animate-choice,174,674182,0.0-76.0-0.13,FALSE,FALSE,TRUE,FALSE,"""event"",""trial"",""time""
""fullscreenenter"",""5"",""19718""
","
","
","""event"",""trial"",""time""
""fullscreenenter"",""5"",""19718""
","
",336.210000095889,NA,48,NA,NA,3000,1,NA,NA,images/earth.jpg,images/rocket1,images/rocket2,null,images/rocket1,NA,1,real,null,2,NA,NA,NA,sub5
d3-animate-choice,175,676597,0.0-76.0-1.13,FALSE,FALSE,TRUE,FALSE,"""event"",""trial"",""time""
""fullscreenenter"",""5"",""19718""
","
","
","""event"",""trial"",""time""
""fullscreenenter"",""5"",""19718""
","
",409.14000011980534,NA,49,NA,NA,3000,1,NA,NA,images/purpleplanet.jpg,images/alien4,images/alien3,images/rocket1,images/alien3,images/nothing.png,2,real,true,1,common,0,2020-06-11T12:27:56Z,sub5
two-step-fixation,176,677603,0.0-76.0-2.13,FALSE,FALSE,TRUE,FALSE,"""event"",""trial"",""time""
""fullscreenenter"",""5"",""19718""
","
","
","""event"",""trial"",""time""
""fullscreenenter"",""5"",""19718""
","
",NA,images/earth.jpg,NA,NA,NA,NA,NA,NA,NA,NA,NA,NA,NA,NA,NA,fixation,NA,NA,NA,NA,NA,NA,sub5
d3-animate-choice,177,679982,0.0-76.0-0.14,FALSE,FALSE,TRUE,FALSE,"""event"",""trial"",""time""
""fullscreenenter"",""5"",""19718""
","
","
","""event"",""trial"",""time""
""fullscreenenter"",""5"",""19718""
","
",371.7750001233071,NA,48,NA,NA,3000,1,NA,NA,images/earth.jpg,images/rocket1,images/rocket2,null,images/rocket1,NA,1,real,null,2,NA,NA,NA,sub5
d3-animate-choice,178,683743,0.0-76.0-1.14,FALSE,FALSE,TRUE,FALSE,"""event"",""trial"",""time""
""fullscreenenter"",""5"",""19718""
","
","
","""event"",""trial"",""time""
""fullscreenenter"",""5"",""19718""
","
",1756.4149999525398,NA,49,NA,NA,3000,1,NA,NA,images/redplanet1.jpg,images/alien2,images/alien1,images/rocket1,images/alien1,images/t.png,2,real,false,1,rare,1,2020-06-11T12:28:03Z,sub5
two-step-fixation,179,684752,0.0-76.0-2.14,FALSE,FALSE,TRUE,FALSE,"""event"",""trial"",""time""
""fullscreenenter"",""5"",""19718""
","
","
","""event"",""trial"",""time""
""fullscreenenter"",""5"",""19718""
","
",NA,images/earth.jpg,NA,NA,NA,NA,NA,NA,NA,NA,NA,NA,NA,NA,NA,fixation,NA,NA,NA,NA,NA,NA,sub5
d3-animate-choice,180,687044,0.0-76.0-0.15,FALSE,FALSE,TRUE,FALSE,"""event"",""trial"",""time""
""fullscreenenter"",""5"",""19718""
","
","
","""event"",""trial"",""time""
""fullscreenenter"",""5"",""19718""
","
",285.6449999380857,NA,49,NA,NA,3000,1,NA,NA,images/earth.jpg,images/rocket1,images/rocket2,null,images/rocket2,NA,1,real,null,1,NA,NA,NA,sub5
d3-animate-choice,181,689445,0.0-76.0-1.15,FALSE,FALSE,TRUE,FALSE,"""event"",""trial"",""time""
""fullscreenenter"",""5"",""19718""
","
","
","""event"",""trial"",""time""
""fullscreenenter"",""5"",""19718""
","
",394.51500005088747,NA,49,NA,NA,3000,1,NA,NA,images/redplanet1.jpg,images/alien2,images/alien1,images/rocket2,images/alien1,images/t.png,2,real,true,1,common,1,2020-06-11T12:28:09Z,sub5
two-step-fixation,182,690452,0.0-76.0-2.15,FALSE,FALSE,TRUE,FALSE,"""event"",""trial"",""time""
""fullscreenenter"",""5"",""19718""
","
","
","""event"",""trial"",""time""
""fullscreenenter"",""5"",""19718""
","
",NA,images/earth.jpg,NA,NA,NA,NA,NA,NA,NA,NA,NA,NA,NA,NA,NA,fixation,NA,NA,NA,NA,NA,NA,sub5
d3-animate-choice,183,692821,0.0-76.0-0.16,FALSE,FALSE,TRUE,FALSE,"""event"",""trial"",""time""
""fullscreenenter"",""5"",""19718""
","
","
","""event"",""trial"",""time""
""fullscreenenter"",""5"",""19718""
","
",362.36999998800457,NA,49,NA,NA,3000,1,NA,NA,images/earth.jpg,images/rocket1,images/rocket2,null,images/rocket2,NA,1,real,null,1,NA,NA,NA,sub5
d3-animate-choice,184,695250,0.0-76.0-1.16,FALSE,FALSE,TRUE,FALSE,"""event"",""trial"",""time""
""fullscreenenter"",""5"",""19718""
","
","
","""event"",""trial"",""time""
""fullscreenenter"",""5"",""19718""
","
",419.37500005587935,NA,49,NA,NA,3000,1,NA,NA,images/redplanet1.jpg,images/alien2,images/alien1,images/rocket2,images/alien1,images/t.png,2,real,true,1,common,1,2020-06-11T12:28:14Z,sub5
two-step-fixation,185,696255,0.0-76.0-2.16,FALSE,FALSE,TRUE,FALSE,"""event"",""trial"",""time""
""fullscreenenter"",""5"",""19718""
","
","
","""event"",""trial"",""time""
""fullscreenenter"",""5"",""19718""
","
",NA,images/earth.jpg,NA,NA,NA,NA,NA,NA,NA,NA,NA,NA,NA,NA,NA,fixation,NA,NA,NA,NA,NA,NA,sub5
d3-animate-choice,186,698607,0.0-76.0-0.17,FALSE,FALSE,TRUE,FALSE,"""event"",""trial"",""time""
""fullscreenenter"",""5"",""19718""
","
","
","""event"",""trial"",""time""
""fullscreenenter"",""5"",""19718""
","
",346.07500000856817,NA,49,NA,NA,3000,1,NA,NA,images/earth.jpg,images/rocket1,images/rocket2,null,images/rocket2,NA,1,real,null,1,NA,NA,NA,sub5
d3-animate-choice,187,700983,0.0-76.0-1.17,FALSE,FALSE,TRUE,FALSE,"""event"",""trial"",""time""
""fullscreenenter"",""5"",""19718""
","
","
","""event"",""trial"",""time""
""fullscreenenter"",""5"",""19718""
","
",370.52499991841614,NA,49,NA,NA,3000,1,NA,NA,images/redplanet1.jpg,images/alien2,images/alien1,images/rocket2,images/alien1,images/t.png,2,real,true,1,common,1,2020-06-11T12:28:20Z,sub5
two-step-fixation,188,701988,0.0-76.0-2.17,FALSE,FALSE,TRUE,FALSE,"""event"",""trial"",""time""
""fullscreenenter"",""5"",""19718""
","
","
","""event"",""trial"",""time""
""fullscreenenter"",""5"",""19718""
","
",NA,images/earth.jpg,NA,NA,NA,NA,NA,NA,NA,NA,NA,NA,NA,NA,NA,fixation,NA,NA,NA,NA,NA,NA,sub5
d3-animate-choice,189,704311,0.0-76.0-0.18,FALSE,FALSE,TRUE,FALSE,"""event"",""trial"",""time""
""fullscreenenter"",""5"",""19718""
","
","
","""event"",""trial"",""time""
""fullscreenenter"",""5"",""19718""
","
",316.3250000216067,NA,49,NA,NA,3000,1,NA,NA,images/earth.jpg,images/rocket1,images/rocket2,null,images/rocket2,NA,1,real,null,1,NA,NA,NA,sub5
d3-animate-choice,190,706737,0.0-76.0-1.18,FALSE,FALSE,TRUE,FALSE,"""event"",""trial"",""time""
""fullscreenenter"",""5"",""19718""
","
","
","""event"",""trial"",""time""
""fullscreenenter"",""5"",""19718""
","
",419.5399999152869,NA,49,NA,NA,3000,1,NA,NA,images/redplanet1.jpg,images/alien2,images/alien1,images/rocket2,images/alien1,images/nothing.png,2,real,true,1,common,0,2020-06-11T12:28:26Z,sub5
two-step-fixation,191,707744,0.0-76.0-2.18,FALSE,FALSE,TRUE,FALSE,"""event"",""trial"",""time""
""fullscreenenter"",""5"",""19718""
","
","
","""event"",""trial"",""time""
""fullscreenenter"",""5"",""19718""
","
",NA,images/earth.jpg,NA,NA,NA,NA,NA,NA,NA,NA,NA,NA,NA,NA,NA,fixation,NA,NA,NA,NA,NA,NA,sub5
d3-animate-choice,192,710007,0.0-76.0-0.19,FALSE,FALSE,TRUE,FALSE,"""event"",""trial"",""time""
""fullscreenenter"",""5"",""19718""
","
","
","""event"",""trial"",""time""
""fullscreenenter"",""5"",""19718""
","
",256.1399999540299,NA,49,NA,NA,3000,1,NA,NA,images/earth.jpg,images/rocket1,images/rocket2,null,images/rocket2,NA,1,real,null,1,NA,NA,NA,sub5
d3-animate-choice,193,712342,0.0-76.0-1.19,FALSE,FALSE,TRUE,FALSE,"""event"",""trial"",""time""
""fullscreenenter"",""5"",""19718""
","
","
","""event"",""trial"",""time""
""fullscreenenter"",""5"",""19718""
","
",329.1949999984354,NA,49,NA,NA,3000,1,NA,NA,images/redplanet1.jpg,images/alien2,images/alien1,images/rocket2,images/alien1,images/t.png,2,real,true,1,common,1,2020-06-11T12:28:32Z,sub5
two-step-fixation,194,713348,0.0-76.0-2.19,FALSE,FALSE,TRUE,FALSE,"""event"",""trial"",""time""
""fullscreenenter"",""5"",""19718""
","
","
","""event"",""trial"",""time""
""fullscreenenter"",""5"",""19718""
","
",NA,images/earth.jpg,NA,NA,NA,NA,NA,NA,NA,NA,NA,NA,NA,NA,NA,fixation,NA,NA,NA,NA,NA,NA,sub5
d3-animate-choice,195,715647,0.0-76.0-0.20,FALSE,FALSE,TRUE,FALSE,"""event"",""trial"",""time""
""fullscreenenter"",""5"",""19718""
","
","
","""event"",""trial"",""time""
""fullscreenenter"",""5"",""19718""
","
",294.2949999123812,NA,49,NA,NA,3000,1,NA,NA,images/earth.jpg,images/rocket1,images/rocket2,null,images/rocket2,NA,1,real,null,1,NA,NA,NA,sub5
d3-animate-choice,196,717960,0.0-76.0-1.20,FALSE,FALSE,TRUE,FALSE,"""event"",""trial"",""time""
""fullscreenenter"",""5"",""19718""
","
","
","""event"",""trial"",""time""
""fullscreenenter"",""5"",""19718""
","
",306.7649998702109,NA,49,NA,NA,3000,1,NA,NA,images/redplanet1.jpg,images/alien2,images/alien1,images/rocket2,images/alien1,images/t.png,2,real,true,1,common,1,2020-06-11T12:28:37Z,sub5
two-step-fixation,197,718967,0.0-76.0-2.20,FALSE,FALSE,TRUE,FALSE,"""event"",""trial"",""time""
""fullscreenenter"",""5"",""19718""
","
","
","""event"",""trial"",""time""
""fullscreenenter"",""5"",""19718""
","
",NA,images/earth.jpg,NA,NA,NA,NA,NA,NA,NA,NA,NA,NA,NA,NA,NA,fixation,NA,NA,NA,NA,NA,NA,sub5
d3-animate-choice,198,721310,0.0-76.0-0.21,FALSE,FALSE,TRUE,FALSE,"""event"",""trial"",""time""
""fullscreenenter"",""5"",""19718""
","
","
","""event"",""trial"",""time""
""fullscreenenter"",""5"",""19718""
","
",335.95999982208014,NA,49,NA,NA,3000,1,1775.9099998511374,49,images/earth.jpg,images/rocket1,images/rocket2,null,images/rocket2,NA,1,real,null,1,NA,NA,NA,sub5
d3-animate-choice,199,723590,0.0-76.0-1.21,FALSE,FALSE,TRUE,FALSE,"""event"",""trial"",""time""
""fullscreenenter"",""5"",""19718""
","
","
","""event"",""trial"",""time""
""fullscreenenter"",""5"",""19718""
","
",273.82000000216067,NA,49,NA,NA,3000,1,NA,NA,images/purpleplanet.jpg,images/alien4,images/alien3,images/rocket2,images/alien3,images/nothing.png,2,real,false,1,rare,0,2020-06-11T12:28:43Z,sub5
two-step-fixation,200,724597,0.0-76.0-2.21,FALSE,FALSE,TRUE,FALSE,"""event"",""trial"",""time""
""fullscreenenter"",""5"",""19718""
","
","
","""event"",""trial"",""time""
""fullscreenenter"",""5"",""19718""
","
",NA,images/earth.jpg,NA,NA,NA,NA,NA,NA,NA,NA,NA,NA,NA,NA,NA,fixation,NA,NA,NA,NA,NA,NA,sub5
d3-animate-choice,201,726934,0.0-76.0-0.22,FALSE,FALSE,TRUE,FALSE,"""event"",""trial"",""time""
""fullscreenenter"",""5"",""19718""
","
","
","""event"",""trial"",""time""
""fullscreenenter"",""5"",""19718""
","
",330.0250000320375,NA,49,NA,NA,3000,1,NA,NA,images/earth.jpg,images/rocket1,images/rocket2,null,images/rocket2,NA,1,real,null,1,NA,NA,NA,sub5
d3-animate-choice,202,729360,0.0-76.0-1.22,FALSE,FALSE,TRUE,FALSE,"""event"",""trial"",""time""
""fullscreenenter"",""5"",""19718""
","
","
","""event"",""trial"",""time""
""fullscreenenter"",""5"",""19718""
","
",419.52999983914196,NA,49,NA,NA,3000,1,NA,NA,images/purpleplanet.jpg,images/alien4,images/alien3,images/rocket2,images/alien3,images/nothing.png,2,real,false,1,rare,0,2020-06-11T12:28:49Z,sub5
two-step-fixation,203,730365,0.0-76.0-2.22,FALSE,FALSE,TRUE,FALSE,"""event"",""trial"",""time""
""fullscreenenter"",""5"",""19718""
","
","
","""event"",""trial"",""time""
""fullscreenenter"",""5"",""19718""
","
",NA,images/earth.jpg,NA,NA,NA,NA,NA,NA,NA,NA,NA,NA,NA,NA,NA,fixation,NA,NA,NA,NA,NA,NA,sub5
d3-animate-choice,204,732661,0.0-76.0-0.23,FALSE,FALSE,TRUE,FALSE,"""event"",""trial"",""time""
""fullscreenenter"",""5"",""19718""
","
","
","""event"",""trial"",""time""
""fullscreenenter"",""5"",""19718""
","
",289.06500013545156,NA,49,NA,NA,3000,1,NA,NA,images/earth.jpg,images/rocket1,images/rocket2,null,images/rocket2,NA,1,real,null,1,NA,NA,NA,sub5
d3-animate-choice,205,735237,0.0-76.0-1.23,FALSE,FALSE,TRUE,FALSE,"""event"",""trial"",""time""
""fullscreenenter"",""5"",""19718""
","
","
","""event"",""trial"",""time""
""fullscreenenter"",""5"",""19718""
","
",569.3449999671429,NA,48,NA,NA,3000,1,NA,NA,images/redplanet1.jpg,images/alien2,images/alien1,images/rocket2,images/alien2,images/t.png,2,real,true,2,common,1,2020-06-11T12:28:54Z,sub5
two-step-fixation,206,736244,0.0-76.0-2.23,FALSE,FALSE,TRUE,FALSE,"""event"",""trial"",""time""
""fullscreenenter"",""5"",""19718""
","
","
","""event"",""trial"",""time""
""fullscreenenter"",""5"",""19718""
","
",NA,images/earth.jpg,NA,NA,NA,NA,NA,NA,NA,NA,NA,NA,NA,NA,NA,fixation,NA,NA,NA,NA,NA,NA,sub5
d3-animate-choice,207,739439,0.0-76.0-0.24,FALSE,FALSE,TRUE,FALSE,"""event"",""trial"",""time""
""fullscreenenter"",""5"",""19718""
","
","
","""event"",""trial"",""time""
""fullscreenenter"",""5"",""19718""
","
",1188.5000001639128,NA,48,NA,NA,3000,1,NA,NA,images/earth.jpg,images/rocket1,images/rocket2,null,images/rocket1,NA,1,real,null,2,NA,NA,NA,sub5
d3-animate-choice,208,742229,0.0-76.0-1.24,FALSE,FALSE,TRUE,FALSE,"""event"",""trial"",""time""
""fullscreenenter"",""5"",""19718""
","
","
","""event"",""trial"",""time""
""fullscreenenter"",""5"",""19718""
","
",783.2149998284876,NA,49,NA,NA,3000,1,NA,NA,images/redplanet1.jpg,images/alien2,images/alien1,images/rocket1,images/alien1,images/t.png,2,real,false,1,rare,1,2020-06-11T12:29:01Z,sub5
two-step-fixation,209,743237,0.0-76.0-2.24,FALSE,FALSE,TRUE,FALSE,"""event"",""trial"",""time""
""fullscreenenter"",""5"",""19718""
","
","
","""event"",""trial"",""time""
""fullscreenenter"",""5"",""19718""
","
",NA,images/earth.jpg,NA,NA,NA,NA,NA,NA,NA,NA,NA,NA,NA,NA,NA,fixation,NA,NA,NA,NA,NA,NA,sub5
d3-animate-choice,210,745469,0.0-76.0-0.25,FALSE,FALSE,TRUE,FALSE,"""event"",""trial"",""time""
""fullscreenenter"",""5"",""19718""
","
","
","""event"",""trial"",""time""
""fullscreenenter"",""5"",""19718""
","
",224.53999985009432,NA,48,NA,NA,3000,1,NA,NA,images/earth.jpg,images/rocket1,images/rocket2,null,images/rocket1,NA,1,real,null,2,NA,NA,NA,sub5
d3-animate-choice,211,748028,0.0-76.0-1.25,FALSE,FALSE,TRUE,FALSE,"""event"",""trial"",""time""
""fullscreenenter"",""5"",""19718""
","
","
","""event"",""trial"",""time""
""fullscreenenter"",""5"",""19718""
","
",553.9149998221546,NA,49,NA,NA,3000,1,NA,NA,images/purpleplanet.jpg,images/alien4,images/alien3,images/rocket1,images/alien3,images/nothing.png,2,real,true,1,common,0,2020-06-11T12:29:07Z,sub5
two-step-fixation,212,749036,0.0-76.0-2.25,FALSE,FALSE,TRUE,FALSE,"""event"",""trial"",""time""
""fullscreenenter"",""5"",""19718""
","
","
","""event"",""trial"",""time""
""fullscreenenter"",""5"",""19718""
","
",NA,images/earth.jpg,NA,NA,NA,NA,NA,NA,NA,NA,NA,NA,NA,NA,NA,fixation,NA,NA,NA,NA,NA,NA,sub5
d3-animate-choice,213,751519,0.0-76.0-0.26,FALSE,FALSE,TRUE,FALSE,"""event"",""trial"",""time""
""fullscreenenter"",""5"",""19718""
","
","
","""event"",""trial"",""time""
""fullscreenenter"",""5"",""19718""
","
",476.9049999304116,NA,49,NA,NA,3000,1,NA,NA,images/earth.jpg,images/rocket1,images/rocket2,null,images/rocket2,NA,1,real,null,1,NA,NA,NA,sub5
d3-animate-choice,214,753924,0.0-76.0-1.26,FALSE,FALSE,TRUE,FALSE,"""event"",""trial"",""time""
""fullscreenenter"",""5"",""19718""
","
","
","""event"",""trial"",""time""
""fullscreenenter"",""5"",""19718""
","
",398.97999982349575,NA,49,NA,NA,3000,1,NA,NA,images/redplanet1.jpg,images/alien2,images/alien1,images/rocket2,images/alien1,images/t.png,2,real,true,1,common,1,2020-06-11T12:29:13Z,sub5
two-step-fixation,215,754935,0.0-76.0-2.26,FALSE,FALSE,TRUE,FALSE,"""event"",""trial"",""time""
""fullscreenenter"",""5"",""19718""
","
","
","""event"",""trial"",""time""
""fullscreenenter"",""5"",""19718""
","
",NA,images/earth.jpg,NA,NA,NA,NA,NA,NA,NA,NA,NA,NA,NA,NA,NA,fixation,NA,NA,NA,NA,NA,NA,sub5
d3-animate-choice,216,757056,0.0-76.0-0.27,FALSE,FALSE,TRUE,FALSE,"""event"",""trial"",""time""
""fullscreenenter"",""5"",""19718""
","
","
","""event"",""trial"",""time""
""fullscreenenter"",""5"",""19718""
","
",114.1249998472631,NA,49,NA,NA,3000,1,2106.1350000090897,49,images/earth.jpg,images/rocket1,images/rocket2,null,images/rocket2,NA,1,real,null,1,NA,NA,NA,sub5
d3-animate-choice,217,759430,0.0-76.0-1.27,FALSE,FALSE,TRUE,FALSE,"""event"",""trial"",""time""
""fullscreenenter"",""5"",""19718""
","
","
","""event"",""trial"",""time""
""fullscreenenter"",""5"",""19718""
","
",368.59000008553267,NA,49,NA,NA,3000,1,NA,NA,images/redplanet1.jpg,images/alien2,images/alien1,images/rocket2,images/alien1,images/t.png,2,real,true,1,common,1,2020-06-11T12:29:19Z,sub5
two-step-fixation,218,760437,0.0-76.0-2.27,FALSE,FALSE,TRUE,FALSE,"""event"",""trial"",""time""
""fullscreenenter"",""5"",""19718""
","
","
","""event"",""trial"",""time""
""fullscreenenter"",""5"",""19718""
","
",NA,images/earth.jpg,NA,NA,NA,NA,NA,NA,NA,NA,NA,NA,NA,NA,NA,fixation,NA,NA,NA,NA,NA,NA,sub5
d3-animate-choice,219,762720,0.0-76.0-0.28,FALSE,FALSE,TRUE,FALSE,"""event"",""trial"",""time""
""fullscreenenter"",""5"",""19718""
","
","
","""event"",""trial"",""time""
""fullscreenenter"",""5"",""19718""
","
",276.35499997995794,NA,49,NA,NA,3000,1,NA,NA,images/earth.jpg,images/rocket1,images/rocket2,null,images/rocket2,NA,1,real,null,1,NA,NA,NA,sub5
d3-animate-choice,220,765120,0.0-76.0-1.28,FALSE,FALSE,TRUE,FALSE,"""event"",""trial"",""time""
""fullscreenenter"",""5"",""19718""
","
","
","""event"",""trial"",""time""
""fullscreenenter"",""5"",""19718""
","
",393.0549998767674,NA,49,NA,NA,3000,1,NA,NA,images/redplanet1.jpg,images/alien2,images/alien1,images/rocket2,images/alien1,images/nothing.png,2,real,true,1,common,0,2020-06-11T12:29:24Z,sub5
two-step-fixation,221,766127,0.0-76.0-2.28,FALSE,FALSE,TRUE,FALSE,"""event"",""trial"",""time""
""fullscreenenter"",""5"",""19718""
","
","
","""event"",""trial"",""time""
""fullscreenenter"",""5"",""19718""
","
",NA,images/earth.jpg,NA,NA,NA,NA,NA,NA,NA,NA,NA,NA,NA,NA,NA,fixation,NA,NA,NA,NA,NA,NA,sub5
d3-animate-choice,222,768392,0.0-76.0-0.29,FALSE,FALSE,TRUE,FALSE,"""event"",""trial"",""time""
""fullscreenenter"",""5"",""19718""
","
","
","""event"",""trial"",""time""
""fullscreenenter"",""5"",""19718""
","
",258.09999997727573,NA,49,NA,NA,3000,1,NA,NA,images/earth.jpg,images/rocket1,images/rocket2,null,images/rocket2,NA,1,real,null,1,NA,NA,NA,sub5
d3-animate-choice,223,770879,0.0-76.0-1.29,FALSE,FALSE,TRUE,FALSE,"""event"",""trial"",""time""
""fullscreenenter"",""5"",""19718""
","
","
","""event"",""trial"",""time""
""fullscreenenter"",""5"",""19718""
","
",480.8249999769032,NA,49,NA,NA,3000,1,NA,NA,images/redplanet1.jpg,images/alien2,images/alien1,images/rocket2,images/alien1,images/t.png,2,real,true,1,common,1,2020-06-11T12:29:30Z,sub5
two-step-fixation,224,771886,0.0-76.0-2.29,FALSE,FALSE,TRUE,FALSE,"""event"",""trial"",""time""
""fullscreenenter"",""5"",""19718""
","
","
","""event"",""trial"",""time""
""fullscreenenter"",""5"",""19718""
","
",NA,images/earth.jpg,NA,NA,NA,NA,NA,NA,NA,NA,NA,NA,NA,NA,NA,fixation,NA,NA,NA,NA,NA,NA,sub5
d3-animate-choice,225,774265,0.0-76.0-0.30,FALSE,FALSE,TRUE,FALSE,"""event"",""trial"",""time""
""fullscreenenter"",""5"",""19718""
","
","
","""event"",""trial"",""time""
""fullscreenenter"",""5"",""19718""
","
",372.0299999695271,NA,49,NA,NA,3000,1,NA,NA,images/earth.jpg,images/rocket1,images/rocket2,null,images/rocket2,NA,1,real,null,1,NA,NA,NA,sub5
d3-animate-choice,226,776591,0.0-76.0-1.30,FALSE,FALSE,TRUE,FALSE,"""event"",""trial"",""time""
""fullscreenenter"",""5"",""19718""
","
","
","""event"",""trial"",""time""
""fullscreenenter"",""5"",""19718""
","
",321.1850000079721,NA,49,NA,NA,3000,1,NA,NA,images/redplanet1.jpg,images/alien2,images/alien1,images/rocket2,images/alien1,images/t.png,2,real,true,1,common,1,2020-06-11T12:29:36Z,sub5
two-step-fixation,227,777597,0.0-76.0-2.30,FALSE,FALSE,TRUE,FALSE,"""event"",""trial"",""time""
""fullscreenenter"",""5"",""19718""
","
","
","""event"",""trial"",""time""
""fullscreenenter"",""5"",""19718""
","
",NA,images/earth.jpg,NA,NA,NA,NA,NA,NA,NA,NA,NA,NA,NA,NA,NA,fixation,NA,NA,NA,NA,NA,NA,sub5
d3-animate-choice,228,779935,0.0-76.0-0.31,FALSE,FALSE,TRUE,FALSE,"""event"",""trial"",""time""
""fullscreenenter"",""5"",""19718""
","
","
","""event"",""trial"",""time""
""fullscreenenter"",""5"",""19718""
","
",330.8950001373887,NA,49,NA,NA,3000,1,NA,NA,images/earth.jpg,images/rocket1,images/rocket2,null,images/rocket2,NA,1,real,null,1,NA,NA,NA,sub5
d3-animate-choice,229,782311,0.0-76.0-1.31,FALSE,FALSE,TRUE,FALSE,"""event"",""trial"",""time""
""fullscreenenter"",""5"",""19718""
","
","
","""event"",""trial"",""time""
""fullscreenenter"",""5"",""19718""
","
",369.0499998629093,NA,49,NA,NA,3000,1,NA,NA,images/redplanet1.jpg,images/alien2,images/alien1,images/rocket2,images/alien1,images/t.png,2,real,true,1,common,1,2020-06-11T12:29:41Z,sub5
two-step-fixation,230,783318,0.0-76.0-2.31,FALSE,FALSE,TRUE,FALSE,"""event"",""trial"",""time""
""fullscreenenter"",""5"",""19718""
","
","
","""event"",""trial"",""time""
""fullscreenenter"",""5"",""19718""
","
",NA,images/earth.jpg,NA,NA,NA,NA,NA,NA,NA,NA,NA,NA,NA,NA,NA,fixation,NA,NA,NA,NA,NA,NA,sub5
d3-animate-choice,231,785838,0.0-76.0-0.32,FALSE,FALSE,TRUE,FALSE,"""event"",""trial"",""time""
""fullscreenenter"",""5"",""19718""
","
","
","""event"",""trial"",""time""
""fullscreenenter"",""5"",""19718""
","
",513.2800000719726,NA,49,NA,NA,3000,1,NA,NA,images/earth.jpg,images/rocket1,images/rocket2,null,images/rocket2,NA,1,real,null,1,NA,NA,NA,sub5
d3-animate-choice,232,788366,0.0-76.0-1.32,FALSE,FALSE,TRUE,FALSE,"""event"",""trial"",""time""
""fullscreenenter"",""5"",""19718""
","
","
","""event"",""trial"",""time""
""fullscreenenter"",""5"",""19718""
","
",521.7699999921024,NA,49,NA,NA,3000,1,NA,NA,images/purpleplanet.jpg,images/alien4,images/alien3,images/rocket2,images/alien3,images/nothing.png,2,real,false,1,rare,0,2020-06-11T12:29:48Z,sub5
two-step-fixation,233,789373,0.0-76.0-2.32,FALSE,FALSE,TRUE,FALSE,"""event"",""trial"",""time""
""fullscreenenter"",""5"",""19718""
","
","
","""event"",""trial"",""time""
""fullscreenenter"",""5"",""19718""
","
",NA,images/earth.jpg,NA,NA,NA,NA,NA,NA,NA,NA,NA,NA,NA,NA,NA,fixation,NA,NA,NA,NA,NA,NA,sub5
d3-animate-choice,234,791670,0.0-76.0-0.33,FALSE,FALSE,TRUE,FALSE,"""event"",""trial"",""time""
""fullscreenenter"",""5"",""19718""
","
","
","""event"",""trial"",""time""
""fullscreenenter"",""5"",""19718""
","
",291.0050000064075,NA,49,NA,NA,3000,1,NA,NA,images/earth.jpg,images/rocket1,images/rocket2,null,images/rocket2,NA,1,real,null,1,NA,NA,NA,sub5
d3-animate-choice,235,794246,0.0-76.0-1.33,FALSE,FALSE,TRUE,FALSE,"""event"",""trial"",""time""
""fullscreenenter"",""5"",""19718""
","
","
","""event"",""trial"",""time""
""fullscreenenter"",""5"",""19718""
","
",569.7949999012053,NA,49,NA,NA,3000,1,NA,NA,images/redplanet1.jpg,images/alien2,images/alien1,images/rocket2,images/alien1,images/nothing.png,2,real,true,1,common,0,2020-06-11T12:29:53Z,sub5
two-step-fixation,236,795250,0.0-76.0-2.33,FALSE,FALSE,TRUE,FALSE,"""event"",""trial"",""time""
""fullscreenenter"",""5"",""19718""
","
","
","""event"",""trial"",""time""
""fullscreenenter"",""5"",""19718""
","
",NA,images/earth.jpg,NA,NA,NA,NA,NA,NA,NA,NA,NA,NA,NA,NA,NA,fixation,NA,NA,NA,NA,NA,NA,sub5
d3-animate-choice,237,797382,0.0-76.0-0.34,FALSE,FALSE,TRUE,FALSE,"""event"",""trial"",""time""
""fullscreenenter"",""5"",""19718""
","
","
","""event"",""trial"",""time""
""fullscreenenter"",""5"",""19718""
","
",122.87999992258847,NA,49,NA,NA,3000,1,NA,NA,images/earth.jpg,images/rocket1,images/rocket2,null,images/rocket2,NA,1,real,null,1,NA,NA,NA,sub5
d3-animate-choice,238,800430,0.0-76.0-1.34,FALSE,FALSE,TRUE,FALSE,"""event"",""trial"",""time""
""fullscreenenter"",""5"",""19718""
","
","
","""event"",""trial"",""time""
""fullscreenenter"",""5"",""19718""
","
",1041.2250000517815,NA,48,NA,NA,3000,1,NA,NA,images/purpleplanet.jpg,images/alien4,images/alien3,images/rocket2,images/alien4,images/t.png,2,real,false,2,rare,1,2020-06-11T12:30:00Z,sub5
two-step-fixation,239,801436,0.0-76.0-2.34,FALSE,FALSE,TRUE,FALSE,"""event"",""trial"",""time""
""fullscreenenter"",""5"",""19718""
","
","
","""event"",""trial"",""time""
""fullscreenenter"",""5"",""19718""
","
",NA,images/earth.jpg,NA,NA,NA,NA,NA,NA,NA,NA,NA,NA,NA,NA,NA,fixation,NA,NA,NA,NA,NA,NA,sub5
d3-animate-choice,240,803477,0.0-76.0-0.35,FALSE,FALSE,TRUE,FALSE,"""event"",""trial"",""time""
""fullscreenenter"",""5"",""19718""
","
","
","""event"",""trial"",""time""
""fullscreenenter"",""5"",""19718""
","
",34.17500015348196,NA,49,NA,NA,3000,1,NA,NA,images/earth.jpg,images/rocket1,images/rocket2,null,images/rocket2,NA,1,real,null,1,NA,NA,NA,sub5
d3-animate-choice,241,806069,0.0-76.0-1.35,FALSE,FALSE,TRUE,FALSE,"""event"",""trial"",""time""
""fullscreenenter"",""5"",""19718""
","
","
","""event"",""trial"",""time""
""fullscreenenter"",""5"",""19718""
","
",586.1800001002848,NA,48,NA,NA,3000,1,NA,NA,images/redplanet1.jpg,images/alien2,images/alien1,images/rocket2,images/alien2,images/nothing.png,2,real,true,2,common,0,2020-06-11T12:30:05Z,sub5
two-step-fixation,242,807076,0.0-76.0-2.35,FALSE,FALSE,TRUE,FALSE,"""event"",""trial"",""time""
""fullscreenenter"",""5"",""19718""
","
","
","""event"",""trial"",""time""
""fullscreenenter"",""5"",""19718""
","
",NA,images/earth.jpg,NA,NA,NA,NA,NA,NA,NA,NA,NA,NA,NA,NA,NA,fixation,NA,NA,NA,NA,NA,NA,sub5
d3-animate-choice,243,809487,0.0-76.0-0.36,FALSE,FALSE,TRUE,FALSE,"""event"",""trial"",""time""
""fullscreenenter"",""5"",""19718""
","
","
","""event"",""trial"",""time""
""fullscreenenter"",""5"",""19718""
","
",404.4500000309199,NA,48,NA,NA,3000,1,NA,NA,images/earth.jpg,images/rocket1,images/rocket2,null,images/rocket1,NA,1,real,null,2,NA,NA,NA,sub5
d3-animate-choice,244,811949,0.0-76.0-1.36,FALSE,FALSE,TRUE,FALSE,"""event"",""trial"",""time""
""fullscreenenter"",""5"",""19718""
","
","
","""event"",""trial"",""time""
""fullscreenenter"",""5"",""19718""
","
",455.4850000422448,NA,48,NA,NA,3000,1,NA,NA,images/purpleplanet.jpg,images/alien4,images/alien3,images/rocket1,images/alien4,images/t.png,2,real,true,2,common,1,2020-06-11T12:30:11Z,sub5
two-step-fixation,245,812956,0.0-76.0-2.36,FALSE,FALSE,TRUE,FALSE,"""event"",""trial"",""time""
""fullscreenenter"",""5"",""19718""
","
","
","""event"",""trial"",""time""
""fullscreenenter"",""5"",""19718""
","
",NA,images/earth.jpg,NA,NA,NA,NA,NA,NA,NA,NA,NA,NA,NA,NA,NA,fixation,NA,NA,NA,NA,NA,NA,sub5
d3-animate-choice,246,815313,0.0-76.0-0.37,FALSE,FALSE,TRUE,FALSE,"""event"",""trial"",""time""
""fullscreenenter"",""5"",""19718""
","
","
","""event"",""trial"",""time""
""fullscreenenter"",""5"",""19718""
","
",346.0099999792874,NA,48,NA,NA,3000,1,NA,NA,images/earth.jpg,images/rocket1,images/rocket2,null,images/rocket1,NA,1,real,null,2,NA,NA,NA,sub5
d3-animate-choice,247,817985,0.0-76.0-1.37,FALSE,FALSE,TRUE,FALSE,"""event"",""trial"",""time""
""fullscreenenter"",""5"",""19718""
","
","
","""event"",""trial"",""time""
""fullscreenenter"",""5"",""19718""
","
",665.3750000987202,NA,48,NA,NA,3000,1,NA,NA,images/purpleplanet.jpg,images/alien4,images/alien3,images/rocket1,images/alien4,images/nothing.png,2,real,true,2,common,0,2020-06-11T12:30:17Z,sub5
two-step-fixation,248,818992,0.0-76.0-2.37,FALSE,FALSE,TRUE,FALSE,"""event"",""trial"",""time""
""fullscreenenter"",""5"",""19718""
","
","
","""event"",""trial"",""time""
""fullscreenenter"",""5"",""19718""
","
",NA,images/earth.jpg,NA,NA,NA,NA,NA,NA,NA,NA,NA,NA,NA,NA,NA,fixation,NA,NA,NA,NA,NA,NA,sub5
d3-animate-choice,249,821368,0.0-76.0-0.38,FALSE,FALSE,TRUE,FALSE,"""event"",""trial"",""time""
""fullscreenenter"",""5"",""19718""
","
","
","""event"",""trial"",""time""
""fullscreenenter"",""5"",""19718""
","
",369.57999994046986,NA,48,NA,NA,3000,1,NA,NA,images/earth.jpg,images/rocket1,images/rocket2,null,images/rocket1,NA,1,real,null,2,NA,NA,NA,sub5
d3-animate-choice,250,823752,0.0-76.0-1.38,FALSE,FALSE,TRUE,FALSE,"""event"",""trial"",""time""
""fullscreenenter"",""5"",""19718""
","
","
","""event"",""trial"",""time""
""fullscreenenter"",""5"",""19718""
","
",378.01999994553626,NA,48,NA,NA,3000,1,NA,NA,images/purpleplanet.jpg,images/alien4,images/alien3,images/rocket1,images/alien4,images/nothing.png,2,real,true,2,common,0,2020-06-11T12:30:23Z,sub5
two-step-fixation,251,824759,0.0-76.0-2.38,FALSE,FALSE,TRUE,FALSE,"""event"",""trial"",""time""
""fullscreenenter"",""5"",""19718""
","
","
","""event"",""trial"",""time""
""fullscreenenter"",""5"",""19718""
","
",NA,images/earth.jpg,NA,NA,NA,NA,NA,NA,NA,NA,NA,NA,NA,NA,NA,fixation,NA,NA,NA,NA,NA,NA,sub5
d3-animate-choice,252,827136,0.0-76.0-0.39,FALSE,FALSE,TRUE,FALSE,"""event"",""trial"",""time""
""fullscreenenter"",""5"",""19718""
","
","
","""event"",""trial"",""time""
""fullscreenenter"",""5"",""19718""
","
",371.66000017896295,NA,49,NA,NA,3000,1,NA,NA,images/earth.jpg,images/rocket1,images/rocket2,null,images/rocket2,NA,1,real,null,1,NA,NA,NA,sub5
d3-animate-choice,253,830375,0.0-76.0-1.39,FALSE,FALSE,TRUE,FALSE,"""event"",""trial"",""time""
""fullscreenenter"",""5"",""19718""
","
","
","""event"",""trial"",""time""
""fullscreenenter"",""5"",""19718""
","
",1233.2500000484288,NA,49,NA,NA,3000,1,NA,NA,images/redplanet1.jpg,images/alien2,images/alien1,images/rocket2,images/alien1,images/t.png,2,real,true,1,common,1,2020-06-11T12:30:30Z,sub5
two-step-fixation,254,831382,0.0-76.0-2.39,FALSE,FALSE,TRUE,FALSE,"""event"",""trial"",""time""
""fullscreenenter"",""5"",""19718""
","
","
","""event"",""trial"",""time""
""fullscreenenter"",""5"",""19718""
","
",NA,images/earth.jpg,NA,NA,NA,NA,NA,NA,NA,NA,NA,NA,NA,NA,NA,fixation,NA,NA,NA,NA,NA,NA,sub5
d3-animate-choice,255,833425,0.0-76.0-0.40,FALSE,FALSE,TRUE,FALSE,"""event"",""trial"",""time""
""fullscreenenter"",""5"",""19718""
","
","
","""event"",""trial"",""time""
""fullscreenenter"",""5"",""19718""
","
",38.04000001400709,NA,49,NA,NA,3000,1,NA,NA,images/earth.jpg,images/rocket1,images/rocket2,null,images/rocket2,NA,1,real,null,1,NA,NA,NA,sub5
d3-animate-choice,256,835736,0.0-76.0-1.40,FALSE,FALSE,TRUE,FALSE,"""event"",""trial"",""time""
""fullscreenenter"",""5"",""19718""
","
","
","""event"",""trial"",""time""
""fullscreenenter"",""5"",""19718""
","
",304.5649998821318,NA,49,NA,NA,3000,1,NA,NA,images/redplanet1.jpg,images/alien2,images/alien1,images/rocket2,images/alien1,images/t.png,2,real,true,1,common,1,2020-06-11T12:30:35Z,sub5
two-step-fixation,257,836743,0.0-76.0-2.40,FALSE,FALSE,TRUE,FALSE,"""event"",""trial"",""time""
""fullscreenenter"",""5"",""19718""
","
","
","""event"",""trial"",""time""
""fullscreenenter"",""5"",""19718""
","
",NA,images/earth.jpg,NA,NA,NA,NA,NA,NA,NA,NA,NA,NA,NA,NA,NA,fixation,NA,NA,NA,NA,NA,NA,sub5
d3-animate-choice,258,840746,0.0-76.0-0.41,FALSE,FALSE,TRUE,FALSE,"""event"",""trial"",""time""
""fullscreenenter"",""5"",""19718""
","
","
","""event"",""trial"",""time""
""fullscreenenter"",""5"",""19718""
","
",null,NA,null,NA,NA,3000,0,NA,NA,images/earth.jpg,images/rocket1,images/rocket2,null,NA,NA,1,real,null,NA,NA,NA,NA,sub5
d3-animate-choice,259,841753,0.0-76.0-1.41,FALSE,FALSE,TRUE,FALSE,"""event"",""trial"",""time""
""fullscreenenter"",""5"",""19718""
","
","
","""event"",""trial"",""time""
""fullscreenenter"",""5"",""19718""
","
",null,NA,null,NA,NA,0,0,NA,NA,images/earth.jpg,images/rocket1,images/rocket2,null,NA,NA,2,real,null,NA,NA,0,2020-06-11T12:30:41Z,sub5
two-step-fixation,260,842758,0.0-76.0-2.41,FALSE,FALSE,TRUE,FALSE,"""event"",""trial"",""time""
""fullscreenenter"",""5"",""19718""
","
","
","""event"",""trial"",""time""
""fullscreenenter"",""5"",""19718""
","
",NA,images/earth.jpg,NA,NA,NA,NA,NA,NA,NA,NA,NA,NA,NA,NA,NA,fixation,NA,NA,NA,NA,NA,NA,sub5
d3-animate-choice,261,845145,0.0-76.0-0.42,FALSE,FALSE,TRUE,FALSE,"""event"",""trial"",""time""
""fullscreenenter"",""5"",""19718""
","
","
","""event"",""trial"",""time""
""fullscreenenter"",""5"",""19718""
","
",380.7949998881668,NA,49,NA,NA,3000,1,NA,NA,images/earth.jpg,images/rocket1,images/rocket2,null,images/rocket2,NA,1,real,null,1,NA,NA,NA,sub5
d3-animate-choice,262,847823,0.0-76.0-1.42,FALSE,FALSE,TRUE,FALSE,"""event"",""trial"",""time""
""fullscreenenter"",""5"",""19718""
","
","
","""event"",""trial"",""time""
""fullscreenenter"",""5"",""19718""
","
",671.570000005886,NA,49,NA,NA,3000,1,NA,NA,images/purpleplanet.jpg,images/alien4,images/alien3,images/rocket2,images/alien3,images/nothing.png,2,real,false,1,rare,0,2020-06-11T12:30:47Z,sub5
two-step-fixation,263,848830,0.0-76.0-2.42,FALSE,FALSE,TRUE,FALSE,"""event"",""trial"",""time""
""fullscreenenter"",""5"",""19718""
","
","
","""event"",""trial"",""time""
""fullscreenenter"",""5"",""19718""
","
",NA,images/earth.jpg,NA,NA,NA,NA,NA,NA,NA,NA,NA,NA,NA,NA,NA,fixation,NA,NA,NA,NA,NA,NA,sub5
d3-animate-choice,264,851151,0.0-76.0-0.43,FALSE,FALSE,TRUE,FALSE,"""event"",""trial"",""time""
""fullscreenenter"",""5"",""19718""
","
","
","""event"",""trial"",""time""
""fullscreenenter"",""5"",""19718""
","
",314.17000014334917,NA,49,NA,NA,3000,1,NA,NA,images/earth.jpg,images/rocket1,images/rocket2,null,images/rocket2,NA,1,real,null,1,NA,NA,NA,sub5
d3-animate-choice,265,853454,0.0-76.0-1.43,FALSE,FALSE,TRUE,FALSE,"""event"",""trial"",""time""
""fullscreenenter"",""5"",""19718""
","
","
","""event"",""trial"",""time""
""fullscreenenter"",""5"",""19718""
","
",296.925000147894,NA,49,NA,NA,3000,1,NA,NA,images/redplanet1.jpg,images/alien2,images/alien1,images/rocket2,images/alien1,images/nothing.png,2,real,true,1,common,0,2020-06-11T12:30:53Z,sub5
two-step-fixation,266,854460,0.0-76.0-2.43,FALSE,FALSE,TRUE,FALSE,"""event"",""trial"",""time""
""fullscreenenter"",""5"",""19718""
","
","
","""event"",""trial"",""time""
""fullscreenenter"",""5"",""19718""
","
",NA,images/earth.jpg,NA,NA,NA,NA,NA,NA,NA,NA,NA,NA,NA,NA,NA,fixation,NA,NA,NA,NA,NA,NA,sub5
d3-animate-choice,267,856775,0.0-76.0-0.44,FALSE,FALSE,TRUE,FALSE,"""event"",""trial"",""time""
""fullscreenenter"",""5"",""19718""
","
","
","""event"",""trial"",""time""
""fullscreenenter"",""5"",""19718""
","
",308.04000003263354,NA,49,NA,NA,3000,1,NA,NA,images/earth.jpg,images/rocket1,images/rocket2,null,images/rocket2,NA,1,real,null,1,NA,NA,NA,sub5
d3-animate-choice,268,859206,0.0-76.0-1.44,FALSE,FALSE,TRUE,FALSE,"""event"",""trial"",""time""
""fullscreenenter"",""5"",""19718""
","
","
","""event"",""trial"",""time""
""fullscreenenter"",""5"",""19718""
","
",424.66999986208975,NA,49,NA,NA,3000,1,NA,NA,images/purpleplanet.jpg,images/alien4,images/alien3,images/rocket2,images/alien3,images/t.png,2,real,false,1,rare,1,2020-06-11T12:30:58Z,sub5
two-step-fixation,269,860213,0.0-76.0-2.44,FALSE,FALSE,TRUE,FALSE,"""event"",""trial"",""time""
""fullscreenenter"",""5"",""19718""
","
","
","""event"",""trial"",""time""
""fullscreenenter"",""5"",""19718""
","
",NA,images/earth.jpg,NA,NA,NA,NA,NA,NA,NA,NA,NA,NA,NA,NA,NA,fixation,NA,NA,NA,NA,NA,NA,sub5
d3-animate-choice,270,863038,0.0-76.0-0.45,FALSE,FALSE,TRUE,FALSE,"""event"",""trial"",""time""
""fullscreenenter"",""5"",""19718""
","
","
","""event"",""trial"",""time""
""fullscreenenter"",""5"",""19718""
","
",818.6749999877065,NA,48,NA,NA,3000,1,NA,NA,images/earth.jpg,images/rocket1,images/rocket2,null,images/rocket1,NA,1,real,null,2,NA,NA,NA,sub5
d3-animate-choice,271,865390,0.0-76.0-1.45,FALSE,FALSE,TRUE,FALSE,"""event"",""trial"",""time""
""fullscreenenter"",""5"",""19718""
","
","
","""event"",""trial"",""time""
""fullscreenenter"",""5"",""19718""
","
",345.0650000013411,NA,48,NA,NA,3000,1,NA,NA,images/purpleplanet.jpg,images/alien4,images/alien3,images/rocket1,images/alien4,images/nothing.png,2,real,true,2,common,0,2020-06-11T12:31:05Z,sub5
two-step-fixation,272,866397,0.0-76.0-2.45,FALSE,FALSE,TRUE,FALSE,"""event"",""trial"",""time""
""fullscreenenter"",""5"",""19718""
","
","
","""event"",""trial"",""time""
""fullscreenenter"",""5"",""19718""
","
",NA,images/earth.jpg,NA,NA,NA,NA,NA,NA,NA,NA,NA,NA,NA,NA,NA,fixation,NA,NA,NA,NA,NA,NA,sub5
d3-animate-choice,273,868453,0.0-76.0-0.46,FALSE,FALSE,TRUE,FALSE,"""event"",""trial"",""time""
""fullscreenenter"",""5"",""19718""
","
","
","""event"",""trial"",""time""
""fullscreenenter"",""5"",""19718""
","
",51.1799999512732,NA,49,NA,NA,3000,1,299.12499990314245,49,images/earth.jpg,images/rocket1,images/rocket2,null,images/rocket2,NA,1,real,null,1,NA,NA,NA,sub5
d3-animate-choice,274,870933,0.0-76.0-1.46,FALSE,FALSE,TRUE,FALSE,"""event"",""trial"",""time""
""fullscreenenter"",""5"",""19718""
","
","
","""event"",""trial"",""time""
""fullscreenenter"",""5"",""19718""
","
",474.23000005073845,NA,48,NA,NA,3000,1,NA,NA,images/redplanet1.jpg,images/alien2,images/alien1,images/rocket2,images/alien2,images/nothing.png,2,real,true,2,common,0,2020-06-11T12:31:10Z,sub5
two-step-fixation,275,871939,0.0-76.0-2.46,FALSE,FALSE,TRUE,FALSE,"""event"",""trial"",""time""
""fullscreenenter"",""5"",""19718""
","
","
","""event"",""trial"",""time""
""fullscreenenter"",""5"",""19718""
","
",NA,images/earth.jpg,NA,NA,NA,NA,NA,NA,NA,NA,NA,NA,NA,NA,NA,fixation,NA,NA,NA,NA,NA,NA,sub5
d3-animate-choice,276,874352,0.0-76.0-0.47,FALSE,FALSE,TRUE,FALSE,"""event"",""trial"",""time""
""fullscreenenter"",""5"",""19718""
","
","
","""event"",""trial"",""time""
""fullscreenenter"",""5"",""19718""
","
",403.81999989040196,NA,49,NA,NA,3000,1,NA,NA,images/earth.jpg,images/rocket1,images/rocket2,null,images/rocket2,NA,1,real,null,1,NA,NA,NA,sub5
d3-animate-choice,277,877416,0.0-76.0-1.47,FALSE,FALSE,TRUE,FALSE,"""event"",""trial"",""time""
""fullscreenenter"",""5"",""19718""
","
","
","""event"",""trial"",""time""
""fullscreenenter"",""5"",""19718""
","
",1056.8500000517815,NA,49,NA,NA,3000,1,NA,NA,images/redplanet1.jpg,images/alien2,images/alien1,images/rocket2,images/alien1,images/t.png,2,real,true,1,common,1,2020-06-11T12:31:17Z,sub5
two-step-fixation,278,878422,0.0-76.0-2.47,FALSE,FALSE,TRUE,FALSE,"""event"",""trial"",""time""
""fullscreenenter"",""5"",""19718""
","
","
","""event"",""trial"",""time""
""fullscreenenter"",""5"",""19718""
","
",NA,images/earth.jpg,NA,NA,NA,NA,NA,NA,NA,NA,NA,NA,NA,NA,NA,fixation,NA,NA,NA,NA,NA,NA,sub5
d3-animate-choice,279,882429,0.0-76.0-0.48,FALSE,FALSE,TRUE,FALSE,"""event"",""trial"",""time""
""fullscreenenter"",""5"",""19718""
","
","
","""event"",""trial"",""time""
""fullscreenenter"",""5"",""19718""
","
",2092.6500000059605,NA,49,NA,NA,3000,1,NA,NA,images/earth.jpg,images/rocket1,images/rocket2,null,images/rocket2,NA,1,real,null,1,NA,NA,NA,sub5
d3-animate-choice,280,885080,0.0-76.0-1.48,FALSE,FALSE,TRUE,FALSE,"""event"",""trial"",""time""
""fullscreenenter"",""5"",""19718""
","
","
","""event"",""trial"",""time""
""fullscreenenter"",""5"",""19718""
","
",643.940000096336,NA,49,NA,NA,3000,1,NA,NA,images/redplanet1.jpg,images/alien2,images/alien1,images/rocket2,images/alien1,images/t.png,2,real,true,1,common,1,2020-06-11T12:31:24Z,sub5
two-step-fixation,281,886087,0.0-76.0-2.48,FALSE,FALSE,TRUE,FALSE,"""event"",""trial"",""time""
""fullscreenenter"",""5"",""19718""
","
","
","""event"",""trial"",""time""
""fullscreenenter"",""5"",""19718""
","
",NA,images/earth.jpg,NA,NA,NA,NA,NA,NA,NA,NA,NA,NA,NA,NA,NA,fixation,NA,NA,NA,NA,NA,NA,sub5
d3-animate-choice,282,890094,0.0-76.0-0.49,FALSE,FALSE,TRUE,FALSE,"""event"",""trial"",""time""
""fullscreenenter"",""5"",""19718""
","
","
","""event"",""trial"",""time""
""fullscreenenter"",""5"",""19718""
","
",null,NA,null,NA,NA,3000,0,NA,NA,images/earth.jpg,images/rocket1,images/rocket2,null,NA,NA,1,real,null,NA,NA,NA,NA,sub5
d3-animate-choice,283,891104,0.0-76.0-1.49,FALSE,FALSE,TRUE,FALSE,"""event"",""trial"",""time""
""fullscreenenter"",""5"",""19718""
","
","
","""event"",""trial"",""time""
""fullscreenenter"",""5"",""19718""
","
