trial_type,trial_index,time_elapsed,internal_node_id,rocket_sides,red_planet_first_rocket,red_display_order,purple_display_order,interactions,blur_events,focus_events,fullscreenenter_events,fullscreenexit_events,rt,stimulus,key_press,button_pressed,success,duration,valid_pressed,rts,keys,planet_text,right_text,left_text,center_text,chosen_text,reward_text,trial_stage,practice_trial,transition_type,choice,transition,reward,timestamp,subject_id
pavlovia,0,31,0.0-0.0,FALSE,TRUE,TRUE,FALSE,"""event"",""trial"",""time""
""blur"",""0"",""0""
""focus"",""1"",""13850""
""blur"",""1"",""15899""
""focus"",""1"",""130124""
","""event"",""trial"",""time""
""blur"",""0"",""0""
""blur"",""1"",""15899""
","""event"",""trial"",""time""
""focus"",""1"",""13850""
""focus"",""1"",""130124""
","
","
",NA,NA,NA,NA,NA,NA,NA,NA,NA,NA,NA,NA,NA,NA,NA,NA,NA,NA,NA,NA,NA,NA,sub141
html-keyboard-response,1,131714,0.0-1.0,FALSE,TRUE,TRUE,FALSE,"""event"",""trial"",""time""
""blur"",""0"",""0""
""focus"",""1"",""13850""
""blur"",""1"",""15899""
""focus"",""1"",""130124""
","""event"",""trial"",""time""
""blur"",""0"",""0""
""blur"",""1"",""15899""
","""event"",""trial"",""time""
""focus"",""1"",""13850""
""focus"",""1"",""130124""
","
","
",131671.81500000058,Welcome! Press the space bar to begin.,32,NA,NA,NA,NA,NA,NA,NA,NA,NA,NA,NA,NA,NA,NA,NA,NA,NA,NA,NA,sub141
audio-keyboard-response,2,134560,0.0-2.0,FALSE,TRUE,TRUE,FALSE,"""event"",""trial"",""time""
""blur"",""0"",""0""
""focus"",""1"",""13850""
""blur"",""1"",""15899""
""focus"",""1"",""130124""
","""event"",""trial"",""time""
""blur"",""0"",""0""
""blur"",""1"",""15899""
","""event"",""trial"",""time""
""focus"",""1"",""13850""
""focus"",""1"",""130124""
","
","
",2280,audio/beep_loop.wav,32,NA,NA,NA,NA,NA,NA,NA,NA,NA,NA,NA,NA,NA,NA,NA,NA,NA,NA,NA,sub141
audio-button-response,3,137471,0.0-3.0,FALSE,TRUE,TRUE,FALSE,"""event"",""trial"",""time""
""blur"",""0"",""0""
""focus"",""1"",""13850""
""blur"",""1"",""15899""
""focus"",""1"",""130124""
","""event"",""trial"",""time""
""blur"",""0"",""0""
""blur"",""1"",""15899""
","""event"",""trial"",""time""
""focus"",""1"",""13850""
""focus"",""1"",""130124""
","
","
",NaN,audio/fish.mp3,NA,1,NA,NA,NA,NA,NA,NA,NA,NA,NA,NA,NA,NA,NA,NA,NA,NA,NA,NA,sub141
audio-button-response,4,140027,0.0-4.0,FALSE,TRUE,TRUE,FALSE,"""event"",""trial"",""time""
""blur"",""0"",""0""
""focus"",""1"",""13850""
""blur"",""1"",""15899""
""focus"",""1"",""130124""
""fullscreenenter"",""5"",""143911""
","""event"",""trial"",""time""
""blur"",""0"",""0""
""blur"",""1"",""15899""
","""event"",""trial"",""time""
""focus"",""1"",""13850""
""focus"",""1"",""130124""
","""event"",""trial"",""time""
""fullscreenenter"",""5"",""143911""
","
",NaN,audio/tiger.mp3,NA,4,NA,NA,NA,NA,NA,NA,NA,NA,NA,NA,NA,NA,NA,NA,NA,NA,NA,NA,sub141
fullscreen,5,144743,0.0-5.0,FALSE,TRUE,TRUE,FALSE,"""event"",""trial"",""time""
""blur"",""0"",""0""
""focus"",""1"",""13850""
""blur"",""1"",""15899""
""focus"",""1"",""130124""
""fullscreenenter"",""5"",""143911""
","""event"",""trial"",""time""
""blur"",""0"",""0""
""blur"",""1"",""15899""
","""event"",""trial"",""time""
""focus"",""1"",""13850""
""focus"",""1"",""130124""
","""event"",""trial"",""time""
""fullscreenenter"",""5"",""143911""
","
",NA,NA,NA,NA,TRUE,NA,NA,NA,NA,NA,NA,NA,NA,NA,NA,NA,NA,NA,NA,NA,NA,NA,sub141
d3-instructions,6,151794,0.0-6.0,FALSE,TRUE,TRUE,FALSE,"""event"",""trial"",""time""
""blur"",""0"",""0""
""focus"",""1"",""13850""
""blur"",""1"",""15899""
""focus"",""1"",""130124""
""fullscreenenter"",""5"",""143911""
","""event"",""trial"",""time""
""blur"",""0"",""0""
""blur"",""1"",""15899""
","""event"",""trial"",""time""
""focus"",""1"",""13850""
""focus"",""1"",""130124""
","""event"",""trial"",""time""
""fullscreenenter"",""5"",""143911""
","
",NA,NA,NA,NA,NA,NA,NA,NA,NA,NA,NA,NA,NA,NA,NA,NA,NA,NA,NA,NA,NA,NA,sub141
d3-instructions,7,160066,0.0-7.0,FALSE,TRUE,TRUE,FALSE,"""event"",""trial"",""time""
""blur"",""0"",""0""
""focus"",""1"",""13850""
""blur"",""1"",""15899""
""focus"",""1"",""130124""
""fullscreenenter"",""5"",""143911""
","""event"",""trial"",""time""
""blur"",""0"",""0""
""blur"",""1"",""15899""
","""event"",""trial"",""time""
""focus"",""1"",""13850""
""focus"",""1"",""130124""
","""event"",""trial"",""time""
""fullscreenenter"",""5"",""143911""
","
",NA,NA,NA,NA,NA,NA,NA,NA,NA,NA,NA,NA,NA,NA,NA,NA,NA,NA,NA,NA,NA,NA,sub141
d3-instructions,8,167394,0.0-8.0,FALSE,TRUE,TRUE,FALSE,"""event"",""trial"",""time""
""blur"",""0"",""0""
""focus"",""1"",""13850""
""blur"",""1"",""15899""
""focus"",""1"",""130124""
""fullscreenenter"",""5"",""143911""
","""event"",""trial"",""time""
""blur"",""0"",""0""
""blur"",""1"",""15899""
","""event"",""trial"",""time""
""focus"",""1"",""13850""
""focus"",""1"",""130124""
","""event"",""trial"",""time""
""fullscreenenter"",""5"",""143911""
","
",NA,NA,NA,NA,NA,NA,NA,NA,NA,NA,NA,NA,NA,NA,NA,NA,NA,NA,NA,NA,NA,NA,sub141
d3-instructions,9,178627,0.0-9.0,FALSE,TRUE,TRUE,FALSE,"""event"",""trial"",""time""
""blur"",""0"",""0""
""focus"",""1"",""13850""
""blur"",""1"",""15899""
""focus"",""1"",""130124""
""fullscreenenter"",""5"",""143911""
","""event"",""trial"",""time""
""blur"",""0"",""0""
""blur"",""1"",""15899""
","""event"",""trial"",""time""
""focus"",""1"",""13850""
""focus"",""1"",""130124""
","""event"",""trial"",""time""
""fullscreenenter"",""5"",""143911""
","
",NA,NA,NA,NA,NA,NA,NA,NA,NA,NA,NA,NA,NA,NA,NA,NA,NA,NA,NA,NA,NA,NA,sub141
d3-instructions,10,194796,0.0-10.0,FALSE,TRUE,TRUE,FALSE,"""event"",""trial"",""time""
""blur"",""0"",""0""
""focus"",""1"",""13850""
""blur"",""1"",""15899""
""focus"",""1"",""130124""
""fullscreenenter"",""5"",""143911""
","""event"",""trial"",""time""
""blur"",""0"",""0""
""blur"",""1"",""15899""
","""event"",""trial"",""time""
""focus"",""1"",""13850""
""focus"",""1"",""130124""
","""event"",""trial"",""time""
""fullscreenenter"",""5"",""143911""
","
",NA,NA,NA,NA,NA,NA,NA,NA,NA,NA,NA,NA,NA,NA,NA,NA,NA,NA,NA,NA,NA,NA,sub141
d3-animate-choice,11,205439,0.0-11.0,FALSE,TRUE,TRUE,FALSE,"""event"",""trial"",""time""
""blur"",""0"",""0""
""focus"",""1"",""13850""
""blur"",""1"",""15899""
""focus"",""1"",""130124""
""fullscreenenter"",""5"",""143911""
","""event"",""trial"",""time""
""blur"",""0"",""0""
""blur"",""1"",""15899""
","""event"",""trial"",""time""
""focus"",""1"",""13850""
""focus"",""1"",""130124""
","""event"",""trial"",""time""
""fullscreenenter"",""5"",""143911""
","
",1673.080000000482,NA,97,NA,NA,3000,1,"3401.1150000005728,4201.565000000293,4785.405000000552,5121.265000000683,8625.614999999932,10137.550000000367",969796974948,images/tutgreenplanet.jpg,images/tutalien1,images/tutalien2,null,images/tutalien2,NA,NA,practice,null,NA,NA,NA,NA,sub141
d3-animate-choice,12,208807,0.0-12.0,FALSE,TRUE,TRUE,FALSE,"""event"",""trial"",""time""
""blur"",""0"",""0""
""focus"",""1"",""13850""
""blur"",""1"",""15899""
""focus"",""1"",""130124""
""fullscreenenter"",""5"",""143911""
","""event"",""trial"",""time""
""blur"",""0"",""0""
""blur"",""1"",""15899""
","""event"",""trial"",""time""
""focus"",""1"",""13850""
""focus"",""1"",""130124""
","""event"",""trial"",""time""
""fullscreenenter"",""5"",""143911""
","
",1359.6300000008487,NA,48,NA,NA,3000,1,NA,NA,images/tutgreenplanet.jpg,images/tutalien1,images/tutalien2,null,images/tutalien1,NA,NA,practice,null,NA,NA,NA,NA,sub141
d3-animate-choice,13,213688,0.0-13.0,FALSE,TRUE,TRUE,FALSE,"""event"",""trial"",""time""
""blur"",""0"",""0""
""focus"",""1"",""13850""
""blur"",""1"",""15899""
""focus"",""1"",""130124""
""fullscreenenter"",""5"",""143911""
","""event"",""trial"",""time""
""blur"",""0"",""0""
""blur"",""1"",""15899""
","""event"",""trial"",""time""
""focus"",""1"",""13850""
""focus"",""1"",""130124""
","""event"",""trial"",""time""
""fullscreenenter"",""5"",""143911""
","
",968.6750000000757,NA,97,NA,NA,3000,1,"1671.984999999957,2872.29000000027",9649,images/tutgreenplanet.jpg,images/tutalien1,images/tutalien2,null,images/tutalien2,NA,NA,practice,null,NA,NA,NA,NA,sub141
d3-animate-choice,14,216120,0.0-14.0,FALSE,TRUE,TRUE,FALSE,"""event"",""trial"",""time""
""blur"",""0"",""0""
""focus"",""1"",""13850""
""blur"",""1"",""15899""
""focus"",""1"",""130124""
""fullscreenenter"",""5"",""143911""
","""event"",""trial"",""time""
""blur"",""0"",""0""
""blur"",""1"",""15899""
","""event"",""trial"",""time""
""focus"",""1"",""13850""
""focus"",""1"",""130124""
","""event"",""trial"",""time""
""fullscreenenter"",""5"",""143911""
","
",424.19499999959953,NA,48,NA,NA,3000,1,NA,NA,images/tutgreenplanet.jpg,images/tutalien1,images/tutalien2,null,images/tutalien1,NA,NA,practice,null,NA,NA,NA,NA,sub141
d3-instructions,15,222885,0.0-15.0,FALSE,TRUE,TRUE,FALSE,"""event"",""trial"",""time""
""blur"",""0"",""0""
""focus"",""1"",""13850""
""blur"",""1"",""15899""
""focus"",""1"",""130124""
""fullscreenenter"",""5"",""143911""
","""event"",""trial"",""time""
""blur"",""0"",""0""
""blur"",""1"",""15899""
","""event"",""trial"",""time""
""focus"",""1"",""13850""
""focus"",""1"",""130124""
","""event"",""trial"",""time""
""fullscreenenter"",""5"",""143911""
","
",NA,NA,NA,NA,NA,NA,NA,NA,NA,NA,NA,NA,NA,NA,NA,NA,NA,NA,NA,NA,NA,NA,sub141
d3-instructions,16,227758,0.0-16.0,FALSE,TRUE,TRUE,FALSE,"""event"",""trial"",""time""
""blur"",""0"",""0""
""focus"",""1"",""13850""
""blur"",""1"",""15899""
""focus"",""1"",""130124""
""fullscreenenter"",""5"",""143911""
","""event"",""trial"",""time""
""blur"",""0"",""0""
""blur"",""1"",""15899""
","""event"",""trial"",""time""
""focus"",""1"",""13850""
""focus"",""1"",""130124""
","""event"",""trial"",""time""
""fullscreenenter"",""5"",""143911""
","
",NA,NA,NA,NA,NA,NA,NA,NA,NA,NA,NA,NA,NA,NA,NA,NA,NA,NA,NA,NA,NA,NA,sub141
d3-instructions,17,249248,0.0-17.0,FALSE,TRUE,TRUE,FALSE,"""event"",""trial"",""time""
""blur"",""0"",""0""
""focus"",""1"",""13850""
""blur"",""1"",""15899""
""focus"",""1"",""130124""
""fullscreenenter"",""5"",""143911""
","""event"",""trial"",""time""
""blur"",""0"",""0""
""blur"",""1"",""15899""
","""event"",""trial"",""time""
""focus"",""1"",""13850""
""focus"",""1"",""130124""
","""event"",""trial"",""time""
""fullscreenenter"",""5"",""143911""
","
",NA,NA,NA,NA,NA,NA,NA,NA,NA,NA,NA,NA,NA,NA,NA,NA,NA,NA,NA,NA,NA,NA,sub141
d3-instructions,18,255495,0.0-18.0,FALSE,TRUE,TRUE,FALSE,"""event"",""trial"",""time""
""blur"",""0"",""0""
""focus"",""1"",""13850""
""blur"",""1"",""15899""
""focus"",""1"",""130124""
""fullscreenenter"",""5"",""143911""
","""event"",""trial"",""time""
""blur"",""0"",""0""
""blur"",""1"",""15899""
","""event"",""trial"",""time""
""focus"",""1"",""13850""
""focus"",""1"",""130124""
","""event"",""trial"",""time""
""fullscreenenter"",""5"",""143911""
","
",NA,NA,NA,NA,NA,NA,NA,NA,NA,NA,NA,NA,NA,NA,NA,NA,NA,NA,NA,NA,NA,NA,sub141
d3-instructions,19,266695,0.0-19.0,FALSE,TRUE,TRUE,FALSE,"""event"",""trial"",""time""
""blur"",""0"",""0""
""focus"",""1"",""13850""
""blur"",""1"",""15899""
""focus"",""1"",""130124""
""fullscreenenter"",""5"",""143911""
","""event"",""trial"",""time""
""blur"",""0"",""0""
""blur"",""1"",""15899""
","""event"",""trial"",""time""
""focus"",""1"",""13850""
""focus"",""1"",""130124""
","""event"",""trial"",""time""
""fullscreenenter"",""5"",""143911""
","
",NA,NA,NA,NA,NA,NA,NA,NA,NA,NA,NA,NA,NA,NA,NA,NA,NA,NA,NA,NA,NA,NA,sub141
d3-animate-choice,20,272043,0.0-20.0,FALSE,TRUE,TRUE,FALSE,"""event"",""trial"",""time""
""blur"",""0"",""0""
""focus"",""1"",""13850""
""blur"",""1"",""15899""
""focus"",""1"",""130124""
""fullscreenenter"",""5"",""143911""
","""event"",""trial"",""time""
""blur"",""0"",""0""
""blur"",""1"",""15899""
","""event"",""trial"",""time""
""focus"",""1"",""13850""
""focus"",""1"",""130124""
","""event"",""trial"",""time""
""fullscreenenter"",""5"",""143911""
","
",1298.4500000002445,NA,97,NA,NA,3000,1,"1794.3100000002305,2210.5899999996764,3338.824999999837,3643.0300000002026,4010.63999999949,4370.729999999632,4770.84999999986,5234.805000000051",9797494949494948,images/tutyellowplanet.jpg,null,images/tutalien3,null,images/tutalien3,images/t.png,NA,practice,null,NA,NA,NA,NA,sub141
d3-animate-choice,21,274642,0.0-21.0,FALSE,TRUE,TRUE,FALSE,"""event"",""trial"",""time""
""blur"",""0"",""0""
""focus"",""1"",""13850""
""blur"",""1"",""15899""
""focus"",""1"",""130124""
""fullscreenenter"",""5"",""143911""
","""event"",""trial"",""time""
""blur"",""0"",""0""
""blur"",""1"",""15899""
","""event"",""trial"",""time""
""focus"",""1"",""13850""
""focus"",""1"",""130124""
","""event"",""trial"",""time""
""fullscreenenter"",""5"",""143911""
","
",592.1799999996438,NA,49,NA,NA,3000,1,NA,NA,images/tutyellowplanet.jpg,null,images/tutalien3,null,images/tutalien3,images/nothing.png,NA,practice,null,NA,NA,NA,NA,sub141
d3-animate-choice,22,277082,0.0-22.0,FALSE,TRUE,TRUE,FALSE,"""event"",""trial"",""time""
""blur"",""0"",""0""
""focus"",""1"",""13850""
""blur"",""1"",""15899""
""focus"",""1"",""130124""
""fullscreenenter"",""5"",""143911""
","""event"",""trial"",""time""
""blur"",""0"",""0""
""blur"",""1"",""15899""
","""event"",""trial"",""time""
""focus"",""1"",""13850""
""focus"",""1"",""130124""
","""event"",""trial"",""time""
""fullscreenenter"",""5"",""143911""
","
",434.1850000000559,NA,49,NA,NA,3000,1,2282.709999999497,49,images/tutyellowplanet.jpg,null,images/tutalien3,null,images/tutalien3,images/t.png,NA,practice,null,NA,NA,NA,NA,sub141
d3-animate-choice,23,279515,0.0-23.0,FALSE,TRUE,TRUE,FALSE,"""event"",""trial"",""time""
""blur"",""0"",""0""
""focus"",""1"",""13850""
""blur"",""1"",""15899""
""focus"",""1"",""130124""
""fullscreenenter"",""5"",""143911""
","""event"",""trial"",""time""
""blur"",""0"",""0""
""blur"",""1"",""15899""
","""event"",""trial"",""time""
""focus"",""1"",""13850""
""focus"",""1"",""130124""
","""event"",""trial"",""time""
""fullscreenenter"",""5"",""143911""
","
",425.3150000004098,NA,49,NA,NA,3000,1,NA,NA,images/tutyellowplanet.jpg,null,images/tutalien3,null,images/tutalien3,images/t.png,NA,practice,null,NA,NA,NA,NA,sub141
d3-animate-choice,24,281962,0.0-24.0,FALSE,TRUE,TRUE,FALSE,"""event"",""trial"",""time""
""blur"",""0"",""0""
""focus"",""1"",""13850""
""blur"",""1"",""15899""
""focus"",""1"",""130124""
""fullscreenenter"",""5"",""143911""
","""event"",""trial"",""time""
""blur"",""0"",""0""
""blur"",""1"",""15899""
","""event"",""trial"",""time""
""focus"",""1"",""13850""
""focus"",""1"",""130124""
","""event"",""trial"",""time""
""fullscreenenter"",""5"",""143911""
","
",440.16499999997905,NA,49,NA,NA,3000,1,NA,NA,images/tutyellowplanet.jpg,null,images/tutalien3,null,images/tutalien3,images/nothing.png,NA,practice,null,NA,NA,NA,NA,sub141
d3-animate-choice,25,284338,0.0-25.0,FALSE,TRUE,TRUE,FALSE,"""event"",""trial"",""time""
""blur"",""0"",""0""
""focus"",""1"",""13850""
""blur"",""1"",""15899""
""focus"",""1"",""130124""
""fullscreenenter"",""5"",""143911""
","""event"",""trial"",""time""
""blur"",""0"",""0""
""blur"",""1"",""15899""
","""event"",""trial"",""time""
""focus"",""1"",""13850""
""focus"",""1"",""130124""
","""event"",""trial"",""time""
""fullscreenenter"",""5"",""143911""
","
",370.36499999975786,NA,49,NA,NA,3000,1,NA,NA,images/tutyellowplanet.jpg,null,images/tutalien3,null,images/tutalien3,images/t.png,NA,practice,null,NA,NA,NA,NA,sub141
d3-animate-choice,26,286450,0.0-26.0,FALSE,TRUE,TRUE,FALSE,"""event"",""trial"",""time""
""blur"",""0"",""0""
""focus"",""1"",""13850""
""blur"",""1"",""15899""
""focus"",""1"",""130124""
""fullscreenenter"",""5"",""143911""
","""event"",""trial"",""time""
""blur"",""0"",""0""
""blur"",""1"",""15899""
","""event"",""trial"",""time""
""focus"",""1"",""13850""
""focus"",""1"",""130124""
","""event"",""trial"",""time""
""fullscreenenter"",""5"",""143911""
","
",104.00000000029104,NA,49,NA,NA,3000,1,NA,NA,images/tutyellowplanet.jpg,null,images/tutalien3,null,images/tutalien3,images/t.png,NA,practice,null,NA,NA,NA,NA,sub141
d3-animate-choice,27,288586,0.0-27.0,FALSE,TRUE,TRUE,FALSE,"""event"",""trial"",""time""
""blur"",""0"",""0""
""focus"",""1"",""13850""
""blur"",""1"",""15899""
""focus"",""1"",""130124""
""fullscreenenter"",""5"",""143911""
","""event"",""trial"",""time""
""blur"",""0"",""0""
""blur"",""1"",""15899""
","""event"",""trial"",""time""
""focus"",""1"",""13850""
""focus"",""1"",""130124""
","""event"",""trial"",""time""
""fullscreenenter"",""5"",""143911""
","
",130.44499999977415,NA,49,NA,NA,3000,1,1914.2849999997998,49,images/tutyellowplanet.jpg,null,images/tutalien3,null,images/tutalien3,images/t.png,NA,practice,null,NA,NA,NA,NA,sub141
d3-animate-choice,28,291018,0.0-28.0,FALSE,TRUE,TRUE,FALSE,"""event"",""trial"",""time""
""blur"",""0"",""0""
""focus"",""1"",""13850""
""blur"",""1"",""15899""
""focus"",""1"",""130124""
""fullscreenenter"",""5"",""143911""
","""event"",""trial"",""time""
""blur"",""0"",""0""
""blur"",""1"",""15899""
","""event"",""trial"",""time""
""focus"",""1"",""13850""
""focus"",""1"",""130124""
","""event"",""trial"",""time""
""fullscreenenter"",""5"",""143911""
","
",426.34499999985565,NA,49,NA,NA,3000,1,2418.4849999992293,49,images/tutyellowplanet.jpg,null,images/tutalien3,null,images/tutalien3,images/t.png,NA,practice,null,NA,NA,NA,NA,sub141
d3-animate-choice,29,293650,0.0-29.0,FALSE,TRUE,TRUE,FALSE,"""event"",""trial"",""time""
""blur"",""0"",""0""
""focus"",""1"",""13850""
""blur"",""1"",""15899""
""focus"",""1"",""130124""
""fullscreenenter"",""5"",""143911""
","""event"",""trial"",""time""
""blur"",""0"",""0""
""blur"",""1"",""15899""
","""event"",""trial"",""time""
""focus"",""1"",""13850""
""focus"",""1"",""130124""
","""event"",""trial"",""time""
""fullscreenenter"",""5"",""143911""
","
",626.2500000002328,NA,49,NA,NA,3000,1,"2147.0600000002305,2626.295000000042",4949,images/tutyellowplanet.jpg,null,images/tutalien3,null,images/tutalien3,images/t.png,NA,practice,null,NA,NA,NA,NA,sub141
d3-instructions,30,297793,0.0-30.0,FALSE,TRUE,TRUE,FALSE,"""event"",""trial"",""time""
""blur"",""0"",""0""
""focus"",""1"",""13850""
""blur"",""1"",""15899""
""focus"",""1"",""130124""
""fullscreenenter"",""5"",""143911""
","""event"",""trial"",""time""
""blur"",""0"",""0""
""blur"",""1"",""15899""
","""event"",""trial"",""time""
""focus"",""1"",""13850""
""focus"",""1"",""130124""
","""event"",""trial"",""time""
""fullscreenenter"",""5"",""143911""
","
",NA,NA,NA,NA,NA,NA,NA,NA,NA,NA,NA,NA,NA,NA,NA,NA,NA,NA,NA,NA,NA,NA,sub141
d3-instructions,31,301737,0.0-31.0,FALSE,TRUE,TRUE,FALSE,"""event"",""trial"",""time""
""blur"",""0"",""0""
""focus"",""1"",""13850""
""blur"",""1"",""15899""
""focus"",""1"",""130124""
""fullscreenenter"",""5"",""143911""
","""event"",""trial"",""time""
""blur"",""0"",""0""
""blur"",""1"",""15899""
","""event"",""trial"",""time""
""focus"",""1"",""13850""
""focus"",""1"",""130124""
","""event"",""trial"",""time""
""fullscreenenter"",""5"",""143911""
","
",NA,NA,NA,NA,NA,NA,NA,NA,NA,NA,NA,NA,NA,NA,NA,NA,NA,NA,NA,NA,NA,NA,sub141
d3-instructions,32,305522,0.0-32.0,FALSE,TRUE,TRUE,FALSE,"""event"",""trial"",""time""
""blur"",""0"",""0""
""focus"",""1"",""13850""
""blur"",""1"",""15899""
""focus"",""1"",""130124""
""fullscreenenter"",""5"",""143911""
","""event"",""trial"",""time""
""blur"",""0"",""0""
""blur"",""1"",""15899""
","""event"",""trial"",""time""
""focus"",""1"",""13850""
""focus"",""1"",""130124""
","""event"",""trial"",""time""
""fullscreenenter"",""5"",""143911""
","
",NA,NA,NA,NA,NA,NA,NA,NA,NA,NA,NA,NA,NA,NA,NA,NA,NA,NA,NA,NA,NA,NA,sub141
d3-instructions,33,312602,0.0-33.0,FALSE,TRUE,TRUE,FALSE,"""event"",""trial"",""time""
""blur"",""0"",""0""
""focus"",""1"",""13850""
""blur"",""1"",""15899""
""focus"",""1"",""130124""
""fullscreenenter"",""5"",""143911""
","""event"",""trial"",""time""
""blur"",""0"",""0""
""blur"",""1"",""15899""
","""event"",""trial"",""time""
""focus"",""1"",""13850""
""focus"",""1"",""130124""
","""event"",""trial"",""time""
""fullscreenenter"",""5"",""143911""
","
",NA,NA,NA,NA,NA,NA,NA,NA,NA,NA,NA,NA,NA,NA,NA,NA,NA,NA,NA,NA,NA,NA,sub141
d3-animate-choice,34,316581,0.0-34.0,FALSE,TRUE,TRUE,FALSE,"""event"",""trial"",""time""
""blur"",""0"",""0""
""focus"",""1"",""13850""
""blur"",""1"",""15899""
""focus"",""1"",""130124""
""fullscreenenter"",""5"",""143911""
","""event"",""trial"",""time""
""blur"",""0"",""0""
""blur"",""1"",""15899""
","""event"",""trial"",""time""
""focus"",""1"",""13850""
""focus"",""1"",""130124""
","""event"",""trial"",""time""
""fullscreenenter"",""5"",""143911""
","
",1970.655000000028,NA,49,NA,NA,3000,1,NA,NA,images/tutgreenplanet.jpg,images/tutalien1,images/tutalien2,null,images/tutalien2,images/t.png,NA,practice,null,NA,NA,NA,NA,sub141
d3-animate-choice,35,320420,0.0-35.0,FALSE,TRUE,TRUE,FALSE,"""event"",""trial"",""time""
""blur"",""0"",""0""
""focus"",""1"",""13850""
""blur"",""1"",""15899""
""focus"",""1"",""130124""
""fullscreenenter"",""5"",""143911""
","""event"",""trial"",""time""
""blur"",""0"",""0""
""blur"",""1"",""15899""
","""event"",""trial"",""time""
""focus"",""1"",""13850""
""focus"",""1"",""130124""
","""event"",""trial"",""time""
""fullscreenenter"",""5"",""143911""
","
",1833.7600000004168,NA,48,NA,NA,3000,1,NA,NA,images/tutgreenplanet.jpg,images/tutalien1,images/tutalien2,null,images/tutalien1,images/nothing.png,NA,practice,null,NA,NA,NA,NA,sub141
d3-animate-choice,36,323229,0.0-36.0,FALSE,TRUE,TRUE,FALSE,"""event"",""trial"",""time""
""blur"",""0"",""0""
""focus"",""1"",""13850""
""blur"",""1"",""15899""
""focus"",""1"",""130124""
""fullscreenenter"",""5"",""143911""
","""event"",""trial"",""time""
""blur"",""0"",""0""
""blur"",""1"",""15899""
","""event"",""trial"",""time""
""focus"",""1"",""13850""
""focus"",""1"",""130124""
","""event"",""trial"",""time""
""fullscreenenter"",""5"",""143911""
","
",801.5450000002747,NA,49,NA,NA,3000,1,NA,NA,images/tutgreenplanet.jpg,images/tutalien1,images/tutalien2,null,images/tutalien2,images/t.png,NA,practice,null,NA,NA,NA,NA,sub141
d3-animate-choice,37,325757,0.0-37.0,FALSE,TRUE,TRUE,FALSE,"""event"",""trial"",""time""
""blur"",""0"",""0""
""focus"",""1"",""13850""
""blur"",""1"",""15899""
""focus"",""1"",""130124""
""fullscreenenter"",""5"",""143911""
","""event"",""trial"",""time""
""blur"",""0"",""0""
""blur"",""1"",""15899""
","""event"",""trial"",""time""
""focus"",""1"",""13850""
""focus"",""1"",""130124""
","""event"",""trial"",""time""
""fullscreenenter"",""5"",""143911""
","
",522.0600000002305,NA,49,NA,NA,3000,1,NA,NA,images/tutgreenplanet.jpg,images/tutalien1,images/tutalien2,null,images/tutalien2,images/t.png,NA,practice,null,NA,NA,NA,NA,sub141
d3-animate-choice,38,328509,0.0-38.0,FALSE,TRUE,TRUE,FALSE,"""event"",""trial"",""time""
""blur"",""0"",""0""
""focus"",""1"",""13850""
""blur"",""1"",""15899""
""focus"",""1"",""130124""
""fullscreenenter"",""5"",""143911""
","""event"",""trial"",""time""
""blur"",""0"",""0""
""blur"",""1"",""15899""
","""event"",""trial"",""time""
""focus"",""1"",""13850""
""focus"",""1"",""130124""
","""event"",""trial"",""time""
""fullscreenenter"",""5"",""143911""
","
",745.4399999997113,NA,49,NA,NA,3000,1,NA,NA,images/tutgreenplanet.jpg,images/tutalien1,images/tutalien2,null,images/tutalien2,images/t.png,NA,practice,null,NA,NA,NA,NA,sub141
d3-animate-choice,39,330869,0.0-39.0,FALSE,TRUE,TRUE,FALSE,"""event"",""trial"",""time""
""blur"",""0"",""0""
""focus"",""1"",""13850""
""blur"",""1"",""15899""
""focus"",""1"",""130124""
""fullscreenenter"",""5"",""143911""
","""event"",""trial"",""time""
""blur"",""0"",""0""
""blur"",""1"",""15899""
","""event"",""trial"",""time""
""focus"",""1"",""13850""
""focus"",""1"",""130124""
","""event"",""trial"",""time""
""fullscreenenter"",""5"",""143911""
","
",353.9400000000023,NA,49,NA,NA,3000,1,NA,NA,images/tutgreenplanet.jpg,images/tutalien1,images/tutalien2,null,images/tutalien2,images/t.png,NA,practice,null,NA,NA,NA,NA,sub141
d3-animate-choice,40,333046,0.0-40.0,FALSE,TRUE,TRUE,FALSE,"""event"",""trial"",""time""
""blur"",""0"",""0""
""focus"",""1"",""13850""
""blur"",""1"",""15899""
""focus"",""1"",""130124""
""fullscreenenter"",""5"",""143911""
","""event"",""trial"",""time""
""blur"",""0"",""0""
""blur"",""1"",""15899""
","""event"",""trial"",""time""
""focus"",""1"",""13850""
""focus"",""1"",""130124""
","""event"",""trial"",""time""
""fullscreenenter"",""5"",""143911""
","
",170.5349999992759,NA,49,NA,NA,3000,1,NA,NA,images/tutgreenplanet.jpg,images/tutalien1,images/tutalien2,null,images/tutalien2,images/t.png,NA,practice,null,NA,NA,NA,NA,sub141
d3-animate-choice,41,335293,0.0-41.0,FALSE,TRUE,TRUE,FALSE,"""event"",""trial"",""time""
""blur"",""0"",""0""
""focus"",""1"",""13850""
""blur"",""1"",""15899""
""focus"",""1"",""130124""
""fullscreenenter"",""5"",""143911""
","""event"",""trial"",""time""
""blur"",""0"",""0""
""blur"",""1"",""15899""
","""event"",""trial"",""time""
""focus"",""1"",""13850""
""focus"",""1"",""130124""
","""event"",""trial"",""time""
""fullscreenenter"",""5"",""143911""
","
",241.5099999998347,NA,49,NA,NA,3000,1,NA,NA,images/tutgreenplanet.jpg,images/tutalien1,images/tutalien2,null,images/tutalien2,images/t.png,NA,practice,null,NA,NA,NA,NA,sub141
d3-animate-choice,42,337581,0.0-42.0,FALSE,TRUE,TRUE,FALSE,"""event"",""trial"",""time""
""blur"",""0"",""0""
""focus"",""1"",""13850""
""blur"",""1"",""15899""
""focus"",""1"",""130124""
""fullscreenenter"",""5"",""143911""
","""event"",""trial"",""time""
""blur"",""0"",""0""
""blur"",""1"",""15899""
","""event"",""trial"",""time""
""focus"",""1"",""13850""
""focus"",""1"",""130124""
","""event"",""trial"",""time""
""fullscreenenter"",""5"",""143911""
","
",282.0000000001164,NA,49,NA,NA,3000,1,1962.0400000003283,49,images/tutgreenplanet.jpg,images/tutalien1,images/tutalien2,null,images/tutalien2,images/t.png,NA,practice,null,NA,NA,NA,NA,sub141
d3-animate-choice,43,339878,0.0-43.0,FALSE,TRUE,TRUE,FALSE,"""event"",""trial"",""time""
""blur"",""0"",""0""
""focus"",""1"",""13850""
""blur"",""1"",""15899""
""focus"",""1"",""130124""
""fullscreenenter"",""5"",""143911""
","""event"",""trial"",""time""
""blur"",""0"",""0""
""blur"",""1"",""15899""
","""event"",""trial"",""time""
""focus"",""1"",""13850""
""focus"",""1"",""130124""
","""event"",""trial"",""time""
""fullscreenenter"",""5"",""143911""
","
",290.03000000008615,NA,49,NA,NA,3000,1,NA,NA,images/tutgreenplanet.jpg,images/tutalien1,images/tutalien2,null,images/tutalien2,images/nothing.png,NA,practice,null,NA,NA,NA,NA,sub141
d3-instructions,44,346684,0.0-44.0,FALSE,TRUE,TRUE,FALSE,"""event"",""trial"",""time""
""blur"",""0"",""0""
""focus"",""1"",""13850""
""blur"",""1"",""15899""
""focus"",""1"",""130124""
""fullscreenenter"",""5"",""143911""
","""event"",""trial"",""time""
""blur"",""0"",""0""
""blur"",""1"",""15899""
","""event"",""trial"",""time""
""focus"",""1"",""13850""
""focus"",""1"",""130124""
","""event"",""trial"",""time""
""fullscreenenter"",""5"",""143911""
","
",NA,NA,NA,NA,NA,NA,NA,NA,NA,NA,NA,NA,NA,NA,NA,NA,NA,NA,NA,NA,NA,NA,sub141
d3-instructions,45,350724,0.0-45.0,FALSE,TRUE,TRUE,FALSE,"""event"",""trial"",""time""
""blur"",""0"",""0""
""focus"",""1"",""13850""
""blur"",""1"",""15899""
""focus"",""1"",""130124""
""fullscreenenter"",""5"",""143911""
","""event"",""trial"",""time""
""blur"",""0"",""0""
""blur"",""1"",""15899""
","""event"",""trial"",""time""
""focus"",""1"",""13850""
""focus"",""1"",""130124""
","""event"",""trial"",""time""
""fullscreenenter"",""5"",""143911""
","
",NA,NA,NA,NA,NA,NA,NA,NA,NA,NA,NA,NA,NA,NA,NA,NA,NA,NA,NA,NA,NA,NA,sub141
d3-instructions,46,355932,0.0-46.0,FALSE,TRUE,TRUE,FALSE,"""event"",""trial"",""time""
""blur"",""0"",""0""
""focus"",""1"",""13850""
""blur"",""1"",""15899""
""focus"",""1"",""130124""
""fullscreenenter"",""5"",""143911""
","""event"",""trial"",""time""
""blur"",""0"",""0""
""blur"",""1"",""15899""
","""event"",""trial"",""time""
""focus"",""1"",""13850""
""focus"",""1"",""130124""
","""event"",""trial"",""time""
""fullscreenenter"",""5"",""143911""
","
",NA,NA,NA,NA,NA,NA,NA,NA,NA,NA,NA,NA,NA,NA,NA,NA,NA,NA,NA,NA,NA,NA,sub141
d3-instructions,47,370662,0.0-47.0,FALSE,TRUE,TRUE,FALSE,"""event"",""trial"",""time""
""blur"",""0"",""0""
""focus"",""1"",""13850""
""blur"",""1"",""15899""
""focus"",""1"",""130124""
""fullscreenenter"",""5"",""143911""
","""event"",""trial"",""time""
""blur"",""0"",""0""
""blur"",""1"",""15899""
","""event"",""trial"",""time""
""focus"",""1"",""13850""
""focus"",""1"",""130124""
","""event"",""trial"",""time""
""fullscreenenter"",""5"",""143911""
","
",NA,NA,NA,NA,NA,NA,NA,NA,NA,NA,NA,NA,NA,NA,NA,NA,NA,NA,NA,NA,NA,NA,sub141
d3-instructions,48,377383,0.0-48.0,FALSE,TRUE,TRUE,FALSE,"""event"",""trial"",""time""
""blur"",""0"",""0""
""focus"",""1"",""13850""
""blur"",""1"",""15899""
""focus"",""1"",""130124""
""fullscreenenter"",""5"",""143911""
","""event"",""trial"",""time""
""blur"",""0"",""0""
""blur"",""1"",""15899""
","""event"",""trial"",""time""
""focus"",""1"",""13850""
""focus"",""1"",""130124""
","""event"",""trial"",""time""
""fullscreenenter"",""5"",""143911""
","
",NA,NA,NA,NA,NA,NA,NA,NA,NA,NA,NA,NA,NA,NA,NA,NA,NA,NA,NA,NA,NA,NA,sub141
d3-instructions,49,382239,0.0-49.0,FALSE,TRUE,TRUE,FALSE,"""event"",""trial"",""time""
""blur"",""0"",""0""
""focus"",""1"",""13850""
""blur"",""1"",""15899""
""focus"",""1"",""130124""
""fullscreenenter"",""5"",""143911""
","""event"",""trial"",""time""
""blur"",""0"",""0""
""blur"",""1"",""15899""
","""event"",""trial"",""time""
""focus"",""1"",""13850""
""focus"",""1"",""130124""
","""event"",""trial"",""time""
""fullscreenenter"",""5"",""143911""
","
",NA,NA,NA,NA,NA,NA,NA,NA,NA,NA,NA,NA,NA,NA,NA,NA,NA,NA,NA,NA,NA,NA,sub141
d3-instructions,50,387207,0.0-50.0,FALSE,TRUE,TRUE,FALSE,"""event"",""trial"",""time""
""blur"",""0"",""0""
""focus"",""1"",""13850""
""blur"",""1"",""15899""
""focus"",""1"",""130124""
""fullscreenenter"",""5"",""143911""
","""event"",""trial"",""time""
""blur"",""0"",""0""
""blur"",""1"",""15899""
","""event"",""trial"",""time""
""focus"",""1"",""13850""
""focus"",""1"",""130124""
","""event"",""trial"",""time""
""fullscreenenter"",""5"",""143911""
","
",NA,NA,NA,NA,NA,NA,NA,NA,NA,NA,NA,NA,NA,NA,NA,NA,NA,NA,NA,NA,NA,NA,sub141
d3-instructions,51,389295,0.0-51.0,FALSE,TRUE,TRUE,FALSE,"""event"",""trial"",""time""
""blur"",""0"",""0""
""focus"",""1"",""13850""
""blur"",""1"",""15899""
""focus"",""1"",""130124""
""fullscreenenter"",""5"",""143911""
","""event"",""trial"",""time""
""blur"",""0"",""0""
""blur"",""1"",""15899""
","""event"",""trial"",""time""
""focus"",""1"",""13850""
""focus"",""1"",""130124""
","""event"",""trial"",""time""
""fullscreenenter"",""5"",""143911""
","
",NA,NA,NA,NA,NA,NA,NA,NA,NA,NA,NA,NA,NA,NA,NA,NA,NA,NA,NA,NA,NA,NA,sub141
d3-instructions,52,390671,0.0-52.0,FALSE,TRUE,TRUE,FALSE,"""event"",""trial"",""time""
""blur"",""0"",""0""
""focus"",""1"",""13850""
""blur"",""1"",""15899""
""focus"",""1"",""130124""
""fullscreenenter"",""5"",""143911""
","""event"",""trial"",""time""
""blur"",""0"",""0""
""blur"",""1"",""15899""
","""event"",""trial"",""time""
""focus"",""1"",""13850""
""focus"",""1"",""130124""
","""event"",""trial"",""time""
""fullscreenenter"",""5"",""143911""
","
",NA,NA,NA,NA,NA,NA,NA,NA,NA,NA,NA,NA,NA,NA,NA,NA,NA,NA,NA,NA,NA,NA,sub141
d3-instructions,53,396087,0.0-53.0,FALSE,TRUE,TRUE,FALSE,"""event"",""trial"",""time""
""blur"",""0"",""0""
""focus"",""1"",""13850""
""blur"",""1"",""15899""
""focus"",""1"",""130124""
""fullscreenenter"",""5"",""143911""
","""event"",""trial"",""time""
""blur"",""0"",""0""
""blur"",""1"",""15899""
","""event"",""trial"",""time""
""focus"",""1"",""13850""
""focus"",""1"",""130124""
","""event"",""trial"",""time""
""fullscreenenter"",""5"",""143911""
","
",NA,NA,NA,NA,NA,NA,NA,NA,NA,NA,NA,NA,NA,NA,NA,NA,NA,NA,NA,NA,NA,NA,sub141
d3-instructions,54,419281,0.0-54.0,FALSE,TRUE,TRUE,FALSE,"""event"",""trial"",""time""
""blur"",""0"",""0""
""focus"",""1"",""13850""
""blur"",""1"",""15899""
""focus"",""1"",""130124""
""fullscreenenter"",""5"",""143911""
","""event"",""trial"",""time""
""blur"",""0"",""0""
""blur"",""1"",""15899""
","""event"",""trial"",""time""
""focus"",""1"",""13850""
""focus"",""1"",""130124""
","""event"",""trial"",""time""
""fullscreenenter"",""5"",""143911""
","
",NA,NA,NA,NA,NA,NA,NA,NA,NA,NA,NA,NA,NA,NA,NA,NA,NA,NA,NA,NA,NA,NA,sub141
d3-instructions,55,434018,0.0-55.0,FALSE,TRUE,TRUE,FALSE,"""event"",""trial"",""time""
""blur"",""0"",""0""
""focus"",""1"",""13850""
""blur"",""1"",""15899""
""focus"",""1"",""130124""
""fullscreenenter"",""5"",""143911""
","""event"",""trial"",""time""
""blur"",""0"",""0""
""blur"",""1"",""15899""
","""event"",""trial"",""time""
""focus"",""1"",""13850""
""focus"",""1"",""130124""
","""event"",""trial"",""time""
""fullscreenenter"",""5"",""143911""
","
",NA,NA,NA,NA,NA,NA,NA,NA,NA,NA,NA,NA,NA,NA,NA,NA,NA,NA,NA,NA,NA,NA,sub141
d3-instructions,56,441674,0.0-56.0,FALSE,TRUE,TRUE,FALSE,"""event"",""trial"",""time""
""blur"",""0"",""0""
""focus"",""1"",""13850""
""blur"",""1"",""15899""
""focus"",""1"",""130124""
""fullscreenenter"",""5"",""143911""
","""event"",""trial"",""time""
""blur"",""0"",""0""
""blur"",""1"",""15899""
","""event"",""trial"",""time""
""focus"",""1"",""13850""
""focus"",""1"",""130124""
","""event"",""trial"",""time""
""fullscreenenter"",""5"",""143911""
","
",NA,NA,NA,NA,NA,NA,NA,NA,NA,NA,NA,NA,NA,NA,NA,NA,NA,NA,NA,NA,NA,NA,sub141
d3-instructions,57,452923,0.0-57.0,FALSE,TRUE,TRUE,FALSE,"""event"",""trial"",""time""
""blur"",""0"",""0""
""focus"",""1"",""13850""
""blur"",""1"",""15899""
""focus"",""1"",""130124""
""fullscreenenter"",""5"",""143911""
","""event"",""trial"",""time""
""blur"",""0"",""0""
""blur"",""1"",""15899""
","""event"",""trial"",""time""
""focus"",""1"",""13850""
""focus"",""1"",""130124""
","""event"",""trial"",""time""
""fullscreenenter"",""5"",""143911""
","
",NA,NA,NA,NA,NA,NA,NA,NA,NA,NA,NA,NA,NA,NA,NA,NA,NA,NA,NA,NA,NA,NA,sub141
d3-instructions,58,460499,0.0-58.0,FALSE,TRUE,TRUE,FALSE,"""event"",""trial"",""time""
""blur"",""0"",""0""
""focus"",""1"",""13850""
""blur"",""1"",""15899""
""focus"",""1"",""130124""
""fullscreenenter"",""5"",""143911""
","""event"",""trial"",""time""
""blur"",""0"",""0""
""blur"",""1"",""15899""
","""event"",""trial"",""time""
""focus"",""1"",""13850""
""focus"",""1"",""130124""
","""event"",""trial"",""time""
""fullscreenenter"",""5"",""143911""
","
",NA,NA,NA,NA,NA,NA,NA,NA,NA,NA,NA,NA,NA,NA,NA,NA,NA,NA,NA,NA,NA,NA,sub141
d3-instructions,59,465139,0.0-59.0,FALSE,TRUE,TRUE,FALSE,"""event"",""trial"",""time""
""blur"",""0"",""0""
""focus"",""1"",""13850""
""blur"",""1"",""15899""
""focus"",""1"",""130124""
""fullscreenenter"",""5"",""143911""
","""event"",""trial"",""time""
""blur"",""0"",""0""
""blur"",""1"",""15899""
","""event"",""trial"",""time""
""focus"",""1"",""13850""
""focus"",""1"",""130124""
","""event"",""trial"",""time""
""fullscreenenter"",""5"",""143911""
","
",NA,NA,NA,NA,NA,NA,NA,NA,NA,NA,NA,NA,NA,NA,NA,NA,NA,NA,NA,NA,NA,NA,sub141
d3-instructions,60,467643,0.0-60.0,FALSE,TRUE,TRUE,FALSE,"""event"",""trial"",""time""
""blur"",""0"",""0""
""focus"",""1"",""13850""
""blur"",""1"",""15899""
""focus"",""1"",""130124""
""fullscreenenter"",""5"",""143911""
","""event"",""trial"",""time""
""blur"",""0"",""0""
""blur"",""1"",""15899""
","""event"",""trial"",""time""
""focus"",""1"",""13850""
""focus"",""1"",""130124""
","""event"",""trial"",""time""
""fullscreenenter"",""5"",""143911""
","
",NA,NA,NA,NA,NA,NA,NA,NA,NA,NA,NA,NA,NA,NA,NA,NA,NA,NA,NA,NA,NA,NA,sub141
d3-animate-choice,61,471037,0.0-61.0-0.0,FALSE,TRUE,TRUE,FALSE,"""event"",""trial"",""time""
""blur"",""0"",""0""
""focus"",""1"",""13850""
""blur"",""1"",""15899""
""focus"",""1"",""130124""
""fullscreenenter"",""5"",""143911""
","""event"",""trial"",""time""
""blur"",""0"",""0""
""blur"",""1"",""15899""
","""event"",""trial"",""time""
""focus"",""1"",""13850""
""focus"",""1"",""130124""
","""event"",""trial"",""time""
""fullscreenenter"",""5"",""143911""
","
",1385.7550000002375,NA,49,NA,NA,3000,1,NA,NA,images/earth.jpg,images/tutrocket1,images/tutrocket2,null,images/tutrocket2,NA,1,practice,null,1,NA,NA,NA,sub141
d3-animate-choice,62,475051,0.0-61.0-1.0,FALSE,TRUE,TRUE,FALSE,"""event"",""trial"",""time""
""blur"",""0"",""0""
""focus"",""1"",""13850""
""blur"",""1"",""15899""
""focus"",""1"",""130124""
""fullscreenenter"",""5"",""143911""
","""event"",""trial"",""time""
""blur"",""0"",""0""
""blur"",""1"",""15899""
","""event"",""trial"",""time""
""focus"",""1"",""13850""
""focus"",""1"",""130124""
","""event"",""trial"",""time""
""fullscreenenter"",""5"",""143911""
","
",3093.014999999432,NA,48,NA,NA,3000,0,NA,NA,images/tutyellowplanet.jpg,images/tutalien4,images/tutalien3,images/tutrocket2,NA,NA,2,practice,true,2,common,0,2020-06-30T03:26:09Z,sub141
two-step-fixation,63,476059,0.0-61.0-2.0,FALSE,TRUE,TRUE,FALSE,"""event"",""trial"",""time""
""blur"",""0"",""0""
""focus"",""1"",""13850""
""blur"",""1"",""15899""
""focus"",""1"",""130124""
""fullscreenenter"",""5"",""143911""
","""event"",""trial"",""time""
""blur"",""0"",""0""
""blur"",""1"",""15899""
","""event"",""trial"",""time""
""focus"",""1"",""13850""
""focus"",""1"",""130124""
","""event"",""trial"",""time""
""fullscreenenter"",""5"",""143911""
","
",NA,images/earth.jpg,NA,NA,NA,NA,NA,NA,NA,NA,NA,NA,NA,NA,NA,fixation,NA,NA,NA,NA,NA,NA,sub141
d3-animate-choice,64,479222,0.0-61.0-0.1,FALSE,TRUE,TRUE,FALSE,"""event"",""trial"",""time""
""blur"",""0"",""0""
""focus"",""1"",""13850""
""blur"",""1"",""15899""
""focus"",""1"",""130124""
""fullscreenenter"",""5"",""143911""
","""event"",""trial"",""time""
""blur"",""0"",""0""
""blur"",""1"",""15899""
","""event"",""trial"",""time""
""focus"",""1"",""13850""
""focus"",""1"",""130124""
","""event"",""trial"",""time""
""fullscreenenter"",""5"",""143911""
","
",1156.0200000003679,NA,48,NA,NA,3000,1,NA,NA,images/earth.jpg,images/tutrocket1,images/tutrocket2,null,images/tutrocket1,NA,1,practice,null,2,NA,NA,NA,sub141
d3-animate-choice,65,482096,0.0-61.0-1.1,FALSE,TRUE,TRUE,FALSE,"""event"",""trial"",""time""
""blur"",""0"",""0""
""focus"",""1"",""13850""
""blur"",""1"",""15899""
""focus"",""1"",""130124""
""fullscreenenter"",""5"",""143911""
","""event"",""trial"",""time""
""blur"",""0"",""0""
""blur"",""1"",""15899""
","""event"",""trial"",""time""
""focus"",""1"",""13850""
""focus"",""1"",""130124""
","""event"",""trial"",""time""
""fullscreenenter"",""5"",""143911""
","
",862.8599999992875,NA,49,NA,NA,3000,1,NA,NA,images/tutyellowplanet.jpg,images/tutalien4,images/tutalien3,images/tutrocket1,images/tutalien3,images/nothing.png,2,practice,false,1,rare,0,2020-06-30T03:26:16Z,sub141
two-step-fixation,66,483100,0.0-61.0-2.1,FALSE,TRUE,TRUE,FALSE,"""event"",""trial"",""time""
""blur"",""0"",""0""
""focus"",""1"",""13850""
""blur"",""1"",""15899""
""focus"",""1"",""130124""
""fullscreenenter"",""5"",""143911""
","""event"",""trial"",""time""
""blur"",""0"",""0""
""blur"",""1"",""15899""
","""event"",""trial"",""time""
""focus"",""1"",""13850""
""focus"",""1"",""130124""
","""event"",""trial"",""time""
""fullscreenenter"",""5"",""143911""
","
",NA,images/earth.jpg,NA,NA,NA,NA,NA,NA,NA,NA,NA,NA,NA,NA,NA,fixation,NA,NA,NA,NA,NA,NA,sub141
d3-animate-choice,67,485566,0.0-61.0-0.2,FALSE,TRUE,TRUE,FALSE,"""event"",""trial"",""time""
""blur"",""0"",""0""
""focus"",""1"",""13850""
""blur"",""1"",""15899""
""focus"",""1"",""130124""
""fullscreenenter"",""5"",""143911""
","""event"",""trial"",""time""
""blur"",""0"",""0""
""blur"",""1"",""15899""
","""event"",""trial"",""time""
""focus"",""1"",""13850""
""focus"",""1"",""130124""
","""event"",""trial"",""time""
""fullscreenenter"",""5"",""143911""
","
",458.04500000027474,NA,48,NA,NA,3000,1,NA,NA,images/earth.jpg,images/tutrocket1,images/tutrocket2,null,images/tutrocket1,NA,1,practice,null,2,NA,NA,NA,sub141
d3-animate-choice,68,488424,0.0-61.0-1.2,FALSE,TRUE,TRUE,FALSE,"""event"",""trial"",""time""
""blur"",""0"",""0""
""focus"",""1"",""13850""
""blur"",""1"",""15899""
""focus"",""1"",""130124""
""fullscreenenter"",""5"",""143911""
","""event"",""trial"",""time""
""blur"",""0"",""0""
""blur"",""1"",""15899""
","""event"",""trial"",""time""
""focus"",""1"",""13850""
""focus"",""1"",""130124""
","""event"",""trial"",""time""
""fullscreenenter"",""5"",""143911""
","
",849.0249999995576,NA,48,NA,NA,3000,1,NA,NA,images/tutgreenplanet.jpg,images/tutalien2,images/tutalien1,images/tutrocket1,images/tutalien2,images/nothing.png,2,practice,true,2,common,0,2020-06-30T03:26:22Z,sub141
two-step-fixation,69,489431,0.0-61.0-2.2,FALSE,TRUE,TRUE,FALSE,"""event"",""trial"",""time""
""blur"",""0"",""0""
""focus"",""1"",""13850""
""blur"",""1"",""15899""
""focus"",""1"",""130124""
""fullscreenenter"",""5"",""143911""
","""event"",""trial"",""time""
""blur"",""0"",""0""
""blur"",""1"",""15899""
","""event"",""trial"",""time""
""focus"",""1"",""13850""
""focus"",""1"",""130124""
","""event"",""trial"",""time""
""fullscreenenter"",""5"",""143911""
","
",NA,images/earth.jpg,NA,NA,NA,NA,NA,NA,NA,NA,NA,NA,NA,NA,NA,fixation,NA,NA,NA,NA,NA,NA,sub141
d3-animate-choice,70,491807,0.0-61.0-0.3,FALSE,TRUE,TRUE,FALSE,"""event"",""trial"",""time""
""blur"",""0"",""0""
""focus"",""1"",""13850""
""blur"",""1"",""15899""
""focus"",""1"",""130124""
""fullscreenenter"",""5"",""143911""
","""event"",""trial"",""time""
""blur"",""0"",""0""
""blur"",""1"",""15899""
","""event"",""trial"",""time""
""focus"",""1"",""13850""
""focus"",""1"",""130124""
","""event"",""trial"",""time""
""fullscreenenter"",""5"",""143911""
","
",368.69999999995343,NA,48,NA,NA,3000,1,NA,NA,images/earth.jpg,images/tutrocket1,images/tutrocket2,null,images/tutrocket1,NA,1,practice,null,2,NA,NA,NA,sub141
d3-animate-choice,71,494173,0.0-61.0-1.3,FALSE,TRUE,TRUE,FALSE,"""event"",""trial"",""time""
""blur"",""0"",""0""
""focus"",""1"",""13850""
""blur"",""1"",""15899""
""focus"",""1"",""130124""
""fullscreenenter"",""5"",""143911""
","""event"",""trial"",""time""
""blur"",""0"",""0""
""blur"",""1"",""15899""
","""event"",""trial"",""time""
""focus"",""1"",""13850""
""focus"",""1"",""130124""
","""event"",""trial"",""time""
""fullscreenenter"",""5"",""143911""
","
",359.4949999997043,NA,49,NA,NA,3000,1,NA,NA,images/tutgreenplanet.jpg,images/tutalien2,images/tutalien1,images/tutrocket1,images/tutalien1,images/t.png,2,practice,true,1,common,1,2020-06-30T03:26:28Z,sub141
two-step-fixation,72,495181,0.0-61.0-2.3,FALSE,TRUE,TRUE,FALSE,"""event"",""trial"",""time""
""blur"",""0"",""0""
""focus"",""1"",""13850""
""blur"",""1"",""15899""
""focus"",""1"",""130124""
""fullscreenenter"",""5"",""143911""
","""event"",""trial"",""time""
""blur"",""0"",""0""
""blur"",""1"",""15899""
","""event"",""trial"",""time""
""focus"",""1"",""13850""
""focus"",""1"",""130124""
","""event"",""trial"",""time""
""fullscreenenter"",""5"",""143911""
","
",NA,images/earth.jpg,NA,NA,NA,NA,NA,NA,NA,NA,NA,NA,NA,NA,NA,fixation,NA,NA,NA,NA,NA,NA,sub141
d3-animate-choice,73,497471,0.0-61.0-0.4,FALSE,TRUE,TRUE,FALSE,"""event"",""trial"",""time""
""blur"",""0"",""0""
""focus"",""1"",""13850""
""blur"",""1"",""15899""
""focus"",""1"",""130124""
""fullscreenenter"",""5"",""143911""
","""event"",""trial"",""time""
""blur"",""0"",""0""
""blur"",""1"",""15899""
","""event"",""trial"",""time""
""focus"",""1"",""13850""
""focus"",""1"",""130124""
","""event"",""trial"",""time""
""fullscreenenter"",""5"",""143911""
","
",282.34500000049593,NA,48,NA,NA,3000,1,NA,NA,images/earth.jpg,images/tutrocket1,images/tutrocket2,null,images/tutrocket1,NA,1,practice,null,2,NA,NA,NA,sub141
d3-animate-choice,74,499944,0.0-61.0-1.4,FALSE,TRUE,TRUE,FALSE,"""event"",""trial"",""time""
""blur"",""0"",""0""
""focus"",""1"",""13850""
""blur"",""1"",""15899""
""focus"",""1"",""130124""
""fullscreenenter"",""5"",""143911""
","""event"",""trial"",""time""
""blur"",""0"",""0""
""blur"",""1"",""15899""
","""event"",""trial"",""time""
""focus"",""1"",""13850""
""focus"",""1"",""130124""
","""event"",""trial"",""time""
""fullscreenenter"",""5"",""143911""
","
",463.9299999999348,NA,49,NA,NA,3000,1,NA,NA,images/tutgreenplanet.jpg,images/tutalien2,images/tutalien1,images/tutrocket1,images/tutalien1,images/t.png,2,practice,true,1,common,1,2020-06-30T03:26:34Z,sub141
two-step-fixation,75,500949,0.0-61.0-2.4,FALSE,TRUE,TRUE,FALSE,"""event"",""trial"",""time""
""blur"",""0"",""0""
""focus"",""1"",""13850""
""blur"",""1"",""15899""
""focus"",""1"",""130124""
""fullscreenenter"",""5"",""143911""
","""event"",""trial"",""time""
""blur"",""0"",""0""
""blur"",""1"",""15899""
","""event"",""trial"",""time""
""focus"",""1"",""13850""
""focus"",""1"",""130124""
","""event"",""trial"",""time""
""fullscreenenter"",""5"",""143911""
","
",NA,images/earth.jpg,NA,NA,NA,NA,NA,NA,NA,NA,NA,NA,NA,NA,NA,fixation,NA,NA,NA,NA,NA,NA,sub141
d3-animate-choice,76,503351,0.0-61.0-0.5,FALSE,TRUE,TRUE,FALSE,"""event"",""trial"",""time""
""blur"",""0"",""0""
""focus"",""1"",""13850""
""blur"",""1"",""15899""
""focus"",""1"",""130124""
""fullscreenenter"",""5"",""143911""
","""event"",""trial"",""time""
""blur"",""0"",""0""
""blur"",""1"",""15899""
","""event"",""trial"",""time""
""focus"",""1"",""13850""
""focus"",""1"",""130124""
","""event"",""trial"",""time""
""fullscreenenter"",""5"",""143911""
","
",395.65500000026077,NA,48,NA,NA,3000,1,NA,NA,images/earth.jpg,images/tutrocket1,images/tutrocket2,null,images/tutrocket1,NA,1,practice,null,2,NA,NA,NA,sub141
d3-animate-choice,77,505655,0.0-61.0-1.5,FALSE,TRUE,TRUE,FALSE,"""event"",""trial"",""time""
""blur"",""0"",""0""
""focus"",""1"",""13850""
""blur"",""1"",""15899""
""focus"",""1"",""130124""
""fullscreenenter"",""5"",""143911""
","""event"",""trial"",""time""
""blur"",""0"",""0""
""blur"",""1"",""15899""
","""event"",""trial"",""time""
""focus"",""1"",""13850""
""focus"",""1"",""130124""
","""event"",""trial"",""time""
""fullscreenenter"",""5"",""143911""
","
",296.47500000009313,NA,49,NA,NA,3000,1,NA,NA,images/tutyellowplanet.jpg,images/tutalien4,images/tutalien3,images/tutrocket1,images/tutalien3,images/nothing.png,2,practice,false,1,rare,0,2020-06-30T03:26:39Z,sub141
two-step-fixation,78,506660,0.0-61.0-2.5,FALSE,TRUE,TRUE,FALSE,"""event"",""trial"",""time""
""blur"",""0"",""0""
""focus"",""1"",""13850""
""blur"",""1"",""15899""
""focus"",""1"",""130124""
""fullscreenenter"",""5"",""143911""
","""event"",""trial"",""time""
""blur"",""0"",""0""
""blur"",""1"",""15899""
","""event"",""trial"",""time""
""focus"",""1"",""13850""
""focus"",""1"",""130124""
","""event"",""trial"",""time""
""fullscreenenter"",""5"",""143911""
","
",NA,images/earth.jpg,NA,NA,NA,NA,NA,NA,NA,NA,NA,NA,NA,NA,NA,fixation,NA,NA,NA,NA,NA,NA,sub141
d3-animate-choice,79,508681,0.0-61.0-0.6,FALSE,TRUE,TRUE,FALSE,"""event"",""trial"",""time""
""blur"",""0"",""0""
""focus"",""1"",""13850""
""blur"",""1"",""15899""
""focus"",""1"",""130124""
""fullscreenenter"",""5"",""143911""
","""event"",""trial"",""time""
""blur"",""0"",""0""
""blur"",""1"",""15899""
","""event"",""trial"",""time""
""focus"",""1"",""13850""
""focus"",""1"",""130124""
","""event"",""trial"",""time""
""fullscreenenter"",""5"",""143911""
","
",13.425000000046566,NA,48,NA,NA,3000,1,NA,NA,images/earth.jpg,images/tutrocket1,images/tutrocket2,null,images/tutrocket1,NA,1,practice,null,2,NA,NA,NA,sub141
d3-animate-choice,80,511215,0.0-61.0-1.6,FALSE,TRUE,TRUE,FALSE,"""event"",""trial"",""time""
""blur"",""0"",""0""
""focus"",""1"",""13850""
""blur"",""1"",""15899""
""focus"",""1"",""130124""
""fullscreenenter"",""5"",""143911""
","""event"",""trial"",""time""
""blur"",""0"",""0""
""blur"",""1"",""15899""
","""event"",""trial"",""time""
""focus"",""1"",""13850""
""focus"",""1"",""130124""
","""event"",""trial"",""time""
""fullscreenenter"",""5"",""143911""
","
",527.3950000000768,NA,49,NA,NA,3000,1,NA,NA,images/tutgreenplanet.jpg,images/tutalien2,images/tutalien1,images/tutrocket1,images/tutalien1,images/nothing.png,2,practice,true,1,common,0,2020-06-30T03:26:45Z,sub141
two-step-fixation,81,512220,0.0-61.0-2.6,FALSE,TRUE,TRUE,FALSE,"""event"",""trial"",""time""
""blur"",""0"",""0""
""focus"",""1"",""13850""
""blur"",""1"",""15899""
""focus"",""1"",""130124""
""fullscreenenter"",""5"",""143911""
","""event"",""trial"",""time""
""blur"",""0"",""0""
""blur"",""1"",""15899""
","""event"",""trial"",""time""
""focus"",""1"",""13850""
""focus"",""1"",""130124""
","""event"",""trial"",""time""
""fullscreenenter"",""5"",""143911""
","
",NA,images/earth.jpg,NA,NA,NA,NA,NA,NA,NA,NA,NA,NA,NA,NA,NA,fixation,NA,NA,NA,NA,NA,NA,sub141
d3-animate-choice,82,514936,0.0-61.0-0.7,FALSE,TRUE,TRUE,FALSE,"""event"",""trial"",""time""
""blur"",""0"",""0""
""focus"",""1"",""13850""
""blur"",""1"",""15899""
""focus"",""1"",""130124""
""fullscreenenter"",""5"",""143911""
","""event"",""trial"",""time""
""blur"",""0"",""0""
""blur"",""1"",""15899""
","""event"",""trial"",""time""
""focus"",""1"",""13850""
""focus"",""1"",""130124""
","""event"",""trial"",""time""
""fullscreenenter"",""5"",""143911""
","
",709.2249999996275,NA,49,NA,NA,3000,1,NA,NA,images/earth.jpg,images/tutrocket1,images/tutrocket2,null,images/tutrocket2,NA,1,practice,null,1,NA,NA,NA,sub141
d3-animate-choice,83,517656,0.0-61.0-1.7,FALSE,TRUE,TRUE,FALSE,"""event"",""trial"",""time""
""blur"",""0"",""0""
""focus"",""1"",""13850""
""blur"",""1"",""15899""
""focus"",""1"",""130124""
""fullscreenenter"",""5"",""143911""
","""event"",""trial"",""time""
""blur"",""0"",""0""
""blur"",""1"",""15899""
","""event"",""trial"",""time""
""focus"",""1"",""13850""
""focus"",""1"",""130124""
","""event"",""trial"",""time""
""fullscreenenter"",""5"",""143911""
","
",712.3750000001164,NA,48,NA,NA,3000,1,NA,NA,images/tutyellowplanet.jpg,images/tutalien4,images/tutalien3,images/tutrocket2,images/tutalien4,images/t.png,2,practice,true,2,common,1,2020-06-30T03:26:51Z,sub141
two-step-fixation,84,518661,0.0-61.0-2.7,FALSE,TRUE,TRUE,FALSE,"""event"",""trial"",""time""
""blur"",""0"",""0""
""focus"",""1"",""13850""
""blur"",""1"",""15899""
""focus"",""1"",""130124""
""fullscreenenter"",""5"",""143911""
","""event"",""trial"",""time""
""blur"",""0"",""0""
""blur"",""1"",""15899""
","""event"",""trial"",""time""
""focus"",""1"",""13850""
""focus"",""1"",""130124""
","""event"",""trial"",""time""
""fullscreenenter"",""5"",""143911""
","
",NA,images/earth.jpg,NA,NA,NA,NA,NA,NA,NA,NA,NA,NA,NA,NA,NA,fixation,NA,NA,NA,NA,NA,NA,sub141
d3-animate-choice,85,521128,0.0-61.0-0.8,FALSE,TRUE,TRUE,FALSE,"""event"",""trial"",""time""
""blur"",""0"",""0""
""focus"",""1"",""13850""
""blur"",""1"",""15899""
""focus"",""1"",""130124""
""fullscreenenter"",""5"",""143911""
","""event"",""trial"",""time""
""blur"",""0"",""0""
""blur"",""1"",""15899""
","""event"",""trial"",""time""
""focus"",""1"",""13850""
""focus"",""1"",""130124""
","""event"",""trial"",""time""
""fullscreenenter"",""5"",""143911""
","
",459.6799999999348,NA,49,NA,NA,3000,1,NA,NA,images/earth.jpg,images/tutrocket1,images/tutrocket2,null,images/tutrocket2,NA,1,practice,null,1,NA,NA,NA,sub141
d3-animate-choice,86,523624,0.0-61.0-1.8,FALSE,TRUE,TRUE,FALSE,"""event"",""trial"",""time""
""blur"",""0"",""0""
""focus"",""1"",""13850""
""blur"",""1"",""15899""
""focus"",""1"",""130124""
""fullscreenenter"",""5"",""143911""
","""event"",""trial"",""time""
""blur"",""0"",""0""
""blur"",""1"",""15899""
","""event"",""trial"",""time""
""focus"",""1"",""13850""
""focus"",""1"",""130124""
","""event"",""trial"",""time""
""fullscreenenter"",""5"",""143911""
","
",488.4550000006566,NA,48,NA,NA,3000,1,NA,NA,images/tutyellowplanet.jpg,images/tutalien4,images/tutalien3,images/tutrocket2,images/tutalien4,images/t.png,2,practice,true,2,common,1,2020-06-30T03:26:57Z,sub141
two-step-fixation,87,524629,0.0-61.0-2.8,FALSE,TRUE,TRUE,FALSE,"""event"",""trial"",""time""
""blur"",""0"",""0""
""focus"",""1"",""13850""
""blur"",""1"",""15899""
""focus"",""1"",""130124""
""fullscreenenter"",""5"",""143911""
","""event"",""trial"",""time""
""blur"",""0"",""0""
""blur"",""1"",""15899""
","""event"",""trial"",""time""
""focus"",""1"",""13850""
""focus"",""1"",""130124""
","""event"",""trial"",""time""
""fullscreenenter"",""5"",""143911""
","
",NA,images/earth.jpg,NA,NA,NA,NA,NA,NA,NA,NA,NA,NA,NA,NA,NA,fixation,NA,NA,NA,NA,NA,NA,sub141
d3-animate-choice,88,526945,0.0-61.0-0.9,FALSE,TRUE,TRUE,FALSE,"""event"",""trial"",""time""
""blur"",""0"",""0""
""focus"",""1"",""13850""
""blur"",""1"",""15899""
""focus"",""1"",""130124""
""fullscreenenter"",""5"",""143911""
","""event"",""trial"",""time""
""blur"",""0"",""0""
""blur"",""1"",""15899""
","""event"",""trial"",""time""
""focus"",""1"",""13850""
""focus"",""1"",""130124""
","""event"",""trial"",""time""
""fullscreenenter"",""5"",""143911""
","
",308.9049999999115,NA,49,NA,NA,3000,1,NA,NA,images/earth.jpg,images/tutrocket1,images/tutrocket2,null,images/tutrocket2,NA,1,practice,null,1,NA,NA,NA,sub141
d3-animate-choice,89,529433,0.0-61.0-1.9,FALSE,TRUE,TRUE,FALSE,"""event"",""trial"",""time""
""blur"",""0"",""0""
""focus"",""1"",""13850""
""blur"",""1"",""15899""
""focus"",""1"",""130124""
""fullscreenenter"",""5"",""143911""
","""event"",""trial"",""time""
""blur"",""0"",""0""
""blur"",""1"",""15899""
","""event"",""trial"",""time""
""focus"",""1"",""13850""
""focus"",""1"",""130124""
","""event"",""trial"",""time""
""fullscreenenter"",""5"",""143911""
","
",479.4000000001397,NA,48,NA,NA,3000,1,NA,NA,images/tutyellowplanet.jpg,images/tutalien4,images/tutalien3,images/tutrocket2,images/tutalien4,images/nothing.png,2,practice,true,2,common,0,2020-06-30T03:27:03Z,sub141
two-step-fixation,90,530439,0.0-61.0-2.9,FALSE,TRUE,TRUE,FALSE,"""event"",""trial"",""time""
""blur"",""0"",""0""
""focus"",""1"",""13850""
""blur"",""1"",""15899""
""focus"",""1"",""130124""
""fullscreenenter"",""5"",""143911""
","""event"",""trial"",""time""
""blur"",""0"",""0""
""blur"",""1"",""15899""
","""event"",""trial"",""time""
""focus"",""1"",""13850""
""focus"",""1"",""130124""
","""event"",""trial"",""time""
""fullscreenenter"",""5"",""143911""
","
",NA,images/earth.jpg,NA,NA,NA,NA,NA,NA,NA,NA,NA,NA,NA,NA,NA,fixation,NA,NA,NA,NA,NA,NA,sub141
d3-animate-choice,91,532945,0.0-61.0-0.10,FALSE,TRUE,TRUE,FALSE,"""event"",""trial"",""time""
""blur"",""0"",""0""
""focus"",""1"",""13850""
""blur"",""1"",""15899""
""focus"",""1"",""130124""
""fullscreenenter"",""5"",""143911""
","""event"",""trial"",""time""
""blur"",""0"",""0""
""blur"",""1"",""15899""
","""event"",""trial"",""time""
""focus"",""1"",""13850""
""focus"",""1"",""130124""
","""event"",""trial"",""time""
""fullscreenenter"",""5"",""143911""
","
",499.3450000002049,NA,48,NA,NA,3000,1,NA,NA,images/earth.jpg,images/tutrocket1,images/tutrocket2,null,images/tutrocket1,NA,1,practice,null,2,NA,NA,NA,sub141
d3-animate-choice,92,535225,0.0-61.0-1.10,FALSE,TRUE,TRUE,FALSE,"""event"",""trial"",""time""
""blur"",""0"",""0""
""focus"",""1"",""13850""
""blur"",""1"",""15899""
""focus"",""1"",""130124""
""fullscreenenter"",""5"",""143911""
","""event"",""trial"",""time""
""blur"",""0"",""0""
""blur"",""1"",""15899""
","""event"",""trial"",""time""
""focus"",""1"",""13850""
""focus"",""1"",""130124""
","""event"",""trial"",""time""
""fullscreenenter"",""5"",""143911""
","
",272.25,NA,49,NA,NA,3000,1,NA,NA,images/tutyellowplanet.jpg,images/tutalien4,images/tutalien3,images/tutrocket1,images/tutalien3,images/nothing.png,2,practice,false,1,rare,0,2020-06-30T03:27:09Z,sub141
two-step-fixation,93,536231,0.0-61.0-2.10,FALSE,TRUE,TRUE,FALSE,"""event"",""trial"",""time""
""blur"",""0"",""0""
""focus"",""1"",""13850""
""blur"",""1"",""15899""
""focus"",""1"",""130124""
""fullscreenenter"",""5"",""143911""
","""event"",""trial"",""time""
""blur"",""0"",""0""
""blur"",""1"",""15899""
","""event"",""trial"",""time""
""focus"",""1"",""13850""
""focus"",""1"",""130124""
","""event"",""trial"",""time""
""fullscreenenter"",""5"",""143911""
","
",NA,images/earth.jpg,NA,NA,NA,NA,NA,NA,NA,NA,NA,NA,NA,NA,NA,fixation,NA,NA,NA,NA,NA,NA,sub141
d3-animate-choice,94,538618,0.0-61.0-0.11,FALSE,TRUE,TRUE,FALSE,"""event"",""trial"",""time""
""blur"",""0"",""0""
""focus"",""1"",""13850""
""blur"",""1"",""15899""
""focus"",""1"",""130124""
""fullscreenenter"",""5"",""143911""
","""event"",""trial"",""time""
""blur"",""0"",""0""
""blur"",""1"",""15899""
","""event"",""trial"",""time""
""focus"",""1"",""13850""
""focus"",""1"",""130124""
","""event"",""trial"",""time""
""fullscreenenter"",""5"",""143911""
","
",379.7999999996973,NA,48,NA,NA,3000,1,NA,NA,images/earth.jpg,images/tutrocket1,images/tutrocket2,null,images/tutrocket1,NA,1,practice,null,2,NA,NA,NA,sub141
d3-animate-choice,95,541736,0.0-61.0-1.11,FALSE,TRUE,TRUE,FALSE,"""event"",""trial"",""time""
""blur"",""0"",""0""
""focus"",""1"",""13850""
""blur"",""1"",""15899""
""focus"",""1"",""130124""
""fullscreenenter"",""5"",""143911""
","""event"",""trial"",""time""
""blur"",""0"",""0""
""blur"",""1"",""15899""
","""event"",""trial"",""time""
""focus"",""1"",""13850""
""focus"",""1"",""130124""
","""event"",""trial"",""time""
""fullscreenenter"",""5"",""143911""
","
",1112.869999999879,NA,48,NA,NA,3000,1,NA,NA,images/tutgreenplanet.jpg,images/tutalien2,images/tutalien1,images/tutrocket1,images/tutalien2,images/nothing.png,2,practice,true,2,common,0,2020-06-30T03:27:15Z,sub141
two-step-fixation,96,542744,0.0-61.0-2.11,FALSE,TRUE,TRUE,FALSE,"""event"",""trial"",""time""
""blur"",""0"",""0""
""focus"",""1"",""13850""
""blur"",""1"",""15899""
""focus"",""1"",""130124""
""fullscreenenter"",""5"",""143911""
","""event"",""trial"",""time""
""blur"",""0"",""0""
""blur"",""1"",""15899""
","""event"",""trial"",""time""
""focus"",""1"",""13850""
""focus"",""1"",""130124""
","""event"",""trial"",""time""
""fullscreenenter"",""5"",""143911""
","
",NA,images/earth.jpg,NA,NA,NA,NA,NA,NA,NA,NA,NA,NA,NA,NA,NA,fixation,NA,NA,NA,NA,NA,NA,sub141
d3-animate-choice,97,545105,0.0-61.0-0.12,FALSE,TRUE,TRUE,FALSE,"""event"",""trial"",""time""
""blur"",""0"",""0""
""focus"",""1"",""13850""
""blur"",""1"",""15899""
""focus"",""1"",""130124""
""fullscreenenter"",""5"",""143911""
","""event"",""trial"",""time""
""blur"",""0"",""0""
""blur"",""1"",""15899""
","""event"",""trial"",""time""
""focus"",""1"",""13850""
""focus"",""1"",""130124""
","""event"",""trial"",""time""
""fullscreenenter"",""5"",""143911""
","
",349.7100000004284,NA,48,NA,NA,3000,1,NA,NA,images/earth.jpg,images/tutrocket1,images/tutrocket2,null,images/tutrocket1,NA,1,practice,null,2,NA,NA,NA,sub141
d3-animate-choice,98,547514,0.0-61.0-1.12,FALSE,TRUE,TRUE,FALSE,"""event"",""trial"",""time""
""blur"",""0"",""0""
""focus"",""1"",""13850""
""blur"",""1"",""15899""
""focus"",""1"",""130124""
""fullscreenenter"",""5"",""143911""
","""event"",""trial"",""time""
""blur"",""0"",""0""
""blur"",""1"",""15899""
","""event"",""trial"",""time""
""focus"",""1"",""13850""
""focus"",""1"",""130124""
","""event"",""trial"",""time""
""fullscreenenter"",""5"",""143911""
","
",401.2549999997718,NA,49,NA,NA,3000,1,NA,NA,images/tutgreenplanet.jpg,images/tutalien2,images/tutalien1,images/tutrocket1,images/tutalien1,images/nothing.png,2,practice,true,1,common,0,2020-06-30T03:27:21Z,sub141
two-step-fixation,99,548520,0.0-61.0-2.12,FALSE,TRUE,TRUE,FALSE,"""event"",""trial"",""time""
""blur"",""0"",""0""
""focus"",""1"",""13850""
""blur"",""1"",""15899""
""focus"",""1"",""130124""
""fullscreenenter"",""5"",""143911""
","""event"",""trial"",""time""
""blur"",""0"",""0""
""blur"",""1"",""15899""
","""event"",""trial"",""time""
""focus"",""1"",""13850""
""focus"",""1"",""130124""
","""event"",""trial"",""time""
""fullscreenenter"",""5"",""143911""
","
",NA,images/earth.jpg,NA,NA,NA,NA,NA,NA,NA,NA,NA,NA,NA,NA,NA,fixation,NA,NA,NA,NA,NA,NA,sub141
d3-animate-choice,100,550778,0.0-61.0-0.13,FALSE,TRUE,TRUE,FALSE,"""event"",""trial"",""time""
""blur"",""0"",""0""
""focus"",""1"",""13850""
""blur"",""1"",""15899""
""focus"",""1"",""130124""
""fullscreenenter"",""5"",""143911""
","""event"",""trial"",""time""
""blur"",""0"",""0""
""blur"",""1"",""15899""
","""event"",""trial"",""time""
""focus"",""1"",""13850""
""focus"",""1"",""130124""
","""event"",""trial"",""time""
""fullscreenenter"",""5"",""143911""
","
",251.01999999966938,NA,49,NA,NA,3000,1,NA,NA,images/earth.jpg,images/tutrocket1,images/tutrocket2,null,images/tutrocket2,NA,1,practice,null,1,NA,NA,NA,sub141
d3-animate-choice,101,554242,0.0-61.0-1.13,FALSE,TRUE,TRUE,FALSE,"""event"",""trial"",""time""
""blur"",""0"",""0""
""focus"",""1"",""13850""
""blur"",""1"",""15899""
""focus"",""1"",""130124""
""fullscreenenter"",""5"",""143911""
","""event"",""trial"",""time""
""blur"",""0"",""0""
""blur"",""1"",""15899""
","""event"",""trial"",""time""
""focus"",""1"",""13850""
""focus"",""1"",""130124""
","""event"",""trial"",""time""
""fullscreenenter"",""5"",""143911""
","
",1456.229999999865,NA,48,NA,NA,3000,1,NA,NA,images/tutyellowplanet.jpg,images/tutalien4,images/tutalien3,images/tutrocket2,images/tutalien4,images/t.png,2,practice,true,2,common,1,2020-06-30T03:27:28Z,sub141
two-step-fixation,102,555247,0.0-61.0-2.13,FALSE,TRUE,TRUE,FALSE,"""event"",""trial"",""time""
""blur"",""0"",""0""
""focus"",""1"",""13850""
""blur"",""1"",""15899""
""focus"",""1"",""130124""
""fullscreenenter"",""5"",""143911""
","""event"",""trial"",""time""
""blur"",""0"",""0""
""blur"",""1"",""15899""
","""event"",""trial"",""time""
""focus"",""1"",""13850""
""focus"",""1"",""130124""
","""event"",""trial"",""time""
""fullscreenenter"",""5"",""143911""
","
",NA,images/earth.jpg,NA,NA,NA,NA,NA,NA,NA,NA,NA,NA,NA,NA,NA,fixation,NA,NA,NA,NA,NA,NA,sub141
d3-animate-choice,103,557603,0.0-61.0-0.14,FALSE,TRUE,TRUE,FALSE,"""event"",""trial"",""time""
""blur"",""0"",""0""
""focus"",""1"",""13850""
""blur"",""1"",""15899""
""focus"",""1"",""130124""
""fullscreenenter"",""5"",""143911""
","""event"",""trial"",""time""
""blur"",""0"",""0""
""blur"",""1"",""15899""
","""event"",""trial"",""time""
""focus"",""1"",""13850""
""focus"",""1"",""130124""
","""event"",""trial"",""time""
""fullscreenenter"",""5"",""143911""
","
",347.76999999943655,NA,49,NA,NA,3000,1,NA,NA,images/earth.jpg,images/tutrocket1,images/tutrocket2,null,images/tutrocket2,NA,1,practice,null,1,NA,NA,NA,sub141
d3-animate-choice,104,560002,0.0-61.0-1.14,FALSE,TRUE,TRUE,FALSE,"""event"",""trial"",""time""
""blur"",""0"",""0""
""focus"",""1"",""13850""
""blur"",""1"",""15899""
""focus"",""1"",""130124""
""fullscreenenter"",""5"",""143911""
","""event"",""trial"",""time""
""blur"",""0"",""0""
""blur"",""1"",""15899""
","""event"",""trial"",""time""
""focus"",""1"",""13850""
""focus"",""1"",""130124""
","""event"",""trial"",""time""
""fullscreenenter"",""5"",""143911""
","
",392.2499999998836,NA,48,NA,NA,3000,1,2200.505000000703,49,images/tutyellowplanet.jpg,images/tutalien4,images/tutalien3,images/tutrocket2,images/tutalien4,images/nothing.png,2,practice,true,2,common,0,2020-06-30T03:27:34Z,sub141
two-step-fixation,105,561006,0.0-61.0-2.14,FALSE,TRUE,TRUE,FALSE,"""event"",""trial"",""time""
""blur"",""0"",""0""
""focus"",""1"",""13850""
""blur"",""1"",""15899""
""focus"",""1"",""130124""
""fullscreenenter"",""5"",""143911""
","""event"",""trial"",""time""
""blur"",""0"",""0""
""blur"",""1"",""15899""
","""event"",""trial"",""time""
""focus"",""1"",""13850""
""focus"",""1"",""130124""
","""event"",""trial"",""time""
""fullscreenenter"",""5"",""143911""
","
",NA,images/earth.jpg,NA,NA,NA,NA,NA,NA,NA,NA,NA,NA,NA,NA,NA,fixation,NA,NA,NA,NA,NA,NA,sub141
d3-animate-choice,106,563323,0.0-61.0-0.15,FALSE,TRUE,TRUE,FALSE,"""event"",""trial"",""time""
""blur"",""0"",""0""
""focus"",""1"",""13850""
""blur"",""1"",""15899""
""focus"",""1"",""130124""
""fullscreenenter"",""5"",""143911""
","""event"",""trial"",""time""
""blur"",""0"",""0""
""blur"",""1"",""15899""
","""event"",""trial"",""time""
""focus"",""1"",""13850""
""focus"",""1"",""130124""
","""event"",""trial"",""time""
""fullscreenenter"",""5"",""143911""
","
",306.2700000000186,NA,49,NA,NA,3000,1,NA,NA,images/earth.jpg,images/tutrocket1,images/tutrocket2,null,images/tutrocket2,NA,1,practice,null,1,NA,NA,NA,sub141
d3-animate-choice,107,565652,0.0-61.0-1.15,FALSE,TRUE,TRUE,FALSE,"""event"",""trial"",""time""
""blur"",""0"",""0""
""focus"",""1"",""13850""
""blur"",""1"",""15899""
""focus"",""1"",""130124""
""fullscreenenter"",""5"",""143911""
","""event"",""trial"",""time""
""blur"",""0"",""0""
""blur"",""1"",""15899""
","""event"",""trial"",""time""
""focus"",""1"",""13850""
""focus"",""1"",""130124""
","""event"",""trial"",""time""
""fullscreenenter"",""5"",""143911""
","
",319.9450000001816,NA,48,NA,NA,3000,1,NA,NA,images/tutyellowplanet.jpg,images/tutalien4,images/tutalien3,images/tutrocket2,images/tutalien4,images/nothing.png,2,practice,true,2,common,0,2020-06-30T03:27:39Z,sub141
two-step-fixation,108,566656,0.0-61.0-2.15,FALSE,TRUE,TRUE,FALSE,"""event"",""trial"",""time""
""blur"",""0"",""0""
""focus"",""1"",""13850""
""blur"",""1"",""15899""
""focus"",""1"",""130124""
""fullscreenenter"",""5"",""143911""
","""event"",""trial"",""time""
""blur"",""0"",""0""
""blur"",""1"",""15899""
","""event"",""trial"",""time""
""focus"",""1"",""13850""
""focus"",""1"",""130124""
","""event"",""trial"",""time""
""fullscreenenter"",""5"",""143911""
","
",NA,images/earth.jpg,NA,NA,NA,NA,NA,NA,NA,NA,NA,NA,NA,NA,NA,fixation,NA,NA,NA,NA,NA,NA,sub141
d3-animate-choice,109,569347,0.0-61.0-0.16,FALSE,TRUE,TRUE,FALSE,"""event"",""trial"",""time""
""blur"",""0"",""0""
""focus"",""1"",""13850""
""blur"",""1"",""15899""
""focus"",""1"",""130124""
""fullscreenenter"",""5"",""143911""
","""event"",""trial"",""time""
""blur"",""0"",""0""
""blur"",""1"",""15899""
","""event"",""trial"",""time""
""focus"",""1"",""13850""
""focus"",""1"",""130124""
","""event"",""trial"",""time""
""fullscreenenter"",""5"",""143911""
","
",683.1549999996787,NA,48,NA,NA,3000,1,NA,NA,images/earth.jpg,images/tutrocket1,images/tutrocket2,null,images/tutrocket1,NA,1,practice,null,2,NA,NA,NA,sub141
d3-animate-choice,110,571571,0.0-61.0-1.16,FALSE,TRUE,TRUE,FALSE,"""event"",""trial"",""time""
""blur"",""0"",""0""
""focus"",""1"",""13850""
""blur"",""1"",""15899""
""focus"",""1"",""130124""
""fullscreenenter"",""5"",""143911""
","""event"",""trial"",""time""
""blur"",""0"",""0""
""blur"",""1"",""15899""
","""event"",""trial"",""time""
""focus"",""1"",""13850""
""focus"",""1"",""130124""
","""event"",""trial"",""time""
""fullscreenenter"",""5"",""143911""
","
",216.19000000017695,NA,49,NA,NA,3000,1,NA,NA,images/tutyellowplanet.jpg,images/tutalien4,images/tutalien3,images/tutrocket1,images/tutalien3,images/t.png,2,practice,false,1,rare,1,2020-06-30T03:27:45Z,sub141
two-step-fixation,111,572576,0.0-61.0-2.16,FALSE,TRUE,TRUE,FALSE,"""event"",""trial"",""time""
""blur"",""0"",""0""
""focus"",""1"",""13850""
""blur"",""1"",""15899""
""focus"",""1"",""130124""
""fullscreenenter"",""5"",""143911""
","""event"",""trial"",""time""
""blur"",""0"",""0""
""blur"",""1"",""15899""
","""event"",""trial"",""time""
""focus"",""1"",""13850""
""focus"",""1"",""130124""
","""event"",""trial"",""time""
""fullscreenenter"",""5"",""143911""
","
",NA,images/earth.jpg,NA,NA,NA,NA,NA,NA,NA,NA,NA,NA,NA,NA,NA,fixation,NA,NA,NA,NA,NA,NA,sub141
d3-animate-choice,112,574931,0.0-61.0-0.17,FALSE,TRUE,TRUE,FALSE,"""event"",""trial"",""time""
""blur"",""0"",""0""
""focus"",""1"",""13850""
""blur"",""1"",""15899""
""focus"",""1"",""130124""
""fullscreenenter"",""5"",""143911""
","""event"",""trial"",""time""
""blur"",""0"",""0""
""blur"",""1"",""15899""
","""event"",""trial"",""time""
""focus"",""1"",""13850""
""focus"",""1"",""130124""
","""event"",""trial"",""time""
""fullscreenenter"",""5"",""143911""
","
",347.8800000002375,NA,48,NA,NA,3000,1,NA,NA,images/earth.jpg,images/tutrocket1,images/tutrocket2,null,images/tutrocket1,NA,1,practice,null,2,NA,NA,NA,sub141
d3-animate-choice,113,577746,0.0-61.0-1.17,FALSE,TRUE,TRUE,FALSE,"""event"",""trial"",""time""
""blur"",""0"",""0""
""focus"",""1"",""13850""
""blur"",""1"",""15899""
""focus"",""1"",""130124""
""fullscreenenter"",""5"",""143911""
","""event"",""trial"",""time""
""blur"",""0"",""0""
""blur"",""1"",""15899""
","""event"",""trial"",""time""
""focus"",""1"",""13850""
""focus"",""1"",""130124""
","""event"",""trial"",""time""
""fullscreenenter"",""5"",""143911""
","
",808.3950000000186,NA,49,NA,NA,3000,1,NA,NA,images/tutgreenplanet.jpg,images/tutalien2,images/tutalien1,images/tutrocket1,images/tutalien1,images/t.png,2,practice,true,1,common,1,2020-06-30T03:27:51Z,sub141
two-step-fixation,114,578752,0.0-61.0-2.17,FALSE,TRUE,TRUE,FALSE,"""event"",""trial"",""time""
""blur"",""0"",""0""
""focus"",""1"",""13850""
""blur"",""1"",""15899""
""focus"",""1"",""130124""
""fullscreenenter"",""5"",""143911""
","""event"",""trial"",""time""
""blur"",""0"",""0""
""blur"",""1"",""15899""
","""event"",""trial"",""time""
""focus"",""1"",""13850""
""focus"",""1"",""130124""
","""event"",""trial"",""time""
""fullscreenenter"",""5"",""143911""
","
",NA,images/earth.jpg,NA,NA,NA,NA,NA,NA,NA,NA,NA,NA,NA,NA,NA,fixation,NA,NA,NA,NA,NA,NA,sub141
d3-animate-choice,115,581163,0.0-61.0-0.18,FALSE,TRUE,TRUE,FALSE,"""event"",""trial"",""time""
""blur"",""0"",""0""
""focus"",""1"",""13850""
""blur"",""1"",""15899""
""focus"",""1"",""130124""
""fullscreenenter"",""5"",""143911""
","""event"",""trial"",""time""
""blur"",""0"",""0""
""blur"",""1"",""15899""
","""event"",""trial"",""time""
""focus"",""1"",""13850""
""focus"",""1"",""130124""
","""event"",""trial"",""time""
""fullscreenenter"",""5"",""143911""
","
",403.9450000000652,NA,48,NA,NA,3000,1,NA,NA,images/earth.jpg,images/tutrocket1,images/tutrocket2,null,images/tutrocket1,NA,1,practice,null,2,NA,NA,NA,sub141
d3-animate-choice,116,583979,0.0-61.0-1.18,FALSE,TRUE,TRUE,FALSE,"""event"",""trial"",""time""
""blur"",""0"",""0""
""focus"",""1"",""13850""
""blur"",""1"",""15899""
""focus"",""1"",""130124""
""fullscreenenter"",""5"",""143911""
","""event"",""trial"",""time""
""blur"",""0"",""0""
""blur"",""1"",""15899""
","""event"",""trial"",""time""
""focus"",""1"",""13850""
""focus"",""1"",""130124""
","""event"",""trial"",""time""
""fullscreenenter"",""5"",""143911""
","
",809.035000000149,NA,49,NA,NA,3000,1,NA,NA,images/tutyellowplanet.jpg,images/tutalien4,images/tutalien3,images/tutrocket1,images/tutalien3,images/t.png,2,practice,false,1,rare,1,2020-06-30T03:27:58Z,sub141
two-step-fixation,117,584985,0.0-61.0-2.18,FALSE,TRUE,TRUE,FALSE,"""event"",""trial"",""time""
""blur"",""0"",""0""
""focus"",""1"",""13850""
""blur"",""1"",""15899""
""focus"",""1"",""130124""
""fullscreenenter"",""5"",""143911""
","""event"",""trial"",""time""
""blur"",""0"",""0""
""blur"",""1"",""15899""
","""event"",""trial"",""time""
""focus"",""1"",""13850""
""focus"",""1"",""130124""
","""event"",""trial"",""time""
""fullscreenenter"",""5"",""143911""
","
",NA,images/earth.jpg,NA,NA,NA,NA,NA,NA,NA,NA,NA,NA,NA,NA,NA,fixation,NA,NA,NA,NA,NA,NA,sub141
d3-animate-choice,118,587340,0.0-61.0-0.19,FALSE,TRUE,TRUE,FALSE,"""event"",""trial"",""time""
""blur"",""0"",""0""
""focus"",""1"",""13850""
""blur"",""1"",""15899""
""focus"",""1"",""130124""
""fullscreenenter"",""5"",""143911""
","""event"",""trial"",""time""
""blur"",""0"",""0""
""blur"",""1"",""15899""
","""event"",""trial"",""time""
""focus"",""1"",""13850""
""focus"",""1"",""130124""
","""event"",""trial"",""time""
""fullscreenenter"",""5"",""143911""
","
",348.42000000027474,NA,48,NA,NA,3000,1,NA,NA,images/earth.jpg,images/tutrocket1,images/tutrocket2,null,images/tutrocket1,NA,1,practice,null,2,NA,NA,NA,sub141
d3-animate-choice,119,589716,0.0-61.0-1.19,FALSE,TRUE,TRUE,FALSE,"""event"",""trial"",""time""
""blur"",""0"",""0""
""focus"",""1"",""13850""
""blur"",""1"",""15899""
""focus"",""1"",""130124""
""fullscreenenter"",""5"",""143911""
","""event"",""trial"",""time""
""blur"",""0"",""0""
""blur"",""1"",""15899""
","""event"",""trial"",""time""
""focus"",""1"",""13850""
""focus"",""1"",""130124""
","""event"",""trial"",""time""
""fullscreenenter"",""5"",""143911""
","
",368.1500000002561,NA,49,NA,NA,3000,1,NA,NA,images/tutyellowplanet.jpg,images/tutalien4,images/tutalien3,images/tutrocket1,images/tutalien3,images/nothing.png,2,practice,false,1,rare,0,2020-06-30T03:28:03Z,sub141
two-step-fixation,120,590722,0.0-61.0-2.19,FALSE,TRUE,TRUE,FALSE,"""event"",""trial"",""time""
""blur"",""0"",""0""
""focus"",""1"",""13850""
""blur"",""1"",""15899""
""focus"",""1"",""130124""
""fullscreenenter"",""5"",""143911""
","""event"",""trial"",""time""
""blur"",""0"",""0""
""blur"",""1"",""15899""
","""event"",""trial"",""time""
""focus"",""1"",""13850""
""focus"",""1"",""130124""
","""event"",""trial"",""time""
""fullscreenenter"",""5"",""143911""
","
",NA,images/earth.jpg,NA,NA,NA,NA,NA,NA,NA,NA,NA,NA,NA,NA,NA,fixation,NA,NA,NA,NA,NA,NA,sub141
d3-instructions,121,594323,0.0-62.0,FALSE,TRUE,TRUE,FALSE,"""event"",""trial"",""time""
""blur"",""0"",""0""
""focus"",""1"",""13850""
""blur"",""1"",""15899""
""focus"",""1"",""130124""
""fullscreenenter"",""5"",""143911""
","""event"",""trial"",""time""
""blur"",""0"",""0""
""blur"",""1"",""15899""
","""event"",""trial"",""time""
""focus"",""1"",""13850""
""focus"",""1"",""130124""
","""event"",""trial"",""time""
""fullscreenenter"",""5"",""143911""
","
",NA,NA,NA,NA,NA,NA,NA,NA,NA,NA,NA,NA,NA,NA,NA,NA,NA,NA,NA,NA,NA,NA,sub141
audio-keyboard-response,122,596242,0.0-63.0,FALSE,TRUE,TRUE,FALSE,"""event"",""trial"",""time""
""blur"",""0"",""0""
""focus"",""1"",""13850""
""blur"",""1"",""15899""
""focus"",""1"",""130124""
""fullscreenenter"",""5"",""143911""
","""event"",""trial"",""time""
""blur"",""0"",""0""
""blur"",""1"",""15899""
","""event"",""trial"",""time""
""focus"",""1"",""13850""
""focus"",""1"",""130124""
","""event"",""trial"",""time""
""fullscreenenter"",""5"",""143911""
","
",1920,audio/instructions/treasure_feedback.wav,32,NA,NA,NA,NA,NA,NA,NA,NA,NA,NA,NA,NA,NA,NA,NA,NA,NA,NA,NA,sub141
d3-instructions,123,603379,0.0-64.0,FALSE,TRUE,TRUE,FALSE,"""event"",""trial"",""time""
""blur"",""0"",""0""
""focus"",""1"",""13850""
""blur"",""1"",""15899""
""focus"",""1"",""130124""
""fullscreenenter"",""5"",""143911""
","""event"",""trial"",""time""
""blur"",""0"",""0""
""blur"",""1"",""15899""
","""event"",""trial"",""time""
""focus"",""1"",""13850""
""focus"",""1"",""130124""
","""event"",""trial"",""time""
""fullscreenenter"",""5"",""143911""
","
",NA,NA,NA,NA,NA,NA,NA,NA,NA,NA,NA,NA,NA,NA,NA,NA,NA,NA,NA,NA,NA,NA,sub141
d3-instructions,124,612620,0.0-65.0,FALSE,TRUE,TRUE,FALSE,"""event"",""trial"",""time""
""blur"",""0"",""0""
""focus"",""1"",""13850""
""blur"",""1"",""15899""
""focus"",""1"",""130124""
""fullscreenenter"",""5"",""143911""
","""event"",""trial"",""time""
""blur"",""0"",""0""
""blur"",""1"",""15899""
","""event"",""trial"",""time""
""focus"",""1"",""13850""
""focus"",""1"",""130124""
","""event"",""trial"",""time""
""fullscreenenter"",""5"",""143911""
","
",NA,NA,NA,NA,NA,NA,NA,NA,NA,NA,NA,NA,NA,NA,NA,NA,NA,NA,NA,NA,NA,NA,sub141
d3-instructions,125,626588,0.0-66.0,FALSE,TRUE,TRUE,FALSE,"""event"",""trial"",""time""
""blur"",""0"",""0""
""focus"",""1"",""13850""
""blur"",""1"",""15899""
""focus"",""1"",""130124""
""fullscreenenter"",""5"",""143911""
","""event"",""trial"",""time""
""blur"",""0"",""0""
""blur"",""1"",""15899""
","""event"",""trial"",""time""
""focus"",""1"",""13850""
""focus"",""1"",""130124""
","""event"",""trial"",""time""
""fullscreenenter"",""5"",""143911""
","
",NA,NA,NA,NA,NA,NA,NA,NA,NA,NA,NA,NA,NA,NA,NA,NA,NA,NA,NA,NA,NA,NA,sub141
d3-instructions,126,639093,0.0-67.0,FALSE,TRUE,TRUE,FALSE,"""event"",""trial"",""time""
""blur"",""0"",""0""
""focus"",""1"",""13850""
""blur"",""1"",""15899""
""focus"",""1"",""130124""
""fullscreenenter"",""5"",""143911""
","""event"",""trial"",""time""
""blur"",""0"",""0""
""blur"",""1"",""15899""
","""event"",""trial"",""time""
""focus"",""1"",""13850""
""focus"",""1"",""130124""
","""event"",""trial"",""time""
""fullscreenenter"",""5"",""143911""
","
",NA,NA,NA,NA,NA,NA,NA,NA,NA,NA,NA,NA,NA,NA,NA,NA,NA,NA,NA,NA,NA,NA,sub141
d3-instructions,127,642645,0.0-68.0,FALSE,TRUE,TRUE,FALSE,"""event"",""trial"",""time""
""blur"",""0"",""0""
""focus"",""1"",""13850""
""blur"",""1"",""15899""
""focus"",""1"",""130124""
""fullscreenenter"",""5"",""143911""
","""event"",""trial"",""time""
""blur"",""0"",""0""
""blur"",""1"",""15899""
","""event"",""trial"",""time""
""focus"",""1"",""13850""
""focus"",""1"",""130124""
","""event"",""trial"",""time""
""fullscreenenter"",""5"",""143911""
","
",NA,NA,NA,NA,NA,NA,NA,NA,NA,NA,NA,NA,NA,NA,NA,NA,NA,NA,NA,NA,NA,NA,sub141
instructions-quiz,128,645336,0.0-69.0,FALSE,TRUE,TRUE,FALSE,"""event"",""trial"",""time""
""blur"",""0"",""0""
""focus"",""1"",""13850""
""blur"",""1"",""15899""
""focus"",""1"",""130124""
""fullscreenenter"",""5"",""143911""
","""event"",""trial"",""time""
""blur"",""0"",""0""
""blur"",""1"",""15899""
","""event"",""trial"",""time""
""focus"",""1"",""13850""
""focus"",""1"",""130124""
","""event"",""trial"",""time""
""fullscreenenter"",""5"",""143911""
","
",2685.864999999525,audio/quiz/Q1_Prompt.wav,NA,1,NA,NA,NA,NA,NA,NA,NA,NA,NA,NA,NA,NA,NA,NA,NA,NA,NA,NA,sub141
audio-keyboard-response,129,654502,0.0-70.0,FALSE,TRUE,TRUE,FALSE,"""event"",""trial"",""time""
""blur"",""0"",""0""
""focus"",""1"",""13850""
""blur"",""1"",""15899""
""focus"",""1"",""130124""
""fullscreenenter"",""5"",""143911""
","""event"",""trial"",""time""
""blur"",""0"",""0""
""blur"",""1"",""15899""
","""event"",""trial"",""time""
""focus"",""1"",""13850""
""focus"",""1"",""130124""
","""event"",""trial"",""time""
""fullscreenenter"",""5"",""143911""
","
",null,audio/quiz/Q1_Correct.wav,null,NA,NA,NA,NA,NA,NA,NA,NA,NA,NA,NA,NA,NA,NA,NA,NA,NA,NA,NA,sub141
instructions-quiz,130,659321,0.0-71.0,FALSE,TRUE,TRUE,FALSE,"""event"",""trial"",""time""
""blur"",""0"",""0""
""focus"",""1"",""13850""
""blur"",""1"",""15899""
""focus"",""1"",""130124""
""fullscreenenter"",""5"",""143911""
","""event"",""trial"",""time""
""blur"",""0"",""0""
""blur"",""1"",""15899""
","""event"",""trial"",""time""
""focus"",""1"",""13850""
""focus"",""1"",""130124""
","""event"",""trial"",""time""
""fullscreenenter"",""5"",""143911""
","
",4816.160000000382,audio/quiz/Q2_Prompt.wav,NA,0,NA,NA,NA,NA,NA,NA,NA,NA,NA,NA,NA,NA,NA,NA,NA,NA,NA,NA,sub141
audio-keyboard-response,131,672193,0.0-72.0,FALSE,TRUE,TRUE,FALSE,"""event"",""trial"",""time""
""blur"",""0"",""0""
""focus"",""1"",""13850""
""blur"",""1"",""15899""
""focus"",""1"",""130124""
""fullscreenenter"",""5"",""143911""
","""event"",""trial"",""time""
""blur"",""0"",""0""
""blur"",""1"",""15899""
","""event"",""trial"",""time""
""focus"",""1"",""13850""
""focus"",""1"",""130124""
","""event"",""trial"",""time""
""fullscreenenter"",""5"",""143911""
","
",null,audio/quiz/Q2_Correct.wav,null,NA,NA,NA,NA,NA,NA,NA,NA,NA,NA,NA,NA,NA,NA,NA,NA,NA,NA,NA,sub141
instructions-quiz,132,674368,0.0-73.0,FALSE,TRUE,TRUE,FALSE,"""event"",""trial"",""time""
""blur"",""0"",""0""
""focus"",""1"",""13850""
""blur"",""1"",""15899""
""focus"",""1"",""130124""
""fullscreenenter"",""5"",""143911""
","""event"",""trial"",""time""
""blur"",""0"",""0""
""blur"",""1"",""15899""
","""event"",""trial"",""time""
""focus"",""1"",""13850""
""focus"",""1"",""130124""
","""event"",""trial"",""time""
""fullscreenenter"",""5"",""143911""
","
",2170.7900000001537,audio/quiz/Q3_Prompt.wav,NA,1,NA,NA,NA,NA,NA,NA,NA,NA,NA,NA,NA,NA,NA,NA,NA,NA,NA,NA,sub141
audio-keyboard-response,133,680164,0.0-74.0,FALSE,TRUE,TRUE,FALSE,"""event"",""trial"",""time""
""blur"",""0"",""0""
""focus"",""1"",""13850""
""blur"",""1"",""15899""
""focus"",""1"",""130124""
""fullscreenenter"",""5"",""143911""
""blur"",""134"",""914926""
""focus"",""134"",""1702044""
""blur"",""134"",""1883739""
""focus"",""134"",""1904971""
","""event"",""trial"",""time""
""blur"",""0"",""0""
""blur"",""1"",""15899""
""blur"",""134"",""914926""
""blur"",""134"",""1883739""
","""event"",""trial"",""time""
""focus"",""1"",""13850""
""focus"",""1"",""130124""
""focus"",""134"",""1702044""
""focus"",""134"",""1904971""
","""event"",""trial"",""time""
""fullscreenenter"",""5"",""143911""
","
",null,audio/quiz/Q3_Correct.wav,null,NA,NA,NA,NA,NA,NA,NA,NA,NA,NA,NA,NA,NA,NA,NA,NA,NA,NA,NA,sub141
d3-instructions,134,1906424,0.0-75.0,FALSE,TRUE,TRUE,FALSE,"""event"",""trial"",""time""
""blur"",""0"",""0""
""focus"",""1"",""13850""
""blur"",""1"",""15899""
""focus"",""1"",""130124""
""fullscreenenter"",""5"",""143911""
""blur"",""134"",""914926""
""focus"",""134"",""1702044""
""blur"",""134"",""1883739""
""focus"",""134"",""1904971""
","""event"",""trial"",""time""
""blur"",""0"",""0""
""blur"",""1"",""15899""
""blur"",""134"",""914926""
""blur"",""134"",""1883739""
","""event"",""trial"",""time""
""focus"",""1"",""13850""
""focus"",""1"",""130124""
""focus"",""134"",""1702044""
""focus"",""134"",""1904971""
","""event"",""trial"",""time""
""fullscreenenter"",""5"",""143911""
","
",NA,NA,NA,NA,NA,NA,NA,NA,NA,NA,NA,NA,NA,NA,NA,NA,NA,NA,NA,NA,NA,NA,sub141
d3-animate-choice,135,1910431,0.0-76.0-0.0,FALSE,TRUE,TRUE,FALSE,"""event"",""trial"",""time""
""blur"",""0"",""0""
""focus"",""1"",""13850""
""blur"",""1"",""15899""
""focus"",""1"",""130124""
""fullscreenenter"",""5"",""143911""
""blur"",""134"",""914926""
""focus"",""134"",""1702044""
""blur"",""134"",""1883739""
""focus"",""134"",""1904971""
","""event"",""trial"",""time""
""blur"",""0"",""0""
""blur"",""1"",""15899""
""blur"",""134"",""914926""
""blur"",""134"",""1883739""
","""event"",""trial"",""time""
""focus"",""1"",""13850""
""focus"",""1"",""130124""
""focus"",""134"",""1702044""
""focus"",""134"",""1904971""
","""event"",""trial"",""time""
""fullscreenenter"",""5"",""143911""
","
",3338.5250000001397,NA,48,NA,NA,3000,0,NA,NA,images/earth.jpg,images/rocket1,images/rocket2,null,NA,NA,1,real,null,2,NA,NA,NA,sub141
d3-animate-choice,136,1911441,0.0-76.0-1.0,FALSE,TRUE,TRUE,FALSE,"""event"",""trial"",""time""
""blur"",""0"",""0""
""focus"",""1"",""13850""
""blur"",""1"",""15899""
""focus"",""1"",""130124""
""fullscreenenter"",""5"",""143911""
""blur"",""134"",""914926""
""focus"",""134"",""1702044""
""blur"",""134"",""1883739""
""focus"",""134"",""1904971""
","""event"",""trial"",""time""
""blur"",""0"",""0""
""blur"",""1"",""15899""
""blur"",""134"",""914926""
""blur"",""134"",""1883739""
","""event"",""trial"",""time""
""focus"",""1"",""13850""
""focus"",""1"",""130124""
""focus"",""134"",""1702044""
""focus"",""134"",""1904971""
","""event"",""trial"",""time""
""fullscreenenter"",""5"",""143911""
","
",null,NA,null,NA,NA,0,0,NA,NA,images/earth.jpg,images/rocket1,images/rocket2,null,NA,NA,2,real,null,NA,NA,0,2020-06-30T03:50:05Z,sub141
two-step-fixation,137,1912447,0.0-76.0-2.0,FALSE,TRUE,TRUE,FALSE,"""event"",""trial"",""time""
""blur"",""0"",""0""
""focus"",""1"",""13850""
""blur"",""1"",""15899""
""focus"",""1"",""130124""
""fullscreenenter"",""5"",""143911""
""blur"",""134"",""914926""
""focus"",""134"",""1702044""
""blur"",""134"",""1883739""
""focus"",""134"",""1904971""
","""event"",""trial"",""time""
""blur"",""0"",""0""
""blur"",""1"",""15899""
""blur"",""134"",""914926""
""blur"",""134"",""1883739""
","""event"",""trial"",""time""
""focus"",""1"",""13850""
""focus"",""1"",""130124""
""focus"",""134"",""1702044""
""focus"",""134"",""1904971""
","""event"",""trial"",""time""
""fullscreenenter"",""5"",""143911""
","
",NA,images/earth.jpg,NA,NA,NA,NA,NA,NA,NA,NA,NA,NA,NA,NA,NA,fixation,NA,NA,NA,NA,NA,NA,sub141
d3-animate-choice,138,1914956,0.0-76.0-0.1,FALSE,TRUE,TRUE,FALSE,"""event"",""trial"",""time""
""blur"",""0"",""0""
""focus"",""1"",""13850""
""blur"",""1"",""15899""
""focus"",""1"",""130124""
""fullscreenenter"",""5"",""143911""
""blur"",""134"",""914926""
""focus"",""134"",""1702044""
""blur"",""134"",""1883739""
""focus"",""134"",""1904971""
","""event"",""trial"",""time""
""blur"",""0"",""0""
""blur"",""1"",""15899""
""blur"",""134"",""914926""
""blur"",""134"",""1883739""
","""event"",""trial"",""time""
""focus"",""1"",""13850""
""focus"",""1"",""130124""
""focus"",""134"",""1702044""
""focus"",""134"",""1904971""
","""event"",""trial"",""time""
""fullscreenenter"",""5"",""143911""
","
",500.9149999995716,NA,48,NA,NA,3000,1,NA,NA,images/earth.jpg,images/rocket1,images/rocket2,null,images/rocket1,NA,1,real,null,2,NA,NA,NA,sub141
d3-animate-choice,139,1917578,0.0-76.0-1.1,FALSE,TRUE,TRUE,FALSE,"""event"",""trial"",""time""
""blur"",""0"",""0""
""focus"",""1"",""13850""
""blur"",""1"",""15899""
""focus"",""1"",""130124""
""fullscreenenter"",""5"",""143911""
""blur"",""134"",""914926""
""focus"",""134"",""1702044""
""blur"",""134"",""1883739""
""focus"",""134"",""1904971""
","""event"",""trial"",""time""
""blur"",""0"",""0""
""blur"",""1"",""15899""
""blur"",""134"",""914926""
""blur"",""134"",""1883739""
","""event"",""trial"",""time""
""focus"",""1"",""13850""
""focus"",""1"",""130124""
""focus"",""134"",""1702044""
""focus"",""134"",""1904971""
","""event"",""trial"",""time""
""fullscreenenter"",""5"",""143911""
","
",615.4150000000373,NA,49,NA,NA,3000,1,NA,NA,images/redplanet1.jpg,images/alien2,images/alien1,images/rocket1,images/alien1,images/t.png,2,real,true,1,common,1,2020-06-30T03:50:11Z,sub141
two-step-fixation,140,1918584,0.0-76.0-2.1,FALSE,TRUE,TRUE,FALSE,"""event"",""trial"",""time""
""blur"",""0"",""0""
""focus"",""1"",""13850""
""blur"",""1"",""15899""
""focus"",""1"",""130124""
""fullscreenenter"",""5"",""143911""
""blur"",""134"",""914926""
""focus"",""134"",""1702044""
""blur"",""134"",""1883739""
""focus"",""134"",""1904971""
","""event"",""trial"",""time""
""blur"",""0"",""0""
""blur"",""1"",""15899""
""blur"",""134"",""914926""
""blur"",""134"",""1883739""
","""event"",""trial"",""time""
""focus"",""1"",""13850""
""focus"",""1"",""130124""
""focus"",""134"",""1702044""
""focus"",""134"",""1904971""
","""event"",""trial"",""time""
""fullscreenenter"",""5"",""143911""
","
",NA,images/earth.jpg,NA,NA,NA,NA,NA,NA,NA,NA,NA,NA,NA,NA,NA,fixation,NA,NA,NA,NA,NA,NA,sub141
d3-animate-choice,141,1920957,0.0-76.0-0.2,FALSE,TRUE,TRUE,FALSE,"""event"",""trial"",""time""
""blur"",""0"",""0""
""focus"",""1"",""13850""
""blur"",""1"",""15899""
""focus"",""1"",""130124""
""fullscreenenter"",""5"",""143911""
""blur"",""134"",""914926""
""focus"",""134"",""1702044""
""blur"",""134"",""1883739""
""focus"",""134"",""1904971""
","""event"",""trial"",""time""
""blur"",""0"",""0""
""blur"",""1"",""15899""
""blur"",""134"",""914926""
""blur"",""134"",""1883739""
","""event"",""trial"",""time""
""focus"",""1"",""13850""
""focus"",""1"",""130124""
""focus"",""134"",""1702044""
""focus"",""134"",""1904971""
","""event"",""trial"",""time""
""fullscreenenter"",""5"",""143911""
","
",364.2449999996461,NA,48,NA,NA,3000,1,NA,NA,images/earth.jpg,images/rocket1,images/rocket2,null,images/rocket1,NA,1,real,null,2,NA,NA,NA,sub141
d3-animate-choice,142,1924090,0.0-76.0-1.2,FALSE,TRUE,TRUE,FALSE,"""event"",""trial"",""time""
""blur"",""0"",""0""
""focus"",""1"",""13850""
""blur"",""1"",""15899""
""focus"",""1"",""130124""
""fullscreenenter"",""5"",""143911""
""blur"",""134"",""914926""
""focus"",""134"",""1702044""
""blur"",""134"",""1883739""
""focus"",""134"",""1904971""
","""event"",""trial"",""time""
""blur"",""0"",""0""
""blur"",""1"",""15899""
""blur"",""134"",""914926""
""blur"",""134"",""1883739""
","""event"",""trial"",""time""
""focus"",""1"",""13850""
""focus"",""1"",""130124""
""focus"",""134"",""1702044""
""focus"",""134"",""1904971""
","""event"",""trial"",""time""
""fullscreenenter"",""5"",""143911""
","
",1127.3000000000466,NA,48,NA,NA,3000,1,NA,NA,images/purpleplanet.jpg,images/alien4,images/alien3,images/rocket1,images/alien4,images/nothing.png,2,real,false,2,rare,0,2020-06-30T03:50:18Z,sub141
two-step-fixation,143,1925096,0.0-76.0-2.2,FALSE,TRUE,TRUE,FALSE,"""event"",""trial"",""time""
""blur"",""0"",""0""
""focus"",""1"",""13850""
""blur"",""1"",""15899""
""focus"",""1"",""130124""
""fullscreenenter"",""5"",""143911""
""blur"",""134"",""914926""
""focus"",""134"",""1702044""
""blur"",""134"",""1883739""
""focus"",""134"",""1904971""
","""event"",""trial"",""time""
""blur"",""0"",""0""
""blur"",""1"",""15899""
""blur"",""134"",""914926""
""blur"",""134"",""1883739""
","""event"",""trial"",""time""
""focus"",""1"",""13850""
""focus"",""1"",""130124""
""focus"",""134"",""1702044""
""focus"",""134"",""1904971""
","""event"",""trial"",""time""
""fullscreenenter"",""5"",""143911""
","
",NA,images/earth.jpg,NA,NA,NA,NA,NA,NA,NA,NA,NA,NA,NA,NA,NA,fixation,NA,NA,NA,NA,NA,NA,sub141
d3-animate-choice,144,1927460,0.0-76.0-0.3,FALSE,TRUE,TRUE,FALSE,"""event"",""trial"",""time""
""blur"",""0"",""0""
""focus"",""1"",""13850""
""blur"",""1"",""15899""
""focus"",""1"",""130124""
""fullscreenenter"",""5"",""143911""
""blur"",""134"",""914926""
""focus"",""134"",""1702044""
""blur"",""134"",""1883739""
""focus"",""134"",""1904971""
","""event"",""trial"",""time""
""blur"",""0"",""0""
""blur"",""1"",""15899""
""blur"",""134"",""914926""
""blur"",""134"",""1883739""
","""event"",""trial"",""time""
""focus"",""1"",""13850""
""focus"",""1"",""130124""
""focus"",""134"",""1702044""
""focus"",""134"",""1904971""
","""event"",""trial"",""time""
""fullscreenenter"",""5"",""143911""
","
",356.964999999851,NA,48,NA,NA,3000,1,NA,NA,images/earth.jpg,images/rocket1,images/rocket2,null,images/rocket1,NA,1,real,null,2,NA,NA,NA,sub141
d3-animate-choice,145,1930315,0.0-76.0-1.3,FALSE,TRUE,TRUE,FALSE,"""event"",""trial"",""time""
""blur"",""0"",""0""
""focus"",""1"",""13850""
""blur"",""1"",""15899""
""focus"",""1"",""130124""
""fullscreenenter"",""5"",""143911""
""blur"",""134"",""914926""
""focus"",""134"",""1702044""
""blur"",""134"",""1883739""
""focus"",""134"",""1904971""
","""event"",""trial"",""time""
""blur"",""0"",""0""
""blur"",""1"",""15899""
""blur"",""134"",""914926""
""blur"",""134"",""1883739""
","""event"",""trial"",""time""
""focus"",""1"",""13850""
""focus"",""1"",""130124""
""focus"",""134"",""1702044""
""focus"",""134"",""1904971""
","""event"",""trial"",""time""
""fullscreenenter"",""5"",""143911""
","
",849.0099999997765,NA,49,NA,NA,3000,1,1064.7850000003818,48,images/redplanet1.jpg,images/alien2,images/alien1,images/rocket1,images/alien1,images/nothing.png,2,real,true,1,common,0,2020-06-30T03:50:24Z,sub141
two-step-fixation,146,1931320,0.0-76.0-2.3,FALSE,TRUE,TRUE,FALSE,"""event"",""trial"",""time""
""blur"",""0"",""0""
""focus"",""1"",""13850""
""blur"",""1"",""15899""
""focus"",""1"",""130124""
""fullscreenenter"",""5"",""143911""
""blur"",""134"",""914926""
""focus"",""134"",""1702044""
""blur"",""134"",""1883739""
""focus"",""134"",""1904971""
","""event"",""trial"",""time""
""blur"",""0"",""0""
""blur"",""1"",""15899""
""blur"",""134"",""914926""
""blur"",""134"",""1883739""
","""event"",""trial"",""time""
""focus"",""1"",""13850""
""focus"",""1"",""130124""
""focus"",""134"",""1702044""
""focus"",""134"",""1904971""
","""event"",""trial"",""time""
""fullscreenenter"",""5"",""143911""
","
",NA,images/earth.jpg,NA,NA,NA,NA,NA,NA,NA,NA,NA,NA,NA,NA,NA,fixation,NA,NA,NA,NA,NA,NA,sub141
d3-animate-choice,147,1933619,0.0-76.0-0.4,FALSE,TRUE,TRUE,FALSE,"""event"",""trial"",""time""
""blur"",""0"",""0""
""focus"",""1"",""13850""
""blur"",""1"",""15899""
""focus"",""1"",""130124""
""fullscreenenter"",""5"",""143911""
""blur"",""134"",""914926""
""focus"",""134"",""1702044""
""blur"",""134"",""1883739""
""focus"",""134"",""1904971""
","""event"",""trial"",""time""
""blur"",""0"",""0""
""blur"",""1"",""15899""
""blur"",""134"",""914926""
""blur"",""134"",""1883739""
","""event"",""trial"",""time""
""focus"",""1"",""13850""
""focus"",""1"",""130124""
""focus"",""134"",""1702044""
""focus"",""134"",""1904971""
","""event"",""trial"",""time""
""fullscreenenter"",""5"",""143911""
","
",291.44499999983236,NA,48,NA,NA,3000,1,NA,NA,images/earth.jpg,images/rocket1,images/rocket2,null,images/rocket1,NA,1,real,null,2,NA,NA,NA,sub141
d3-animate-choice,148,1936139,0.0-76.0-1.4,FALSE,TRUE,TRUE,FALSE,"""event"",""trial"",""time""
""blur"",""0"",""0""
""focus"",""1"",""13850""
""blur"",""1"",""15899""
""focus"",""1"",""130124""
""fullscreenenter"",""5"",""143911""
""blur"",""134"",""914926""
""focus"",""134"",""1702044""
""blur"",""134"",""1883739""
""focus"",""134"",""1904971""
","""event"",""trial"",""time""
""blur"",""0"",""0""
""blur"",""1"",""15899""
""blur"",""134"",""914926""
""blur"",""134"",""1883739""
","""event"",""trial"",""time""
""focus"",""1"",""13850""
""focus"",""1"",""130124""
""focus"",""134"",""1702044""
""focus"",""134"",""1904971""
","""event"",""trial"",""time""
""fullscreenenter"",""5"",""143911""
","
",513.0749999997206,NA,48,NA,NA,3000,1,NA,NA,images/redplanet1.jpg,images/alien2,images/alien1,images/rocket1,images/alien2,images/t.png,2,real,true,2,common,1,2020-06-30T03:50:30Z,sub141
two-step-fixation,149,1937144,0.0-76.0-2.4,FALSE,TRUE,TRUE,FALSE,"""event"",""trial"",""time""
""blur"",""0"",""0""
""focus"",""1"",""13850""
""blur"",""1"",""15899""
""focus"",""1"",""130124""
""fullscreenenter"",""5"",""143911""
""blur"",""134"",""914926""
""focus"",""134"",""1702044""
""blur"",""134"",""1883739""
""focus"",""134"",""1904971""
","""event"",""trial"",""time""
""blur"",""0"",""0""
""blur"",""1"",""15899""
""blur"",""134"",""914926""
""blur"",""134"",""1883739""
","""event"",""trial"",""time""
""focus"",""1"",""13850""
""focus"",""1"",""130124""
""focus"",""134"",""1702044""
""focus"",""134"",""1904971""
","""event"",""trial"",""time""
""fullscreenenter"",""5"",""143911""
","
",NA,images/earth.jpg,NA,NA,NA,NA,NA,NA,NA,NA,NA,NA,NA,NA,NA,fixation,NA,NA,NA,NA,NA,NA,sub141
d3-animate-choice,150,1939483,0.0-76.0-0.5,FALSE,TRUE,TRUE,FALSE,"""event"",""trial"",""time""
""blur"",""0"",""0""
""focus"",""1"",""13850""
""blur"",""1"",""15899""
""focus"",""1"",""130124""
""fullscreenenter"",""5"",""143911""
""blur"",""134"",""914926""
""focus"",""134"",""1702044""
""blur"",""134"",""1883739""
""focus"",""134"",""1904971""
","""event"",""trial"",""time""
""blur"",""0"",""0""
""blur"",""1"",""15899""
""blur"",""134"",""914926""
""blur"",""134"",""1883739""
","""event"",""trial"",""time""
""focus"",""1"",""13850""
""focus"",""1"",""130124""
""focus"",""134"",""1702044""
""focus"",""134"",""1904971""
","""event"",""trial"",""time""
""fullscreenenter"",""5"",""143911""
","
",332.4350000002887,NA,48,NA,NA,3000,1,NA,NA,images/earth.jpg,images/rocket1,images/rocket2,null,images/rocket1,NA,1,real,null,2,NA,NA,NA,sub141
d3-animate-choice,151,1942188,0.0-76.0-1.5,FALSE,TRUE,TRUE,FALSE,"""event"",""trial"",""time""
""blur"",""0"",""0""
""focus"",""1"",""13850""
""blur"",""1"",""15899""
""focus"",""1"",""130124""
""fullscreenenter"",""5"",""143911""
""blur"",""134"",""914926""
""focus"",""134"",""1702044""
""blur"",""134"",""1883739""
""focus"",""134"",""1904971""
","""event"",""trial"",""time""
""blur"",""0"",""0""
""blur"",""1"",""15899""
""blur"",""134"",""914926""
""blur"",""134"",""1883739""
","""event"",""trial"",""time""
""focus"",""1"",""13850""
""focus"",""1"",""130124""
""focus"",""134"",""1702044""
""focus"",""134"",""1904971""
","""event"",""trial"",""time""
""fullscreenenter"",""5"",""143911""
","
",697.8250000001863,NA,48,NA,NA,3000,1,NA,NA,images/redplanet1.jpg,images/alien2,images/alien1,images/rocket1,images/alien2,images/nothing.png,2,real,true,2,common,0,2020-06-30T03:50:36Z,sub141
two-step-fixation,152,1943194,0.0-76.0-2.5,FALSE,TRUE,TRUE,FALSE,"""event"",""trial"",""time""
""blur"",""0"",""0""
""focus"",""1"",""13850""
""blur"",""1"",""15899""
""focus"",""1"",""130124""
""fullscreenenter"",""5"",""143911""
""blur"",""134"",""914926""
""focus"",""134"",""1702044""
""blur"",""134"",""1883739""
""focus"",""134"",""1904971""
","""event"",""trial"",""time""
""blur"",""0"",""0""
""blur"",""1"",""15899""
""blur"",""134"",""914926""
""blur"",""134"",""1883739""
","""event"",""trial"",""time""
""focus"",""1"",""13850""
""focus"",""1"",""130124""
""focus"",""134"",""1702044""
""focus"",""134"",""1904971""
","""event"",""trial"",""time""
""fullscreenenter"",""5"",""143911""
","
",NA,images/earth.jpg,NA,NA,NA,NA,NA,NA,NA,NA,NA,NA,NA,NA,NA,fixation,NA,NA,NA,NA,NA,NA,sub141
d3-animate-choice,153,1945469,0.0-76.0-0.6,FALSE,TRUE,TRUE,FALSE,"""event"",""trial"",""time""
""blur"",""0"",""0""
""focus"",""1"",""13850""
""blur"",""1"",""15899""
""focus"",""1"",""130124""
""fullscreenenter"",""5"",""143911""
""blur"",""134"",""914926""
""focus"",""134"",""1702044""
""blur"",""134"",""1883739""
""focus"",""134"",""1904971""
","""event"",""trial"",""time""
""blur"",""0"",""0""
""blur"",""1"",""15899""
""blur"",""134"",""914926""
""blur"",""134"",""1883739""
","""event"",""trial"",""time""
""focus"",""1"",""13850""
""focus"",""1"",""130124""
""focus"",""134"",""1702044""
""focus"",""134"",""1904971""
","""event"",""trial"",""time""
""fullscreenenter"",""5"",""143911""
","
",267.35000000009313,NA,48,NA,NA,3000,1,NA,NA,images/earth.jpg,images/rocket1,images/rocket2,null,images/rocket1,NA,1,real,null,2,NA,NA,NA,sub141
d3-animate-choice,154,1948116,0.0-76.0-1.6,FALSE,TRUE,TRUE,FALSE,"""event"",""trial"",""time""
""blur"",""0"",""0""
""focus"",""1"",""13850""
""blur"",""1"",""15899""
""focus"",""1"",""130124""
""fullscreenenter"",""5"",""143911""
""blur"",""134"",""914926""
""focus"",""134"",""1702044""
""blur"",""134"",""1883739""
""focus"",""134"",""1904971""
","""event"",""trial"",""time""
""blur"",""0"",""0""
""blur"",""1"",""15899""
""blur"",""134"",""914926""
""blur"",""134"",""1883739""
","""event"",""trial"",""time""
""focus"",""1"",""13850""
""focus"",""1"",""130124""
