trial_type,trial_index,time_elapsed,internal_node_id,rocket_sides,red_planet_first_rocket,red_display_order,purple_display_order,interactions,blur_events,focus_events,fullscreenenter_events,fullscreenexit_events,rt,stimulus,key_press,button_pressed,success,duration,valid_pressed,rts,keys,planet_text,right_text,left_text,center_text,chosen_text,reward_text,trial_stage,practice_trial,transition_type,choice,transition,reward,timestamp,subject_id
pavlovia,0,4,0.0-0.0,FALSE,TRUE,TRUE,TRUE,"
","
","
","
","
",NA,NA,NA,NA,NA,NA,NA,NA,NA,NA,NA,NA,NA,NA,NA,NA,NA,NA,NA,NA,NA,NA,sub147
html-keyboard-response,1,4475,0.0-1.0,FALSE,TRUE,TRUE,TRUE,"
","
","
","
","
",4470.3950000039185,Welcome! Press the space bar to begin.,32,NA,NA,NA,NA,NA,NA,NA,NA,NA,NA,NA,NA,NA,NA,NA,NA,NA,NA,NA,sub147
audio-keyboard-response,2,9027,0.0-2.0,FALSE,TRUE,TRUE,TRUE,"
","
","
","
","
",3869,audio/beep_loop.wav,32,NA,NA,NA,NA,NA,NA,NA,NA,NA,NA,NA,NA,NA,NA,NA,NA,NA,NA,NA,sub147
audio-button-response,3,12607,0.0-3.0,FALSE,TRUE,TRUE,TRUE,"
","
","
","
","
",NaN,audio/fish.mp3,NA,1,NA,NA,NA,NA,NA,NA,NA,NA,NA,NA,NA,NA,NA,NA,NA,NA,NA,NA,sub147
audio-button-response,4,15326,0.0-4.0,FALSE,TRUE,TRUE,TRUE,"""event"",""trial"",""time""
""fullscreenenter"",""5"",""21827""
","
","
","""event"",""trial"",""time""
""fullscreenenter"",""5"",""21827""
","
",NaN,audio/tiger.mp3,NA,4,NA,NA,NA,NA,NA,NA,NA,NA,NA,NA,NA,NA,NA,NA,NA,NA,NA,NA,sub147
fullscreen,5,22800,0.0-5.0,FALSE,TRUE,TRUE,TRUE,"""event"",""trial"",""time""
""fullscreenenter"",""5"",""21827""
","
","
","""event"",""trial"",""time""
""fullscreenenter"",""5"",""21827""
","
",NA,NA,NA,NA,TRUE,NA,NA,NA,NA,NA,NA,NA,NA,NA,NA,NA,NA,NA,NA,NA,NA,NA,sub147
d3-instructions,6,36536,0.0-6.0,FALSE,TRUE,TRUE,TRUE,"""event"",""trial"",""time""
""fullscreenenter"",""5"",""21827""
","
","
","""event"",""trial"",""time""
""fullscreenenter"",""5"",""21827""
","
",NA,NA,NA,NA,NA,NA,NA,NA,NA,NA,NA,NA,NA,NA,NA,NA,NA,NA,NA,NA,NA,NA,sub147
d3-instructions,7,48957,0.0-7.0,FALSE,TRUE,TRUE,TRUE,"""event"",""trial"",""time""
""fullscreenenter"",""5"",""21827""
","
","
","""event"",""trial"",""time""
""fullscreenenter"",""5"",""21827""
","
",NA,NA,NA,NA,NA,NA,NA,NA,NA,NA,NA,NA,NA,NA,NA,NA,NA,NA,NA,NA,NA,NA,sub147
d3-instructions,8,56530,0.0-8.0,FALSE,TRUE,TRUE,TRUE,"""event"",""trial"",""time""
""fullscreenenter"",""5"",""21827""
","
","
","""event"",""trial"",""time""
""fullscreenenter"",""5"",""21827""
","
",NA,NA,NA,NA,NA,NA,NA,NA,NA,NA,NA,NA,NA,NA,NA,NA,NA,NA,NA,NA,NA,NA,sub147
d3-instructions,9,69004,0.0-9.0,FALSE,TRUE,TRUE,TRUE,"""event"",""trial"",""time""
""fullscreenenter"",""5"",""21827""
","
","
","""event"",""trial"",""time""
""fullscreenenter"",""5"",""21827""
","
",NA,NA,NA,NA,NA,NA,NA,NA,NA,NA,NA,NA,NA,NA,NA,NA,NA,NA,NA,NA,NA,NA,sub147
d3-instructions,10,88473,0.0-10.0,FALSE,TRUE,TRUE,TRUE,"""event"",""trial"",""time""
""fullscreenenter"",""5"",""21827""
","
","
","""event"",""trial"",""time""
""fullscreenenter"",""5"",""21827""
","
",NA,NA,NA,NA,NA,NA,NA,NA,NA,NA,NA,NA,NA,NA,NA,NA,NA,NA,NA,NA,NA,NA,sub147
d3-animate-choice,11,91607,0.0-11.0,FALSE,TRUE,TRUE,TRUE,"""event"",""trial"",""time""
""fullscreenenter"",""5"",""21827""
","
","
","""event"",""trial"",""time""
""fullscreenenter"",""5"",""21827""
","
",1128.6749999999302,NA,49,NA,NA,3000,1,1984.4850000008591,48,images/tutgreenplanet.jpg,images/tutalien1,images/tutalien2,null,images/tutalien2,NA,NA,practice,null,NA,NA,NA,NA,sub147
d3-animate-choice,12,93702,0.0-12.0,FALSE,TRUE,TRUE,TRUE,"""event"",""trial"",""time""
""fullscreenenter"",""5"",""21827""
","
","
","""event"",""trial"",""time""
""fullscreenenter"",""5"",""21827""
","
",89.88500000123167,NA,49,NA,NA,3000,1,NA,NA,images/tutgreenplanet.jpg,images/tutalien1,images/tutalien2,null,images/tutalien2,NA,NA,practice,null,NA,NA,NA,NA,sub147
d3-animate-choice,13,96156,0.0-13.0,FALSE,TRUE,TRUE,TRUE,"""event"",""trial"",""time""
""fullscreenenter"",""5"",""21827""
","
","
","""event"",""trial"",""time""
""fullscreenenter"",""5"",""21827""
","
",442.17500000377186,NA,48,NA,NA,3000,1,NA,NA,images/tutgreenplanet.jpg,images/tutalien1,images/tutalien2,null,images/tutalien1,NA,NA,practice,null,NA,NA,NA,NA,sub147
d3-animate-choice,14,98573,0.0-14.0,FALSE,TRUE,TRUE,TRUE,"""event"",""trial"",""time""
""fullscreenenter"",""5"",""21827""
","
","
","""event"",""trial"",""time""
""fullscreenenter"",""5"",""21827""
","
",412.8599999967264,NA,48,NA,NA,3000,1,NA,NA,images/tutgreenplanet.jpg,images/tutalien1,images/tutalien2,null,images/tutalien1,NA,NA,practice,null,NA,NA,NA,NA,sub147
d3-instructions,15,106251,0.0-15.0,FALSE,TRUE,TRUE,TRUE,"""event"",""trial"",""time""
""fullscreenenter"",""5"",""21827""
","
","
","""event"",""trial"",""time""
""fullscreenenter"",""5"",""21827""
","
",NA,NA,NA,NA,NA,NA,NA,NA,NA,NA,NA,NA,NA,NA,NA,NA,NA,NA,NA,NA,NA,NA,sub147
d3-instructions,16,115691,0.0-16.0,FALSE,TRUE,TRUE,TRUE,"""event"",""trial"",""time""
""fullscreenenter"",""5"",""21827""
","
","
","""event"",""trial"",""time""
""fullscreenenter"",""5"",""21827""
","
",NA,NA,NA,NA,NA,NA,NA,NA,NA,NA,NA,NA,NA,NA,NA,NA,NA,NA,NA,NA,NA,NA,sub147
d3-instructions,17,126363,0.0-17.0,FALSE,TRUE,TRUE,TRUE,"""event"",""trial"",""time""
""fullscreenenter"",""5"",""21827""
","
","
","""event"",""trial"",""time""
""fullscreenenter"",""5"",""21827""
","
",NA,NA,NA,NA,NA,NA,NA,NA,NA,NA,NA,NA,NA,NA,NA,NA,NA,NA,NA,NA,NA,NA,sub147
d3-instructions,18,141244,0.0-18.0,FALSE,TRUE,TRUE,TRUE,"""event"",""trial"",""time""
""fullscreenenter"",""5"",""21827""
","
","
","""event"",""trial"",""time""
""fullscreenenter"",""5"",""21827""
","
",NA,NA,NA,NA,NA,NA,NA,NA,NA,NA,NA,NA,NA,NA,NA,NA,NA,NA,NA,NA,NA,NA,sub147
d3-instructions,19,155305,0.0-19.0,FALSE,TRUE,TRUE,TRUE,"""event"",""trial"",""time""
""fullscreenenter"",""5"",""21827""
","
","
","""event"",""trial"",""time""
""fullscreenenter"",""5"",""21827""
","
",NA,NA,NA,NA,NA,NA,NA,NA,NA,NA,NA,NA,NA,NA,NA,NA,NA,NA,NA,NA,NA,NA,sub147
d3-animate-choice,20,158113,0.0-20.0,FALSE,TRUE,TRUE,TRUE,"""event"",""trial"",""time""
""fullscreenenter"",""5"",""21827""
","
","
","""event"",""trial"",""time""
""fullscreenenter"",""5"",""21827""
","
",800.9600000004866,NA,49,NA,NA,3000,1,NA,NA,images/tutyellowplanet.jpg,null,images/tutalien3,null,images/tutalien3,images/t.png,NA,practice,null,NA,NA,NA,NA,sub147
d3-animate-choice,21,160648,0.0-21.0,FALSE,TRUE,TRUE,TRUE,"""event"",""trial"",""time""
""fullscreenenter"",""5"",""21827""
","
","
","""event"",""trial"",""time""
""fullscreenenter"",""5"",""21827""
","
",532.1799999946961,NA,49,NA,NA,3000,1,NA,NA,images/tutyellowplanet.jpg,null,images/tutalien3,null,images/tutalien3,images/t.png,NA,practice,null,NA,NA,NA,NA,sub147
d3-animate-choice,22,162926,0.0-22.0,FALSE,TRUE,TRUE,TRUE,"""event"",""trial"",""time""
""fullscreenenter"",""5"",""21827""
","
","
","""event"",""trial"",""time""
""fullscreenenter"",""5"",""21827""
","
",275.32500000233995,NA,49,NA,NA,3000,1,NA,NA,images/tutyellowplanet.jpg,null,images/tutalien3,null,images/tutalien3,images/t.png,NA,practice,null,NA,NA,NA,NA,sub147
d3-animate-choice,23,164951,0.0-23.0,FALSE,TRUE,TRUE,TRUE,"""event"",""trial"",""time""
""fullscreenenter"",""5"",""21827""
","
","
","""event"",""trial"",""time""
""fullscreenenter"",""5"",""21827""
","
",15.950000000884756,NA,49,NA,NA,3000,1,NA,NA,images/tutyellowplanet.jpg,null,images/tutalien3,null,images/tutalien3,images/t.png,NA,practice,null,NA,NA,NA,NA,sub147
d3-animate-choice,24,167246,0.0-24.0,FALSE,TRUE,TRUE,TRUE,"""event"",""trial"",""time""
""fullscreenenter"",""5"",""21827""
","
","
","""event"",""trial"",""time""
""fullscreenenter"",""5"",""21827""
","
",282.07000000111293,NA,49,NA,NA,3000,1,NA,NA,images/tutyellowplanet.jpg,null,images/tutalien3,null,images/tutalien3,images/t.png,NA,practice,null,NA,NA,NA,NA,sub147
d3-animate-choice,25,169350,0.0-25.0,FALSE,TRUE,TRUE,TRUE,"""event"",""trial"",""time""
""fullscreenenter"",""5"",""21827""
","
","
","""event"",""trial"",""time""
""fullscreenenter"",""5"",""21827""
","
",90.0199999960023,NA,49,NA,NA,3000,1,NA,NA,images/tutyellowplanet.jpg,null,images/tutalien3,null,images/tutalien3,images/t.png,NA,practice,null,NA,NA,NA,NA,sub147
d3-animate-choice,26,171600,0.0-26.0,FALSE,TRUE,TRUE,TRUE,"""event"",""trial"",""time""
""fullscreenenter"",""5"",""21827""
","
","
","""event"",""trial"",""time""
""fullscreenenter"",""5"",""21827""
","
",241.78000000392785,NA,49,NA,NA,3000,1,NA,NA,images/tutyellowplanet.jpg,null,images/tutalien3,null,images/tutalien3,images/nothing.png,NA,practice,null,NA,NA,NA,NA,sub147
d3-animate-choice,27,173882,0.0-27.0,FALSE,TRUE,TRUE,TRUE,"""event"",""trial"",""time""
""fullscreenenter"",""5"",""21827""
","
","
","""event"",""trial"",""time""
""fullscreenenter"",""5"",""21827""
","
",271.0900000020047,NA,49,NA,NA,3000,1,NA,NA,images/tutyellowplanet.jpg,null,images/tutalien3,null,images/tutalien3,images/t.png,NA,practice,null,NA,NA,NA,NA,sub147
d3-animate-choice,28,176172,0.0-28.0,FALSE,TRUE,TRUE,TRUE,"""event"",""trial"",""time""
""fullscreenenter"",""5"",""21827""
","
","
","""event"",""trial"",""time""
""fullscreenenter"",""5"",""21827""
","
",274.67500000057044,NA,49,NA,NA,3000,1,NA,NA,images/tutyellowplanet.jpg,null,images/tutalien3,null,images/tutalien3,images/nothing.png,NA,practice,null,NA,NA,NA,NA,sub147
d3-animate-choice,29,178439,0.0-29.0,FALSE,TRUE,TRUE,TRUE,"""event"",""trial"",""time""
""fullscreenenter"",""5"",""21827""
","
","
","""event"",""trial"",""time""
""fullscreenenter"",""5"",""21827""
","
",261.1299999989569,NA,49,NA,NA,3000,1,NA,NA,images/tutyellowplanet.jpg,null,images/tutalien3,null,images/tutalien3,images/t.png,NA,practice,null,NA,NA,NA,NA,sub147
d3-instructions,30,185291,0.0-30.0,FALSE,TRUE,TRUE,TRUE,"""event"",""trial"",""time""
""fullscreenenter"",""5"",""21827""
","
","
","""event"",""trial"",""time""
""fullscreenenter"",""5"",""21827""
","
",NA,NA,NA,NA,NA,NA,NA,NA,NA,NA,NA,NA,NA,NA,NA,NA,NA,NA,NA,NA,NA,NA,sub147
d3-instructions,31,196422,0.0-31.0,FALSE,TRUE,TRUE,TRUE,"""event"",""trial"",""time""
""fullscreenenter"",""5"",""21827""
","
","
","""event"",""trial"",""time""
""fullscreenenter"",""5"",""21827""
","
",NA,NA,NA,NA,NA,NA,NA,NA,NA,NA,NA,NA,NA,NA,NA,NA,NA,NA,NA,NA,NA,NA,sub147
d3-instructions,32,205812,0.0-32.0,FALSE,TRUE,TRUE,TRUE,"""event"",""trial"",""time""
""fullscreenenter"",""5"",""21827""
","
","
","""event"",""trial"",""time""
""fullscreenenter"",""5"",""21827""
","
",NA,NA,NA,NA,NA,NA,NA,NA,NA,NA,NA,NA,NA,NA,NA,NA,NA,NA,NA,NA,NA,NA,sub147
d3-instructions,33,216033,0.0-33.0,FALSE,TRUE,TRUE,TRUE,"""event"",""trial"",""time""
""fullscreenenter"",""5"",""21827""
","
","
","""event"",""trial"",""time""
""fullscreenenter"",""5"",""21827""
","
",NA,NA,NA,NA,NA,NA,NA,NA,NA,NA,NA,NA,NA,NA,NA,NA,NA,NA,NA,NA,NA,NA,sub147
d3-animate-choice,34,219453,0.0-34.0,FALSE,TRUE,TRUE,TRUE,"""event"",""trial"",""time""
""fullscreenenter"",""5"",""21827""
","
","
","""event"",""trial"",""time""
""fullscreenenter"",""5"",""21827""
","
",1409.4899999981862,NA,48,NA,NA,3000,1,NA,NA,images/tutgreenplanet.jpg,images/tutalien1,images/tutalien2,null,images/tutalien1,images/t.png,NA,practice,null,NA,NA,NA,NA,sub147
d3-animate-choice,35,222325,0.0-35.0,FALSE,TRUE,TRUE,TRUE,"""event"",""trial"",""time""
""fullscreenenter"",""5"",""21827""
","
","
","""event"",""trial"",""time""
""fullscreenenter"",""5"",""21827""
","
",859.8300000012387,NA,48,NA,NA,3000,1,NA,NA,images/tutgreenplanet.jpg,images/tutalien1,images/tutalien2,null,images/tutalien1,images/nothing.png,NA,practice,null,NA,NA,NA,NA,sub147
d3-animate-choice,36,224639,0.0-36.0,FALSE,TRUE,TRUE,TRUE,"""event"",""trial"",""time""
""fullscreenenter"",""5"",""21827""
","
","
","""event"",""trial"",""time""
""fullscreenenter"",""5"",""21827""
","
",304.5449999990524,NA,49,NA,NA,3000,1,NA,NA,images/tutgreenplanet.jpg,images/tutalien1,images/tutalien2,null,images/tutalien2,images/t.png,NA,practice,null,NA,NA,NA,NA,sub147
d3-animate-choice,37,227025,0.0-37.0,FALSE,TRUE,TRUE,TRUE,"""event"",""trial"",""time""
""fullscreenenter"",""5"",""21827""
","
","
","""event"",""trial"",""time""
""fullscreenenter"",""5"",""21827""
","
",369.0199999982724,NA,49,NA,NA,3000,1,NA,NA,images/tutgreenplanet.jpg,images/tutalien1,images/tutalien2,null,images/tutalien2,images/t.png,NA,practice,null,NA,NA,NA,NA,sub147
d3-animate-choice,38,229426,0.0-38.0,FALSE,TRUE,TRUE,TRUE,"""event"",""trial"",""time""
""fullscreenenter"",""5"",""21827""
","
","
","""event"",""trial"",""time""
""fullscreenenter"",""5"",""21827""
","
",399.4449999954668,NA,49,NA,NA,3000,1,NA,NA,images/tutgreenplanet.jpg,images/tutalien1,images/tutalien2,null,images/tutalien2,images/nothing.png,NA,practice,null,NA,NA,NA,NA,sub147
d3-animate-choice,39,231853,0.0-39.0,FALSE,TRUE,TRUE,TRUE,"""event"",""trial"",""time""
""fullscreenenter"",""5"",""21827""
","
","
","""event"",""trial"",""time""
""fullscreenenter"",""5"",""21827""
","
",424.4350000008126,NA,48,NA,NA,3000,1,NA,NA,images/tutgreenplanet.jpg,images/tutalien1,images/tutalien2,null,images/tutalien1,images/nothing.png,NA,practice,null,NA,NA,NA,NA,sub147
d3-animate-choice,40,233884,0.0-40.0,FALSE,TRUE,TRUE,TRUE,"""event"",""trial"",""time""
""fullscreenenter"",""5"",""21827""
","
","
","""event"",""trial"",""time""
""fullscreenenter"",""5"",""21827""
","
",28.53500000492204,NA,49,NA,NA,3000,1,NA,NA,images/tutgreenplanet.jpg,images/tutalien1,images/tutalien2,null,images/tutalien2,images/t.png,NA,practice,null,NA,NA,NA,NA,sub147
d3-animate-choice,41,236078,0.0-41.0,FALSE,TRUE,TRUE,TRUE,"""event"",""trial"",""time""
""fullscreenenter"",""5"",""21827""
","
","
","""event"",""trial"",""time""
""fullscreenenter"",""5"",""21827""
","
",192.1199999997043,NA,49,NA,NA,3000,1,NA,NA,images/tutgreenplanet.jpg,images/tutalien1,images/tutalien2,null,images/tutalien2,images/t.png,NA,practice,null,NA,NA,NA,NA,sub147
d3-animate-choice,42,238671,0.0-42.0,FALSE,TRUE,TRUE,TRUE,"""event"",""trial"",""time""
""fullscreenenter"",""5"",""21827""
","
","
","""event"",""trial"",""time""
""fullscreenenter"",""5"",""21827""
","
",590.7000000006519,NA,48,NA,NA,3000,1,NA,NA,images/tutgreenplanet.jpg,images/tutalien1,images/tutalien2,null,images/tutalien1,images/nothing.png,NA,practice,null,NA,NA,NA,NA,sub147
d3-animate-choice,43,240751,0.0-43.0,FALSE,TRUE,TRUE,TRUE,"""event"",""trial"",""time""
""fullscreenenter"",""5"",""21827""
","
","
","""event"",""trial"",""time""
""fullscreenenter"",""5"",""21827""
","
",77.99999999406282,NA,49,NA,NA,3000,1,2055.449999999837,49,images/tutgreenplanet.jpg,images/tutalien1,images/tutalien2,null,images/tutalien2,images/nothing.png,NA,practice,null,NA,NA,NA,NA,sub147
d3-instructions,44,253918,0.0-44.0,FALSE,TRUE,TRUE,TRUE,"""event"",""trial"",""time""
""fullscreenenter"",""5"",""21827""
","
","
","""event"",""trial"",""time""
""fullscreenenter"",""5"",""21827""
","
",NA,NA,NA,NA,NA,NA,NA,NA,NA,NA,NA,NA,NA,NA,NA,NA,NA,NA,NA,NA,NA,NA,sub147
d3-instructions,45,261110,0.0-45.0,FALSE,TRUE,TRUE,TRUE,"""event"",""trial"",""time""
""fullscreenenter"",""5"",""21827""
","
","
","""event"",""trial"",""time""
""fullscreenenter"",""5"",""21827""
","
",NA,NA,NA,NA,NA,NA,NA,NA,NA,NA,NA,NA,NA,NA,NA,NA,NA,NA,NA,NA,NA,NA,sub147
d3-instructions,46,266409,0.0-46.0,FALSE,TRUE,TRUE,TRUE,"""event"",""trial"",""time""
""fullscreenenter"",""5"",""21827""
","
","
","""event"",""trial"",""time""
""fullscreenenter"",""5"",""21827""
","
",NA,NA,NA,NA,NA,NA,NA,NA,NA,NA,NA,NA,NA,NA,NA,NA,NA,NA,NA,NA,NA,NA,sub147
d3-instructions,47,283199,0.0-47.0,FALSE,TRUE,TRUE,TRUE,"""event"",""trial"",""time""
""fullscreenenter"",""5"",""21827""
","
","
","""event"",""trial"",""time""
""fullscreenenter"",""5"",""21827""
","
",NA,NA,NA,NA,NA,NA,NA,NA,NA,NA,NA,NA,NA,NA,NA,NA,NA,NA,NA,NA,NA,NA,sub147
d3-instructions,48,290291,0.0-48.0,FALSE,TRUE,TRUE,TRUE,"""event"",""trial"",""time""
""fullscreenenter"",""5"",""21827""
","
","
","""event"",""trial"",""time""
""fullscreenenter"",""5"",""21827""
","
",NA,NA,NA,NA,NA,NA,NA,NA,NA,NA,NA,NA,NA,NA,NA,NA,NA,NA,NA,NA,NA,NA,sub147
d3-instructions,49,304134,0.0-49.0,FALSE,TRUE,TRUE,TRUE,"""event"",""trial"",""time""
""fullscreenenter"",""5"",""21827""
","
","
","""event"",""trial"",""time""
""fullscreenenter"",""5"",""21827""
","
",NA,NA,NA,NA,NA,NA,NA,NA,NA,NA,NA,NA,NA,NA,NA,NA,NA,NA,NA,NA,NA,NA,sub147
d3-instructions,50,315473,0.0-50.0,FALSE,TRUE,TRUE,TRUE,"""event"",""trial"",""time""
""fullscreenenter"",""5"",""21827""
","
","
","""event"",""trial"",""time""
""fullscreenenter"",""5"",""21827""
","
",NA,NA,NA,NA,NA,NA,NA,NA,NA,NA,NA,NA,NA,NA,NA,NA,NA,NA,NA,NA,NA,NA,sub147
d3-instructions,51,318141,0.0-51.0,FALSE,TRUE,TRUE,TRUE,"""event"",""trial"",""time""
""fullscreenenter"",""5"",""21827""
","
","
","""event"",""trial"",""time""
""fullscreenenter"",""5"",""21827""
","
",NA,NA,NA,NA,NA,NA,NA,NA,NA,NA,NA,NA,NA,NA,NA,NA,NA,NA,NA,NA,NA,NA,sub147
d3-instructions,52,320379,0.0-52.0,FALSE,TRUE,TRUE,TRUE,"""event"",""trial"",""time""
""fullscreenenter"",""5"",""21827""
","
","
","""event"",""trial"",""time""
""fullscreenenter"",""5"",""21827""
","
",NA,NA,NA,NA,NA,NA,NA,NA,NA,NA,NA,NA,NA,NA,NA,NA,NA,NA,NA,NA,NA,NA,sub147
d3-instructions,53,333865,0.0-53.0,FALSE,TRUE,TRUE,TRUE,"""event"",""trial"",""time""
""fullscreenenter"",""5"",""21827""
","
","
","""event"",""trial"",""time""
""fullscreenenter"",""5"",""21827""
","
",NA,NA,NA,NA,NA,NA,NA,NA,NA,NA,NA,NA,NA,NA,NA,NA,NA,NA,NA,NA,NA,NA,sub147
d3-instructions,54,348008,0.0-54.0,FALSE,TRUE,TRUE,TRUE,"""event"",""trial"",""time""
""fullscreenenter"",""5"",""21827""
","
","
","""event"",""trial"",""time""
""fullscreenenter"",""5"",""21827""
","
",NA,NA,NA,NA,NA,NA,NA,NA,NA,NA,NA,NA,NA,NA,NA,NA,NA,NA,NA,NA,NA,NA,sub147
d3-instructions,55,358551,0.0-55.0,FALSE,TRUE,TRUE,TRUE,"""event"",""trial"",""time""
""fullscreenenter"",""5"",""21827""
","
","
","""event"",""trial"",""time""
""fullscreenenter"",""5"",""21827""
","
",NA,NA,NA,NA,NA,NA,NA,NA,NA,NA,NA,NA,NA,NA,NA,NA,NA,NA,NA,NA,NA,NA,sub147
d3-instructions,56,367403,0.0-56.0,FALSE,TRUE,TRUE,TRUE,"""event"",""trial"",""time""
""fullscreenenter"",""5"",""21827""
","
","
","""event"",""trial"",""time""
""fullscreenenter"",""5"",""21827""
","
",NA,NA,NA,NA,NA,NA,NA,NA,NA,NA,NA,NA,NA,NA,NA,NA,NA,NA,NA,NA,NA,NA,sub147
d3-instructions,57,378104,0.0-57.0,FALSE,TRUE,TRUE,TRUE,"""event"",""trial"",""time""
""fullscreenenter"",""5"",""21827""
","
","
","""event"",""trial"",""time""
""fullscreenenter"",""5"",""21827""
","
",NA,NA,NA,NA,NA,NA,NA,NA,NA,NA,NA,NA,NA,NA,NA,NA,NA,NA,NA,NA,NA,NA,sub147
d3-instructions,58,389245,0.0-58.0,FALSE,TRUE,TRUE,TRUE,"""event"",""trial"",""time""
""fullscreenenter"",""5"",""21827""
","
","
","""event"",""trial"",""time""
""fullscreenenter"",""5"",""21827""
","
",NA,NA,NA,NA,NA,NA,NA,NA,NA,NA,NA,NA,NA,NA,NA,NA,NA,NA,NA,NA,NA,NA,sub147
d3-instructions,59,394817,0.0-59.0,FALSE,TRUE,TRUE,TRUE,"""event"",""trial"",""time""
""fullscreenenter"",""5"",""21827""
","
","
","""event"",""trial"",""time""
""fullscreenenter"",""5"",""21827""
","
",NA,NA,NA,NA,NA,NA,NA,NA,NA,NA,NA,NA,NA,NA,NA,NA,NA,NA,NA,NA,NA,NA,sub147
d3-instructions,60,403302,0.0-60.0,FALSE,TRUE,TRUE,TRUE,"""event"",""trial"",""time""
""fullscreenenter"",""5"",""21827""
","
","
","""event"",""trial"",""time""
""fullscreenenter"",""5"",""21827""
","
",NA,NA,NA,NA,NA,NA,NA,NA,NA,NA,NA,NA,NA,NA,NA,NA,NA,NA,NA,NA,NA,NA,sub147
d3-animate-choice,61,406542,0.0-61.0-0.0,FALSE,TRUE,TRUE,TRUE,"""event"",""trial"",""time""
""fullscreenenter"",""5"",""21827""
","
","
","""event"",""trial"",""time""
""fullscreenenter"",""5"",""21827""
","
",1237.2299999988172,NA,49,NA,NA,3000,1,NA,NA,images/earth.jpg,images/tutrocket1,images/tutrocket2,null,images/tutrocket2,NA,1,practice,null,1,NA,NA,NA,sub147
d3-animate-choice,62,409336,0.0-61.0-1.0,FALSE,TRUE,TRUE,TRUE,"""event"",""trial"",""time""
""fullscreenenter"",""5"",""21827""
","
","
","""event"",""trial"",""time""
""fullscreenenter"",""5"",""21827""
","
",784.7099999999045,NA,48,NA,NA,3000,1,NA,NA,images/tutyellowplanet.jpg,images/tutalien4,images/tutalien3,images/tutrocket2,images/tutalien4,images/t.png,2,practice,true,2,common,1,2020-06-30T00:40:53Z,sub147
two-step-fixation,63,410342,0.0-61.0-2.0,FALSE,TRUE,TRUE,TRUE,"""event"",""trial"",""time""
""fullscreenenter"",""5"",""21827""
","
","
","""event"",""trial"",""time""
""fullscreenenter"",""5"",""21827""
","
",NA,images/earth.jpg,NA,NA,NA,NA,NA,NA,NA,NA,NA,NA,NA,NA,NA,fixation,NA,NA,NA,NA,NA,NA,sub147
d3-animate-choice,64,412722,0.0-61.0-0.1,FALSE,TRUE,TRUE,TRUE,"""event"",""trial"",""time""
""fullscreenenter"",""5"",""21827""
","
","
","""event"",""trial"",""time""
""fullscreenenter"",""5"",""21827""
","
",378.6150000014459,NA,48,NA,NA,3000,1,NA,NA,images/earth.jpg,images/tutrocket1,images/tutrocket2,null,images/tutrocket1,NA,1,practice,null,2,NA,NA,NA,sub147
d3-animate-choice,65,415254,0.0-61.0-1.1,FALSE,TRUE,TRUE,TRUE,"""event"",""trial"",""time""
""fullscreenenter"",""5"",""21827""
","
","
","""event"",""trial"",""time""
""fullscreenenter"",""5"",""21827""
","
",529.6900000030291,NA,49,NA,NA,3000,1,NA,NA,images/tutgreenplanet.jpg,images/tutalien2,images/tutalien1,images/tutrocket1,images/tutalien1,images/nothing.png,2,practice,true,1,common,0,2020-06-30T00:40:59Z,sub147
two-step-fixation,66,416257,0.0-61.0-2.1,FALSE,TRUE,TRUE,TRUE,"""event"",""trial"",""time""
""fullscreenenter"",""5"",""21827""
","
","
","""event"",""trial"",""time""
""fullscreenenter"",""5"",""21827""
","
",NA,images/earth.jpg,NA,NA,NA,NA,NA,NA,NA,NA,NA,NA,NA,NA,NA,fixation,NA,NA,NA,NA,NA,NA,sub147
d3-animate-choice,67,418543,0.0-61.0-0.2,FALSE,TRUE,TRUE,TRUE,"""event"",""trial"",""time""
""fullscreenenter"",""5"",""21827""
","
","
","""event"",""trial"",""time""
""fullscreenenter"",""5"",""21827""
","
",283.2750000015949,NA,49,NA,NA,3000,1,NA,NA,images/earth.jpg,images/tutrocket1,images/tutrocket2,null,images/tutrocket2,NA,1,practice,null,1,NA,NA,NA,sub147
d3-animate-choice,68,420938,0.0-61.0-1.2,FALSE,TRUE,TRUE,TRUE,"""event"",""trial"",""time""
""fullscreenenter"",""5"",""21827""
","
","
","""event"",""trial"",""time""
""fullscreenenter"",""5"",""21827""
","
",385.32000000122935,NA,48,NA,NA,3000,1,NA,NA,images/tutyellowplanet.jpg,images/tutalien4,images/tutalien3,images/tutrocket2,images/tutalien4,images/t.png,2,practice,true,2,common,1,2020-06-30T00:41:05Z,sub147
two-step-fixation,69,421941,0.0-61.0-2.2,FALSE,TRUE,TRUE,TRUE,"""event"",""trial"",""time""
""fullscreenenter"",""5"",""21827""
","
","
","""event"",""trial"",""time""
""fullscreenenter"",""5"",""21827""
","
",NA,images/earth.jpg,NA,NA,NA,NA,NA,NA,NA,NA,NA,NA,NA,NA,NA,fixation,NA,NA,NA,NA,NA,NA,sub147
d3-animate-choice,70,424242,0.0-61.0-0.3,FALSE,TRUE,TRUE,TRUE,"""event"",""trial"",""time""
""fullscreenenter"",""5"",""21827""
","
","
","""event"",""trial"",""time""
""fullscreenenter"",""5"",""21827""
","
",296.66500000166707,NA,49,NA,NA,3000,1,NA,NA,images/earth.jpg,images/tutrocket1,images/tutrocket2,null,images/tutrocket2,NA,1,practice,null,1,NA,NA,NA,sub147
d3-animate-choice,71,426504,0.0-61.0-1.3,FALSE,TRUE,TRUE,TRUE,"""event"",""trial"",""time""
""fullscreenenter"",""5"",""21827""
","
","
","""event"",""trial"",""time""
""fullscreenenter"",""5"",""21827""
","
",259.3699999997625,NA,48,NA,NA,3000,1,NA,NA,images/tutyellowplanet.jpg,images/tutalien4,images/tutalien3,images/tutrocket2,images/tutalien4,images/t.png,2,practice,true,2,common,1,2020-06-30T00:41:10Z,sub147
two-step-fixation,72,427506,0.0-61.0-2.3,FALSE,TRUE,TRUE,TRUE,"""event"",""trial"",""time""
""fullscreenenter"",""5"",""21827""
","
","
","""event"",""trial"",""time""
""fullscreenenter"",""5"",""21827""
","
",NA,images/earth.jpg,NA,NA,NA,NA,NA,NA,NA,NA,NA,NA,NA,NA,NA,fixation,NA,NA,NA,NA,NA,NA,sub147
d3-animate-choice,73,429817,0.0-61.0-0.4,FALSE,TRUE,TRUE,TRUE,"""event"",""trial"",""time""
""fullscreenenter"",""5"",""21827""
","
","
","""event"",""trial"",""time""
""fullscreenenter"",""5"",""21827""
","
",303.5900000031688,NA,49,NA,NA,3000,1,NA,NA,images/earth.jpg,images/tutrocket1,images/tutrocket2,null,images/tutrocket2,NA,1,practice,null,1,NA,NA,NA,sub147
d3-animate-choice,74,432080,0.0-61.0-1.4,FALSE,TRUE,TRUE,TRUE,"""event"",""trial"",""time""
""fullscreenenter"",""5"",""21827""
","
","
","""event"",""trial"",""time""
""fullscreenenter"",""5"",""21827""
","
",259.5149999979185,NA,49,NA,NA,3000,1,NA,NA,images/tutyellowplanet.jpg,images/tutalien4,images/tutalien3,images/tutrocket2,images/tutalien3,images/t.png,2,practice,true,1,common,1,2020-06-30T00:41:16Z,sub147
two-step-fixation,75,433082,0.0-61.0-2.4,FALSE,TRUE,TRUE,TRUE,"""event"",""trial"",""time""
""fullscreenenter"",""5"",""21827""
","
","
","""event"",""trial"",""time""
""fullscreenenter"",""5"",""21827""
","
",NA,images/earth.jpg,NA,NA,NA,NA,NA,NA,NA,NA,NA,NA,NA,NA,NA,fixation,NA,NA,NA,NA,NA,NA,sub147
d3-animate-choice,76,435673,0.0-61.0-0.5,FALSE,TRUE,TRUE,TRUE,"""event"",""trial"",""time""
""fullscreenenter"",""5"",""21827""
","
","
","""event"",""trial"",""time""
""fullscreenenter"",""5"",""21827""
","
",588.7700000021141,NA,49,NA,NA,3000,1,NA,NA,images/earth.jpg,images/tutrocket1,images/tutrocket2,null,images/tutrocket2,NA,1,practice,null,1,NA,NA,NA,sub147
d3-animate-choice,77,438044,0.0-61.0-1.5,FALSE,TRUE,TRUE,TRUE,"""event"",""trial"",""time""
""fullscreenenter"",""5"",""21827""
","
","
","""event"",""trial"",""time""
""fullscreenenter"",""5"",""21827""
","
",369.7050000046147,NA,48,NA,NA,3000,1,NA,NA,images/tutyellowplanet.jpg,images/tutalien4,images/tutalien3,images/tutrocket2,images/tutalien4,images/nothing.png,2,practice,true,2,common,0,2020-06-30T00:41:22Z,sub147
two-step-fixation,78,439046,0.0-61.0-2.5,FALSE,TRUE,TRUE,TRUE,"""event"",""trial"",""time""
""fullscreenenter"",""5"",""21827""
","
","
","""event"",""trial"",""time""
""fullscreenenter"",""5"",""21827""
","
",NA,images/earth.jpg,NA,NA,NA,NA,NA,NA,NA,NA,NA,NA,NA,NA,NA,fixation,NA,NA,NA,NA,NA,NA,sub147
d3-animate-choice,79,441310,0.0-61.0-0.6,FALSE,TRUE,TRUE,TRUE,"""event"",""trial"",""time""
""fullscreenenter"",""5"",""21827""
","
","
","""event"",""trial"",""time""
""fullscreenenter"",""5"",""21827""
","
",261.7900000041118,NA,48,NA,NA,3000,1,NA,NA,images/earth.jpg,images/tutrocket1,images/tutrocket2,null,images/tutrocket1,NA,1,practice,null,2,NA,NA,NA,sub147
d3-animate-choice,80,443552,0.0-61.0-1.6,FALSE,TRUE,TRUE,TRUE,"""event"",""trial"",""time""
""fullscreenenter"",""5"",""21827""
","
","
","""event"",""trial"",""time""
""fullscreenenter"",""5"",""21827""
","
",240.08999999932712,NA,49,NA,NA,3000,1,NA,NA,images/tutyellowplanet.jpg,images/tutalien4,images/tutalien3,images/tutrocket1,images/tutalien3,images/nothing.png,2,practice,false,1,rare,0,2020-06-30T00:41:28Z,sub147
two-step-fixation,81,444555,0.0-61.0-2.6,FALSE,TRUE,TRUE,TRUE,"""event"",""trial"",""time""
""fullscreenenter"",""5"",""21827""
","
","
","""event"",""trial"",""time""
""fullscreenenter"",""5"",""21827""
","
",NA,images/earth.jpg,NA,NA,NA,NA,NA,NA,NA,NA,NA,NA,NA,NA,NA,fixation,NA,NA,NA,NA,NA,NA,sub147
d3-animate-choice,82,446870,0.0-61.0-0.7,FALSE,TRUE,TRUE,TRUE,"""event"",""trial"",""time""
""fullscreenenter"",""5"",""21827""
","
","
","""event"",""trial"",""time""
""fullscreenenter"",""5"",""21827""
","
",313.174999995681,NA,48,NA,NA,3000,1,NA,NA,images/earth.jpg,images/tutrocket1,images/tutrocket2,null,images/tutrocket1,NA,1,practice,null,2,NA,NA,NA,sub147
d3-animate-choice,83,449285,0.0-61.0-1.7,FALSE,TRUE,TRUE,TRUE,"""event"",""trial"",""time""
""fullscreenenter"",""5"",""21827""
","
","
","""event"",""trial"",""time""
""fullscreenenter"",""5"",""21827""
","
",412.77999999874737,NA,48,NA,NA,3000,1,NA,NA,images/tutgreenplanet.jpg,images/tutalien2,images/tutalien1,images/tutrocket1,images/tutalien2,images/t.png,2,practice,true,2,common,1,2020-06-30T00:41:33Z,sub147
two-step-fixation,84,450287,0.0-61.0-2.7,FALSE,TRUE,TRUE,TRUE,"""event"",""trial"",""time""
""fullscreenenter"",""5"",""21827""
","
","
","""event"",""trial"",""time""
""fullscreenenter"",""5"",""21827""
","
",NA,images/earth.jpg,NA,NA,NA,NA,NA,NA,NA,NA,NA,NA,NA,NA,NA,fixation,NA,NA,NA,NA,NA,NA,sub147
d3-animate-choice,85,452700,0.0-61.0-0.8,FALSE,TRUE,TRUE,TRUE,"""event"",""trial"",""time""
""fullscreenenter"",""5"",""21827""
","
","
","""event"",""trial"",""time""
""fullscreenenter"",""5"",""21827""
","
",410.4449999940698,NA,48,NA,NA,3000,1,NA,NA,images/earth.jpg,images/tutrocket1,images/tutrocket2,null,images/tutrocket1,NA,1,practice,null,2,NA,NA,NA,sub147
d3-animate-choice,86,455188,0.0-61.0-1.8,FALSE,TRUE,TRUE,TRUE,"""event"",""trial"",""time""
""fullscreenenter"",""5"",""21827""
","
","
","""event"",""trial"",""time""
""fullscreenenter"",""5"",""21827""
","
",485.06999999517575,NA,49,NA,NA,3000,1,NA,NA,images/tutgreenplanet.jpg,images/tutalien2,images/tutalien1,images/tutrocket1,images/tutalien1,images/t.png,2,practice,true,1,common,1,2020-06-30T00:41:39Z,sub147
two-step-fixation,87,456190,0.0-61.0-2.8,FALSE,TRUE,TRUE,TRUE,"""event"",""trial"",""time""
""fullscreenenter"",""5"",""21827""
","
","
","""event"",""trial"",""time""
""fullscreenenter"",""5"",""21827""
","
",NA,images/earth.jpg,NA,NA,NA,NA,NA,NA,NA,NA,NA,NA,NA,NA,NA,fixation,NA,NA,NA,NA,NA,NA,sub147
d3-animate-choice,88,458423,0.0-61.0-0.9,FALSE,TRUE,TRUE,TRUE,"""event"",""trial"",""time""
""fullscreenenter"",""5"",""21827""
","
","
","""event"",""trial"",""time""
""fullscreenenter"",""5"",""21827""
","
",230.47000000224216,NA,49,NA,NA,3000,1,NA,NA,images/earth.jpg,images/tutrocket1,images/tutrocket2,null,images/tutrocket2,NA,1,practice,null,1,NA,NA,NA,sub147
d3-animate-choice,89,460713,0.0-61.0-1.9,FALSE,TRUE,TRUE,TRUE,"""event"",""trial"",""time""
""fullscreenenter"",""5"",""21827""
","
","
","""event"",""trial"",""time""
""fullscreenenter"",""5"",""21827""
","
",287.994999998773,NA,48,NA,NA,3000,1,NA,NA,images/tutgreenplanet.jpg,images/tutalien2,images/tutalien1,images/tutrocket2,images/tutalien2,images/nothing.png,2,practice,false,2,rare,0,2020-06-30T00:41:45Z,sub147
two-step-fixation,90,461715,0.0-61.0-2.9,FALSE,TRUE,TRUE,TRUE,"""event"",""trial"",""time""
""fullscreenenter"",""5"",""21827""
","
","
","""event"",""trial"",""time""
""fullscreenenter"",""5"",""21827""
","
",NA,images/earth.jpg,NA,NA,NA,NA,NA,NA,NA,NA,NA,NA,NA,NA,NA,fixation,NA,NA,NA,NA,NA,NA,sub147
d3-animate-choice,91,463877,0.0-61.0-0.10,FALSE,TRUE,TRUE,TRUE,"""event"",""trial"",""time""
""fullscreenenter"",""5"",""21827""
","
","
","""event"",""trial"",""time""
""fullscreenenter"",""5"",""21827""
","
",159.10499999881722,NA,49,NA,NA,3000,1,NA,NA,images/earth.jpg,images/tutrocket1,images/tutrocket2,null,images/tutrocket2,NA,1,practice,null,1,NA,NA,NA,sub147
d3-animate-choice,92,466153,0.0-61.0-1.10,FALSE,TRUE,TRUE,TRUE,"""event"",""trial"",""time""
""fullscreenenter"",""5"",""21827""
","
","
","""event"",""trial"",""time""
""fullscreenenter"",""5"",""21827""
","
",273.73500000248896,NA,49,NA,NA,3000,1,NA,NA,images/tutyellowplanet.jpg,images/tutalien4,images/tutalien3,images/tutrocket2,images/tutalien3,images/t.png,2,practice,true,1,common,1,2020-06-30T00:41:50Z,sub147
two-step-fixation,93,467155,0.0-61.0-2.10,FALSE,TRUE,TRUE,TRUE,"""event"",""trial"",""time""
""fullscreenenter"",""5"",""21827""
","
","
","""event"",""trial"",""time""
""fullscreenenter"",""5"",""21827""
","
",NA,images/earth.jpg,NA,NA,NA,NA,NA,NA,NA,NA,NA,NA,NA,NA,NA,fixation,NA,NA,NA,NA,NA,NA,sub147
d3-animate-choice,94,469427,0.0-61.0-0.11,FALSE,TRUE,TRUE,TRUE,"""event"",""trial"",""time""
""fullscreenenter"",""5"",""21827""
","
","
","""event"",""trial"",""time""
""fullscreenenter"",""5"",""21827""
","
",269.5549999989453,NA,48,NA,NA,3000,1,NA,NA,images/earth.jpg,images/tutrocket1,images/tutrocket2,null,images/tutrocket1,NA,1,practice,null,2,NA,NA,NA,sub147
d3-animate-choice,95,471963,0.0-61.0-1.11,FALSE,TRUE,TRUE,TRUE,"""event"",""trial"",""time""
""fullscreenenter"",""5"",""21827""
","
","
","""event"",""trial"",""time""
""fullscreenenter"",""5"",""21827""
","
",533.3900000041467,NA,49,NA,NA,3000,1,NA,NA,images/tutgreenplanet.jpg,images/tutalien2,images/tutalien1,images/tutrocket1,images/tutalien1,images/t.png,2,practice,true,1,common,1,2020-06-30T00:41:56Z,sub147
two-step-fixation,96,472966,0.0-61.0-2.11,FALSE,TRUE,TRUE,TRUE,"""event"",""trial"",""time""
""fullscreenenter"",""5"",""21827""
","
","
","""event"",""trial"",""time""
""fullscreenenter"",""5"",""21827""
","
",NA,images/earth.jpg,NA,NA,NA,NA,NA,NA,NA,NA,NA,NA,NA,NA,NA,fixation,NA,NA,NA,NA,NA,NA,sub147
d3-animate-choice,97,475241,0.0-61.0-0.12,FALSE,TRUE,TRUE,TRUE,"""event"",""trial"",""time""
""fullscreenenter"",""5"",""21827""
","
","
","""event"",""trial"",""time""
""fullscreenenter"",""5"",""21827""
","
",272.7500000037253,NA,49,NA,NA,3000,1,NA,NA,images/earth.jpg,images/tutrocket1,images/tutrocket2,null,images/tutrocket2,NA,1,practice,null,1,NA,NA,NA,sub147
d3-animate-choice,98,477538,0.0-61.0-1.12,FALSE,TRUE,TRUE,TRUE,"""event"",""trial"",""time""
""fullscreenenter"",""5"",""21827""
","
","
","""event"",""trial"",""time""
""fullscreenenter"",""5"",""21827""
","
",295.19999999320135,NA,48,NA,NA,3000,1,NA,NA,images/tutgreenplanet.jpg,images/tutalien2,images/tutalien1,images/tutrocket2,images/tutalien2,images/nothing.png,2,practice,false,2,rare,0,2020-06-30T00:42:02Z,sub147
two-step-fixation,99,478539,0.0-61.0-2.12,FALSE,TRUE,TRUE,TRUE,"""event"",""trial"",""time""
""fullscreenenter"",""5"",""21827""
","
","
","""event"",""trial"",""time""
""fullscreenenter"",""5"",""21827""
","
",NA,images/earth.jpg,NA,NA,NA,NA,NA,NA,NA,NA,NA,NA,NA,NA,NA,fixation,NA,NA,NA,NA,NA,NA,sub147
d3-animate-choice,100,480814,0.0-61.0-0.13,FALSE,TRUE,TRUE,TRUE,"""event"",""trial"",""time""
""fullscreenenter"",""5"",""21827""
","
","
","""event"",""trial"",""time""
""fullscreenenter"",""5"",""21827""
","
",271.1699999999837,NA,49,NA,NA,3000,1,NA,NA,images/earth.jpg,images/tutrocket1,images/tutrocket2,null,images/tutrocket2,NA,1,practice,null,1,NA,NA,NA,sub147
d3-animate-choice,101,483075,0.0-61.0-1.13,FALSE,TRUE,TRUE,TRUE,"""event"",""trial"",""time""
""fullscreenenter"",""5"",""21827""
","
","
","""event"",""trial"",""time""
""fullscreenenter"",""5"",""21827""
","
",259.2050000021118,NA,48,NA,NA,3000,1,NA,NA,images/tutyellowplanet.jpg,images/tutalien4,images/tutalien3,images/tutrocket2,images/tutalien4,images/t.png,2,practice,true,2,common,1,2020-06-30T00:42:07Z,sub147
two-step-fixation,102,484078,0.0-61.0-2.13,FALSE,TRUE,TRUE,TRUE,"""event"",""trial"",""time""
""fullscreenenter"",""5"",""21827""
","
","
","""event"",""trial"",""time""
""fullscreenenter"",""5"",""21827""
","
",NA,images/earth.jpg,NA,NA,NA,NA,NA,NA,NA,NA,NA,NA,NA,NA,NA,fixation,NA,NA,NA,NA,NA,NA,sub147
d3-animate-choice,103,486307,0.0-61.0-0.14,FALSE,TRUE,TRUE,TRUE,"""event"",""trial"",""time""
""fullscreenenter"",""5"",""21827""
","
","
","""event"",""trial"",""time""
""fullscreenenter"",""5"",""21827""
","
",226.61499999958323,NA,48,NA,NA,3000,1,NA,NA,images/earth.jpg,images/tutrocket1,images/tutrocket2,null,images/tutrocket1,NA,1,practice,null,2,NA,NA,NA,sub147
d3-animate-choice,104,488564,0.0-61.0-1.14,FALSE,TRUE,TRUE,TRUE,"""event"",""trial"",""time""
""fullscreenenter"",""5"",""21827""
","
","
","""event"",""trial"",""time""
""fullscreenenter"",""5"",""21827""
","
",255.14499999553664,NA,48,NA,NA,3000,1,NA,NA,images/tutyellowplanet.jpg,images/tutalien4,images/tutalien3,images/tutrocket1,images/tutalien4,images/t.png,2,practice,false,2,rare,1,2020-06-30T00:42:13Z,sub147
two-step-fixation,105,489566,0.0-61.0-2.14,FALSE,TRUE,TRUE,TRUE,"""event"",""trial"",""time""
""fullscreenenter"",""5"",""21827""
","
","
","""event"",""trial"",""time""
""fullscreenenter"",""5"",""21827""
","
",NA,images/earth.jpg,NA,NA,NA,NA,NA,NA,NA,NA,NA,NA,NA,NA,NA,fixation,NA,NA,NA,NA,NA,NA,sub147
d3-animate-choice,106,491826,0.0-61.0-0.15,FALSE,TRUE,TRUE,TRUE,"""event"",""trial"",""time""
""fullscreenenter"",""5"",""21827""
","
","
","""event"",""trial"",""time""
""fullscreenenter"",""5"",""21827""
","
",257.5100000030943,NA,48,NA,NA,3000,1,NA,NA,images/earth.jpg,images/tutrocket1,images/tutrocket2,null,images/tutrocket1,NA,1,practice,null,2,NA,NA,NA,sub147
d3-animate-choice,107,494405,0.0-61.0-1.15,FALSE,TRUE,TRUE,TRUE,"""event"",""trial"",""time""
""fullscreenenter"",""5"",""21827""
","
","
","""event"",""trial"",""time""
""fullscreenenter"",""5"",""21827""
","
",576.3250000018161,NA,49,NA,NA,3000,1,NA,NA,images/tutgreenplanet.jpg,images/tutalien2,images/tutalien1,images/tutrocket1,images/tutalien1,images/nothing.png,2,practice,true,1,common,0,2020-06-30T00:42:18Z,sub147
two-step-fixation,108,495408,0.0-61.0-2.15,FALSE,TRUE,TRUE,TRUE,"""event"",""trial"",""time""
""fullscreenenter"",""5"",""21827""
","
","
","""event"",""trial"",""time""
""fullscreenenter"",""5"",""21827""
","
",NA,images/earth.jpg,NA,NA,NA,NA,NA,NA,NA,NA,NA,NA,NA,NA,NA,fixation,NA,NA,NA,NA,NA,NA,sub147
d3-animate-choice,109,497721,0.0-61.0-0.16,FALSE,TRUE,TRUE,TRUE,"""event"",""trial"",""time""
""fullscreenenter"",""5"",""21827""
","
","
","""event"",""trial"",""time""
""fullscreenenter"",""5"",""21827""
","
",310.1699999970151,NA,48,NA,NA,3000,1,NA,NA,images/earth.jpg,images/tutrocket1,images/tutrocket2,null,images/tutrocket1,NA,1,practice,null,2,NA,NA,NA,sub147
d3-animate-choice,110,500304,0.0-61.0-1.16,FALSE,TRUE,TRUE,TRUE,"""event"",""trial"",""time""
""fullscreenenter"",""5"",""21827""
","
","
","""event"",""trial"",""time""
""fullscreenenter"",""5"",""21827""
","
",580.0899999958347,NA,48,NA,NA,3000,1,NA,NA,images/tutyellowplanet.jpg,images/tutalien4,images/tutalien3,images/tutrocket1,images/tutalien4,images/t.png,2,practice,false,2,rare,1,2020-06-30T00:42:24Z,sub147
two-step-fixation,111,501306,0.0-61.0-2.16,FALSE,TRUE,TRUE,TRUE,"""event"",""trial"",""time""
""fullscreenenter"",""5"",""21827""
","
","
","""event"",""trial"",""time""
""fullscreenenter"",""5"",""21827""
","
",NA,images/earth.jpg,NA,NA,NA,NA,NA,NA,NA,NA,NA,NA,NA,NA,NA,fixation,NA,NA,NA,NA,NA,NA,sub147
d3-animate-choice,112,503514,0.0-61.0-0.17,FALSE,TRUE,TRUE,TRUE,"""event"",""trial"",""time""
""fullscreenenter"",""5"",""21827""
","
","
","""event"",""trial"",""time""
""fullscreenenter"",""5"",""21827""
","
",205.07500000530854,NA,48,NA,NA,3000,1,NA,NA,images/earth.jpg,images/tutrocket1,images/tutrocket2,null,images/tutrocket1,NA,1,practice,null,2,NA,NA,NA,sub147
d3-animate-choice,113,505915,0.0-61.0-1.17,FALSE,TRUE,TRUE,TRUE,"""event"",""trial"",""time""
""fullscreenenter"",""5"",""21827""
","
","
","""event"",""trial"",""time""
""fullscreenenter"",""5"",""21827""
","
",398.7649999980931,NA,48,NA,NA,3000,1,NA,NA,images/tutyellowplanet.jpg,images/tutalien4,images/tutalien3,images/tutrocket1,images/tutalien4,images/nothing.png,2,practice,false,2,rare,0,2020-06-30T00:42:30Z,sub147
two-step-fixation,114,506917,0.0-61.0-2.17,FALSE,TRUE,TRUE,TRUE,"""event"",""trial"",""time""
""fullscreenenter"",""5"",""21827""
","
","
","""event"",""trial"",""time""
""fullscreenenter"",""5"",""21827""
","
",NA,images/earth.jpg,NA,NA,NA,NA,NA,NA,NA,NA,NA,NA,NA,NA,NA,fixation,NA,NA,NA,NA,NA,NA,sub147
d3-animate-choice,115,509202,0.0-61.0-0.18,FALSE,TRUE,TRUE,TRUE,"""event"",""trial"",""time""
""fullscreenenter"",""5"",""21827""
","
","
","""event"",""trial"",""time""
""fullscreenenter"",""5"",""21827""
","
",282.76999999798136,NA,49,NA,NA,3000,1,NA,NA,images/earth.jpg,images/tutrocket1,images/tutrocket2,null,images/tutrocket2,NA,1,practice,null,1,NA,NA,NA,sub147
d3-animate-choice,116,511537,0.0-61.0-1.18,FALSE,TRUE,TRUE,TRUE,"""event"",""trial"",""time""
""fullscreenenter"",""5"",""21827""
","
","
","""event"",""trial"",""time""
""fullscreenenter"",""5"",""21827""
","
",332.6650000017253,NA,48,NA,NA,3000,1,NA,NA,images/tutgreenplanet.jpg,images/tutalien2,images/tutalien1,images/tutrocket2,images/tutalien2,images/nothing.png,2,practice,false,2,rare,0,2020-06-30T00:42:36Z,sub147
two-step-fixation,117,512539,0.0-61.0-2.18,FALSE,TRUE,TRUE,TRUE,"""event"",""trial"",""time""
""fullscreenenter"",""5"",""21827""
","
","
","""event"",""trial"",""time""
""fullscreenenter"",""5"",""21827""
","
",NA,images/earth.jpg,NA,NA,NA,NA,NA,NA,NA,NA,NA,NA,NA,NA,NA,fixation,NA,NA,NA,NA,NA,NA,sub147
d3-animate-choice,118,515014,0.0-61.0-0.19,FALSE,TRUE,TRUE,TRUE,"""event"",""trial"",""time""
""fullscreenenter"",""5"",""21827""
","
","
","""event"",""trial"",""time""
""fullscreenenter"",""5"",""21827""
","
",473.1600000013714,NA,48,NA,NA,3000,1,NA,NA,images/earth.jpg,images/tutrocket1,images/tutrocket2,null,images/tutrocket1,NA,1,practice,null,2,NA,NA,NA,sub147
d3-animate-choice,119,517653,0.0-61.0-1.19,FALSE,TRUE,TRUE,TRUE,"""event"",""trial"",""time""
""fullscreenenter"",""5"",""21827""
","
","
","""event"",""trial"",""time""
""fullscreenenter"",""5"",""21827""
","
",637.204999999085,NA,49,NA,NA,3000,1,NA,NA,images/tutgreenplanet.jpg,images/tutalien2,images/tutalien1,images/tutrocket1,images/tutalien1,images/t.png,2,practice,true,1,common,1,2020-06-30T00:42:42Z,sub147
two-step-fixation,120,518655,0.0-61.0-2.19,FALSE,TRUE,TRUE,TRUE,"""event"",""trial"",""time""
""fullscreenenter"",""5"",""21827""
","
","
","""event"",""trial"",""time""
""fullscreenenter"",""5"",""21827""
","
",NA,images/earth.jpg,NA,NA,NA,NA,NA,NA,NA,NA,NA,NA,NA,NA,NA,fixation,NA,NA,NA,NA,NA,NA,sub147
d3-instructions,121,524728,0.0-62.0,FALSE,TRUE,TRUE,TRUE,"""event"",""trial"",""time""
""fullscreenenter"",""5"",""21827""
","
","
","""event"",""trial"",""time""
""fullscreenenter"",""5"",""21827""
","
",NA,NA,NA,NA,NA,NA,NA,NA,NA,NA,NA,NA,NA,NA,NA,NA,NA,NA,NA,NA,NA,NA,sub147
audio-keyboard-response,122,528172,0.0-63.0,FALSE,TRUE,TRUE,TRUE,"""event"",""trial"",""time""
""fullscreenenter"",""5"",""21827""
","
","
","""event"",""trial"",""time""
""fullscreenenter"",""5"",""21827""
","
",3451,audio/instructions/treasure_feedback.wav,32,NA,NA,NA,NA,NA,NA,NA,NA,NA,NA,NA,NA,NA,NA,NA,NA,NA,NA,NA,sub147
d3-instructions,123,544511,0.0-64.0,FALSE,TRUE,TRUE,TRUE,"""event"",""trial"",""time""
""fullscreenenter"",""5"",""21827""
","
","
","""event"",""trial"",""time""
""fullscreenenter"",""5"",""21827""
","
",NA,NA,NA,NA,NA,NA,NA,NA,NA,NA,NA,NA,NA,NA,NA,NA,NA,NA,NA,NA,NA,NA,sub147
d3-instructions,124,557002,0.0-65.0,FALSE,TRUE,TRUE,TRUE,"""event"",""trial"",""time""
""fullscreenenter"",""5"",""21827""
","
","
","""event"",""trial"",""time""
""fullscreenenter"",""5"",""21827""
","
",NA,NA,NA,NA,NA,NA,NA,NA,NA,NA,NA,NA,NA,NA,NA,NA,NA,NA,NA,NA,NA,NA,sub147
d3-instructions,125,580771,0.0-66.0,FALSE,TRUE,TRUE,TRUE,"""event"",""trial"",""time""
""fullscreenenter"",""5"",""21827""
","
","
","""event"",""trial"",""time""
""fullscreenenter"",""5"",""21827""
","
",NA,NA,NA,NA,NA,NA,NA,NA,NA,NA,NA,NA,NA,NA,NA,NA,NA,NA,NA,NA,NA,NA,sub147
d3-instructions,126,595020,0.0-67.0,FALSE,TRUE,TRUE,TRUE,"""event"",""trial"",""time""
""fullscreenenter"",""5"",""21827""
","
","
","""event"",""trial"",""time""
""fullscreenenter"",""5"",""21827""
","
",NA,NA,NA,NA,NA,NA,NA,NA,NA,NA,NA,NA,NA,NA,NA,NA,NA,NA,NA,NA,NA,NA,sub147
d3-instructions,127,604647,0.0-68.0,FALSE,TRUE,TRUE,TRUE,"""event"",""trial"",""time""
""fullscreenenter"",""5"",""21827""
","
","
","""event"",""trial"",""time""
""fullscreenenter"",""5"",""21827""
","
",NA,NA,NA,NA,NA,NA,NA,NA,NA,NA,NA,NA,NA,NA,NA,NA,NA,NA,NA,NA,NA,NA,sub147
instructions-quiz,128,610151,0.0-69.0,FALSE,TRUE,TRUE,TRUE,"""event"",""trial"",""time""
""fullscreenenter"",""5"",""21827""
","
","
","""event"",""trial"",""time""
""fullscreenenter"",""5"",""21827""
","
",5502.634999997215,audio/quiz/Q1_Prompt.wav,NA,1,NA,NA,NA,NA,NA,NA,NA,NA,NA,NA,NA,NA,NA,NA,NA,NA,NA,NA,sub147
audio-keyboard-response,129,619320,0.0-70.0,FALSE,TRUE,TRUE,TRUE,"""event"",""trial"",""time""
""fullscreenenter"",""5"",""21827""
","
","
","""event"",""trial"",""time""
""fullscreenenter"",""5"",""21827""
","
",null,audio/quiz/Q1_Correct.wav,null,NA,NA,NA,NA,NA,NA,NA,NA,NA,NA,NA,NA,NA,NA,NA,NA,NA,NA,NA,sub147
instructions-quiz,130,623650,0.0-71.0,FALSE,TRUE,TRUE,TRUE,"""event"",""trial"",""time""
""fullscreenenter"",""5"",""21827""
","
","
","""event"",""trial"",""time""
""fullscreenenter"",""5"",""21827""
","
",4328.625000001979,audio/quiz/Q2_Prompt.wav,NA,0,NA,NA,NA,NA,NA,NA,NA,NA,NA,NA,NA,NA,NA,NA,NA,NA,NA,NA,sub147
audio-keyboard-response,131,636520,0.0-72.0,FALSE,TRUE,TRUE,TRUE,"""event"",""trial"",""time""
""fullscreenenter"",""5"",""21827""
","
","
","""event"",""trial"",""time""
""fullscreenenter"",""5"",""21827""
","
",null,audio/quiz/Q2_Correct.wav,null,NA,NA,NA,NA,NA,NA,NA,NA,NA,NA,NA,NA,NA,NA,NA,NA,NA,NA,NA,sub147
instructions-quiz,132,639209,0.0-73.0,FALSE,TRUE,TRUE,TRUE,"""event"",""trial"",""time""
""fullscreenenter"",""5"",""21827""
","
","
","""event"",""trial"",""time""
""fullscreenenter"",""5"",""21827""
","
",2687.834999996936,audio/quiz/Q3_Prompt.wav,NA,1,NA,NA,NA,NA,NA,NA,NA,NA,NA,NA,NA,NA,NA,NA,NA,NA,NA,NA,sub147
audio-keyboard-response,133,645001,0.0-74.0,FALSE,TRUE,TRUE,TRUE,"""event"",""trial"",""time""
""fullscreenenter"",""5"",""21827""
","
","
","""event"",""trial"",""time""
""fullscreenenter"",""5"",""21827""
","
",null,audio/quiz/Q3_Correct.wav,null,NA,NA,NA,NA,NA,NA,NA,NA,NA,NA,NA,NA,NA,NA,NA,NA,NA,NA,NA,sub147
d3-instructions,134,656119,0.0-75.0,FALSE,TRUE,TRUE,TRUE,"""event"",""trial"",""time""
""fullscreenenter"",""5"",""21827""
","
","
","""event"",""trial"",""time""
""fullscreenenter"",""5"",""21827""
","
",NA,NA,NA,NA,NA,NA,NA,NA,NA,NA,NA,NA,NA,NA,NA,NA,NA,NA,NA,NA,NA,NA,sub147
d3-animate-choice,135,659111,0.0-76.0-0.0,FALSE,TRUE,TRUE,TRUE,"""event"",""trial"",""time""
""fullscreenenter"",""5"",""21827""
","
","
","""event"",""trial"",""time""
""fullscreenenter"",""5"",""21827""
","
",989.3149999988964,NA,49,NA,NA,3000,1,NA,NA,images/earth.jpg,images/rocket1,images/rocket2,null,images/rocket2,NA,1,real,null,1,NA,NA,NA,sub147
d3-animate-choice,136,661555,0.0-76.0-1.0,FALSE,TRUE,TRUE,TRUE,"""event"",""trial"",""time""
""fullscreenenter"",""5"",""21827""
","
","
","""event"",""trial"",""time""
""fullscreenenter"",""5"",""21827""
","
",441.5999999982305,NA,48,NA,NA,3000,1,NA,NA,images/purpleplanet.jpg,images/alien4,images/alien3,images/rocket2,images/alien4,images/t.png,2,real,true,2,common,1,2020-06-30T00:45:06Z,sub147
two-step-fixation,137,662556,0.0-76.0-2.0,FALSE,TRUE,TRUE,TRUE,"""event"",""trial"",""time""
""fullscreenenter"",""5"",""21827""
","
","
","""event"",""trial"",""time""
""fullscreenenter"",""5"",""21827""
","
",NA,images/earth.jpg,NA,NA,NA,NA,NA,NA,NA,NA,NA,NA,NA,NA,NA,fixation,NA,NA,NA,NA,NA,NA,sub147
d3-animate-choice,138,664843,0.0-76.0-0.1,FALSE,TRUE,TRUE,TRUE,"""event"",""trial"",""time""
""fullscreenenter"",""5"",""21827""
","
","
","""event"",""trial"",""time""
""fullscreenenter"",""5"",""21827""
","
",284.8149999991292,NA,49,NA,NA,3000,1,NA,NA,images/earth.jpg,images/rocket1,images/rocket2,null,images/rocket2,NA,1,real,null,1,NA,NA,NA,sub147
d3-animate-choice,139,667109,0.0-76.0-1.1,FALSE,TRUE,TRUE,TRUE,"""event"",""trial"",""time""
""fullscreenenter"",""5"",""21827""
","
","
","""event"",""trial"",""time""
""fullscreenenter"",""5"",""21827""
","
",263.31000000203494,NA,49,NA,NA,3000,1,NA,NA,images/purpleplanet.jpg,images/alien4,images/alien3,images/rocket2,images/alien3,images/t.png,2,real,true,1,common,1,2020-06-30T00:45:11Z,sub147
two-step-fixation,140,668112,0.0-76.0-2.1,FALSE,TRUE,TRUE,TRUE,"""event"",""trial"",""time""
""fullscreenenter"",""5"",""21827""
","
","
","""event"",""trial"",""time""
""fullscreenenter"",""5"",""21827""
","
",NA,images/earth.jpg,NA,NA,NA,NA,NA,NA,NA,NA,NA,NA,NA,NA,NA,fixation,NA,NA,NA,NA,NA,NA,sub147
d3-animate-choice,141,670362,0.0-76.0-0.2,FALSE,TRUE,TRUE,TRUE,"""event"",""trial"",""time""
""fullscreenenter"",""5"",""21827""
","
","
","""event"",""trial"",""time""
""fullscreenenter"",""5"",""21827""
","
",247.15000000281725,NA,48,NA,NA,3000,1,NA,NA,images/earth.jpg,images/rocket1,images/rocket2,null,images/rocket1,NA,1,real,null,2,NA,NA,NA,sub147
d3-animate-choice,142,672706,0.0-76.0-1.2,FALSE,TRUE,TRUE,TRUE,"""event"",""trial"",""time""
""fullscreenenter"",""5"",""21827""
","
","
","""event"",""trial"",""time""
""fullscreenenter"",""5"",""21827""
","
",342.6850000033155,NA,48,NA,NA,3000,1,NA,NA,images/redplanet1.jpg,images/alien2,images/alien1,images/rocket1,images/alien2,images/t.png,2,real,true,2,common,1,2020-06-30T00:45:17Z,sub147
two-step-fixation,143,673709,0.0-76.0-2.2,FALSE,TRUE,TRUE,TRUE,"""event"",""trial"",""time""
""fullscreenenter"",""5"",""21827""
","
","
","""event"",""trial"",""time""
""fullscreenenter"",""5"",""21827""
","
",NA,images/earth.jpg,NA,NA,NA,NA,NA,NA,NA,NA,NA,NA,NA,NA,NA,fixation,NA,NA,NA,NA,NA,NA,sub147
d3-animate-choice,144,675963,0.0-76.0-0.3,FALSE,TRUE,TRUE,TRUE,"""event"",""trial"",""time""
""fullscreenenter"",""5"",""21827""
","
","
","""event"",""trial"",""time""
""fullscreenenter"",""5"",""21827""
","
",251.8899999995483,NA,48,NA,NA,3000,1,NA,NA,images/earth.jpg,images/rocket1,images/rocket2,null,images/rocket1,NA,1,real,null,2,NA,NA,NA,sub147
d3-animate-choice,145,678320,0.0-76.0-1.3,FALSE,TRUE,TRUE,TRUE,"""event"",""trial"",""time""
""fullscreenenter"",""5"",""21827""
","
","
","""event"",""trial"",""time""
""fullscreenenter"",""5"",""21827""
","
",355.04999999830034,NA,49,NA,NA,3000,1,NA,NA,images/redplanet1.jpg,images/alien2,images/alien1,images/rocket1,images/alien1,images/nothing.png,2,real,true,1,common,0,2020-06-30T00:45:22Z,sub147
two-step-fixation,146,679322,0.0-76.0-2.3,FALSE,TRUE,TRUE,TRUE,"""event"",""trial"",""time""
""fullscreenenter"",""5"",""21827""
","
","
","""event"",""trial"",""time""
""fullscreenenter"",""5"",""21827""
","
",NA,images/earth.jpg,NA,NA,NA,NA,NA,NA,NA,NA,NA,NA,NA,NA,NA,fixation,NA,NA,NA,NA,NA,NA,sub147
d3-animate-choice,147,681372,0.0-76.0-0.4,FALSE,TRUE,TRUE,TRUE,"""event"",""trial"",""time""
""fullscreenenter"",""5"",""21827""
","
","
","""event"",""trial"",""time""
""fullscreenenter"",""5"",""21827""
","
",47.85999999882188,NA,49,NA,NA,3000,1,NA,NA,images/earth.jpg,images/rocket1,images/rocket2,null,images/rocket2,NA,1,real,null,1,NA,NA,NA,sub147
d3-animate-choice,148,683583,0.0-76.0-1.4,FALSE,TRUE,TRUE,TRUE,"""event"",""trial"",""time""
""fullscreenenter"",""5"",""21827""
","
","
","""event"",""trial"",""time""
""fullscreenenter"",""5"",""21827""
","
",209.7250000006752,NA,48,NA,NA,3000,1,NA,NA,images/purpleplanet.jpg,images/alien4,images/alien3,images/rocket2,images/alien4,images/t.png,2,real,true,2,common,1,2020-06-30T00:45:28Z,sub147
two-step-fixation,149,684586,0.0-76.0-2.4,FALSE,TRUE,TRUE,TRUE,"""event"",""trial"",""time""
""fullscreenenter"",""5"",""21827""
","
","
","""event"",""trial"",""time""
""fullscreenenter"",""5"",""21827""
","
",NA,images/earth.jpg,NA,NA,NA,NA,NA,NA,NA,NA,NA,NA,NA,NA,NA,fixation,NA,NA,NA,NA,NA,NA,sub147
d3-animate-choice,150,686834,0.0-76.0-0.5,FALSE,TRUE,TRUE,TRUE,"""event"",""trial"",""time""
""fullscreenenter"",""5"",""21827""
","
","
","""event"",""trial"",""time""
""fullscreenenter"",""5"",""21827""
","
",246.42999999923632,NA,49,NA,NA,3000,1,NA,NA,images/earth.jpg,images/rocket1,images/rocket2,null,images/rocket2,NA,1,real,null,1,NA,NA,NA,sub147
d3-animate-choice,151,689131,0.0-76.0-1.5,FALSE,TRUE,TRUE,TRUE,"""event"",""trial"",""time""
""fullscreenenter"",""5"",""21827""
","
","
","""event"",""trial"",""time""
""fullscreenenter"",""5"",""21827""
","
",294.8949999990873,NA,49,NA,NA,3000,1,NA,NA,images/purpleplanet.jpg,images/alien4,images/alien3,images/rocket2,images/alien3,images/t.png,2,real,true,1,common,1,2020-06-30T00:45:33Z,sub147
two-step-fixation,152,690133,0.0-76.0-2.5,FALSE,TRUE,TRUE,TRUE,"""event"",""trial"",""time""
""fullscreenenter"",""5"",""21827""
","
","
","""event"",""trial"",""time""
""fullscreenenter"",""5"",""21827""
","
",NA,images/earth.jpg,NA,NA,NA,NA,NA,NA,NA,NA,NA,NA,NA,NA,NA,fixation,NA,NA,NA,NA,NA,NA,sub147
d3-animate-choice,153,692680,0.0-76.0-0.6,FALSE,TRUE,TRUE,TRUE,"""event"",""trial"",""time""
""fullscreenenter"",""5"",""21827""
","
","
","""event"",""trial"",""time""
""fullscreenenter"",""5"",""21827""
","
",544.0349999989849,NA,49,NA,NA,3000,1,NA,NA,images/earth.jpg,images/rocket1,images/rocket2,null,images/rocket2,NA,1,real,null,1,NA,NA,NA,sub147
d3-animate-choice,154,694974,0.0-76.0-1.6,FALSE,TRUE,TRUE,TRUE,"""event"",""trial"",""time""
""fullscreenenter"",""5"",""21827""
","
","
","""event"",""trial"",""time""
""fullscreenenter"",""5"",""21827""
","
",291.855000003241,NA,49,NA,NA,3000,1,NA,NA,images/purpleplanet.jpg,images/alien4,images/alien3,images/rocket2,images/alien3,images/nothing.png,2,real,true,1,common,0,2020-06-30T00:45:39Z,sub147
two-step-fixation,155,695976,0.0-76.0-2.6,FALSE,TRUE,TRUE,TRUE,"""event"",""trial"",""time""
""fullscreenenter"",""5"",""21827""
","
","
","""event"",""trial"",""time""
""fullscreenenter"",""5"",""21827""
","
",NA,images/earth.jpg,NA,NA,NA,NA,NA,NA,NA,NA,NA,NA,NA,NA,NA,fixation,NA,NA,NA,NA,NA,NA,sub147
d3-animate-choice,156,698047,0.0-76.0-0.7,FALSE,TRUE,TRUE,TRUE,"""event"",""trial"",""time""
""fullscreenenter"",""5"",""21827""
","
","
","""event"",""trial"",""time""
""fullscreenenter"",""5"",""21827""
","
",68.85999999940395,NA,49,NA,NA,3000,1,NA,NA,images/earth.jpg,images/rocket1,images/rocket2,null,images/rocket2,NA,1,real,null,1,NA,NA,NA,sub147
d3-animate-choice,157,700293,0.0-76.0-1.7,FALSE,TRUE,TRUE,TRUE,"""event"",""trial"",""time""
""fullscreenenter"",""5"",""21827""
","
","
","""event"",""trial"",""time""
""fullscreenenter"",""5"",""21827""
","
",243.35499999881722,NA,48,NA,NA,3000,1,NA,NA,images/purpleplanet.jpg,images/alien4,images/alien3,images/rocket2,images/alien4,images/t.png,2,real,true,2,common,1,2020-06-30T00:45:44Z,sub147
two-step-fixation,158,701295,0.0-76.0-2.7,FALSE,TRUE,TRUE,TRUE,"""event"",""trial"",""time""
""fullscreenenter"",""5"",""21827""
","
","
","""event"",""trial"",""time""
""fullscreenenter"",""5"",""21827""
","
",NA,images/earth.jpg,NA,NA,NA,NA,NA,NA,NA,NA,NA,NA,NA,NA,NA,fixation,NA,NA,NA,NA,NA,NA,sub147
d3-animate-choice,159,703547,0.0-76.0-0.8,FALSE,TRUE,TRUE,TRUE,"""event"",""trial"",""time""
""fullscreenenter"",""5"",""21827""
","
","
","""event"",""trial"",""time""
""fullscreenenter"",""5"",""21827""
","
",250.20999999833293,NA,49,NA,NA,3000,1,NA,NA,images/earth.jpg,images/rocket1,images/rocket2,null,images/rocket2,NA,1,real,null,1,NA,NA,NA,sub147
d3-animate-choice,160,705832,0.0-76.0-1.8,FALSE,TRUE,TRUE,TRUE,"""event"",""trial"",""time""
""fullscreenenter"",""5"",""21827""
","
","
","""event"",""trial"",""time""
""fullscreenenter"",""5"",""21827""
","
",281.79000000085216,NA,48,NA,NA,3000,1,NA,NA,images/purpleplanet.jpg,images/alien4,images/alien3,images/rocket2,images/alien4,images/t.png,2,real,true,2,common,1,2020-06-30T00:45:50Z,sub147
two-step-fixation,161,706835,0.0-76.0-2.8,FALSE,TRUE,TRUE,TRUE,"""event"",""trial"",""time""
""fullscreenenter"",""5"",""21827""
","
","
","""event"",""trial"",""time""
""fullscreenenter"",""5"",""21827""
","
",NA,images/earth.jpg,NA,NA,NA,NA,NA,NA,NA,NA,NA,NA,NA,NA,NA,fixation,NA,NA,NA,NA,NA,NA,sub147
d3-animate-choice,162,709107,0.0-76.0-0.9,FALSE,TRUE,TRUE,TRUE,"""event"",""trial"",""time""
""fullscreenenter"",""5"",""21827""
","
","
","""event"",""trial"",""time""
""fullscreenenter"",""5"",""21827""
","
",268.7699999951292,NA,49,NA,NA,3000,1,NA,NA,images/earth.jpg,images/rocket1,images/rocket2,null,images/rocket2,NA,1,real,null,1,NA,NA,NA,sub147
d3-animate-choice,163,711356,0.0-76.0-1.9,FALSE,TRUE,TRUE,TRUE,"""event"",""trial"",""time""
""fullscreenenter"",""5"",""21827""
","
","
","""event"",""trial"",""time""
""fullscreenenter"",""5"",""21827""
","
",246.7800000013085,NA,48,NA,NA,3000,1,NA,NA,images/purpleplanet.jpg,images/alien4,images/alien3,images/rocket2,images/alien4,images/t.png,2,real,true,2,common,1,2020-06-30T00:45:55Z,sub147
two-step-fixation,164,712358,0.0-76.0-2.9,FALSE,TRUE,TRUE,TRUE,"""event"",""trial"",""time""
""fullscreenenter"",""5"",""21827""
","
","
","""event"",""trial"",""time""
""fullscreenenter"",""5"",""21827""
","
",NA,images/earth.jpg,NA,NA,NA,NA,NA,NA,NA,NA,NA,NA,NA,NA,NA,fixation,NA,NA,NA,NA,NA,NA,sub147
d3-animate-choice,165,714618,0.0-76.0-0.10,FALSE,TRUE,TRUE,TRUE,"""event"",""trial"",""time""
""fullscreenenter"",""5"",""21827""
","
","
","""event"",""trial"",""time""
""fullscreenenter"",""5"",""21827""
","
",257.76000000035856,NA,49,NA,NA,3000,1,NA,NA,images/earth.jpg,images/rocket1,images/rocket2,null,images/rocket2,NA,1,real,null,1,NA,NA,NA,sub147
d3-animate-choice,166,716678,0.0-76.0-1.10,FALSE,TRUE,TRUE,TRUE,"""event"",""trial"",""time""
""fullscreenenter"",""5"",""21827""
","
","
","""event"",""trial"",""time""
""fullscreenenter"",""5"",""21827""
","
",59.065000001341105,NA,48,NA,NA,3000,1,NA,NA,images/redplanet1.jpg,images/alien2,images/alien1,images/rocket2,images/alien2,images/t.png,2,real,false,2,rare,1,2020-06-30T00:46:01Z,sub147
two-step-fixation,167,717680,0.0-76.0-2.10,FALSE,TRUE,TRUE,TRUE,"""event"",""trial"",""time""
""fullscreenenter"",""5"",""21827""
","
","
","""event"",""trial"",""time""
""fullscreenenter"",""5"",""21827""
","
",NA,images/earth.jpg,NA,NA,NA,NA,NA,NA,NA,NA,NA,NA,NA,NA,NA,fixation,NA,NA,NA,NA,NA,NA,sub147
d3-animate-choice,168,719954,0.0-76.0-0.11,FALSE,TRUE,TRUE,TRUE,"""event"",""trial"",""time""
""fullscreenenter"",""5"",""21827""
","
","
","""event"",""trial"",""time""
""fullscreenenter"",""5"",""21827""
","
",272.06500000471715,NA,49,NA,NA,3000,1,NA,NA,images/earth.jpg,images/rocket1,images/rocket2,null,images/rocket2,NA,1,real,null,1,NA,NA,NA,sub147
d3-animate-choice,169,722248,0.0-76.0-1.11,FALSE,TRUE,TRUE,TRUE,"""event"",""trial"",""time""
""fullscreenenter"",""5"",""21827""
","
","
","""event"",""trial"",""time""
""fullscreenenter"",""5"",""21827""
","
",292.1950000018114,NA,48,NA,NA,3000,1,NA,NA,images/purpleplanet.jpg,images/alien4,images/alien3,images/rocket2,images/alien4,images/t.png,2,real,true,2,common,1,2020-06-30T00:46:06Z,sub147
two-step-fixation,170,723249,0.0-76.0-2.11,FALSE,TRUE,TRUE,TRUE,"""event"",""trial"",""time""
""fullscreenenter"",""5"",""21827""
","
","
","""event"",""trial"",""time""
""fullscreenenter"",""5"",""21827""
","
",NA,images/earth.jpg,NA,NA,NA,NA,NA,NA,NA,NA,NA,NA,NA,NA,NA,fixation,NA,NA,NA,NA,NA,NA,sub147
d3-animate-choice,171,725499,0.0-76.0-0.12,FALSE,TRUE,TRUE,TRUE,"""event"",""trial"",""time""
""fullscreenenter"",""5"",""21827""
","
","
","""event"",""trial"",""time""
""fullscreenenter"",""5"",""21827""
","
",246.03499999642372,NA,49,NA,NA,3000,1,NA,NA,images/earth.jpg,images/rocket1,images/rocket2,null,images/rocket2,NA,1,real,null,1,NA,NA,NA,sub147
d3-animate-choice,172,727804,0.0-76.0-1.12,FALSE,TRUE,TRUE,TRUE,"""event"",""trial"",""time""
""fullscreenenter"",""5"",""21827""
","
","
","""event"",""trial"",""time""
""fullscreenenter"",""5"",""21827""
","
",302.93499999970663,NA,48,NA,NA,3000,1,NA,NA,images/purpleplanet.jpg,images/alien4,images/alien3,images/rocket2,images/alien4,images/t.png,2,real,true,2,common,1,2020-06-30T00:46:12Z,sub147
two-step-fixation,173,728805,0.0-76.0-2.12,FALSE,TRUE,TRUE,TRUE,"""event"",""trial"",""time""
""fullscreenenter"",""5"",""21827""
","
","
","""event"",""trial"",""time""
""fullscreenenter"",""5"",""21827""
","
",NA,images/earth.jpg,NA,NA,NA,NA,NA,NA,NA,NA,NA,NA,NA,NA,NA,fixation,NA,NA,NA,NA,NA,NA,sub147
d3-animate-choice,174,731068,0.0-76.0-0.13,FALSE,TRUE,TRUE,TRUE,"""event"",""trial"",""time""
""fullscreenenter"",""5"",""21827""
","
","
","""event"",""trial"",""time""
""fullscreenenter"",""5"",""21827""
","
",259.93000000016764,NA,49,NA,NA,3000,1,NA,NA,images/earth.jpg,images/rocket1,images/rocket2,null,images/rocket2,NA,1,real,null,1,NA,NA,NA,sub147
d3-animate-choice,175,733395,0.0-76.0-1.13,FALSE,TRUE,TRUE,TRUE,"""event"",""trial"",""time""
""fullscreenenter"",""5"",""21827""
","
","
","""event"",""trial"",""time""
""fullscreenenter"",""5"",""21827""
","
",324.4850000045262,NA,48,NA,NA,3000,1,NA,NA,images/purpleplanet.jpg,images/alien4,images/alien3,images/rocket2,images/alien4,images/t.png,2,real,true,2,common,1,2020-06-30T00:46:17Z,sub147
two-step-fixation,176,734396,0.0-76.0-2.13,FALSE,TRUE,TRUE,TRUE,"""event"",""trial"",""time""
""fullscreenenter"",""5"",""21827""
","
","
","""event"",""trial"",""time""
""fullscreenenter"",""5"",""21827""
","
",NA,images/earth.jpg,NA,NA,NA,NA,NA,NA,NA,NA,NA,NA,NA,NA,NA,fixation,NA,NA,NA,NA,NA,NA,sub147
d3-animate-choice,177,736630,0.0-76.0-0.14,FALSE,TRUE,TRUE,TRUE,"""event"",""trial"",""time""
""fullscreenenter"",""5"",""21827""
","
","
","""event"",""trial"",""time""
""fullscreenenter"",""5"",""21827""
","
",231.64999999431893,NA,49,NA,NA,3000,1,NA,NA,images/earth.jpg,images/rocket1,images/rocket2,null,images/rocket2,NA,1,real,null,1,NA,NA,NA,sub147
d3-animate-choice,178,738983,0.0-76.0-1.14,FALSE,TRUE,TRUE,TRUE,"""event"",""trial"",""time""
""fullscreenenter"",""5"",""21827""
","
","
","""event"",""trial"",""time""
""fullscreenenter"",""5"",""21827""
","
",350.189999997383,NA,48,NA,NA,3000,1,NA,NA,images/redplanet1.jpg,images/alien2,images/alien1,images/rocket2,images/alien2,images/nothing.png,2,real,false,2,rare,0,2020-06-30T00:46:23Z,sub147
two-step-fixation,179,739986,0.0-76.0-2.14,FALSE,TRUE,TRUE,TRUE,"""event"",""trial"",""time""
""fullscreenenter"",""5"",""21827""
","
","
","""event"",""trial"",""time""
""fullscreenenter"",""5"",""21827""
","
",NA,images/earth.jpg,NA,NA,NA,NA,NA,NA,NA,NA,NA,NA,NA,NA,NA,fixation,NA,NA,NA,NA,NA,NA,sub147
d3-animate-choice,180,742277,0.0-76.0-0.15,FALSE,TRUE,TRUE,TRUE,"""event"",""trial"",""time""
""fullscreenenter"",""5"",""21827""
","
","
","""event"",""trial"",""time""
""fullscreenenter"",""5"",""21827""
","
",288.1000000052154,NA,49,NA,NA,3000,1,NA,NA,images/earth.jpg,images/rocket1,images/rocket2,null,images/rocket2,NA,1,real,null,1,NA,NA,NA,sub147
d3-animate-choice,181,744539,0.0-76.0-1.15,FALSE,TRUE,TRUE,TRUE,"""event"",""trial"",""time""
""fullscreenenter"",""5"",""21827""
","
","
","""event"",""trial"",""time""
""fullscreenenter"",""5"",""21827""
","
",260.3850000014063,NA,48,NA,NA,3000,1,NA,NA,images/redplanet1.jpg,images/alien2,images/alien1,images/rocket2,images/alien2,images/t.png,2,real,false,2,rare,1,2020-06-30T00:46:29Z,sub147
two-step-fixation,182,745541,0.0-76.0-2.15,FALSE,TRUE,TRUE,TRUE,"""event"",""trial"",""time""
""fullscreenenter"",""5"",""21827""
","
","
","""event"",""trial"",""time""
""fullscreenenter"",""5"",""21827""
","
",NA,images/earth.jpg,NA,NA,NA,NA,NA,NA,NA,NA,NA,NA,NA,NA,NA,fixation,NA,NA,NA,NA,NA,NA,sub147
d3-animate-choice,183,747770,0.0-76.0-0.16,FALSE,TRUE,TRUE,TRUE,"""event"",""trial"",""time""
""fullscreenenter"",""5"",""21827""
","
","
","""event"",""trial"",""time""
""fullscreenenter"",""5"",""21827""
","
",226.1849999994738,NA,49,NA,NA,3000,1,NA,NA,images/earth.jpg,images/rocket1,images/rocket2,null,images/rocket2,NA,1,real,null,1,NA,NA,NA,sub147
d3-animate-choice,184,750075,0.0-76.0-1.16,FALSE,TRUE,TRUE,TRUE,"""event"",""trial"",""time""
""fullscreenenter"",""5"",""21827""
","
","
","""event"",""trial"",""time""
""fullscreenenter"",""5"",""21827""
","
",303.7100000001956,NA,48,NA,NA,3000,1,NA,NA,images/purpleplanet.jpg,images/alien4,images/alien3,images/rocket2,images/alien4,images/t.png,2,real,true,2,common,1,2020-06-30T00:46:34Z,sub147
two-step-fixation,185,751077,0.0-76.0-2.16,FALSE,TRUE,TRUE,TRUE,"""event"",""trial"",""time""
""fullscreenenter"",""5"",""21827""
","
","
","""event"",""trial"",""time""
""fullscreenenter"",""5"",""21827""
","
",NA,images/earth.jpg,NA,NA,NA,NA,NA,NA,NA,NA,NA,NA,NA,NA,NA,fixation,NA,NA,NA,NA,NA,NA,sub147
d3-animate-choice,186,753292,0.0-76.0-0.17,FALSE,TRUE,TRUE,TRUE,"""event"",""trial"",""time""
""fullscreenenter"",""5"",""21827""
","
","
","""event"",""trial"",""time""
""fullscreenenter"",""5"",""21827""
","
",212.8000000010943,NA,49,NA,NA,3000,1,NA,NA,images/earth.jpg,images/rocket1,images/rocket2,null,images/rocket2,NA,1,real,null,1,NA,NA,NA,sub147
d3-animate-choice,187,755658,0.0-76.0-1.17,FALSE,TRUE,TRUE,TRUE,"""event"",""trial"",""time""
""fullscreenenter"",""5"",""21827""
","
","
","""event"",""trial"",""time""
""fullscreenenter"",""5"",""21827""
","
",363.8700000010431,NA,48,NA,NA,3000,1,NA,NA,images/purpleplanet.jpg,images/alien4,images/alien3,images/rocket2,images/alien4,images/t.png,2,real,true,2,common,1,2020-06-30T00:46:40Z,sub147
two-step-fixation,188,756661,0.0-76.0-2.17,FALSE,TRUE,TRUE,TRUE,"""event"",""trial"",""time""
""fullscreenenter"",""5"",""21827""
","
","
","""event"",""trial"",""time""
""fullscreenenter"",""5"",""21827""
","
",NA,images/earth.jpg,NA,NA,NA,NA,NA,NA,NA,NA,NA,NA,NA,NA,NA,fixation,NA,NA,NA,NA,NA,NA,sub147
d3-animate-choice,189,758944,0.0-76.0-0.18,FALSE,TRUE,TRUE,TRUE,"""event"",""trial"",""time""
""fullscreenenter"",""5"",""21827""
","
","
","""event"",""trial"",""time""
""fullscreenenter"",""5"",""21827""
","
",281.2800000028219,NA,49,NA,NA,3000,1,NA,NA,images/earth.jpg,images/rocket1,images/rocket2,null,images/rocket2,NA,1,real,null,1,NA,NA,NA,sub147
d3-animate-choice,190,761255,0.0-76.0-1.18,FALSE,TRUE,TRUE,TRUE,"""event"",""trial"",""time""
""fullscreenenter"",""5"",""21827""
","
","
","""event"",""trial"",""time""
""fullscreenenter"",""5"",""21827""
","
",308.5800000043819,NA,48,NA,NA,3000,1,NA,NA,images/purpleplanet.jpg,images/alien4,images/alien3,images/rocket2,images/alien4,images/t.png,2,real,true,2,common,1,2020-06-30T00:46:45Z,sub147
two-step-fixation,191,762258,0.0-76.0-2.18,FALSE,TRUE,TRUE,TRUE,"""event"",""trial"",""time""
""fullscreenenter"",""5"",""21827""
","
","
","""event"",""trial"",""time""
""fullscreenenter"",""5"",""21827""
","
",NA,images/earth.jpg,NA,NA,NA,NA,NA,NA,NA,NA,NA,NA,NA,NA,NA,fixation,NA,NA,NA,NA,NA,NA,sub147
d3-animate-choice,192,764518,0.0-76.0-0.19,FALSE,TRUE,TRUE,TRUE,"""event"",""trial"",""time""
""fullscreenenter"",""5"",""21827""
","
","
","""event"",""trial"",""time""
""fullscreenenter"",""5"",""21827""
","
",257.9899999983609,NA,49,NA,NA,3000,1,NA,NA,images/earth.jpg,images/rocket1,images/rocket2,null,images/rocket2,NA,1,real,null,1,NA,NA,NA,sub147
d3-animate-choice,193,767136,0.0-76.0-1.19,FALSE,TRUE,TRUE,TRUE,"""event"",""trial"",""time""
""fullscreenenter"",""5"",""21827""
","
","
","""event"",""trial"",""time""
""fullscreenenter"",""5"",""21827""
","
",615.3049999992363,NA,49,NA,NA,3000,1,NA,NA,images/redplanet1.jpg,images/alien2,images/alien1,images/rocket2,images/alien1,images/t.png,2,real,false,1,rare,1,2020-06-30T00:46:51Z,sub147
two-step-fixation,194,768138,0.0-76.0-2.19,FALSE,TRUE,TRUE,TRUE,"""event"",""trial"",""time""
""fullscreenenter"",""5"",""21827""
","
","
","""event"",""trial"",""time""
""fullscreenenter"",""5"",""21827""
","
",NA,images/earth.jpg,NA,NA,NA,NA,NA,NA,NA,NA,NA,NA,NA,NA,NA,fixation,NA,NA,NA,NA,NA,NA,sub147
d3-animate-choice,195,770386,0.0-76.0-0.20,FALSE,TRUE,TRUE,TRUE,"""event"",""trial"",""time""
""fullscreenenter"",""5"",""21827""
","
","
","""event"",""trial"",""time""
""fullscreenenter"",""5"",""21827""
","
",245.68499999435153,NA,49,NA,NA,3000,1,NA,NA,images/earth.jpg,images/rocket1,images/rocket2,null,images/rocket2,NA,1,real,null,1,NA,NA,NA,sub147
d3-animate-choice,196,772709,0.0-76.0-1.20,FALSE,TRUE,TRUE,TRUE,"""event"",""trial"",""time""
""fullscreenenter"",""5"",""21827""
","
","
","""event"",""trial"",""time""
""fullscreenenter"",""5"",""21827""
","
",321.26000000420026,NA,48,NA,NA,3000,1,NA,NA,images/purpleplanet.jpg,images/alien4,images/alien3,images/rocket2,images/alien4,images/t.png,2,real,true,2,common,1,2020-06-30T00:46:57Z,sub147
two-step-fixation,197,773711,0.0-76.0-2.20,FALSE,TRUE,TRUE,TRUE,"""event"",""trial"",""time""
""fullscreenenter"",""5"",""21827""
","
","
","""event"",""trial"",""time""
""fullscreenenter"",""5"",""21827""
","
",NA,images/earth.jpg,NA,NA,NA,NA,NA,NA,NA,NA,NA,NA,NA,NA,NA,fixation,NA,NA,NA,NA,NA,NA,sub147
d3-animate-choice,198,775980,0.0-76.0-0.21,FALSE,TRUE,TRUE,TRUE,"""event"",""trial"",""time""
""fullscreenenter"",""5"",""21827""
","
","
","""event"",""trial"",""time""
""fullscreenenter"",""5"",""21827""
","
",266.17499999701977,NA,49,NA,NA,3000,1,NA,NA,images/earth.jpg,images/rocket1,images/rocket2,null,images/rocket2,NA,1,real,null,1,NA,NA,NA,sub147
d3-animate-choice,199,778249,0.0-76.0-1.21,FALSE,TRUE,TRUE,TRUE,"""event"",""trial"",""time""
""fullscreenenter"",""5"",""21827""
","
","
","""event"",""trial"",""time""
""fullscreenenter"",""5"",""21827""
","
",266.504999999539,NA,48,NA,NA,3000,1,NA,NA,images/purpleplanet.jpg,images/alien4,images/alien3,images/rocket2,images/alien4,images/nothing.png,2,real,true,2,common,0,2020-06-30T00:47:02Z,sub147
two-step-fixation,200,779251,0.0-76.0-2.21,FALSE,TRUE,TRUE,TRUE,"""event"",""trial"",""time""
""fullscreenenter"",""5"",""21827""
","
","
","""event"",""trial"",""time""
""fullscreenenter"",""5"",""21827""
","
",NA,images/earth.jpg,NA,NA,NA,NA,NA,NA,NA,NA,NA,NA,NA,NA,NA,fixation,NA,NA,NA,NA,NA,NA,sub147
d3-animate-choice,201,781491,0.0-76.0-0.22,FALSE,TRUE,TRUE,TRUE,"""event"",""trial"",""time""
""fullscreenenter"",""5"",""21827""
","
","
","""event"",""trial"",""time""
""fullscreenenter"",""5"",""21827""
","
",237.35499999753665,NA,49,NA,NA,3000,1,NA,NA,images/earth.jpg,images/rocket1,images/rocket2,null,images/rocket2,NA,1,real,null,1,NA,NA,NA,sub147
d3-animate-choice,202,783820,0.0-76.0-1.22,FALSE,TRUE,TRUE,TRUE,"""event"",""trial"",""time""
""fullscreenenter"",""5"",""21827""
","
","
","""event"",""trial"",""time""
""fullscreenenter"",""5"",""21827""
","
",326.11500000348315,NA,48,NA,NA,3000,1,NA,NA,images/purpleplanet.jpg,images/alien4,images/alien3,images/rocket2,images/alien4,images/t.png,2,real,true,2,common,1,2020-06-30T00:47:08Z,sub147
two-step-fixation,203,784822,0.0-76.0-2.22,FALSE,TRUE,TRUE,TRUE,"""event"",""trial"",""time""
""fullscreenenter"",""5"",""21827""
","
","
","""event"",""trial"",""time""
""fullscreenenter"",""5"",""21827""
","
",NA,images/earth.jpg,NA,NA,NA,NA,NA,NA,NA,NA,NA,NA,NA,NA,NA,fixation,NA,NA,NA,NA,NA,NA,sub147
d3-animate-choice,204,787085,0.0-76.0-0.23,FALSE,TRUE,TRUE,TRUE,"""event"",""trial"",""time""
""fullscreenenter"",""5"",""21827""
","
","
","""event"",""trial"",""time""
""fullscreenenter"",""5"",""21827""
","
",261.00000000582077,NA,49,NA,NA,3000,1,NA,NA,images/earth.jpg,images/rocket1,images/rocket2,null,images/rocket2,NA,1,real,null,1,NA,NA,NA,sub147
d3-animate-choice,205,789444,0.0-76.0-1.23,FALSE,TRUE,TRUE,TRUE,"""event"",""trial"",""time""
""fullscreenenter"",""5"",""21827""
","
","
","""event"",""trial"",""time""
""fullscreenenter"",""5"",""21827""
","
",356.46499999717344,NA,49,NA,NA,3000,1,NA,NA,images/redplanet1.jpg,images/alien2,images/alien1,images/rocket2,images/alien1,images/t.png,2,real,false,1,rare,1,2020-06-30T00:47:13Z,sub147
two-step-fixation,206,790447,0.0-76.0-2.23,FALSE,TRUE,TRUE,TRUE,"""event"",""trial"",""time""
""fullscreenenter"",""5"",""21827""
","
","
","""event"",""trial"",""time""
""fullscreenenter"",""5"",""21827""
","
",NA,images/earth.jpg,NA,NA,NA,NA,NA,NA,NA,NA,NA,NA,NA,NA,NA,fixation,NA,NA,NA,NA,NA,NA,sub147
d3-animate-choice,207,792975,0.0-76.0-0.24,FALSE,TRUE,TRUE,TRUE,"""event"",""trial"",""time""
""fullscreenenter"",""5"",""21827""
","
","
","""event"",""trial"",""time""
""fullscreenenter"",""5"",""21827""
","
",525.4500000011176,NA,49,NA,NA,3000,1,NA,NA,images/earth.jpg,images/rocket1,images/rocket2,null,images/rocket2,NA,1,real,null,1,NA,NA,NA,sub147
d3-animate-choice,208,795286,0.0-76.0-1.24,FALSE,TRUE,TRUE,TRUE,"""event"",""trial"",""time""
""fullscreenenter"",""5"",""21827""
","
","
","""event"",""trial"",""time""
""fullscreenenter"",""5"",""21827""
","
",308.91500000143424,NA,48,NA,NA,3000,1,NA,NA,images/redplanet1.jpg,images/alien2,images/alien1,images/rocket2,images/alien2,images/t.png,2,real,false,2,rare,1,2020-06-30T00:47:19Z,sub147
two-step-fixation,209,796289,0.0-76.0-2.24,FALSE,TRUE,TRUE,TRUE,"""event"",""trial"",""time""
""fullscreenenter"",""5"",""21827""
","
","
","""event"",""trial"",""time""
""fullscreenenter"",""5"",""21827""
","
",NA,images/earth.jpg,NA,NA,NA,NA,NA,NA,NA,NA,NA,NA,NA,NA,NA,fixation,NA,NA,NA,NA,NA,NA,sub147
d3-animate-choice,210,798562,0.0-76.0-0.25,FALSE,TRUE,TRUE,TRUE,"""event"",""trial"",""time""
""fullscreenenter"",""5"",""21827""
","
","
","""event"",""trial"",""time""
""fullscreenenter"",""5"",""21827""
","
",271.4699999996228,NA,49,NA,NA,3000,1,NA,NA,images/earth.jpg,images/rocket1,images/rocket2,null,images/rocket2,NA,1,real,null,1,NA,NA,NA,sub147
d3-animate-choice,211,800923,0.0-76.0-1.25,FALSE,TRUE,TRUE,TRUE,"""event"",""trial"",""time""
""fullscreenenter"",""5"",""21827""
","
","
","""event"",""trial"",""time""
""fullscreenenter"",""5"",""21827""
","
",358.7299999999814,NA,48,NA,NA,3000,1,NA,NA,images/purpleplanet.jpg,images/alien4,images/alien3,images/rocket2,images/alien4,images/t.png,2,real,true,2,common,1,2020-06-30T00:47:25Z,sub147
two-step-fixation,212,801925,0.0-76.0-2.25,FALSE,TRUE,TRUE,TRUE,"""event"",""trial"",""time""
""fullscreenenter"",""5"",""21827""
","
","
","""event"",""trial"",""time""
""fullscreenenter"",""5"",""21827""
","
",NA,images/earth.jpg,NA,NA,NA,NA,NA,NA,NA,NA,NA,NA,NA,NA,NA,fixation,NA,NA,NA,NA,NA,NA,sub147
d3-animate-choice,213,804210,0.0-76.0-0.26,FALSE,TRUE,TRUE,TRUE,"""event"",""trial"",""time""
""fullscreenenter"",""5"",""21827""
","
","
","""event"",""trial"",""time""
""fullscreenenter"",""5"",""21827""
","
",283.46500000031665,NA,49,NA,NA,3000,1,NA,NA,images/earth.jpg,images/rocket1,images/rocket2,null,images/rocket2,NA,1,real,null,1,NA,NA,NA,sub147
d3-animate-choice,214,806546,0.0-76.0-1.26,FALSE,TRUE,TRUE,TRUE,"""event"",""trial"",""time""
""fullscreenenter"",""5"",""21827""
","
","
","""event"",""trial"",""time""
""fullscreenenter"",""5"",""21827""
","
",333.24500000162516,NA,48,NA,NA,3000,1,NA,NA,images/purpleplanet.jpg,images/alien4,images/alien3,images/rocket2,images/alien4,images/nothing.png,2,real,true,2,common,0,2020-06-30T00:47:31Z,sub147
two-step-fixation,215,807548,0.0-76.0-2.26,FALSE,TRUE,TRUE,TRUE,"""event"",""trial"",""time""
""fullscreenenter"",""5"",""21827""
","
","
","""event"",""trial"",""time""
""fullscreenenter"",""5"",""21827""
","
",NA,images/earth.jpg,NA,NA,NA,NA,NA,NA,NA,NA,NA,NA,NA,NA,NA,fixation,NA,NA,NA,NA,NA,NA,sub147
d3-animate-choice,216,809658,0.0-76.0-0.27,FALSE,TRUE,TRUE,TRUE,"""event"",""trial"",""time""
""fullscreenenter"",""5"",""21827""
","
","
","""event"",""trial"",""time""
""fullscreenenter"",""5"",""21827""
","
",108.34500000067055,NA,49,NA,NA,3000,1,NA,NA,images/earth.jpg,images/rocket1,images/rocket2,null,images/rocket2,NA,1,real,null,1,NA,NA,NA,sub147
d3-animate-choice,217,812008,0.0-76.0-1.27,FALSE,TRUE,TRUE,TRUE,"""event"",""trial"",""time""
""fullscreenenter"",""5"",""21827""
","
","
","""event"",""trial"",""time""
""fullscreenenter"",""5"",""21827""
","
",347.79499999422114,NA,49,NA,NA,3000,1,NA,NA,images/redplanet1.jpg,images/alien2,images/alien1,images/rocket2,images/alien1,images/nothing.png,2,real,false,1,rare,0,2020-06-30T00:47:36Z,sub147
two-step-fixation,218,813009,0.0-76.0-2.27,FALSE,TRUE,TRUE,TRUE,"""event"",""trial"",""time""
""fullscreenenter"",""5"",""21827""
","
","
","""event"",""trial"",""time""
""fullscreenenter"",""5"",""21827""
","
",NA,images/earth.jpg,NA,NA,NA,NA,NA,NA,NA,NA,NA,NA,NA,NA,NA,fixation,NA,NA,NA,NA,NA,NA,sub147
d3-animate-choice,219,815281,0.0-76.0-0.28,FALSE,TRUE,TRUE,TRUE,"""event"",""trial"",""time""
""fullscreenenter"",""5"",""21827""
","
","
","""event"",""trial"",""time""
""fullscreenenter"",""5"",""21827""
","
",269.7150000021793,NA,49,NA,NA,3000,1,NA,NA,images/earth.jpg,images/rocket1,images/rocket2,null,images/rocket2,NA,1,real,null,1,NA,NA,NA,sub147
d3-animate-choice,220,817537,0.0-76.0-1.28,FALSE,TRUE,TRUE,TRUE,"""event"",""trial"",""time""
""fullscreenenter"",""5"",""21827""
","
","
","""event"",""trial"",""time""
""fullscreenenter"",""5"",""21827""
","
",253.89999999594875,NA,48,NA,NA,3000,1,NA,NA,images/purpleplanet.jpg,images/alien4,images/alien3,images/rocket2,images/alien4,images/t.png,2,real,true,2,common,1,2020-06-30T00:47:42Z,sub147
two-step-fixation,221,818539,0.0-76.0-2.28,FALSE,TRUE,TRUE,TRUE,"""event"",""trial"",""time""
""fullscreenenter"",""5"",""21827""
","
","
","""event"",""trial"",""time""
""fullscreenenter"",""5"",""21827""
","
",NA,images/earth.jpg,NA,NA,NA,NA,NA,NA,NA,NA,NA,NA,NA,NA,NA,fixation,NA,NA,NA,NA,NA,NA,sub147
d3-animate-choice,222,820838,0.0-76.0-0.29,FALSE,TRUE,TRUE,TRUE,"""event"",""trial"",""time""
""fullscreenenter"",""5"",""21827""
","
","
","""event"",""trial"",""time""
""fullscreenenter"",""5"",""21827""
","
",297.54500000120606,NA,48,NA,NA,3000,1,NA,NA,images/earth.jpg,images/rocket1,images/rocket2,null,images/rocket1,NA,1,real,null,2,NA,NA,NA,sub147
d3-animate-choice,223,823120,0.0-76.0-1.29,FALSE,TRUE,TRUE,TRUE,"""event"",""trial"",""time""
""fullscreenenter"",""5"",""21827""
","
","
","""event"",""trial"",""time""
""fullscreenenter"",""5"",""21827""
","
",279.41500000446104,NA,48,NA,NA,3000,1,NA,NA,images/purpleplanet.jpg,images/alien4,images/alien3,images/rocket1,images/alien4,images/nothing.png,2,real,false,2,rare,0,2020-06-30T00:47:47Z,sub147
two-step-fixation,224,824121,0.0-76.0-2.29,FALSE,TRUE,TRUE,TRUE,"""event"",""trial"",""time""
""fullscreenenter"",""5"",""21827""
","
","
","""event"",""trial"",""time""
""fullscreenenter"",""5"",""21827""
","
",NA,images/earth.jpg,NA,NA,NA,NA,NA,NA,NA,NA,NA,NA,NA,NA,NA,fixation,NA,NA,NA,NA,NA,NA,sub147
d3-animate-choice,225,826380,0.0-76.0-0.30,FALSE,TRUE,TRUE,TRUE,"""event"",""trial"",""time""
""fullscreenenter"",""5"",""21827""
","
","
","""event"",""trial"",""time""
""fullscreenenter"",""5"",""21827""
","
",256.0749999975087,NA,48,NA,NA,3000,1,NA,NA,images/earth.jpg,images/rocket1,images/rocket2,null,images/rocket1,NA,1,real,null,2,NA,NA,NA,sub147
d3-animate-choice,226,828655,0.0-76.0-1.30,FALSE,TRUE,TRUE,TRUE,"""event"",""trial"",""time""
""fullscreenenter"",""5"",""21827""
","
","
","""event"",""trial"",""time""
""fullscreenenter"",""5"",""21827""
","
",273.9000000001397,NA,49,NA,NA,3000,1,NA,NA,images/purpleplanet.jpg,images/alien4,images/alien3,images/rocket1,images/alien3,images/nothing.png,2,real,false,1,rare,0,2020-06-30T00:47:53Z,sub147
two-step-fixation,227,829658,0.0-76.0-2.30,FALSE,TRUE,TRUE,TRUE,"""event"",""trial"",""time""
""fullscreenenter"",""5"",""21827""
","
","
","""event"",""trial"",""time""
""fullscreenenter"",""5"",""21827""
","
",NA,images/earth.jpg,NA,NA,NA,NA,NA,NA,NA,NA,NA,NA,NA,NA,NA,fixation,NA,NA,NA,NA,NA,NA,sub147
d3-animate-choice,228,831966,0.0-76.0-0.31,FALSE,TRUE,TRUE,TRUE,"""event"",""trial"",""time""
""fullscreenenter"",""5"",""21827""
","
","
","""event"",""trial"",""time""
""fullscreenenter"",""5"",""21827""
","
",305.46999999927357,NA,48,NA,NA,3000,1,NA,NA,images/earth.jpg,images/rocket1,images/rocket2,null,images/rocket1,NA,1,real,null,2,NA,NA,NA,sub147
d3-animate-choice,229,834454,0.0-76.0-1.31,FALSE,TRUE,TRUE,TRUE,"""event"",""trial"",""time""
""fullscreenenter"",""5"",""21827""
","
","
","""event"",""trial"",""time""
""fullscreenenter"",""5"",""21827""
","
",484.84499999904074,NA,49,NA,NA,3000,1,NA,NA,images/redplanet1.jpg,images/alien2,images/alien1,images/rocket1,images/alien1,images/nothing.png,2,real,true,1,common,0,2020-06-30T00:47:58Z,sub147
two-step-fixation,230,835457,0.0-76.0-2.31,FALSE,TRUE,TRUE,TRUE,"""event"",""trial"",""time""
""fullscreenenter"",""5"",""21827""
","
","
","""event"",""trial"",""time""
""fullscreenenter"",""5"",""21827""
","
",NA,images/earth.jpg,NA,NA,NA,NA,NA,NA,NA,NA,NA,NA,NA,NA,NA,fixation,NA,NA,NA,NA,NA,NA,sub147
d3-animate-choice,231,837715,0.0-76.0-0.32,FALSE,TRUE,TRUE,TRUE,"""event"",""trial"",""time""
""fullscreenenter"",""5"",""21827""
","
","
","""event"",""trial"",""time""
""fullscreenenter"",""5"",""21827""
","
",255.57500000286382,NA,49,NA,NA,3000,1,NA,NA,images/earth.jpg,images/rocket1,images/rocket2,null,images/rocket2,NA,1,real,null,1,NA,NA,NA,sub147
d3-animate-choice,232,840099,0.0-76.0-1.32,FALSE,TRUE,TRUE,TRUE,"""event"",""trial"",""time""
""fullscreenenter"",""5"",""21827""
","
","
","""event"",""trial"",""time""
""fullscreenenter"",""5"",""21827""
","
",381.6850000002887,NA,48,NA,NA,3000,1,NA,NA,images/redplanet1.jpg,images/alien2,images/alien1,images/rocket2,images/alien2,images/nothing.png,2,real,false,2,rare,0,2020-06-30T00:48:04Z,sub147
two-step-fixation,233,841100,0.0-76.0-2.32,FALSE,TRUE,TRUE,TRUE,"""event"",""trial"",""time""
""fullscreenenter"",""5"",""21827""
","
","
","""event"",""trial"",""time""
""fullscreenenter"",""5"",""21827""
","
",NA,images/earth.jpg,NA,NA,NA,NA,NA,NA,NA,NA,NA,NA,NA,NA,NA,fixation,NA,NA,NA,NA,NA,NA,sub147
d3-animate-choice,234,843121,0.0-76.0-0.33,FALSE,TRUE,TRUE,TRUE,"""event"",""trial"",""time""
""fullscreenenter"",""5"",""21827""
","
","
","""event"",""trial"",""time""
""fullscreenenter"",""5"",""21827""
","
",19.209999998565763,NA,49,NA,NA,3000,1,NA,NA,images/earth.jpg,images/rocket1,images/rocket2,null,images/rocket2,NA,1,real,null,1,NA,NA,NA,sub147
d3-animate-choice,235,845409,0.0-76.0-1.33,FALSE,TRUE,TRUE,TRUE,"""event"",""trial"",""time""
""fullscreenenter"",""5"",""21827""
","
","
","""event"",""trial"",""time""
""fullscreenenter"",""5"",""21827""
","
",285.040000002482,NA,48,NA,NA,3000,1,NA,NA,images/purpleplanet.jpg,images/alien4,images/alien3,images/rocket2,images/alien4,images/nothing.png,2,real,true,2,common,0,2020-06-30T00:48:09Z,sub147
two-step-fixation,236,846413,0.0-76.0-2.33,FALSE,TRUE,TRUE,TRUE,"""event"",""trial"",""time""
""fullscreenenter"",""5"",""21827""
","
","
","""event"",""trial"",""time""
""fullscreenenter"",""5"",""21827""
","
",NA,images/earth.jpg,NA,NA,NA,NA,NA,NA,NA,NA,NA,NA,NA,NA,NA,fixation,NA,NA,NA,NA,NA,NA,sub147
d3-animate-choice,237,848696,0.0-76.0-0.34,FALSE,TRUE,TRUE,TRUE,"""event"",""trial"",""time""
""fullscreenenter"",""5"",""21827""
","
","
","""event"",""trial"",""time""
""fullscreenenter"",""5"",""21827""
","
",280.1949999993667,NA,49,NA,NA,3000,1,NA,NA,images/earth.jpg,images/rocket1,images/rocket2,null,images/rocket2,NA,1,real,null,1,NA,NA,NA,sub147
d3-animate-choice,238,850952,0.0-76.0-1.34,FALSE,TRUE,TRUE,TRUE,"""event"",""trial"",""time""
""fullscreenenter"",""5"",""21827""
","
","
","""event"",""trial"",""time""
""fullscreenenter"",""5"",""21827""
","
",254.47499999427237,NA,49,NA,NA,3000,1,NA,NA,images/purpleplanet.jpg,images/alien4,images/alien3,images/rocket2,images/alien3,images/nothing.png,2,real,true,1,common,0,2020-06-30T00:48:15Z,sub147
two-step-fixation,239,851955,0.0-76.0-2.34,FALSE,TRUE,TRUE,TRUE,"""event"",""trial"",""time""
""fullscreenenter"",""5"",""21827""
","
","
","""event"",""trial"",""time""
""fullscreenenter"",""5"",""21827""
","
",NA,images/earth.jpg,NA,NA,NA,NA,NA,NA,NA,NA,NA,NA,NA,NA,NA,fixation,NA,NA,NA,NA,NA,NA,sub147
d3-animate-choice,240,854249,0.0-76.0-0.35,FALSE,TRUE,TRUE,TRUE,"""event"",""trial"",""time""
""fullscreenenter"",""5"",""21827""
","
","
","""event"",""trial"",""time""
""fullscreenenter"",""5"",""21827""
","
",292.0949999971781,NA,49,NA,NA,3000,1,NA,NA,images/earth.jpg,images/rocket1,images/rocket2,null,images/rocket2,NA,1,real,null,1,NA,NA,NA,sub147
d3-animate-choice,241,856476,0.0-76.0-1.35,FALSE,TRUE,TRUE,TRUE,"""event"",""trial"",""time""
""fullscreenenter"",""5"",""21827""
","
","
","""event"",""trial"",""time""
""fullscreenenter"",""5"",""21827""
","
",224.6050000031246,NA,48,NA,NA,3000,1,NA,NA,images/redplanet1.jpg,images/alien2,images/alien1,images/rocket2,images/alien2,images/t.png,2,real,false,2,rare,1,2020-06-30T00:48:20Z,sub147
two-step-fixation,242,857478,0.0-76.0-2.35,FALSE,TRUE,TRUE,TRUE,"""event"",""trial"",""time""
""fullscreenenter"",""5"",""21827""
","
","
","""event"",""trial"",""time""
""fullscreenenter"",""5"",""21827""
","
",NA,images/earth.jpg,NA,NA,NA,NA,NA,NA,NA,NA,NA,NA,NA,NA,NA,fixation,NA,NA,NA,NA,NA,NA,sub147
d3-animate-choice,243,859848,0.0-76.0-0.36,FALSE,TRUE,TRUE,TRUE,"""event"",""trial"",""time""
""fullscreenenter"",""5"",""21827""
","
","
","""event"",""trial"",""time""
""fullscreenenter"",""5"",""21827""
","
",367.79999999993015,NA,48,NA,NA,3000,1,NA,NA,images/earth.jpg,images/rocket1,images/rocket2,null,images/rocket1,NA,1,real,null,2,NA,NA,NA,sub147
d3-animate-choice,244,862141,0.0-76.0-1.36,FALSE,TRUE,TRUE,TRUE,"""event"",""trial"",""time""
""fullscreenenter"",""5"",""21827""
","
","
","""event"",""trial"",""time""
""fullscreenenter"",""5"",""21827""
","
",291.2549999963958,NA,48,NA,NA,3000,1,NA,NA,images/redplanet1.jpg,images/alien2,images/alien1,images/rocket1,images/alien2,images/nothing.png,2,real,true,2,common,0,2020-06-30T00:48:26Z,sub147
two-step-fixation,245,863144,0.0-76.0-2.36,FALSE,TRUE,TRUE,TRUE,"""event"",""trial"",""time""
""fullscreenenter"",""5"",""21827""
","
","
","""event"",""trial"",""time""
""fullscreenenter"",""5"",""21827""
","
",NA,images/earth.jpg,NA,NA,NA,NA,NA,NA,NA,NA,NA,NA,NA,NA,NA,fixation,NA,NA,NA,NA,NA,NA,sub147
d3-animate-choice,246,865435,0.0-76.0-0.37,FALSE,TRUE,TRUE,TRUE,"""event"",""trial"",""time""
""fullscreenenter"",""5"",""21827""
","
","
","""event"",""trial"",""time""
""fullscreenenter"",""5"",""21827""
","
",289.1849999941187,NA,49,NA,NA,3000,1,2285.8299999933224,48,images/earth.jpg,images/rocket1,images/rocket2,null,images/rocket2,NA,1,real,null,1,NA,NA,NA,sub147
d3-animate-choice,247,867769,0.0-76.0-1.37,FALSE,TRUE,TRUE,TRUE,"""event"",""trial"",""time""
""fullscreenenter"",""5"",""21827""
","
","
","""event"",""trial"",""time""
""fullscreenenter"",""5"",""21827""
","
",331.21500000567175,NA,48,NA,NA,3000,1,NA,NA,images/purpleplanet.jpg,images/alien4,images/alien3,images/rocket2,images/alien4,images/t.png,2,real,true,2,common,1,2020-06-30T00:48:32Z,sub147
two-step-fixation,248,868771,0.0-76.0-2.37,FALSE,TRUE,TRUE,TRUE,"""event"",""trial"",""time""
""fullscreenenter"",""5"",""21827""
","
","
","""event"",""trial"",""time""
""fullscreenenter"",""5"",""21827""
","
",NA,images/earth.jpg,NA,NA,NA,NA,NA,NA,NA,NA,NA,NA,NA,NA,NA,fixation,NA,NA,NA,NA,NA,NA,sub147
d3-animate-choice,249,870850,0.0-76.0-0.38,FALSE,TRUE,TRUE,TRUE,"""event"",""trial"",""time""
""fullscreenenter"",""5"",""21827""
","
","
","""event"",""trial"",""time""
""fullscreenenter"",""5"",""21827""
","
",76.91499999770895,NA,48,NA,NA,3000,1,NA,NA,images/earth.jpg,images/rocket1,images/rocket2,null,images/rocket1,NA,1,real,null,2,NA,NA,NA,sub147
d3-animate-choice,250,873122,0.0-76.0-1.38,FALSE,TRUE,TRUE,TRUE,"""event"",""trial"",""time""
""fullscreenenter"",""5"",""21827""
","
","
","""event"",""trial"",""time""
""fullscreenenter"",""5"",""21827""
","
",269.1999999951804,NA,49,NA,NA,3000,1,NA,NA,images/purpleplanet.jpg,images/alien4,images/alien3,images/rocket1,images/alien3,images/nothing.png,2,real,false,1,rare,0,2020-06-30T00:48:37Z,sub147
two-step-fixation,251,874125,0.0-76.0-2.38,FALSE,TRUE,TRUE,TRUE,"""event"",""trial"",""time""
""fullscreenenter"",""5"",""21827""
","
","
","""event"",""trial"",""time""
""fullscreenenter"",""5"",""21827""
","
",NA,images/earth.jpg,NA,NA,NA,NA,NA,NA,NA,NA,NA,NA,NA,NA,NA,fixation,NA,NA,NA,NA,NA,NA,sub147
d3-animate-choice,252,876368,0.0-76.0-0.39,FALSE,TRUE,TRUE,TRUE,"""event"",""trial"",""time""
""fullscreenenter"",""5"",""21827""
","
","
","""event"",""trial"",""time""
""fullscreenenter"",""5"",""21827""
","
",240.73499999940395,NA,49,NA,NA,3000,1,NA,NA,images/earth.jpg,images/rocket1,images/rocket2,null,images/rocket2,NA,1,real,null,1,NA,NA,NA,sub147
d3-animate-choice,253,878872,0.0-76.0-1.39,FALSE,TRUE,TRUE,TRUE,"""event"",""trial"",""time""
""fullscreenenter"",""5"",""21827""
","
","
","""event"",""trial"",""time""
""fullscreenenter"",""5"",""21827""
","
",501.9650000031106,NA,49,NA,NA,3000,1,NA,NA,images/purpleplanet.jpg,images/alien4,images/alien3,images/rocket2,images/alien3,images/nothing.png,2,real,true,1,common,0,2020-06-30T00:48:43Z,sub147
two-step-fixation,254,879874,0.0-76.0-2.39,FALSE,TRUE,TRUE,TRUE,"""event"",""trial"",""time""
""fullscreenenter"",""5"",""21827""
","
","
","""event"",""trial"",""time""
""fullscreenenter"",""5"",""21827""
","
",NA,images/earth.jpg,NA,NA,NA,NA,NA,NA,NA,NA,NA,NA,NA,NA,NA,fixation,NA,NA,NA,NA,NA,NA,sub147
d3-animate-choice,255,882091,0.0-76.0-0.40,FALSE,TRUE,TRUE,TRUE,"""event"",""trial"",""time""
""fullscreenenter"",""5"",""21827""
","
","
","""event"",""trial"",""time""
""fullscreenenter"",""5"",""21827""
","
",214.9250000002794,NA,48,NA,NA,3000,1,NA,NA,images/earth.jpg,images/rocket1,images/rocket2,null,images/rocket1,NA,1,real,null,2,NA,NA,NA,sub147
d3-animate-choice,256,884814,0.0-76.0-1.40,FALSE,TRUE,TRUE,TRUE,"""event"",""trial"",""time""
""fullscreenenter"",""5"",""21827""
","
","
","""event"",""trial"",""time""
""fullscreenenter"",""5"",""21827""
","
",720.6250000016298,NA,48,NA,NA,3000,1,NA,NA,images/redplanet1.jpg,images/alien2,images/alien1,images/rocket1,images/alien2,images/t.png,2,real,true,2,common,1,2020-06-30T00:48:49Z,sub147
two-step-fixation,257,885815,0.0-76.0-2.40,FALSE,TRUE,TRUE,TRUE,"""event"",""trial"",""time""
""fullscreenenter"",""5"",""21827""
","
","
","""event"",""trial"",""time""
""fullscreenenter"",""5"",""21827""
","
",NA,images/earth.jpg,NA,NA,NA,NA,NA,NA,NA,NA,NA,NA,NA,NA,NA,fixation,NA,NA,NA,NA,NA,NA,sub147
d3-animate-choice,258,888070,0.0-76.0-0.41,FALSE,TRUE,TRUE,TRUE,"""event"",""trial"",""time""
""fullscreenenter"",""5"",""21827""
","
","
","""event"",""trial"",""time""
""fullscreenenter"",""5"",""21827""
","
",253.54000000515953,NA,48,NA,NA,3000,1,NA,NA,images/earth.jpg,images/rocket1,images/rocket2,null,images/rocket1,NA,1,real,null,2,NA,NA,NA,sub147
d3-animate-choice,259,890454,0.0-76.0-1.41,FALSE,TRUE,TRUE,TRUE,"""event"",""trial"",""time""
""fullscreenenter"",""5"",""21827""
","
","
","""event"",""trial"",""time""
""fullscreenenter"",""5"",""21827""
","
",382.38499999721535,NA,48,NA,NA,3000,1,NA,NA,images/purpleplanet.jpg,images/alien4,images/alien3,images/rocket1,images/alien4,images/t.png,2,real,false,2,rare,1,2020-06-30T00:48:54Z,sub147
two-step-fixation,260,891456,0.0-76.0-2.41,FALSE,TRUE,TRUE,TRUE,"""event"",""trial"",""time""
""fullscreenenter"",""5"",""21827""
","
","
","""event"",""trial"",""time""
""fullscreenenter"",""5"",""21827""
","
",NA,images/earth.jpg,NA,NA,NA,NA,NA,NA,NA,NA,NA,NA,NA,NA,NA,fixation,NA,NA,NA,NA,NA,NA,sub147
d3-animate-choice,261,893732,0.0-76.0-0.42,FALSE,TRUE,TRUE,TRUE,"""event"",""trial"",""time""
""fullscreenenter"",""5"",""21827""
","
","
","""event"",""trial"",""time""
""fullscreenenter"",""5"",""21827""
","
",274.23999999882653,NA,48,NA,NA,3000,1,NA,NA,images/earth.jpg,images/rocket1,images/rocket2,null,images/rocket1,NA,1,real,null,2,NA,NA,NA,sub147
d3-animate-choice,262,895988,0.0-76.0-1.42,FALSE,TRUE,TRUE,TRUE,"""event"",""trial"",""time""
""fullscreenenter"",""5"",""21827""
","
","
","""event"",""trial"",""time""
""fullscreenenter"",""5"",""21827""
","
",253.41499999922235,NA,48,NA,NA,3000,1,NA,NA,images/redplanet1.jpg,images/alien2,images/alien1,images/rocket1,images/alien2,images/nothing.png,2,real,true,2,common,0,2020-06-30T00:49:00Z,sub147
two-step-fixation,263,896991,0.0-76.0-2.42,FALSE,TRUE,TRUE,TRUE,"""event"",""trial"",""time""
""fullscreenenter"",""5"",""21827""
","
","
","""event"",""trial"",""time""
""fullscreenenter"",""5"",""21827""
","
",NA,images/earth.jpg,NA,NA,NA,NA,NA,NA,NA,NA,NA,NA,NA,NA,NA,fixation,NA,NA,NA,NA,NA,NA,sub147
d3-animate-choice,264,899192,0.0-76.0-0.43,FALSE,TRUE,TRUE,TRUE,"""event"",""trial"",""time""
""fullscreenenter"",""5"",""21827""
","
","
","""event"",""trial"",""time""
""fullscreenenter"",""5"",""21827""
","
",198.51500000362284,NA,48,NA,NA,3000,1,NA,NA,images/earth.jpg,images/rocket1,images/rocket2,null,images/rocket1,NA,1,real,null,2,NA,NA,NA,sub147
d3-animate-choice,265,901446,0.0-76.0-1.43,FALSE,TRUE,TRUE,TRUE,"""event"",""trial"",""time""
""fullscreenenter"",""5"",""21827""
","
","
","""event"",""trial"",""time""
""fullscreenenter"",""5"",""21827""
","
",251.8049999999348,NA,48,NA,NA,3000,1,NA,NA,images/purpleplanet.jpg,images/alien4,images/alien3,images/rocket1,images/alien4,images/nothing.png,2,real,false,2,rare,0,2020-06-30T00:49:05Z,sub147
two-step-fixation,266,902448,0.0-76.0-2.43,FALSE,TRUE,TRUE,TRUE,"""event"",""trial"",""time""
""fullscreenenter"",""5"",""21827""
","
","
","""event"",""trial"",""time""
""fullscreenenter"",""5"",""21827""
","
",NA,images/earth.jpg,NA,NA,NA,NA,NA,NA,NA,NA,NA,NA,NA,NA,NA,fixation,NA,NA,NA,NA,NA,NA,sub147
d3-animate-choice,267,904617,0.0-76.0-0.44,FALSE,TRUE,TRUE,TRUE,"""event"",""trial"",""time""
""fullscreenenter"",""5"",""21827""
","
","
","""event"",""trial"",""time""
""fullscreenenter"",""5"",""21827""
","
",166.2399999985937,NA,48,NA,NA,3000,1,NA,NA,images/earth.jpg,images/rocket1,images/rocket2,null,images/rocket1,NA,1,real,null,2,NA,NA,NA,sub147
d3-animate-choice,268,906815,0.0-76.0-1.44,FALSE,TRUE,TRUE,TRUE,"""event"",""trial"",""time""
""fullscreenenter"",""5"",""21827""
","
","
","""event"",""trial"",""time""
""fullscreenenter"",""5"",""21827""
","
",194.51500000292435,NA,48,NA,NA,3000,1,NA,NA,images/redplanet1.jpg,images/alien2,images/alien1,images/rocket1,images/alien2,images/nothing.png,2,real,true,2,common,0,2020-06-30T00:49:11Z,sub147
two-step-fixation,269,907818,0.0-76.0-2.44,FALSE,TRUE,TRUE,TRUE,"""event"",""trial"",""time""
""fullscreenenter"",""5"",""21827""
","
","
","""event"",""trial"",""time""
""fullscreenenter"",""5"",""21827""
","
",NA,images/earth.jpg,NA,NA,NA,NA,NA,NA,NA,NA,NA,NA,NA,NA,NA,fixation,NA,NA,NA,NA,NA,NA,sub147
d3-animate-choice,270,910072,0.0-76.0-0.45,FALSE,TRUE,TRUE,TRUE,"""event"",""trial"",""time""
""fullscreenenter"",""5"",""21827""
","
","
","""event"",""trial"",""time""
""fullscreenenter"",""5"",""21827""
","
",251.9499999980908,NA,49,NA,NA,3000,1,NA,NA,images/earth.jpg,images/rocket1,images/rocket2,null,images/rocket2,NA,1,real,null,1,NA,NA,NA,sub147
d3-animate-choice,271,912431,0.0-76.0-1.45,FALSE,TRUE,TRUE,TRUE,"""event"",""trial"",""time""
""fullscreenenter"",""5"",""21827""
","
","
","""event"",""trial"",""time""
""fullscreenenter"",""5"",""21827""
","
",357.9600000011269,NA,49,NA,NA,3000,1,NA,NA,images/purpleplanet.jpg,images/alien4,images/alien3,images/rocket2,images/alien3,images/t.png,2,real,true,1,common,1,2020-06-30T00:49:16Z,sub147
two-step-fixation,272,913433,0.0-76.0-2.45,FALSE,TRUE,TRUE,TRUE,"""event"",""trial"",""time""
""fullscreenenter"",""5"",""21827""
","
","
","""event"",""trial"",""time""
""fullscreenenter"",""5"",""21827""
","
",NA,images/earth.jpg,NA,NA,NA,NA,NA,NA,NA,NA,NA,NA,NA,NA,NA,fixation,NA,NA,NA,NA,NA,NA,sub147
d3-animate-choice,273,915701,0.0-76.0-0.46,FALSE,TRUE,TRUE,TRUE,"""event"",""trial"",""time""
""fullscreenenter"",""5"",""21827""
","
","
","""event"",""trial"",""time""
""fullscreenenter"",""5"",""21827""
","
",266.4549999971641,NA,49,NA,NA,3000,1,NA,NA,images/earth.jpg,images/rocket1,images/rocket2,null,images/rocket2,NA,1,real,null,1,NA,NA,NA,sub147
d3-animate-choice,274,918014,0.0-76.0-1.46,FALSE,TRUE,TRUE,TRUE,"""event"",""trial"",""time""
""fullscreenenter"",""5"",""21827""
","
","
","""event"",""trial"",""time""
""fullscreenenter"",""5"",""21827""
","
",310.14500000316184,NA,49,NA,NA,3000,1,NA,NA,images/purpleplanet.jpg,images/alien4,images/alien3,images/rocket2,images/alien3,images/nothing.png,2,real,true,1,common,0,2020-06-30T00:49:22Z,sub147
two-step-fixation,275,919016,0.0-76.0-2.46,FALSE,TRUE,TRUE,TRUE,"""event"",""trial"",""time""
""fullscreenenter"",""5"",""21827""
","
","
","""event"",""trial"",""time""
""fullscreenenter"",""5"",""21827""
","
",NA,images/earth.jpg,NA,NA,NA,NA,NA,NA,NA,NA,NA,NA,NA,NA,NA,fixation,NA,NA,NA,NA,NA,NA,sub147
d3-animate-choice,276,921181,0.0-76.0-0.47,FALSE,TRUE,TRUE,TRUE,"""event"",""trial"",""time""
""fullscreenenter"",""5"",""21827""
","
","
","""event"",""trial"",""time""
""fullscreenenter"",""5"",""21827""
","
",163.84999999718275,NA,49,NA,NA,3000,1,NA,NA,images/earth.jpg,images/rocket1,images/rocket2,null,images/rocket2,NA,1,real,null,1,NA,NA,NA,sub147
d3-animate-choice,277,923359,0.0-76.0-1.47,FALSE,TRUE,TRUE,TRUE,"""event"",""trial"",""time""
""fullscreenenter"",""5"",""21827""
","
","
","""event"",""trial"",""time""
""fullscreenenter"",""5"",""21827""
","
",175.01500000082888,NA,48,NA,NA,3000,1,NA,NA,images/redplanet1.jpg,images/alien2,images/alien1,images/rocket2,images/alien2,images/nothing.png,2,real,false,2,rare,0,2020-06-30T00:49:27Z,sub147
two-step-fixation,278,924360,0.0-76.0-2.47,FALSE,TRUE,TRUE,TRUE,"""event"",""trial"",""time""
""fullscreenenter"",""5"",""21827""
","
","
","""event"",""trial"",""time""
""fullscreenenter"",""5"",""21827""
","
",NA,images/earth.jpg,NA,NA,NA,NA,NA,NA,NA,NA,NA,NA,NA,NA,NA,fixation,NA,NA,NA,NA,NA,NA,sub147
d3-animate-choice,279,926601,0.0-76.0-0.48,FALSE,TRUE,TRUE,TRUE,"""event"",""trial"",""time""
""fullscreenenter"",""5"",""21827""
","
","
","""event"",""trial"",""time""
""fullscreenenter"",""5"",""21827""
","
",238.6999999944819,NA,48,NA,NA,3000,1,NA,NA,images/earth.jpg,images/rocket1,images/rocket2,null,images/rocket1,NA,1,real,null,2,NA,NA,NA,sub147
d3-animate-choice,280,928864,0.0-76.0-1.48,FALSE,TRUE,TRUE,TRUE,"""event"",""trial"",""time""
""fullscreenenter"",""5"",""21827""
","
","
","""event"",""trial"",""time""
""fullscreenenter"",""5"",""21827""
","
",259.454999999376,NA,48,NA,NA,3000,1,NA,NA,images/purpleplanet.jpg,images/alien4,images/alien3,images/rocket1,images/alien4,images/nothing.png,2,real,false,2,rare,0,2020-06-30T00:49:33Z,sub147
two-step-fixation,281,929866,0.0-76.0-2.48,FALSE,TRUE,TRUE,TRUE,"""event"",""trial"",""time""
""fullscreenenter"",""5"",""21827""
","
","
","""event"",""trial"",""time""
""fullscreenenter"",""5"",""21827""
","
",NA,images/earth.jpg,NA,NA,NA,NA,NA,NA,NA,NA,NA,NA,NA,NA,NA,fixation,NA,NA,NA,NA,NA,NA,sub147
d3-animate-choice,282,932097,0.0-76.0-0.49,FALSE,TRUE,TRUE,TRUE,"""event"",""trial"",""time""
""fullscreenenter"",""5"",""21827""
","
","
","""event"",""trial"",""time""
""fullscreenenter"",""5"",""21827""
","
",228.6850000018021,NA,48,NA,NA,3000,1,NA,NA,images/earth.jpg,images/rocket1,images/rocket2,null,images/rocket1,NA,1,real,null,2,NA,NA,NA,sub147
d3-animate-choice,283,934376,0.0-76.0-1.49,FALSE,TRUE,TRUE,TRUE,"""event"",""trial"",""time""
""fullscreenenter"",""5"",""21827""
","
","
","""event"",""trial"",""time""
""fullscreenenter"",""5"",""21827""
","
