trial_type,trial_index,time_elapsed,internal_node_id,rocket_sides,red_planet_first_rocket,red_display_order,purple_display_order,interactions,blur_events,focus_events,fullscreenenter_events,fullscreenexit_events,rt,stimulus,key_press,button_pressed,success,duration,valid_pressed,rts,keys,planet_text,right_text,left_text,center_text,chosen_text,reward_text,trial_stage,practice_trial,transition_type,reward,timestamp,choice,transition,subject_id
pavlovia,0,6,0.0-0.0,FALSE,FALSE,TRUE,TRUE,"
","
","
","
","
",NA,NA,NA,NA,NA,NA,NA,NA,NA,NA,NA,NA,NA,NA,NA,NA,NA,NA,NA,NA,NA,NA,sub124
html-keyboard-response,1,1847,0.0-1.0,FALSE,FALSE,TRUE,TRUE,"
","
","
","
","
",1839.570000069216,Welcome! Press the space bar to begin.,32,NA,NA,NA,NA,NA,NA,NA,NA,NA,NA,NA,NA,NA,NA,NA,NA,NA,NA,NA,sub124
audio-keyboard-response,2,5129,0.0-2.0,FALSE,FALSE,TRUE,TRUE,"
","
","
","
","
",3210,audio/beep_loop.wav,32,NA,NA,NA,NA,NA,NA,NA,NA,NA,NA,NA,NA,NA,NA,NA,NA,NA,NA,NA,sub124
audio-button-response,3,9951,0.0-3.0,FALSE,FALSE,TRUE,TRUE,"
","
","
","
","
",NaN,audio/fish.mp3,NA,1,NA,NA,NA,NA,NA,NA,NA,NA,NA,NA,NA,NA,NA,NA,NA,NA,NA,NA,sub124
audio-button-response,4,13804,0.0-4.0,FALSE,FALSE,TRUE,TRUE,"""event"",""trial"",""time""
""fullscreenenter"",""5"",""19449""
","
","
","""event"",""trial"",""time""
""fullscreenenter"",""5"",""19449""
","
",NaN,audio/tiger.mp3,NA,4,NA,NA,NA,NA,NA,NA,NA,NA,NA,NA,NA,NA,NA,NA,NA,NA,NA,NA,sub124
fullscreen,5,20427,0.0-5.0,FALSE,FALSE,TRUE,TRUE,"""event"",""trial"",""time""
""fullscreenenter"",""5"",""19449""
","
","
","""event"",""trial"",""time""
""fullscreenenter"",""5"",""19449""
","
",NA,NA,NA,NA,TRUE,NA,NA,NA,NA,NA,NA,NA,NA,NA,NA,NA,NA,NA,NA,NA,NA,NA,sub124
d3-instructions,6,33634,0.0-6.0,FALSE,FALSE,TRUE,TRUE,"""event"",""trial"",""time""
""fullscreenenter"",""5"",""19449""
","
","
","""event"",""trial"",""time""
""fullscreenenter"",""5"",""19449""
","
",NA,NA,NA,NA,NA,NA,NA,NA,NA,NA,NA,NA,NA,NA,NA,NA,NA,NA,NA,NA,NA,NA,sub124
d3-instructions,7,43390,0.0-7.0,FALSE,FALSE,TRUE,TRUE,"""event"",""trial"",""time""
""fullscreenenter"",""5"",""19449""
","
","
","""event"",""trial"",""time""
""fullscreenenter"",""5"",""19449""
","
",NA,NA,NA,NA,NA,NA,NA,NA,NA,NA,NA,NA,NA,NA,NA,NA,NA,NA,NA,NA,NA,NA,sub124
d3-instructions,8,50198,0.0-8.0,FALSE,FALSE,TRUE,TRUE,"""event"",""trial"",""time""
""fullscreenenter"",""5"",""19449""
","
","
","""event"",""trial"",""time""
""fullscreenenter"",""5"",""19449""
","
",NA,NA,NA,NA,NA,NA,NA,NA,NA,NA,NA,NA,NA,NA,NA,NA,NA,NA,NA,NA,NA,NA,sub124
d3-instructions,9,62387,0.0-9.0,FALSE,FALSE,TRUE,TRUE,"""event"",""trial"",""time""
""fullscreenenter"",""5"",""19449""
","
","
","""event"",""trial"",""time""
""fullscreenenter"",""5"",""19449""
","
",NA,NA,NA,NA,NA,NA,NA,NA,NA,NA,NA,NA,NA,NA,NA,NA,NA,NA,NA,NA,NA,NA,sub124
d3-instructions,10,82358,0.0-10.0,FALSE,FALSE,TRUE,TRUE,"""event"",""trial"",""time""
""fullscreenenter"",""5"",""19449""
","
","
","""event"",""trial"",""time""
""fullscreenenter"",""5"",""19449""
","
",NA,NA,NA,NA,NA,NA,NA,NA,NA,NA,NA,NA,NA,NA,NA,NA,NA,NA,NA,NA,NA,NA,sub124
d3-animate-choice,11,87764,0.0-11.0,FALSE,FALSE,TRUE,TRUE,"""event"",""trial"",""time""
""fullscreenenter"",""5"",""19449""
","
","
","""event"",""trial"",""time""
""fullscreenenter"",""5"",""19449""
","
",991.1899999715388,NA,97,NA,NA,3000,1,"1969.139999942854,3399.1600000299513,4513.259999919683,5031.084999907762",96494949,images/tutgreenplanet.jpg,images/tutalien1,images/tutalien2,null,images/tutalien2,NA,NA,practice,null,NA,NA,NA,NA,sub124
d3-animate-choice,12,89823,0.0-12.0,FALSE,FALSE,TRUE,TRUE,"""event"",""trial"",""time""
""fullscreenenter"",""5"",""19449""
","
","
","""event"",""trial"",""time""
""fullscreenenter"",""5"",""19449""
","
",55.545000126585364,NA,48,NA,NA,3000,1,"617.5049999728799,1075.5000000353903,1721.4750000275671",484948,images/tutgreenplanet.jpg,images/tutalien1,images/tutalien2,null,images/tutalien1,NA,NA,practice,null,NA,NA,NA,NA,sub124
d3-animate-choice,13,91892,0.0-13.0,FALSE,FALSE,TRUE,TRUE,"""event"",""trial"",""time""
""fullscreenenter"",""5"",""19449""
","
","
","""event"",""trial"",""time""
""fullscreenenter"",""5"",""19449""
","
",64.64500003494322,NA,49,NA,NA,3000,1,"686.710000038147,750.4950000438839,1206.7200001329184",484948,images/tutgreenplanet.jpg,images/tutalien1,images/tutalien2,null,images/tutalien2,NA,NA,practice,null,NA,NA,NA,NA,sub124
d3-animate-choice,14,94027,0.0-14.0,FALSE,FALSE,TRUE,TRUE,"""event"",""trial"",""time""
""fullscreenenter"",""5"",""19449""
","
","
","""event"",""trial"",""time""
""fullscreenenter"",""5"",""19449""
","
",131.59499992616475,NA,48,NA,NA,3000,1,1752.905000001192,49,images/tutgreenplanet.jpg,images/tutalien1,images/tutalien2,null,images/tutalien1,NA,NA,practice,null,NA,NA,NA,NA,sub124
d3-instructions,15,101610,0.0-15.0,FALSE,FALSE,TRUE,TRUE,"""event"",""trial"",""time""
""fullscreenenter"",""5"",""19449""
","
","
","""event"",""trial"",""time""
""fullscreenenter"",""5"",""19449""
","
",NA,NA,NA,NA,NA,NA,NA,NA,NA,NA,NA,NA,NA,NA,NA,NA,NA,NA,NA,NA,NA,NA,sub124
d3-instructions,16,109534,0.0-16.0,FALSE,FALSE,TRUE,TRUE,"""event"",""trial"",""time""
""fullscreenenter"",""5"",""19449""
","
","
","""event"",""trial"",""time""
""fullscreenenter"",""5"",""19449""
","
",NA,NA,NA,NA,NA,NA,NA,NA,NA,NA,NA,NA,NA,NA,NA,NA,NA,NA,NA,NA,NA,NA,sub124
d3-instructions,17,122189,0.0-17.0,FALSE,FALSE,TRUE,TRUE,"""event"",""trial"",""time""
""fullscreenenter"",""5"",""19449""
","
","
","""event"",""trial"",""time""
""fullscreenenter"",""5"",""19449""
","
",NA,NA,NA,NA,NA,NA,NA,NA,NA,NA,NA,NA,NA,NA,NA,NA,NA,NA,NA,NA,NA,NA,sub124
d3-instructions,18,135296,0.0-18.0,FALSE,FALSE,TRUE,TRUE,"""event"",""trial"",""time""
""fullscreenenter"",""5"",""19449""
","
","
","""event"",""trial"",""time""
""fullscreenenter"",""5"",""19449""
","
",NA,NA,NA,NA,NA,NA,NA,NA,NA,NA,NA,NA,NA,NA,NA,NA,NA,NA,NA,NA,NA,NA,sub124
d3-instructions,19,149274,0.0-19.0,FALSE,FALSE,TRUE,TRUE,"""event"",""trial"",""time""
""fullscreenenter"",""5"",""19449""
","
","
","""event"",""trial"",""time""
""fullscreenenter"",""5"",""19449""
","
",NA,NA,NA,NA,NA,NA,NA,NA,NA,NA,NA,NA,NA,NA,NA,NA,NA,NA,NA,NA,NA,NA,sub124
d3-animate-choice,20,153527,0.0-20.0,FALSE,FALSE,TRUE,TRUE,"""event"",""trial"",""time""
""fullscreenenter"",""5"",""19449""
","
","
","""event"",""trial"",""time""
""fullscreenenter"",""5"",""19449""
","
",769.6999998297542,NA,97,NA,NA,3000,1,2249.6399998199195,49,images/tutyellowplanet.jpg,null,images/tutalien3,null,images/tutalien3,images/t.png,NA,practice,null,NA,NA,NA,NA,sub124
d3-animate-choice,21,155929,0.0-21.0,FALSE,FALSE,TRUE,TRUE,"""event"",""trial"",""time""
""fullscreenenter"",""5"",""19449""
","
","
","""event"",""trial"",""time""
""fullscreenenter"",""5"",""19449""
","
",399.8199999332428,NA,49,NA,NA,3000,1,NA,NA,images/tutyellowplanet.jpg,null,images/tutalien3,null,images/tutalien3,images/t.png,NA,practice,null,NA,NA,NA,NA,sub124
d3-animate-choice,22,158242,0.0-22.0,FALSE,FALSE,TRUE,TRUE,"""event"",""trial"",""time""
""fullscreenenter"",""5"",""19449""
","
","
","""event"",""trial"",""time""
""fullscreenenter"",""5"",""19449""
","
",309.4349999446422,NA,49,NA,NA,3000,1,NA,NA,images/tutyellowplanet.jpg,null,images/tutalien3,null,images/tutalien3,images/t.png,NA,practice,null,NA,NA,NA,NA,sub124
d3-animate-choice,23,160567,0.0-23.0,FALSE,FALSE,TRUE,TRUE,"""event"",""trial"",""time""
""fullscreenenter"",""5"",""19449""
","
","
","""event"",""trial"",""time""
""fullscreenenter"",""5"",""19449""
","
",320.86999993771315,NA,49,NA,NA,3000,1,NA,NA,images/tutyellowplanet.jpg,null,images/tutalien3,null,images/tutalien3,images/t.png,NA,practice,null,NA,NA,NA,NA,sub124
d3-animate-choice,24,162879,0.0-24.0,FALSE,FALSE,TRUE,TRUE,"""event"",""trial"",""time""
""fullscreenenter"",""5"",""19449""
","
","
","""event"",""trial"",""time""
""fullscreenenter"",""5"",""19449""
","
",308.8050000369549,NA,49,NA,NA,3000,1,NA,NA,images/tutyellowplanet.jpg,null,images/tutalien3,null,images/tutalien3,images/t.png,NA,practice,null,NA,NA,NA,NA,sub124
d3-animate-choice,25,165202,0.0-25.0,FALSE,FALSE,TRUE,TRUE,"""event"",""trial"",""time""
""fullscreenenter"",""5"",""19449""
","
","
","""event"",""trial"",""time""
""fullscreenenter"",""5"",""19449""
","
",320.1299998909235,NA,49,NA,NA,3000,1,NA,NA,images/tutyellowplanet.jpg,null,images/tutalien3,null,images/tutalien3,images/nothing.png,NA,practice,null,NA,NA,NA,NA,sub124
d3-animate-choice,26,167641,0.0-26.0,FALSE,FALSE,TRUE,TRUE,"""event"",""trial"",""time""
""fullscreenenter"",""5"",""19449""
","
","
","""event"",""trial"",""time""
""fullscreenenter"",""5"",""19449""
","
",436.9399999268353,NA,49,NA,NA,3000,1,NA,NA,images/tutyellowplanet.jpg,null,images/tutalien3,null,images/tutalien3,images/t.png,NA,practice,null,NA,NA,NA,NA,sub124
d3-animate-choice,27,170030,0.0-27.0,FALSE,FALSE,TRUE,TRUE,"""event"",""trial"",""time""
""fullscreenenter"",""5"",""19449""
","
","
","""event"",""trial"",""time""
""fullscreenenter"",""5"",""19449""
","
",385.2199998218566,NA,49,NA,NA,3000,1,NA,NA,images/tutyellowplanet.jpg,null,images/tutalien3,null,images/tutalien3,images/nothing.png,NA,practice,null,NA,NA,NA,NA,sub124
d3-animate-choice,28,172452,0.0-28.0,FALSE,FALSE,TRUE,TRUE,"""event"",""trial"",""time""
""fullscreenenter"",""5"",""19449""
","
","
","""event"",""trial"",""time""
""fullscreenenter"",""5"",""19449""
","
",418.2749998290092,NA,49,NA,NA,3000,1,NA,NA,images/tutyellowplanet.jpg,null,images/tutalien3,null,images/tutalien3,images/t.png,NA,practice,null,NA,NA,NA,NA,sub124
d3-animate-choice,29,174853,0.0-29.0,FALSE,FALSE,TRUE,TRUE,"""event"",""trial"",""time""
""fullscreenenter"",""5"",""19449""
","
","
","""event"",""trial"",""time""
""fullscreenenter"",""5"",""19449""
","
",398.5950001515448,NA,49,NA,NA,3000,1,NA,NA,images/tutyellowplanet.jpg,null,images/tutalien3,null,images/tutalien3,images/t.png,NA,practice,null,NA,NA,NA,NA,sub124
d3-instructions,30,181858,0.0-30.0,FALSE,FALSE,TRUE,TRUE,"""event"",""trial"",""time""
""fullscreenenter"",""5"",""19449""
","
","
","""event"",""trial"",""time""
""fullscreenenter"",""5"",""19449""
","
",NA,NA,NA,NA,NA,NA,NA,NA,NA,NA,NA,NA,NA,NA,NA,NA,NA,NA,NA,NA,NA,NA,sub124
d3-instructions,31,191623,0.0-31.0,FALSE,FALSE,TRUE,TRUE,"""event"",""trial"",""time""
""fullscreenenter"",""5"",""19449""
","
","
","""event"",""trial"",""time""
""fullscreenenter"",""5"",""19449""
","
",NA,NA,NA,NA,NA,NA,NA,NA,NA,NA,NA,NA,NA,NA,NA,NA,NA,NA,NA,NA,NA,NA,sub124
d3-instructions,32,199631,0.0-32.0,FALSE,FALSE,TRUE,TRUE,"""event"",""trial"",""time""
""fullscreenenter"",""5"",""19449""
","
","
","""event"",""trial"",""time""
""fullscreenenter"",""5"",""19449""
","
",NA,NA,NA,NA,NA,NA,NA,NA,NA,NA,NA,NA,NA,NA,NA,NA,NA,NA,NA,NA,NA,NA,sub124
d3-instructions,33,211286,0.0-33.0,FALSE,FALSE,TRUE,TRUE,"""event"",""trial"",""time""
""fullscreenenter"",""5"",""19449""
","
","
","""event"",""trial"",""time""
""fullscreenenter"",""5"",""19449""
","
",NA,NA,NA,NA,NA,NA,NA,NA,NA,NA,NA,NA,NA,NA,NA,NA,NA,NA,NA,NA,NA,NA,sub124
d3-animate-choice,34,216348,0.0-34.0,FALSE,FALSE,TRUE,TRUE,"""event"",""trial"",""time""
""fullscreenenter"",""5"",""19449""
","
","
","""event"",""trial"",""time""
""fullscreenenter"",""5"",""19449""
","
",3057.7150001190603,NA,48,NA,NA,3000,1,NA,NA,images/tutgreenplanet.jpg,images/tutalien1,images/tutalien2,null,images/tutalien1,images/nothing.png,NA,practice,null,NA,NA,NA,NA,sub124
d3-animate-choice,35,219599,0.0-35.0,FALSE,FALSE,TRUE,TRUE,"""event"",""trial"",""time""
""fullscreenenter"",""5"",""19449""
","
","
","""event"",""trial"",""time""
""fullscreenenter"",""5"",""19449""
","
",1247.969999909401,NA,48,NA,NA,3000,1,NA,NA,images/tutgreenplanet.jpg,images/tutalien1,images/tutalien2,null,images/tutalien1,images/nothing.png,NA,practice,null,NA,NA,NA,NA,sub124
d3-animate-choice,36,222775,0.0-36.0,FALSE,FALSE,TRUE,TRUE,"""event"",""trial"",""time""
""fullscreenenter"",""5"",""19449""
","
","
","""event"",""trial"",""time""
""fullscreenenter"",""5"",""19449""
","
",1171.3349998462945,NA,49,NA,NA,3000,1,NA,NA,images/tutgreenplanet.jpg,images/tutalien1,images/tutalien2,null,images/tutalien2,images/t.png,NA,practice,null,NA,NA,NA,NA,sub124
d3-animate-choice,37,226293,0.0-37.0,FALSE,FALSE,TRUE,TRUE,"""event"",""trial"",""time""
""fullscreenenter"",""5"",""19449""
","
","
","""event"",""trial"",""time""
""fullscreenenter"",""5"",""19449""
","
",1515.2099998667836,NA,49,NA,NA,3000,1,NA,NA,images/tutgreenplanet.jpg,images/tutalien1,images/tutalien2,null,images/tutalien2,images/t.png,NA,practice,null,NA,NA,NA,NA,sub124
d3-animate-choice,38,229017,0.0-38.0,FALSE,FALSE,TRUE,TRUE,"""event"",""trial"",""time""
""fullscreenenter"",""5"",""19449""
","
","
","""event"",""trial"",""time""
""fullscreenenter"",""5"",""19449""
","
",720.2000000979751,NA,49,NA,NA,3000,1,NA,NA,images/tutgreenplanet.jpg,images/tutalien1,images/tutalien2,null,images/tutalien2,images/t.png,NA,practice,null,NA,NA,NA,NA,sub124
d3-animate-choice,39,231447,0.0-39.0,FALSE,FALSE,TRUE,TRUE,"""event"",""trial"",""time""
""fullscreenenter"",""5"",""19449""
","
","
","""event"",""trial"",""time""
""fullscreenenter"",""5"",""19449""
","
",427.06000013276935,NA,49,NA,NA,3000,1,NA,NA,images/tutgreenplanet.jpg,images/tutalien1,images/tutalien2,null,images/tutalien2,images/t.png,NA,practice,null,NA,NA,NA,NA,sub124
d3-animate-choice,40,233813,0.0-40.0,FALSE,FALSE,TRUE,TRUE,"""event"",""trial"",""time""
""fullscreenenter"",""5"",""19449""
","
","
","""event"",""trial"",""time""
""fullscreenenter"",""5"",""19449""
","
",361.8000000715256,NA,49,NA,NA,3000,1,NA,NA,images/tutgreenplanet.jpg,images/tutalien1,images/tutalien2,null,images/tutalien2,images/t.png,NA,practice,null,NA,NA,NA,NA,sub124
d3-animate-choice,41,236152,0.0-41.0,FALSE,FALSE,TRUE,TRUE,"""event"",""trial"",""time""
""fullscreenenter"",""5"",""19449""
","
","
","""event"",""trial"",""time""
""fullscreenenter"",""5"",""19449""
","
",336.11999987624586,NA,49,NA,NA,3000,1,NA,NA,images/tutgreenplanet.jpg,images/tutalien1,images/tutalien2,null,images/tutalien2,images/t.png,NA,practice,null,NA,NA,NA,NA,sub124
d3-animate-choice,42,238514,0.0-42.0,FALSE,FALSE,TRUE,TRUE,"""event"",""trial"",""time""
""fullscreenenter"",""5"",""19449""
","
","
","""event"",""trial"",""time""
""fullscreenenter"",""5"",""19449""
","
",358.96000009961426,NA,49,NA,NA,3000,1,NA,NA,images/tutgreenplanet.jpg,images/tutalien1,images/tutalien2,null,images/tutalien2,images/t.png,NA,practice,null,NA,NA,NA,NA,sub124
d3-animate-choice,43,240905,0.0-43.0,FALSE,FALSE,TRUE,TRUE,"""event"",""trial"",""time""
""fullscreenenter"",""5"",""19449""
","
","
","""event"",""trial"",""time""
""fullscreenenter"",""5"",""19449""
","
",386.37500000186265,NA,49,NA,NA,3000,1,NA,NA,images/tutgreenplanet.jpg,images/tutalien1,images/tutalien2,null,images/tutalien2,images/t.png,NA,practice,null,NA,NA,NA,NA,sub124
d3-instructions,44,253953,0.0-44.0,FALSE,FALSE,TRUE,TRUE,"""event"",""trial"",""time""
""fullscreenenter"",""5"",""19449""
","
","
","""event"",""trial"",""time""
""fullscreenenter"",""5"",""19449""
","
",NA,NA,NA,NA,NA,NA,NA,NA,NA,NA,NA,NA,NA,NA,NA,NA,NA,NA,NA,NA,NA,NA,sub124
d3-instructions,45,259801,0.0-45.0,FALSE,FALSE,TRUE,TRUE,"""event"",""trial"",""time""
""fullscreenenter"",""5"",""19449""
","
","
","""event"",""trial"",""time""
""fullscreenenter"",""5"",""19449""
","
",NA,NA,NA,NA,NA,NA,NA,NA,NA,NA,NA,NA,NA,NA,NA,NA,NA,NA,NA,NA,NA,NA,sub124
d3-instructions,46,264064,0.0-46.0,FALSE,FALSE,TRUE,TRUE,"""event"",""trial"",""time""
""fullscreenenter"",""5"",""19449""
","
","
","""event"",""trial"",""time""
""fullscreenenter"",""5"",""19449""
","
",NA,NA,NA,NA,NA,NA,NA,NA,NA,NA,NA,NA,NA,NA,NA,NA,NA,NA,NA,NA,NA,NA,sub124
d3-instructions,47,280769,0.0-47.0,FALSE,FALSE,TRUE,TRUE,"""event"",""trial"",""time""
""fullscreenenter"",""5"",""19449""
","
","
","""event"",""trial"",""time""
""fullscreenenter"",""5"",""19449""
","
",NA,NA,NA,NA,NA,NA,NA,NA,NA,NA,NA,NA,NA,NA,NA,NA,NA,NA,NA,NA,NA,NA,sub124
d3-instructions,48,287636,0.0-48.0,FALSE,FALSE,TRUE,TRUE,"""event"",""trial"",""time""
""fullscreenenter"",""5"",""19449""
","
","
","""event"",""trial"",""time""
""fullscreenenter"",""5"",""19449""
","
",NA,NA,NA,NA,NA,NA,NA,NA,NA,NA,NA,NA,NA,NA,NA,NA,NA,NA,NA,NA,NA,NA,sub124
d3-instructions,49,298392,0.0-49.0,FALSE,FALSE,TRUE,TRUE,"""event"",""trial"",""time""
""fullscreenenter"",""5"",""19449""
","
","
","""event"",""trial"",""time""
""fullscreenenter"",""5"",""19449""
","
",NA,NA,NA,NA,NA,NA,NA,NA,NA,NA,NA,NA,NA,NA,NA,NA,NA,NA,NA,NA,NA,NA,sub124
d3-instructions,50,307250,0.0-50.0,FALSE,FALSE,TRUE,TRUE,"""event"",""trial"",""time""
""fullscreenenter"",""5"",""19449""
","
","
","""event"",""trial"",""time""
""fullscreenenter"",""5"",""19449""
","
",NA,NA,NA,NA,NA,NA,NA,NA,NA,NA,NA,NA,NA,NA,NA,NA,NA,NA,NA,NA,NA,NA,sub124
d3-instructions,51,310860,0.0-51.0,FALSE,FALSE,TRUE,TRUE,"""event"",""trial"",""time""
""fullscreenenter"",""5"",""19449""
","
","
","""event"",""trial"",""time""
""fullscreenenter"",""5"",""19449""
","
",NA,NA,NA,NA,NA,NA,NA,NA,NA,NA,NA,NA,NA,NA,NA,NA,NA,NA,NA,NA,NA,NA,sub124
d3-instructions,52,313820,0.0-52.0,FALSE,FALSE,TRUE,TRUE,"""event"",""trial"",""time""
""fullscreenenter"",""5"",""19449""
","
","
","""event"",""trial"",""time""
""fullscreenenter"",""5"",""19449""
","
",NA,NA,NA,NA,NA,NA,NA,NA,NA,NA,NA,NA,NA,NA,NA,NA,NA,NA,NA,NA,NA,NA,sub124
d3-instructions,53,326124,0.0-53.0,FALSE,FALSE,TRUE,TRUE,"""event"",""trial"",""time""
""fullscreenenter"",""5"",""19449""
","
","
","""event"",""trial"",""time""
""fullscreenenter"",""5"",""19449""
","
",NA,NA,NA,NA,NA,NA,NA,NA,NA,NA,NA,NA,NA,NA,NA,NA,NA,NA,NA,NA,NA,NA,sub124
d3-instructions,54,338569,0.0-54.0,FALSE,FALSE,TRUE,TRUE,"""event"",""trial"",""time""
""fullscreenenter"",""5"",""19449""
","
","
","""event"",""trial"",""time""
""fullscreenenter"",""5"",""19449""
","
",NA,NA,NA,NA,NA,NA,NA,NA,NA,NA,NA,NA,NA,NA,NA,NA,NA,NA,NA,NA,NA,NA,sub124
d3-instructions,55,348659,0.0-55.0,FALSE,FALSE,TRUE,TRUE,"""event"",""trial"",""time""
""fullscreenenter"",""5"",""19449""
","
","
","""event"",""trial"",""time""
""fullscreenenter"",""5"",""19449""
","
",NA,NA,NA,NA,NA,NA,NA,NA,NA,NA,NA,NA,NA,NA,NA,NA,NA,NA,NA,NA,NA,NA,sub124
d3-instructions,56,356171,0.0-56.0,FALSE,FALSE,TRUE,TRUE,"""event"",""trial"",""time""
""fullscreenenter"",""5"",""19449""
","
","
","""event"",""trial"",""time""
""fullscreenenter"",""5"",""19449""
","
",NA,NA,NA,NA,NA,NA,NA,NA,NA,NA,NA,NA,NA,NA,NA,NA,NA,NA,NA,NA,NA,NA,sub124
d3-instructions,57,366303,0.0-57.0,FALSE,FALSE,TRUE,TRUE,"""event"",""trial"",""time""
""fullscreenenter"",""5"",""19449""
","
","
","""event"",""trial"",""time""
""fullscreenenter"",""5"",""19449""
","
",NA,NA,NA,NA,NA,NA,NA,NA,NA,NA,NA,NA,NA,NA,NA,NA,NA,NA,NA,NA,NA,NA,sub124
d3-instructions,58,377499,0.0-58.0,FALSE,FALSE,TRUE,TRUE,"""event"",""trial"",""time""
""fullscreenenter"",""5"",""19449""
","
","
","""event"",""trial"",""time""
""fullscreenenter"",""5"",""19449""
","
",NA,NA,NA,NA,NA,NA,NA,NA,NA,NA,NA,NA,NA,NA,NA,NA,NA,NA,NA,NA,NA,NA,sub124
d3-instructions,59,383288,0.0-59.0,FALSE,FALSE,TRUE,TRUE,"""event"",""trial"",""time""
""fullscreenenter"",""5"",""19449""
","
","
","""event"",""trial"",""time""
""fullscreenenter"",""5"",""19449""
","
",NA,NA,NA,NA,NA,NA,NA,NA,NA,NA,NA,NA,NA,NA,NA,NA,NA,NA,NA,NA,NA,NA,sub124
d3-instructions,60,390609,0.0-60.0,FALSE,FALSE,TRUE,TRUE,"""event"",""trial"",""time""
""fullscreenenter"",""5"",""19449""
","
","
","""event"",""trial"",""time""
""fullscreenenter"",""5"",""19449""
","
",NA,NA,NA,NA,NA,NA,NA,NA,NA,NA,NA,NA,NA,NA,NA,NA,NA,NA,NA,NA,NA,NA,sub124
d3-animate-choice,61,394617,0.0-61.0-0.0,FALSE,FALSE,TRUE,TRUE,"""event"",""trial"",""time""
""fullscreenenter"",""5"",""19449""
","
","
","""event"",""trial"",""time""
""fullscreenenter"",""5"",""19449""
","
",null,NA,null,NA,NA,3000,0,NA,NA,images/earth.jpg,images/tutrocket2,images/tutrocket1,null,NA,NA,1,practice,null,NA,NA,NA,NA,sub124
d3-animate-choice,62,395622,0.0-61.0-1.0,FALSE,FALSE,TRUE,TRUE,"""event"",""trial"",""time""
""fullscreenenter"",""5"",""19449""
","
","
","""event"",""trial"",""time""
""fullscreenenter"",""5"",""19449""
","
",null,NA,null,NA,NA,0,0,NA,NA,images/earth.jpg,images/tutrocket2,images/tutrocket1,null,NA,NA,2,practice,null,0,2020-06-29T22:45:22Z,NA,NA,sub124
two-step-fixation,63,396628,0.0-61.0-2.0,FALSE,FALSE,TRUE,TRUE,"""event"",""trial"",""time""
""fullscreenenter"",""5"",""19449""
","
","
","""event"",""trial"",""time""
""fullscreenenter"",""5"",""19449""
","
",NA,images/earth.jpg,NA,NA,NA,NA,NA,NA,NA,NA,NA,NA,NA,NA,NA,fixation,NA,NA,NA,NA,NA,NA,sub124
d3-animate-choice,64,399070,0.0-61.0-0.1,FALSE,FALSE,TRUE,TRUE,"""event"",""trial"",""time""
""fullscreenenter"",""5"",""19449""
","
","
","""event"",""trial"",""time""
""fullscreenenter"",""5"",""19449""
","
",439.1250000335276,NA,49,NA,NA,3000,1,NA,NA,images/earth.jpg,images/tutrocket2,images/tutrocket1,null,images/tutrocket1,NA,1,practice,null,NA,NA,1,NA,sub124
d3-animate-choice,65,402326,0.0-61.0-1.1,FALSE,FALSE,TRUE,TRUE,"""event"",""trial"",""time""
""fullscreenenter"",""5"",""19449""
","
","
","""event"",""trial"",""time""
""fullscreenenter"",""5"",""19449""
","
",1251.240000128746,NA,49,NA,NA,3000,1,NA,NA,images/tutgreenplanet.jpg,images/tutalien2,images/tutalien1,images/tutrocket1,images/tutalien1,images/nothing.png,2,practice,false,0,2020-06-29T22:45:29Z,1,rare,sub124
two-step-fixation,66,403329,0.0-61.0-2.1,FALSE,FALSE,TRUE,TRUE,"""event"",""trial"",""time""
""fullscreenenter"",""5"",""19449""
","
","
","""event"",""trial"",""time""
""fullscreenenter"",""5"",""19449""
","
",NA,images/earth.jpg,NA,NA,NA,NA,NA,NA,NA,NA,NA,NA,NA,NA,NA,fixation,NA,NA,NA,NA,NA,NA,sub124
d3-animate-choice,67,406023,0.0-61.0-0.2,FALSE,FALSE,TRUE,TRUE,"""event"",""trial"",""time""
""fullscreenenter"",""5"",""19449""
","
","
","""event"",""trial"",""time""
""fullscreenenter"",""5"",""19449""
","
",689.6049999631941,NA,48,NA,NA,3000,1,NA,NA,images/earth.jpg,images/tutrocket2,images/tutrocket1,null,images/tutrocket2,NA,1,practice,null,NA,NA,2,NA,sub124
d3-animate-choice,68,408569,0.0-61.0-1.2,FALSE,FALSE,TRUE,TRUE,"""event"",""trial"",""time""
""fullscreenenter"",""5"",""19449""
","
","
","""event"",""trial"",""time""
""fullscreenenter"",""5"",""19449""
","
",542.759999865666,NA,49,NA,NA,3000,1,NA,NA,images/tutyellowplanet.jpg,images/tutalien4,images/tutalien3,images/tutrocket2,images/tutalien3,images/t.png,2,practice,false,1,2020-06-29T22:45:35Z,1,rare,sub124
two-step-fixation,69,409572,0.0-61.0-2.2,FALSE,FALSE,TRUE,TRUE,"""event"",""trial"",""time""
""fullscreenenter"",""5"",""19449""
","
","
","""event"",""trial"",""time""
""fullscreenenter"",""5"",""19449""
","
",NA,images/earth.jpg,NA,NA,NA,NA,NA,NA,NA,NA,NA,NA,NA,NA,NA,fixation,NA,NA,NA,NA,NA,NA,sub124
d3-animate-choice,70,412047,0.0-61.0-0.3,FALSE,FALSE,TRUE,TRUE,"""event"",""trial"",""time""
""fullscreenenter"",""5"",""19449""
","
","
","""event"",""trial"",""time""
""fullscreenenter"",""5"",""19449""
","
",472.1150000113994,NA,48,NA,NA,3000,1,NA,NA,images/earth.jpg,images/tutrocket2,images/tutrocket1,null,images/tutrocket2,NA,1,practice,null,NA,NA,2,NA,sub124
d3-animate-choice,71,414833,0.0-61.0-1.3,FALSE,FALSE,TRUE,TRUE,"""event"",""trial"",""time""
""fullscreenenter"",""5"",""19449""
","
","
","""event"",""trial"",""time""
""fullscreenenter"",""5"",""19449""
","
",781.1849999707192,NA,48,NA,NA,3000,1,NA,NA,images/tutgreenplanet.jpg,images/tutalien2,images/tutalien1,images/tutrocket2,images/tutalien2,images/nothing.png,2,practice,true,0,2020-06-29T22:45:41Z,2,common,sub124
two-step-fixation,72,415836,0.0-61.0-2.3,FALSE,FALSE,TRUE,TRUE,"""event"",""trial"",""time""
""fullscreenenter"",""5"",""19449""
","
","
","""event"",""trial"",""time""
""fullscreenenter"",""5"",""19449""
","
",NA,images/earth.jpg,NA,NA,NA,NA,NA,NA,NA,NA,NA,NA,NA,NA,NA,fixation,NA,NA,NA,NA,NA,NA,sub124
d3-animate-choice,73,418313,0.0-61.0-0.4,FALSE,FALSE,TRUE,TRUE,"""event"",""trial"",""time""
""fullscreenenter"",""5"",""19449""
","
","
","""event"",""trial"",""time""
""fullscreenenter"",""5"",""19449""
","
",473.96499989554286,NA,48,NA,NA,3000,1,NA,NA,images/earth.jpg,images/tutrocket2,images/tutrocket1,null,images/tutrocket2,NA,1,practice,null,NA,NA,2,NA,sub124
d3-animate-choice,74,420957,0.0-61.0-1.4,FALSE,FALSE,TRUE,TRUE,"""event"",""trial"",""time""
""fullscreenenter"",""5"",""19449""
","
","
","""event"",""trial"",""time""
""fullscreenenter"",""5"",""19449""
","
",640.2800001669675,NA,49,NA,NA,3000,1,NA,NA,images/tutyellowplanet.jpg,images/tutalien4,images/tutalien3,images/tutrocket2,images/tutalien3,images/nothing.png,2,practice,false,0,2020-06-29T22:45:47Z,1,rare,sub124
two-step-fixation,75,421960,0.0-61.0-2.4,FALSE,FALSE,TRUE,TRUE,"""event"",""trial"",""time""
""fullscreenenter"",""5"",""19449""
","
","
","""event"",""trial"",""time""
""fullscreenenter"",""5"",""19449""
","
",NA,images/earth.jpg,NA,NA,NA,NA,NA,NA,NA,NA,NA,NA,NA,NA,NA,fixation,NA,NA,NA,NA,NA,NA,sub124
d3-animate-choice,76,424534,0.0-61.0-0.5,FALSE,FALSE,TRUE,TRUE,"""event"",""trial"",""time""
""fullscreenenter"",""5"",""19449""
","
","
","""event"",""trial"",""time""
""fullscreenenter"",""5"",""19449""
","
",570.1299998909235,NA,49,NA,NA,3000,1,NA,NA,images/earth.jpg,images/tutrocket2,images/tutrocket1,null,images/tutrocket1,NA,1,practice,null,NA,NA,1,NA,sub124
d3-animate-choice,77,427070,0.0-61.0-1.5,FALSE,FALSE,TRUE,TRUE,"""event"",""trial"",""time""
""fullscreenenter"",""5"",""19449""
","
","
","""event"",""trial"",""time""
""fullscreenenter"",""5"",""19449""
","
",531.6149999853224,NA,48,NA,NA,3000,1,NA,NA,images/tutyellowplanet.jpg,images/tutalien4,images/tutalien3,images/tutrocket1,images/tutalien4,images/nothing.png,2,practice,true,0,2020-06-29T22:45:53Z,2,common,sub124
two-step-fixation,78,428073,0.0-61.0-2.5,FALSE,FALSE,TRUE,TRUE,"""event"",""trial"",""time""
""fullscreenenter"",""5"",""19449""
","
","
","""event"",""trial"",""time""
""fullscreenenter"",""5"",""19449""
","
",NA,images/earth.jpg,NA,NA,NA,NA,NA,NA,NA,NA,NA,NA,NA,NA,NA,fixation,NA,NA,NA,NA,NA,NA,sub124
d3-animate-choice,79,430734,0.0-61.0-0.6,FALSE,FALSE,TRUE,TRUE,"""event"",""trial"",""time""
""fullscreenenter"",""5"",""19449""
","
","
","""event"",""trial"",""time""
""fullscreenenter"",""5"",""19449""
","
",657.6300000306219,NA,49,NA,NA,3000,1,NA,NA,images/earth.jpg,images/tutrocket2,images/tutrocket1,null,images/tutrocket1,NA,1,practice,null,NA,NA,1,NA,sub124
d3-animate-choice,80,434074,0.0-61.0-1.6,FALSE,FALSE,TRUE,TRUE,"""event"",""trial"",""time""
""fullscreenenter"",""5"",""19449""
","
","
","""event"",""trial"",""time""
""fullscreenenter"",""5"",""19449""
","
",1336.8599999230355,NA,49,NA,NA,3000,1,NA,NA,images/tutgreenplanet.jpg,images/tutalien2,images/tutalien1,images/tutrocket1,images/tutalien1,images/nothing.png,2,practice,false,0,2020-06-29T22:46:00Z,1,rare,sub124
two-step-fixation,81,435079,0.0-61.0-2.6,FALSE,FALSE,TRUE,TRUE,"""event"",""trial"",""time""
""fullscreenenter"",""5"",""19449""
","
","
","""event"",""trial"",""time""
""fullscreenenter"",""5"",""19449""
","
",NA,images/earth.jpg,NA,NA,NA,NA,NA,NA,NA,NA,NA,NA,NA,NA,NA,fixation,NA,NA,NA,NA,NA,NA,sub124
d3-animate-choice,82,438129,0.0-61.0-0.7,FALSE,FALSE,TRUE,TRUE,"""event"",""trial"",""time""
""fullscreenenter"",""5"",""19449""
","
","
","""event"",""trial"",""time""
""fullscreenenter"",""5"",""19449""
","
",1046.875,NA,49,NA,NA,3000,1,NA,NA,images/earth.jpg,images/tutrocket2,images/tutrocket1,null,images/tutrocket1,NA,1,practice,null,NA,NA,1,NA,sub124
d3-animate-choice,83,441399,0.0-61.0-1.7,FALSE,FALSE,TRUE,TRUE,"""event"",""trial"",""time""
""fullscreenenter"",""5"",""19449""
","
","
","""event"",""trial"",""time""
""fullscreenenter"",""5"",""19449""
","
",1265.8249998930842,NA,49,NA,NA,3000,1,NA,NA,images/tutgreenplanet.jpg,images/tutalien2,images/tutalien1,images/tutrocket1,images/tutalien1,images/nothing.png,2,practice,false,0,2020-06-29T22:46:08Z,1,rare,sub124
two-step-fixation,84,442402,0.0-61.0-2.7,FALSE,FALSE,TRUE,TRUE,"""event"",""trial"",""time""
""fullscreenenter"",""5"",""19449""
","
","
","""event"",""trial"",""time""
""fullscreenenter"",""5"",""19449""
","
",NA,images/earth.jpg,NA,NA,NA,NA,NA,NA,NA,NA,NA,NA,NA,NA,NA,fixation,NA,NA,NA,NA,NA,NA,sub124
d3-animate-choice,85,446406,0.0-61.0-0.8,FALSE,FALSE,TRUE,TRUE,"""event"",""trial"",""time""
""fullscreenenter"",""5"",""19449""
","
","
","""event"",""trial"",""time""
""fullscreenenter"",""5"",""19449""
","
",2009.5049999654293,NA,48,NA,NA,3000,1,NA,NA,images/earth.jpg,images/tutrocket2,images/tutrocket1,null,images/tutrocket2,NA,1,practice,null,NA,NA,2,NA,sub124
d3-animate-choice,86,449490,0.0-61.0-1.8,FALSE,FALSE,TRUE,TRUE,"""event"",""trial"",""time""
""fullscreenenter"",""5"",""19449""
","
","
","""event"",""trial"",""time""
""fullscreenenter"",""5"",""19449""
","
",1080.3300000261515,NA,48,NA,NA,3000,1,NA,NA,images/tutgreenplanet.jpg,images/tutalien2,images/tutalien1,images/tutrocket2,images/tutalien2,images/nothing.png,2,practice,true,0,2020-06-29T22:46:16Z,2,common,sub124
two-step-fixation,87,450494,0.0-61.0-2.8,FALSE,FALSE,TRUE,TRUE,"""event"",""trial"",""time""
""fullscreenenter"",""5"",""19449""
","
","
","""event"",""trial"",""time""
""fullscreenenter"",""5"",""19449""
","
",NA,images/earth.jpg,NA,NA,NA,NA,NA,NA,NA,NA,NA,NA,NA,NA,NA,fixation,NA,NA,NA,NA,NA,NA,sub124
d3-animate-choice,88,452900,0.0-61.0-0.9,FALSE,FALSE,TRUE,TRUE,"""event"",""trial"",""time""
""fullscreenenter"",""5"",""19449""
","
","
","""event"",""trial"",""time""
""fullscreenenter"",""5"",""19449""
","
",402.1399999037385,NA,49,NA,NA,3000,1,NA,NA,images/earth.jpg,images/tutrocket2,images/tutrocket1,null,images/tutrocket1,NA,1,practice,null,NA,NA,1,NA,sub124
d3-animate-choice,89,455467,0.0-61.0-1.9,FALSE,FALSE,TRUE,TRUE,"""event"",""trial"",""time""
""fullscreenenter"",""5"",""19449""
","
","
","""event"",""trial"",""time""
""fullscreenenter"",""5"",""19449""
","
",563.5450000409037,NA,49,NA,NA,3000,1,NA,NA,images/tutgreenplanet.jpg,images/tutalien2,images/tutalien1,images/tutrocket1,images/tutalien1,images/nothing.png,2,practice,false,0,2020-06-29T22:46:22Z,1,rare,sub124
two-step-fixation,90,456470,0.0-61.0-2.9,FALSE,FALSE,TRUE,TRUE,"""event"",""trial"",""time""
""fullscreenenter"",""5"",""19449""
","
","
","""event"",""trial"",""time""
""fullscreenenter"",""5"",""19449""
","
",NA,images/earth.jpg,NA,NA,NA,NA,NA,NA,NA,NA,NA,NA,NA,NA,NA,fixation,NA,NA,NA,NA,NA,NA,sub124
d3-animate-choice,91,458801,0.0-61.0-0.10,FALSE,FALSE,TRUE,TRUE,"""event"",""trial"",""time""
""fullscreenenter"",""5"",""19449""
","
","
","""event"",""trial"",""time""
""fullscreenenter"",""5"",""19449""
","
",327.9649999458343,NA,48,NA,NA,3000,1,NA,NA,images/earth.jpg,images/tutrocket2,images/tutrocket1,null,images/tutrocket2,NA,1,practice,null,NA,NA,2,NA,sub124
d3-animate-choice,92,461265,0.0-61.0-1.10,FALSE,FALSE,TRUE,TRUE,"""event"",""trial"",""time""
""fullscreenenter"",""5"",""19449""
","
","
","""event"",""trial"",""time""
""fullscreenenter"",""5"",""19449""
","
",461.4599999040365,NA,48,NA,NA,3000,1,NA,NA,images/tutyellowplanet.jpg,images/tutalien4,images/tutalien3,images/tutrocket2,images/tutalien4,images/nothing.png,2,practice,false,0,2020-06-29T22:46:28Z,2,rare,sub124
two-step-fixation,93,462269,0.0-61.0-2.10,FALSE,FALSE,TRUE,TRUE,"""event"",""trial"",""time""
""fullscreenenter"",""5"",""19449""
","
","
","""event"",""trial"",""time""
""fullscreenenter"",""5"",""19449""
","
",NA,images/earth.jpg,NA,NA,NA,NA,NA,NA,NA,NA,NA,NA,NA,NA,NA,fixation,NA,NA,NA,NA,NA,NA,sub124
d3-animate-choice,94,464600,0.0-61.0-0.11,FALSE,FALSE,TRUE,TRUE,"""event"",""trial"",""time""
""fullscreenenter"",""5"",""19449""
","
","
","""event"",""trial"",""time""
""fullscreenenter"",""5"",""19449""
","
",327.7400000952184,NA,48,NA,NA,3000,1,NA,NA,images/earth.jpg,images/tutrocket2,images/tutrocket1,null,images/tutrocket2,NA,1,practice,null,NA,NA,2,NA,sub124
d3-animate-choice,95,467092,0.0-61.0-1.11,FALSE,FALSE,TRUE,TRUE,"""event"",""trial"",""time""
""fullscreenenter"",""5"",""19449""
","
","
","""event"",""trial"",""time""
""fullscreenenter"",""5"",""19449""
","
",488.51500009186566,NA,48,NA,NA,3000,1,NA,NA,images/tutyellowplanet.jpg,images/tutalien4,images/tutalien3,images/tutrocket2,images/tutalien4,images/t.png,2,practice,false,1,2020-06-29T22:46:33Z,2,rare,sub124
two-step-fixation,96,468095,0.0-61.0-2.11,FALSE,FALSE,TRUE,TRUE,"""event"",""trial"",""time""
""fullscreenenter"",""5"",""19449""
","
","
","""event"",""trial"",""time""
""fullscreenenter"",""5"",""19449""
","
",NA,images/earth.jpg,NA,NA,NA,NA,NA,NA,NA,NA,NA,NA,NA,NA,NA,fixation,NA,NA,NA,NA,NA,NA,sub124
d3-animate-choice,97,470411,0.0-61.0-0.12,FALSE,FALSE,TRUE,TRUE,"""event"",""trial"",""time""
""fullscreenenter"",""5"",""19449""
","
","
","""event"",""trial"",""time""
""fullscreenenter"",""5"",""19449""
","
",312.0800000615418,NA,48,NA,NA,3000,1,NA,NA,images/earth.jpg,images/tutrocket2,images/tutrocket1,null,images/tutrocket2,NA,1,practice,null,NA,NA,2,NA,sub124
d3-animate-choice,98,472818,0.0-61.0-1.12,FALSE,FALSE,TRUE,TRUE,"""event"",""trial"",""time""
""fullscreenenter"",""5"",""19449""
","
","
","""event"",""trial"",""time""
""fullscreenenter"",""5"",""19449""
","
",404.5349999796599,NA,48,NA,NA,3000,1,NA,NA,images/tutyellowplanet.jpg,images/tutalien4,images/tutalien3,images/tutrocket2,images/tutalien4,images/nothing.png,2,practice,false,0,2020-06-29T22:46:39Z,2,rare,sub124
two-step-fixation,99,473822,0.0-61.0-2.12,FALSE,FALSE,TRUE,TRUE,"""event"",""trial"",""time""
""fullscreenenter"",""5"",""19449""
","
","
","""event"",""trial"",""time""
""fullscreenenter"",""5"",""19449""
","
",NA,images/earth.jpg,NA,NA,NA,NA,NA,NA,NA,NA,NA,NA,NA,NA,NA,fixation,NA,NA,NA,NA,NA,NA,sub124
d3-animate-choice,100,476122,0.0-61.0-0.13,FALSE,FALSE,TRUE,TRUE,"""event"",""trial"",""time""
""fullscreenenter"",""5"",""19449""
","
","
","""event"",""trial"",""time""
""fullscreenenter"",""5"",""19449""
","
",296.88000003807247,NA,49,NA,NA,3000,1,NA,NA,images/earth.jpg,images/tutrocket2,images/tutrocket1,null,images/tutrocket1,NA,1,practice,null,NA,NA,1,NA,sub124
d3-animate-choice,101,478543,0.0-61.0-1.13,FALSE,FALSE,TRUE,TRUE,"""event"",""trial"",""time""
""fullscreenenter"",""5"",""19449""
","
","
","""event"",""trial"",""time""
""fullscreenenter"",""5"",""19449""
","
",416.2950001191348,NA,48,NA,NA,3000,1,NA,NA,images/tutyellowplanet.jpg,images/tutalien4,images/tutalien3,images/tutrocket1,images/tutalien4,images/t.png,2,practice,true,1,2020-06-29T22:46:45Z,2,common,sub124
two-step-fixation,102,479546,0.0-61.0-2.13,FALSE,FALSE,TRUE,TRUE,"""event"",""trial"",""time""
""fullscreenenter"",""5"",""19449""
","
","
","""event"",""trial"",""time""
""fullscreenenter"",""5"",""19449""
","
",NA,images/earth.jpg,NA,NA,NA,NA,NA,NA,NA,NA,NA,NA,NA,NA,NA,fixation,NA,NA,NA,NA,NA,NA,sub124
d3-animate-choice,103,481884,0.0-61.0-0.14,FALSE,FALSE,TRUE,TRUE,"""event"",""trial"",""time""
""fullscreenenter"",""5"",""19449""
","
","
","""event"",""trial"",""time""
""fullscreenenter"",""5"",""19449""
","
",334.050000179559,NA,48,NA,NA,3000,1,NA,NA,images/earth.jpg,images/tutrocket2,images/tutrocket1,null,images/tutrocket2,NA,1,practice,null,NA,NA,2,NA,sub124
d3-animate-choice,104,484339,0.0-61.0-1.14,FALSE,FALSE,TRUE,TRUE,"""event"",""trial"",""time""
""fullscreenenter"",""5"",""19449""
","
","
","""event"",""trial"",""time""
""fullscreenenter"",""5"",""19449""
","
",452.5150000117719,NA,48,NA,NA,3000,1,NA,NA,images/tutyellowplanet.jpg,images/tutalien4,images/tutalien3,images/tutrocket2,images/tutalien4,images/t.png,2,practice,false,1,2020-06-29T22:46:51Z,2,rare,sub124
two-step-fixation,105,485342,0.0-61.0-2.14,FALSE,FALSE,TRUE,TRUE,"""event"",""trial"",""time""
""fullscreenenter"",""5"",""19449""
","
","
","""event"",""trial"",""time""
""fullscreenenter"",""5"",""19449""
","
",NA,images/earth.jpg,NA,NA,NA,NA,NA,NA,NA,NA,NA,NA,NA,NA,NA,fixation,NA,NA,NA,NA,NA,NA,sub124
d3-animate-choice,106,487716,0.0-61.0-0.15,FALSE,FALSE,TRUE,TRUE,"""event"",""trial"",""time""
""fullscreenenter"",""5"",""19449""
","
","
","""event"",""trial"",""time""
""fullscreenenter"",""5"",""19449""
","
",371.41999998129904,NA,48,NA,NA,3000,1,NA,NA,images/earth.jpg,images/tutrocket2,images/tutrocket1,null,images/tutrocket2,NA,1,practice,null,NA,NA,2,NA,sub124
d3-animate-choice,107,490260,0.0-61.0-1.15,FALSE,FALSE,TRUE,TRUE,"""event"",""trial"",""time""
""fullscreenenter"",""5"",""19449""
","
","
","""event"",""trial"",""time""
""fullscreenenter"",""5"",""19449""
","
",540.8749999478459,NA,49,NA,NA,3000,1,NA,NA,images/tutgreenplanet.jpg,images/tutalien2,images/tutalien1,images/tutrocket2,images/tutalien1,images/nothing.png,2,practice,true,0,2020-06-29T22:46:56Z,1,common,sub124
two-step-fixation,108,491263,0.0-61.0-2.15,FALSE,FALSE,TRUE,TRUE,"""event"",""trial"",""time""
""fullscreenenter"",""5"",""19449""
","
","
","""event"",""trial"",""time""
""fullscreenenter"",""5"",""19449""
","
",NA,images/earth.jpg,NA,NA,NA,NA,NA,NA,NA,NA,NA,NA,NA,NA,NA,fixation,NA,NA,NA,NA,NA,NA,sub124
d3-animate-choice,109,493626,0.0-61.0-0.16,FALSE,FALSE,TRUE,TRUE,"""event"",""trial"",""time""
""fullscreenenter"",""5"",""19449""
","
","
","""event"",""trial"",""time""
""fullscreenenter"",""5"",""19449""
","
",360.45499984174967,NA,48,NA,NA,3000,1,NA,NA,images/earth.jpg,images/tutrocket2,images/tutrocket1,null,images/tutrocket2,NA,1,practice,null,NA,NA,2,NA,sub124
d3-animate-choice,110,495776,0.0-61.0-1.16,FALSE,FALSE,TRUE,TRUE,"""event"",""trial"",""time""
""fullscreenenter"",""5"",""19449""
","
","
","""event"",""trial"",""time""
""fullscreenenter"",""5"",""19449""
","
",145.52000002004206,NA,48,NA,NA,3000,1,NA,NA,images/tutyellowplanet.jpg,images/tutalien4,images/tutalien3,images/tutrocket2,images/tutalien4,images/nothing.png,2,practice,false,0,2020-06-29T22:47:02Z,2,rare,sub124
two-step-fixation,111,496780,0.0-61.0-2.16,FALSE,FALSE,TRUE,TRUE,"""event"",""trial"",""time""
""fullscreenenter"",""5"",""19449""
","
","
","""event"",""trial"",""time""
""fullscreenenter"",""5"",""19449""
","
",NA,images/earth.jpg,NA,NA,NA,NA,NA,NA,NA,NA,NA,NA,NA,NA,NA,fixation,NA,NA,NA,NA,NA,NA,sub124
d3-animate-choice,112,499201,0.0-61.0-0.17,FALSE,FALSE,TRUE,TRUE,"""event"",""trial"",""time""
""fullscreenenter"",""5"",""19449""
","
","
","""event"",""trial"",""time""
""fullscreenenter"",""5"",""19449""
","
",416.89500003121793,NA,48,NA,NA,3000,1,NA,NA,images/earth.jpg,images/tutrocket2,images/tutrocket1,null,images/tutrocket2,NA,1,practice,null,NA,NA,2,NA,sub124
d3-animate-choice,113,501814,0.0-61.0-1.17,FALSE,FALSE,TRUE,TRUE,"""event"",""trial"",""time""
""fullscreenenter"",""5"",""19449""
","
","
","""event"",""trial"",""time""
""fullscreenenter"",""5"",""19449""
","
",610.3399998974055,NA,48,NA,NA,3000,1,NA,NA,images/tutgreenplanet.jpg,images/tutalien2,images/tutalien1,images/tutrocket2,images/tutalien2,images/nothing.png,2,practice,true,0,2020-06-29T22:47:08Z,2,common,sub124
two-step-fixation,114,502817,0.0-61.0-2.17,FALSE,FALSE,TRUE,TRUE,"""event"",""trial"",""time""
""fullscreenenter"",""5"",""19449""
","
","
","""event"",""trial"",""time""
""fullscreenenter"",""5"",""19449""
","
",NA,images/earth.jpg,NA,NA,NA,NA,NA,NA,NA,NA,NA,NA,NA,NA,NA,fixation,NA,NA,NA,NA,NA,NA,sub124
d3-animate-choice,115,505174,0.0-61.0-0.18,FALSE,FALSE,TRUE,TRUE,"""event"",""trial"",""time""
""fullscreenenter"",""5"",""19449""
","
","
","""event"",""trial"",""time""
""fullscreenenter"",""5"",""19449""
","
",352.74500004015863,NA,49,NA,NA,3000,1,NA,NA,images/earth.jpg,images/tutrocket2,images/tutrocket1,null,images/tutrocket1,NA,1,practice,null,NA,NA,1,NA,sub124
d3-animate-choice,116,507872,0.0-61.0-1.18,FALSE,FALSE,TRUE,TRUE,"""event"",""trial"",""time""
""fullscreenenter"",""5"",""19449""
","
","
","""event"",""trial"",""time""
""fullscreenenter"",""5"",""19449""
","
",694.9299999978393,NA,48,NA,NA,3000,1,NA,NA,images/tutgreenplanet.jpg,images/tutalien2,images/tutalien1,images/tutrocket1,images/tutalien2,images/nothing.png,2,practice,false,0,2020-06-29T22:47:14Z,2,rare,sub124
two-step-fixation,117,508875,0.0-61.0-2.18,FALSE,FALSE,TRUE,TRUE,"""event"",""trial"",""time""
""fullscreenenter"",""5"",""19449""
","
","
","""event"",""trial"",""time""
""fullscreenenter"",""5"",""19449""
","
",NA,images/earth.jpg,NA,NA,NA,NA,NA,NA,NA,NA,NA,NA,NA,NA,NA,fixation,NA,NA,NA,NA,NA,NA,sub124
d3-animate-choice,118,511398,0.0-61.0-0.19,FALSE,FALSE,TRUE,TRUE,"""event"",""trial"",""time""
""fullscreenenter"",""5"",""19449""
","
","
","""event"",""trial"",""time""
""fullscreenenter"",""5"",""19449""
","
",518.5549999587238,NA,49,NA,NA,3000,1,NA,NA,images/earth.jpg,images/tutrocket2,images/tutrocket1,null,images/tutrocket1,NA,1,practice,null,NA,NA,1,NA,sub124
d3-animate-choice,119,514012,0.0-61.0-1.19,FALSE,FALSE,TRUE,TRUE,"""event"",""trial"",""time""
""fullscreenenter"",""5"",""19449""
","
","
","""event"",""trial"",""time""
""fullscreenenter"",""5"",""19449""
","
",610.2500001434237,NA,48,NA,NA,3000,1,NA,NA,images/tutyellowplanet.jpg,images/tutalien4,images/tutalien3,images/tutrocket1,images/tutalien4,images/nothing.png,2,practice,true,0,2020-06-29T22:47:20Z,2,common,sub124
two-step-fixation,120,515015,0.0-61.0-2.19,FALSE,FALSE,TRUE,TRUE,"""event"",""trial"",""time""
""fullscreenenter"",""5"",""19449""
","
","
","""event"",""trial"",""time""
""fullscreenenter"",""5"",""19449""
","
",NA,images/earth.jpg,NA,NA,NA,NA,NA,NA,NA,NA,NA,NA,NA,NA,NA,fixation,NA,NA,NA,NA,NA,NA,sub124
d3-instructions,121,522093,0.0-62.0,FALSE,FALSE,TRUE,TRUE,"""event"",""trial"",""time""
""fullscreenenter"",""5"",""19449""
","
","
","""event"",""trial"",""time""
""fullscreenenter"",""5"",""19449""
","
",NA,NA,NA,NA,NA,NA,NA,NA,NA,NA,NA,NA,NA,NA,NA,NA,NA,NA,NA,NA,NA,NA,sub124
audio-keyboard-response,122,527088,0.0-63.0,FALSE,FALSE,TRUE,TRUE,"""event"",""trial"",""time""
""fullscreenenter"",""5"",""19449""
","
","
","""event"",""trial"",""time""
""fullscreenenter"",""5"",""19449""
","
",4986,audio/instructions/treasure_feedback.wav,32,NA,NA,NA,NA,NA,NA,NA,NA,NA,NA,NA,NA,NA,NA,NA,NA,NA,NA,NA,sub124
d3-instructions,123,545838,0.0-64.0,FALSE,FALSE,TRUE,TRUE,"""event"",""trial"",""time""
""fullscreenenter"",""5"",""19449""
","
","
","""event"",""trial"",""time""
""fullscreenenter"",""5"",""19449""
","
",NA,NA,NA,NA,NA,NA,NA,NA,NA,NA,NA,NA,NA,NA,NA,NA,NA,NA,NA,NA,NA,NA,sub124
d3-instructions,124,559817,0.0-65.0,FALSE,FALSE,TRUE,TRUE,"""event"",""trial"",""time""
""fullscreenenter"",""5"",""19449""
","
","
","""event"",""trial"",""time""
""fullscreenenter"",""5"",""19449""
","
",NA,NA,NA,NA,NA,NA,NA,NA,NA,NA,NA,NA,NA,NA,NA,NA,NA,NA,NA,NA,NA,NA,sub124
d3-instructions,125,583912,0.0-66.0,FALSE,FALSE,TRUE,TRUE,"""event"",""trial"",""time""
""fullscreenenter"",""5"",""19449""
","
","
","""event"",""trial"",""time""
""fullscreenenter"",""5"",""19449""
","
",NA,NA,NA,NA,NA,NA,NA,NA,NA,NA,NA,NA,NA,NA,NA,NA,NA,NA,NA,NA,NA,NA,sub124
d3-instructions,126,601782,0.0-67.0,FALSE,FALSE,TRUE,TRUE,"""event"",""trial"",""time""
""fullscreenenter"",""5"",""19449""
","
","
","""event"",""trial"",""time""
""fullscreenenter"",""5"",""19449""
","
",NA,NA,NA,NA,NA,NA,NA,NA,NA,NA,NA,NA,NA,NA,NA,NA,NA,NA,NA,NA,NA,NA,sub124
d3-instructions,127,611796,0.0-68.0,FALSE,FALSE,TRUE,TRUE,"""event"",""trial"",""time""
""fullscreenenter"",""5"",""19449""
","
","
","""event"",""trial"",""time""
""fullscreenenter"",""5"",""19449""
","
",NA,NA,NA,NA,NA,NA,NA,NA,NA,NA,NA,NA,NA,NA,NA,NA,NA,NA,NA,NA,NA,NA,sub124
instructions-quiz,128,616790,0.0-69.0,FALSE,FALSE,TRUE,TRUE,"""event"",""trial"",""time""
""fullscreenenter"",""5"",""19449""
","
","
","""event"",""trial"",""time""
""fullscreenenter"",""5"",""19449""
","
",4991.4249998983,audio/quiz/Q1_Prompt.wav,NA,1,NA,NA,NA,NA,NA,NA,NA,NA,NA,NA,NA,NA,NA,NA,NA,NA,NA,NA,sub124
audio-keyboard-response,129,625957,0.0-70.0,FALSE,FALSE,TRUE,TRUE,"""event"",""trial"",""time""
""fullscreenenter"",""5"",""19449""
","
","
","""event"",""trial"",""time""
""fullscreenenter"",""5"",""19449""
","
",null,audio/quiz/Q1_Correct.wav,null,NA,NA,NA,NA,NA,NA,NA,NA,NA,NA,NA,NA,NA,NA,NA,NA,NA,NA,NA,sub124
instructions-quiz,130,634965,0.0-71.0,FALSE,FALSE,TRUE,TRUE,"""event"",""trial"",""time""
""fullscreenenter"",""5"",""19449""
","
","
","""event"",""trial"",""time""
""fullscreenenter"",""5"",""19449""
","
",9006.814999971539,audio/quiz/Q2_Prompt.wav,NA,0,NA,NA,NA,NA,NA,NA,NA,NA,NA,NA,NA,NA,NA,NA,NA,NA,NA,NA,sub124
audio-keyboard-response,131,647829,0.0-72.0,FALSE,FALSE,TRUE,TRUE,"""event"",""trial"",""time""
""fullscreenenter"",""5"",""19449""
","
","
","""event"",""trial"",""time""
""fullscreenenter"",""5"",""19449""
","
",null,audio/quiz/Q2_Correct.wav,null,NA,NA,NA,NA,NA,NA,NA,NA,NA,NA,NA,NA,NA,NA,NA,NA,NA,NA,NA,sub124
instructions-quiz,132,650637,0.0-73.0,FALSE,FALSE,TRUE,TRUE,"""event"",""trial"",""time""
""fullscreenenter"",""5"",""19449""
","
","
","""event"",""trial"",""time""
""fullscreenenter"",""5"",""19449""
","
",2807.024999987334,audio/quiz/Q3_Prompt.wav,NA,1,NA,NA,NA,NA,NA,NA,NA,NA,NA,NA,NA,NA,NA,NA,NA,NA,NA,NA,sub124
audio-keyboard-response,133,656433,0.0-74.0,FALSE,FALSE,TRUE,TRUE,"""event"",""trial"",""time""
""fullscreenenter"",""5"",""19449""
","
","
","""event"",""trial"",""time""
""fullscreenenter"",""5"",""19449""
","
",null,audio/quiz/Q3_Correct.wav,null,NA,NA,NA,NA,NA,NA,NA,NA,NA,NA,NA,NA,NA,NA,NA,NA,NA,NA,NA,sub124
d3-instructions,134,659853,0.0-75.0,FALSE,FALSE,TRUE,TRUE,"""event"",""trial"",""time""
""fullscreenenter"",""5"",""19449""
","
","
","""event"",""trial"",""time""
""fullscreenenter"",""5"",""19449""
","
",NA,NA,NA,NA,NA,NA,NA,NA,NA,NA,NA,NA,NA,NA,NA,NA,NA,NA,NA,NA,NA,NA,sub124
d3-animate-choice,135,663057,0.0-76.0-0.0,FALSE,FALSE,TRUE,TRUE,"""event"",""trial"",""time""
""fullscreenenter"",""5"",""19449""
","
","
","""event"",""trial"",""time""
""fullscreenenter"",""5"",""19449""
","
",1200.0349999871105,NA,48,NA,NA,3000,1,NA,NA,images/earth.jpg,images/rocket1,images/rocket2,null,images/rocket1,NA,1,real,null,NA,NA,2,NA,sub124
d3-animate-choice,136,665546,0.0-76.0-1.0,FALSE,FALSE,TRUE,TRUE,"""event"",""trial"",""time""
""fullscreenenter"",""5"",""19449""
","
","
","""event"",""trial"",""time""
""fullscreenenter"",""5"",""19449""
","
",486.01999995298684,NA,48,NA,NA,3000,1,NA,NA,images/redplanet1.jpg,images/alien2,images/alien1,images/rocket1,images/alien2,images/t.png,2,real,false,1,2020-06-29T22:49:52Z,2,rare,sub124
two-step-fixation,137,666549,0.0-76.0-2.0,FALSE,FALSE,TRUE,TRUE,"""event"",""trial"",""time""
""fullscreenenter"",""5"",""19449""
","
","
","""event"",""trial"",""time""
""fullscreenenter"",""5"",""19449""
","
",NA,images/earth.jpg,NA,NA,NA,NA,NA,NA,NA,NA,NA,NA,NA,NA,NA,fixation,NA,NA,NA,NA,NA,NA,sub124
d3-animate-choice,138,668909,0.0-76.0-0.1,FALSE,FALSE,TRUE,TRUE,"""event"",""trial"",""time""
""fullscreenenter"",""5"",""19449""
","
","
","""event"",""trial"",""time""
""fullscreenenter"",""5"",""19449""
","
",356.02999990805984,NA,48,NA,NA,3000,1,NA,NA,images/earth.jpg,images/rocket1,images/rocket2,null,images/rocket1,NA,1,real,null,NA,NA,2,NA,sub124
d3-animate-choice,139,671494,0.0-76.0-1.1,FALSE,FALSE,TRUE,TRUE,"""event"",""trial"",""time""
""fullscreenenter"",""5"",""19449""
","
","
","""event"",""trial"",""time""
""fullscreenenter"",""5"",""19449""
","
",582.18999998644,NA,48,NA,NA,3000,1,NA,NA,images/redplanet1.jpg,images/alien2,images/alien1,images/rocket1,images/alien2,images/nothing.png,2,real,false,0,2020-06-29T22:49:58Z,2,rare,sub124
two-step-fixation,140,672497,0.0-76.0-2.1,FALSE,FALSE,TRUE,TRUE,"""event"",""trial"",""time""
""fullscreenenter"",""5"",""19449""
","
","
","""event"",""trial"",""time""
""fullscreenenter"",""5"",""19449""
","
",NA,images/earth.jpg,NA,NA,NA,NA,NA,NA,NA,NA,NA,NA,NA,NA,NA,fixation,NA,NA,NA,NA,NA,NA,sub124
d3-animate-choice,141,674857,0.0-76.0-0.2,FALSE,FALSE,TRUE,TRUE,"""event"",""trial"",""time""
""fullscreenenter"",""5"",""19449""
","
","
","""event"",""trial"",""time""
""fullscreenenter"",""5"",""19449""
","
",356.7049999255687,NA,48,NA,NA,3000,1,NA,NA,images/earth.jpg,images/rocket1,images/rocket2,null,images/rocket1,NA,1,real,null,NA,NA,2,NA,sub124
d3-animate-choice,142,677461,0.0-76.0-1.2,FALSE,FALSE,TRUE,TRUE,"""event"",""trial"",""time""
""fullscreenenter"",""5"",""19449""
","
","
","""event"",""trial"",""time""
""fullscreenenter"",""5"",""19449""
","
",600.1700002234429,NA,48,NA,NA,3000,1,NA,NA,images/redplanet1.jpg,images/alien2,images/alien1,images/rocket1,images/alien2,images/t.png,2,real,false,1,2020-06-29T22:50:04Z,2,rare,sub124
two-step-fixation,143,678465,0.0-76.0-2.2,FALSE,FALSE,TRUE,TRUE,"""event"",""trial"",""time""
""fullscreenenter"",""5"",""19449""
","
","
","""event"",""trial"",""time""
""fullscreenenter"",""5"",""19449""
","
",NA,images/earth.jpg,NA,NA,NA,NA,NA,NA,NA,NA,NA,NA,NA,NA,NA,fixation,NA,NA,NA,NA,NA,NA,sub124
d3-animate-choice,144,680838,0.0-76.0-0.3,FALSE,FALSE,TRUE,TRUE,"""event"",""trial"",""time""
""fullscreenenter"",""5"",""19449""
","
","
","""event"",""trial"",""time""
""fullscreenenter"",""5"",""19449""
","
",368.8699998892844,NA,48,NA,NA,3000,1,NA,NA,images/earth.jpg,images/rocket1,images/rocket2,null,images/rocket1,NA,1,real,null,NA,NA,2,NA,sub124
d3-animate-choice,145,683272,0.0-76.0-1.3,FALSE,FALSE,TRUE,TRUE,"""event"",""trial"",""time""
""fullscreenenter"",""5"",""19449""
","
","
","""event"",""trial"",""time""
""fullscreenenter"",""5"",""19449""
","
",430.24499993771315,NA,48,NA,NA,3000,1,NA,NA,images/purpleplanet.jpg,images/alien4,images/alien3,images/rocket1,images/alien4,images/t.png,2,real,true,1,2020-06-29T22:50:10Z,2,common,sub124
two-step-fixation,146,684276,0.0-76.0-2.3,FALSE,FALSE,TRUE,TRUE,"""event"",""trial"",""time""
""fullscreenenter"",""5"",""19449""
","
","
","""event"",""trial"",""time""
""fullscreenenter"",""5"",""19449""
","
",NA,images/earth.jpg,NA,NA,NA,NA,NA,NA,NA,NA,NA,NA,NA,NA,NA,fixation,NA,NA,NA,NA,NA,NA,sub124
d3-animate-choice,147,686555,0.0-76.0-0.4,FALSE,FALSE,TRUE,TRUE,"""event"",""trial"",""time""
""fullscreenenter"",""5"",""19449""
","
","
","""event"",""trial"",""time""
""fullscreenenter"",""5"",""19449""
","
",274.4750001002103,NA,48,NA,NA,3000,1,NA,NA,images/earth.jpg,images/rocket1,images/rocket2,null,images/rocket1,NA,1,real,null,NA,NA,2,NA,sub124
d3-animate-choice,148,688991,0.0-76.0-1.4,FALSE,FALSE,TRUE,TRUE,"""event"",""trial"",""time""
""fullscreenenter"",""5"",""19449""
","
","
","""event"",""trial"",""time""
""fullscreenenter"",""5"",""19449""
","
",433.33499995060265,NA,48,NA,NA,3000,1,NA,NA,images/redplanet1.jpg,images/alien2,images/alien1,images/rocket1,images/alien2,images/t.png,2,real,false,1,2020-06-29T22:50:15Z,2,rare,sub124
two-step-fixation,149,689994,0.0-76.0-2.4,FALSE,FALSE,TRUE,TRUE,"""event"",""trial"",""time""
""fullscreenenter"",""5"",""19449""
","
","
","""event"",""trial"",""time""
""fullscreenenter"",""5"",""19449""
","
",NA,images/earth.jpg,NA,NA,NA,NA,NA,NA,NA,NA,NA,NA,NA,NA,NA,fixation,NA,NA,NA,NA,NA,NA,sub124
d3-animate-choice,150,692287,0.0-76.0-0.5,FALSE,FALSE,TRUE,TRUE,"""event"",""trial"",""time""
""fullscreenenter"",""5"",""19449""
","
","
","""event"",""trial"",""time""
""fullscreenenter"",""5"",""19449""
","
",289.92500016465783,NA,48,NA,NA,3000,1,NA,NA,images/earth.jpg,images/rocket1,images/rocket2,null,images/rocket1,NA,1,real,null,NA,NA,2,NA,sub124
d3-animate-choice,151,694715,0.0-76.0-1.5,FALSE,FALSE,TRUE,TRUE,"""event"",""trial"",""time""
""fullscreenenter"",""5"",""19449""
","
","
","""event"",""trial"",""time""
""fullscreenenter"",""5"",""19449""
","
",424.68499997630715,NA,48,NA,NA,3000,1,NA,NA,images/redplanet1.jpg,images/alien2,images/alien1,images/rocket1,images/alien2,images/t.png,2,real,false,1,2020-06-29T22:50:21Z,2,rare,sub124
two-step-fixation,152,695718,0.0-76.0-2.5,FALSE,FALSE,TRUE,TRUE,"""event"",""trial"",""time""
""fullscreenenter"",""5"",""19449""
","
","
","""event"",""trial"",""time""
""fullscreenenter"",""5"",""19449""
","
",NA,images/earth.jpg,NA,NA,NA,NA,NA,NA,NA,NA,NA,NA,NA,NA,NA,fixation,NA,NA,NA,NA,NA,NA,sub124
d3-animate-choice,153,698056,0.0-76.0-0.6,FALSE,FALSE,TRUE,TRUE,"""event"",""trial"",""time""
""fullscreenenter"",""5"",""19449""
","
","
","""event"",""trial"",""time""
""fullscreenenter"",""5"",""19449""
","
",334.50999995693564,NA,48,NA,NA,3000,1,NA,NA,images/earth.jpg,images/rocket1,images/rocket2,null,images/rocket1,NA,1,real,null,NA,NA,2,NA,sub124
d3-animate-choice,154,701081,0.0-76.0-1.6,FALSE,FALSE,TRUE,TRUE,"""event"",""trial"",""time""
""fullscreenenter"",""5"",""19449""
","
","
","""event"",""trial"",""time""
""fullscreenenter"",""5"",""19449""
","
",1020.4249999951571,NA,48,NA,NA,3000,1,NA,NA,images/purpleplanet.jpg,images/alien4,images/alien3,images/rocket1,images/alien4,images/t.png,2,real,true,1,2020-06-29T22:50:27Z,2,common,sub124
two-step-fixation,155,702084,0.0-76.0-2.6,FALSE,FALSE,TRUE,TRUE,"""event"",""trial"",""time""
""fullscreenenter"",""5"",""19449""
","
","
","""event"",""trial"",""time""
""fullscreenenter"",""5"",""19449""
","
",NA,images/earth.jpg,NA,NA,NA,NA,NA,NA,NA,NA,NA,NA,NA,NA,NA,fixation,NA,NA,NA,NA,NA,NA,sub124
d3-animate-choice,156,704447,0.0-76.0-0.7,FALSE,FALSE,TRUE,TRUE,"""event"",""trial"",""time""
""fullscreenenter"",""5"",""19449""
","
","
","""event"",""trial"",""time""
""fullscreenenter"",""5"",""19449""
","
",358.40999986976385,NA,48,NA,NA,3000,1,NA,NA,images/earth.jpg,images/rocket1,images/rocket2,null,images/rocket1,NA,1,real,null,NA,NA,2,NA,sub124
d3-animate-choice,157,706988,0.0-76.0-1.7,FALSE,FALSE,TRUE,TRUE,"""event"",""trial"",""time""
""fullscreenenter"",""5"",""19449""
","
","
","""event"",""trial"",""time""
""fullscreenenter"",""5"",""19449""
","
",538.3800000417978,NA,48,NA,NA,3000,1,NA,NA,images/redplanet1.jpg,images/alien2,images/alien1,images/rocket1,images/alien2,images/t.png,2,real,false,1,2020-06-29T22:50:33Z,2,rare,sub124
two-step-fixation,158,707991,0.0-76.0-2.7,FALSE,FALSE,TRUE,TRUE,"""event"",""trial"",""time""
""fullscreenenter"",""5"",""19449""
","
","
","""event"",""trial"",""time""
""fullscreenenter"",""5"",""19449""
","
",NA,images/earth.jpg,NA,NA,NA,NA,NA,NA,NA,NA,NA,NA,NA,NA,NA,fixation,NA,NA,NA,NA,NA,NA,sub124
d3-animate-choice,159,710269,0.0-76.0-0.8,FALSE,FALSE,TRUE,TRUE,"""event"",""trial"",""time""
""fullscreenenter"",""5"",""19449""
","
","
","""event"",""trial"",""time""
""fullscreenenter"",""5"",""19449""
","
",274.5449999347329,NA,48,NA,NA,3000,1,NA,NA,images/earth.jpg,images/rocket1,images/rocket2,null,images/rocket1,NA,1,real,null,NA,NA,2,NA,sub124
d3-animate-choice,160,712763,0.0-76.0-1.8,FALSE,FALSE,TRUE,TRUE,"""event"",""trial"",""time""
""fullscreenenter"",""5"",""19449""
","
","
","""event"",""trial"",""time""
""fullscreenenter"",""5"",""19449""
","
",490.0850001722574,NA,48,NA,NA,3000,1,NA,NA,images/redplanet1.jpg,images/alien2,images/alien1,images/rocket1,images/alien2,images/t.png,2,real,false,1,2020-06-29T22:50:39Z,2,rare,sub124
two-step-fixation,161,713766,0.0-76.0-2.8,FALSE,FALSE,TRUE,TRUE,"""event"",""trial"",""time""
""fullscreenenter"",""5"",""19449""
","
","
","""event"",""trial"",""time""
""fullscreenenter"",""5"",""19449""
","
",NA,images/earth.jpg,NA,NA,NA,NA,NA,NA,NA,NA,NA,NA,NA,NA,NA,fixation,NA,NA,NA,NA,NA,NA,sub124
d3-animate-choice,162,716060,0.0-76.0-0.9,FALSE,FALSE,TRUE,TRUE,"""event"",""trial"",""time""
""fullscreenenter"",""5"",""19449""
","
","
","""event"",""trial"",""time""
""fullscreenenter"",""5"",""19449""
","
",291.32999991998076,NA,48,NA,NA,3000,1,NA,NA,images/earth.jpg,images/rocket1,images/rocket2,null,images/rocket1,NA,1,real,null,NA,NA,2,NA,sub124
d3-animate-choice,163,718478,0.0-76.0-1.9,FALSE,FALSE,TRUE,TRUE,"""event"",""trial"",""time""
""fullscreenenter"",""5"",""19449""
","
","
","""event"",""trial"",""time""
""fullscreenenter"",""5"",""19449""
","
",413.3000001311302,NA,48,NA,NA,3000,1,NA,NA,images/purpleplanet.jpg,images/alien4,images/alien3,images/rocket1,images/alien4,images/t.png,2,real,true,1,2020-06-29T22:50:45Z,2,common,sub124
two-step-fixation,164,719480,0.0-76.0-2.9,FALSE,FALSE,TRUE,TRUE,"""event"",""trial"",""time""
""fullscreenenter"",""5"",""19449""
","
","
","""event"",""trial"",""time""
""fullscreenenter"",""5"",""19449""
","
",NA,images/earth.jpg,NA,NA,NA,NA,NA,NA,NA,NA,NA,NA,NA,NA,NA,fixation,NA,NA,NA,NA,NA,NA,sub124
d3-animate-choice,165,721776,0.0-76.0-0.10,FALSE,FALSE,TRUE,TRUE,"""event"",""trial"",""time""
""fullscreenenter"",""5"",""19449""
","
","
","""event"",""trial"",""time""
""fullscreenenter"",""5"",""19449""
","
",292.5250001717359,NA,48,NA,NA,3000,1,NA,NA,images/earth.jpg,images/rocket1,images/rocket2,null,images/rocket1,NA,1,real,null,NA,NA,2,NA,sub124
d3-animate-choice,166,724197,0.0-76.0-1.10,FALSE,FALSE,TRUE,TRUE,"""event"",""trial"",""time""
""fullscreenenter"",""5"",""19449""
","
","
","""event"",""trial"",""time""
""fullscreenenter"",""5"",""19449""
","
",418.03500009700656,NA,48,NA,NA,3000,1,NA,NA,images/purpleplanet.jpg,images/alien4,images/alien3,images/rocket1,images/alien4,images/t.png,2,real,true,1,2020-06-29T22:50:50Z,2,common,sub124
two-step-fixation,167,725201,0.0-76.0-2.10,FALSE,FALSE,TRUE,TRUE,"""event"",""trial"",""time""
""fullscreenenter"",""5"",""19449""
","
","
","""event"",""trial"",""time""
""fullscreenenter"",""5"",""19449""
","
",NA,images/earth.jpg,NA,NA,NA,NA,NA,NA,NA,NA,NA,NA,NA,NA,NA,fixation,NA,NA,NA,NA,NA,NA,sub124
d3-animate-choice,168,727500,0.0-76.0-0.11,FALSE,FALSE,TRUE,TRUE,"""event"",""trial"",""time""
""fullscreenenter"",""5"",""19449""
","
","
","""event"",""trial"",""time""
""fullscreenenter"",""5"",""19449""
","
",294.7050000075251,NA,48,NA,NA,3000,1,NA,NA,images/earth.jpg,images/rocket1,images/rocket2,null,images/rocket1,NA,1,real,null,NA,NA,2,NA,sub124
d3-animate-choice,169,729871,0.0-76.0-1.11,FALSE,FALSE,TRUE,TRUE,"""event"",""trial"",""time""
""fullscreenenter"",""5"",""19449""
","
","
","""event"",""trial"",""time""
""fullscreenenter"",""5"",""19449""
","
",368.0000000167638,NA,48,NA,NA,3000,1,NA,NA,images/redplanet1.jpg,images/alien2,images/alien1,images/rocket1,images/alien2,images/t.png,2,real,false,1,2020-06-29T22:50:56Z,2,rare,sub124
two-step-fixation,170,730873,0.0-76.0-2.11,FALSE,FALSE,TRUE,TRUE,"""event"",""trial"",""time""
""fullscreenenter"",""5"",""19449""
","
","
","""event"",""trial"",""time""
""fullscreenenter"",""5"",""19449""
","
",NA,images/earth.jpg,NA,NA,NA,NA,NA,NA,NA,NA,NA,NA,NA,NA,NA,fixation,NA,NA,NA,NA,NA,NA,sub124
d3-animate-choice,171,733222,0.0-76.0-0.12,FALSE,FALSE,TRUE,TRUE,"""event"",""trial"",""time""
""fullscreenenter"",""5"",""19449""
","
","
","""event"",""trial"",""time""
""fullscreenenter"",""5"",""19449""
","
",344.89499987103045,NA,48,NA,NA,3000,1,NA,NA,images/earth.jpg,images/rocket1,images/rocket2,null,images/rocket1,NA,1,real,null,NA,NA,2,NA,sub124
d3-animate-choice,172,735575,0.0-76.0-1.12,FALSE,FALSE,TRUE,TRUE,"""event"",""trial"",""time""
""fullscreenenter"",""5"",""19449""
","
","
","""event"",""trial"",""time""
""fullscreenenter"",""5"",""19449""
","
",349.9149999115616,NA,48,NA,NA,3000,1,NA,NA,images/purpleplanet.jpg,images/alien4,images/alien3,images/rocket1,images/alien4,images/t.png,2,real,true,1,2020-06-29T22:51:02Z,2,common,sub124
two-step-fixation,173,736578,0.0-76.0-2.12,FALSE,FALSE,TRUE,TRUE,"""event"",""trial"",""time""
""fullscreenenter"",""5"",""19449""
","
","
","""event"",""trial"",""time""
""fullscreenenter"",""5"",""19449""
","
",NA,images/earth.jpg,NA,NA,NA,NA,NA,NA,NA,NA,NA,NA,NA,NA,NA,fixation,NA,NA,NA,NA,NA,NA,sub124
d3-animate-choice,174,738873,0.0-76.0-0.13,FALSE,FALSE,TRUE,TRUE,"""event"",""trial"",""time""
""fullscreenenter"",""5"",""19449""
","
","
","""event"",""trial"",""time""
""fullscreenenter"",""5"",""19449""
","
",290.53999995812774,NA,48,NA,NA,3000,1,NA,NA,images/earth.jpg,images/rocket1,images/rocket2,null,images/rocket1,NA,1,real,null,NA,NA,2,NA,sub124
d3-animate-choice,175,741387,0.0-76.0-1.13,FALSE,FALSE,TRUE,TRUE,"""event"",""trial"",""time""
""fullscreenenter"",""5"",""19449""
","
","
","""event"",""trial"",""time""
""fullscreenenter"",""5"",""19449""
","
",511.43499999307096,NA,48,NA,NA,3000,1,NA,NA,images/purpleplanet.jpg,images/alien4,images/alien3,images/rocket1,images/alien4,images/t.png,2,real,true,1,2020-06-29T22:51:08Z,2,common,sub124
two-step-fixation,176,742391,0.0-76.0-2.13,FALSE,FALSE,TRUE,TRUE,"""event"",""trial"",""time""
""fullscreenenter"",""5"",""19449""
","
","
","""event"",""trial"",""time""
""fullscreenenter"",""5"",""19449""
","
",NA,images/earth.jpg,NA,NA,NA,NA,NA,NA,NA,NA,NA,NA,NA,NA,NA,fixation,NA,NA,NA,NA,NA,NA,sub124
d3-animate-choice,177,744679,0.0-76.0-0.14,FALSE,FALSE,TRUE,TRUE,"""event"",""trial"",""time""
""fullscreenenter"",""5"",""19449""
","
","
","""event"",""trial"",""time""
""fullscreenenter"",""5"",""19449""
","
",284.26000010222197,NA,48,NA,NA,3000,1,NA,NA,images/earth.jpg,images/rocket1,images/rocket2,null,images/rocket1,NA,1,real,null,NA,NA,2,NA,sub124
d3-animate-choice,178,747040,0.0-76.0-1.14,FALSE,FALSE,TRUE,TRUE,"""event"",""trial"",""time""
""fullscreenenter"",""5"",""19449""
","
","
","""event"",""trial"",""time""
""fullscreenenter"",""5"",""19449""
","
",357.42000001482666,NA,48,NA,NA,3000,1,NA,NA,images/purpleplanet.jpg,images/alien4,images/alien3,images/rocket1,images/alien4,images/t.png,2,real,true,1,2020-06-29T22:51:13Z,2,common,sub124
two-step-fixation,179,748043,0.0-76.0-2.14,FALSE,FALSE,TRUE,TRUE,"""event"",""trial"",""time""
""fullscreenenter"",""5"",""19449""
","
","
","""event"",""trial"",""time""
""fullscreenenter"",""5"",""19449""
","
",NA,images/earth.jpg,NA,NA,NA,NA,NA,NA,NA,NA,NA,NA,NA,NA,NA,fixation,NA,NA,NA,NA,NA,NA,sub124
d3-animate-choice,180,750443,0.0-76.0-0.15,FALSE,FALSE,TRUE,TRUE,"""event"",""trial"",""time""
""fullscreenenter"",""5"",""19449""
","
","
","""event"",""trial"",""time""
""fullscreenenter"",""5"",""19449""
","
",395.72999998927116,NA,48,NA,NA,3000,1,NA,NA,images/earth.jpg,images/rocket1,images/rocket2,null,images/rocket1,NA,1,real,null,NA,NA,2,NA,sub124
d3-animate-choice,181,752778,0.0-76.0-1.15,FALSE,FALSE,TRUE,TRUE,"""event"",""trial"",""time""
""fullscreenenter"",""5"",""19449""
","
","
","""event"",""trial"",""time""
""fullscreenenter"",""5"",""19449""
","
",331.92499983124435,NA,48,NA,NA,3000,1,NA,NA,images/purpleplanet.jpg,images/alien4,images/alien3,images/rocket1,images/alien4,images/t.png,2,real,true,1,2020-06-29T22:51:19Z,2,common,sub124
two-step-fixation,182,753781,0.0-76.0-2.15,FALSE,FALSE,TRUE,TRUE,"""event"",""trial"",""time""
""fullscreenenter"",""5"",""19449""
","
","
","""event"",""trial"",""time""
""fullscreenenter"",""5"",""19449""
","
",NA,images/earth.jpg,NA,NA,NA,NA,NA,NA,NA,NA,NA,NA,NA,NA,NA,fixation,NA,NA,NA,NA,NA,NA,sub124
d3-animate-choice,183,756145,0.0-76.0-0.16,FALSE,FALSE,TRUE,TRUE,"""event"",""trial"",""time""
""fullscreenenter"",""5"",""19449""
","
","
","""event"",""trial"",""time""
""fullscreenenter"",""5"",""19449""
","
",359.7450000233948,NA,48,NA,NA,3000,1,NA,NA,images/earth.jpg,images/rocket1,images/rocket2,null,images/rocket1,NA,1,real,null,NA,NA,2,NA,sub124
d3-animate-choice,184,758583,0.0-76.0-1.16,FALSE,FALSE,TRUE,TRUE,"""event"",""trial"",""time""
""fullscreenenter"",""5"",""19449""
","
","
","""event"",""trial"",""time""
""fullscreenenter"",""5"",""19449""
","
",434.29000000469387,NA,48,NA,NA,3000,1,NA,NA,images/purpleplanet.jpg,images/alien4,images/alien3,images/rocket1,images/alien4,images/t.png,2,real,true,1,2020-06-29T22:51:25Z,2,common,sub124
two-step-fixation,185,759585,0.0-76.0-2.16,FALSE,FALSE,TRUE,TRUE,"""event"",""trial"",""time""
""fullscreenenter"",""5"",""19449""
","
","
","""event"",""trial"",""time""
""fullscreenenter"",""5"",""19449""
","
",NA,images/earth.jpg,NA,NA,NA,NA,NA,NA,NA,NA,NA,NA,NA,NA,NA,fixation,NA,NA,NA,NA,NA,NA,sub124
d3-animate-choice,186,761903,0.0-76.0-0.17,FALSE,FALSE,TRUE,TRUE,"""event"",""trial"",""time""
""fullscreenenter"",""5"",""19449""
","
","
","""event"",""trial"",""time""
""fullscreenenter"",""5"",""19449""
","
",314.2650001682341,NA,48,NA,NA,3000,1,NA,NA,images/earth.jpg,images/rocket1,images/rocket2,null,images/rocket1,NA,1,real,null,NA,NA,2,NA,sub124
d3-animate-choice,187,764449,0.0-76.0-1.17,FALSE,FALSE,TRUE,TRUE,"""event"",""trial"",""time""
""fullscreenenter"",""5"",""19449""
","
","
","""event"",""trial"",""time""
""fullscreenenter"",""5"",""19449""
","
",542.4250001087785,NA,48,NA,NA,3000,1,NA,NA,images/purpleplanet.jpg,images/alien4,images/alien3,images/rocket1,images/alien4,images/nothing.png,2,real,true,0,2020-06-29T22:51:31Z,2,common,sub124
two-step-fixation,188,765452,0.0-76.0-2.17,FALSE,FALSE,TRUE,TRUE,"""event"",""trial"",""time""
""fullscreenenter"",""5"",""19449""
","
","
","""event"",""trial"",""time""
""fullscreenenter"",""5"",""19449""
","
",NA,images/earth.jpg,NA,NA,NA,NA,NA,NA,NA,NA,NA,NA,NA,NA,NA,fixation,NA,NA,NA,NA,NA,NA,sub124
d3-animate-choice,189,767777,0.0-76.0-0.18,FALSE,FALSE,TRUE,TRUE,"""event"",""trial"",""time""
""fullscreenenter"",""5"",""19449""
","
","
","""event"",""trial"",""time""
""fullscreenenter"",""5"",""19449""
","
",321.75500015728176,NA,48,NA,NA,3000,1,NA,NA,images/earth.jpg,images/rocket1,images/rocket2,null,images/rocket1,NA,1,real,null,NA,NA,2,NA,sub124
d3-animate-choice,190,770270,0.0-76.0-1.18,FALSE,FALSE,TRUE,TRUE,"""event"",""trial"",""time""
""fullscreenenter"",""5"",""19449""
","
","
","""event"",""trial"",""time""
""fullscreenenter"",""5"",""19449""
","
",490.50000007264316,NA,48,NA,NA,3000,1,NA,NA,images/redplanet1.jpg,images/alien2,images/alien1,images/rocket1,images/alien2,images/t.png,2,real,false,1,2020-06-29T22:51:37Z,2,rare,sub124
two-step-fixation,191,771273,0.0-76.0-2.18,FALSE,FALSE,TRUE,TRUE,"""event"",""trial"",""time""
""fullscreenenter"",""5"",""19449""
","
","
","""event"",""trial"",""time""
""fullscreenenter"",""5"",""19449""
","
",NA,images/earth.jpg,NA,NA,NA,NA,NA,NA,NA,NA,NA,NA,NA,NA,NA,fixation,NA,NA,NA,NA,NA,NA,sub124
d3-animate-choice,192,773610,0.0-76.0-0.19,FALSE,FALSE,TRUE,TRUE,"""event"",""trial"",""time""
""fullscreenenter"",""5"",""19449""
","
","
","""event"",""trial"",""time""
""fullscreenenter"",""5"",""19449""
","
",334.3200001399964,NA,48,NA,NA,3000,1,NA,NA,images/earth.jpg,images/rocket1,images/rocket2,null,images/rocket1,NA,1,real,null,NA,NA,2,NA,sub124
d3-animate-choice,193,776247,0.0-76.0-1.19,FALSE,FALSE,TRUE,TRUE,"""event"",""trial"",""time""
""fullscreenenter"",""5"",""19449""
","
","
","""event"",""trial"",""time""
""fullscreenenter"",""5"",""19449""
","
",633.9750001206994,NA,48,NA,NA,3000,1,NA,NA,images/redplanet1.jpg,images/alien2,images/alien1,images/rocket1,images/alien2,images/t.png,2,real,false,1,2020-06-29T22:51:42Z,2,rare,sub124
two-step-fixation,194,777250,0.0-76.0-2.19,FALSE,FALSE,TRUE,TRUE,"""event"",""trial"",""time""
""fullscreenenter"",""5"",""19449""
","
","
","""event"",""trial"",""time""
""fullscreenenter"",""5"",""19449""
","
",NA,images/earth.jpg,NA,NA,NA,NA,NA,NA,NA,NA,NA,NA,NA,NA,NA,fixation,NA,NA,NA,NA,NA,NA,sub124
d3-animate-choice,195,779560,0.0-76.0-0.20,FALSE,FALSE,TRUE,TRUE,"""event"",""trial"",""time""
""fullscreenenter"",""5"",""19449""
","
","
","""event"",""trial"",""time""
""fullscreenenter"",""5"",""19449""
","
",306.80999998003244,NA,48,NA,NA,3000,1,NA,NA,images/earth.jpg,images/rocket1,images/rocket2,null,images/rocket1,NA,1,real,null,NA,NA,2,NA,sub124
d3-animate-choice,196,782625,0.0-76.0-1.20,FALSE,FALSE,TRUE,TRUE,"""event"",""trial"",""time""
""fullscreenenter"",""5"",""19449""
","
","
","""event"",""trial"",""time""
""fullscreenenter"",""5"",""19449""
","
",1062.1199999004602,NA,49,NA,NA,3000,1,NA,NA,images/purpleplanet.jpg,images/alien4,images/alien3,images/rocket1,images/alien3,images/nothing.png,2,real,true,0,2020-06-29T22:51:49Z,1,common,sub124
two-step-fixation,197,783629,0.0-76.0-2.20,FALSE,FALSE,TRUE,TRUE,"""event"",""trial"",""time""
""fullscreenenter"",""5"",""19449""
","
","
","""event"",""trial"",""time""
""fullscreenenter"",""5"",""19449""
","
",NA,images/earth.jpg,NA,NA,NA,NA,NA,NA,NA,NA,NA,NA,NA,NA,NA,fixation,NA,NA,NA,NA,NA,NA,sub124
d3-animate-choice,198,785964,0.0-76.0-0.21,FALSE,FALSE,TRUE,TRUE,"""event"",""trial"",""time""
""fullscreenenter"",""5"",""19449""
","
","
","""event"",""trial"",""time""
""fullscreenenter"",""5"",""19449""
","
",331.2550000846386,NA,48,NA,NA,3000,1,NA,NA,images/earth.jpg,images/rocket1,images/rocket2,null,images/rocket1,NA,1,real,null,NA,NA,2,NA,sub124
d3-animate-choice,199,788490,0.0-76.0-1.21,FALSE,FALSE,TRUE,TRUE,"""event"",""trial"",""time""
""fullscreenenter"",""5"",""19449""
","
","
","""event"",""trial"",""time""
""fullscreenenter"",""5"",""19449""
","
",521.5049998369068,NA,48,NA,NA,3000,1,NA,NA,images/purpleplanet.jpg,images/alien4,images/alien3,images/rocket1,images/alien4,images/t.png,2,real,true,1,2020-06-29T22:51:55Z,2,common,sub124
two-step-fixation,200,789494,0.0-76.0-2.21,FALSE,FALSE,TRUE,TRUE,"""event"",""trial"",""time""
""fullscreenenter"",""5"",""19449""
","
","
","""event"",""trial"",""time""
""fullscreenenter"",""5"",""19449""
","
",NA,images/earth.jpg,NA,NA,NA,NA,NA,NA,NA,NA,NA,NA,NA,NA,NA,fixation,NA,NA,NA,NA,NA,NA,sub124
d3-animate-choice,201,791802,0.0-76.0-0.22,FALSE,FALSE,TRUE,TRUE,"""event"",""trial"",""time""
""fullscreenenter"",""5"",""19449""
","
","
","""event"",""trial"",""time""
""fullscreenenter"",""5"",""19449""
","
",304.6049999538809,NA,48,NA,NA,3000,1,NA,NA,images/earth.jpg,images/rocket1,images/rocket2,null,images/rocket1,NA,1,real,null,NA,NA,2,NA,sub124
d3-animate-choice,202,794294,0.0-76.0-1.22,FALSE,FALSE,TRUE,TRUE,"""event"",""trial"",""time""
""fullscreenenter"",""5"",""19449""
","
","
","""event"",""trial"",""time""
""fullscreenenter"",""5"",""19449""
","
",488.344999961555,NA,48,NA,NA,3000,1,NA,NA,images/redplanet1.jpg,images/alien2,images/alien1,images/rocket1,images/alien2,images/t.png,2,real,false,1,2020-06-29T22:52:01Z,2,rare,sub124
two-step-fixation,203,795297,0.0-76.0-2.22,FALSE,FALSE,TRUE,TRUE,"""event"",""trial"",""time""
""fullscreenenter"",""5"",""19449""
","
","
","""event"",""trial"",""time""
""fullscreenenter"",""5"",""19449""
","
",NA,images/earth.jpg,NA,NA,NA,NA,NA,NA,NA,NA,NA,NA,NA,NA,NA,fixation,NA,NA,NA,NA,NA,NA,sub124
d3-animate-choice,204,797624,0.0-76.0-0.23,FALSE,FALSE,TRUE,TRUE,"""event"",""trial"",""time""
""fullscreenenter"",""5"",""19449""
","
","
","""event"",""trial"",""time""
""fullscreenenter"",""5"",""19449""
","
",323.4449999872595,NA,48,NA,NA,3000,1,NA,NA,images/earth.jpg,images/rocket1,images/rocket2,null,images/rocket1,NA,1,real,null,NA,NA,2,NA,sub124
d3-animate-choice,205,800130,0.0-76.0-1.23,FALSE,FALSE,TRUE,TRUE,"""event"",""trial"",""time""
""fullscreenenter"",""5"",""19449""
","
","
","""event"",""trial"",""time""
""fullscreenenter"",""5"",""19449""
","
",503.01999994553626,NA,48,NA,NA,3000,1,NA,NA,images/redplanet1.jpg,images/alien2,images/alien1,images/rocket1,images/alien2,images/nothing.png,2,real,false,0,2020-06-29T22:52:06Z,2,rare,sub124
two-step-fixation,206,801134,0.0-76.0-2.23,FALSE,FALSE,TRUE,TRUE,"""event"",""trial"",""time""
""fullscreenenter"",""5"",""19449""
","
","
","""event"",""trial"",""time""
""fullscreenenter"",""5"",""19449""
","
",NA,images/earth.jpg,NA,NA,NA,NA,NA,NA,NA,NA,NA,NA,NA,NA,NA,fixation,NA,NA,NA,NA,NA,NA,sub124
d3-animate-choice,207,803461,0.0-76.0-0.24,FALSE,FALSE,TRUE,TRUE,"""event"",""trial"",""time""
""fullscreenenter"",""5"",""19449""
","
","
","""event"",""trial"",""time""
""fullscreenenter"",""5"",""19449""
","
",323.9649999886751,NA,48,NA,NA,3000,1,NA,NA,images/earth.jpg,images/rocket1,images/rocket2,null,images/rocket1,NA,1,real,null,NA,NA,2,NA,sub124
d3-animate-choice,208,805994,0.0-76.0-1.24,FALSE,FALSE,TRUE,TRUE,"""event"",""trial"",""time""
""fullscreenenter"",""5"",""19449""
","
","
","""event"",""trial"",""time""
""fullscreenenter"",""5"",""19449""
","
",530.144999967888,NA,48,NA,NA,3000,1,NA,NA,images/purpleplanet.jpg,images/alien4,images/alien3,images/rocket1,images/alien4,images/nothing.png,2,real,true,0,2020-06-29T22:52:12Z,2,common,sub124
two-step-fixation,209,806998,0.0-76.0-2.24,FALSE,FALSE,TRUE,TRUE,"""event"",""trial"",""time""
""fullscreenenter"",""5"",""19449""
","
","
","""event"",""trial"",""time""
""fullscreenenter"",""5"",""19449""
","
",NA,images/earth.jpg,NA,NA,NA,NA,NA,NA,NA,NA,NA,NA,NA,NA,NA,fixation,NA,NA,NA,NA,NA,NA,sub124
d3-animate-choice,210,809288,0.0-76.0-0.25,FALSE,FALSE,TRUE,TRUE,"""event"",""trial"",""time""
""fullscreenenter"",""5"",""19449""
","
","
","""event"",""trial"",""time""
""fullscreenenter"",""5"",""19449""
","
",287.34000003896654,NA,48,NA,NA,3000,1,NA,NA,images/earth.jpg,images/rocket1,images/rocket2,null,images/rocket1,NA,1,real,null,NA,NA,2,NA,sub124
d3-animate-choice,211,811860,0.0-76.0-1.25,FALSE,FALSE,TRUE,TRUE,"""event"",""trial"",""time""
""fullscreenenter"",""5"",""19449""
","
","
","""event"",""trial"",""time""
""fullscreenenter"",""5"",""19449""
","
",568.5250000096858,NA,48,NA,NA,3000,1,NA,NA,images/purpleplanet.jpg,images/alien4,images/alien3,images/rocket1,images/alien4,images/t.png,2,real,true,1,2020-06-29T22:52:18Z,2,common,sub124
two-step-fixation,212,812863,0.0-76.0-2.25,FALSE,FALSE,TRUE,TRUE,"""event"",""trial"",""time""
""fullscreenenter"",""5"",""19449""
","
","
","""event"",""trial"",""time""
""fullscreenenter"",""5"",""19449""
","
",NA,images/earth.jpg,NA,NA,NA,NA,NA,NA,NA,NA,NA,NA,NA,NA,NA,fixation,NA,NA,NA,NA,NA,NA,sub124
d3-animate-choice,213,815196,0.0-76.0-0.26,FALSE,FALSE,TRUE,TRUE,"""event"",""trial"",""time""
""fullscreenenter"",""5"",""19449""
","
","
","""event"",""trial"",""time""
""fullscreenenter"",""5"",""19449""
","
",329.79500014334917,NA,48,NA,NA,3000,1,NA,NA,images/earth.jpg,images/rocket1,images/rocket2,null,images/rocket1,NA,1,real,null,NA,NA,2,NA,sub124
d3-animate-choice,214,817687,0.0-76.0-1.26,FALSE,FALSE,TRUE,TRUE,"""event"",""trial"",""time""
""fullscreenenter"",""5"",""19449""
","
","
","""event"",""trial"",""time""
""fullscreenenter"",""5"",""19449""
","
",487.775000045076,NA,48,NA,NA,3000,1,NA,NA,images/purpleplanet.jpg,images/alien4,images/alien3,images/rocket1,images/alien4,images/t.png,2,real,true,1,2020-06-29T22:52:24Z,2,common,sub124
two-step-fixation,215,818690,0.0-76.0-2.26,FALSE,FALSE,TRUE,TRUE,"""event"",""trial"",""time""
""fullscreenenter"",""5"",""19449""
","
","
","""event"",""trial"",""time""
""fullscreenenter"",""5"",""19449""
","
",NA,images/earth.jpg,NA,NA,NA,NA,NA,NA,NA,NA,NA,NA,NA,NA,NA,fixation,NA,NA,NA,NA,NA,NA,sub124
d3-animate-choice,216,821001,0.0-76.0-0.27,FALSE,FALSE,TRUE,TRUE,"""event"",""trial"",""time""
""fullscreenenter"",""5"",""19449""
","
","
","""event"",""trial"",""time""
""fullscreenenter"",""5"",""19449""
","
",307.6399997808039,NA,48,NA,NA,3000,1,NA,NA,images/earth.jpg,images/rocket1,images/rocket2,null,images/rocket1,NA,1,real,null,NA,NA,2,NA,sub124
d3-animate-choice,217,823425,0.0-76.0-1.27,FALSE,FALSE,TRUE,TRUE,"""event"",""trial"",""time""
""fullscreenenter"",""5"",""19449""
","
","
","""event"",""trial"",""time""
""fullscreenenter"",""5"",""19449""
","
",420.51499988883734,NA,48,NA,NA,3000,1,NA,NA,images/redplanet1.jpg,images/alien2,images/alien1,images/rocket1,images/alien2,images/t.png,2,real,false,1,2020-06-29T22:52:30Z,2,rare,sub124
two-step-fixation,218,824429,0.0-76.0-2.27,FALSE,FALSE,TRUE,TRUE,"""event"",""trial"",""time""
""fullscreenenter"",""5"",""19449""
","
","
","""event"",""trial"",""time""
""fullscreenenter"",""5"",""19449""
","
",NA,images/earth.jpg,NA,NA,NA,NA,NA,NA,NA,NA,NA,NA,NA,NA,NA,fixation,NA,NA,NA,NA,NA,NA,sub124
d3-animate-choice,219,826744,0.0-76.0-0.28,FALSE,FALSE,TRUE,TRUE,"""event"",""trial"",""time""
""fullscreenenter"",""5"",""19449""
","
","
","""event"",""trial"",""time""
""fullscreenenter"",""5"",""19449""
","
",311.18500023148954,NA,48,NA,NA,3000,1,NA,NA,images/earth.jpg,images/rocket1,images/rocket2,null,images/rocket1,NA,1,real,null,NA,NA,2,NA,sub124
d3-animate-choice,220,829129,0.0-76.0-1.28,FALSE,FALSE,TRUE,TRUE,"""event"",""trial"",""time""
""fullscreenenter"",""5"",""19449""
","
","
","""event"",""trial"",""time""
""fullscreenenter"",""5"",""19449""
","
",382.2599998675287,NA,48,NA,NA,3000,1,NA,NA,images/redplanet1.jpg,images/alien2,images/alien1,images/rocket1,images/alien2,images/t.png,2,real,false,1,2020-06-29T22:52:35Z,2,rare,sub124
two-step-fixation,221,830132,0.0-76.0-2.28,FALSE,FALSE,TRUE,TRUE,"""event"",""trial"",""time""
""fullscreenenter"",""5"",""19449""
","
","
","""event"",""trial"",""time""
""fullscreenenter"",""5"",""19449""
","
",NA,images/earth.jpg,NA,NA,NA,NA,NA,NA,NA,NA,NA,NA,NA,NA,NA,fixation,NA,NA,NA,NA,NA,NA,sub124
d3-animate-choice,222,832465,0.0-76.0-0.29,FALSE,FALSE,TRUE,TRUE,"""event"",""trial"",""time""
""fullscreenenter"",""5"",""19449""
","
","
","""event"",""trial"",""time""
""fullscreenenter"",""5"",""19449""
","
",329.3550000526011,NA,48,NA,NA,3000,1,NA,NA,images/earth.jpg,images/rocket1,images/rocket2,null,images/rocket1,NA,1,real,null,NA,NA,2,NA,sub124
d3-animate-choice,223,834908,0.0-76.0-1.29,FALSE,FALSE,TRUE,TRUE,"""event"",""trial"",""time""
""fullscreenenter"",""5"",""19449""
","
","
","""event"",""trial"",""time""
""fullscreenenter"",""5"",""19449""
","
",439.89999988116324,NA,48,NA,NA,3000,1,NA,NA,images/purpleplanet.jpg,images/alien4,images/alien3,images/rocket1,images/alien4,images/t.png,2,real,true,1,2020-06-29T22:52:41Z,2,common,sub124
two-step-fixation,224,835912,0.0-76.0-2.29,FALSE,FALSE,TRUE,TRUE,"""event"",""trial"",""time""
""fullscreenenter"",""5"",""19449""
","
","
","""event"",""trial"",""time""
""fullscreenenter"",""5"",""19449""
","
",NA,images/earth.jpg,NA,NA,NA,NA,NA,NA,NA,NA,NA,NA,NA,NA,NA,fixation,NA,NA,NA,NA,NA,NA,sub124
d3-animate-choice,225,838275,0.0-76.0-0.30,FALSE,FALSE,TRUE,TRUE,"""event"",""trial"",""time""
""fullscreenenter"",""5"",""19449""
","
","
","""event"",""trial"",""time""
""fullscreenenter"",""5"",""19449""
","
",360.03000009804964,NA,48,NA,NA,3000,1,NA,NA,images/earth.jpg,images/rocket1,images/rocket2,null,images/rocket1,NA,1,real,null,NA,NA,2,NA,sub124
d3-animate-choice,226,840692,0.0-76.0-1.30,FALSE,FALSE,TRUE,TRUE,"""event"",""trial"",""time""
""fullscreenenter"",""5"",""19449""
","
","
","""event"",""trial"",""time""
""fullscreenenter"",""5"",""19449""
","
",413.6449999641627,NA,48,NA,NA,3000,1,NA,NA,images/purpleplanet.jpg,images/alien4,images/alien3,images/rocket1,images/alien4,images/nothing.png,2,real,true,0,2020-06-29T22:52:47Z,2,common,sub124
two-step-fixation,227,841696,0.0-76.0-2.30,FALSE,FALSE,TRUE,TRUE,"""event"",""trial"",""time""
""fullscreenenter"",""5"",""19449""
","
","
","""event"",""trial"",""time""
""fullscreenenter"",""5"",""19449""
","
",NA,images/earth.jpg,NA,NA,NA,NA,NA,NA,NA,NA,NA,NA,NA,NA,NA,fixation,NA,NA,NA,NA,NA,NA,sub124
d3-animate-choice,228,844033,0.0-76.0-0.31,FALSE,FALSE,TRUE,TRUE,"""event"",""trial"",""time""
""fullscreenenter"",""5"",""19449""
","
","
","""event"",""trial"",""time""
""fullscreenenter"",""5"",""19449""
","
",332.58000016212463,NA,48,NA,NA,3000,1,NA,NA,images/earth.jpg,images/rocket1,images/rocket2,null,images/rocket1,NA,1,real,null,NA,NA,2,NA,sub124
d3-animate-choice,229,846565,0.0-76.0-1.31,FALSE,FALSE,TRUE,TRUE,"""event"",""trial"",""time""
""fullscreenenter"",""5"",""19449""
","
","
","""event"",""trial"",""time""
""fullscreenenter"",""5"",""19449""
","
",528.154999949038,NA,48,NA,NA,3000,1,NA,NA,images/purpleplanet.jpg,images/alien4,images/alien3,images/rocket1,images/alien4,images/t.png,2,real,true,1,2020-06-29T22:52:53Z,2,common,sub124
two-step-fixation,230,847569,0.0-76.0-2.31,FALSE,FALSE,TRUE,TRUE,"""event"",""trial"",""time""
""fullscreenenter"",""5"",""19449""
","
","
","""event"",""trial"",""time""
""fullscreenenter"",""5"",""19449""
","
",NA,images/earth.jpg,NA,NA,NA,NA,NA,NA,NA,NA,NA,NA,NA,NA,NA,fixation,NA,NA,NA,NA,NA,NA,sub124
d3-animate-choice,231,849909,0.0-76.0-0.32,FALSE,FALSE,TRUE,TRUE,"""event"",""trial"",""time""
""fullscreenenter"",""5"",""19449""
","
","
","""event"",""trial"",""time""
""fullscreenenter"",""5"",""19449""
","
",336.7550000548363,NA,48,NA,NA,3000,1,NA,NA,images/earth.jpg,images/rocket1,images/rocket2,null,images/rocket1,NA,1,real,null,NA,NA,2,NA,sub124
d3-animate-choice,232,852573,0.0-76.0-1.32,FALSE,FALSE,TRUE,TRUE,"""event"",""trial"",""time""
""fullscreenenter"",""5"",""19449""
","
","
","""event"",""trial"",""time""
""fullscreenenter"",""5"",""19449""
","
",659.4000000040978,NA,48,NA,NA,3000,1,NA,NA,images/redplanet1.jpg,images/alien2,images/alien1,images/rocket1,images/alien2,images/nothing.png,2,real,false,0,2020-06-29T22:52:59Z,2,rare,sub124
two-step-fixation,233,853576,0.0-76.0-2.32,FALSE,FALSE,TRUE,TRUE,"""event"",""trial"",""time""
""fullscreenenter"",""5"",""19449""
","
","
","""event"",""trial"",""time""
""fullscreenenter"",""5"",""19449""
","
",NA,images/earth.jpg,NA,NA,NA,NA,NA,NA,NA,NA,NA,NA,NA,NA,NA,fixation,NA,NA,NA,NA,NA,NA,sub124
d3-animate-choice,234,855947,0.0-76.0-0.33,FALSE,FALSE,TRUE,TRUE,"""event"",""trial"",""time""
""fullscreenenter"",""5"",""19449""
","
","
","""event"",""trial"",""time""
""fullscreenenter"",""5"",""19449""
","
",367.61999991722405,NA,48,NA,NA,3000,1,NA,NA,images/earth.jpg,images/rocket1,images/rocket2,null,images/rocket1,NA,1,real,null,NA,NA,2,NA,sub124
d3-animate-choice,235,858397,0.0-76.0-1.33,FALSE,FALSE,TRUE,TRUE,"""event"",""trial"",""time""
""fullscreenenter"",""5"",""19449""
","
","
","""event"",""trial"",""time""
""fullscreenenter"",""5"",""19449""
","
",446.68999989517033,NA,48,NA,NA,3000,1,NA,NA,images/purpleplanet.jpg,images/alien4,images/alien3,images/rocket1,images/alien4,images/t.png,2,real,true,1,2020-06-29T22:53:05Z,2,common,sub124
two-step-fixation,236,859401,0.0-76.0-2.33,FALSE,FALSE,TRUE,TRUE,"""event"",""trial"",""time""
""fullscreenenter"",""5"",""19449""
","
","
","""event"",""trial"",""time""
""fullscreenenter"",""5"",""19449""
","
",NA,images/earth.jpg,NA,NA,NA,NA,NA,NA,NA,NA,NA,NA,NA,NA,NA,fixation,NA,NA,NA,NA,NA,NA,sub124
d3-animate-choice,237,862030,0.0-76.0-0.34,FALSE,FALSE,TRUE,TRUE,"""event"",""trial"",""time""
""fullscreenenter"",""5"",""19449""
","
","
","""event"",""trial"",""time""
""fullscreenenter"",""5"",""19449""
","
",624.7000000439584,NA,48,NA,NA,3000,1,NA,NA,images/earth.jpg,images/rocket1,images/rocket2,null,images/rocket1,NA,1,real,null,NA,NA,2,NA,sub124
d3-animate-choice,238,864402,0.0-76.0-1.34,FALSE,FALSE,TRUE,TRUE,"""event"",""trial"",""time""
""fullscreenenter"",""5"",""19449""
","
","
","""event"",""trial"",""time""
""fullscreenenter"",""5"",""19449""
","
",367.9150000680238,NA,48,NA,NA,3000,1,2109.9700001068413,48,images/purpleplanet.jpg,images/alien4,images/alien3,images/rocket1,images/alien4,images/t.png,2,real,true,1,2020-06-29T22:53:11Z,2,common,sub124
two-step-fixation,239,865405,0.0-76.0-2.34,FALSE,FALSE,TRUE,TRUE,"""event"",""trial"",""time""
""fullscreenenter"",""5"",""19449""
","
","
","""event"",""trial"",""time""
""fullscreenenter"",""5"",""19449""
","
",NA,images/earth.jpg,NA,NA,NA,NA,NA,NA,NA,NA,NA,NA,NA,NA,NA,fixation,NA,NA,NA,NA,NA,NA,sub124
d3-animate-choice,240,867783,0.0-76.0-0.35,FALSE,FALSE,TRUE,TRUE,"""event"",""trial"",""time""
""fullscreenenter"",""5"",""19449""
","
","
","""event"",""trial"",""time""
""fullscreenenter"",""5"",""19449""
","
",375.1600000541657,NA,48,NA,NA,3000,1,NA,NA,images/earth.jpg,images/rocket1,images/rocket2,null,images/rocket1,NA,1,real,null,NA,NA,2,NA,sub124
d3-animate-choice,241,870301,0.0-76.0-1.35,FALSE,FALSE,TRUE,TRUE,"""event"",""trial"",""time""
""fullscreenenter"",""5"",""19449""
","
","
","""event"",""trial"",""time""
""fullscreenenter"",""5"",""19449""
","
",514.3599999137223,NA,48,NA,NA,3000,1,NA,NA,images/purpleplanet.jpg,images/alien4,images/alien3,images/rocket1,images/alien4,images/t.png,2,real,true,1,2020-06-29T22:53:17Z,2,common,sub124
two-step-fixation,242,871304,0.0-76.0-2.35,FALSE,FALSE,TRUE,TRUE,"""event"",""trial"",""time""
""fullscreenenter"",""5"",""19449""
","
","
","""event"",""trial"",""time""
""fullscreenenter"",""5"",""19449""
","
",NA,images/earth.jpg,NA,NA,NA,NA,NA,NA,NA,NA,NA,NA,NA,NA,NA,fixation,NA,NA,NA,NA,NA,NA,sub124
d3-animate-choice,243,873647,0.0-76.0-0.36,FALSE,FALSE,TRUE,TRUE,"""event"",""trial"",""time""
""fullscreenenter"",""5"",""19449""
","
","
","""event"",""trial"",""time""
""fullscreenenter"",""5"",""19449""
","
",339.0250001102686,NA,48,NA,NA,3000,1,NA,NA,images/earth.jpg,images/rocket1,images/rocket2,null,images/rocket1,NA,1,real,null,NA,NA,2,NA,sub124
d3-animate-choice,244,876111,0.0-76.0-1.36,FALSE,FALSE,TRUE,TRUE,"""event"",""trial"",""time""
""fullscreenenter"",""5"",""19449""
","
","
","""event"",""trial"",""time""
""fullscreenenter"",""5"",""19449""
","
",459.6400000154972,NA,48,NA,NA,3000,1,NA,NA,images/purpleplanet.jpg,images/alien4,images/alien3,images/rocket1,images/alien4,images/nothing.png,2,real,true,0,2020-06-29T22:53:22Z,2,common,sub124
two-step-fixation,245,877114,0.0-76.0-2.36,FALSE,FALSE,TRUE,TRUE,"""event"",""trial"",""time""
""fullscreenenter"",""5"",""19449""
","
","
","""event"",""trial"",""time""
""fullscreenenter"",""5"",""19449""
","
",NA,images/earth.jpg,NA,NA,NA,NA,NA,NA,NA,NA,NA,NA,NA,NA,NA,fixation,NA,NA,NA,NA,NA,NA,sub124
d3-animate-choice,246,879456,0.0-76.0-0.37,FALSE,FALSE,TRUE,TRUE,"""event"",""trial"",""time""
""fullscreenenter"",""5"",""19449""
","
","
","""event"",""trial"",""time""
""fullscreenenter"",""5"",""19449""
","
",338.01500010304153,NA,48,NA,NA,3000,1,NA,NA,images/earth.jpg,images/rocket1,images/rocket2,null,images/rocket1,NA,1,real,null,NA,NA,2,NA,sub124
d3-animate-choice,247,882260,0.0-76.0-1.37,FALSE,FALSE,TRUE,TRUE,"""event"",""trial"",""time""
""fullscreenenter"",""5"",""19449""
","
","
","""event"",""trial"",""time""
""fullscreenenter"",""5"",""19449""
","
",800.5500000435859,NA,48,NA,NA,3000,1,NA,NA,images/purpleplanet.jpg,images/alien4,images/alien3,images/rocket1,images/alien4,images/nothing.png,2,real,true,0,2020-06-29T22:53:28Z,2,common,sub124
two-step-fixation,248,883264,0.0-76.0-2.37,FALSE,FALSE,TRUE,TRUE,"""event"",""trial"",""time""
""fullscreenenter"",""5"",""19449""
","
","
","""event"",""trial"",""time""
""fullscreenenter"",""5"",""19449""
","
",NA,images/earth.jpg,NA,NA,NA,NA,NA,NA,NA,NA,NA,NA,NA,NA,NA,fixation,NA,NA,NA,NA,NA,NA,sub124
d3-animate-choice,249,885751,0.0-76.0-0.38,FALSE,FALSE,TRUE,TRUE,"""event"",""trial"",""time""
""fullscreenenter"",""5"",""19449""
","
","
","""event"",""trial"",""time""
""fullscreenenter"",""5"",""19449""
","
",483.5200000088662,NA,48,NA,NA,3000,1,NA,NA,images/earth.jpg,images/rocket1,images/rocket2,null,images/rocket1,NA,1,real,null,NA,NA,2,NA,sub124
d3-animate-choice,250,888209,0.0-76.0-1.38,FALSE,FALSE,TRUE,TRUE,"""event"",""trial"",""time""
""fullscreenenter"",""5"",""19449""
","
","
","""event"",""trial"",""time""
""fullscreenenter"",""5"",""19449""
","
",455.4100001696497,NA,48,NA,NA,3000,1,NA,NA,images/redplanet1.jpg,images/alien2,images/alien1,images/rocket1,images/alien2,images/t.png,2,real,false,1,2020-06-29T22:53:34Z,2,rare,sub124
two-step-fixation,251,889213,0.0-76.0-2.38,FALSE,FALSE,TRUE,TRUE,"""event"",""trial"",""time""
""fullscreenenter"",""5"",""19449""
","
","
","""event"",""trial"",""time""
""fullscreenenter"",""5"",""19449""
","
",NA,images/earth.jpg,NA,NA,NA,NA,NA,NA,NA,NA,NA,NA,NA,NA,NA,fixation,NA,NA,NA,NA,NA,NA,sub124
d3-animate-choice,252,891566,0.0-76.0-0.39,FALSE,FALSE,TRUE,TRUE,"""event"",""trial"",""time""
""fullscreenenter"",""5"",""19449""
","
","
","""event"",""trial"",""time""
""fullscreenenter"",""5"",""19449""
","
",349.9050000682473,NA,48,NA,NA,3000,1,NA,NA,images/earth.jpg,images/rocket1,images/rocket2,null,images/rocket1,NA,1,real,null,NA,NA,2,NA,sub124
d3-animate-choice,253,893945,0.0-76.0-1.39,FALSE,FALSE,TRUE,TRUE,"""event"",""trial"",""time""
""fullscreenenter"",""5"",""19449""
","
","
","""event"",""trial"",""time""
""fullscreenenter"",""5"",""19449""
","
",375.50500012002885,NA,48,NA,NA,3000,1,NA,NA,images/purpleplanet.jpg,images/alien4,images/alien3,images/rocket1,images/alien4,images/t.png,2,real,true,1,2020-06-29T22:53:40Z,2,common,sub124
two-step-fixation,254,894948,0.0-76.0-2.39,FALSE,FALSE,TRUE,TRUE,"""event"",""trial"",""time""
""fullscreenenter"",""5"",""19449""
","
","
","""event"",""trial"",""time""
""fullscreenenter"",""5"",""19449""
","
",NA,images/earth.jpg,NA,NA,NA,NA,NA,NA,NA,NA,NA,NA,NA,NA,NA,fixation,NA,NA,NA,NA,NA,NA,sub124
d3-animate-choice,255,897302,0.0-76.0-0.40,FALSE,FALSE,TRUE,TRUE,"""event"",""trial"",""time""
""fullscreenenter"",""5"",""19449""
","
","
","""event"",""trial"",""time""
""fullscreenenter"",""5"",""19449""
","
",350.4099999554455,NA,48,NA,NA,3000,1,NA,NA,images/earth.jpg,images/rocket1,images/rocket2,null,images/rocket1,NA,1,real,null,NA,NA,2,NA,sub124
d3-animate-choice,256,900126,0.0-76.0-1.40,FALSE,FALSE,TRUE,TRUE,"""event"",""trial"",""time""
""fullscreenenter"",""5"",""19449""
","
","
","""event"",""trial"",""time""
""fullscreenenter"",""5"",""19449""
","
",819.8600001633167,NA,48,NA,NA,3000,1,NA,NA,images/purpleplanet.jpg,images/alien4,images/alien3,images/rocket1,images/alien4,images/t.png,2,real,true,1,2020-06-29T22:53:46Z,2,common,sub124
two-step-fixation,257,901130,0.0-76.0-2.40,FALSE,FALSE,TRUE,TRUE,"""event"",""trial"",""time""
""fullscreenenter"",""5"",""19449""
","
","
","""event"",""trial"",""time""
""fullscreenenter"",""5"",""19449""
","
",NA,images/earth.jpg,NA,NA,NA,NA,NA,NA,NA,NA,NA,NA,NA,NA,NA,fixation,NA,NA,NA,NA,NA,NA,sub124
d3-animate-choice,258,903564,0.0-76.0-0.41,FALSE,FALSE,TRUE,TRUE,"""event"",""trial"",""time""
""fullscreenenter"",""5"",""19449""
","
","
","""event"",""trial"",""time""
""fullscreenenter"",""5"",""19449""
","
",431.72999983653426,NA,48,NA,NA,3000,1,NA,NA,images/earth.jpg,images/rocket1,images/rocket2,null,images/rocket1,NA,1,real,null,NA,NA,2,NA,sub124
d3-animate-choice,259,905990,0.0-76.0-1.41,FALSE,FALSE,TRUE,TRUE,"""event"",""trial"",""time""
""fullscreenenter"",""5"",""19449""
","
","
","""event"",""trial"",""time""
""fullscreenenter"",""5"",""19449""
","
",421.4399999473244,NA,48,NA,NA,3000,1,NA,NA,images/purpleplanet.jpg,images/alien4,images/alien3,images/rocket1,images/alien4,images/nothing.png,2,real,true,0,2020-06-29T22:53:52Z,2,common,sub124
two-step-fixation,260,906993,0.0-76.0-2.41,FALSE,FALSE,TRUE,TRUE,"""event"",""trial"",""time""
""fullscreenenter"",""5"",""19449""
","
","
","""event"",""trial"",""time""
""fullscreenenter"",""5"",""19449""
","
",NA,images/earth.jpg,NA,NA,NA,NA,NA,NA,NA,NA,NA,NA,NA,NA,NA,fixation,NA,NA,NA,NA,NA,NA,sub124
d3-animate-choice,261,909610,0.0-76.0-0.42,FALSE,FALSE,TRUE,TRUE,"""event"",""trial"",""time""
""fullscreenenter"",""5"",""19449""
","
","
","""event"",""trial"",""time""
""fullscreenenter"",""5"",""19449""
","
",612.6300001051277,NA,48,NA,NA,3000,1,NA,NA,images/earth.jpg,images/rocket1,images/rocket2,null,images/rocket1,NA,1,real,null,NA,NA,2,NA,sub124
d3-animate-choice,262,912065,0.0-76.0-1.42,FALSE,FALSE,TRUE,TRUE,"""event"",""trial"",""time""
""fullscreenenter"",""5"",""19449""
","
","
","""event"",""trial"",""time""
""fullscreenenter"",""5"",""19449""
","
",452.0849999971688,NA,48,NA,NA,3000,1,NA,NA,images/purpleplanet.jpg,images/alien4,images/alien3,images/rocket1,images/alien4,images/t.png,2,real,true,1,2020-06-29T22:53:58Z,2,common,sub124
two-step-fixation,263,913068,0.0-76.0-2.42,FALSE,FALSE,TRUE,TRUE,"""event"",""trial"",""time""
""fullscreenenter"",""5"",""19449""
","
","
","""event"",""trial"",""time""
""fullscreenenter"",""5"",""19449""
","
",NA,images/earth.jpg,NA,NA,NA,NA,NA,NA,NA,NA,NA,NA,NA,NA,NA,fixation,NA,NA,NA,NA,NA,NA,sub124
d3-animate-choice,264,915498,0.0-76.0-0.43,FALSE,FALSE,TRUE,TRUE,"""event"",""trial"",""time""
""fullscreenenter"",""5"",""19449""
","
","
","""event"",""trial"",""time""
""fullscreenenter"",""5"",""19449""
","
",425.7849999703467,NA,48,NA,NA,3000,1,NA,NA,images/earth.jpg,images/rocket1,images/rocket2,null,images/rocket1,NA,1,real,null,NA,NA,2,NA,sub124
d3-animate-choice,265,917877,0.0-76.0-1.43,FALSE,FALSE,TRUE,TRUE,"""event"",""trial"",""time""
""fullscreenenter"",""5"",""19449""
","
","
","""event"",""trial"",""time""
""fullscreenenter"",""5"",""19449""
","
",375.6049999501556,NA,48,NA,NA,3000,1,NA,NA,images/redplanet1.jpg,images/alien2,images/alien1,images/rocket1,images/alien2,images/t.png,2,real,false,1,2020-06-29T22:54:04Z,2,rare,sub124
two-step-fixation,266,918881,0.0-76.0-2.43,FALSE,FALSE,TRUE,TRUE,"""event"",""trial"",""time""
""fullscreenenter"",""5"",""19449""
","
","
","""event"",""trial"",""time""
""fullscreenenter"",""5"",""19449""
","
",NA,images/earth.jpg,NA,NA,NA,NA,NA,NA,NA,NA,NA,NA,NA,NA,NA,fixation,NA,NA,NA,NA,NA,NA,sub124
d3-animate-choice,267,921020,0.0-76.0-0.44,FALSE,FALSE,TRUE,TRUE,"""event"",""trial"",""time""
""fullscreenenter"",""5"",""19449""
","
","
","""event"",""trial"",""time""
""fullscreenenter"",""5"",""19449""
","
",135.0899999961257,NA,48,NA,NA,3000,1,NA,NA,images/earth.jpg,images/rocket1,images/rocket2,null,images/rocket1,NA,1,real,null,NA,NA,2,NA,sub124
d3-animate-choice,268,923644,0.0-76.0-1.44,FALSE,FALSE,TRUE,TRUE,"""event"",""trial"",""time""
""fullscreenenter"",""5"",""19449""
","
","
","""event"",""trial"",""time""
""fullscreenenter"",""5"",""19449""
","
",621.9599999021739,NA,48,NA,NA,3000,1,NA,NA,images/redplanet1.jpg,images/alien2,images/alien1,images/rocket1,images/alien2,images/nothing.png,2,real,false,0,2020-06-29T22:54:10Z,2,rare,sub124
two-step-fixation,269,924648,0.0-76.0-2.44,FALSE,FALSE,TRUE,TRUE,"""event"",""trial"",""time""
""fullscreenenter"",""5"",""19449""
","
","
","""event"",""trial"",""time""
""fullscreenenter"",""5"",""19449""
","
",NA,images/earth.jpg,NA,NA,NA,NA,NA,NA,NA,NA,NA,NA,NA,NA,NA,fixation,NA,NA,NA,NA,NA,NA,sub124
d3-animate-choice,270,927018,0.0-76.0-0.45,FALSE,FALSE,TRUE,TRUE,"""event"",""trial"",""time""
""fullscreenenter"",""5"",""19449""
","
","
","""event"",""trial"",""time""
""fullscreenenter"",""5"",""19449""
","
",367.6249999552965,NA,48,NA,NA,3000,1,NA,NA,images/earth.jpg,images/rocket1,images/rocket2,null,images/rocket1,NA,1,real,null,NA,NA,2,NA,sub124
d3-animate-choice,271,929527,0.0-76.0-1.45,FALSE,FALSE,TRUE,TRUE,"""event"",""trial"",""time""
""fullscreenenter"",""5"",""19449""
","
","
","""event"",""trial"",""time""
""fullscreenenter"",""5"",""19449""
","
",504.9999998882413,NA,48,NA,NA,3000,1,NA,NA,images/redplanet1.jpg,images/alien2,images/alien1,images/rocket1,images/alien2,images/t.png,2,real,false,1,2020-06-29T22:54:16Z,2,rare,sub124
two-step-fixation,272,930530,0.0-76.0-2.45,FALSE,FALSE,TRUE,TRUE,"""event"",""trial"",""time""
""fullscreenenter"",""5"",""19449""
","
","
","""event"",""trial"",""time""
""fullscreenenter"",""5"",""19449""
","
",NA,images/earth.jpg,NA,NA,NA,NA,NA,NA,NA,NA,NA,NA,NA,NA,NA,fixation,NA,NA,NA,NA,NA,NA,sub124
d3-animate-choice,273,932875,0.0-76.0-0.46,FALSE,FALSE,TRUE,TRUE,"""event"",""trial"",""time""
""fullscreenenter"",""5"",""19449""
","
","
","""event"",""trial"",""time""
""fullscreenenter"",""5"",""19449""
","
",340.89000010862947,NA,48,NA,NA,3000,1,NA,NA,images/earth.jpg,images/rocket1,images/rocket2,null,images/rocket1,NA,1,real,null,NA,NA,2,NA,sub124
d3-animate-choice,274,935338,0.0-76.0-1.46,FALSE,FALSE,TRUE,TRUE,"""event"",""trial"",""time""
""fullscreenenter"",""5"",""19449""
","
","
","""event"",""trial"",""time""
""fullscreenenter"",""5"",""19449""
","
",459.79500003159046,NA,48,NA,NA,3000,1,NA,NA,images/purpleplanet.jpg,images/alien4,images/alien3,images/rocket1,images/alien4,images/nothing.png,2,real,true,0,2020-06-29T22:54:22Z,2,common,sub124
two-step-fixation,275,936342,0.0-76.0-2.46,FALSE,FALSE,TRUE,TRUE,"""event"",""trial"",""time""
""fullscreenenter"",""5"",""19449""
","
","
","""event"",""trial"",""time""
""fullscreenenter"",""5"",""19449""
","
",NA,images/earth.jpg,NA,NA,NA,NA,NA,NA,NA,NA,NA,NA,NA,NA,NA,fixation,NA,NA,NA,NA,NA,NA,sub124
d3-animate-choice,276,938676,0.0-76.0-0.47,FALSE,FALSE,TRUE,TRUE,"""event"",""trial"",""time""
""fullscreenenter"",""5"",""19449""
","
","
","""event"",""trial"",""time""
""fullscreenenter"",""5"",""19449""
","
",330.78499999828637,NA,48,NA,NA,3000,1,NA,NA,images/earth.jpg,images/rocket1,images/rocket2,null,images/rocket1,NA,1,real,null,NA,NA,2,NA,sub124
d3-animate-choice,277,941000,0.0-76.0-1.47,FALSE,FALSE,TRUE,TRUE,"""event"",""trial"",""time""
""fullscreenenter"",""5"",""19449""
","
","
","""event"",""trial"",""time""
""fullscreenenter"",""5"",""19449""
","
",320.50999999046326,NA,48,NA,NA,3000,1,NA,NA,images/purpleplanet.jpg,images/alien4,images/alien3,images/rocket1,images/alien4,images/nothing.png,2,real,true,0,2020-06-29T22:54:27Z,2,common,sub124
two-step-fixation,278,942003,0.0-76.0-2.47,FALSE,FALSE,TRUE,TRUE,"""event"",""trial"",""time""
""fullscreenenter"",""5"",""19449""
","
","
","""event"",""trial"",""time""
""fullscreenenter"",""5"",""19449""
","
",NA,images/earth.jpg,NA,NA,NA,NA,NA,NA,NA,NA,NA,NA,NA,NA,NA,fixation,NA,NA,NA,NA,NA,NA,sub124
d3-animate-choice,279,944354,0.0-76.0-0.48,FALSE,FALSE,TRUE,TRUE,"""event"",""trial"",""time""
""fullscreenenter"",""5"",""19449""
","
","
","""event"",""trial"",""time""
""fullscreenenter"",""5"",""19449""
","
",345.7599999383092,NA,48,NA,NA,3000,1,NA,NA,images/earth.jpg,images/rocket1,images/rocket2,null,images/rocket1,NA,1,real,null,NA,NA,2,NA,sub124
d3-animate-choice,280,946726,0.0-76.0-1.48,FALSE,FALSE,TRUE,TRUE,"""event"",""trial"",""time""
""fullscreenenter"",""5"",""19449""
","
","
","""event"",""trial"",""time""
""fullscreenenter"",""5"",""19449""
","
",368.80000005476177,NA,48,NA,NA,3000,1,NA,NA,images/redplanet1.jpg,images/alien2,images/alien1,images/rocket1,images/alien2,images/nothing.png,2,real,false,0,2020-06-29T22:54:33Z,2,rare,sub124
two-step-fixation,281,947730,0.0-76.0-2.48,FALSE,FALSE,TRUE,TRUE,"""event"",""trial"",""time""
""fullscreenenter"",""5"",""19449""
","
","
","""event"",""trial"",""time""
""fullscreenenter"",""5"",""19449""
","
",NA,images/earth.jpg,NA,NA,NA,NA,NA,NA,NA,NA,NA,NA,NA,NA,NA,fixation,NA,NA,NA,NA,NA,NA,sub124
d3-animate-choice,282,950110,0.0-76.0-0.49,FALSE,FALSE,TRUE,TRUE,"""event"",""trial"",""time""
""fullscreenenter"",""5"",""19449""
","
","
","""event"",""trial"",""time""
""fullscreenenter"",""5"",""19449""
","
",376.3900001067668,NA,48,NA,NA,3000,1,NA,NA,images/earth.jpg,images/rocket1,images/rocket2,null,images/rocket1,NA,1,real,null,NA,NA,2,NA,sub124
