trial_type,trial_index,time_elapsed,internal_node_id,rocket_sides,red_planet_first_rocket,red_display_order,purple_display_order,interactions,blur_events,focus_events,fullscreenenter_events,fullscreenexit_events,rt,stimulus,key_press,button_pressed,success,duration,valid_pressed,rts,keys,planet_text,right_text,left_text,center_text,chosen_text,reward_text,trial_stage,practice_trial,transition_type,choice,transition,reward,timestamp,subject_id
pavlovia,0,7,0.0-0.0,TRUE,FALSE,FALSE,FALSE,"
","
","
","
","
",NA,NA,NA,NA,NA,NA,NA,NA,NA,NA,NA,NA,NA,NA,NA,NA,NA,NA,NA,NA,NA,NA,sub149
html-keyboard-response,1,1284,0.0-1.0,TRUE,FALSE,FALSE,FALSE,"
","
","
","
","
",1272,Welcome! Press the space bar to begin.,32,NA,NA,NA,NA,NA,NA,NA,NA,NA,NA,NA,NA,NA,NA,NA,NA,NA,NA,NA,sub149
audio-keyboard-response,2,40317,0.0-2.0,TRUE,FALSE,FALSE,FALSE,"
","
","
","
","
",38908,audio/beep_loop.wav,32,NA,NA,NA,NA,NA,NA,NA,NA,NA,NA,NA,NA,NA,NA,NA,NA,NA,NA,NA,sub149
audio-button-response,3,43728,0.0-3.0,TRUE,FALSE,FALSE,FALSE,"
","
","
","
","
",NaN,audio/fish.mp3,NA,1,NA,NA,NA,NA,NA,NA,NA,NA,NA,NA,NA,NA,NA,NA,NA,NA,NA,NA,sub149
audio-button-response,4,46062,0.0-4.0,TRUE,FALSE,FALSE,FALSE,"""event"",""trial"",""time""
""fullscreenenter"",""5"",""50368""
","
","
","""event"",""trial"",""time""
""fullscreenenter"",""5"",""50368""
","
",NaN,audio/tiger.mp3,NA,4,NA,NA,NA,NA,NA,NA,NA,NA,NA,NA,NA,NA,NA,NA,NA,NA,NA,NA,sub149
fullscreen,5,51297,0.0-5.0,TRUE,FALSE,FALSE,FALSE,"""event"",""trial"",""time""
""fullscreenenter"",""5"",""50368""
","
","
","""event"",""trial"",""time""
""fullscreenenter"",""5"",""50368""
","
",NA,NA,NA,NA,TRUE,NA,NA,NA,NA,NA,NA,NA,NA,NA,NA,NA,NA,NA,NA,NA,NA,NA,sub149
d3-instructions,6,65588,0.0-6.0,TRUE,FALSE,FALSE,FALSE,"""event"",""trial"",""time""
""fullscreenenter"",""5"",""50368""
","
","
","""event"",""trial"",""time""
""fullscreenenter"",""5"",""50368""
","
",NA,NA,NA,NA,NA,NA,NA,NA,NA,NA,NA,NA,NA,NA,NA,NA,NA,NA,NA,NA,NA,NA,sub149
d3-instructions,7,72918,0.0-7.0,TRUE,FALSE,FALSE,FALSE,"""event"",""trial"",""time""
""fullscreenenter"",""5"",""50368""
","
","
","""event"",""trial"",""time""
""fullscreenenter"",""5"",""50368""
","
",NA,NA,NA,NA,NA,NA,NA,NA,NA,NA,NA,NA,NA,NA,NA,NA,NA,NA,NA,NA,NA,NA,sub149
d3-instructions,8,79147,0.0-8.0,TRUE,FALSE,FALSE,FALSE,"""event"",""trial"",""time""
""fullscreenenter"",""5"",""50368""
","
","
","""event"",""trial"",""time""
""fullscreenenter"",""5"",""50368""
","
",NA,NA,NA,NA,NA,NA,NA,NA,NA,NA,NA,NA,NA,NA,NA,NA,NA,NA,NA,NA,NA,NA,sub149
d3-instructions,9,89753,0.0-9.0,TRUE,FALSE,FALSE,FALSE,"""event"",""trial"",""time""
""fullscreenenter"",""5"",""50368""
","
","
","""event"",""trial"",""time""
""fullscreenenter"",""5"",""50368""
","
",NA,NA,NA,NA,NA,NA,NA,NA,NA,NA,NA,NA,NA,NA,NA,NA,NA,NA,NA,NA,NA,NA,sub149
d3-instructions,10,109479,0.0-10.0,TRUE,FALSE,FALSE,FALSE,"""event"",""trial"",""time""
""fullscreenenter"",""5"",""50368""
","
","
","""event"",""trial"",""time""
""fullscreenenter"",""5"",""50368""
","
",NA,NA,NA,NA,NA,NA,NA,NA,NA,NA,NA,NA,NA,NA,NA,NA,NA,NA,NA,NA,NA,NA,sub149
d3-animate-choice,11,113580,0.0-11.0,TRUE,FALSE,FALSE,FALSE,"""event"",""trial"",""time""
""fullscreenenter"",""5"",""50368""
","
","
","""event"",""trial"",""time""
""fullscreenenter"",""5"",""50368""
","
",2092.0000000000146,NA,49,NA,NA,3000,1,3419,48,images/tutgreenplanet.jpg,images/tutalien1,images/tutalien2,null,images/tutalien2,NA,NA,practice,null,NA,NA,NA,NA,sub149
d3-animate-choice,12,115913,0.0-12.0,TRUE,FALSE,FALSE,FALSE,"""event"",""trial"",""time""
""fullscreenenter"",""5"",""50368""
","
","
","""event"",""trial"",""time""
""fullscreenenter"",""5"",""50368""
","
",328,NA,48,NA,NA,3000,1,NA,NA,images/tutgreenplanet.jpg,images/tutalien1,images/tutalien2,null,images/tutalien1,NA,NA,practice,null,NA,NA,NA,NA,sub149
d3-animate-choice,13,118413,0.0-13.0,TRUE,FALSE,FALSE,FALSE,"""event"",""trial"",""time""
""fullscreenenter"",""5"",""50368""
","
","
","""event"",""trial"",""time""
""fullscreenenter"",""5"",""50368""
","
",496,NA,49,NA,NA,3000,1,NA,NA,images/tutgreenplanet.jpg,images/tutalien1,images/tutalien2,null,images/tutalien2,NA,NA,practice,null,NA,NA,NA,NA,sub149
d3-animate-choice,14,120697,0.0-14.0,TRUE,FALSE,FALSE,FALSE,"""event"",""trial"",""time""
""fullscreenenter"",""5"",""50368""
","
","
","""event"",""trial"",""time""
""fullscreenenter"",""5"",""50368""
","
",278.9999999999709,NA,48,NA,NA,3000,1,NA,NA,images/tutgreenplanet.jpg,images/tutalien1,images/tutalien2,null,images/tutalien1,NA,NA,practice,null,NA,NA,NA,NA,sub149
d3-instructions,15,128424,0.0-15.0,TRUE,FALSE,FALSE,FALSE,"""event"",""trial"",""time""
""fullscreenenter"",""5"",""50368""
","
","
","""event"",""trial"",""time""
""fullscreenenter"",""5"",""50368""
","
",NA,NA,NA,NA,NA,NA,NA,NA,NA,NA,NA,NA,NA,NA,NA,NA,NA,NA,NA,NA,NA,NA,sub149
d3-instructions,16,135565,0.0-16.0,TRUE,FALSE,FALSE,FALSE,"""event"",""trial"",""time""
""fullscreenenter"",""5"",""50368""
","
","
","""event"",""trial"",""time""
""fullscreenenter"",""5"",""50368""
","
",NA,NA,NA,NA,NA,NA,NA,NA,NA,NA,NA,NA,NA,NA,NA,NA,NA,NA,NA,NA,NA,NA,sub149
d3-instructions,17,144714,0.0-17.0,TRUE,FALSE,FALSE,FALSE,"""event"",""trial"",""time""
""fullscreenenter"",""5"",""50368""
","
","
","""event"",""trial"",""time""
""fullscreenenter"",""5"",""50368""
","
",NA,NA,NA,NA,NA,NA,NA,NA,NA,NA,NA,NA,NA,NA,NA,NA,NA,NA,NA,NA,NA,NA,sub149
d3-instructions,18,157648,0.0-18.0,TRUE,FALSE,FALSE,FALSE,"""event"",""trial"",""time""
""fullscreenenter"",""5"",""50368""
","
","
","""event"",""trial"",""time""
""fullscreenenter"",""5"",""50368""
","
",NA,NA,NA,NA,NA,NA,NA,NA,NA,NA,NA,NA,NA,NA,NA,NA,NA,NA,NA,NA,NA,NA,sub149
d3-instructions,19,171440,0.0-19.0,TRUE,FALSE,FALSE,FALSE,"""event"",""trial"",""time""
""fullscreenenter"",""5"",""50368""
","
","
","""event"",""trial"",""time""
""fullscreenenter"",""5"",""50368""
","
",NA,NA,NA,NA,NA,NA,NA,NA,NA,NA,NA,NA,NA,NA,NA,NA,NA,NA,NA,NA,NA,NA,sub149
d3-animate-choice,20,174113,0.0-20.0,TRUE,FALSE,FALSE,FALSE,"""event"",""trial"",""time""
""fullscreenenter"",""5"",""50368""
","
","
","""event"",""trial"",""time""
""fullscreenenter"",""5"",""50368""
","
",668,NA,49,NA,NA,3000,1,NA,NA,images/tutyellowplanet.jpg,null,images/tutalien3,null,images/tutalien3,images/t.png,NA,practice,null,NA,NA,NA,NA,sub149
d3-animate-choice,21,176435,0.0-21.0,TRUE,FALSE,FALSE,FALSE,"""event"",""trial"",""time""
""fullscreenenter"",""5"",""50368""
","
","
","""event"",""trial"",""time""
""fullscreenenter"",""5"",""50368""
","
",319,NA,49,NA,NA,3000,1,NA,NA,images/tutyellowplanet.jpg,null,images/tutalien3,null,images/tutalien3,images/t.png,NA,practice,null,NA,NA,NA,NA,sub149
d3-animate-choice,22,178676,0.0-22.0,TRUE,FALSE,FALSE,FALSE,"""event"",""trial"",""time""
""fullscreenenter"",""5"",""50368""
","
","
","""event"",""trial"",""time""
""fullscreenenter"",""5"",""50368""
","
",238,NA,49,NA,NA,3000,1,NA,NA,images/tutyellowplanet.jpg,null,images/tutalien3,null,images/tutalien3,images/t.png,NA,practice,null,NA,NA,NA,NA,sub149
d3-animate-choice,23,180970,0.0-23.0,TRUE,FALSE,FALSE,FALSE,"""event"",""trial"",""time""
""fullscreenenter"",""5"",""50368""
","
","
","""event"",""trial"",""time""
""fullscreenenter"",""5"",""50368""
","
",292,NA,49,NA,NA,3000,1,NA,NA,images/tutyellowplanet.jpg,null,images/tutalien3,null,images/tutalien3,images/t.png,NA,practice,null,NA,NA,NA,NA,sub149
d3-animate-choice,24,183288,0.0-24.0,TRUE,FALSE,FALSE,FALSE,"""event"",""trial"",""time""
""fullscreenenter"",""5"",""50368""
","
","
","""event"",""trial"",""time""
""fullscreenenter"",""5"",""50368""
","
",314.0000000000291,NA,49,NA,NA,3000,1,NA,NA,images/tutyellowplanet.jpg,null,images/tutalien3,null,images/tutalien3,images/t.png,NA,practice,null,NA,NA,NA,NA,sub149
d3-animate-choice,25,185549,0.0-25.0,TRUE,FALSE,FALSE,FALSE,"""event"",""trial"",""time""
""fullscreenenter"",""5"",""50368""
","
","
","""event"",""trial"",""time""
""fullscreenenter"",""5"",""50368""
","
",257,NA,49,NA,NA,3000,1,NA,NA,images/tutyellowplanet.jpg,null,images/tutalien3,null,images/tutalien3,images/t.png,NA,practice,null,NA,NA,NA,NA,sub149
d3-animate-choice,26,187877,0.0-26.0,TRUE,FALSE,FALSE,FALSE,"""event"",""trial"",""time""
""fullscreenenter"",""5"",""50368""
","
","
","""event"",""trial"",""time""
""fullscreenenter"",""5"",""50368""
","
",323,NA,49,NA,NA,3000,1,NA,NA,images/tutyellowplanet.jpg,null,images/tutalien3,null,images/tutalien3,images/t.png,NA,practice,null,NA,NA,NA,NA,sub149
d3-animate-choice,27,190193,0.0-27.0,TRUE,FALSE,FALSE,FALSE,"""event"",""trial"",""time""
""fullscreenenter"",""5"",""50368""
","
","
","""event"",""trial"",""time""
""fullscreenenter"",""5"",""50368""
","
",312,NA,49,NA,NA,3000,1,NA,NA,images/tutyellowplanet.jpg,null,images/tutalien3,null,images/tutalien3,images/t.png,NA,practice,null,NA,NA,NA,NA,sub149
d3-animate-choice,28,192537,0.0-28.0,TRUE,FALSE,FALSE,FALSE,"""event"",""trial"",""time""
""fullscreenenter"",""5"",""50368""
","
","
","""event"",""trial"",""time""
""fullscreenenter"",""5"",""50368""
","
",339,NA,49,NA,NA,3000,1,NA,NA,images/tutyellowplanet.jpg,null,images/tutalien3,null,images/tutalien3,images/t.png,NA,practice,null,NA,NA,NA,NA,sub149
d3-animate-choice,29,194832,0.0-29.0,TRUE,FALSE,FALSE,FALSE,"""event"",""trial"",""time""
""fullscreenenter"",""5"",""50368""
","
","
","""event"",""trial"",""time""
""fullscreenenter"",""5"",""50368""
","
",292,NA,49,NA,NA,3000,1,NA,NA,images/tutyellowplanet.jpg,null,images/tutalien3,null,images/tutalien3,images/t.png,NA,practice,null,NA,NA,NA,NA,sub149
d3-instructions,30,201868,0.0-30.0,TRUE,FALSE,FALSE,FALSE,"""event"",""trial"",""time""
""fullscreenenter"",""5"",""50368""
","
","
","""event"",""trial"",""time""
""fullscreenenter"",""5"",""50368""
","
",NA,NA,NA,NA,NA,NA,NA,NA,NA,NA,NA,NA,NA,NA,NA,NA,NA,NA,NA,NA,NA,NA,sub149
d3-instructions,31,211977,0.0-31.0,TRUE,FALSE,FALSE,FALSE,"""event"",""trial"",""time""
""fullscreenenter"",""5"",""50368""
","
","
","""event"",""trial"",""time""
""fullscreenenter"",""5"",""50368""
","
",NA,NA,NA,NA,NA,NA,NA,NA,NA,NA,NA,NA,NA,NA,NA,NA,NA,NA,NA,NA,NA,NA,sub149
d3-instructions,32,219994,0.0-32.0,TRUE,FALSE,FALSE,FALSE,"""event"",""trial"",""time""
""fullscreenenter"",""5"",""50368""
","
","
","""event"",""trial"",""time""
""fullscreenenter"",""5"",""50368""
","
",NA,NA,NA,NA,NA,NA,NA,NA,NA,NA,NA,NA,NA,NA,NA,NA,NA,NA,NA,NA,NA,NA,sub149
d3-instructions,33,231358,0.0-33.0,TRUE,FALSE,FALSE,FALSE,"""event"",""trial"",""time""
""fullscreenenter"",""5"",""50368""
","
","
","""event"",""trial"",""time""
""fullscreenenter"",""5"",""50368""
","
",NA,NA,NA,NA,NA,NA,NA,NA,NA,NA,NA,NA,NA,NA,NA,NA,NA,NA,NA,NA,NA,NA,sub149
d3-animate-choice,34,234647,0.0-34.0,TRUE,FALSE,FALSE,FALSE,"""event"",""trial"",""time""
""fullscreenenter"",""5"",""50368""
","
","
","""event"",""trial"",""time""
""fullscreenenter"",""5"",""50368""
","
",1286,NA,49,NA,NA,3000,1,NA,NA,images/tutgreenplanet.jpg,images/tutalien1,images/tutalien2,null,images/tutalien2,images/t.png,NA,practice,null,NA,NA,NA,NA,sub149
d3-animate-choice,35,236994,0.0-35.0,TRUE,FALSE,FALSE,FALSE,"""event"",""trial"",""time""
""fullscreenenter"",""5"",""50368""
","
","
","""event"",""trial"",""time""
""fullscreenenter"",""5"",""50368""
","
",343,NA,49,NA,NA,3000,1,NA,NA,images/tutgreenplanet.jpg,images/tutalien1,images/tutalien2,null,images/tutalien2,images/t.png,NA,practice,null,NA,NA,NA,NA,sub149
d3-animate-choice,36,239264,0.0-36.0,TRUE,FALSE,FALSE,FALSE,"""event"",""trial"",""time""
""fullscreenenter"",""5"",""50368""
","
","
","""event"",""trial"",""time""
""fullscreenenter"",""5"",""50368""
","
",265.9999999999709,NA,49,NA,NA,3000,1,NA,NA,images/tutgreenplanet.jpg,images/tutalien1,images/tutalien2,null,images/tutalien2,images/t.png,NA,practice,null,NA,NA,NA,NA,sub149
d3-animate-choice,37,241478,0.0-37.0,TRUE,FALSE,FALSE,FALSE,"""event"",""trial"",""time""
""fullscreenenter"",""5"",""50368""
","
","
","""event"",""trial"",""time""
""fullscreenenter"",""5"",""50368""
","
",210.9999999999418,NA,49,NA,NA,3000,1,NA,NA,images/tutgreenplanet.jpg,images/tutalien1,images/tutalien2,null,images/tutalien2,images/t.png,NA,practice,null,NA,NA,NA,NA,sub149
d3-animate-choice,38,243593,0.0-38.0,TRUE,FALSE,FALSE,FALSE,"""event"",""trial"",""time""
""fullscreenenter"",""5"",""50368""
","
","
","""event"",""trial"",""time""
""fullscreenenter"",""5"",""50368""
","
",111.9999999999709,NA,49,NA,NA,3000,1,NA,NA,images/tutgreenplanet.jpg,images/tutalien1,images/tutalien2,null,images/tutalien2,images/nothing.png,NA,practice,null,NA,NA,NA,NA,sub149
d3-animate-choice,39,245847,0.0-39.0,TRUE,FALSE,FALSE,FALSE,"""event"",""trial"",""time""
""fullscreenenter"",""5"",""50368""
","
","
","""event"",""trial"",""time""
""fullscreenenter"",""5"",""50368""
","
",249.0000000000291,NA,49,NA,NA,3000,1,NA,NA,images/tutgreenplanet.jpg,images/tutalien1,images/tutalien2,null,images/tutalien2,images/t.png,NA,practice,null,NA,NA,NA,NA,sub149
d3-animate-choice,40,248087,0.0-40.0,TRUE,FALSE,FALSE,FALSE,"""event"",""trial"",""time""
""fullscreenenter"",""5"",""50368""
","
","
","""event"",""trial"",""time""
""fullscreenenter"",""5"",""50368""
","
",237,NA,49,NA,NA,3000,1,NA,NA,images/tutgreenplanet.jpg,images/tutalien1,images/tutalien2,null,images/tutalien2,images/t.png,NA,practice,null,NA,NA,NA,NA,sub149
d3-animate-choice,41,250305,0.0-41.0,TRUE,FALSE,FALSE,FALSE,"""event"",""trial"",""time""
""fullscreenenter"",""5"",""50368""
","
","
","""event"",""trial"",""time""
""fullscreenenter"",""5"",""50368""
","
",213,NA,49,NA,NA,3000,1,NA,NA,images/tutgreenplanet.jpg,images/tutalien1,images/tutalien2,null,images/tutalien2,images/nothing.png,NA,practice,null,NA,NA,NA,NA,sub149
d3-animate-choice,42,252542,0.0-42.0,TRUE,FALSE,FALSE,FALSE,"""event"",""trial"",""time""
""fullscreenenter"",""5"",""50368""
","
","
","""event"",""trial"",""time""
""fullscreenenter"",""5"",""50368""
","
",234,NA,49,NA,NA,3000,1,NA,NA,images/tutgreenplanet.jpg,images/tutalien1,images/tutalien2,null,images/tutalien2,images/t.png,NA,practice,null,NA,NA,NA,NA,sub149
d3-animate-choice,43,254808,0.0-43.0,TRUE,FALSE,FALSE,FALSE,"""event"",""trial"",""time""
""fullscreenenter"",""5"",""50368""
","
","
","""event"",""trial"",""time""
""fullscreenenter"",""5"",""50368""
","
",263,NA,49,NA,NA,3000,1,NA,NA,images/tutgreenplanet.jpg,images/tutalien1,images/tutalien2,null,images/tutalien2,images/t.png,NA,practice,null,NA,NA,NA,NA,sub149
d3-instructions,44,268345,0.0-44.0,TRUE,FALSE,FALSE,FALSE,"""event"",""trial"",""time""
""fullscreenenter"",""5"",""50368""
","
","
","""event"",""trial"",""time""
""fullscreenenter"",""5"",""50368""
","
",NA,NA,NA,NA,NA,NA,NA,NA,NA,NA,NA,NA,NA,NA,NA,NA,NA,NA,NA,NA,NA,NA,sub149
d3-instructions,45,274554,0.0-45.0,TRUE,FALSE,FALSE,FALSE,"""event"",""trial"",""time""
""fullscreenenter"",""5"",""50368""
","
","
","""event"",""trial"",""time""
""fullscreenenter"",""5"",""50368""
","
",NA,NA,NA,NA,NA,NA,NA,NA,NA,NA,NA,NA,NA,NA,NA,NA,NA,NA,NA,NA,NA,NA,sub149
d3-instructions,46,280186,0.0-46.0,TRUE,FALSE,FALSE,FALSE,"""event"",""trial"",""time""
""fullscreenenter"",""5"",""50368""
","
","
","""event"",""trial"",""time""
""fullscreenenter"",""5"",""50368""
","
",NA,NA,NA,NA,NA,NA,NA,NA,NA,NA,NA,NA,NA,NA,NA,NA,NA,NA,NA,NA,NA,NA,sub149
d3-instructions,47,297052,0.0-47.0,TRUE,FALSE,FALSE,FALSE,"""event"",""trial"",""time""
""fullscreenenter"",""5"",""50368""
","
","
","""event"",""trial"",""time""
""fullscreenenter"",""5"",""50368""
","
",NA,NA,NA,NA,NA,NA,NA,NA,NA,NA,NA,NA,NA,NA,NA,NA,NA,NA,NA,NA,NA,NA,sub149
d3-instructions,48,303585,0.0-48.0,TRUE,FALSE,FALSE,FALSE,"""event"",""trial"",""time""
""fullscreenenter"",""5"",""50368""
","
","
","""event"",""trial"",""time""
""fullscreenenter"",""5"",""50368""
","
",NA,NA,NA,NA,NA,NA,NA,NA,NA,NA,NA,NA,NA,NA,NA,NA,NA,NA,NA,NA,NA,NA,sub149
d3-instructions,49,314236,0.0-49.0,TRUE,FALSE,FALSE,FALSE,"""event"",""trial"",""time""
""fullscreenenter"",""5"",""50368""
","
","
","""event"",""trial"",""time""
""fullscreenenter"",""5"",""50368""
","
",NA,NA,NA,NA,NA,NA,NA,NA,NA,NA,NA,NA,NA,NA,NA,NA,NA,NA,NA,NA,NA,NA,sub149
d3-instructions,50,322672,0.0-50.0,TRUE,FALSE,FALSE,FALSE,"""event"",""trial"",""time""
""fullscreenenter"",""5"",""50368""
","
","
","""event"",""trial"",""time""
""fullscreenenter"",""5"",""50368""
","
",NA,NA,NA,NA,NA,NA,NA,NA,NA,NA,NA,NA,NA,NA,NA,NA,NA,NA,NA,NA,NA,NA,sub149
d3-instructions,51,324560,0.0-51.0,TRUE,FALSE,FALSE,FALSE,"""event"",""trial"",""time""
""fullscreenenter"",""5"",""50368""
","
","
","""event"",""trial"",""time""
""fullscreenenter"",""5"",""50368""
","
",NA,NA,NA,NA,NA,NA,NA,NA,NA,NA,NA,NA,NA,NA,NA,NA,NA,NA,NA,NA,NA,NA,sub149
d3-instructions,52,326374,0.0-52.0,TRUE,FALSE,FALSE,FALSE,"""event"",""trial"",""time""
""fullscreenenter"",""5"",""50368""
","
","
","""event"",""trial"",""time""
""fullscreenenter"",""5"",""50368""
","
",NA,NA,NA,NA,NA,NA,NA,NA,NA,NA,NA,NA,NA,NA,NA,NA,NA,NA,NA,NA,NA,NA,sub149
d3-instructions,53,334349,0.0-53.0,TRUE,FALSE,FALSE,FALSE,"""event"",""trial"",""time""
""fullscreenenter"",""5"",""50368""
","
","
","""event"",""trial"",""time""
""fullscreenenter"",""5"",""50368""
","
",NA,NA,NA,NA,NA,NA,NA,NA,NA,NA,NA,NA,NA,NA,NA,NA,NA,NA,NA,NA,NA,NA,sub149
d3-instructions,54,341093,0.0-54.0,TRUE,FALSE,FALSE,FALSE,"""event"",""trial"",""time""
""fullscreenenter"",""5"",""50368""
","
","
","""event"",""trial"",""time""
""fullscreenenter"",""5"",""50368""
","
",NA,NA,NA,NA,NA,NA,NA,NA,NA,NA,NA,NA,NA,NA,NA,NA,NA,NA,NA,NA,NA,NA,sub149
d3-instructions,55,344699,0.0-55.0,TRUE,FALSE,FALSE,FALSE,"""event"",""trial"",""time""
""fullscreenenter"",""5"",""50368""
","
","
","""event"",""trial"",""time""
""fullscreenenter"",""5"",""50368""
","
",NA,NA,NA,NA,NA,NA,NA,NA,NA,NA,NA,NA,NA,NA,NA,NA,NA,NA,NA,NA,NA,NA,sub149
d3-instructions,56,347118,0.0-56.0,TRUE,FALSE,FALSE,FALSE,"""event"",""trial"",""time""
""fullscreenenter"",""5"",""50368""
","
","
","""event"",""trial"",""time""
""fullscreenenter"",""5"",""50368""
","
",NA,NA,NA,NA,NA,NA,NA,NA,NA,NA,NA,NA,NA,NA,NA,NA,NA,NA,NA,NA,NA,NA,sub149
d3-instructions,57,352975,0.0-57.0,TRUE,FALSE,FALSE,FALSE,"""event"",""trial"",""time""
""fullscreenenter"",""5"",""50368""
","
","
","""event"",""trial"",""time""
""fullscreenenter"",""5"",""50368""
","
",NA,NA,NA,NA,NA,NA,NA,NA,NA,NA,NA,NA,NA,NA,NA,NA,NA,NA,NA,NA,NA,NA,sub149
d3-instructions,58,357383,0.0-58.0,TRUE,FALSE,FALSE,FALSE,"""event"",""trial"",""time""
""fullscreenenter"",""5"",""50368""
","
","
","""event"",""trial"",""time""
""fullscreenenter"",""5"",""50368""
","
",NA,NA,NA,NA,NA,NA,NA,NA,NA,NA,NA,NA,NA,NA,NA,NA,NA,NA,NA,NA,NA,NA,sub149
d3-instructions,59,358832,0.0-59.0,TRUE,FALSE,FALSE,FALSE,"""event"",""trial"",""time""
""fullscreenenter"",""5"",""50368""
","
","
","""event"",""trial"",""time""
""fullscreenenter"",""5"",""50368""
","
",NA,NA,NA,NA,NA,NA,NA,NA,NA,NA,NA,NA,NA,NA,NA,NA,NA,NA,NA,NA,NA,NA,sub149
d3-instructions,60,360539,0.0-60.0,TRUE,FALSE,FALSE,FALSE,"""event"",""trial"",""time""
""fullscreenenter"",""5"",""50368""
","
","
","""event"",""trial"",""time""
""fullscreenenter"",""5"",""50368""
","
",NA,NA,NA,NA,NA,NA,NA,NA,NA,NA,NA,NA,NA,NA,NA,NA,NA,NA,NA,NA,NA,NA,sub149
d3-animate-choice,61,363752,0.0-61.0-0.0,TRUE,FALSE,FALSE,FALSE,"""event"",""trial"",""time""
""fullscreenenter"",""5"",""50368""
","
","
","""event"",""trial"",""time""
""fullscreenenter"",""5"",""50368""
","
",1208,NA,49,NA,NA,3000,1,NA,NA,images/earth.jpg,images/tutrocket2,images/tutrocket1,null,images/tutrocket1,NA,1,practice,null,1,NA,NA,NA,sub149
d3-animate-choice,62,367362,0.0-61.0-1.0,TRUE,FALSE,FALSE,FALSE,"""event"",""trial"",""time""
""fullscreenenter"",""5"",""50368""
","
","
","""event"",""trial"",""time""
""fullscreenenter"",""5"",""50368""
","
",1605,NA,49,NA,NA,3000,1,NA,NA,images/tutyellowplanet.jpg,images/tutalien4,images/tutalien3,images/tutrocket1,images/tutalien3,images/nothing.png,2,practice,true,1,common,0,2020-06-29T21:43:30Z,sub149
two-step-fixation,63,368366,0.0-61.0-2.0,TRUE,FALSE,FALSE,FALSE,"""event"",""trial"",""time""
""fullscreenenter"",""5"",""50368""
","
","
","""event"",""trial"",""time""
""fullscreenenter"",""5"",""50368""
","
",NA,images/earth.jpg,NA,NA,NA,NA,NA,NA,NA,NA,NA,NA,NA,NA,NA,fixation,NA,NA,NA,NA,NA,NA,sub149
d3-animate-choice,64,371681,0.0-61.0-0.1,TRUE,FALSE,FALSE,FALSE,"""event"",""trial"",""time""
""fullscreenenter"",""5"",""50368""
","
","
","""event"",""trial"",""time""
""fullscreenenter"",""5"",""50368""
","
",1312,NA,48,NA,NA,3000,1,NA,NA,images/earth.jpg,images/tutrocket2,images/tutrocket1,null,images/tutrocket2,NA,1,practice,null,2,NA,NA,NA,sub149
d3-animate-choice,65,374362,0.0-61.0-1.1,TRUE,FALSE,FALSE,FALSE,"""event"",""trial"",""time""
""fullscreenenter"",""5"",""50368""
","
","
","""event"",""trial"",""time""
""fullscreenenter"",""5"",""50368""
","
",676,NA,48,NA,NA,3000,1,NA,NA,images/tutgreenplanet.jpg,images/tutalien2,images/tutalien1,images/tutrocket2,images/tutalien2,images/nothing.png,2,practice,true,2,common,0,2020-06-29T21:43:37Z,sub149
two-step-fixation,66,375365,0.0-61.0-2.1,TRUE,FALSE,FALSE,FALSE,"""event"",""trial"",""time""
""fullscreenenter"",""5"",""50368""
","
","
","""event"",""trial"",""time""
""fullscreenenter"",""5"",""50368""
","
",NA,images/earth.jpg,NA,NA,NA,NA,NA,NA,NA,NA,NA,NA,NA,NA,NA,fixation,NA,NA,NA,NA,NA,NA,sub149
d3-animate-choice,67,377783,0.0-61.0-0.2,TRUE,FALSE,FALSE,FALSE,"""event"",""trial"",""time""
""fullscreenenter"",""5"",""50368""
","
","
","""event"",""trial"",""time""
""fullscreenenter"",""5"",""50368""
","
",415,NA,48,NA,NA,3000,1,NA,NA,images/earth.jpg,images/tutrocket2,images/tutrocket1,null,images/tutrocket2,NA,1,practice,null,2,NA,NA,NA,sub149
d3-animate-choice,68,380860,0.0-61.0-1.2,TRUE,FALSE,FALSE,FALSE,"""event"",""trial"",""time""
""fullscreenenter"",""5"",""50368""
","
","
","""event"",""trial"",""time""
""fullscreenenter"",""5"",""50368""
","
",1074,NA,49,NA,NA,3000,1,NA,NA,images/tutyellowplanet.jpg,images/tutalien4,images/tutalien3,images/tutrocket2,images/tutalien3,images/nothing.png,2,practice,false,1,rare,0,2020-06-29T21:43:43Z,sub149
two-step-fixation,69,381862,0.0-61.0-2.2,TRUE,FALSE,FALSE,FALSE,"""event"",""trial"",""time""
""fullscreenenter"",""5"",""50368""
","
","
","""event"",""trial"",""time""
""fullscreenenter"",""5"",""50368""
","
",NA,images/earth.jpg,NA,NA,NA,NA,NA,NA,NA,NA,NA,NA,NA,NA,NA,fixation,NA,NA,NA,NA,NA,NA,sub149
d3-animate-choice,70,384345,0.0-61.0-0.3,TRUE,FALSE,FALSE,FALSE,"""event"",""trial"",""time""
""fullscreenenter"",""5"",""50368""
","
","
","""event"",""trial"",""time""
""fullscreenenter"",""5"",""50368""
","
",480,NA,49,NA,NA,3000,1,NA,NA,images/earth.jpg,images/tutrocket2,images/tutrocket1,null,images/tutrocket1,NA,1,practice,null,1,NA,NA,NA,sub149
d3-animate-choice,71,386994,0.0-61.0-1.3,TRUE,FALSE,FALSE,FALSE,"""event"",""trial"",""time""
""fullscreenenter"",""5"",""50368""
","
","
","""event"",""trial"",""time""
""fullscreenenter"",""5"",""50368""
","
",645,NA,48,NA,NA,3000,1,NA,NA,images/tutyellowplanet.jpg,images/tutalien4,images/tutalien3,images/tutrocket1,images/tutalien4,images/t.png,2,practice,true,2,common,1,2020-06-29T21:43:49Z,sub149
two-step-fixation,72,387998,0.0-61.0-2.3,TRUE,FALSE,FALSE,FALSE,"""event"",""trial"",""time""
""fullscreenenter"",""5"",""50368""
","
","
","""event"",""trial"",""time""
""fullscreenenter"",""5"",""50368""
","
",NA,images/earth.jpg,NA,NA,NA,NA,NA,NA,NA,NA,NA,NA,NA,NA,NA,fixation,NA,NA,NA,NA,NA,NA,sub149
d3-animate-choice,73,390770,0.0-61.0-0.4,TRUE,FALSE,FALSE,FALSE,"""event"",""trial"",""time""
""fullscreenenter"",""5"",""50368""
","
","
","""event"",""trial"",""time""
""fullscreenenter"",""5"",""50368""
","
",768,NA,48,NA,NA,3000,1,NA,NA,images/earth.jpg,images/tutrocket2,images/tutrocket1,null,images/tutrocket2,NA,1,practice,null,2,NA,NA,NA,sub149
d3-animate-choice,74,393582,0.0-61.0-1.4,TRUE,FALSE,FALSE,FALSE,"""event"",""trial"",""time""
""fullscreenenter"",""5"",""50368""
","
","
","""event"",""trial"",""time""
""fullscreenenter"",""5"",""50368""
","
",810,NA,49,NA,NA,3000,1,NA,NA,images/tutyellowplanet.jpg,images/tutalien4,images/tutalien3,images/tutrocket2,images/tutalien3,images/nothing.png,2,practice,false,1,rare,0,2020-06-29T21:43:56Z,sub149
two-step-fixation,75,394584,0.0-61.0-2.4,TRUE,FALSE,FALSE,FALSE,"""event"",""trial"",""time""
""fullscreenenter"",""5"",""50368""
","
","
","""event"",""trial"",""time""
""fullscreenenter"",""5"",""50368""
","
",NA,images/earth.jpg,NA,NA,NA,NA,NA,NA,NA,NA,NA,NA,NA,NA,NA,fixation,NA,NA,NA,NA,NA,NA,sub149
d3-animate-choice,76,396917,0.0-61.0-0.5,TRUE,FALSE,FALSE,FALSE,"""event"",""trial"",""time""
""fullscreenenter"",""5"",""50368""
","
","
","""event"",""trial"",""time""
""fullscreenenter"",""5"",""50368""
","
",329,NA,48,NA,NA,3000,1,NA,NA,images/earth.jpg,images/tutrocket2,images/tutrocket1,null,images/tutrocket2,NA,1,practice,null,2,NA,NA,NA,sub149
d3-animate-choice,77,399956,0.0-61.0-1.5,TRUE,FALSE,FALSE,FALSE,"""event"",""trial"",""time""
""fullscreenenter"",""5"",""50368""
","
","
","""event"",""trial"",""time""
""fullscreenenter"",""5"",""50368""
","
",1037,NA,48,NA,NA,3000,1,NA,NA,images/tutgreenplanet.jpg,images/tutalien2,images/tutalien1,images/tutrocket2,images/tutalien2,images/nothing.png,2,practice,true,2,common,0,2020-06-29T21:44:02Z,sub149
two-step-fixation,78,400959,0.0-61.0-2.5,TRUE,FALSE,FALSE,FALSE,"""event"",""trial"",""time""
""fullscreenenter"",""5"",""50368""
","
","
","""event"",""trial"",""time""
""fullscreenenter"",""5"",""50368""
","
",NA,images/earth.jpg,NA,NA,NA,NA,NA,NA,NA,NA,NA,NA,NA,NA,NA,fixation,NA,NA,NA,NA,NA,NA,sub149
d3-animate-choice,79,403307,0.0-61.0-0.6,TRUE,FALSE,FALSE,FALSE,"""event"",""trial"",""time""
""fullscreenenter"",""5"",""50368""
","
","
","""event"",""trial"",""time""
""fullscreenenter"",""5"",""50368""
","
",344,NA,48,NA,NA,3000,1,NA,NA,images/earth.jpg,images/tutrocket2,images/tutrocket1,null,images/tutrocket2,NA,1,practice,null,2,NA,NA,NA,sub149
d3-animate-choice,80,405595,0.0-61.0-1.6,TRUE,FALSE,FALSE,FALSE,"""event"",""trial"",""time""
""fullscreenenter"",""5"",""50368""
","
","
","""event"",""trial"",""time""
""fullscreenenter"",""5"",""50368""
","
",284.9999999999418,NA,49,NA,NA,3000,1,NA,NA,images/tutyellowplanet.jpg,images/tutalien4,images/tutalien3,images/tutrocket2,images/tutalien3,images/t.png,2,practice,false,1,rare,1,2020-06-29T21:44:08Z,sub149
two-step-fixation,81,406597,0.0-61.0-2.6,TRUE,FALSE,FALSE,FALSE,"""event"",""trial"",""time""
""fullscreenenter"",""5"",""50368""
","
","
","""event"",""trial"",""time""
""fullscreenenter"",""5"",""50368""
","
",NA,images/earth.jpg,NA,NA,NA,NA,NA,NA,NA,NA,NA,NA,NA,NA,NA,fixation,NA,NA,NA,NA,NA,NA,sub149
d3-animate-choice,82,408863,0.0-61.0-0.7,TRUE,FALSE,FALSE,FALSE,"""event"",""trial"",""time""
""fullscreenenter"",""5"",""50368""
","
","
","""event"",""trial"",""time""
""fullscreenenter"",""5"",""50368""
","
",262,NA,48,NA,NA,3000,1,NA,NA,images/earth.jpg,images/tutrocket2,images/tutrocket1,null,images/tutrocket2,NA,1,practice,null,2,NA,NA,NA,sub149
d3-animate-choice,83,412004,0.0-61.0-1.7,TRUE,FALSE,FALSE,FALSE,"""event"",""trial"",""time""
""fullscreenenter"",""5"",""50368""
","
","
","""event"",""trial"",""time""
""fullscreenenter"",""5"",""50368""
","
",1138.0000000000582,NA,49,NA,NA,3000,1,NA,NA,images/tutgreenplanet.jpg,images/tutalien2,images/tutalien1,images/tutrocket2,images/tutalien1,images/nothing.png,2,practice,true,1,common,0,2020-06-29T21:44:14Z,sub149
two-step-fixation,84,413006,0.0-61.0-2.7,TRUE,FALSE,FALSE,FALSE,"""event"",""trial"",""time""
""fullscreenenter"",""5"",""50368""
","
","
","""event"",""trial"",""time""
""fullscreenenter"",""5"",""50368""
","
",NA,images/earth.jpg,NA,NA,NA,NA,NA,NA,NA,NA,NA,NA,NA,NA,NA,fixation,NA,NA,NA,NA,NA,NA,sub149
d3-animate-choice,85,415317,0.0-61.0-0.8,TRUE,FALSE,FALSE,FALSE,"""event"",""trial"",""time""
""fullscreenenter"",""5"",""50368""
","
","
","""event"",""trial"",""time""
""fullscreenenter"",""5"",""50368""
","
",306,NA,49,NA,NA,3000,1,NA,NA,images/earth.jpg,images/tutrocket2,images/tutrocket1,null,images/tutrocket1,NA,1,practice,null,1,NA,NA,NA,sub149
d3-animate-choice,86,417603,0.0-61.0-1.8,TRUE,FALSE,FALSE,FALSE,"""event"",""trial"",""time""
""fullscreenenter"",""5"",""50368""
","
","
","""event"",""trial"",""time""
""fullscreenenter"",""5"",""50368""
","
",282,NA,48,NA,NA,3000,1,NA,NA,images/tutyellowplanet.jpg,images/tutalien4,images/tutalien3,images/tutrocket1,images/tutalien4,images/nothing.png,2,practice,true,2,common,0,2020-06-29T21:44:20Z,sub149
two-step-fixation,87,418605,0.0-61.0-2.8,TRUE,FALSE,FALSE,FALSE,"""event"",""trial"",""time""
""fullscreenenter"",""5"",""50368""
","
","
","""event"",""trial"",""time""
""fullscreenenter"",""5"",""50368""
","
",NA,images/earth.jpg,NA,NA,NA,NA,NA,NA,NA,NA,NA,NA,NA,NA,NA,fixation,NA,NA,NA,NA,NA,NA,sub149
d3-animate-choice,88,420872,0.0-61.0-0.9,TRUE,FALSE,FALSE,FALSE,"""event"",""trial"",""time""
""fullscreenenter"",""5"",""50368""
","
","
","""event"",""trial"",""time""
""fullscreenenter"",""5"",""50368""
","
",264,NA,49,NA,NA,3000,1,NA,NA,images/earth.jpg,images/tutrocket2,images/tutrocket1,null,images/tutrocket1,NA,1,practice,null,1,NA,NA,NA,sub149
d3-animate-choice,89,423269,0.0-61.0-1.9,TRUE,FALSE,FALSE,FALSE,"""event"",""trial"",""time""
""fullscreenenter"",""5"",""50368""
","
","
","""event"",""trial"",""time""
""fullscreenenter"",""5"",""50368""
","
",392.9999999999418,NA,49,NA,NA,3000,1,NA,NA,images/tutyellowplanet.jpg,images/tutalien4,images/tutalien3,images/tutrocket1,images/tutalien3,images/t.png,2,practice,true,1,common,1,2020-06-29T21:44:26Z,sub149
two-step-fixation,90,424271,0.0-61.0-2.9,TRUE,FALSE,FALSE,FALSE,"""event"",""trial"",""time""
""fullscreenenter"",""5"",""50368""
","
","
","""event"",""trial"",""time""
""fullscreenenter"",""5"",""50368""
","
",NA,images/earth.jpg,NA,NA,NA,NA,NA,NA,NA,NA,NA,NA,NA,NA,NA,fixation,NA,NA,NA,NA,NA,NA,sub149
d3-animate-choice,91,426575,0.0-61.0-0.10,TRUE,FALSE,FALSE,FALSE,"""event"",""trial"",""time""
""fullscreenenter"",""5"",""50368""
","
","
","""event"",""trial"",""time""
""fullscreenenter"",""5"",""50368""
","
",299.9999999999418,NA,48,NA,NA,3000,1,NA,NA,images/earth.jpg,images/tutrocket2,images/tutrocket1,null,images/tutrocket2,NA,1,practice,null,2,NA,NA,NA,sub149
d3-animate-choice,92,428864,0.0-61.0-1.10,TRUE,FALSE,FALSE,FALSE,"""event"",""trial"",""time""
""fullscreenenter"",""5"",""50368""
","
","
","""event"",""trial"",""time""
""fullscreenenter"",""5"",""50368""
","
",286.9999999999418,NA,48,NA,NA,3000,1,NA,NA,images/tutyellowplanet.jpg,images/tutalien4,images/tutalien3,images/tutrocket2,images/tutalien4,images/t.png,2,practice,false,2,rare,1,2020-06-29T21:44:31Z,sub149
two-step-fixation,93,429867,0.0-61.0-2.10,TRUE,FALSE,FALSE,FALSE,"""event"",""trial"",""time""
""fullscreenenter"",""5"",""50368""
","
","
","""event"",""trial"",""time""
""fullscreenenter"",""5"",""50368""
","
",NA,images/earth.jpg,NA,NA,NA,NA,NA,NA,NA,NA,NA,NA,NA,NA,NA,fixation,NA,NA,NA,NA,NA,NA,sub149
d3-animate-choice,94,432015,0.0-61.0-0.11,TRUE,FALSE,FALSE,FALSE,"""event"",""trial"",""time""
""fullscreenenter"",""5"",""50368""
","
","
","""event"",""trial"",""time""
""fullscreenenter"",""5"",""50368""
","
",0,NA,48,NA,NA,3000,1,NA,NA,images/earth.jpg,images/tutrocket2,images/tutrocket1,null,images/tutrocket2,NA,1,practice,null,2,NA,NA,NA,sub149
d3-animate-choice,95,434503,0.0-61.0-1.11,TRUE,FALSE,FALSE,FALSE,"""event"",""trial"",""time""
""fullscreenenter"",""5"",""50368""
","
","
","""event"",""trial"",""time""
""fullscreenenter"",""5"",""50368""
","
",484.9999999999418,NA,49,NA,NA,3000,1,NA,NA,images/tutgreenplanet.jpg,images/tutalien2,images/tutalien1,images/tutrocket2,images/tutalien1,images/t.png,2,practice,true,1,common,1,2020-06-29T21:44:37Z,sub149
two-step-fixation,96,435505,0.0-61.0-2.11,TRUE,FALSE,FALSE,FALSE,"""event"",""trial"",""time""
""fullscreenenter"",""5"",""50368""
","
","
","""event"",""trial"",""time""
""fullscreenenter"",""5"",""50368""
","
",NA,images/earth.jpg,NA,NA,NA,NA,NA,NA,NA,NA,NA,NA,NA,NA,NA,fixation,NA,NA,NA,NA,NA,NA,sub149
d3-animate-choice,97,437977,0.0-61.0-0.12,TRUE,FALSE,FALSE,FALSE,"""event"",""trial"",""time""
""fullscreenenter"",""5"",""50368""
","
","
","""event"",""trial"",""time""
""fullscreenenter"",""5"",""50368""
","
",470,NA,48,NA,NA,3000,1,NA,NA,images/earth.jpg,images/tutrocket2,images/tutrocket1,null,images/tutrocket2,NA,1,practice,null,2,NA,NA,NA,sub149
d3-animate-choice,98,440565,0.0-61.0-1.12,TRUE,FALSE,FALSE,FALSE,"""event"",""trial"",""time""
""fullscreenenter"",""5"",""50368""
","
","
","""event"",""trial"",""time""
""fullscreenenter"",""5"",""50368""
","
",585,NA,48,NA,NA,3000,1,NA,NA,images/tutgreenplanet.jpg,images/tutalien2,images/tutalien1,images/tutrocket2,images/tutalien2,images/t.png,2,practice,true,2,common,1,2020-06-29T21:44:43Z,sub149
two-step-fixation,99,441567,0.0-61.0-2.12,TRUE,FALSE,FALSE,FALSE,"""event"",""trial"",""time""
""fullscreenenter"",""5"",""50368""
","
","
","""event"",""trial"",""time""
""fullscreenenter"",""5"",""50368""
","
",NA,images/earth.jpg,NA,NA,NA,NA,NA,NA,NA,NA,NA,NA,NA,NA,NA,fixation,NA,NA,NA,NA,NA,NA,sub149
d3-animate-choice,100,443570,0.0-61.0-0.13,TRUE,FALSE,FALSE,FALSE,"""event"",""trial"",""time""
""fullscreenenter"",""5"",""50368""
","
","
","""event"",""trial"",""time""
""fullscreenenter"",""5"",""50368""
","
",0,NA,48,NA,NA,3000,1,NA,NA,images/earth.jpg,images/tutrocket2,images/tutrocket1,null,images/tutrocket2,NA,1,practice,null,2,NA,NA,NA,sub149
d3-animate-choice,101,445869,0.0-61.0-1.13,TRUE,FALSE,FALSE,FALSE,"""event"",""trial"",""time""
""fullscreenenter"",""5"",""50368""
","
","
","""event"",""trial"",""time""
""fullscreenenter"",""5"",""50368""
","
",295,NA,48,NA,NA,3000,1,NA,NA,images/tutyellowplanet.jpg,images/tutalien4,images/tutalien3,images/tutrocket2,images/tutalien4,images/t.png,2,practice,false,2,rare,1,2020-06-29T21:44:48Z,sub149
two-step-fixation,102,446871,0.0-61.0-2.13,TRUE,FALSE,FALSE,FALSE,"""event"",""trial"",""time""
""fullscreenenter"",""5"",""50368""
","
","
","""event"",""trial"",""time""
""fullscreenenter"",""5"",""50368""
","
",NA,images/earth.jpg,NA,NA,NA,NA,NA,NA,NA,NA,NA,NA,NA,NA,NA,fixation,NA,NA,NA,NA,NA,NA,sub149
d3-animate-choice,103,449088,0.0-61.0-0.14,TRUE,FALSE,FALSE,FALSE,"""event"",""trial"",""time""
""fullscreenenter"",""5"",""50368""
","
","
","""event"",""trial"",""time""
""fullscreenenter"",""5"",""50368""
","
",214,NA,48,NA,NA,3000,1,NA,NA,images/earth.jpg,images/tutrocket2,images/tutrocket1,null,images/tutrocket2,NA,1,practice,null,2,NA,NA,NA,sub149
d3-animate-choice,104,451465,0.0-61.0-1.14,TRUE,FALSE,FALSE,FALSE,"""event"",""trial"",""time""
""fullscreenenter"",""5"",""50368""
","
","
","""event"",""trial"",""time""
""fullscreenenter"",""5"",""50368""
","
",374.0000000000582,NA,48,NA,NA,3000,1,NA,NA,images/tutgreenplanet.jpg,images/tutalien2,images/tutalien1,images/tutrocket2,images/tutalien2,images/nothing.png,2,practice,true,2,common,0,2020-06-29T21:44:54Z,sub149
two-step-fixation,105,452468,0.0-61.0-2.14,TRUE,FALSE,FALSE,FALSE,"""event"",""trial"",""time""
""fullscreenenter"",""5"",""50368""
","
","
","""event"",""trial"",""time""
""fullscreenenter"",""5"",""50368""
","
",NA,images/earth.jpg,NA,NA,NA,NA,NA,NA,NA,NA,NA,NA,NA,NA,NA,fixation,NA,NA,NA,NA,NA,NA,sub149
d3-animate-choice,106,454771,0.0-61.0-0.15,TRUE,FALSE,FALSE,FALSE,"""event"",""trial"",""time""
""fullscreenenter"",""5"",""50368""
","
","
","""event"",""trial"",""time""
""fullscreenenter"",""5"",""50368""
","
",300,NA,48,NA,NA,3000,1,NA,NA,images/earth.jpg,images/tutrocket2,images/tutrocket1,null,images/tutrocket2,NA,1,practice,null,2,NA,NA,NA,sub149
d3-animate-choice,107,457619,0.0-61.0-1.15,TRUE,FALSE,FALSE,FALSE,"""event"",""trial"",""time""
""fullscreenenter"",""5"",""50368""
","
","
","""event"",""trial"",""time""
""fullscreenenter"",""5"",""50368""
","
",845,NA,49,NA,NA,3000,1,NA,NA,images/tutyellowplanet.jpg,images/tutalien4,images/tutalien3,images/tutrocket2,images/tutalien3,images/nothing.png,2,practice,false,1,rare,0,2020-06-29T21:45:00Z,sub149
two-step-fixation,108,458622,0.0-61.0-2.15,TRUE,FALSE,FALSE,FALSE,"""event"",""trial"",""time""
""fullscreenenter"",""5"",""50368""
","
","
","""event"",""trial"",""time""
""fullscreenenter"",""5"",""50368""
","
",NA,images/earth.jpg,NA,NA,NA,NA,NA,NA,NA,NA,NA,NA,NA,NA,NA,fixation,NA,NA,NA,NA,NA,NA,sub149
d3-animate-choice,109,460903,0.0-61.0-0.16,TRUE,FALSE,FALSE,FALSE,"""event"",""trial"",""time""
""fullscreenenter"",""5"",""50368""
","
","
","""event"",""trial"",""time""
""fullscreenenter"",""5"",""50368""
","
",277,NA,48,NA,NA,3000,1,NA,NA,images/earth.jpg,images/tutrocket2,images/tutrocket1,null,images/tutrocket2,NA,1,practice,null,2,NA,NA,NA,sub149
d3-animate-choice,110,463530,0.0-61.0-1.16,TRUE,FALSE,FALSE,FALSE,"""event"",""trial"",""time""
""fullscreenenter"",""5"",""50368""
","
","
","""event"",""trial"",""time""
""fullscreenenter"",""5"",""50368""
","
",623,NA,49,NA,NA,3000,1,NA,NA,images/tutgreenplanet.jpg,images/tutalien2,images/tutalien1,images/tutrocket2,images/tutalien1,images/t.png,2,practice,true,1,common,1,2020-06-29T21:45:06Z,sub149
two-step-fixation,111,464533,0.0-61.0-2.16,TRUE,FALSE,FALSE,FALSE,"""event"",""trial"",""time""
""fullscreenenter"",""5"",""50368""
","
","
","""event"",""trial"",""time""
""fullscreenenter"",""5"",""50368""
","
",NA,images/earth.jpg,NA,NA,NA,NA,NA,NA,NA,NA,NA,NA,NA,NA,NA,fixation,NA,NA,NA,NA,NA,NA,sub149
d3-animate-choice,112,466817,0.0-61.0-0.17,TRUE,FALSE,FALSE,FALSE,"""event"",""trial"",""time""
""fullscreenenter"",""5"",""50368""
","
","
","""event"",""trial"",""time""
""fullscreenenter"",""5"",""50368""
","
",281,NA,48,NA,NA,3000,1,NA,NA,images/earth.jpg,images/tutrocket2,images/tutrocket1,null,images/tutrocket2,NA,1,practice,null,2,NA,NA,NA,sub149
d3-animate-choice,113,469180,0.0-61.0-1.17,TRUE,FALSE,FALSE,FALSE,"""event"",""trial"",""time""
""fullscreenenter"",""5"",""50368""
","
","
","""event"",""trial"",""time""
""fullscreenenter"",""5"",""50368""
","
",359.0000000000582,NA,49,NA,NA,3000,1,NA,NA,images/tutgreenplanet.jpg,images/tutalien2,images/tutalien1,images/tutrocket2,images/tutalien1,images/t.png,2,practice,true,1,common,1,2020-06-29T21:45:11Z,sub149
two-step-fixation,114,470183,0.0-61.0-2.17,TRUE,FALSE,FALSE,FALSE,"""event"",""trial"",""time""
""fullscreenenter"",""5"",""50368""
","
","
","""event"",""trial"",""time""
""fullscreenenter"",""5"",""50368""
","
",NA,images/earth.jpg,NA,NA,NA,NA,NA,NA,NA,NA,NA,NA,NA,NA,NA,fixation,NA,NA,NA,NA,NA,NA,sub149
d3-animate-choice,115,472398,0.0-61.0-0.18,TRUE,FALSE,FALSE,FALSE,"""event"",""trial"",""time""
""fullscreenenter"",""5"",""50368""
","
","
","""event"",""trial"",""time""
""fullscreenenter"",""5"",""50368""
","
",212,NA,48,NA,NA,3000,1,NA,NA,images/earth.jpg,images/tutrocket2,images/tutrocket1,null,images/tutrocket2,NA,1,practice,null,2,NA,NA,NA,sub149
d3-animate-choice,116,475380,0.0-61.0-1.18,TRUE,FALSE,FALSE,FALSE,"""event"",""trial"",""time""
""fullscreenenter"",""5"",""50368""
","
","
","""event"",""trial"",""time""
""fullscreenenter"",""5"",""50368""
","
",978.9999999999418,NA,48,NA,NA,3000,1,NA,NA,images/tutyellowplanet.jpg,images/tutalien4,images/tutalien3,images/tutrocket2,images/tutalien4,images/nothing.png,2,practice,false,2,rare,0,2020-06-29T21:45:18Z,sub149
two-step-fixation,117,476381,0.0-61.0-2.18,TRUE,FALSE,FALSE,FALSE,"""event"",""trial"",""time""
""fullscreenenter"",""5"",""50368""
","
","
","""event"",""trial"",""time""
""fullscreenenter"",""5"",""50368""
","
",NA,images/earth.jpg,NA,NA,NA,NA,NA,NA,NA,NA,NA,NA,NA,NA,NA,fixation,NA,NA,NA,NA,NA,NA,sub149
d3-animate-choice,118,478656,0.0-61.0-0.19,TRUE,FALSE,FALSE,FALSE,"""event"",""trial"",""time""
""fullscreenenter"",""5"",""50368""
","
","
","""event"",""trial"",""time""
""fullscreenenter"",""5"",""50368""
","
",272.0000000000582,NA,48,NA,NA,3000,1,NA,NA,images/earth.jpg,images/tutrocket2,images/tutrocket1,null,images/tutrocket2,NA,1,practice,null,2,NA,NA,NA,sub149
d3-animate-choice,119,481210,0.0-61.0-1.19,TRUE,FALSE,FALSE,FALSE,"""event"",""trial"",""time""
""fullscreenenter"",""5"",""50368""
","
","
","""event"",""trial"",""time""
""fullscreenenter"",""5"",""50368""
","
",551,NA,48,NA,NA,3000,1,NA,NA,images/tutgreenplanet.jpg,images/tutalien2,images/tutalien1,images/tutrocket2,images/tutalien2,images/nothing.png,2,practice,true,2,common,0,2020-06-29T21:45:23Z,sub149
two-step-fixation,120,482212,0.0-61.0-2.19,TRUE,FALSE,FALSE,FALSE,"""event"",""trial"",""time""
""fullscreenenter"",""5"",""50368""
","
","
","""event"",""trial"",""time""
""fullscreenenter"",""5"",""50368""
","
",NA,images/earth.jpg,NA,NA,NA,NA,NA,NA,NA,NA,NA,NA,NA,NA,NA,fixation,NA,NA,NA,NA,NA,NA,sub149
d3-instructions,121,486202,0.0-62.0,TRUE,FALSE,FALSE,FALSE,"""event"",""trial"",""time""
""fullscreenenter"",""5"",""50368""
","
","
","""event"",""trial"",""time""
""fullscreenenter"",""5"",""50368""
","
",NA,NA,NA,NA,NA,NA,NA,NA,NA,NA,NA,NA,NA,NA,NA,NA,NA,NA,NA,NA,NA,NA,sub149
audio-keyboard-response,122,488829,0.0-63.0,TRUE,FALSE,FALSE,FALSE,"""event"",""trial"",""time""
""fullscreenenter"",""5"",""50368""
","
","
","""event"",""trial"",""time""
""fullscreenenter"",""5"",""50368""
","
",2627,audio/instructions/treasure_feedback.wav,32,NA,NA,NA,NA,NA,NA,NA,NA,NA,NA,NA,NA,NA,NA,NA,NA,NA,NA,NA,sub149
d3-instructions,123,498122,0.0-64.0,TRUE,FALSE,FALSE,FALSE,"""event"",""trial"",""time""
""fullscreenenter"",""5"",""50368""
","
","
","""event"",""trial"",""time""
""fullscreenenter"",""5"",""50368""
","
",NA,NA,NA,NA,NA,NA,NA,NA,NA,NA,NA,NA,NA,NA,NA,NA,NA,NA,NA,NA,NA,NA,sub149
d3-instructions,124,507666,0.0-65.0,TRUE,FALSE,FALSE,FALSE,"""event"",""trial"",""time""
""fullscreenenter"",""5"",""50368""
","
","
","""event"",""trial"",""time""
""fullscreenenter"",""5"",""50368""
","
",NA,NA,NA,NA,NA,NA,NA,NA,NA,NA,NA,NA,NA,NA,NA,NA,NA,NA,NA,NA,NA,NA,sub149
d3-instructions,125,638360,0.0-66.0,TRUE,FALSE,FALSE,FALSE,"""event"",""trial"",""time""
""fullscreenenter"",""5"",""50368""
","
","
","""event"",""trial"",""time""
""fullscreenenter"",""5"",""50368""
","
",NA,NA,NA,NA,NA,NA,NA,NA,NA,NA,NA,NA,NA,NA,NA,NA,NA,NA,NA,NA,NA,NA,sub149
d3-instructions,126,772660,0.0-67.0,TRUE,FALSE,FALSE,FALSE,"""event"",""trial"",""time""
""fullscreenenter"",""5"",""50368""
","
","
","""event"",""trial"",""time""
""fullscreenenter"",""5"",""50368""
","
",NA,NA,NA,NA,NA,NA,NA,NA,NA,NA,NA,NA,NA,NA,NA,NA,NA,NA,NA,NA,NA,NA,sub149
d3-instructions,127,784457,0.0-68.0,TRUE,FALSE,FALSE,FALSE,"""event"",""trial"",""time""
""fullscreenenter"",""5"",""50368""
","
","
","""event"",""trial"",""time""
""fullscreenenter"",""5"",""50368""
","
",NA,NA,NA,NA,NA,NA,NA,NA,NA,NA,NA,NA,NA,NA,NA,NA,NA,NA,NA,NA,NA,NA,sub149
instructions-quiz,128,788834,0.0-69.0,TRUE,FALSE,FALSE,FALSE,"""event"",""trial"",""time""
""fullscreenenter"",""5"",""50368""
","
","
","""event"",""trial"",""time""
""fullscreenenter"",""5"",""50368""
","
",4375,audio/quiz/Q1_Prompt.wav,NA,1,NA,NA,NA,NA,NA,NA,NA,NA,NA,NA,NA,NA,NA,NA,NA,NA,NA,NA,sub149
audio-keyboard-response,129,790130,0.0-70.0,TRUE,FALSE,FALSE,FALSE,"""event"",""trial"",""time""
""fullscreenenter"",""5"",""50368""
","
","
","""event"",""trial"",""time""
""fullscreenenter"",""5"",""50368""
","
",1295,audio/quiz/Q1_Correct.wav,32,NA,NA,NA,NA,NA,NA,NA,NA,NA,NA,NA,NA,NA,NA,NA,NA,NA,NA,NA,sub149
instructions-quiz,130,793261,0.0-71.0,TRUE,FALSE,FALSE,FALSE,"""event"",""trial"",""time""
""fullscreenenter"",""5"",""50368""
","
","
","""event"",""trial"",""time""
""fullscreenenter"",""5"",""50368""
","
",3129.0000000001164,audio/quiz/Q2_Prompt.wav,NA,0,NA,NA,NA,NA,NA,NA,NA,NA,NA,NA,NA,NA,NA,NA,NA,NA,NA,NA,sub149
audio-keyboard-response,131,793999,0.0-72.0,TRUE,FALSE,FALSE,FALSE,"""event"",""trial"",""time""
""fullscreenenter"",""5"",""50368""
","
","
","""event"",""trial"",""time""
""fullscreenenter"",""5"",""50368""
","
",737,audio/quiz/Q2_Correct.wav,32,NA,NA,NA,NA,NA,NA,NA,NA,NA,NA,NA,NA,NA,NA,NA,NA,NA,NA,NA,sub149
instructions-quiz,132,796637,0.0-73.0,TRUE,FALSE,FALSE,FALSE,"""event"",""trial"",""time""
""fullscreenenter"",""5"",""50368""
","
","
","""event"",""trial"",""time""
""fullscreenenter"",""5"",""50368""
","
",2636,audio/quiz/Q3_Prompt.wav,NA,1,NA,NA,NA,NA,NA,NA,NA,NA,NA,NA,NA,NA,NA,NA,NA,NA,NA,NA,sub149
audio-keyboard-response,133,797153,0.0-74.0,TRUE,FALSE,FALSE,FALSE,"""event"",""trial"",""time""
""fullscreenenter"",""5"",""50368""
","
","
","""event"",""trial"",""time""
""fullscreenenter"",""5"",""50368""
","
",514,audio/quiz/Q3_Correct.wav,32,NA,NA,NA,NA,NA,NA,NA,NA,NA,NA,NA,NA,NA,NA,NA,NA,NA,NA,NA,sub149
d3-instructions,134,805119,0.0-75.0,TRUE,FALSE,FALSE,FALSE,"""event"",""trial"",""time""
""fullscreenenter"",""5"",""50368""
","
","
","""event"",""trial"",""time""
""fullscreenenter"",""5"",""50368""
","
",NA,NA,NA,NA,NA,NA,NA,NA,NA,NA,NA,NA,NA,NA,NA,NA,NA,NA,NA,NA,NA,NA,sub149
d3-animate-choice,135,809124,0.0-76.0-0.0,TRUE,FALSE,FALSE,FALSE,"""event"",""trial"",""time""
""fullscreenenter"",""5"",""50368""
","
","
","""event"",""trial"",""time""
""fullscreenenter"",""5"",""50368""
","
",2621.0000000001164,NA,48,NA,NA,3000,1,NA,NA,images/earth.jpg,images/rocket2,images/rocket1,null,images/rocket2,NA,1,real,null,2,NA,NA,NA,sub149
d3-animate-choice,136,811884,0.0-76.0-1.0,TRUE,FALSE,FALSE,FALSE,"""event"",""trial"",""time""
""fullscreenenter"",""5"",""50368""
","
","
","""event"",""trial"",""time""
""fullscreenenter"",""5"",""50368""
","
",757,NA,49,NA,NA,3000,1,NA,NA,images/redplanet1.jpg,images/alien2,images/alien1,images/rocket2,images/alien1,images/nothing.png,2,real,true,1,common,0,2020-06-29T21:50:54Z,sub149
two-step-fixation,137,812886,0.0-76.0-2.0,TRUE,FALSE,FALSE,FALSE,"""event"",""trial"",""time""
""fullscreenenter"",""5"",""50368""
","
","
","""event"",""trial"",""time""
""fullscreenenter"",""5"",""50368""
","
",NA,images/earth.jpg,NA,NA,NA,NA,NA,NA,NA,NA,NA,NA,NA,NA,NA,fixation,NA,NA,NA,NA,NA,NA,sub149
d3-animate-choice,138,815223,0.0-76.0-0.1,TRUE,FALSE,FALSE,FALSE,"""event"",""trial"",""time""
""fullscreenenter"",""5"",""50368""
","
","
","""event"",""trial"",""time""
""fullscreenenter"",""5"",""50368""
","
",333,NA,48,NA,NA,3000,1,NA,NA,images/earth.jpg,images/rocket2,images/rocket1,null,images/rocket2,NA,1,real,null,2,NA,NA,NA,sub149
d3-animate-choice,139,817652,0.0-76.0-1.1,TRUE,FALSE,FALSE,FALSE,"""event"",""trial"",""time""
""fullscreenenter"",""5"",""50368""
","
","
","""event"",""trial"",""time""
""fullscreenenter"",""5"",""50368""
","
",426,NA,48,NA,NA,3000,1,NA,NA,images/redplanet1.jpg,images/alien2,images/alien1,images/rocket2,images/alien2,images/t.png,2,real,true,2,common,1,2020-06-29T21:51:00Z,sub149
two-step-fixation,140,818654,0.0-76.0-2.1,TRUE,FALSE,FALSE,FALSE,"""event"",""trial"",""time""
""fullscreenenter"",""5"",""50368""
","
","
","""event"",""trial"",""time""
""fullscreenenter"",""5"",""50368""
","
",NA,images/earth.jpg,NA,NA,NA,NA,NA,NA,NA,NA,NA,NA,NA,NA,NA,fixation,NA,NA,NA,NA,NA,NA,sub149
d3-animate-choice,141,821428,0.0-76.0-0.2,TRUE,FALSE,FALSE,FALSE,"""event"",""trial"",""time""
""fullscreenenter"",""5"",""50368""
","
","
","""event"",""trial"",""time""
""fullscreenenter"",""5"",""50368""
","
",772,NA,49,NA,NA,3000,1,NA,NA,images/earth.jpg,images/rocket2,images/rocket1,null,images/rocket1,NA,1,real,null,1,NA,NA,NA,sub149
d3-animate-choice,142,824032,0.0-76.0-1.2,TRUE,FALSE,FALSE,FALSE,"""event"",""trial"",""time""
""fullscreenenter"",""5"",""50368""
","
","
","""event"",""trial"",""time""
""fullscreenenter"",""5"",""50368""
","
",601,NA,49,NA,NA,3000,1,NA,NA,images/purpleplanet.jpg,images/alien4,images/alien3,images/rocket1,images/alien3,images/nothing.png,2,real,true,1,common,0,2020-06-29T21:51:06Z,sub149
two-step-fixation,143,825035,0.0-76.0-2.2,TRUE,FALSE,FALSE,FALSE,"""event"",""trial"",""time""
""fullscreenenter"",""5"",""50368""
","
","
","""event"",""trial"",""time""
""fullscreenenter"",""5"",""50368""
","
",NA,images/earth.jpg,NA,NA,NA,NA,NA,NA,NA,NA,NA,NA,NA,NA,NA,fixation,NA,NA,NA,NA,NA,NA,sub149
d3-animate-choice,144,827344,0.0-76.0-0.3,TRUE,FALSE,FALSE,FALSE,"""event"",""trial"",""time""
""fullscreenenter"",""5"",""50368""
","
","
","""event"",""trial"",""time""
""fullscreenenter"",""5"",""50368""
","
",305,NA,49,NA,NA,3000,1,NA,NA,images/earth.jpg,images/rocket2,images/rocket1,null,images/rocket1,NA,1,real,null,1,NA,NA,NA,sub149
d3-animate-choice,145,829793,0.0-76.0-1.3,TRUE,FALSE,FALSE,FALSE,"""event"",""trial"",""time""
""fullscreenenter"",""5"",""50368""
","
","
","""event"",""trial"",""time""
""fullscreenenter"",""5"",""50368""
","
",445.0000000001164,NA,48,NA,NA,3000,1,NA,NA,images/purpleplanet.jpg,images/alien4,images/alien3,images/rocket1,images/alien4,images/nothing.png,2,real,true,2,common,0,2020-06-29T21:51:12Z,sub149
two-step-fixation,146,830795,0.0-76.0-2.3,TRUE,FALSE,FALSE,FALSE,"""event"",""trial"",""time""
""fullscreenenter"",""5"",""50368""
","
","
","""event"",""trial"",""time""
""fullscreenenter"",""5"",""50368""
","
",NA,images/earth.jpg,NA,NA,NA,NA,NA,NA,NA,NA,NA,NA,NA,NA,NA,fixation,NA,NA,NA,NA,NA,NA,sub149
d3-animate-choice,147,833486,0.0-76.0-0.4,TRUE,FALSE,FALSE,FALSE,"""event"",""trial"",""time""
""fullscreenenter"",""5"",""50368""
","
","
","""event"",""trial"",""time""
""fullscreenenter"",""5"",""50368""
","
",688,NA,48,NA,NA,3000,1,NA,NA,images/earth.jpg,images/rocket2,images/rocket1,null,images/rocket2,NA,1,real,null,2,NA,NA,NA,sub149
d3-animate-choice,148,835836,0.0-76.0-1.4,TRUE,FALSE,FALSE,FALSE,"""event"",""trial"",""time""
""fullscreenenter"",""5"",""50368""
","
","
","""event"",""trial"",""time""
""fullscreenenter"",""5"",""50368""
","
",347.0000000001164,NA,48,NA,NA,3000,1,NA,NA,images/purpleplanet.jpg,images/alien4,images/alien3,images/rocket2,images/alien4,images/t.png,2,real,false,2,rare,1,2020-06-29T21:51:18Z,sub149
two-step-fixation,149,836838,0.0-76.0-2.4,TRUE,FALSE,FALSE,FALSE,"""event"",""trial"",""time""
""fullscreenenter"",""5"",""50368""
","
","
","""event"",""trial"",""time""
""fullscreenenter"",""5"",""50368""
","
",NA,images/earth.jpg,NA,NA,NA,NA,NA,NA,NA,NA,NA,NA,NA,NA,NA,fixation,NA,NA,NA,NA,NA,NA,sub149
d3-animate-choice,150,839117,0.0-76.0-0.5,TRUE,FALSE,FALSE,FALSE,"""event"",""trial"",""time""
""fullscreenenter"",""5"",""50368""
","
","
","""event"",""trial"",""time""
""fullscreenenter"",""5"",""50368""
","
",276,NA,48,NA,NA,3000,1,NA,NA,images/earth.jpg,images/rocket2,images/rocket1,null,images/rocket2,NA,1,real,null,2,NA,NA,NA,sub149
d3-animate-choice,151,841737,0.0-76.0-1.5,TRUE,FALSE,FALSE,FALSE,"""event"",""trial"",""time""
""fullscreenenter"",""5"",""50368""
","
","
","""event"",""trial"",""time""
""fullscreenenter"",""5"",""50368""
","
",616.9999999998836,NA,48,NA,NA,3000,1,NA,NA,images/redplanet1.jpg,images/alien2,images/alien1,images/rocket2,images/alien2,images/t.png,2,real,true,2,common,1,2020-06-29T21:51:24Z,sub149
two-step-fixation,152,842739,0.0-76.0-2.5,TRUE,FALSE,FALSE,FALSE,"""event"",""trial"",""time""
""fullscreenenter"",""5"",""50368""
","
","
","""event"",""trial"",""time""
""fullscreenenter"",""5"",""50368""
","
",NA,images/earth.jpg,NA,NA,NA,NA,NA,NA,NA,NA,NA,NA,NA,NA,NA,fixation,NA,NA,NA,NA,NA,NA,sub149
d3-animate-choice,153,845063,0.0-76.0-0.6,TRUE,FALSE,FALSE,FALSE,"""event"",""trial"",""time""
""fullscreenenter"",""5"",""50368""
","
","
","""event"",""trial"",""time""
""fullscreenenter"",""5"",""50368""
","
",320,NA,48,NA,NA,3000,1,NA,NA,images/earth.jpg,images/rocket2,images/rocket1,null,images/rocket2,NA,1,real,null,2,NA,NA,NA,sub149
d3-animate-choice,154,847679,0.0-76.0-1.6,TRUE,FALSE,FALSE,FALSE,"""event"",""trial"",""time""
""fullscreenenter"",""5"",""50368""
","
","
","""event"",""trial"",""time""
""fullscreenenter"",""5"",""50368""
","
",611.9999999998836,NA,48,NA,NA,3000,1,NA,NA,images/purpleplanet.jpg,images/alien4,images/alien3,images/rocket2,images/alien4,images/t.png,2,real,false,2,rare,1,2020-06-29T21:51:30Z,sub149
two-step-fixation,155,848681,0.0-76.0-2.6,TRUE,FALSE,FALSE,FALSE,"""event"",""trial"",""time""
""fullscreenenter"",""5"",""50368""
","
","
","""event"",""trial"",""time""
""fullscreenenter"",""5"",""50368""
","
",NA,images/earth.jpg,NA,NA,NA,NA,NA,NA,NA,NA,NA,NA,NA,NA,NA,fixation,NA,NA,NA,NA,NA,NA,sub149
d3-animate-choice,156,850976,0.0-76.0-0.7,TRUE,FALSE,FALSE,FALSE,"""event"",""trial"",""time""
""fullscreenenter"",""5"",""50368""
","
","
","""event"",""trial"",""time""
""fullscreenenter"",""5"",""50368""
","
",292,NA,48,NA,NA,3000,1,NA,NA,images/earth.jpg,images/rocket2,images/rocket1,null,images/rocket2,NA,1,real,null,2,NA,NA,NA,sub149
d3-animate-choice,157,853554,0.0-76.0-1.7,TRUE,FALSE,FALSE,FALSE,"""event"",""trial"",""time""
""fullscreenenter"",""5"",""50368""
","
","
","""event"",""trial"",""time""
""fullscreenenter"",""5"",""50368""
","
",575,NA,48,NA,NA,3000,1,NA,NA,images/purpleplanet.jpg,images/alien4,images/alien3,images/rocket2,images/alien4,images/t.png,2,real,false,2,rare,1,2020-06-29T21:51:36Z,sub149
two-step-fixation,158,854556,0.0-76.0-2.7,TRUE,FALSE,FALSE,FALSE,"""event"",""trial"",""time""
""fullscreenenter"",""5"",""50368""
","
","
","""event"",""trial"",""time""
""fullscreenenter"",""5"",""50368""
","
",NA,images/earth.jpg,NA,NA,NA,NA,NA,NA,NA,NA,NA,NA,NA,NA,NA,fixation,NA,NA,NA,NA,NA,NA,sub149
d3-animate-choice,159,856709,0.0-76.0-0.8,TRUE,FALSE,FALSE,FALSE,"""event"",""trial"",""time""
""fullscreenenter"",""5"",""50368""
","
","
","""event"",""trial"",""time""
""fullscreenenter"",""5"",""50368""
","
",150,NA,48,NA,NA,3000,1,NA,NA,images/earth.jpg,images/rocket2,images/rocket1,null,images/rocket2,NA,1,real,null,2,NA,NA,NA,sub149
d3-animate-choice,160,859162,0.0-76.0-1.8,TRUE,FALSE,FALSE,FALSE,"""event"",""trial"",""time""
""fullscreenenter"",""5"",""50368""
","
","
","""event"",""trial"",""time""
""fullscreenenter"",""5"",""50368""
","
",450,NA,48,NA,NA,3000,1,NA,NA,images/redplanet1.jpg,images/alien2,images/alien1,images/rocket2,images/alien2,images/nothing.png,2,real,true,2,common,0,2020-06-29T21:51:41Z,sub149
two-step-fixation,161,860165,0.0-76.0-2.8,TRUE,FALSE,FALSE,FALSE,"""event"",""trial"",""time""
""fullscreenenter"",""5"",""50368""
","
","
","""event"",""trial"",""time""
""fullscreenenter"",""5"",""50368""
","
",NA,images/earth.jpg,NA,NA,NA,NA,NA,NA,NA,NA,NA,NA,NA,NA,NA,fixation,NA,NA,NA,NA,NA,NA,sub149
d3-animate-choice,162,862445,0.0-76.0-0.9,TRUE,FALSE,FALSE,FALSE,"""event"",""trial"",""time""
""fullscreenenter"",""5"",""50368""
","
","
","""event"",""trial"",""time""
""fullscreenenter"",""5"",""50368""
","
",276.9999999998836,NA,48,NA,NA,3000,1,NA,NA,images/earth.jpg,images/rocket2,images/rocket1,null,images/rocket2,NA,1,real,null,2,NA,NA,NA,sub149
d3-animate-choice,163,865335,0.0-76.0-1.9,TRUE,FALSE,FALSE,FALSE,"""event"",""trial"",""time""
""fullscreenenter"",""5"",""50368""
","
","
","""event"",""trial"",""time""
""fullscreenenter"",""5"",""50368""
","
",887,NA,48,NA,NA,3000,1,NA,NA,images/redplanet1.jpg,images/alien2,images/alien1,images/rocket2,images/alien2,images/nothing.png,2,real,true,2,common,0,2020-06-29T21:51:48Z,sub149
two-step-fixation,164,866340,0.0-76.0-2.9,TRUE,FALSE,FALSE,FALSE,"""event"",""trial"",""time""
""fullscreenenter"",""5"",""50368""
","
","
","""event"",""trial"",""time""
""fullscreenenter"",""5"",""50368""
","
",NA,images/earth.jpg,NA,NA,NA,NA,NA,NA,NA,NA,NA,NA,NA,NA,NA,fixation,NA,NA,NA,NA,NA,NA,sub149
d3-animate-choice,165,868587,0.0-76.0-0.10,TRUE,FALSE,FALSE,FALSE,"""event"",""trial"",""time""
""fullscreenenter"",""5"",""50368""
","
","
","""event"",""trial"",""time""
""fullscreenenter"",""5"",""50368""
","
",243.00000000011642,NA,48,NA,NA,3000,1,NA,NA,images/earth.jpg,images/rocket2,images/rocket1,null,images/rocket2,NA,1,real,null,2,NA,NA,NA,sub149
d3-animate-choice,166,871068,0.0-76.0-1.10,TRUE,FALSE,FALSE,FALSE,"""event"",""trial"",""time""
""fullscreenenter"",""5"",""50368""
","
","
","""event"",""trial"",""time""
""fullscreenenter"",""5"",""50368""
","
",478.0000000001164,NA,49,NA,NA,3000,1,NA,NA,images/redplanet1.jpg,images/alien2,images/alien1,images/rocket2,images/alien1,images/t.png,2,real,true,1,common,1,2020-06-29T21:51:53Z,sub149
two-step-fixation,167,872070,0.0-76.0-2.10,TRUE,FALSE,FALSE,FALSE,"""event"",""trial"",""time""
""fullscreenenter"",""5"",""50368""
","
","
","""event"",""trial"",""time""
""fullscreenenter"",""5"",""50368""
","
",NA,images/earth.jpg,NA,NA,NA,NA,NA,NA,NA,NA,NA,NA,NA,NA,NA,fixation,NA,NA,NA,NA,NA,NA,sub149
d3-animate-choice,168,874332,0.0-76.0-0.11,TRUE,FALSE,FALSE,FALSE,"""event"",""trial"",""time""
""fullscreenenter"",""5"",""50368""
","
","
","""event"",""trial"",""time""
""fullscreenenter"",""5"",""50368""
","
",259,NA,48,NA,NA,3000,1,NA,NA,images/earth.jpg,images/rocket2,images/rocket1,null,images/rocket2,NA,1,real,null,2,NA,NA,NA,sub149
d3-animate-choice,169,877055,0.0-76.0-1.11,TRUE,FALSE,FALSE,FALSE,"""event"",""trial"",""time""
""fullscreenenter"",""5"",""50368""
","
","
","""event"",""trial"",""time""
""fullscreenenter"",""5"",""50368""
","
",719,NA,49,NA,NA,3000,1,NA,NA,images/redplanet1.jpg,images/alien2,images/alien1,images/rocket2,images/alien1,images/nothing.png,2,real,true,1,common,0,2020-06-29T21:51:59Z,sub149
two-step-fixation,170,878058,0.0-76.0-2.11,TRUE,FALSE,FALSE,FALSE,"""event"",""trial"",""time""
""fullscreenenter"",""5"",""50368""
","
","
","""event"",""trial"",""time""
""fullscreenenter"",""5"",""50368""
","
",NA,images/earth.jpg,NA,NA,NA,NA,NA,NA,NA,NA,NA,NA,NA,NA,NA,fixation,NA,NA,NA,NA,NA,NA,sub149
d3-animate-choice,171,880388,0.0-76.0-0.12,TRUE,FALSE,FALSE,FALSE,"""event"",""trial"",""time""
""fullscreenenter"",""5"",""50368""
","
","
","""event"",""trial"",""time""
""fullscreenenter"",""5"",""50368""
","
",327,NA,48,NA,NA,3000,1,NA,NA,images/earth.jpg,images/rocket2,images/rocket1,null,images/rocket2,NA,1,real,null,2,NA,NA,NA,sub149
d3-animate-choice,172,882948,0.0-76.0-1.12,TRUE,FALSE,FALSE,FALSE,"""event"",""trial"",""time""
""fullscreenenter"",""5"",""50368""
","
","
","""event"",""trial"",""time""
""fullscreenenter"",""5"",""50368""
","
",557.0000000001164,NA,48,NA,NA,3000,1,NA,NA,images/redplanet1.jpg,images/alien2,images/alien1,images/rocket2,images/alien2,images/nothing.png,2,real,true,2,common,0,2020-06-29T21:52:05Z,sub149
two-step-fixation,173,883950,0.0-76.0-2.12,TRUE,FALSE,FALSE,FALSE,"""event"",""trial"",""time""
""fullscreenenter"",""5"",""50368""
","
","
","""event"",""trial"",""time""
""fullscreenenter"",""5"",""50368""
","
",NA,images/earth.jpg,NA,NA,NA,NA,NA,NA,NA,NA,NA,NA,NA,NA,NA,fixation,NA,NA,NA,NA,NA,NA,sub149
d3-animate-choice,174,886249,0.0-76.0-0.13,TRUE,FALSE,FALSE,FALSE,"""event"",""trial"",""time""
""fullscreenenter"",""5"",""50368""
","
","
","""event"",""trial"",""time""
""fullscreenenter"",""5"",""50368""
","
",296,NA,49,NA,NA,3000,1,NA,NA,images/earth.jpg,images/rocket2,images/rocket1,null,images/rocket1,NA,1,real,null,1,NA,NA,NA,sub149
d3-animate-choice,175,888564,0.0-76.0-1.13,TRUE,FALSE,FALSE,FALSE,"""event"",""trial"",""time""
""fullscreenenter"",""5"",""50368""
","
","
","""event"",""trial"",""time""
""fullscreenenter"",""5"",""50368""
","
",312,NA,48,NA,NA,3000,1,NA,NA,images/purpleplanet.jpg,images/alien4,images/alien3,images/rocket1,images/alien4,images/t.png,2,real,true,2,common,1,2020-06-29T21:52:11Z,sub149
two-step-fixation,176,889567,0.0-76.0-2.13,TRUE,FALSE,FALSE,FALSE,"""event"",""trial"",""time""
""fullscreenenter"",""5"",""50368""
","
","
","""event"",""trial"",""time""
""fullscreenenter"",""5"",""50368""
","
",NA,images/earth.jpg,NA,NA,NA,NA,NA,NA,NA,NA,NA,NA,NA,NA,NA,fixation,NA,NA,NA,NA,NA,NA,sub149
d3-animate-choice,177,891862,0.0-76.0-0.14,TRUE,FALSE,FALSE,FALSE,"""event"",""trial"",""time""
""fullscreenenter"",""5"",""50368""
","
","
","""event"",""trial"",""time""
""fullscreenenter"",""5"",""50368""
","
",292.0000000001164,NA,49,NA,NA,3000,1,NA,NA,images/earth.jpg,images/rocket2,images/rocket1,null,images/rocket1,NA,1,real,null,1,NA,NA,NA,sub149
d3-animate-choice,178,894858,0.0-76.0-1.14,TRUE,FALSE,FALSE,FALSE,"""event"",""trial"",""time""
""fullscreenenter"",""5"",""50368""
","
","
","""event"",""trial"",""time""
""fullscreenenter"",""5"",""50368""
","
",993,NA,48,NA,NA,3000,1,NA,NA,images/redplanet1.jpg,images/alien2,images/alien1,images/rocket1,images/alien2,images/nothing.png,2,real,false,2,rare,0,2020-06-29T21:52:17Z,sub149
two-step-fixation,179,895860,0.0-76.0-2.14,TRUE,FALSE,FALSE,FALSE,"""event"",""trial"",""time""
""fullscreenenter"",""5"",""50368""
","
","
","""event"",""trial"",""time""
""fullscreenenter"",""5"",""50368""
","
",NA,images/earth.jpg,NA,NA,NA,NA,NA,NA,NA,NA,NA,NA,NA,NA,NA,fixation,NA,NA,NA,NA,NA,NA,sub149
d3-animate-choice,180,898099,0.0-76.0-0.15,TRUE,FALSE,FALSE,FALSE,"""event"",""trial"",""time""
""fullscreenenter"",""5"",""50368""
","
","
","""event"",""trial"",""time""
""fullscreenenter"",""5"",""50368""
","
",236,NA,49,NA,NA,3000,1,NA,NA,images/earth.jpg,images/rocket2,images/rocket1,null,images/rocket1,NA,1,real,null,1,NA,NA,NA,sub149
d3-animate-choice,181,900425,0.0-76.0-1.15,TRUE,FALSE,FALSE,FALSE,"""event"",""trial"",""time""
""fullscreenenter"",""5"",""50368""
","
","
","""event"",""trial"",""time""
""fullscreenenter"",""5"",""50368""
","
",322.0000000001164,NA,48,NA,NA,3000,1,NA,NA,images/purpleplanet.jpg,images/alien4,images/alien3,images/rocket1,images/alien4,images/t.png,2,real,true,2,common,1,2020-06-29T21:52:23Z,sub149
two-step-fixation,182,901427,0.0-76.0-2.15,TRUE,FALSE,FALSE,FALSE,"""event"",""trial"",""time""
""fullscreenenter"",""5"",""50368""
","
","
","""event"",""trial"",""time""
""fullscreenenter"",""5"",""50368""
","
",NA,images/earth.jpg,NA,NA,NA,NA,NA,NA,NA,NA,NA,NA,NA,NA,NA,fixation,NA,NA,NA,NA,NA,NA,sub149
d3-animate-choice,183,903746,0.0-76.0-0.16,TRUE,FALSE,FALSE,FALSE,"""event"",""trial"",""time""
""fullscreenenter"",""5"",""50368""
","
","
","""event"",""trial"",""time""
""fullscreenenter"",""5"",""50368""
","
",316,NA,49,NA,NA,3000,1,NA,NA,images/earth.jpg,images/rocket2,images/rocket1,null,images/rocket1,NA,1,real,null,1,NA,NA,NA,sub149
d3-animate-choice,184,906105,0.0-76.0-1.16,TRUE,FALSE,FALSE,FALSE,"""event"",""trial"",""time""
""fullscreenenter"",""5"",""50368""
","
","
","""event"",""trial"",""time""
""fullscreenenter"",""5"",""50368""
","
",356,NA,48,NA,NA,3000,1,NA,NA,images/purpleplanet.jpg,images/alien4,images/alien3,images/rocket1,images/alien4,images/t.png,2,real,true,2,common,1,2020-06-29T21:52:28Z,sub149
two-step-fixation,185,907107,0.0-76.0-2.16,TRUE,FALSE,FALSE,FALSE,"""event"",""trial"",""time""
""fullscreenenter"",""5"",""50368""
","
","
","""event"",""trial"",""time""
""fullscreenenter"",""5"",""50368""
","
",NA,images/earth.jpg,NA,NA,NA,NA,NA,NA,NA,NA,NA,NA,NA,NA,NA,fixation,NA,NA,NA,NA,NA,NA,sub149
d3-animate-choice,186,909394,0.0-76.0-0.17,TRUE,FALSE,FALSE,FALSE,"""event"",""trial"",""time""
""fullscreenenter"",""5"",""50368""
","
","
","""event"",""trial"",""time""
""fullscreenenter"",""5"",""50368""
","
",284,NA,49,NA,NA,3000,1,NA,NA,images/earth.jpg,images/rocket2,images/rocket1,null,images/rocket1,NA,1,real,null,1,NA,NA,NA,sub149
d3-animate-choice,187,911970,0.0-76.0-1.17,TRUE,FALSE,FALSE,FALSE,"""event"",""trial"",""time""
""fullscreenenter"",""5"",""50368""
","
","
","""event"",""trial"",""time""
""fullscreenenter"",""5"",""50368""
","
",573,NA,49,NA,NA,3000,1,NA,NA,images/purpleplanet.jpg,images/alien4,images/alien3,images/rocket1,images/alien3,images/nothing.png,2,real,true,1,common,0,2020-06-29T21:52:34Z,sub149
two-step-fixation,188,912972,0.0-76.0-2.17,TRUE,FALSE,FALSE,FALSE,"""event"",""trial"",""time""
""fullscreenenter"",""5"",""50368""
","
","
","""event"",""trial"",""time""
""fullscreenenter"",""5"",""50368""
","
",NA,images/earth.jpg,NA,NA,NA,NA,NA,NA,NA,NA,NA,NA,NA,NA,NA,fixation,NA,NA,NA,NA,NA,NA,sub149
d3-animate-choice,189,915222,0.0-76.0-0.18,TRUE,FALSE,FALSE,FALSE,"""event"",""trial"",""time""
""fullscreenenter"",""5"",""50368""
","
","
","""event"",""trial"",""time""
""fullscreenenter"",""5"",""50368""
","
",246,NA,49,NA,NA,3000,1,NA,NA,images/earth.jpg,images/rocket2,images/rocket1,null,images/rocket1,NA,1,real,null,1,NA,NA,NA,sub149
d3-animate-choice,190,917640,0.0-76.0-1.18,TRUE,FALSE,FALSE,FALSE,"""event"",""trial"",""time""
""fullscreenenter"",""5"",""50368""
","
","
","""event"",""trial"",""time""
""fullscreenenter"",""5"",""50368""
","
",416.0000000001164,NA,48,NA,NA,3000,1,NA,NA,images/purpleplanet.jpg,images/alien4,images/alien3,images/rocket1,images/alien4,images/nothing.png,2,real,true,2,common,0,2020-06-29T21:52:40Z,sub149
two-step-fixation,191,918643,0.0-76.0-2.18,TRUE,FALSE,FALSE,FALSE,"""event"",""trial"",""time""
""fullscreenenter"",""5"",""50368""
","
","
","""event"",""trial"",""time""
""fullscreenenter"",""5"",""50368""
","
",NA,images/earth.jpg,NA,NA,NA,NA,NA,NA,NA,NA,NA,NA,NA,NA,NA,fixation,NA,NA,NA,NA,NA,NA,sub149
d3-animate-choice,192,920891,0.0-76.0-0.19,TRUE,FALSE,FALSE,FALSE,"""event"",""trial"",""time""
""fullscreenenter"",""5"",""50368""
","
","
","""event"",""trial"",""time""
""fullscreenenter"",""5"",""50368""
","
",244.00000000011642,NA,49,NA,NA,3000,1,NA,NA,images/earth.jpg,images/rocket2,images/rocket1,null,images/rocket1,NA,1,real,null,1,NA,NA,NA,sub149
d3-animate-choice,193,923759,0.0-76.0-1.19,TRUE,FALSE,FALSE,FALSE,"""event"",""trial"",""time""
""fullscreenenter"",""5"",""50368""
","
","
","""event"",""trial"",""time""
""fullscreenenter"",""5"",""50368""
","
",866,NA,49,NA,NA,3000,1,NA,NA,images/redplanet1.jpg,images/alien2,images/alien1,images/rocket1,images/alien1,images/t.png,2,real,false,1,rare,1,2020-06-29T21:52:46Z,sub149
two-step-fixation,194,924762,0.0-76.0-2.19,TRUE,FALSE,FALSE,FALSE,"""event"",""trial"",""time""
""fullscreenenter"",""5"",""50368""
","
","
","""event"",""trial"",""time""
""fullscreenenter"",""5"",""50368""
","
",NA,images/earth.jpg,NA,NA,NA,NA,NA,NA,NA,NA,NA,NA,NA,NA,NA,fixation,NA,NA,NA,NA,NA,NA,sub149
d3-animate-choice,195,927062,0.0-76.0-0.20,TRUE,FALSE,FALSE,FALSE,"""event"",""trial"",""time""
""fullscreenenter"",""5"",""50368""
","
","
","""event"",""trial"",""time""
""fullscreenenter"",""5"",""50368""
","
",296,NA,49,NA,NA,3000,1,NA,NA,images/earth.jpg,images/rocket2,images/rocket1,null,images/rocket1,NA,1,real,null,1,NA,NA,NA,sub149
d3-animate-choice,196,929467,0.0-76.0-1.20,TRUE,FALSE,FALSE,FALSE,"""event"",""trial"",""time""
""fullscreenenter"",""5"",""50368""
","
","
","""event"",""trial"",""time""
""fullscreenenter"",""5"",""50368""
","
",402,NA,48,NA,NA,3000,1,NA,NA,images/purpleplanet.jpg,images/alien4,images/alien3,images/rocket1,images/alien4,images/t.png,2,real,true,2,common,1,2020-06-29T21:52:52Z,sub149
two-step-fixation,197,930470,0.0-76.0-2.20,TRUE,FALSE,FALSE,FALSE,"""event"",""trial"",""time""
""fullscreenenter"",""5"",""50368""
","
","
","""event"",""trial"",""time""
""fullscreenenter"",""5"",""50368""
","
",NA,images/earth.jpg,NA,NA,NA,NA,NA,NA,NA,NA,NA,NA,NA,NA,NA,fixation,NA,NA,NA,NA,NA,NA,sub149
d3-animate-choice,198,932776,0.0-76.0-0.21,TRUE,FALSE,FALSE,FALSE,"""event"",""trial"",""time""
""fullscreenenter"",""5"",""50368""
","
","
","""event"",""trial"",""time""
""fullscreenenter"",""5"",""50368""
","
",301.9999999998836,NA,49,NA,NA,3000,1,NA,NA,images/earth.jpg,images/rocket2,images/rocket1,null,images/rocket1,NA,1,real,null,1,NA,NA,NA,sub149
d3-animate-choice,199,935114,0.0-76.0-1.21,TRUE,FALSE,FALSE,FALSE,"""event"",""trial"",""time""
""fullscreenenter"",""5"",""50368""
","
","
","""event"",""trial"",""time""
""fullscreenenter"",""5"",""50368""
","
",335,NA,48,NA,NA,3000,1,NA,NA,images/purpleplanet.jpg,images/alien4,images/alien3,images/rocket1,images/alien4,images/t.png,2,real,true,2,common,1,2020-06-29T21:52:57Z,sub149
two-step-fixation,200,936117,0.0-76.0-2.21,TRUE,FALSE,FALSE,FALSE,"""event"",""trial"",""time""
""fullscreenenter"",""5"",""50368""
","
","
","""event"",""trial"",""time""
""fullscreenenter"",""5"",""50368""
","
",NA,images/earth.jpg,NA,NA,NA,NA,NA,NA,NA,NA,NA,NA,NA,NA,NA,fixation,NA,NA,NA,NA,NA,NA,sub149
d3-animate-choice,201,938359,0.0-76.0-0.22,TRUE,FALSE,FALSE,FALSE,"""event"",""trial"",""time""
""fullscreenenter"",""5"",""50368""
","
","
","""event"",""trial"",""time""
""fullscreenenter"",""5"",""50368""
","
",239,NA,49,NA,NA,3000,1,NA,NA,images/earth.jpg,images/rocket2,images/rocket1,null,images/rocket1,NA,1,real,null,1,NA,NA,NA,sub149
d3-animate-choice,202,940702,0.0-76.0-1.22,TRUE,FALSE,FALSE,FALSE,"""event"",""trial"",""time""
""fullscreenenter"",""5"",""50368""
","
","
","""event"",""trial"",""time""
""fullscreenenter"",""5"",""50368""
","
",340,NA,48,NA,NA,3000,1,NA,NA,images/purpleplanet.jpg,images/alien4,images/alien3,images/rocket1,images/alien4,images/t.png,2,real,true,2,common,1,2020-06-29T21:53:03Z,sub149
two-step-fixation,203,941703,0.0-76.0-2.22,TRUE,FALSE,FALSE,FALSE,"""event"",""trial"",""time""
""fullscreenenter"",""5"",""50368""
","
","
","""event"",""trial"",""time""
""fullscreenenter"",""5"",""50368""
","
",NA,images/earth.jpg,NA,NA,NA,NA,NA,NA,NA,NA,NA,NA,NA,NA,NA,fixation,NA,NA,NA,NA,NA,NA,sub149
d3-animate-choice,204,943923,0.0-76.0-0.23,TRUE,FALSE,FALSE,FALSE,"""event"",""trial"",""time""
""fullscreenenter"",""5"",""50368""
","
","
","""event"",""trial"",""time""
""fullscreenenter"",""5"",""50368""
","
",216,NA,49,NA,NA,3000,1,NA,NA,images/earth.jpg,images/rocket2,images/rocket1,null,images/rocket1,NA,1,real,null,1,NA,NA,NA,sub149
d3-animate-choice,205,946237,0.0-76.0-1.23,TRUE,FALSE,FALSE,FALSE,"""event"",""trial"",""time""
""fullscreenenter"",""5"",""50368""
","
","
","""event"",""trial"",""time""
""fullscreenenter"",""5"",""50368""
","
",310.9999999998836,NA,48,NA,NA,3000,1,NA,NA,images/purpleplanet.jpg,images/alien4,images/alien3,images/rocket1,images/alien4,images/t.png,2,real,true,2,common,1,2020-06-29T21:53:08Z,sub149
two-step-fixation,206,947238,0.0-76.0-2.23,TRUE,FALSE,FALSE,FALSE,"""event"",""trial"",""time""
""fullscreenenter"",""5"",""50368""
","
","
","""event"",""trial"",""time""
""fullscreenenter"",""5"",""50368""
","
",NA,images/earth.jpg,NA,NA,NA,NA,NA,NA,NA,NA,NA,NA,NA,NA,NA,fixation,NA,NA,NA,NA,NA,NA,sub149
d3-animate-choice,207,949493,0.0-76.0-0.24,TRUE,FALSE,FALSE,FALSE,"""event"",""trial"",""time""
""fullscreenenter"",""5"",""50368""
","
","
","""event"",""trial"",""time""
""fullscreenenter"",""5"",""50368""
","
",252.00000000011642,NA,49,NA,NA,3000,1,NA,NA,images/earth.jpg,images/rocket2,images/rocket1,null,images/rocket1,NA,1,real,null,1,NA,NA,NA,sub149
d3-animate-choice,208,951850,0.0-76.0-1.24,TRUE,FALSE,FALSE,FALSE,"""event"",""trial"",""time""
""fullscreenenter"",""5"",""50368""
","
","
","""event"",""trial"",""time""
""fullscreenenter"",""5"",""50368""
","
",354,NA,48,NA,NA,3000,1,NA,NA,images/purpleplanet.jpg,images/alien4,images/alien3,images/rocket1,images/alien4,images/t.png,2,real,true,2,common,1,2020-06-29T21:53:14Z,sub149
two-step-fixation,209,952853,0.0-76.0-2.24,TRUE,FALSE,FALSE,FALSE,"""event"",""trial"",""time""
""fullscreenenter"",""5"",""50368""
","
","
","""event"",""trial"",""time""
""fullscreenenter"",""5"",""50368""
","
",NA,images/earth.jpg,NA,NA,NA,NA,NA,NA,NA,NA,NA,NA,NA,NA,NA,fixation,NA,NA,NA,NA,NA,NA,sub149
d3-animate-choice,210,955142,0.0-76.0-0.25,TRUE,FALSE,FALSE,FALSE,"""event"",""trial"",""time""
""fullscreenenter"",""5"",""50368""
","
","
","""event"",""trial"",""time""
""fullscreenenter"",""5"",""50368""
","
",286.0000000001164,NA,49,NA,NA,3000,1,NA,NA,images/earth.jpg,images/rocket2,images/rocket1,null,images/rocket1,NA,1,real,null,1,NA,NA,NA,sub149
d3-animate-choice,211,958647,0.0-76.0-1.25,TRUE,FALSE,FALSE,FALSE,"""event"",""trial"",""time""
""fullscreenenter"",""5"",""50368""
","
","
","""event"",""trial"",""time""
""fullscreenenter"",""5"",""50368""
","
",1502,NA,48,NA,NA,3000,1,NA,NA,images/redplanet1.jpg,images/alien2,images/alien1,images/rocket1,images/alien2,images/t.png,2,real,false,2,rare,1,2020-06-29T21:53:21Z,sub149
two-step-fixation,212,959650,0.0-76.0-2.25,TRUE,FALSE,FALSE,FALSE,"""event"",""trial"",""time""
""fullscreenenter"",""5"",""50368""
","
","
","""event"",""trial"",""time""
""fullscreenenter"",""5"",""50368""
","
",NA,images/earth.jpg,NA,NA,NA,NA,NA,NA,NA,NA,NA,NA,NA,NA,NA,fixation,NA,NA,NA,NA,NA,NA,sub149
d3-animate-choice,213,961928,0.0-76.0-0.26,TRUE,FALSE,FALSE,FALSE,"""event"",""trial"",""time""
""fullscreenenter"",""5"",""50368""
","
","
","""event"",""trial"",""time""
""fullscreenenter"",""5"",""50368""
","
",275,NA,49,NA,NA,3000,1,NA,NA,images/earth.jpg,images/rocket2,images/rocket1,null,images/rocket1,NA,1,real,null,1,NA,NA,NA,sub149
d3-animate-choice,214,964273,0.0-76.0-1.26,TRUE,FALSE,FALSE,FALSE,"""event"",""trial"",""time""
""fullscreenenter"",""5"",""50368""
","
","
","""event"",""trial"",""time""
""fullscreenenter"",""5"",""50368""
","
",341.0000000001164,NA,48,NA,NA,3000,1,NA,NA,images/purpleplanet.jpg,images/alien4,images/alien3,images/rocket1,images/alien4,images/t.png,2,real,true,2,common,1,2020-06-29T21:53:27Z,sub149
two-step-fixation,215,965275,0.0-76.0-2.26,TRUE,FALSE,FALSE,FALSE,"""event"",""trial"",""time""
""fullscreenenter"",""5"",""50368""
","
","
","""event"",""trial"",""time""
""fullscreenenter"",""5"",""50368""
","
",NA,images/earth.jpg,NA,NA,NA,NA,NA,NA,NA,NA,NA,NA,NA,NA,NA,fixation,NA,NA,NA,NA,NA,NA,sub149
d3-animate-choice,216,967816,0.0-76.0-0.27,TRUE,FALSE,FALSE,FALSE,"""event"",""trial"",""time""
""fullscreenenter"",""5"",""50368""
","
","
","""event"",""trial"",""time""
""fullscreenenter"",""5"",""50368""
","
",538.0000000001164,NA,49,NA,NA,3000,1,NA,NA,images/earth.jpg,images/rocket2,images/rocket1,null,images/rocket1,NA,1,real,null,1,NA,NA,NA,sub149
d3-animate-choice,217,970203,0.0-76.0-1.27,TRUE,FALSE,FALSE,FALSE,"""event"",""trial"",""time""
""fullscreenenter"",""5"",""50368""
","
","
","""event"",""trial"",""time""
""fullscreenenter"",""5"",""50368""
","
",383,NA,48,NA,NA,3000,1,NA,NA,images/purpleplanet.jpg,images/alien4,images/alien3,images/rocket1,images/alien4,images/t.png,2,real,true,2,common,1,2020-06-29T21:53:32Z,sub149
two-step-fixation,218,971205,0.0-76.0-2.27,TRUE,FALSE,FALSE,FALSE,"""event"",""trial"",""time""
""fullscreenenter"",""5"",""50368""
","
","
","""event"",""trial"",""time""
""fullscreenenter"",""5"",""50368""
","
",NA,images/earth.jpg,NA,NA,NA,NA,NA,NA,NA,NA,NA,NA,NA,NA,NA,fixation,NA,NA,NA,NA,NA,NA,sub149
d3-animate-choice,219,973705,0.0-76.0-0.28,TRUE,FALSE,FALSE,FALSE,"""event"",""trial"",""time""
""fullscreenenter"",""5"",""50368""
","
","
","""event"",""trial"",""time""
""fullscreenenter"",""5"",""50368""
","
",498,NA,49,NA,NA,3000,1,NA,NA,images/earth.jpg,images/rocket2,images/rocket1,null,images/rocket1,NA,1,real,null,1,NA,NA,NA,sub149
d3-animate-choice,220,976063,0.0-76.0-1.28,TRUE,FALSE,FALSE,FALSE,"""event"",""trial"",""time""
""fullscreenenter"",""5"",""50368""
","
","
","""event"",""trial"",""time""
""fullscreenenter"",""5"",""50368""
","
",355,NA,48,NA,NA,3000,1,NA,NA,images/purpleplanet.jpg,images/alien4,images/alien3,images/rocket1,images/alien4,images/t.png,2,real,true,2,common,1,2020-06-29T21:53:38Z,sub149
two-step-fixation,221,977065,0.0-76.0-2.28,TRUE,FALSE,FALSE,FALSE,"""event"",""trial"",""time""
""fullscreenenter"",""5"",""50368""
","
","
","""event"",""trial"",""time""
""fullscreenenter"",""5"",""50368""
","
",NA,images/earth.jpg,NA,NA,NA,NA,NA,NA,NA,NA,NA,NA,NA,NA,NA,fixation,NA,NA,NA,NA,NA,NA,sub149
d3-animate-choice,222,979274,0.0-76.0-0.29,TRUE,FALSE,FALSE,FALSE,"""event"",""trial"",""time""
""fullscreenenter"",""5"",""50368""
","
","
","""event"",""trial"",""time""
""fullscreenenter"",""5"",""50368""
","
",205.00000000011642,NA,49,NA,NA,3000,1,NA,NA,images/earth.jpg,images/rocket2,images/rocket1,null,images/rocket1,NA,1,real,null,1,NA,NA,NA,sub149
d3-animate-choice,223,981586,0.0-76.0-1.29,TRUE,FALSE,FALSE,FALSE,"""event"",""trial"",""time""
""fullscreenenter"",""5"",""50368""
","
","
","""event"",""trial"",""time""
""fullscreenenter"",""5"",""50368""
","
",309,NA,48,NA,NA,3000,1,NA,NA,images/purpleplanet.jpg,images/alien4,images/alien3,images/rocket1,images/alien4,images/t.png,2,real,true,2,common,1,2020-06-29T21:53:44Z,sub149
two-step-fixation,224,982588,0.0-76.0-2.29,TRUE,FALSE,FALSE,FALSE,"""event"",""trial"",""time""
""fullscreenenter"",""5"",""50368""
","
","
","""event"",""trial"",""time""
""fullscreenenter"",""5"",""50368""
","
",NA,images/earth.jpg,NA,NA,NA,NA,NA,NA,NA,NA,NA,NA,NA,NA,NA,fixation,NA,NA,NA,NA,NA,NA,sub149
d3-animate-choice,225,984928,0.0-76.0-0.30,TRUE,FALSE,FALSE,FALSE,"""event"",""trial"",""time""
""fullscreenenter"",""5"",""50368""
","
","
","""event"",""trial"",""time""
""fullscreenenter"",""5"",""50368""
","
",336,NA,49,NA,NA,3000,1,NA,NA,images/earth.jpg,images/rocket2,images/rocket1,null,images/rocket1,NA,1,real,null,1,NA,NA,NA,sub149
d3-animate-choice,226,987257,0.0-76.0-1.30,TRUE,FALSE,FALSE,FALSE,"""event"",""trial"",""time""
""fullscreenenter"",""5"",""50368""
","
","
","""event"",""trial"",""time""
""fullscreenenter"",""5"",""50368""
","
",326,NA,48,NA,NA,3000,1,NA,NA,images/purpleplanet.jpg,images/alien4,images/alien3,images/rocket1,images/alien4,images/t.png,2,real,true,2,common,1,2020-06-29T21:53:49Z,sub149
two-step-fixation,227,988260,0.0-76.0-2.30,TRUE,FALSE,FALSE,FALSE,"""event"",""trial"",""time""
""fullscreenenter"",""5"",""50368""
","
","
","""event"",""trial"",""time""
""fullscreenenter"",""5"",""50368""
","
",NA,images/earth.jpg,NA,NA,NA,NA,NA,NA,NA,NA,NA,NA,NA,NA,NA,fixation,NA,NA,NA,NA,NA,NA,sub149
d3-animate-choice,228,990463,0.0-76.0-0.31,TRUE,FALSE,FALSE,FALSE,"""event"",""trial"",""time""
""fullscreenenter"",""5"",""50368""
","
","
","""event"",""trial"",""time""
""fullscreenenter"",""5"",""50368""
","
",198.99999999988358,NA,49,NA,NA,3000,1,NA,NA,images/earth.jpg,images/rocket2,images/rocket1,null,images/rocket1,NA,1,real,null,1,NA,NA,NA,sub149
d3-animate-choice,229,992770,0.0-76.0-1.31,TRUE,FALSE,FALSE,FALSE,"""event"",""trial"",""time""
""fullscreenenter"",""5"",""50368""
","
","
","""event"",""trial"",""time""
""fullscreenenter"",""5"",""50368""
","
",304,NA,48,NA,NA,3000,1,NA,NA,images/purpleplanet.jpg,images/alien4,images/alien3,images/rocket1,images/alien4,images/nothing.png,2,real,true,2,common,0,2020-06-29T21:53:55Z,sub149
two-step-fixation,230,993772,0.0-76.0-2.31,TRUE,FALSE,FALSE,FALSE,"""event"",""trial"",""time""
""fullscreenenter"",""5"",""50368""
","
","
","""event"",""trial"",""time""
""fullscreenenter"",""5"",""50368""
","
",NA,images/earth.jpg,NA,NA,NA,NA,NA,NA,NA,NA,NA,NA,NA,NA,NA,fixation,NA,NA,NA,NA,NA,NA,sub149
d3-animate-choice,231,996010,0.0-76.0-0.32,TRUE,FALSE,FALSE,FALSE,"""event"",""trial"",""time""
""fullscreenenter"",""5"",""50368""
","
","
","""event"",""trial"",""time""
""fullscreenenter"",""5"",""50368""
","
",235,NA,49,NA,NA,3000,1,NA,NA,images/earth.jpg,images/rocket2,images/rocket1,null,images/rocket1,NA,1,real,null,1,NA,NA,NA,sub149
d3-animate-choice,232,998290,0.0-76.0-1.32,TRUE,FALSE,FALSE,FALSE,"""event"",""trial"",""time""
""fullscreenenter"",""5"",""50368""
","
","
","""event"",""trial"",""time""
""fullscreenenter"",""5"",""50368""
","
",275.9999999998836,NA,48,NA,NA,3000,1,NA,NA,images/redplanet1.jpg,images/alien2,images/alien1,images/rocket1,images/alien2,images/nothing.png,2,real,false,2,rare,0,2020-06-29T21:54:01Z,sub149
two-step-fixation,233,999293,0.0-76.0-2.32,TRUE,FALSE,FALSE,FALSE,"""event"",""trial"",""time""
""fullscreenenter"",""5"",""50368""
","
","
","""event"",""trial"",""time""
""fullscreenenter"",""5"",""50368""
","
",NA,images/earth.jpg,NA,NA,NA,NA,NA,NA,NA,NA,NA,NA,NA,NA,NA,fixation,NA,NA,NA,NA,NA,NA,sub149
d3-animate-choice,234,1001454,0.0-76.0-0.33,TRUE,FALSE,FALSE,FALSE,"""event"",""trial"",""time""
""fullscreenenter"",""5"",""50368""
","
","
","""event"",""trial"",""time""
""fullscreenenter"",""5"",""50368""
","
",157,NA,49,NA,NA,3000,1,NA,NA,images/earth.jpg,images/rocket2,images/rocket1,null,images/rocket1,NA,1,real,null,1,NA,NA,NA,sub149
d3-animate-choice,235,1003806,0.0-76.0-1.33,TRUE,FALSE,FALSE,FALSE,"""event"",""trial"",""time""
""fullscreenenter"",""5"",""50368""
","
","
","""event"",""trial"",""time""
""fullscreenenter"",""5"",""50368""
","
",349,NA,48,NA,NA,3000,1,NA,NA,images/purpleplanet.jpg,images/alien4,images/alien3,images/rocket1,images/alien4,images/nothing.png,2,real,true,2,common,0,2020-06-29T21:54:06Z,sub149
two-step-fixation,236,1004809,0.0-76.0-2.33,TRUE,FALSE,FALSE,FALSE,"""event"",""trial"",""time""
""fullscreenenter"",""5"",""50368""
","
","
","""event"",""trial"",""time""
""fullscreenenter"",""5"",""50368""
","
",NA,images/earth.jpg,NA,NA,NA,NA,NA,NA,NA,NA,NA,NA,NA,NA,NA,fixation,NA,NA,NA,NA,NA,NA,sub149
d3-animate-choice,237,1007176,0.0-76.0-0.34,TRUE,FALSE,FALSE,FALSE,"""event"",""trial"",""time""
""fullscreenenter"",""5"",""50368""
","
","
","""event"",""trial"",""time""
""fullscreenenter"",""5"",""50368""
","
",363,NA,49,NA,NA,3000,1,NA,NA,images/earth.jpg,images/rocket2,images/rocket1,null,images/rocket1,NA,1,real,null,1,NA,NA,NA,sub149
d3-animate-choice,238,1009800,0.0-76.0-1.34,TRUE,FALSE,FALSE,FALSE,"""event"",""trial"",""time""
""fullscreenenter"",""5"",""50368""
","
","
","""event"",""trial"",""time""
""fullscreenenter"",""5"",""50368""
","
",620.9999999998836,NA,49,NA,NA,3000,1,NA,NA,images/purpleplanet.jpg,images/alien4,images/alien3,images/rocket1,images/alien3,images/t.png,2,real,true,1,common,1,2020-06-29T21:54:12Z,sub149
two-step-fixation,239,1010803,0.0-76.0-2.34,TRUE,FALSE,FALSE,FALSE,"""event"",""trial"",""time""
""fullscreenenter"",""5"",""50368""
","
","
","""event"",""trial"",""time""
""fullscreenenter"",""5"",""50368""
","
",NA,images/earth.jpg,NA,NA,NA,NA,NA,NA,NA,NA,NA,NA,NA,NA,NA,fixation,NA,NA,NA,NA,NA,NA,sub149
d3-animate-choice,240,1013095,0.0-76.0-0.35,TRUE,FALSE,FALSE,FALSE,"""event"",""trial"",""time""
""fullscreenenter"",""5"",""50368""
","
","
","""event"",""trial"",""time""
""fullscreenenter"",""5"",""50368""
","
",287,NA,49,NA,NA,3000,1,NA,NA,images/earth.jpg,images/rocket2,images/rocket1,null,images/rocket1,NA,1,real,null,1,NA,NA,NA,sub149
d3-animate-choice,241,1015510,0.0-76.0-1.35,TRUE,FALSE,FALSE,FALSE,"""event"",""trial"",""time""
""fullscreenenter"",""5"",""50368""
","
","
","""event"",""trial"",""time""
""fullscreenenter"",""5"",""50368""
","
",412,NA,49,NA,NA,3000,1,NA,NA,images/purpleplanet.jpg,images/alien4,images/alien3,images/rocket1,images/alien3,images/nothing.png,2,real,true,1,common,0,2020-06-29T21:54:18Z,sub149
two-step-fixation,242,1016512,0.0-76.0-2.35,TRUE,FALSE,FALSE,FALSE,"""event"",""trial"",""time""
""fullscreenenter"",""5"",""50368""
","
","
","""event"",""trial"",""time""
""fullscreenenter"",""5"",""50368""
","
",NA,images/earth.jpg,NA,NA,NA,NA,NA,NA,NA,NA,NA,NA,NA,NA,NA,fixation,NA,NA,NA,NA,NA,NA,sub149
d3-animate-choice,243,1018778,0.0-76.0-0.36,TRUE,FALSE,FALSE,FALSE,"""event"",""trial"",""time""
""fullscreenenter"",""5"",""50368""
","
","
","""event"",""trial"",""time""
""fullscreenenter"",""5"",""50368""
","
",262.00000000023283,NA,49,NA,NA,3000,1,NA,NA,images/earth.jpg,images/rocket2,images/rocket1,null,images/rocket1,NA,1,real,null,1,NA,NA,NA,sub149
d3-animate-choice,244,1021126,0.0-76.0-1.36,TRUE,FALSE,FALSE,FALSE,"""event"",""trial"",""time""
""fullscreenenter"",""5"",""50368""
","
","
","""event"",""trial"",""time""
""fullscreenenter"",""5"",""50368""
","
",345,NA,48,NA,NA,3000,1,NA,NA,images/purpleplanet.jpg,images/alien4,images/alien3,images/rocket1,images/alien4,images/nothing.png,2,real,true,2,common,0,2020-06-29T21:54:23Z,sub149
two-step-fixation,245,1022129,0.0-76.0-2.36,TRUE,FALSE,FALSE,FALSE,"""event"",""trial"",""time""
""fullscreenenter"",""5"",""50368""
","
","
","""event"",""trial"",""time""
""fullscreenenter"",""5"",""50368""
","
",NA,images/earth.jpg,NA,NA,NA,NA,NA,NA,NA,NA,NA,NA,NA,NA,NA,fixation,NA,NA,NA,NA,NA,NA,sub149
d3-animate-choice,246,1024374,0.0-76.0-0.37,TRUE,FALSE,FALSE,FALSE,"""event"",""trial"",""time""
""fullscreenenter"",""5"",""50368""
","
","
","""event"",""trial"",""time""
""fullscreenenter"",""5"",""50368""
","
",242,NA,48,NA,NA,3000,1,NA,NA,images/earth.jpg,images/rocket2,images/rocket1,null,images/rocket2,NA,1,real,null,2,NA,NA,NA,sub149
d3-animate-choice,247,1026643,0.0-76.0-1.37,TRUE,FALSE,FALSE,FALSE,"""event"",""trial"",""time""
""fullscreenenter"",""5"",""50368""
","
","
","""event"",""trial"",""time""
""fullscreenenter"",""5"",""50368""
","
",266.0000000001164,NA,48,NA,NA,3000,1,NA,NA,images/redplanet1.jpg,images/alien2,images/alien1,images/rocket2,images/alien2,images/nothing.png,2,real,true,2,common,0,2020-06-29T21:54:29Z,sub149
two-step-fixation,248,1027645,0.0-76.0-2.37,TRUE,FALSE,FALSE,FALSE,"""event"",""trial"",""time""
""fullscreenenter"",""5"",""50368""
","
","
","""event"",""trial"",""time""
""fullscreenenter"",""5"",""50368""
","
",NA,images/earth.jpg,NA,NA,NA,NA,NA,NA,NA,NA,NA,NA,NA,NA,NA,fixation,NA,NA,NA,NA,NA,NA,sub149
d3-animate-choice,249,1029904,0.0-76.0-0.38,TRUE,FALSE,FALSE,FALSE,"""event"",""trial"",""time""
""fullscreenenter"",""5"",""50368""
","
","
","""event"",""trial"",""time""
""fullscreenenter"",""5"",""50368""
","
",251,NA,49,NA,NA,3000,1,NA,NA,images/earth.jpg,images/rocket2,images/rocket1,null,images/rocket1,NA,1,real,null,1,NA,NA,NA,sub149
d3-animate-choice,250,1032176,0.0-76.0-1.38,TRUE,FALSE,FALSE,FALSE,"""event"",""trial"",""time""
""fullscreenenter"",""5"",""50368""
","
","
","""event"",""trial"",""time""
""fullscreenenter"",""5"",""50368""
","
",267,NA,48,NA,NA,3000,1,NA,NA,images/purpleplanet.jpg,images/alien4,images/alien3,images/rocket1,images/alien4,images/nothing.png,2,real,true,2,common,0,2020-06-29T21:54:34Z,sub149
two-step-fixation,251,1033179,0.0-76.0-2.38,TRUE,FALSE,FALSE,FALSE,"""event"",""trial"",""time""
""fullscreenenter"",""5"",""50368""
","
","
","""event"",""trial"",""time""
""fullscreenenter"",""5"",""50368""
","
",NA,images/earth.jpg,NA,NA,NA,NA,NA,NA,NA,NA,NA,NA,NA,NA,NA,fixation,NA,NA,NA,NA,NA,NA,sub149
d3-animate-choice,252,1035457,0.0-76.0-0.39,TRUE,FALSE,FALSE,FALSE,"""event"",""trial"",""time""
""fullscreenenter"",""5"",""50368""
","
","
","""event"",""trial"",""time""
""fullscreenenter"",""5"",""50368""
","
",271.99999999976717,NA,48,NA,NA,3000,1,NA,NA,images/earth.jpg,images/rocket2,images/rocket1,null,images/rocket2,NA,1,real,null,2,NA,NA,NA,sub149
d3-animate-choice,253,1037807,0.0-76.0-1.39,TRUE,FALSE,FALSE,FALSE,"""event"",""trial"",""time""
""fullscreenenter"",""5"",""50368""
","
","
","""event"",""trial"",""time""
""fullscreenenter"",""5"",""50368""
","
",345,NA,49,NA,NA,3000,1,NA,NA,images/purpleplanet.jpg,images/alien4,images/alien3,images/rocket2,images/alien3,images/nothing.png,2,real,false,1,rare,0,2020-06-29T21:54:40Z,sub149
two-step-fixation,254,1038810,0.0-76.0-2.39,TRUE,FALSE,FALSE,FALSE,"""event"",""trial"",""time""
""fullscreenenter"",""5"",""50368""
","
","
","""event"",""trial"",""time""
""fullscreenenter"",""5"",""50368""
","
",NA,images/earth.jpg,NA,NA,NA,NA,NA,NA,NA,NA,NA,NA,NA,NA,NA,fixation,NA,NA,NA,NA,NA,NA,sub149
d3-animate-choice,255,1041063,0.0-76.0-0.40,TRUE,FALSE,FALSE,FALSE,"""event"",""trial"",""time""
""fullscreenenter"",""5"",""50368""
","
","
","""event"",""trial"",""time""
""fullscreenenter"",""5"",""50368""
","
",248.99999999976717,NA,48,NA,NA,3000,1,NA,NA,images/earth.jpg,images/rocket2,images/rocket1,null,images/rocket2,NA,1,real,null,2,NA,NA,NA,sub149
d3-animate-choice,256,1043805,0.0-76.0-1.40,TRUE,FALSE,FALSE,FALSE,"""event"",""trial"",""time""
""fullscreenenter"",""5"",""50368""
","
","
","""event"",""trial"",""time""
""fullscreenenter"",""5"",""50368""
","
",738.0000000002328,NA,49,NA,NA,3000,1,NA,NA,images/purpleplanet.jpg,images/alien4,images/alien3,images/rocket2,images/alien3,images/nothing.png,2,real,false,1,rare,0,2020-06-29T21:54:46Z,sub149
two-step-fixation,257,1044808,0.0-76.0-2.40,TRUE,FALSE,FALSE,FALSE,"""event"",""trial"",""time""
""fullscreenenter"",""5"",""50368""
","
","
","""event"",""trial"",""time""
""fullscreenenter"",""5"",""50368""
","
",NA,images/earth.jpg,NA,NA,NA,NA,NA,NA,NA,NA,NA,NA,NA,NA,NA,fixation,NA,NA,NA,NA,NA,NA,sub149
d3-animate-choice,258,1047068,0.0-76.0-0.41,TRUE,FALSE,FALSE,FALSE,"""event"",""trial"",""time""
""fullscreenenter"",""5"",""50368""
","
","
","""event"",""trial"",""time""
""fullscreenenter"",""5"",""50368""
","
",255.00000000023283,NA,48,NA,NA,3000,1,NA,NA,images/earth.jpg,images/rocket2,images/rocket1,null,images/rocket2,NA,1,real,null,2,NA,NA,NA,sub149
d3-animate-choice,259,1049589,0.0-76.0-1.41,TRUE,FALSE,FALSE,FALSE,"""event"",""trial"",""time""
""fullscreenenter"",""5"",""50368""
","
","
","""event"",""trial"",""time""
""fullscreenenter"",""5"",""50368""
","
",516,NA,48,NA,NA,3000,1,NA,NA,images/purpleplanet.jpg,images/alien4,images/alien3,images/rocket2,images/alien4,images/nothing.png,2,real,false,2,rare,0,2020-06-29T21:54:52Z,sub149
two-step-fixation,260,1050591,0.0-76.0-2.41,TRUE,FALSE,FALSE,FALSE,"""event"",""trial"",""time""
""fullscreenenter"",""5"",""50368""
","
","
","""event"",""trial"",""time""
""fullscreenenter"",""5"",""50368""
","
",NA,images/earth.jpg,NA,NA,NA,NA,NA,NA,NA,NA,NA,NA,NA,NA,NA,fixation,NA,NA,NA,NA,NA,NA,sub149
d3-animate-choice,261,1052923,0.0-76.0-0.42,TRUE,FALSE,FALSE,FALSE,"""event"",""trial"",""time""
""fullscreenenter"",""5"",""50368""
","
","
","""event"",""trial"",""time""
""fullscreenenter"",""5"",""50368""
","
",327,NA,48,NA,NA,3000,1,NA,NA,images/earth.jpg,images/rocket2,images/rocket1,null,images/rocket2,NA,1,real,null,2,NA,NA,NA,sub149
d3-animate-choice,262,1055492,0.0-76.0-1.42,TRUE,FALSE,FALSE,FALSE,"""event"",""trial"",""time""
""fullscreenenter"",""5"",""50368""
","
","
","""event"",""trial"",""time""
""fullscreenenter"",""5"",""50368""
","
",565,NA,48,NA,NA,3000,1,NA,NA,images/redplanet1.jpg,images/alien2,images/alien1,images/rocket2,images/alien2,images/t.png,2,real,true,2,common,1,2020-06-29T21:54:58Z,sub149
two-step-fixation,263,1056495,0.0-76.0-2.42,TRUE,FALSE,FALSE,FALSE,"""event"",""trial"",""time""
""fullscreenenter"",""5"",""50368""
","
","
","""event"",""trial"",""time""
""fullscreenenter"",""5"",""50368""
","
",NA,images/earth.jpg,NA,NA,NA,NA,NA,NA,NA,NA,NA,NA,NA,NA,NA,fixation,NA,NA,NA,NA,NA,NA,sub149
d3-animate-choice,264,1058777,0.0-76.0-0.43,TRUE,FALSE,FALSE,FALSE,"""event"",""trial"",""time""
""fullscreenenter"",""5"",""50368""
","
","
","""event"",""trial"",""time""
""fullscreenenter"",""5"",""50368""
","
",277,NA,48,NA,NA,3000,1,NA,NA,images/earth.jpg,images/rocket2,images/rocket1,null,images/rocket2,NA,1,real,null,2,NA,NA,NA,sub149
d3-animate-choice,265,1061263,0.0-76.0-1.43,TRUE,FALSE,FALSE,FALSE,"""event"",""trial"",""time""
""fullscreenenter"",""5"",""50368""
","
","
","""event"",""trial"",""time""
""fullscreenenter"",""5"",""50368""
","
",482,NA,48,NA,NA,3000,1,NA,NA,images/purpleplanet.jpg,images/alien4,images/alien3,images/rocket2,images/alien4,images/t.png,2,real,false,2,rare,1,2020-06-29T21:55:04Z,sub149
two-step-fixation,266,1062265,0.0-76.0-2.43,TRUE,FALSE,FALSE,FALSE,"""event"",""trial"",""time""
""fullscreenenter"",""5"",""50368""
","
","
","""event"",""trial"",""time""
""fullscreenenter"",""5"",""50368""
","
",NA,images/earth.jpg,NA,NA,NA,NA,NA,NA,NA,NA,NA,NA,NA,NA,NA,fixation,NA,NA,NA,NA,NA,NA,sub149
d3-animate-choice,267,1064497,0.0-76.0-0.44,TRUE,FALSE,FALSE,FALSE,"""event"",""trial"",""time""
""fullscreenenter"",""5"",""50368""
","
","
","""event"",""trial"",""time""
""fullscreenenter"",""5"",""50368""
","
",228,NA,48,NA,NA,3000,1,NA,NA,images/earth.jpg,images/rocket2,images/rocket1,null,images/rocket2,NA,1,real,null,2,NA,NA,NA,sub149
d3-animate-choice,268,1066817,0.0-76.0-1.44,TRUE,FALSE,FALSE,FALSE,"""event"",""trial"",""time""
""fullscreenenter"",""5"",""50368""
","
","
","""event"",""trial"",""time""
""fullscreenenter"",""5"",""50368""
","
",317,NA,48,NA,NA,3000,1,NA,NA,images/redplanet1.jpg,images/alien2,images/alien1,images/rocket2,images/alien2,images/t.png,2,real,true,2,common,1,2020-06-29T21:55:09Z,sub149
two-step-fixation,269,1067820,0.0-76.0-2.44,TRUE,FALSE,FALSE,FALSE,"""event"",""trial"",""time""
""fullscreenenter"",""5"",""50368""
","
","
","""event"",""trial"",""time""
""fullscreenenter"",""5"",""50368""
","
",NA,images/earth.jpg,NA,NA,NA,NA,NA,NA,NA,NA,NA,NA,NA,NA,NA,fixation,NA,NA,NA,NA,NA,NA,sub149
d3-animate-choice,270,1070080,0.0-76.0-0.45,TRUE,FALSE,FALSE,FALSE,"""event"",""trial"",""time""
""fullscreenenter"",""5"",""50368""
","
","
","""event"",""trial"",""time""
""fullscreenenter"",""5"",""50368""
","
",256.99999999976717,NA,48,NA,NA,3000,1,NA,NA,images/earth.jpg,images/rocket2,images/rocket1,null,images/rocket2,NA,1,real,null,2,NA,NA,NA,sub149
d3-animate-choice,271,1072378,0.0-76.0-1.45,TRUE,FALSE,FALSE,FALSE,"""event"",""trial"",""time""
""fullscreenenter"",""5"",""50368""
","
","
","""event"",""trial"",""time""
""fullscreenenter"",""5"",""50368""
","
",295,NA,48,NA,NA,3000,1,NA,NA,images/redplanet1.jpg,images/alien2,images/alien1,images/rocket2,images/alien2,images/t.png,2,real,true,2,common,1,2020-06-29T21:55:15Z,sub149
two-step-fixation,272,1073380,0.0-76.0-2.45,TRUE,FALSE,FALSE,FALSE,"""event"",""trial"",""time""
""fullscreenenter"",""5"",""50368""
","
","
","""event"",""trial"",""time""
""fullscreenenter"",""5"",""50368""
","
",NA,images/earth.jpg,NA,NA,NA,NA,NA,NA,NA,NA,NA,NA,NA,NA,NA,fixation,NA,NA,NA,NA,NA,NA,sub149
d3-animate-choice,273,1075670,0.0-76.0-0.46,TRUE,FALSE,FALSE,FALSE,"""event"",""trial"",""time""
""fullscreenenter"",""5"",""50368""
","
","
","""event"",""trial"",""time""
""fullscreenenter"",""5"",""50368""
","
",286.00000000023283,NA,48,NA,NA,3000,1,NA,NA,images/earth.jpg,images/rocket2,images/rocket1,null,images/rocket2,NA,1,real,null,2,NA,NA,NA,sub149
d3-animate-choice,274,1078234,0.0-76.0-1.46,TRUE,FALSE,FALSE,FALSE,"""event"",""trial"",""time""
""fullscreenenter"",""5"",""50368""
","
","
","""event"",""trial"",""time""
""fullscreenenter"",""5"",""50368""
","
",561,NA,48,NA,NA,3000,1,NA,NA,images/purpleplanet.jpg,images/alien4,images/alien3,images/rocket2,images/alien4,images/t.png,2,real,false,2,rare,1,2020-06-29T21:55:20Z,sub149
two-step-fixation,275,1079237,0.0-76.0-2.46,TRUE,FALSE,FALSE,FALSE,"""event"",""trial"",""time""
""fullscreenenter"",""5"",""50368""
","
","
","""event"",""trial"",""time""
""fullscreenenter"",""5"",""50368""
","
",NA,images/earth.jpg,NA,NA,NA,NA,NA,NA,NA,NA,NA,NA,NA,NA,NA,fixation,NA,NA,NA,NA,NA,NA,sub149
d3-animate-choice,276,1081436,0.0-76.0-0.47,TRUE,FALSE,FALSE,FALSE,"""event"",""trial"",""time""
""fullscreenenter"",""5"",""50368""
","
","
","""event"",""trial"",""time""
""fullscreenenter"",""5"",""50368""
","
",196,NA,48,NA,NA,3000,1,NA,NA,images/earth.jpg,images/rocket2,images/rocket1,null,images/rocket2,NA,1,real,null,2,NA,NA,NA,sub149
d3-animate-choice,277,1083749,0.0-76.0-1.47,TRUE,FALSE,FALSE,FALSE,"""event"",""trial"",""time""
""fullscreenenter"",""5"",""50368""
","
","
","""event"",""trial"",""time""
""fullscreenenter"",""5"",""50368""
","
",309.99999999976717,NA,48,NA,NA,3000,1,NA,NA,images/purpleplanet.jpg,images/alien4,images/alien3,images/rocket2,images/alien4,images/nothing.png,2,real,false,2,rare,0,2020-06-29T21:55:26Z,sub149
two-step-fixation,278,1084752,0.0-76.0-2.47,TRUE,FALSE,FALSE,FALSE,"""event"",""trial"",""time""
""fullscreenenter"",""5"",""50368""
","
","
","""event"",""trial"",""time""
""fullscreenenter"",""5"",""50368""
","
",NA,images/earth.jpg,NA,NA,NA,NA,NA,NA,NA,NA,NA,NA,NA,NA,NA,fixation,NA,NA,NA,NA,NA,NA,sub149
d3-animate-choice,279,1087014,0.0-76.0-0.48,TRUE,FALSE,FALSE,FALSE,"""event"",""trial"",""time""
""fullscreenenter"",""5"",""50368""
","
","
","""event"",""trial"",""time""
""fullscreenenter"",""5"",""50368""
","
",260,NA,48,NA,NA,3000,1,NA,NA,images/earth.jpg,images/rocket2,images/rocket1,null,images/rocket2,NA,1,real,null,2,NA,NA,NA,sub149
d3-animate-choice,280,1089325,0.0-76.0-1.48,TRUE,FALSE,FALSE,FALSE,"""event"",""trial"",""time""
""fullscreenenter"",""5"",""50368""
","
","
","""event"",""trial"",""time""
""fullscreenenter"",""5"",""50368""
","
",308,NA,48,NA,NA,3000,1,NA,NA,images/redplanet1.jpg,images/alien2,images/alien1,images/rocket2,images/alien2,images/t.png,2,real,true,2,common,1,2020-06-29T21:55:32Z,sub149
two-step-fixation,281,1090328,0.0-76.0-2.48,TRUE,FALSE,FALSE,FALSE,"""event"",""trial"",""time""
""fullscreenenter"",""5"",""50368""
","
","
","""event"",""trial"",""time""
""fullscreenenter"",""5"",""50368""
","
",NA,images/earth.jpg,NA,NA,NA,NA,NA,NA,NA,NA,NA,NA,NA,NA,NA,fixation,NA,NA,NA,NA,NA,NA,sub149
d3-animate-choice,282,1092695,0.0-76.0-0.49,TRUE,FALSE,FALSE,FALSE,"""event"",""trial"",""time""
""fullscreenenter"",""5"",""50368""
","
","
","""event"",""trial"",""time""
""fullscreenenter"",""5"",""50368""
","
",363,NA,48,NA,NA,3000,1,NA,NA,images/earth.jpg,images/rocket2,images/rocket1,null,images/rocket2,NA,1,real,null,2,NA,NA,NA,sub149
d3-animate-choice,283,1095211,0.0-76.0-1.49,TRUE,FALSE,FALSE,FALSE,"""event"",""trial"",""time""
""fullscreenenter"",""5"",""50368""
","
","
","""event"",""trial"",""time""
""fullscreenenter"",""5"",""50368""
","
",512,NA,48,NA,NA,3000,1,NA,NA,images/purpleplanet.jpg,images/alien4,images/alien3,images/rocket2,images/alien4,images/nothing.png,2,real,false,2,rare,0,2020-06-29T21:55:37Z,sub149
two-step-fixation,284,1096214,0.0-76.0-2.49,TRUE,FALSE,FALSE,FALSE,"""event"",""trial"",""time""
""fullscreenenter"",""5"",""50368""
","
","
","""event"",""trial"",""time""
""fullscreenenter"",""5"",""50368""
","
",NA,images/earth.jpg,NA,NA,NA,NA,NA,NA,NA,NA,NA,NA,NA,NA,NA,fixation,NA,NA,NA,NA,NA,NA,sub149
audio-button-response-2,285,1102075,0.0-77.0,TRUE,FALSE,FALSE,FALSE,"""event"",""trial"",""time""
""fullscreenenter"",""5"",""50368""
","
","
","""event"",""trial"",""time""
""fullscreenenter"",""5"",""50368""
","
",5858,audio/instructions/break_1.wav,NA,0,NA,NA,NA,NA,NA,NA,NA,NA,NA,NA,NA,NA,NA,NA,NA,NA,NA,NA,sub149
d3-animate-choice,286,1105260,0.0-78.0-0.0,TRUE,FALSE,FALSE,FALSE,"""event"",""trial"",""time""
""fullscreenenter"",""5"",""50368""
","
","
","""event"",""trial"",""time""
""fullscreenenter"",""5"",""50368""
","
",1182,NA,48,NA,NA,3000,1,NA,NA,images/earth.jpg,images/rocket2,images/rocket1,null,images/rocket2,NA,1,real,null,2,NA,NA,NA,sub149
