trial_type,trial_index,time_elapsed,internal_node_id,rocket_sides,red_planet_first_rocket,red_display_order,purple_display_order,interactions,blur_events,focus_events,fullscreenenter_events,fullscreenexit_events,rt,stimulus,key_press,button_pressed,success,duration,valid_pressed,rts,keys,planet_text,right_text,left_text,center_text,chosen_text,reward_text,trial_stage,practice_trial,transition_type,choice,transition,reward,timestamp,subject_id
pavlovia,0,4,0.0-0.0,FALSE,FALSE,FALSE,FALSE,"
","
","
","
","
",NA,NA,NA,NA,NA,NA,NA,NA,NA,NA,NA,NA,NA,NA,NA,NA,NA,NA,NA,NA,NA,NA,sub111
html-keyboard-response,1,1022,0.0-1.0,FALSE,FALSE,FALSE,FALSE,"
","
","
","
","
",1018.0450000043493,Welcome! Press the space bar to begin.,32,NA,NA,NA,NA,NA,NA,NA,NA,NA,NA,NA,NA,NA,NA,NA,NA,NA,NA,NA,sub111
audio-keyboard-response,2,3175,0.0-2.0,FALSE,FALSE,FALSE,FALSE,"
","
","
","
","
",2154,audio/beep_loop.wav,32,NA,NA,NA,NA,NA,NA,NA,NA,NA,NA,NA,NA,NA,NA,NA,NA,NA,NA,NA,sub111
audio-button-response,3,5622,0.0-3.0,FALSE,FALSE,FALSE,FALSE,"
","
","
","
","
",NaN,audio/fish.mp3,NA,1,NA,NA,NA,NA,NA,NA,NA,NA,NA,NA,NA,NA,NA,NA,NA,NA,NA,NA,sub111
audio-button-response,4,8269,0.0-4.0,FALSE,FALSE,FALSE,FALSE,"""event"",""trial"",""time""
""fullscreenenter"",""5"",""11372""
","
","
","""event"",""trial"",""time""
""fullscreenenter"",""5"",""11372""
","
",NaN,audio/tiger.mp3,NA,4,NA,NA,NA,NA,NA,NA,NA,NA,NA,NA,NA,NA,NA,NA,NA,NA,NA,NA,sub111
fullscreen,5,12348,0.0-5.0,FALSE,FALSE,FALSE,FALSE,"""event"",""trial"",""time""
""fullscreenenter"",""5"",""11372""
","
","
","""event"",""trial"",""time""
""fullscreenenter"",""5"",""11372""
","
",NA,NA,NA,NA,TRUE,NA,NA,NA,NA,NA,NA,NA,NA,NA,NA,NA,NA,NA,NA,NA,NA,NA,sub111
d3-instructions,6,19660,0.0-6.0,FALSE,FALSE,FALSE,FALSE,"""event"",""trial"",""time""
""fullscreenenter"",""5"",""11372""
","
","
","""event"",""trial"",""time""
""fullscreenenter"",""5"",""11372""
","
",NA,NA,NA,NA,NA,NA,NA,NA,NA,NA,NA,NA,NA,NA,NA,NA,NA,NA,NA,NA,NA,NA,sub111
d3-instructions,7,24064,0.0-7.0,FALSE,FALSE,FALSE,FALSE,"""event"",""trial"",""time""
""fullscreenenter"",""5"",""11372""
","
","
","""event"",""trial"",""time""
""fullscreenenter"",""5"",""11372""
","
",NA,NA,NA,NA,NA,NA,NA,NA,NA,NA,NA,NA,NA,NA,NA,NA,NA,NA,NA,NA,NA,NA,sub111
d3-instructions,8,28704,0.0-8.0,FALSE,FALSE,FALSE,FALSE,"""event"",""trial"",""time""
""fullscreenenter"",""5"",""11372""
","
","
","""event"",""trial"",""time""
""fullscreenenter"",""5"",""11372""
","
",NA,NA,NA,NA,NA,NA,NA,NA,NA,NA,NA,NA,NA,NA,NA,NA,NA,NA,NA,NA,NA,NA,sub111
d3-instructions,9,35197,0.0-9.0,FALSE,FALSE,FALSE,FALSE,"""event"",""trial"",""time""
""fullscreenenter"",""5"",""11372""
","
","
","""event"",""trial"",""time""
""fullscreenenter"",""5"",""11372""
","
",NA,NA,NA,NA,NA,NA,NA,NA,NA,NA,NA,NA,NA,NA,NA,NA,NA,NA,NA,NA,NA,NA,sub111
d3-instructions,10,43481,0.0-10.0,FALSE,FALSE,FALSE,FALSE,"""event"",""trial"",""time""
""fullscreenenter"",""5"",""11372""
","
","
","""event"",""trial"",""time""
""fullscreenenter"",""5"",""11372""
","
",NA,NA,NA,NA,NA,NA,NA,NA,NA,NA,NA,NA,NA,NA,NA,NA,NA,NA,NA,NA,NA,NA,sub111
d3-animate-choice,11,46612,0.0-11.0,FALSE,FALSE,FALSE,FALSE,"""event"",""trial"",""time""
""fullscreenenter"",""5"",""11372""
","
","
","""event"",""trial"",""time""
""fullscreenenter"",""5"",""11372""
","
",1125.8450000023004,NA,49,NA,NA,3000,1,"2070.945000014035,2956.7100000276696",4848,images/tutgreenplanet.jpg,images/tutalien1,images/tutalien2,null,images/tutalien2,NA,NA,practice,null,NA,NA,NA,NA,sub111
d3-animate-choice,12,49399,0.0-12.0,FALSE,FALSE,FALSE,FALSE,"""event"",""trial"",""time""
""fullscreenenter"",""5"",""11372""
","
","
","""event"",""trial"",""time""
""fullscreenenter"",""5"",""11372""
","
",781.4150000049267,NA,48,NA,NA,3000,1,NA,NA,images/tutgreenplanet.jpg,images/tutalien1,images/tutalien2,null,images/tutalien1,NA,NA,practice,null,NA,NA,NA,NA,sub111
d3-animate-choice,13,52150,0.0-13.0,FALSE,FALSE,FALSE,FALSE,"""event"",""trial"",""time""
""fullscreenenter"",""5"",""11372""
","
","
","""event"",""trial"",""time""
""fullscreenenter"",""5"",""11372""
","
",748.2350000063889,NA,48,NA,NA,3000,1,NA,NA,images/tutgreenplanet.jpg,images/tutalien1,images/tutalien2,null,images/tutalien1,NA,NA,practice,null,NA,NA,NA,NA,sub111
d3-animate-choice,14,54495,0.0-14.0,FALSE,FALSE,FALSE,FALSE,"""event"",""trial"",""time""
""fullscreenenter"",""5"",""11372""
","
","
","""event"",""trial"",""time""
""fullscreenenter"",""5"",""11372""
","
",342.33499999390915,NA,49,NA,NA,3000,1,NA,NA,images/tutgreenplanet.jpg,images/tutalien1,images/tutalien2,null,images/tutalien2,NA,NA,practice,null,NA,NA,NA,NA,sub111
d3-instructions,15,58804,0.0-15.0,FALSE,FALSE,FALSE,FALSE,"""event"",""trial"",""time""
""fullscreenenter"",""5"",""11372""
","
","
","""event"",""trial"",""time""
""fullscreenenter"",""5"",""11372""
","
",NA,NA,NA,NA,NA,NA,NA,NA,NA,NA,NA,NA,NA,NA,NA,NA,NA,NA,NA,NA,NA,NA,sub111
d3-instructions,16,60791,0.0-16.0,FALSE,FALSE,FALSE,FALSE,"""event"",""trial"",""time""
""fullscreenenter"",""5"",""11372""
","
","
","""event"",""trial"",""time""
""fullscreenenter"",""5"",""11372""
","
",NA,NA,NA,NA,NA,NA,NA,NA,NA,NA,NA,NA,NA,NA,NA,NA,NA,NA,NA,NA,NA,NA,sub111
d3-instructions,17,63792,0.0-17.0,FALSE,FALSE,FALSE,FALSE,"""event"",""trial"",""time""
""fullscreenenter"",""5"",""11372""
","
","
","""event"",""trial"",""time""
""fullscreenenter"",""5"",""11372""
","
",NA,NA,NA,NA,NA,NA,NA,NA,NA,NA,NA,NA,NA,NA,NA,NA,NA,NA,NA,NA,NA,NA,sub111
d3-instructions,18,69342,0.0-18.0,FALSE,FALSE,FALSE,FALSE,"""event"",""trial"",""time""
""fullscreenenter"",""5"",""11372""
","
","
","""event"",""trial"",""time""
""fullscreenenter"",""5"",""11372""
","
",NA,NA,NA,NA,NA,NA,NA,NA,NA,NA,NA,NA,NA,NA,NA,NA,NA,NA,NA,NA,NA,NA,sub111
d3-instructions,19,75188,0.0-19.0,FALSE,FALSE,FALSE,FALSE,"""event"",""trial"",""time""
""fullscreenenter"",""5"",""11372""
","
","
","""event"",""trial"",""time""
""fullscreenenter"",""5"",""11372""
","
",NA,NA,NA,NA,NA,NA,NA,NA,NA,NA,NA,NA,NA,NA,NA,NA,NA,NA,NA,NA,NA,NA,sub111
d3-animate-choice,20,77879,0.0-20.0,FALSE,FALSE,FALSE,FALSE,"""event"",""trial"",""time""
""fullscreenenter"",""5"",""11372""
","
","
","""event"",""trial"",""time""
""fullscreenenter"",""5"",""11372""
","
",687.9149999876972,NA,49,NA,NA,3000,1,"1575.715000013588,2259.604999999283",4949,images/tutyellowplanet.jpg,null,images/tutalien3,null,images/tutalien3,images/t.png,NA,practice,null,NA,NA,NA,NA,sub111
d3-animate-choice,21,80276,0.0-21.0,FALSE,FALSE,FALSE,FALSE,"""event"",""trial"",""time""
""fullscreenenter"",""5"",""11372""
","
","
","""event"",""trial"",""time""
""fullscreenenter"",""5"",""11372""
","
",391.2349999882281,NA,49,NA,NA,3000,1,NA,NA,images/tutyellowplanet.jpg,null,images/tutalien3,null,images/tutalien3,images/t.png,NA,practice,null,NA,NA,NA,NA,sub111
d3-animate-choice,22,82627,0.0-22.0,FALSE,FALSE,FALSE,FALSE,"""event"",""trial"",""time""
""fullscreenenter"",""5"",""11372""
","
","
","""event"",""trial"",""time""
""fullscreenenter"",""5"",""11372""
","
",349.22000000369735,NA,49,NA,NA,3000,1,NA,NA,images/tutyellowplanet.jpg,null,images/tutalien3,null,images/tutalien3,images/t.png,NA,practice,null,NA,NA,NA,NA,sub111
d3-animate-choice,23,84955,0.0-23.0,FALSE,FALSE,FALSE,FALSE,"""event"",""trial"",""time""
""fullscreenenter"",""5"",""11372""
","
","
","""event"",""trial"",""time""
""fullscreenenter"",""5"",""11372""
","
",325.8349999960046,NA,49,NA,NA,3000,1,NA,NA,images/tutyellowplanet.jpg,null,images/tutalien3,null,images/tutalien3,images/t.png,NA,practice,null,NA,NA,NA,NA,sub111
d3-animate-choice,24,87300,0.0-24.0,FALSE,FALSE,FALSE,FALSE,"""event"",""trial"",""time""
""fullscreenenter"",""5"",""11372""
","
","
","""event"",""trial"",""time""
""fullscreenenter"",""5"",""11372""
","
",337.7700000128243,NA,49,NA,NA,3000,1,NA,NA,images/tutyellowplanet.jpg,null,images/tutalien3,null,images/tutalien3,images/t.png,NA,practice,null,NA,NA,NA,NA,sub111
d3-animate-choice,25,89558,0.0-25.0,FALSE,FALSE,FALSE,FALSE,"""event"",""trial"",""time""
""fullscreenenter"",""5"",""11372""
","
","
","""event"",""trial"",""time""
""fullscreenenter"",""5"",""11372""
","
",255.15499999164604,NA,49,NA,NA,3000,1,NA,NA,images/tutyellowplanet.jpg,null,images/tutalien3,null,images/tutalien3,images/t.png,NA,practice,null,NA,NA,NA,NA,sub111
d3-animate-choice,26,91770,0.0-26.0,FALSE,FALSE,FALSE,FALSE,"""event"",""trial"",""time""
""fullscreenenter"",""5"",""11372""
","
","
","""event"",""trial"",""time""
""fullscreenenter"",""5"",""11372""
","
",209.74000002024695,NA,49,NA,NA,3000,1,NA,NA,images/tutyellowplanet.jpg,null,images/tutalien3,null,images/tutalien3,images/nothing.png,NA,practice,null,NA,NA,NA,NA,sub111
d3-animate-choice,27,94098,0.0-27.0,FALSE,FALSE,FALSE,FALSE,"""event"",""trial"",""time""
""fullscreenenter"",""5"",""11372""
","
","
","""event"",""trial"",""time""
""fullscreenenter"",""5"",""11372""
","
",323.34000000264496,NA,49,NA,NA,3000,1,NA,NA,images/tutyellowplanet.jpg,null,images/tutalien3,null,images/tutalien3,images/nothing.png,NA,practice,null,NA,NA,NA,NA,sub111
d3-animate-choice,28,96443,0.0-28.0,FALSE,FALSE,FALSE,FALSE,"""event"",""trial"",""time""
""fullscreenenter"",""5"",""11372""
","
","
","""event"",""trial"",""time""
""fullscreenenter"",""5"",""11372""
","
",343.0999999982305,NA,49,NA,NA,3000,1,NA,NA,images/tutyellowplanet.jpg,null,images/tutalien3,null,images/tutalien3,images/nothing.png,NA,practice,null,NA,NA,NA,NA,sub111
d3-animate-choice,29,98666,0.0-29.0,FALSE,FALSE,FALSE,FALSE,"""event"",""trial"",""time""
""fullscreenenter"",""5"",""11372""
","
","
","""event"",""trial"",""time""
""fullscreenenter"",""5"",""11372""
","
",219.8999999964144,NA,49,NA,NA,3000,1,NA,NA,images/tutyellowplanet.jpg,null,images/tutalien3,null,images/tutalien3,images/nothing.png,NA,practice,null,NA,NA,NA,NA,sub111
d3-instructions,30,102273,0.0-30.0,FALSE,FALSE,FALSE,FALSE,"""event"",""trial"",""time""
""fullscreenenter"",""5"",""11372""
","
","
","""event"",""trial"",""time""
""fullscreenenter"",""5"",""11372""
","
",NA,NA,NA,NA,NA,NA,NA,NA,NA,NA,NA,NA,NA,NA,NA,NA,NA,NA,NA,NA,NA,NA,sub111
d3-instructions,31,105745,0.0-31.0,FALSE,FALSE,FALSE,FALSE,"""event"",""trial"",""time""
""fullscreenenter"",""5"",""11372""
","
","
","""event"",""trial"",""time""
""fullscreenenter"",""5"",""11372""
","
",NA,NA,NA,NA,NA,NA,NA,NA,NA,NA,NA,NA,NA,NA,NA,NA,NA,NA,NA,NA,NA,NA,sub111
d3-instructions,32,109946,0.0-32.0,FALSE,FALSE,FALSE,FALSE,"""event"",""trial"",""time""
""fullscreenenter"",""5"",""11372""
","
","
","""event"",""trial"",""time""
""fullscreenenter"",""5"",""11372""
","
",NA,NA,NA,NA,NA,NA,NA,NA,NA,NA,NA,NA,NA,NA,NA,NA,NA,NA,NA,NA,NA,NA,sub111
d3-instructions,33,111915,0.0-33.0,FALSE,FALSE,FALSE,FALSE,"""event"",""trial"",""time""
""fullscreenenter"",""5"",""11372""
","
","
","""event"",""trial"",""time""
""fullscreenenter"",""5"",""11372""
","
",NA,NA,NA,NA,NA,NA,NA,NA,NA,NA,NA,NA,NA,NA,NA,NA,NA,NA,NA,NA,NA,NA,sub111
d3-animate-choice,34,115217,0.0-34.0,FALSE,FALSE,FALSE,FALSE,"""event"",""trial"",""time""
""fullscreenenter"",""5"",""11372""
","
","
","""event"",""trial"",""time""
""fullscreenenter"",""5"",""11372""
","
",1298.689999995986,NA,49,NA,NA,3000,1,NA,NA,images/tutgreenplanet.jpg,images/tutalien1,images/tutalien2,null,images/tutalien2,images/t.png,NA,practice,null,NA,NA,NA,NA,sub111
d3-animate-choice,35,118393,0.0-35.0,FALSE,FALSE,FALSE,FALSE,"""event"",""trial"",""time""
""fullscreenenter"",""5"",""11372""
","
","
","""event"",""trial"",""time""
""fullscreenenter"",""5"",""11372""
","
",1172.4099999992177,NA,49,NA,NA,3000,1,NA,NA,images/tutgreenplanet.jpg,images/tutalien1,images/tutalien2,null,images/tutalien2,images/t.png,NA,practice,null,NA,NA,NA,NA,sub111
d3-animate-choice,36,120731,0.0-36.0,FALSE,FALSE,FALSE,FALSE,"""event"",""trial"",""time""
""fullscreenenter"",""5"",""11372""
","
","
","""event"",""trial"",""time""
""fullscreenenter"",""5"",""11372""
","
",335.53500002017245,NA,49,NA,NA,3000,1,NA,NA,images/tutgreenplanet.jpg,images/tutalien1,images/tutalien2,null,images/tutalien2,images/t.png,NA,practice,null,NA,NA,NA,NA,sub111
d3-animate-choice,37,123111,0.0-37.0,FALSE,FALSE,FALSE,FALSE,"""event"",""trial"",""time""
""fullscreenenter"",""5"",""11372""
","
","
","""event"",""trial"",""time""
""fullscreenenter"",""5"",""11372""
","
",377.6499999803491,NA,49,NA,NA,3000,1,NA,NA,images/tutgreenplanet.jpg,images/tutalien1,images/tutalien2,null,images/tutalien2,images/t.png,NA,practice,null,NA,NA,NA,NA,sub111
d3-animate-choice,38,125393,0.0-38.0,FALSE,FALSE,FALSE,FALSE,"""event"",""trial"",""time""
""fullscreenenter"",""5"",""11372""
","
","
","""event"",""trial"",""time""
""fullscreenenter"",""5"",""11372""
","
",278.8299999956507,NA,49,NA,NA,3000,1,NA,NA,images/tutgreenplanet.jpg,images/tutalien1,images/tutalien2,null,images/tutalien2,images/t.png,NA,practice,null,NA,NA,NA,NA,sub111
d3-animate-choice,39,127538,0.0-39.0,FALSE,FALSE,FALSE,FALSE,"""event"",""trial"",""time""
""fullscreenenter"",""5"",""11372""
","
","
","""event"",""trial"",""time""
""fullscreenenter"",""5"",""11372""
","
",140.74500001152046,NA,49,NA,NA,3000,1,NA,NA,images/tutgreenplanet.jpg,images/tutalien1,images/tutalien2,null,images/tutalien2,images/t.png,NA,practice,null,NA,NA,NA,NA,sub111
d3-animate-choice,40,129648,0.0-40.0,FALSE,FALSE,FALSE,FALSE,"""event"",""trial"",""time""
""fullscreenenter"",""5"",""11372""
","
","
","""event"",""trial"",""time""
""fullscreenenter"",""5"",""11372""
","
",107.90999999153428,NA,49,NA,NA,3000,1,NA,NA,images/tutgreenplanet.jpg,images/tutalien1,images/tutalien2,null,images/tutalien2,images/t.png,NA,practice,null,NA,NA,NA,NA,sub111
d3-animate-choice,41,131819,0.0-41.0,FALSE,FALSE,FALSE,FALSE,"""event"",""trial"",""time""
""fullscreenenter"",""5"",""11372""
","
","
","""event"",""trial"",""time""
""fullscreenenter"",""5"",""11372""
","
",168.42000000178814,NA,49,NA,NA,3000,1,NA,NA,images/tutgreenplanet.jpg,images/tutalien1,images/tutalien2,null,images/tutalien2,images/t.png,NA,practice,null,NA,NA,NA,NA,sub111
d3-animate-choice,42,134002,0.0-42.0,FALSE,FALSE,FALSE,FALSE,"""event"",""trial"",""time""
""fullscreenenter"",""5"",""11372""
","
","
","""event"",""trial"",""time""
""fullscreenenter"",""5"",""11372""
","
",177.9099999985192,NA,49,NA,NA,3000,1,NA,NA,images/tutgreenplanet.jpg,images/tutalien1,images/tutalien2,null,images/tutalien2,images/t.png,NA,practice,null,NA,NA,NA,NA,sub111
d3-animate-choice,43,136065,0.0-43.0,FALSE,FALSE,FALSE,FALSE,"""event"",""trial"",""time""
""fullscreenenter"",""5"",""11372""
","
","
","""event"",""trial"",""time""
""fullscreenenter"",""5"",""11372""
","
",59.28499999572523,NA,49,NA,NA,3000,1,NA,NA,images/tutgreenplanet.jpg,images/tutalien1,images/tutalien2,null,images/tutalien2,images/t.png,NA,practice,null,NA,NA,NA,NA,sub111
d3-instructions,44,142265,0.0-44.0,FALSE,FALSE,FALSE,FALSE,"""event"",""trial"",""time""
""fullscreenenter"",""5"",""11372""
","
","
","""event"",""trial"",""time""
""fullscreenenter"",""5"",""11372""
","
",NA,NA,NA,NA,NA,NA,NA,NA,NA,NA,NA,NA,NA,NA,NA,NA,NA,NA,NA,NA,NA,NA,sub111
d3-instructions,45,144252,0.0-45.0,FALSE,FALSE,FALSE,FALSE,"""event"",""trial"",""time""
""fullscreenenter"",""5"",""11372""
","
","
","""event"",""trial"",""time""
""fullscreenenter"",""5"",""11372""
","
",NA,NA,NA,NA,NA,NA,NA,NA,NA,NA,NA,NA,NA,NA,NA,NA,NA,NA,NA,NA,NA,NA,sub111
d3-instructions,46,147547,0.0-46.0,FALSE,FALSE,FALSE,FALSE,"""event"",""trial"",""time""
""fullscreenenter"",""5"",""11372""
","
","
","""event"",""trial"",""time""
""fullscreenenter"",""5"",""11372""
","
",NA,NA,NA,NA,NA,NA,NA,NA,NA,NA,NA,NA,NA,NA,NA,NA,NA,NA,NA,NA,NA,NA,sub111
d3-instructions,47,156134,0.0-47.0,FALSE,FALSE,FALSE,FALSE,"""event"",""trial"",""time""
""fullscreenenter"",""5"",""11372""
","
","
","""event"",""trial"",""time""
""fullscreenenter"",""5"",""11372""
","
",NA,NA,NA,NA,NA,NA,NA,NA,NA,NA,NA,NA,NA,NA,NA,NA,NA,NA,NA,NA,NA,NA,sub111
d3-instructions,48,158940,0.0-48.0,FALSE,FALSE,FALSE,FALSE,"""event"",""trial"",""time""
""fullscreenenter"",""5"",""11372""
","
","
","""event"",""trial"",""time""
""fullscreenenter"",""5"",""11372""
","
",NA,NA,NA,NA,NA,NA,NA,NA,NA,NA,NA,NA,NA,NA,NA,NA,NA,NA,NA,NA,NA,NA,sub111
d3-instructions,49,162275,0.0-49.0,FALSE,FALSE,FALSE,FALSE,"""event"",""trial"",""time""
""fullscreenenter"",""5"",""11372""
","
","
","""event"",""trial"",""time""
""fullscreenenter"",""5"",""11372""
","
",NA,NA,NA,NA,NA,NA,NA,NA,NA,NA,NA,NA,NA,NA,NA,NA,NA,NA,NA,NA,NA,NA,sub111
d3-instructions,50,166576,0.0-50.0,FALSE,FALSE,FALSE,FALSE,"""event"",""trial"",""time""
""fullscreenenter"",""5"",""11372""
","
","
","""event"",""trial"",""time""
""fullscreenenter"",""5"",""11372""
","
",NA,NA,NA,NA,NA,NA,NA,NA,NA,NA,NA,NA,NA,NA,NA,NA,NA,NA,NA,NA,NA,NA,sub111
d3-instructions,51,169317,0.0-51.0,FALSE,FALSE,FALSE,FALSE,"""event"",""trial"",""time""
""fullscreenenter"",""5"",""11372""
","
","
","""event"",""trial"",""time""
""fullscreenenter"",""5"",""11372""
","
",NA,NA,NA,NA,NA,NA,NA,NA,NA,NA,NA,NA,NA,NA,NA,NA,NA,NA,NA,NA,NA,NA,sub111
d3-instructions,52,170233,0.0-52.0,FALSE,FALSE,FALSE,FALSE,"""event"",""trial"",""time""
""fullscreenenter"",""5"",""11372""
","
","
","""event"",""trial"",""time""
""fullscreenenter"",""5"",""11372""
","
",NA,NA,NA,NA,NA,NA,NA,NA,NA,NA,NA,NA,NA,NA,NA,NA,NA,NA,NA,NA,NA,NA,sub111
d3-instructions,53,174696,0.0-53.0,FALSE,FALSE,FALSE,FALSE,"""event"",""trial"",""time""
""fullscreenenter"",""5"",""11372""
","
","
","""event"",""trial"",""time""
""fullscreenenter"",""5"",""11372""
","
",NA,NA,NA,NA,NA,NA,NA,NA,NA,NA,NA,NA,NA,NA,NA,NA,NA,NA,NA,NA,NA,NA,sub111
d3-instructions,54,184754,0.0-54.0,FALSE,FALSE,FALSE,FALSE,"""event"",""trial"",""time""
""fullscreenenter"",""5"",""11372""
","
","
","""event"",""trial"",""time""
""fullscreenenter"",""5"",""11372""
","
",NA,NA,NA,NA,NA,NA,NA,NA,NA,NA,NA,NA,NA,NA,NA,NA,NA,NA,NA,NA,NA,NA,sub111
d3-instructions,55,188513,0.0-55.0,FALSE,FALSE,FALSE,FALSE,"""event"",""trial"",""time""
""fullscreenenter"",""5"",""11372""
","
","
","""event"",""trial"",""time""
""fullscreenenter"",""5"",""11372""
","
",NA,NA,NA,NA,NA,NA,NA,NA,NA,NA,NA,NA,NA,NA,NA,NA,NA,NA,NA,NA,NA,NA,sub111
d3-instructions,56,193952,0.0-56.0,FALSE,FALSE,FALSE,FALSE,"""event"",""trial"",""time""
""fullscreenenter"",""5"",""11372""
","
","
","""event"",""trial"",""time""
""fullscreenenter"",""5"",""11372""
","
",NA,NA,NA,NA,NA,NA,NA,NA,NA,NA,NA,NA,NA,NA,NA,NA,NA,NA,NA,NA,NA,NA,sub111
d3-instructions,57,198257,0.0-57.0,FALSE,FALSE,FALSE,FALSE,"""event"",""trial"",""time""
""fullscreenenter"",""5"",""11372""
","
","
","""event"",""trial"",""time""
""fullscreenenter"",""5"",""11372""
","
",NA,NA,NA,NA,NA,NA,NA,NA,NA,NA,NA,NA,NA,NA,NA,NA,NA,NA,NA,NA,NA,NA,sub111
d3-instructions,58,203374,0.0-58.0,FALSE,FALSE,FALSE,FALSE,"""event"",""trial"",""time""
""fullscreenenter"",""5"",""11372""
","
","
","""event"",""trial"",""time""
""fullscreenenter"",""5"",""11372""
","
",NA,NA,NA,NA,NA,NA,NA,NA,NA,NA,NA,NA,NA,NA,NA,NA,NA,NA,NA,NA,NA,NA,sub111
d3-instructions,59,205090,0.0-59.0,FALSE,FALSE,FALSE,FALSE,"""event"",""trial"",""time""
""fullscreenenter"",""5"",""11372""
","
","
","""event"",""trial"",""time""
""fullscreenenter"",""5"",""11372""
","
",NA,NA,NA,NA,NA,NA,NA,NA,NA,NA,NA,NA,NA,NA,NA,NA,NA,NA,NA,NA,NA,NA,sub111
d3-instructions,60,206828,0.0-60.0,FALSE,FALSE,FALSE,FALSE,"""event"",""trial"",""time""
""fullscreenenter"",""5"",""11372""
","
","
","""event"",""trial"",""time""
""fullscreenenter"",""5"",""11372""
","
",NA,NA,NA,NA,NA,NA,NA,NA,NA,NA,NA,NA,NA,NA,NA,NA,NA,NA,NA,NA,NA,NA,sub111
d3-animate-choice,61,209514,0.0-61.0-0.0,FALSE,FALSE,FALSE,FALSE,"""event"",""trial"",""time""
""fullscreenenter"",""5"",""11372""
","
","
","""event"",""trial"",""time""
""fullscreenenter"",""5"",""11372""
","
",680.7449999905657,NA,49,NA,NA,3000,1,NA,NA,images/earth.jpg,images/tutrocket1,images/tutrocket2,null,images/tutrocket2,NA,1,practice,null,1,NA,NA,NA,sub111
d3-animate-choice,62,212548,0.0-61.0-1.0,FALSE,FALSE,FALSE,FALSE,"""event"",""trial"",""time""
""fullscreenenter"",""5"",""11372""
","
","
","""event"",""trial"",""time""
""fullscreenenter"",""5"",""11372""
","
",1028.1900000118185,NA,49,NA,NA,3000,1,NA,NA,images/tutgreenplanet.jpg,images/tutalien2,images/tutalien1,images/tutrocket2,images/tutalien1,images/nothing.png,2,practice,true,1,common,0,2020-06-20T19:16:50Z,sub111
two-step-fixation,63,213553,0.0-61.0-2.0,FALSE,FALSE,FALSE,FALSE,"""event"",""trial"",""time""
""fullscreenenter"",""5"",""11372""
","
","
","""event"",""trial"",""time""
""fullscreenenter"",""5"",""11372""
","
",NA,images/earth.jpg,NA,NA,NA,NA,NA,NA,NA,NA,NA,NA,NA,NA,NA,fixation,NA,NA,NA,NA,NA,NA,sub111
d3-animate-choice,64,216008,0.0-61.0-0.1,FALSE,FALSE,FALSE,FALSE,"""event"",""trial"",""time""
""fullscreenenter"",""5"",""11372""
","
","
","""event"",""trial"",""time""
""fullscreenenter"",""5"",""11372""
","
",449.22500001848675,NA,49,NA,NA,3000,1,NA,NA,images/earth.jpg,images/tutrocket1,images/tutrocket2,null,images/tutrocket2,NA,1,practice,null,1,NA,NA,NA,sub111
d3-animate-choice,65,218505,0.0-61.0-1.1,FALSE,FALSE,FALSE,FALSE,"""event"",""trial"",""time""
""fullscreenenter"",""5"",""11372""
","
","
","""event"",""trial"",""time""
""fullscreenenter"",""5"",""11372""
","
",493.7199999985751,NA,48,NA,NA,3000,1,NA,NA,images/tutgreenplanet.jpg,images/tutalien2,images/tutalien1,images/tutrocket2,images/tutalien2,images/nothing.png,2,practice,true,2,common,0,2020-06-20T19:16:56Z,sub111
two-step-fixation,66,219508,0.0-61.0-2.1,FALSE,FALSE,FALSE,FALSE,"""event"",""trial"",""time""
""fullscreenenter"",""5"",""11372""
","
","
","""event"",""trial"",""time""
""fullscreenenter"",""5"",""11372""
","
",NA,images/earth.jpg,NA,NA,NA,NA,NA,NA,NA,NA,NA,NA,NA,NA,NA,fixation,NA,NA,NA,NA,NA,NA,sub111
d3-animate-choice,67,222001,0.0-61.0-0.2,FALSE,FALSE,FALSE,FALSE,"""event"",""trial"",""time""
""fullscreenenter"",""5"",""11372""
","
","
","""event"",""trial"",""time""
""fullscreenenter"",""5"",""11372""
","
",488.7999999918975,NA,48,NA,NA,3000,1,NA,NA,images/earth.jpg,images/tutrocket1,images/tutrocket2,null,images/tutrocket1,NA,1,practice,null,2,NA,NA,NA,sub111
d3-animate-choice,68,224358,0.0-61.0-1.2,FALSE,FALSE,FALSE,FALSE,"""event"",""trial"",""time""
""fullscreenenter"",""5"",""11372""
","
","
","""event"",""trial"",""time""
""fullscreenenter"",""5"",""11372""
","
",353.6149999999907,NA,48,NA,NA,3000,1,NA,NA,images/tutyellowplanet.jpg,images/tutalien4,images/tutalien3,images/tutrocket1,images/tutalien4,images/t.png,2,practice,true,2,common,1,2020-06-20T19:17:02Z,sub111
two-step-fixation,69,225362,0.0-61.0-2.2,FALSE,FALSE,FALSE,FALSE,"""event"",""trial"",""time""
""fullscreenenter"",""5"",""11372""
","
","
","""event"",""trial"",""time""
""fullscreenenter"",""5"",""11372""
","
",NA,images/earth.jpg,NA,NA,NA,NA,NA,NA,NA,NA,NA,NA,NA,NA,NA,fixation,NA,NA,NA,NA,NA,NA,sub111
d3-animate-choice,70,227758,0.0-61.0-0.3,FALSE,FALSE,FALSE,FALSE,"""event"",""trial"",""time""
""fullscreenenter"",""5"",""11372""
","
","
","""event"",""trial"",""time""
""fullscreenenter"",""5"",""11372""
","
",390.9749999875203,NA,48,NA,NA,3000,1,NA,NA,images/earth.jpg,images/tutrocket1,images/tutrocket2,null,images/tutrocket1,NA,1,practice,null,2,NA,NA,NA,sub111
d3-animate-choice,71,230204,0.0-61.0-1.3,FALSE,FALSE,FALSE,FALSE,"""event"",""trial"",""time""
""fullscreenenter"",""5"",""11372""
","
","
","""event"",""trial"",""time""
""fullscreenenter"",""5"",""11372""
","
",443.2049999886658,NA,48,NA,NA,3000,1,NA,NA,images/tutyellowplanet.jpg,images/tutalien4,images/tutalien3,images/tutrocket1,images/tutalien4,images/t.png,2,practice,true,2,common,1,2020-06-20T19:17:08Z,sub111
two-step-fixation,72,231209,0.0-61.0-2.3,FALSE,FALSE,FALSE,FALSE,"""event"",""trial"",""time""
""fullscreenenter"",""5"",""11372""
","
","
","""event"",""trial"",""time""
""fullscreenenter"",""5"",""11372""
","
",NA,images/earth.jpg,NA,NA,NA,NA,NA,NA,NA,NA,NA,NA,NA,NA,NA,fixation,NA,NA,NA,NA,NA,NA,sub111
d3-animate-choice,73,233530,0.0-61.0-0.4,FALSE,FALSE,FALSE,FALSE,"""event"",""trial"",""time""
""fullscreenenter"",""5"",""11372""
","
","
","""event"",""trial"",""time""
""fullscreenenter"",""5"",""11372""
","
",314.30500000715256,NA,48,NA,NA,3000,1,NA,NA,images/earth.jpg,images/tutrocket1,images/tutrocket2,null,images/tutrocket1,NA,1,practice,null,2,NA,NA,NA,sub111
d3-animate-choice,74,235847,0.0-61.0-1.4,FALSE,FALSE,FALSE,FALSE,"""event"",""trial"",""time""
""fullscreenenter"",""5"",""11372""
","
","
","""event"",""trial"",""time""
""fullscreenenter"",""5"",""11372""
","
",313.95499999052845,NA,48,NA,NA,3000,1,NA,NA,images/tutyellowplanet.jpg,images/tutalien4,images/tutalien3,images/tutrocket1,images/tutalien4,images/nothing.png,2,practice,true,2,common,0,2020-06-20T19:17:13Z,sub111
two-step-fixation,75,236851,0.0-61.0-2.4,FALSE,FALSE,FALSE,FALSE,"""event"",""trial"",""time""
""fullscreenenter"",""5"",""11372""
","
","
","""event"",""trial"",""time""
""fullscreenenter"",""5"",""11372""
","
",NA,images/earth.jpg,NA,NA,NA,NA,NA,NA,NA,NA,NA,NA,NA,NA,NA,fixation,NA,NA,NA,NA,NA,NA,sub111
d3-animate-choice,76,239199,0.0-61.0-0.5,FALSE,FALSE,FALSE,FALSE,"""event"",""trial"",""time""
""fullscreenenter"",""5"",""11372""
","
","
","""event"",""trial"",""time""
""fullscreenenter"",""5"",""11372""
","
",339.86500001628883,NA,48,NA,NA,3000,1,NA,NA,images/earth.jpg,images/tutrocket1,images/tutrocket2,null,images/tutrocket1,NA,1,practice,null,2,NA,NA,NA,sub111
d3-animate-choice,77,241633,0.0-61.0-1.5,FALSE,FALSE,FALSE,FALSE,"""event"",""trial"",""time""
""fullscreenenter"",""5"",""11372""
","
","
","""event"",""trial"",""time""
""fullscreenenter"",""5"",""11372""
","
",426.9899999781046,NA,49,NA,NA,3000,1,NA,NA,images/tutgreenplanet.jpg,images/tutalien2,images/tutalien1,images/tutrocket1,images/tutalien1,images/nothing.png,2,practice,false,1,rare,0,2020-06-20T19:17:19Z,sub111
two-step-fixation,78,242642,0.0-61.0-2.5,FALSE,FALSE,FALSE,FALSE,"""event"",""trial"",""time""
""fullscreenenter"",""5"",""11372""
","
","
","""event"",""trial"",""time""
""fullscreenenter"",""5"",""11372""
","
",NA,images/earth.jpg,NA,NA,NA,NA,NA,NA,NA,NA,NA,NA,NA,NA,NA,fixation,NA,NA,NA,NA,NA,NA,sub111
d3-animate-choice,79,244921,0.0-61.0-0.6,FALSE,FALSE,FALSE,FALSE,"""event"",""trial"",""time""
""fullscreenenter"",""5"",""11372""
","
","
","""event"",""trial"",""time""
""fullscreenenter"",""5"",""11372""
","
",275.46000000438653,NA,48,NA,NA,3000,1,NA,NA,images/earth.jpg,images/tutrocket1,images/tutrocket2,null,images/tutrocket1,NA,1,practice,null,2,NA,NA,NA,sub111
d3-animate-choice,80,247370,0.0-61.0-1.6,FALSE,FALSE,FALSE,FALSE,"""event"",""trial"",""time""
""fullscreenenter"",""5"",""11372""
","
","
","""event"",""trial"",""time""
""fullscreenenter"",""5"",""11372""
","
",442.3349999997299,NA,49,NA,NA,3000,1,NA,NA,images/tutyellowplanet.jpg,images/tutalien4,images/tutalien3,images/tutrocket1,images/tutalien3,images/nothing.png,2,practice,true,1,common,0,2020-06-20T19:17:25Z,sub111
two-step-fixation,81,248375,0.0-61.0-2.6,FALSE,FALSE,FALSE,FALSE,"""event"",""trial"",""time""
""fullscreenenter"",""5"",""11372""
","
","
","""event"",""trial"",""time""
""fullscreenenter"",""5"",""11372""
","
",NA,images/earth.jpg,NA,NA,NA,NA,NA,NA,NA,NA,NA,NA,NA,NA,NA,fixation,NA,NA,NA,NA,NA,NA,sub111
d3-animate-choice,82,250719,0.0-61.0-0.7,FALSE,FALSE,FALSE,FALSE,"""event"",""trial"",""time""
""fullscreenenter"",""5"",""11372""
","
","
","""event"",""trial"",""time""
""fullscreenenter"",""5"",""11372""
","
",339.07000001636334,NA,48,NA,NA,3000,1,NA,NA,images/earth.jpg,images/tutrocket1,images/tutrocket2,null,images/tutrocket1,NA,1,practice,null,2,NA,NA,NA,sub111
d3-animate-choice,83,253119,0.0-61.0-1.7,FALSE,FALSE,FALSE,FALSE,"""event"",""trial"",""time""
""fullscreenenter"",""5"",""11372""
","
","
","""event"",""trial"",""time""
""fullscreenenter"",""5"",""11372""
","
",395.3099999926053,NA,48,NA,NA,3000,1,NA,NA,images/tutyellowplanet.jpg,images/tutalien4,images/tutalien3,images/tutrocket1,images/tutalien4,images/t.png,2,practice,true,2,common,1,2020-06-20T19:17:30Z,sub111
two-step-fixation,84,254128,0.0-61.0-2.7,FALSE,FALSE,FALSE,FALSE,"""event"",""trial"",""time""
""fullscreenenter"",""5"",""11372""
","
","
","""event"",""trial"",""time""
""fullscreenenter"",""5"",""11372""
","
",NA,images/earth.jpg,NA,NA,NA,NA,NA,NA,NA,NA,NA,NA,NA,NA,NA,fixation,NA,NA,NA,NA,NA,NA,sub111
d3-animate-choice,85,256491,0.0-61.0-0.8,FALSE,FALSE,FALSE,FALSE,"""event"",""trial"",""time""
""fullscreenenter"",""5"",""11372""
","
","
","""event"",""trial"",""time""
""fullscreenenter"",""5"",""11372""
","
",357.56999999284744,NA,48,NA,NA,3000,1,NA,NA,images/earth.jpg,images/tutrocket1,images/tutrocket2,null,images/tutrocket1,NA,1,practice,null,2,NA,NA,NA,sub111
d3-animate-choice,86,258795,0.0-61.0-1.8,FALSE,FALSE,FALSE,FALSE,"""event"",""trial"",""time""
""fullscreenenter"",""5"",""11372""
","
","
","""event"",""trial"",""time""
""fullscreenenter"",""5"",""11372""
","
",298.0200000165496,NA,48,NA,NA,3000,1,NA,NA,images/tutyellowplanet.jpg,images/tutalien4,images/tutalien3,images/tutrocket1,images/tutalien4,images/t.png,2,practice,true,2,common,1,2020-06-20T19:17:36Z,sub111
two-step-fixation,87,259802,0.0-61.0-2.8,FALSE,FALSE,FALSE,FALSE,"""event"",""trial"",""time""
""fullscreenenter"",""5"",""11372""
","
","
","""event"",""trial"",""time""
""fullscreenenter"",""5"",""11372""
","
",NA,images/earth.jpg,NA,NA,NA,NA,NA,NA,NA,NA,NA,NA,NA,NA,NA,fixation,NA,NA,NA,NA,NA,NA,sub111
d3-animate-choice,88,262110,0.0-61.0-0.9,FALSE,FALSE,FALSE,FALSE,"""event"",""trial"",""time""
""fullscreenenter"",""5"",""11372""
","
","
","""event"",""trial"",""time""
""fullscreenenter"",""5"",""11372""
","
",301.23499999172054,NA,48,NA,NA,3000,1,NA,NA,images/earth.jpg,images/tutrocket1,images/tutrocket2,null,images/tutrocket1,NA,1,practice,null,2,NA,NA,NA,sub111
d3-animate-choice,89,264386,0.0-61.0-1.9,FALSE,FALSE,FALSE,FALSE,"""event"",""trial"",""time""
""fullscreenenter"",""5"",""11372""
","
","
","""event"",""trial"",""time""
""fullscreenenter"",""5"",""11372""
","
",271.5299999981653,NA,48,NA,NA,3000,1,NA,NA,images/tutyellowplanet.jpg,images/tutalien4,images/tutalien3,images/tutrocket1,images/tutalien4,images/nothing.png,2,practice,true,2,common,0,2020-06-20T19:17:42Z,sub111
two-step-fixation,90,265389,0.0-61.0-2.9,FALSE,FALSE,FALSE,FALSE,"""event"",""trial"",""time""
""fullscreenenter"",""5"",""11372""
","
","
","""event"",""trial"",""time""
""fullscreenenter"",""5"",""11372""
","
",NA,images/earth.jpg,NA,NA,NA,NA,NA,NA,NA,NA,NA,NA,NA,NA,NA,fixation,NA,NA,NA,NA,NA,NA,sub111
d3-animate-choice,91,267822,0.0-61.0-0.10,FALSE,FALSE,FALSE,FALSE,"""event"",""trial"",""time""
""fullscreenenter"",""5"",""11372""
","
","
","""event"",""trial"",""time""
""fullscreenenter"",""5"",""11372""
","
",428.2600000151433,NA,49,NA,NA,3000,1,NA,NA,images/earth.jpg,images/tutrocket1,images/tutrocket2,null,images/tutrocket2,NA,1,practice,null,1,NA,NA,NA,sub111
d3-animate-choice,92,270270,0.0-61.0-1.10,FALSE,FALSE,FALSE,FALSE,"""event"",""trial"",""time""
""fullscreenenter"",""5"",""11372""
","
","
","""event"",""trial"",""time""
""fullscreenenter"",""5"",""11372""
","
",442.0049999898765,NA,49,NA,NA,3000,1,NA,NA,images/tutgreenplanet.jpg,images/tutalien2,images/tutalien1,images/tutrocket2,images/tutalien1,images/nothing.png,2,practice,true,1,common,0,2020-06-20T19:17:48Z,sub111
two-step-fixation,93,271275,0.0-61.0-2.10,FALSE,FALSE,FALSE,FALSE,"""event"",""trial"",""time""
""fullscreenenter"",""5"",""11372""
","
","
","""event"",""trial"",""time""
""fullscreenenter"",""5"",""11372""
","
",NA,images/earth.jpg,NA,NA,NA,NA,NA,NA,NA,NA,NA,NA,NA,NA,NA,fixation,NA,NA,NA,NA,NA,NA,sub111
d3-animate-choice,94,273561,0.0-61.0-0.11,FALSE,FALSE,FALSE,FALSE,"""event"",""trial"",""time""
""fullscreenenter"",""5"",""11372""
","
","
","""event"",""trial"",""time""
""fullscreenenter"",""5"",""11372""
","
",280.1800000015646,NA,48,NA,NA,3000,1,NA,NA,images/earth.jpg,images/tutrocket1,images/tutrocket2,null,images/tutrocket1,NA,1,practice,null,2,NA,NA,NA,sub111
d3-animate-choice,95,275888,0.0-61.0-1.11,FALSE,FALSE,FALSE,FALSE,"""event"",""trial"",""time""
""fullscreenenter"",""5"",""11372""
","
","
","""event"",""trial"",""time""
""fullscreenenter"",""5"",""11372""
","
",322.9249999858439,NA,48,NA,NA,3000,1,NA,NA,images/tutgreenplanet.jpg,images/tutalien2,images/tutalien1,images/tutrocket1,images/tutalien2,images/nothing.png,2,practice,false,2,rare,0,2020-06-20T19:17:53Z,sub111
two-step-fixation,96,276894,0.0-61.0-2.11,FALSE,FALSE,FALSE,FALSE,"""event"",""trial"",""time""
""fullscreenenter"",""5"",""11372""
","
","
","""event"",""trial"",""time""
""fullscreenenter"",""5"",""11372""
","
",NA,images/earth.jpg,NA,NA,NA,NA,NA,NA,NA,NA,NA,NA,NA,NA,NA,fixation,NA,NA,NA,NA,NA,NA,sub111
d3-animate-choice,97,279168,0.0-61.0-0.12,FALSE,FALSE,FALSE,FALSE,"""event"",""trial"",""time""
""fullscreenenter"",""5"",""11372""
","
","
","""event"",""trial"",""time""
""fullscreenenter"",""5"",""11372""
","
",269.87000001827255,NA,48,NA,NA,3000,1,NA,NA,images/earth.jpg,images/tutrocket1,images/tutrocket2,null,images/tutrocket1,NA,1,practice,null,2,NA,NA,NA,sub111
d3-animate-choice,98,281823,0.0-61.0-1.12,FALSE,FALSE,FALSE,FALSE,"""event"",""trial"",""time""
""fullscreenenter"",""5"",""11372""
","
","
","""event"",""trial"",""time""
""fullscreenenter"",""5"",""11372""
","
",646.4249999844469,NA,48,NA,NA,3000,1,NA,NA,images/tutyellowplanet.jpg,images/tutalien4,images/tutalien3,images/tutrocket1,images/tutalien4,images/t.png,2,practice,true,2,common,1,2020-06-20T19:17:59Z,sub111
two-step-fixation,99,282828,0.0-61.0-2.12,FALSE,FALSE,FALSE,FALSE,"""event"",""trial"",""time""
""fullscreenenter"",""5"",""11372""
","
","
","""event"",""trial"",""time""
""fullscreenenter"",""5"",""11372""
","
",NA,images/earth.jpg,NA,NA,NA,NA,NA,NA,NA,NA,NA,NA,NA,NA,NA,fixation,NA,NA,NA,NA,NA,NA,sub111
d3-animate-choice,100,285078,0.0-61.0-0.13,FALSE,FALSE,FALSE,FALSE,"""event"",""trial"",""time""
""fullscreenenter"",""5"",""11372""
","
","
","""event"",""trial"",""time""
""fullscreenenter"",""5"",""11372""
","
",247.56499999784864,NA,48,NA,NA,3000,1,NA,NA,images/earth.jpg,images/tutrocket1,images/tutrocket2,null,images/tutrocket1,NA,1,practice,null,2,NA,NA,NA,sub111
d3-animate-choice,101,287452,0.0-61.0-1.13,FALSE,FALSE,FALSE,FALSE,"""event"",""trial"",""time""
""fullscreenenter"",""5"",""11372""
","
","
","""event"",""trial"",""time""
""fullscreenenter"",""5"",""11372""
","
",364.4649999914691,NA,48,NA,NA,3000,1,NA,NA,images/tutyellowplanet.jpg,images/tutalien4,images/tutalien3,images/tutrocket1,images/tutalien4,images/t.png,2,practice,true,2,common,1,2020-06-20T19:18:05Z,sub111
two-step-fixation,102,288459,0.0-61.0-2.13,FALSE,FALSE,FALSE,FALSE,"""event"",""trial"",""time""
""fullscreenenter"",""5"",""11372""
","
","
","""event"",""trial"",""time""
""fullscreenenter"",""5"",""11372""
","
",NA,images/earth.jpg,NA,NA,NA,NA,NA,NA,NA,NA,NA,NA,NA,NA,NA,fixation,NA,NA,NA,NA,NA,NA,sub111
d3-animate-choice,103,290711,0.0-61.0-0.14,FALSE,FALSE,FALSE,FALSE,"""event"",""trial"",""time""
""fullscreenenter"",""5"",""11372""
","
","
","""event"",""trial"",""time""
""fullscreenenter"",""5"",""11372""
","
",246.000000013737,NA,48,NA,NA,3000,1,NA,NA,images/earth.jpg,images/tutrocket1,images/tutrocket2,null,images/tutrocket1,NA,1,practice,null,2,NA,NA,NA,sub111
d3-animate-choice,104,293079,0.0-61.0-1.14,FALSE,FALSE,FALSE,FALSE,"""event"",""trial"",""time""
""fullscreenenter"",""5"",""11372""
","
","
","""event"",""trial"",""time""
""fullscreenenter"",""5"",""11372""
","
",362.3500000103377,NA,48,NA,NA,3000,1,NA,NA,images/tutyellowplanet.jpg,images/tutalien4,images/tutalien3,images/tutrocket1,images/tutalien4,images/nothing.png,2,practice,true,2,common,0,2020-06-20T19:18:10Z,sub111
two-step-fixation,105,294084,0.0-61.0-2.14,FALSE,FALSE,FALSE,FALSE,"""event"",""trial"",""time""
""fullscreenenter"",""5"",""11372""
","
","
","""event"",""trial"",""time""
""fullscreenenter"",""5"",""11372""
","
",NA,images/earth.jpg,NA,NA,NA,NA,NA,NA,NA,NA,NA,NA,NA,NA,NA,fixation,NA,NA,NA,NA,NA,NA,sub111
d3-animate-choice,106,296362,0.0-61.0-0.15,FALSE,FALSE,FALSE,FALSE,"""event"",""trial"",""time""
""fullscreenenter"",""5"",""11372""
","
","
","""event"",""trial"",""time""
""fullscreenenter"",""5"",""11372""
","
",272.1999999776017,NA,48,NA,NA,3000,1,NA,NA,images/earth.jpg,images/tutrocket1,images/tutrocket2,null,images/tutrocket1,NA,1,practice,null,2,NA,NA,NA,sub111
d3-animate-choice,107,298857,0.0-61.0-1.15,FALSE,FALSE,FALSE,FALSE,"""event"",""trial"",""time""
""fullscreenenter"",""5"",""11372""
","
","
","""event"",""trial"",""time""
""fullscreenenter"",""5"",""11372""
","
",489.82499999692664,NA,49,NA,NA,3000,1,NA,NA,images/tutyellowplanet.jpg,images/tutalien4,images/tutalien3,images/tutrocket1,images/tutalien3,images/t.png,2,practice,true,1,common,1,2020-06-20T19:18:16Z,sub111
two-step-fixation,108,299860,0.0-61.0-2.15,FALSE,FALSE,FALSE,FALSE,"""event"",""trial"",""time""
""fullscreenenter"",""5"",""11372""
","
","
","""event"",""trial"",""time""
""fullscreenenter"",""5"",""11372""
","
",NA,images/earth.jpg,NA,NA,NA,NA,NA,NA,NA,NA,NA,NA,NA,NA,NA,fixation,NA,NA,NA,NA,NA,NA,sub111
d3-animate-choice,109,302223,0.0-61.0-0.16,FALSE,FALSE,FALSE,FALSE,"""event"",""trial"",""time""
""fullscreenenter"",""5"",""11372""
","
","
","""event"",""trial"",""time""
""fullscreenenter"",""5"",""11372""
","
",359.30999999982305,NA,48,NA,NA,3000,1,NA,NA,images/earth.jpg,images/tutrocket1,images/tutrocket2,null,images/tutrocket1,NA,1,practice,null,2,NA,NA,NA,sub111
d3-animate-choice,110,304541,0.0-61.0-1.16,FALSE,FALSE,FALSE,FALSE,"""event"",""trial"",""time""
""fullscreenenter"",""5"",""11372""
","
","
","""event"",""trial"",""time""
""fullscreenenter"",""5"",""11372""
","
",310.9450000047218,NA,49,NA,NA,3000,1,NA,NA,images/tutyellowplanet.jpg,images/tutalien4,images/tutalien3,images/tutrocket1,images/tutalien3,images/nothing.png,2,practice,true,1,common,0,2020-06-20T19:18:22Z,sub111
two-step-fixation,111,305545,0.0-61.0-2.16,FALSE,FALSE,FALSE,FALSE,"""event"",""trial"",""time""
""fullscreenenter"",""5"",""11372""
","
","
","""event"",""trial"",""time""
""fullscreenenter"",""5"",""11372""
","
",NA,images/earth.jpg,NA,NA,NA,NA,NA,NA,NA,NA,NA,NA,NA,NA,NA,fixation,NA,NA,NA,NA,NA,NA,sub111
d3-animate-choice,112,307555,0.0-61.0-0.17,FALSE,FALSE,FALSE,FALSE,"""event"",""trial"",""time""
""fullscreenenter"",""5"",""11372""
","
","
","""event"",""trial"",""time""
""fullscreenenter"",""5"",""11372""
","
",2.1249999990686774,NA,48,NA,NA,3000,1,NA,NA,images/earth.jpg,images/tutrocket1,images/tutrocket2,null,images/tutrocket1,NA,1,practice,null,2,NA,NA,NA,sub111
d3-animate-choice,113,309800,0.0-61.0-1.17,FALSE,FALSE,FALSE,FALSE,"""event"",""trial"",""time""
""fullscreenenter"",""5"",""11372""
","
","
","""event"",""trial"",""time""
""fullscreenenter"",""5"",""11372""
","
",240.34499999834225,NA,48,NA,NA,3000,1,NA,NA,images/tutyellowplanet.jpg,images/tutalien4,images/tutalien3,images/tutrocket1,images/tutalien4,images/nothing.png,2,practice,true,2,common,0,2020-06-20T19:18:27Z,sub111
two-step-fixation,114,310808,0.0-61.0-2.17,FALSE,FALSE,FALSE,FALSE,"""event"",""trial"",""time""
""fullscreenenter"",""5"",""11372""
","
","
","""event"",""trial"",""time""
""fullscreenenter"",""5"",""11372""
","
",NA,images/earth.jpg,NA,NA,NA,NA,NA,NA,NA,NA,NA,NA,NA,NA,NA,fixation,NA,NA,NA,NA,NA,NA,sub111
d3-animate-choice,115,313050,0.0-61.0-0.18,FALSE,FALSE,FALSE,FALSE,"""event"",""trial"",""time""
""fullscreenenter"",""5"",""11372""
","
","
","""event"",""trial"",""time""
""fullscreenenter"",""5"",""11372""
","
",236.73499998403713,NA,48,NA,NA,3000,1,NA,NA,images/earth.jpg,images/tutrocket1,images/tutrocket2,null,images/tutrocket1,NA,1,practice,null,2,NA,NA,NA,sub111
d3-animate-choice,116,315330,0.0-61.0-1.18,FALSE,FALSE,FALSE,FALSE,"""event"",""trial"",""time""
""fullscreenenter"",""5"",""11372""
","
","
","""event"",""trial"",""time""
""fullscreenenter"",""5"",""11372""
","
",274.37499997904524,NA,49,NA,NA,3000,1,NA,NA,images/tutgreenplanet.jpg,images/tutalien2,images/tutalien1,images/tutrocket1,images/tutalien1,images/nothing.png,2,practice,false,1,rare,0,2020-06-20T19:18:33Z,sub111
two-step-fixation,117,316336,0.0-61.0-2.18,FALSE,FALSE,FALSE,FALSE,"""event"",""trial"",""time""
""fullscreenenter"",""5"",""11372""
","
","
","""event"",""trial"",""time""
""fullscreenenter"",""5"",""11372""
","
",NA,images/earth.jpg,NA,NA,NA,NA,NA,NA,NA,NA,NA,NA,NA,NA,NA,fixation,NA,NA,NA,NA,NA,NA,sub111
d3-animate-choice,118,318582,0.0-61.0-0.19,FALSE,FALSE,FALSE,FALSE,"""event"",""trial"",""time""
""fullscreenenter"",""5"",""11372""
","
","
","""event"",""trial"",""time""
""fullscreenenter"",""5"",""11372""
","
",239.6850000077393,NA,48,NA,NA,3000,1,NA,NA,images/earth.jpg,images/tutrocket1,images/tutrocket2,null,images/tutrocket1,NA,1,practice,null,2,NA,NA,NA,sub111
d3-animate-choice,119,320886,0.0-61.0-1.19,FALSE,FALSE,FALSE,FALSE,"""event"",""trial"",""time""
""fullscreenenter"",""5"",""11372""
","
","
","""event"",""trial"",""time""
""fullscreenenter"",""5"",""11372""
","
",300.0400000018999,NA,49,NA,NA,3000,1,NA,NA,images/tutyellowplanet.jpg,images/tutalien4,images/tutalien3,images/tutrocket1,images/tutalien3,images/nothing.png,2,practice,true,1,common,0,2020-06-20T19:18:38Z,sub111
two-step-fixation,120,321894,0.0-61.0-2.19,FALSE,FALSE,FALSE,FALSE,"""event"",""trial"",""time""
""fullscreenenter"",""5"",""11372""
","
","
","""event"",""trial"",""time""
""fullscreenenter"",""5"",""11372""
","
",NA,images/earth.jpg,NA,NA,NA,NA,NA,NA,NA,NA,NA,NA,NA,NA,NA,fixation,NA,NA,NA,NA,NA,NA,sub111
d3-instructions,121,324358,0.0-62.0,FALSE,FALSE,FALSE,FALSE,"""event"",""trial"",""time""
""fullscreenenter"",""5"",""11372""
","
","
","""event"",""trial"",""time""
""fullscreenenter"",""5"",""11372""
","
",NA,NA,NA,NA,NA,NA,NA,NA,NA,NA,NA,NA,NA,NA,NA,NA,NA,NA,NA,NA,NA,NA,sub111
audio-keyboard-response,122,325922,0.0-63.0,FALSE,FALSE,FALSE,FALSE,"""event"",""trial"",""time""
""fullscreenenter"",""5"",""11372""
","
","
","""event"",""trial"",""time""
""fullscreenenter"",""5"",""11372""
","
",1562,audio/instructions/treasure_feedback.wav,32,NA,NA,NA,NA,NA,NA,NA,NA,NA,NA,NA,NA,NA,NA,NA,NA,NA,NA,NA,sub111
d3-instructions,123,333912,0.0-64.0,FALSE,FALSE,FALSE,FALSE,"""event"",""trial"",""time""
""fullscreenenter"",""5"",""11372""
","
","
","""event"",""trial"",""time""
""fullscreenenter"",""5"",""11372""
","
",NA,NA,NA,NA,NA,NA,NA,NA,NA,NA,NA,NA,NA,NA,NA,NA,NA,NA,NA,NA,NA,NA,sub111
d3-instructions,124,339065,0.0-65.0,FALSE,FALSE,FALSE,FALSE,"""event"",""trial"",""time""
""fullscreenenter"",""5"",""11372""
","
","
","""event"",""trial"",""time""
""fullscreenenter"",""5"",""11372""
","
",NA,NA,NA,NA,NA,NA,NA,NA,NA,NA,NA,NA,NA,NA,NA,NA,NA,NA,NA,NA,NA,NA,sub111
d3-instructions,125,357542,0.0-66.0,FALSE,FALSE,FALSE,FALSE,"""event"",""trial"",""time""
""fullscreenenter"",""5"",""11372""
","
","
","""event"",""trial"",""time""
""fullscreenenter"",""5"",""11372""
","
",NA,NA,NA,NA,NA,NA,NA,NA,NA,NA,NA,NA,NA,NA,NA,NA,NA,NA,NA,NA,NA,NA,sub111
d3-instructions,126,363089,0.0-67.0,FALSE,FALSE,FALSE,FALSE,"""event"",""trial"",""time""
""fullscreenenter"",""5"",""11372""
","
","
","""event"",""trial"",""time""
""fullscreenenter"",""5"",""11372""
","
",NA,NA,NA,NA,NA,NA,NA,NA,NA,NA,NA,NA,NA,NA,NA,NA,NA,NA,NA,NA,NA,NA,sub111
d3-instructions,127,365137,0.0-68.0,FALSE,FALSE,FALSE,FALSE,"""event"",""trial"",""time""
""fullscreenenter"",""5"",""11372""
","
","
","""event"",""trial"",""time""
""fullscreenenter"",""5"",""11372""
","
",NA,NA,NA,NA,NA,NA,NA,NA,NA,NA,NA,NA,NA,NA,NA,NA,NA,NA,NA,NA,NA,NA,sub111
instructions-quiz,128,368072,0.0-69.0,FALSE,FALSE,FALSE,FALSE,"""event"",""trial"",""time""
""fullscreenenter"",""5"",""11372""
","
","
","""event"",""trial"",""time""
""fullscreenenter"",""5"",""11372""
","
",2933.6349999939557,audio/quiz/Q1_Prompt.wav,NA,1,NA,NA,NA,NA,NA,NA,NA,NA,NA,NA,NA,NA,NA,NA,NA,NA,NA,NA,sub111
audio-keyboard-response,129,368991,0.0-70.0,FALSE,FALSE,FALSE,FALSE,"""event"",""trial"",""time""
""fullscreenenter"",""5"",""11372""
","
","
","""event"",""trial"",""time""
""fullscreenenter"",""5"",""11372""
","
",917,audio/quiz/Q1_Correct.wav,32,NA,NA,NA,NA,NA,NA,NA,NA,NA,NA,NA,NA,NA,NA,NA,NA,NA,NA,NA,sub111
instructions-quiz,130,372530,0.0-71.0,FALSE,FALSE,FALSE,FALSE,"""event"",""trial"",""time""
""fullscreenenter"",""5"",""11372""
","
","
","""event"",""trial"",""time""
""fullscreenenter"",""5"",""11372""
","
",3538.2899999967776,audio/quiz/Q2_Prompt.wav,NA,0,NA,NA,NA,NA,NA,NA,NA,NA,NA,NA,NA,NA,NA,NA,NA,NA,NA,NA,sub111
audio-keyboard-response,131,373243,0.0-72.0,FALSE,FALSE,FALSE,FALSE,"""event"",""trial"",""time""
""fullscreenenter"",""5"",""11372""
","
","
","""event"",""trial"",""time""
""fullscreenenter"",""5"",""11372""
","
",714,audio/quiz/Q2_Correct.wav,32,NA,NA,NA,NA,NA,NA,NA,NA,NA,NA,NA,NA,NA,NA,NA,NA,NA,NA,NA,sub111
instructions-quiz,132,375268,0.0-73.0,FALSE,FALSE,FALSE,FALSE,"""event"",""trial"",""time""
""fullscreenenter"",""5"",""11372""
","
","
","""event"",""trial"",""time""
""fullscreenenter"",""5"",""11372""
","
",2024.5999999751803,audio/quiz/Q3_Prompt.wav,NA,1,NA,NA,NA,NA,NA,NA,NA,NA,NA,NA,NA,NA,NA,NA,NA,NA,NA,NA,sub111
audio-keyboard-response,133,376230,0.0-74.0,FALSE,FALSE,FALSE,FALSE,"""event"",""trial"",""time""
""fullscreenenter"",""5"",""11372""
","
","
","""event"",""trial"",""time""
""fullscreenenter"",""5"",""11372""
","
",958,audio/quiz/Q3_Correct.wav,32,NA,NA,NA,NA,NA,NA,NA,NA,NA,NA,NA,NA,NA,NA,NA,NA,NA,NA,NA,sub111
d3-instructions,134,379132,0.0-75.0,FALSE,FALSE,FALSE,FALSE,"""event"",""trial"",""time""
""fullscreenenter"",""5"",""11372""
","
","
","""event"",""trial"",""time""
""fullscreenenter"",""5"",""11372""
","
",NA,NA,NA,NA,NA,NA,NA,NA,NA,NA,NA,NA,NA,NA,NA,NA,NA,NA,NA,NA,NA,NA,sub111
d3-animate-choice,135,382010,0.0-76.0-0.0,FALSE,FALSE,FALSE,FALSE,"""event"",""trial"",""time""
""fullscreenenter"",""5"",""11372""
","
","
","""event"",""trial"",""time""
""fullscreenenter"",""5"",""11372""
","
",874.2550000024494,NA,49,NA,NA,3000,1,NA,NA,images/earth.jpg,images/rocket1,images/rocket2,null,images/rocket2,NA,1,real,null,1,NA,NA,NA,sub111
d3-animate-choice,136,384633,0.0-76.0-1.0,FALSE,FALSE,FALSE,FALSE,"""event"",""trial"",""time""
""fullscreenenter"",""5"",""11372""
","
","
","""event"",""trial"",""time""
""fullscreenenter"",""5"",""11372""
","
",620.4699999943841,NA,49,NA,NA,3000,1,NA,NA,images/redplanet1.jpg,images/alien2,images/alien1,images/rocket2,images/alien1,images/nothing.png,2,real,true,1,common,0,2020-06-20T19:19:42Z,sub111
two-step-fixation,137,385635,0.0-76.0-2.0,FALSE,FALSE,FALSE,FALSE,"""event"",""trial"",""time""
""fullscreenenter"",""5"",""11372""
","
","
","""event"",""trial"",""time""
""fullscreenenter"",""5"",""11372""
","
",NA,images/earth.jpg,NA,NA,NA,NA,NA,NA,NA,NA,NA,NA,NA,NA,NA,fixation,NA,NA,NA,NA,NA,NA,sub111
d3-animate-choice,138,388213,0.0-76.0-0.1,FALSE,FALSE,FALSE,FALSE,"""event"",""trial"",""time""
""fullscreenenter"",""5"",""11372""
","
","
","""event"",""trial"",""time""
""fullscreenenter"",""5"",""11372""
","
",572.6750000030734,NA,48,NA,NA,3000,1,NA,NA,images/earth.jpg,images/rocket1,images/rocket2,null,images/rocket1,NA,1,real,null,2,NA,NA,NA,sub111
d3-animate-choice,139,390815,0.0-76.0-1.1,FALSE,FALSE,FALSE,FALSE,"""event"",""trial"",""time""
""fullscreenenter"",""5"",""11372""
","
","
","""event"",""trial"",""time""
""fullscreenenter"",""5"",""11372""
","
",600.2349999907892,NA,49,NA,NA,3000,1,NA,NA,images/purpleplanet.jpg,images/alien4,images/alien3,images/rocket1,images/alien3,images/nothing.png,2,real,true,1,common,0,2020-06-20T19:19:48Z,sub111
two-step-fixation,140,391817,0.0-76.0-2.1,FALSE,FALSE,FALSE,FALSE,"""event"",""trial"",""time""
""fullscreenenter"",""5"",""11372""
","
","
","""event"",""trial"",""time""
""fullscreenenter"",""5"",""11372""
","
",NA,images/earth.jpg,NA,NA,NA,NA,NA,NA,NA,NA,NA,NA,NA,NA,NA,fixation,NA,NA,NA,NA,NA,NA,sub111
d3-animate-choice,141,394175,0.0-76.0-0.2,FALSE,FALSE,FALSE,FALSE,"""event"",""trial"",""time""
""fullscreenenter"",""5"",""11372""
","
","
","""event"",""trial"",""time""
""fullscreenenter"",""5"",""11372""
","
",355.2849999978207,NA,49,NA,NA,3000,1,NA,NA,images/earth.jpg,images/rocket1,images/rocket2,null,images/rocket2,NA,1,real,null,1,NA,NA,NA,sub111
d3-animate-choice,142,396590,0.0-76.0-1.2,FALSE,FALSE,FALSE,FALSE,"""event"",""trial"",""time""
""fullscreenenter"",""5"",""11372""
","
","
","""event"",""trial"",""time""
""fullscreenenter"",""5"",""11372""
","
",412.24499998497777,NA,48,NA,NA,3000,1,NA,NA,images/redplanet1.jpg,images/alien2,images/alien1,images/rocket2,images/alien2,images/t.png,2,real,true,2,common,1,2020-06-20T19:19:54Z,sub111
two-step-fixation,143,397594,0.0-76.0-2.2,FALSE,FALSE,FALSE,FALSE,"""event"",""trial"",""time""
""fullscreenenter"",""5"",""11372""
","
","
","""event"",""trial"",""time""
""fullscreenenter"",""5"",""11372""
","
",NA,images/earth.jpg,NA,NA,NA,NA,NA,NA,NA,NA,NA,NA,NA,NA,NA,fixation,NA,NA,NA,NA,NA,NA,sub111
d3-animate-choice,144,399823,0.0-76.0-0.3,FALSE,FALSE,FALSE,FALSE,"""event"",""trial"",""time""
""fullscreenenter"",""5"",""11372""
","
","
","""event"",""trial"",""time""
""fullscreenenter"",""5"",""11372""
","
",227.22000000067055,NA,49,NA,NA,3000,1,NA,NA,images/earth.jpg,images/rocket1,images/rocket2,null,images/rocket2,NA,1,real,null,1,NA,NA,NA,sub111
d3-animate-choice,145,402238,0.0-76.0-1.3,FALSE,FALSE,FALSE,FALSE,"""event"",""trial"",""time""
""fullscreenenter"",""5"",""11372""
","
","
","""event"",""trial"",""time""
""fullscreenenter"",""5"",""11372""
","
",412.2849999985192,NA,48,NA,NA,3000,1,NA,NA,images/redplanet1.jpg,images/alien2,images/alien1,images/rocket2,images/alien2,images/t.png,2,real,true,2,common,1,2020-06-20T19:20:00Z,sub111
two-step-fixation,146,403243,0.0-76.0-2.3,FALSE,FALSE,FALSE,FALSE,"""event"",""trial"",""time""
""fullscreenenter"",""5"",""11372""
","
","
","""event"",""trial"",""time""
""fullscreenenter"",""5"",""11372""
","
",NA,images/earth.jpg,NA,NA,NA,NA,NA,NA,NA,NA,NA,NA,NA,NA,NA,fixation,NA,NA,NA,NA,NA,NA,sub111
d3-animate-choice,147,405483,0.0-76.0-0.4,FALSE,FALSE,FALSE,FALSE,"""event"",""trial"",""time""
""fullscreenenter"",""5"",""11372""
","
","
","""event"",""trial"",""time""
""fullscreenenter"",""5"",""11372""
","
",238.44000001554377,NA,49,NA,NA,3000,1,NA,NA,images/earth.jpg,images/rocket1,images/rocket2,null,images/rocket2,NA,1,real,null,1,NA,NA,NA,sub111
d3-animate-choice,148,407869,0.0-76.0-1.4,FALSE,FALSE,FALSE,FALSE,"""event"",""trial"",""time""
""fullscreenenter"",""5"",""11372""
","
","
","""event"",""trial"",""time""
""fullscreenenter"",""5"",""11372""
","
",382.6300000073388,NA,48,NA,NA,3000,1,NA,NA,images/redplanet1.jpg,images/alien2,images/alien1,images/rocket2,images/alien2,images/nothing.png,2,real,true,2,common,0,2020-06-20T19:20:05Z,sub111
two-step-fixation,149,408874,0.0-76.0-2.4,FALSE,FALSE,FALSE,FALSE,"""event"",""trial"",""time""
""fullscreenenter"",""5"",""11372""
","
","
","""event"",""trial"",""time""
""fullscreenenter"",""5"",""11372""
","
",NA,images/earth.jpg,NA,NA,NA,NA,NA,NA,NA,NA,NA,NA,NA,NA,NA,fixation,NA,NA,NA,NA,NA,NA,sub111
d3-animate-choice,150,411097,0.0-76.0-0.5,FALSE,FALSE,FALSE,FALSE,"""event"",""trial"",""time""
""fullscreenenter"",""5"",""11372""
","
","
","""event"",""trial"",""time""
""fullscreenenter"",""5"",""11372""
","
",215.93000000575557,NA,49,NA,NA,3000,1,NA,NA,images/earth.jpg,images/rocket1,images/rocket2,null,images/rocket2,NA,1,real,null,1,NA,NA,NA,sub111
d3-animate-choice,151,413482,0.0-76.0-1.5,FALSE,FALSE,FALSE,FALSE,"""event"",""trial"",""time""
""fullscreenenter"",""5"",""11372""
","
","
","""event"",""trial"",""time""
""fullscreenenter"",""5"",""11372""
","
",380.6800000020303,NA,48,NA,NA,3000,1,NA,NA,images/purpleplanet.jpg,images/alien4,images/alien3,images/rocket2,images/alien4,images/t.png,2,real,false,2,rare,1,2020-06-20T19:20:11Z,sub111
two-step-fixation,152,414488,0.0-76.0-2.5,FALSE,FALSE,FALSE,FALSE,"""event"",""trial"",""time""
""fullscreenenter"",""5"",""11372""
","
","
","""event"",""trial"",""time""
""fullscreenenter"",""5"",""11372""
","
",NA,images/earth.jpg,NA,NA,NA,NA,NA,NA,NA,NA,NA,NA,NA,NA,NA,fixation,NA,NA,NA,NA,NA,NA,sub111
d3-animate-choice,153,416863,0.0-76.0-0.6,FALSE,FALSE,FALSE,FALSE,"""event"",""trial"",""time""
""fullscreenenter"",""5"",""11372""
","
","
","""event"",""trial"",""time""
""fullscreenenter"",""5"",""11372""
","
",370.9450000023935,NA,48,NA,NA,3000,1,NA,NA,images/earth.jpg,images/rocket1,images/rocket2,null,images/rocket1,NA,1,real,null,2,NA,NA,NA,sub111
d3-animate-choice,154,419249,0.0-76.0-1.6,FALSE,FALSE,FALSE,FALSE,"""event"",""trial"",""time""
""fullscreenenter"",""5"",""11372""
","
","
","""event"",""trial"",""time""
""fullscreenenter"",""5"",""11372""
","
",379.5699999900535,NA,48,NA,NA,3000,1,NA,NA,images/purpleplanet.jpg,images/alien4,images/alien3,images/rocket1,images/alien4,images/t.png,2,real,true,2,common,1,2020-06-20T19:20:17Z,sub111
two-step-fixation,155,420254,0.0-76.0-2.6,FALSE,FALSE,FALSE,FALSE,"""event"",""trial"",""time""
""fullscreenenter"",""5"",""11372""
","
","
","""event"",""trial"",""time""
""fullscreenenter"",""5"",""11372""
","
",NA,images/earth.jpg,NA,NA,NA,NA,NA,NA,NA,NA,NA,NA,NA,NA,NA,fixation,NA,NA,NA,NA,NA,NA,sub111
d3-animate-choice,156,422462,0.0-76.0-0.7,FALSE,FALSE,FALSE,FALSE,"""event"",""trial"",""time""
""fullscreenenter"",""5"",""11372""
","
","
","""event"",""trial"",""time""
""fullscreenenter"",""5"",""11372""
","
",201.9399999990128,NA,48,NA,NA,3000,1,NA,NA,images/earth.jpg,images/rocket1,images/rocket2,null,images/rocket1,NA,1,real,null,2,NA,NA,NA,sub111
d3-animate-choice,157,424704,0.0-76.0-1.7,FALSE,FALSE,FALSE,FALSE,"""event"",""trial"",""time""
""fullscreenenter"",""5"",""11372""
","
","
","""event"",""trial"",""time""
""fullscreenenter"",""5"",""11372""
","
",236.075000022538,NA,48,NA,NA,3000,1,NA,NA,images/redplanet1.jpg,images/alien2,images/alien1,images/rocket1,images/alien2,images/t.png,2,real,false,2,rare,1,2020-06-20T19:20:22Z,sub111
two-step-fixation,158,425710,0.0-76.0-2.7,FALSE,FALSE,FALSE,FALSE,"""event"",""trial"",""time""
""fullscreenenter"",""5"",""11372""
","
","
","""event"",""trial"",""time""
""fullscreenenter"",""5"",""11372""
","
",NA,images/earth.jpg,NA,NA,NA,NA,NA,NA,NA,NA,NA,NA,NA,NA,NA,fixation,NA,NA,NA,NA,NA,NA,sub111
d3-animate-choice,159,427994,0.0-76.0-0.8,FALSE,FALSE,FALSE,FALSE,"""event"",""trial"",""time""
""fullscreenenter"",""5"",""11372""
","
","
","""event"",""trial"",""time""
""fullscreenenter"",""5"",""11372""
","
",277.765000006184,NA,48,NA,NA,3000,1,NA,NA,images/earth.jpg,images/rocket1,images/rocket2,null,images/rocket1,NA,1,real,null,2,NA,NA,NA,sub111
d3-animate-choice,160,430239,0.0-76.0-1.8,FALSE,FALSE,FALSE,FALSE,"""event"",""trial"",""time""
""fullscreenenter"",""5"",""11372""
","
","
","""event"",""trial"",""time""
""fullscreenenter"",""5"",""11372""
","
",239.224999997532,NA,48,NA,NA,3000,1,NA,NA,images/purpleplanet.jpg,images/alien4,images/alien3,images/rocket1,images/alien4,images/nothing.png,2,real,true,2,common,0,2020-06-20T19:20:28Z,sub111
two-step-fixation,161,431243,0.0-76.0-2.8,FALSE,FALSE,FALSE,FALSE,"""event"",""trial"",""time""
""fullscreenenter"",""5"",""11372""
","
","
","""event"",""trial"",""time""
""fullscreenenter"",""5"",""11372""
","
",NA,images/earth.jpg,NA,NA,NA,NA,NA,NA,NA,NA,NA,NA,NA,NA,NA,fixation,NA,NA,NA,NA,NA,NA,sub111
d3-animate-choice,162,433414,0.0-76.0-0.9,FALSE,FALSE,FALSE,FALSE,"""event"",""trial"",""time""
""fullscreenenter"",""5"",""11372""
","
","
","""event"",""trial"",""time""
""fullscreenenter"",""5"",""11372""
","
",164.86000001896173,NA,49,NA,NA,3000,1,NA,NA,images/earth.jpg,images/rocket1,images/rocket2,null,images/rocket2,NA,1,real,null,1,NA,NA,NA,sub111
d3-animate-choice,163,435925,0.0-76.0-1.9,FALSE,FALSE,FALSE,FALSE,"""event"",""trial"",""time""
""fullscreenenter"",""5"",""11372""
","
","
","""event"",""trial"",""time""
""fullscreenenter"",""5"",""11372""
","
",506.17000000784174,NA,48,NA,NA,3000,1,NA,NA,images/redplanet1.jpg,images/alien2,images/alien1,images/rocket2,images/alien2,images/t.png,2,real,true,2,common,1,2020-06-20T19:20:33Z,sub111
two-step-fixation,164,436931,0.0-76.0-2.9,FALSE,FALSE,FALSE,FALSE,"""event"",""trial"",""time""
""fullscreenenter"",""5"",""11372""
","
","
","""event"",""trial"",""time""
""fullscreenenter"",""5"",""11372""
","
",NA,images/earth.jpg,NA,NA,NA,NA,NA,NA,NA,NA,NA,NA,NA,NA,NA,fixation,NA,NA,NA,NA,NA,NA,sub111
d3-animate-choice,165,439188,0.0-76.0-0.10,FALSE,FALSE,FALSE,FALSE,"""event"",""trial"",""time""
""fullscreenenter"",""5"",""11372""
","
","
","""event"",""trial"",""time""
""fullscreenenter"",""5"",""11372""
","
",253.84000001940876,NA,49,NA,NA,3000,1,NA,NA,images/earth.jpg,images/rocket1,images/rocket2,null,images/rocket2,NA,1,real,null,1,NA,NA,NA,sub111
d3-animate-choice,166,441604,0.0-76.0-1.10,FALSE,FALSE,FALSE,FALSE,"""event"",""trial"",""time""
""fullscreenenter"",""5"",""11372""
","
","
","""event"",""trial"",""time""
""fullscreenenter"",""5"",""11372""
","
",407.33499999623746,NA,48,NA,NA,3000,1,NA,NA,images/purpleplanet.jpg,images/alien4,images/alien3,images/rocket2,images/alien4,images/t.png,2,real,false,2,rare,1,2020-06-20T19:20:39Z,sub111
two-step-fixation,167,442613,0.0-76.0-2.10,FALSE,FALSE,FALSE,FALSE,"""event"",""trial"",""time""
""fullscreenenter"",""5"",""11372""
","
","
","""event"",""trial"",""time""
""fullscreenenter"",""5"",""11372""
","
",NA,images/earth.jpg,NA,NA,NA,NA,NA,NA,NA,NA,NA,NA,NA,NA,NA,fixation,NA,NA,NA,NA,NA,NA,sub111
d3-animate-choice,168,444856,0.0-76.0-0.11,FALSE,FALSE,FALSE,FALSE,"""event"",""trial"",""time""
""fullscreenenter"",""5"",""11372""
","
","
","""event"",""trial"",""time""
""fullscreenenter"",""5"",""11372""
","
",238.16000000806525,NA,49,NA,NA,3000,1,NA,NA,images/earth.jpg,images/rocket1,images/rocket2,null,images/rocket2,NA,1,real,null,1,NA,NA,NA,sub111
d3-animate-choice,169,447238,0.0-76.0-1.11,FALSE,FALSE,FALSE,FALSE,"""event"",""trial"",""time""
""fullscreenenter"",""5"",""11372""
","
","
","""event"",""trial"",""time""
""fullscreenenter"",""5"",""11372""
","
",377.76999999186955,NA,48,NA,NA,3000,1,NA,NA,images/purpleplanet.jpg,images/alien4,images/alien3,images/rocket2,images/alien4,images/t.png,2,real,false,2,rare,1,2020-06-20T19:20:45Z,sub111
two-step-fixation,170,448245,0.0-76.0-2.11,FALSE,FALSE,FALSE,FALSE,"""event"",""trial"",""time""
""fullscreenenter"",""5"",""11372""
","
","
","""event"",""trial"",""time""
""fullscreenenter"",""5"",""11372""
","
",NA,images/earth.jpg,NA,NA,NA,NA,NA,NA,NA,NA,NA,NA,NA,NA,NA,fixation,NA,NA,NA,NA,NA,NA,sub111
d3-animate-choice,171,450375,0.0-76.0-0.12,FALSE,FALSE,FALSE,FALSE,"""event"",""trial"",""time""
""fullscreenenter"",""5"",""11372""
","
","
","""event"",""trial"",""time""
""fullscreenenter"",""5"",""11372""
","
",124.38500000280328,NA,49,NA,NA,3000,1,NA,NA,images/earth.jpg,images/rocket1,images/rocket2,null,images/rocket2,NA,1,real,null,1,NA,NA,NA,sub111
d3-animate-choice,172,453163,0.0-76.0-1.12,FALSE,FALSE,FALSE,FALSE,"""event"",""trial"",""time""
""fullscreenenter"",""5"",""11372""
","
","
","""event"",""trial"",""time""
""fullscreenenter"",""5"",""11372""
","
",778.3950000011828,NA,49,NA,NA,3000,1,NA,NA,images/purpleplanet.jpg,images/alien4,images/alien3,images/rocket2,images/alien3,images/t.png,2,real,false,1,rare,1,2020-06-20T19:20:50Z,sub111
two-step-fixation,173,454167,0.0-76.0-2.12,FALSE,FALSE,FALSE,FALSE,"""event"",""trial"",""time""
""fullscreenenter"",""5"",""11372""
","
","
","""event"",""trial"",""time""
""fullscreenenter"",""5"",""11372""
","
",NA,images/earth.jpg,NA,NA,NA,NA,NA,NA,NA,NA,NA,NA,NA,NA,NA,fixation,NA,NA,NA,NA,NA,NA,sub111
d3-animate-choice,174,456561,0.0-76.0-0.13,FALSE,FALSE,FALSE,FALSE,"""event"",""trial"",""time""
""fullscreenenter"",""5"",""11372""
","
","
","""event"",""trial"",""time""
""fullscreenenter"",""5"",""11372""
","
",388.3700000005774,NA,49,NA,NA,3000,1,NA,NA,images/earth.jpg,images/rocket1,images/rocket2,null,images/rocket2,NA,1,real,null,1,NA,NA,NA,sub111
d3-animate-choice,175,459109,0.0-76.0-1.13,FALSE,FALSE,FALSE,FALSE,"""event"",""trial"",""time""
""fullscreenenter"",""5"",""11372""
","
","
","""event"",""trial"",""time""
""fullscreenenter"",""5"",""11372""
","
",541.8699999863748,NA,48,NA,NA,3000,1,NA,NA,images/redplanet1.jpg,images/alien2,images/alien1,images/rocket2,images/alien2,images/t.png,2,real,true,2,common,1,2020-06-20T19:20:56Z,sub111
two-step-fixation,176,460114,0.0-76.0-2.13,FALSE,FALSE,FALSE,FALSE,"""event"",""trial"",""time""
""fullscreenenter"",""5"",""11372""
","
","
","""event"",""trial"",""time""
""fullscreenenter"",""5"",""11372""
","
",NA,images/earth.jpg,NA,NA,NA,NA,NA,NA,NA,NA,NA,NA,NA,NA,NA,fixation,NA,NA,NA,NA,NA,NA,sub111
d3-animate-choice,177,462247,0.0-76.0-0.14,FALSE,FALSE,FALSE,FALSE,"""event"",""trial"",""time""
""fullscreenenter"",""5"",""11372""
","
","
","""event"",""trial"",""time""
""fullscreenenter"",""5"",""11372""
","
",126.8500000005588,NA,49,NA,NA,3000,1,NA,NA,images/earth.jpg,images/rocket1,images/rocket2,null,images/rocket2,NA,1,real,null,1,NA,NA,NA,sub111
d3-animate-choice,178,464743,0.0-76.0-1.14,FALSE,FALSE,FALSE,FALSE,"""event"",""trial"",""time""
""fullscreenenter"",""5"",""11372""
","
","
","""event"",""trial"",""time""
""fullscreenenter"",""5"",""11372""
","
",488.89500001678243,NA,49,NA,NA,3000,1,NA,NA,images/purpleplanet.jpg,images/alien4,images/alien3,images/rocket2,images/alien3,images/nothing.png,2,real,false,1,rare,0,2020-06-20T19:21:02Z,sub111
two-step-fixation,179,465747,0.0-76.0-2.14,FALSE,FALSE,FALSE,FALSE,"""event"",""trial"",""time""
""fullscreenenter"",""5"",""11372""
","
","
","""event"",""trial"",""time""
""fullscreenenter"",""5"",""11372""
","
",NA,images/earth.jpg,NA,NA,NA,NA,NA,NA,NA,NA,NA,NA,NA,NA,NA,fixation,NA,NA,NA,NA,NA,NA,sub111
d3-animate-choice,180,467914,0.0-76.0-0.15,FALSE,FALSE,FALSE,FALSE,"""event"",""trial"",""time""
""fullscreenenter"",""5"",""11372""
","
","
","""event"",""trial"",""time""
""fullscreenenter"",""5"",""11372""
","
",160.36999999778345,NA,49,NA,NA,3000,1,NA,NA,images/earth.jpg,images/rocket1,images/rocket2,null,images/rocket2,NA,1,real,null,1,NA,NA,NA,sub111
d3-animate-choice,181,470357,0.0-76.0-1.15,FALSE,FALSE,FALSE,FALSE,"""event"",""trial"",""time""
""fullscreenenter"",""5"",""11372""
","
","
","""event"",""trial"",""time""
""fullscreenenter"",""5"",""11372""
","
",437.26999999489635,NA,48,NA,NA,3000,1,NA,NA,images/purpleplanet.jpg,images/alien4,images/alien3,images/rocket2,images/alien4,images/t.png,2,real,false,2,rare,1,2020-06-20T19:21:08Z,sub111
two-step-fixation,182,471364,0.0-76.0-2.15,FALSE,FALSE,FALSE,FALSE,"""event"",""trial"",""time""
""fullscreenenter"",""5"",""11372""
","
","
","""event"",""trial"",""time""
""fullscreenenter"",""5"",""11372""
","
",NA,images/earth.jpg,NA,NA,NA,NA,NA,NA,NA,NA,NA,NA,NA,NA,NA,fixation,NA,NA,NA,NA,NA,NA,sub111
d3-animate-choice,183,473381,0.0-76.0-0.16,FALSE,FALSE,FALSE,FALSE,"""event"",""trial"",""time""
""fullscreenenter"",""5"",""11372""
","
","
","""event"",""trial"",""time""
""fullscreenenter"",""5"",""11372""
","
",11.19499999913387,NA,49,NA,NA,3000,1,NA,NA,images/earth.jpg,images/rocket1,images/rocket2,null,images/rocket2,NA,1,real,null,1,NA,NA,NA,sub111
d3-animate-choice,184,475735,0.0-76.0-1.16,FALSE,FALSE,FALSE,FALSE,"""event"",""trial"",""time""
""fullscreenenter"",""5"",""11372""
","
","
","""event"",""trial"",""time""
""fullscreenenter"",""5"",""11372""
","
",347.7100000018254,NA,48,NA,NA,3000,1,NA,NA,images/redplanet1.jpg,images/alien2,images/alien1,images/rocket2,images/alien2,images/t.png,2,real,true,2,common,1,2020-06-20T19:21:13Z,sub111
two-step-fixation,185,476740,0.0-76.0-2.16,FALSE,FALSE,FALSE,FALSE,"""event"",""trial"",""time""
""fullscreenenter"",""5"",""11372""
","
","
","""event"",""trial"",""time""
""fullscreenenter"",""5"",""11372""
","
",NA,images/earth.jpg,NA,NA,NA,NA,NA,NA,NA,NA,NA,NA,NA,NA,NA,fixation,NA,NA,NA,NA,NA,NA,sub111
d3-animate-choice,186,479063,0.0-76.0-0.17,FALSE,FALSE,FALSE,FALSE,"""event"",""trial"",""time""
""fullscreenenter"",""5"",""11372""
","
","
","""event"",""trial"",""time""
""fullscreenenter"",""5"",""11372""
","
",315.5200000037439,NA,49,NA,NA,3000,1,NA,NA,images/earth.jpg,images/rocket1,images/rocket2,null,images/rocket2,NA,1,real,null,1,NA,NA,NA,sub111
d3-animate-choice,187,481405,0.0-76.0-1.17,FALSE,FALSE,FALSE,FALSE,"""event"",""trial"",""time""
""fullscreenenter"",""5"",""11372""
","
","
","""event"",""trial"",""time""
""fullscreenenter"",""5"",""11372""
","
",335.0700000009965,NA,48,NA,NA,3000,1,NA,NA,images/redplanet1.jpg,images/alien2,images/alien1,images/rocket2,images/alien2,images/nothing.png,2,real,true,2,common,0,2020-06-20T19:21:19Z,sub111
two-step-fixation,188,482409,0.0-76.0-2.17,FALSE,FALSE,FALSE,FALSE,"""event"",""trial"",""time""
""fullscreenenter"",""5"",""11372""
","
","
","""event"",""trial"",""time""
""fullscreenenter"",""5"",""11372""
","
",NA,images/earth.jpg,NA,NA,NA,NA,NA,NA,NA,NA,NA,NA,NA,NA,NA,fixation,NA,NA,NA,NA,NA,NA,sub111
d3-animate-choice,189,484527,0.0-76.0-0.18,FALSE,FALSE,FALSE,FALSE,"""event"",""trial"",""time""
""fullscreenenter"",""5"",""11372""
","
","
","""event"",""trial"",""time""
""fullscreenenter"",""5"",""11372""
","
",109.8350000102073,NA,48,NA,NA,3000,1,NA,NA,images/earth.jpg,images/rocket1,images/rocket2,null,images/rocket1,NA,1,real,null,2,NA,NA,NA,sub111
d3-animate-choice,190,486808,0.0-76.0-1.18,FALSE,FALSE,FALSE,FALSE,"""event"",""trial"",""time""
""fullscreenenter"",""5"",""11372""
","
","
","""event"",""trial"",""time""
""fullscreenenter"",""5"",""11372""
","
",273.72999998624437,NA,48,NA,NA,3000,1,NA,NA,images/purpleplanet.jpg,images/alien4,images/alien3,images/rocket1,images/alien4,images/nothing.png,2,real,true,2,common,0,2020-06-20T19:21:24Z,sub111
two-step-fixation,191,487813,0.0-76.0-2.18,FALSE,FALSE,FALSE,FALSE,"""event"",""trial"",""time""
""fullscreenenter"",""5"",""11372""
","
","
","""event"",""trial"",""time""
""fullscreenenter"",""5"",""11372""
","
",NA,images/earth.jpg,NA,NA,NA,NA,NA,NA,NA,NA,NA,NA,NA,NA,NA,fixation,NA,NA,NA,NA,NA,NA,sub111
d3-animate-choice,192,490094,0.0-76.0-0.19,FALSE,FALSE,FALSE,FALSE,"""event"",""trial"",""time""
""fullscreenenter"",""5"",""11372""
","
","
","""event"",""trial"",""time""
""fullscreenenter"",""5"",""11372""
","
",277.20499999122694,NA,48,NA,NA,3000,1,NA,NA,images/earth.jpg,images/rocket1,images/rocket2,null,images/rocket1,NA,1,real,null,2,NA,NA,NA,sub111
d3-animate-choice,193,492457,0.0-76.0-1.19,FALSE,FALSE,FALSE,FALSE,"""event"",""trial"",""time""
""fullscreenenter"",""5"",""11372""
","
","
","""event"",""trial"",""time""
""fullscreenenter"",""5"",""11372""
","
",358.7650000117719,NA,49,NA,NA,3000,1,NA,NA,images/redplanet1.jpg,images/alien2,images/alien1,images/rocket1,images/alien1,images/t.png,2,real,false,1,rare,1,2020-06-20T19:21:30Z,sub111
two-step-fixation,194,493463,0.0-76.0-2.19,FALSE,FALSE,FALSE,FALSE,"""event"",""trial"",""time""
""fullscreenenter"",""5"",""11372""
","
","
","""event"",""trial"",""time""
""fullscreenenter"",""5"",""11372""
","
",NA,images/earth.jpg,NA,NA,NA,NA,NA,NA,NA,NA,NA,NA,NA,NA,NA,fixation,NA,NA,NA,NA,NA,NA,sub111
d3-animate-choice,195,495723,0.0-76.0-0.20,FALSE,FALSE,FALSE,FALSE,"""event"",""trial"",""time""
""fullscreenenter"",""5"",""11372""
","
","
","""event"",""trial"",""time""
""fullscreenenter"",""5"",""11372""
","
",255.7700000179466,NA,49,NA,NA,3000,1,NA,NA,images/earth.jpg,images/rocket1,images/rocket2,null,images/rocket2,NA,1,real,null,1,NA,NA,NA,sub111
d3-animate-choice,196,498609,0.0-76.0-1.20,FALSE,FALSE,FALSE,FALSE,"""event"",""trial"",""time""
""fullscreenenter"",""5"",""11372""
","
","
","""event"",""trial"",""time""
""fullscreenenter"",""5"",""11372""
","
",881.1599999899045,NA,49,NA,NA,3000,1,NA,NA,images/purpleplanet.jpg,images/alien4,images/alien3,images/rocket2,images/alien3,images/nothing.png,2,real,false,1,rare,0,2020-06-20T19:21:36Z,sub111
two-step-fixation,197,499613,0.0-76.0-2.20,FALSE,FALSE,FALSE,FALSE,"""event"",""trial"",""time""
""fullscreenenter"",""5"",""11372""
","
","
","""event"",""trial"",""time""
""fullscreenenter"",""5"",""11372""
","
",NA,images/earth.jpg,NA,NA,NA,NA,NA,NA,NA,NA,NA,NA,NA,NA,NA,fixation,NA,NA,NA,NA,NA,NA,sub111
d3-animate-choice,198,501727,0.0-76.0-0.21,FALSE,FALSE,FALSE,FALSE,"""event"",""trial"",""time""
""fullscreenenter"",""5"",""11372""
","
","
","""event"",""trial"",""time""
""fullscreenenter"",""5"",""11372""
","
",108.42999999294989,NA,49,NA,NA,3000,1,NA,NA,images/earth.jpg,images/rocket1,images/rocket2,null,images/rocket2,NA,1,real,null,1,NA,NA,NA,sub111
d3-animate-choice,199,504137,0.0-76.0-1.21,FALSE,FALSE,FALSE,FALSE,"""event"",""trial"",""time""
""fullscreenenter"",""5"",""11372""
","
","
","""event"",""trial"",""time""
""fullscreenenter"",""5"",""11372""
","
",405.2699999883771,NA,49,NA,NA,3000,1,NA,NA,images/redplanet1.jpg,images/alien2,images/alien1,images/rocket2,images/alien1,images/t.png,2,real,true,1,common,1,2020-06-20T19:21:41Z,sub111
two-step-fixation,200,505146,0.0-76.0-2.21,FALSE,FALSE,FALSE,FALSE,"""event"",""trial"",""time""
""fullscreenenter"",""5"",""11372""
","
","
","""event"",""trial"",""time""
""fullscreenenter"",""5"",""11372""
","
",NA,images/earth.jpg,NA,NA,NA,NA,NA,NA,NA,NA,NA,NA,NA,NA,NA,fixation,NA,NA,NA,NA,NA,NA,sub111
d3-animate-choice,201,507401,0.0-76.0-0.22,FALSE,FALSE,FALSE,FALSE,"""event"",""trial"",""time""
""fullscreenenter"",""5"",""11372""
","
","
","""event"",""trial"",""time""
""fullscreenenter"",""5"",""11372""
","
",249.65000001247972,NA,49,NA,NA,3000,1,NA,NA,images/earth.jpg,images/rocket1,images/rocket2,null,images/rocket2,NA,1,real,null,1,NA,NA,NA,sub111
d3-animate-choice,202,509872,0.0-76.0-1.22,FALSE,FALSE,FALSE,FALSE,"""event"",""trial"",""time""
""fullscreenenter"",""5"",""11372""
","
","
","""event"",""trial"",""time""
""fullscreenenter"",""5"",""11372""
","
",466.195000015432,NA,49,NA,NA,3000,1,NA,NA,images/redplanet1.jpg,images/alien2,images/alien1,images/rocket2,images/alien1,images/t.png,2,real,true,1,common,1,2020-06-20T19:21:47Z,sub111
two-step-fixation,203,510877,0.0-76.0-2.22,FALSE,FALSE,FALSE,FALSE,"""event"",""trial"",""time""
""fullscreenenter"",""5"",""11372""
","
","
","""event"",""trial"",""time""
""fullscreenenter"",""5"",""11372""
","
",NA,images/earth.jpg,NA,NA,NA,NA,NA,NA,NA,NA,NA,NA,NA,NA,NA,fixation,NA,NA,NA,NA,NA,NA,sub111
d3-animate-choice,204,513126,0.0-76.0-0.23,FALSE,FALSE,FALSE,FALSE,"""event"",""trial"",""time""
""fullscreenenter"",""5"",""11372""
","
","
","""event"",""trial"",""time""
""fullscreenenter"",""5"",""11372""
","
",244.43500000052154,NA,49,NA,NA,3000,1,NA,NA,images/earth.jpg,images/rocket1,images/rocket2,null,images/rocket2,NA,1,real,null,1,NA,NA,NA,sub111
d3-animate-choice,205,515442,0.0-76.0-1.23,FALSE,FALSE,FALSE,FALSE,"""event"",""trial"",""time""
""fullscreenenter"",""5"",""11372""
","
","
","""event"",""trial"",""time""
""fullscreenenter"",""5"",""11372""
","
",306.4849999791477,NA,49,NA,NA,3000,1,NA,NA,images/redplanet1.jpg,images/alien2,images/alien1,images/rocket2,images/alien1,images/t.png,2,real,true,1,common,1,2020-06-20T19:21:53Z,sub111
two-step-fixation,206,516447,0.0-76.0-2.23,FALSE,FALSE,FALSE,FALSE,"""event"",""trial"",""time""
""fullscreenenter"",""5"",""11372""
","
","
","""event"",""trial"",""time""
""fullscreenenter"",""5"",""11372""
","
",NA,images/earth.jpg,NA,NA,NA,NA,NA,NA,NA,NA,NA,NA,NA,NA,NA,fixation,NA,NA,NA,NA,NA,NA,sub111
d3-animate-choice,207,518557,0.0-76.0-0.24,FALSE,FALSE,FALSE,FALSE,"""event"",""trial"",""time""
""fullscreenenter"",""5"",""11372""
","
","
","""event"",""trial"",""time""
""fullscreenenter"",""5"",""11372""
","
",104.23500000615604,NA,49,NA,NA,3000,1,NA,NA,images/earth.jpg,images/rocket1,images/rocket2,null,images/rocket2,NA,1,real,null,1,NA,NA,NA,sub111
d3-animate-choice,208,520890,0.0-76.0-1.24,FALSE,FALSE,FALSE,FALSE,"""event"",""trial"",""time""
""fullscreenenter"",""5"",""11372""
","
","
","""event"",""trial"",""time""
""fullscreenenter"",""5"",""11372""
","
",326.83999999426305,NA,49,NA,NA,3000,1,NA,NA,images/redplanet1.jpg,images/alien2,images/alien1,images/rocket2,images/alien1,images/t.png,2,real,true,1,common,1,2020-06-20T19:21:58Z,sub111
two-step-fixation,209,521894,0.0-76.0-2.24,FALSE,FALSE,FALSE,FALSE,"""event"",""trial"",""time""
""fullscreenenter"",""5"",""11372""
","
","
","""event"",""trial"",""time""
""fullscreenenter"",""5"",""11372""
","
",NA,images/earth.jpg,NA,NA,NA,NA,NA,NA,NA,NA,NA,NA,NA,NA,NA,fixation,NA,NA,NA,NA,NA,NA,sub111
d3-animate-choice,210,524174,0.0-76.0-0.25,FALSE,FALSE,FALSE,FALSE,"""event"",""trial"",""time""
""fullscreenenter"",""5"",""11372""
","
","
","""event"",""trial"",""time""
""fullscreenenter"",""5"",""11372""
","
",274.4550000061281,NA,49,NA,NA,3000,1,NA,NA,images/earth.jpg,images/rocket1,images/rocket2,null,images/rocket2,NA,1,real,null,1,NA,NA,NA,sub111
d3-animate-choice,211,526465,0.0-76.0-1.25,FALSE,FALSE,FALSE,FALSE,"""event"",""trial"",""time""
""fullscreenenter"",""5"",""11372""
","
","
","""event"",""trial"",""time""
""fullscreenenter"",""5"",""11372""
","
",286.14999999990687,NA,49,NA,NA,3000,1,NA,NA,images/redplanet1.jpg,images/alien2,images/alien1,images/rocket2,images/alien1,images/t.png,2,real,true,1,common,1,2020-06-20T19:22:04Z,sub111
two-step-fixation,212,527474,0.0-76.0-2.25,FALSE,FALSE,FALSE,FALSE,"""event"",""trial"",""time""
""fullscreenenter"",""5"",""11372""
","
","
","""event"",""trial"",""time""
""fullscreenenter"",""5"",""11372""
","
",NA,images/earth.jpg,NA,NA,NA,NA,NA,NA,NA,NA,NA,NA,NA,NA,NA,fixation,NA,NA,NA,NA,NA,NA,sub111
d3-animate-choice,213,529718,0.0-76.0-0.26,FALSE,FALSE,FALSE,FALSE,"""event"",""trial"",""time""
""fullscreenenter"",""5"",""11372""
","
","
","""event"",""trial"",""time""
""fullscreenenter"",""5"",""11372""
","
",236.1500000115484,NA,49,NA,NA,3000,1,NA,NA,images/earth.jpg,images/rocket1,images/rocket2,null,images/rocket2,NA,1,real,null,1,NA,NA,NA,sub111
d3-animate-choice,214,532066,0.0-76.0-1.26,FALSE,FALSE,FALSE,FALSE,"""event"",""trial"",""time""
""fullscreenenter"",""5"",""11372""
","
","
","""event"",""trial"",""time""
""fullscreenenter"",""5"",""11372""
","
",338.8400000112597,NA,49,NA,NA,3000,1,NA,NA,images/redplanet1.jpg,images/alien2,images/alien1,images/rocket2,images/alien1,images/t.png,2,real,true,1,common,1,2020-06-20T19:22:09Z,sub111
two-step-fixation,215,533070,0.0-76.0-2.26,FALSE,FALSE,FALSE,FALSE,"""event"",""trial"",""time""
""fullscreenenter"",""5"",""11372""
","
","
","""event"",""trial"",""time""
""fullscreenenter"",""5"",""11372""
","
",NA,images/earth.jpg,NA,NA,NA,NA,NA,NA,NA,NA,NA,NA,NA,NA,NA,fixation,NA,NA,NA,NA,NA,NA,sub111
d3-animate-choice,216,535380,0.0-76.0-0.27,FALSE,FALSE,FALSE,FALSE,"""event"",""trial"",""time""
""fullscreenenter"",""5"",""11372""
","
","
","""event"",""trial"",""time""
""fullscreenenter"",""5"",""11372""
","
",305.84499999531545,NA,49,NA,NA,3000,1,NA,NA,images/earth.jpg,images/rocket1,images/rocket2,null,images/rocket2,NA,1,real,null,1,NA,NA,NA,sub111
d3-animate-choice,217,537664,0.0-76.0-1.27,FALSE,FALSE,FALSE,FALSE,"""event"",""trial"",""time""
""fullscreenenter"",""5"",""11372""
","
","
","""event"",""trial"",""time""
""fullscreenenter"",""5"",""11372""
","
",279.44499999284744,NA,49,NA,NA,3000,1,NA,NA,images/redplanet1.jpg,images/alien2,images/alien1,images/rocket2,images/alien1,images/t.png,2,real,true,1,common,1,2020-06-20T19:22:15Z,sub111
two-step-fixation,218,538669,0.0-76.0-2.27,FALSE,FALSE,FALSE,FALSE,"""event"",""trial"",""time""
""fullscreenenter"",""5"",""11372""
","
","
","""event"",""trial"",""time""
""fullscreenenter"",""5"",""11372""
","
",NA,images/earth.jpg,NA,NA,NA,NA,NA,NA,NA,NA,NA,NA,NA,NA,NA,fixation,NA,NA,NA,NA,NA,NA,sub111
d3-animate-choice,219,540829,0.0-76.0-0.28,FALSE,FALSE,FALSE,FALSE,"""event"",""trial"",""time""
""fullscreenenter"",""5"",""11372""
","
","
","""event"",""trial"",""time""
""fullscreenenter"",""5"",""11372""
","
",156.43999999156222,NA,49,NA,NA,3000,1,NA,NA,images/earth.jpg,images/rocket1,images/rocket2,null,images/rocket2,NA,1,real,null,1,NA,NA,NA,sub111
d3-animate-choice,220,543104,0.0-76.0-1.28,FALSE,FALSE,FALSE,FALSE,"""event"",""trial"",""time""
""fullscreenenter"",""5"",""11372""
","
","
","""event"",""trial"",""time""
""fullscreenenter"",""5"",""11372""
","
",272.3300000070594,NA,49,NA,NA,3000,1,NA,NA,images/redplanet1.jpg,images/alien2,images/alien1,images/rocket2,images/alien1,images/t.png,2,real,true,1,common,1,2020-06-20T19:22:20Z,sub111
two-step-fixation,221,544109,0.0-76.0-2.28,FALSE,FALSE,FALSE,FALSE,"""event"",""trial"",""time""
""fullscreenenter"",""5"",""11372""
","
","
","""event"",""trial"",""time""
""fullscreenenter"",""5"",""11372""
","
",NA,images/earth.jpg,NA,NA,NA,NA,NA,NA,NA,NA,NA,NA,NA,NA,NA,fixation,NA,NA,NA,NA,NA,NA,sub111
d3-animate-choice,222,546379,0.0-76.0-0.29,FALSE,FALSE,FALSE,FALSE,"""event"",""trial"",""time""
""fullscreenenter"",""5"",""11372""
","
","
","""event"",""trial"",""time""
""fullscreenenter"",""5"",""11372""
","
",261.1599999945611,NA,49,NA,NA,3000,1,NA,NA,images/earth.jpg,images/rocket1,images/rocket2,null,images/rocket2,NA,1,real,null,1,NA,NA,NA,sub111
d3-animate-choice,223,548481,0.0-76.0-1.29,FALSE,FALSE,FALSE,FALSE,"""event"",""trial"",""time""
""fullscreenenter"",""5"",""11372""
","
","
","""event"",""trial"",""time""
""fullscreenenter"",""5"",""11372""
","
",97.42499998537824,NA,49,NA,NA,3000,1,NA,NA,images/redplanet1.jpg,images/alien2,images/alien1,images/rocket2,images/alien1,images/t.png,2,real,true,1,common,1,2020-06-20T19:22:26Z,sub111
two-step-fixation,224,549485,0.0-76.0-2.29,FALSE,FALSE,FALSE,FALSE,"""event"",""trial"",""time""
""fullscreenenter"",""5"",""11372""
","
","
","""event"",""trial"",""time""
""fullscreenenter"",""5"",""11372""
","
",NA,images/earth.jpg,NA,NA,NA,NA,NA,NA,NA,NA,NA,NA,NA,NA,NA,fixation,NA,NA,NA,NA,NA,NA,sub111
d3-animate-choice,225,551621,0.0-76.0-0.30,FALSE,FALSE,FALSE,FALSE,"""event"",""trial"",""time""
""fullscreenenter"",""5"",""11372""
","
","
","""event"",""trial"",""time""
""fullscreenenter"",""5"",""11372""
","
",131.74499999149702,NA,49,NA,NA,3000,1,NA,NA,images/earth.jpg,images/rocket1,images/rocket2,null,images/rocket2,NA,1,real,null,1,NA,NA,NA,sub111
d3-animate-choice,226,553926,0.0-76.0-1.30,FALSE,FALSE,FALSE,FALSE,"""event"",""trial"",""time""
""fullscreenenter"",""5"",""11372""
","
","
","""event"",""trial"",""time""
""fullscreenenter"",""5"",""11372""
","
",297.7699999755714,NA,49,NA,NA,3000,1,NA,NA,images/redplanet1.jpg,images/alien2,images/alien1,images/rocket2,images/alien1,images/nothing.png,2,real,true,1,common,0,2020-06-20T19:22:31Z,sub111
two-step-fixation,227,554931,0.0-76.0-2.30,FALSE,FALSE,FALSE,FALSE,"""event"",""trial"",""time""
""fullscreenenter"",""5"",""11372""
","
","
","""event"",""trial"",""time""
""fullscreenenter"",""5"",""11372""
","
",NA,images/earth.jpg,NA,NA,NA,NA,NA,NA,NA,NA,NA,NA,NA,NA,NA,fixation,NA,NA,NA,NA,NA,NA,sub111
d3-animate-choice,228,557001,0.0-76.0-0.31,FALSE,FALSE,FALSE,FALSE,"""event"",""trial"",""time""
""fullscreenenter"",""5"",""11372""
","
","
","""event"",""trial"",""time""
""fullscreenenter"",""5"",""11372""
","
",66.66000001132488,NA,49,NA,NA,3000,1,NA,NA,images/earth.jpg,images/rocket1,images/rocket2,null,images/rocket2,NA,1,real,null,1,NA,NA,NA,sub111
d3-animate-choice,229,559280,0.0-76.0-1.31,FALSE,FALSE,FALSE,FALSE,"""event"",""trial"",""time""
""fullscreenenter"",""5"",""11372""
","
","
","""event"",""trial"",""time""
""fullscreenenter"",""5"",""11372""
","
",273.4150000032969,NA,49,NA,NA,3000,1,NA,NA,images/purpleplanet.jpg,images/alien4,images/alien3,images/rocket2,images/alien3,images/nothing.png,2,real,false,1,rare,0,2020-06-20T19:22:37Z,sub111
two-step-fixation,230,560287,0.0-76.0-2.31,FALSE,FALSE,FALSE,FALSE,"""event"",""trial"",""time""
""fullscreenenter"",""5"",""11372""
","
","
","""event"",""trial"",""time""
""fullscreenenter"",""5"",""11372""
","
",NA,images/earth.jpg,NA,NA,NA,NA,NA,NA,NA,NA,NA,NA,NA,NA,NA,fixation,NA,NA,NA,NA,NA,NA,sub111
d3-animate-choice,231,562613,0.0-76.0-0.32,FALSE,FALSE,FALSE,FALSE,"""event"",""trial"",""time""
""fullscreenenter"",""5"",""11372""
","
","
","""event"",""trial"",""time""
""fullscreenenter"",""5"",""11372""
","
",319.8549999797251,NA,49,NA,NA,3000,1,NA,NA,images/earth.jpg,images/rocket1,images/rocket2,null,images/rocket2,NA,1,real,null,1,NA,NA,NA,sub111
d3-animate-choice,232,565785,0.0-76.0-1.32,FALSE,FALSE,FALSE,FALSE,"""event"",""trial"",""time""
""fullscreenenter"",""5"",""11372""
","
","
","""event"",""trial"",""time""
""fullscreenenter"",""5"",""11372""
","
",1164.550000015879,NA,48,NA,NA,3000,1,NA,NA,images/purpleplanet.jpg,images/alien4,images/alien3,images/rocket2,images/alien4,images/t.png,2,real,false,2,rare,1,2020-06-20T19:22:43Z,sub111
two-step-fixation,233,566789,0.0-76.0-2.32,FALSE,FALSE,FALSE,FALSE,"""event"",""trial"",""time""
""fullscreenenter"",""5"",""11372""
","
","
","""event"",""trial"",""time""
""fullscreenenter"",""5"",""11372""
","
",NA,images/earth.jpg,NA,NA,NA,NA,NA,NA,NA,NA,NA,NA,NA,NA,NA,fixation,NA,NA,NA,NA,NA,NA,sub111
d3-animate-choice,234,569140,0.0-76.0-0.33,FALSE,FALSE,FALSE,FALSE,"""event"",""trial"",""time""
""fullscreenenter"",""5"",""11372""
","
","
","""event"",""trial"",""time""
""fullscreenenter"",""5"",""11372""
","
",345.0249999877997,NA,49,NA,NA,3000,1,NA,NA,images/earth.jpg,images/rocket1,images/rocket2,null,images/rocket2,NA,1,real,null,1,NA,NA,NA,sub111
d3-animate-choice,235,571614,0.0-76.0-1.33,FALSE,FALSE,FALSE,FALSE,"""event"",""trial"",""time""
""fullscreenenter"",""5"",""11372""
","
","
","""event"",""trial"",""time""
""fullscreenenter"",""5"",""11372""
","
",469.7699999960605,NA,49,NA,NA,3000,1,NA,NA,images/redplanet1.jpg,images/alien2,images/alien1,images/rocket2,images/alien1,images/nothing.png,2,real,true,1,common,0,2020-06-20T19:22:49Z,sub111
two-step-fixation,236,572619,0.0-76.0-2.33,FALSE,FALSE,FALSE,FALSE,"""event"",""trial"",""time""
""fullscreenenter"",""5"",""11372""
","
","
","""event"",""trial"",""time""
""fullscreenenter"",""5"",""11372""
","
",NA,images/earth.jpg,NA,NA,NA,NA,NA,NA,NA,NA,NA,NA,NA,NA,NA,fixation,NA,NA,NA,NA,NA,NA,sub111
d3-animate-choice,237,575025,0.0-76.0-0.34,FALSE,FALSE,FALSE,FALSE,"""event"",""trial"",""time""
""fullscreenenter"",""5"",""11372""
","
","
","""event"",""trial"",""time""
""fullscreenenter"",""5"",""11372""
","
",398.07000002474524,NA,48,NA,NA,3000,1,NA,NA,images/earth.jpg,images/rocket1,images/rocket2,null,images/rocket1,NA,1,real,null,2,NA,NA,NA,sub111
d3-animate-choice,238,577435,0.0-76.0-1.34,FALSE,FALSE,FALSE,FALSE,"""event"",""trial"",""time""
""fullscreenenter"",""5"",""11372""
","
","
","""event"",""trial"",""time""
""fullscreenenter"",""5"",""11372""
","
",404.2849999968894,NA,48,NA,NA,3000,1,NA,NA,images/purpleplanet.jpg,images/alien4,images/alien3,images/rocket1,images/alien4,images/t.png,2,real,true,2,common,1,2020-06-20T19:22:55Z,sub111
two-step-fixation,239,578442,0.0-76.0-2.34,FALSE,FALSE,FALSE,FALSE,"""event"",""trial"",""time""
""fullscreenenter"",""5"",""11372""
","
","
","""event"",""trial"",""time""
""fullscreenenter"",""5"",""11372""
","
",NA,images/earth.jpg,NA,NA,NA,NA,NA,NA,NA,NA,NA,NA,NA,NA,NA,fixation,NA,NA,NA,NA,NA,NA,sub111
d3-animate-choice,240,580748,0.0-76.0-0.35,FALSE,FALSE,FALSE,FALSE,"""event"",""trial"",""time""
""fullscreenenter"",""5"",""11372""
","
","
","""event"",""trial"",""time""
""fullscreenenter"",""5"",""11372""
","
",301.15500002284534,NA,48,NA,NA,3000,1,NA,NA,images/earth.jpg,images/rocket1,images/rocket2,null,images/rocket1,NA,1,real,null,2,NA,NA,NA,sub111
d3-animate-choice,241,583146,0.0-76.0-1.35,FALSE,FALSE,FALSE,FALSE,"""event"",""trial"",""time""
""fullscreenenter"",""5"",""11372""
","
","
","""event"",""trial"",""time""
""fullscreenenter"",""5"",""11372""
","
",393.6950000061188,NA,48,NA,NA,3000,1,NA,NA,images/purpleplanet.jpg,images/alien4,images/alien3,images/rocket1,images/alien4,images/t.png,2,real,true,2,common,1,2020-06-20T19:23:00Z,sub111
two-step-fixation,242,584152,0.0-76.0-2.35,FALSE,FALSE,FALSE,FALSE,"""event"",""trial"",""time""
""fullscreenenter"",""5"",""11372""
","
","
","""event"",""trial"",""time""
""fullscreenenter"",""5"",""11372""
","
",NA,images/earth.jpg,NA,NA,NA,NA,NA,NA,NA,NA,NA,NA,NA,NA,NA,fixation,NA,NA,NA,NA,NA,NA,sub111
d3-animate-choice,243,586405,0.0-76.0-0.36,FALSE,FALSE,FALSE,FALSE,"""event"",""trial"",""time""
""fullscreenenter"",""5"",""11372""
","
","
","""event"",""trial"",""time""
""fullscreenenter"",""5"",""11372""
","
",248.89499999699183,NA,48,NA,NA,3000,1,NA,NA,images/earth.jpg,images/rocket1,images/rocket2,null,images/rocket1,NA,1,real,null,2,NA,NA,NA,sub111
d3-animate-choice,244,588766,0.0-76.0-1.36,FALSE,FALSE,FALSE,FALSE,"""event"",""trial"",""time""
""fullscreenenter"",""5"",""11372""
","
","
","""event"",""trial"",""time""
""fullscreenenter"",""5"",""11372""
","
",354.2100000195205,NA,48,NA,NA,3000,1,NA,NA,images/purpleplanet.jpg,images/alien4,images/alien3,images/rocket1,images/alien4,images/t.png,2,real,true,2,common,1,2020-06-20T19:23:06Z,sub111
two-step-fixation,245,589771,0.0-76.0-2.36,FALSE,FALSE,FALSE,FALSE,"""event"",""trial"",""time""
""fullscreenenter"",""5"",""11372""
","
","
","""event"",""trial"",""time""
""fullscreenenter"",""5"",""11372""
","
",NA,images/earth.jpg,NA,NA,NA,NA,NA,NA,NA,NA,NA,NA,NA,NA,NA,fixation,NA,NA,NA,NA,NA,NA,sub111
d3-animate-choice,246,592020,0.0-76.0-0.37,FALSE,FALSE,FALSE,FALSE,"""event"",""trial"",""time""
""fullscreenenter"",""5"",""11372""
","
","
","""event"",""trial"",""time""
""fullscreenenter"",""5"",""11372""
","
",245.46500001451932,NA,48,NA,NA,3000,1,NA,NA,images/earth.jpg,images/rocket1,images/rocket2,null,images/rocket1,NA,1,real,null,2,NA,NA,NA,sub111
d3-animate-choice,247,594307,0.0-76.0-1.37,FALSE,FALSE,FALSE,FALSE,"""event"",""trial"",""time""
""fullscreenenter"",""5"",""11372""
","
","
","""event"",""trial"",""time""
""fullscreenenter"",""5"",""11372""
","
",282.839999999851,NA,48,NA,NA,3000,1,NA,NA,images/purpleplanet.jpg,images/alien4,images/alien3,images/rocket1,images/alien4,images/t.png,2,real,true,2,common,1,2020-06-20T19:23:12Z,sub111
two-step-fixation,248,595312,0.0-76.0-2.37,FALSE,FALSE,FALSE,FALSE,"""event"",""trial"",""time""
""fullscreenenter"",""5"",""11372""
","
","
","""event"",""trial"",""time""
""fullscreenenter"",""5"",""11372""
","
",NA,images/earth.jpg,NA,NA,NA,NA,NA,NA,NA,NA,NA,NA,NA,NA,NA,fixation,NA,NA,NA,NA,NA,NA,sub111
d3-animate-choice,249,597435,0.0-76.0-0.38,FALSE,FALSE,FALSE,FALSE,"""event"",""trial"",""time""
""fullscreenenter"",""5"",""11372""
","
","
","""event"",""trial"",""time""
""fullscreenenter"",""5"",""11372""
","
",117.01999997603707,NA,48,NA,NA,3000,1,NA,NA,images/earth.jpg,images/rocket1,images/rocket2,null,images/rocket1,NA,1,real,null,2,NA,NA,NA,sub111
d3-animate-choice,250,599759,0.0-76.0-1.38,FALSE,FALSE,FALSE,FALSE,"""event"",""trial"",""time""
""fullscreenenter"",""5"",""11372""
","
","
","""event"",""trial"",""time""
""fullscreenenter"",""5"",""11372""
","
",318.9299999794457,NA,48,NA,NA,3000,1,NA,NA,images/purpleplanet.jpg,images/alien4,images/alien3,images/rocket1,images/alien4,images/t.png,2,real,true,2,common,1,2020-06-20T19:23:17Z,sub111
two-step-fixation,251,600764,0.0-76.0-2.38,FALSE,FALSE,FALSE,FALSE,"""event"",""trial"",""time""
""fullscreenenter"",""5"",""11372""
","
","
","""event"",""trial"",""time""
""fullscreenenter"",""5"",""11372""
","
",NA,images/earth.jpg,NA,NA,NA,NA,NA,NA,NA,NA,NA,NA,NA,NA,NA,fixation,NA,NA,NA,NA,NA,NA,sub111
d3-animate-choice,252,603006,0.0-76.0-0.39,FALSE,FALSE,FALSE,FALSE,"""event"",""trial"",""time""
""fullscreenenter"",""5"",""11372""
","
","
","""event"",""trial"",""time""
""fullscreenenter"",""5"",""11372""
","
",236.1549999914132,NA,48,NA,NA,3000,1,NA,NA,images/earth.jpg,images/rocket1,images/rocket2,null,images/rocket1,NA,1,real,null,2,NA,NA,NA,sub111
d3-animate-choice,253,605292,0.0-76.0-1.39,FALSE,FALSE,FALSE,FALSE,"""event"",""trial"",""time""
""fullscreenenter"",""5"",""11372""
","
","
","""event"",""trial"",""time""
""fullscreenenter"",""5"",""11372""
","
",281.71999999904074,NA,48,NA,NA,3000,1,NA,NA,images/purpleplanet.jpg,images/alien4,images/alien3,images/rocket1,images/alien4,images/t.png,2,real,true,2,common,1,2020-06-20T19:23:23Z,sub111
two-step-fixation,254,606299,0.0-76.0-2.39,FALSE,FALSE,FALSE,FALSE,"""event"",""trial"",""time""
""fullscreenenter"",""5"",""11372""
","
","
","""event"",""trial"",""time""
""fullscreenenter"",""5"",""11372""
","
",NA,images/earth.jpg,NA,NA,NA,NA,NA,NA,NA,NA,NA,NA,NA,NA,NA,fixation,NA,NA,NA,NA,NA,NA,sub111
d3-animate-choice,255,608549,0.0-76.0-0.40,FALSE,FALSE,FALSE,FALSE,"""event"",""trial"",""time""
""fullscreenenter"",""5"",""11372""
","
","
","""event"",""trial"",""time""
""fullscreenenter"",""5"",""11372""
","
",244.3900000071153,NA,48,NA,NA,3000,1,NA,NA,images/earth.jpg,images/rocket1,images/rocket2,null,images/rocket1,NA,1,real,null,2,NA,NA,NA,sub111
d3-animate-choice,256,610915,0.0-76.0-1.40,FALSE,FALSE,FALSE,FALSE,"""event"",""trial"",""time""
""fullscreenenter"",""5"",""11372""
","
","
","""event"",""trial"",""time""
""fullscreenenter"",""5"",""11372""
","
",361.3300000142772,NA,48,NA,NA,3000,1,NA,NA,images/purpleplanet.jpg,images/alien4,images/alien3,images/rocket1,images/alien4,images/t.png,2,real,true,2,common,1,2020-06-20T19:23:28Z,sub111
two-step-fixation,257,611918,0.0-76.0-2.40,FALSE,FALSE,FALSE,FALSE,"""event"",""trial"",""time""
""fullscreenenter"",""5"",""11372""
","
","
","""event"",""trial"",""time""
""fullscreenenter"",""5"",""11372""
","
",NA,images/earth.jpg,NA,NA,NA,NA,NA,NA,NA,NA,NA,NA,NA,NA,NA,fixation,NA,NA,NA,NA,NA,NA,sub111
d3-animate-choice,258,613991,0.0-76.0-0.41,FALSE,FALSE,FALSE,FALSE,"""event"",""trial"",""time""
""fullscreenenter"",""5"",""11372""
","
","
","""event"",""trial"",""time""
""fullscreenenter"",""5"",""11372""
","
",68.4950000140816,NA,48,NA,NA,3000,1,NA,NA,images/earth.jpg,images/rocket1,images/rocket2,null,images/rocket1,NA,1,real,null,2,NA,NA,NA,sub111
d3-animate-choice,259,616625,0.0-76.0-1.41,FALSE,FALSE,FALSE,FALSE,"""event"",""trial"",""time""
""fullscreenenter"",""5"",""11372""
","
","
","""event"",""trial"",""time""
""fullscreenenter"",""5"",""11372""
","
",629.6649999858346,NA,48,NA,NA,3000,1,NA,NA,images/redplanet1.jpg,images/alien2,images/alien1,images/rocket1,images/alien2,images/nothing.png,2,real,false,2,rare,0,2020-06-20T19:23:34Z,sub111
two-step-fixation,260,617631,0.0-76.0-2.41,FALSE,FALSE,FALSE,FALSE,"""event"",""trial"",""time""
""fullscreenenter"",""5"",""11372""
","
","
","""event"",""trial"",""time""
""fullscreenenter"",""5"",""11372""
","
",NA,images/earth.jpg,NA,NA,NA,NA,NA,NA,NA,NA,NA,NA,NA,NA,NA,fixation,NA,NA,NA,NA,NA,NA,sub111
d3-animate-choice,261,619914,0.0-76.0-0.42,FALSE,FALSE,FALSE,FALSE,"""event"",""trial"",""time""
""fullscreenenter"",""5"",""11372""
","
","
","""event"",""trial"",""time""
""fullscreenenter"",""5"",""11372""
","
",277.85000001313165,NA,48,NA,NA,3000,1,NA,NA,images/earth.jpg,images/rocket1,images/rocket2,null,images/rocket1,NA,1,real,null,2,NA,NA,NA,sub111
d3-animate-choice,262,622282,0.0-76.0-1.42,FALSE,FALSE,FALSE,FALSE,"""event"",""trial"",""time""
""fullscreenenter"",""5"",""11372""
","
","
","""event"",""trial"",""time""
""fullscreenenter"",""5"",""11372""
","
",364.6149999985937,NA,48,NA,NA,3000,1,NA,NA,images/redplanet1.jpg,images/alien2,images/alien1,images/rocket1,images/alien2,images/t.png,2,real,false,2,rare,1,2020-06-20T19:23:40Z,sub111
two-step-fixation,263,623289,0.0-76.0-2.42,FALSE,FALSE,FALSE,FALSE,"""event"",""trial"",""time""
""fullscreenenter"",""5"",""11372""
","
","
","""event"",""trial"",""time""
""fullscreenenter"",""5"",""11372""
","
",NA,images/earth.jpg,NA,NA,NA,NA,NA,NA,NA,NA,NA,NA,NA,NA,NA,fixation,NA,NA,NA,NA,NA,NA,sub111
d3-animate-choice,264,625642,0.0-76.0-0.43,FALSE,FALSE,FALSE,FALSE,"""event"",""trial"",""time""
""fullscreenenter"",""5"",""11372""
","
","
","""event"",""trial"",""time""
""fullscreenenter"",""5"",""11372""
","
",349.0600000077393,NA,48,NA,NA,3000,1,NA,NA,images/earth.jpg,images/rocket1,images/rocket2,null,images/rocket1,NA,1,real,null,2,NA,NA,NA,sub111
d3-animate-choice,265,628062,0.0-76.0-1.43,FALSE,FALSE,FALSE,FALSE,"""event"",""trial"",""time""
""fullscreenenter"",""5"",""11372""
","
","
","""event"",""trial"",""time""
""fullscreenenter"",""5"",""11372""
","
",413.62999999546446,NA,48,NA,NA,3000,1,NA,NA,images/purpleplanet.jpg,images/alien4,images/alien3,images/rocket1,images/alien4,images/t.png,2,real,true,2,common,1,2020-06-20T19:23:45Z,sub111
two-step-fixation,266,629065,0.0-76.0-2.43,FALSE,FALSE,FALSE,FALSE,"""event"",""trial"",""time""
""fullscreenenter"",""5"",""11372""
","
","
","""event"",""trial"",""time""
""fullscreenenter"",""5"",""11372""
","
",NA,images/earth.jpg,NA,NA,NA,NA,NA,NA,NA,NA,NA,NA,NA,NA,NA,fixation,NA,NA,NA,NA,NA,NA,sub111
d3-animate-choice,267,631334,0.0-76.0-0.44,FALSE,FALSE,FALSE,FALSE,"""event"",""trial"",""time""
""fullscreenenter"",""5"",""11372""
","
","
","""event"",""trial"",""time""
""fullscreenenter"",""5"",""11372""
","
",264.8150000022724,NA,48,NA,NA,3000,1,NA,NA,images/earth.jpg,images/rocket1,images/rocket2,null,images/rocket1,NA,1,real,null,2,NA,NA,NA,sub111
d3-animate-choice,268,633807,0.0-76.0-1.44,FALSE,FALSE,FALSE,FALSE,"""event"",""trial"",""time""
""fullscreenenter"",""5"",""11372""
","
","
","""event"",""trial"",""time""
""fullscreenenter"",""5"",""11372""
","
",464.4399999815505,NA,48,NA,NA,3000,1,NA,NA,images/purpleplanet.jpg,images/alien4,images/alien3,images/rocket1,images/alien4,images/t.png,2,real,true,2,common,1,2020-06-20T19:23:51Z,sub111
two-step-fixation,269,634815,0.0-76.0-2.44,FALSE,FALSE,FALSE,FALSE,"""event"",""trial"",""time""
""fullscreenenter"",""5"",""11372""
","
","
","""event"",""trial"",""time""
""fullscreenenter"",""5"",""11372""
","
",NA,images/earth.jpg,NA,NA,NA,NA,NA,NA,NA,NA,NA,NA,NA,NA,NA,fixation,NA,NA,NA,NA,NA,NA,sub111
d3-animate-choice,270,637075,0.0-76.0-0.45,FALSE,FALSE,FALSE,FALSE,"""event"",""trial"",""time""
""fullscreenenter"",""5"",""11372""
","
","
","""event"",""trial"",""time""
""fullscreenenter"",""5"",""11372""
","
",254.8700000043027,NA,48,NA,NA,3000,1,NA,NA,images/earth.jpg,images/rocket1,images/rocket2,null,images/rocket1,NA,1,real,null,2,NA,NA,NA,sub111
d3-animate-choice,271,639337,0.0-76.0-1.45,FALSE,FALSE,FALSE,FALSE,"""event"",""trial"",""time""
""fullscreenenter"",""5"",""11372""
","
","
","""event"",""trial"",""time""
""fullscreenenter"",""5"",""11372""
","
",255.2049999940209,NA,48,NA,NA,3000,1,NA,NA,images/redplanet1.jpg,images/alien2,images/alien1,images/rocket1,images/alien2,images/t.png,2,real,false,2,rare,1,2020-06-20T19:23:57Z,sub111
two-step-fixation,272,640343,0.0-76.0-2.45,FALSE,FALSE,FALSE,FALSE,"""event"",""trial"",""time""
""fullscreenenter"",""5"",""11372""
","
","
","""event"",""trial"",""time""
""fullscreenenter"",""5"",""11372""
","
",NA,images/earth.jpg,NA,NA,NA,NA,NA,NA,NA,NA,NA,NA,NA,NA,NA,fixation,NA,NA,NA,NA,NA,NA,sub111
d3-animate-choice,273,642580,0.0-76.0-0.46,FALSE,FALSE,FALSE,FALSE,"""event"",""trial"",""time""
""fullscreenenter"",""5"",""11372""
","
","
","""event"",""trial"",""time""
""fullscreenenter"",""5"",""11372""
","
",231.29500000504777,NA,48,NA,NA,3000,1,NA,NA,images/earth.jpg,images/rocket1,images/rocket2,null,images/rocket1,NA,1,real,null,2,NA,NA,NA,sub111
d3-animate-choice,274,644831,0.0-76.0-1.46,FALSE,FALSE,FALSE,FALSE,"""event"",""trial"",""time""
""fullscreenenter"",""5"",""11372""
","
","
","""event"",""trial"",""time""
""fullscreenenter"",""5"",""11372""
","
",248.43499998678453,NA,48,NA,NA,3000,1,NA,NA,images/redplanet1.jpg,images/alien2,images/alien1,images/rocket1,images/alien2,images/nothing.png,2,real,false,2,rare,0,2020-06-20T19:24:02Z,sub111
two-step-fixation,275,645836,0.0-76.0-2.46,FALSE,FALSE,FALSE,FALSE,"""event"",""trial"",""time""
""fullscreenenter"",""5"",""11372""
","
","
","""event"",""trial"",""time""
""fullscreenenter"",""5"",""11372""
","
",NA,images/earth.jpg,NA,NA,NA,NA,NA,NA,NA,NA,NA,NA,NA,NA,NA,fixation,NA,NA,NA,NA,NA,NA,sub111
d3-animate-choice,276,647872,0.0-76.0-0.47,FALSE,FALSE,FALSE,FALSE,"""event"",""trial"",""time""
""fullscreenenter"",""5"",""11372""
","
","
","""event"",""trial"",""time""
""fullscreenenter"",""5"",""11372""
","
",32.18499998911284,NA,48,NA,NA,3000,1,NA,NA,images/earth.jpg,images/rocket1,images/rocket2,null,images/rocket1,NA,1,real,null,2,NA,NA,NA,sub111
d3-animate-choice,277,650246,0.0-76.0-1.47,FALSE,FALSE,FALSE,FALSE,"""event"",""trial"",""time""
""fullscreenenter"",""5"",""11372""
","
","
","""event"",""trial"",""time""
""fullscreenenter"",""5"",""11372""
","
",371.5550000197254,NA,48,NA,NA,3000,1,NA,NA,images/purpleplanet.jpg,images/alien4,images/alien3,images/rocket1,images/alien4,images/nothing.png,2,real,true,2,common,0,2020-06-20T19:24:08Z,sub111
two-step-fixation,278,651251,0.0-76.0-2.47,FALSE,FALSE,FALSE,FALSE,"""event"",""trial"",""time""
""fullscreenenter"",""5"",""11372""
","
","
","""event"",""trial"",""time""
""fullscreenenter"",""5"",""11372""
","
",NA,images/earth.jpg,NA,NA,NA,NA,NA,NA,NA,NA,NA,NA,NA,NA,NA,fixation,NA,NA,NA,NA,NA,NA,sub111
d3-animate-choice,279,653507,0.0-76.0-0.48,FALSE,FALSE,FALSE,FALSE,"""event"",""trial"",""time""
""fullscreenenter"",""5"",""11372""
","
","
","""event"",""trial"",""time""
""fullscreenenter"",""5"",""11372""
","
",249.775000003865,NA,49,NA,NA,3000,1,NA,NA,images/earth.jpg,images/rocket1,images/rocket2,null,images/rocket2,NA,1,real,null,1,NA,NA,NA,sub111
d3-animate-choice,280,656215,0.0-76.0-1.48,FALSE,FALSE,FALSE,FALSE,"""event"",""trial"",""time""
""fullscreenenter"",""5"",""11372""
","
","
","""event"",""trial"",""time""
""fullscreenenter"",""5"",""11372""
","
",703.2550000003539,NA,49,NA,NA,3000,1,NA,NA,images/purpleplanet.jpg,images/alien4,images/alien3,images/rocket2,images/alien3,images/nothing.png,2,real,false,1,rare,0,2020-06-20T19:24:14Z,sub111
two-step-fixation,281,657221,0.0-76.0-2.48,FALSE,FALSE,FALSE,FALSE,"""event"",""trial"",""time""
""fullscreenenter"",""5"",""11372""
","
","
","""event"",""trial"",""time""
