trial_type,trial_index,time_elapsed,internal_node_id,rocket_sides,red_planet_first_rocket,red_display_order,purple_display_order,interactions,blur_events,focus_events,fullscreenenter_events,fullscreenexit_events,rt,stimulus,key_press,button_pressed,success,duration,valid_pressed,rts,keys,planet_text,right_text,left_text,center_text,chosen_text,reward_text,trial_stage,practice_trial,transition_type,choice,transition,reward,timestamp,subject_id
pavlovia,0,5,0.0-0.0,TRUE,TRUE,TRUE,FALSE,"
","
","
","
","
",NA,NA,NA,NA,NA,NA,NA,NA,NA,NA,NA,NA,NA,NA,NA,NA,NA,NA,NA,NA,NA,NA,sub56
html-keyboard-response,1,1169,0.0-1.0,TRUE,TRUE,TRUE,FALSE,"
","
","
","
","
",1162.5749999984691,Welcome! Press the space bar to begin.,32,NA,NA,NA,NA,NA,NA,NA,NA,NA,NA,NA,NA,NA,NA,NA,NA,NA,NA,NA,sub56
audio-keyboard-response,2,2985,0.0-2.0,TRUE,TRUE,TRUE,FALSE,"
","
","
","
","
",1701,audio/beep_loop.wav,32,NA,NA,NA,NA,NA,NA,NA,NA,NA,NA,NA,NA,NA,NA,NA,NA,NA,NA,NA,sub56
audio-button-response,3,5320,0.0-3.0,TRUE,TRUE,TRUE,FALSE,"
","
","
","
","
",NaN,audio/fish.mp3,NA,1,NA,NA,NA,NA,NA,NA,NA,NA,NA,NA,NA,NA,NA,NA,NA,NA,NA,NA,sub56
audio-button-response,4,7829,0.0-4.0,TRUE,TRUE,TRUE,FALSE,"""event"",""trial"",""time""
""fullscreenenter"",""5"",""10712""
","
","
","""event"",""trial"",""time""
""fullscreenenter"",""5"",""10712""
","
",NaN,audio/tiger.mp3,NA,4,NA,NA,NA,NA,NA,NA,NA,NA,NA,NA,NA,NA,NA,NA,NA,NA,NA,NA,sub56
fullscreen,5,11696,0.0-5.0,TRUE,TRUE,TRUE,FALSE,"""event"",""trial"",""time""
""fullscreenenter"",""5"",""10712""
","
","
","""event"",""trial"",""time""
""fullscreenenter"",""5"",""10712""
","
",NA,NA,NA,NA,TRUE,NA,NA,NA,NA,NA,NA,NA,NA,NA,NA,NA,NA,NA,NA,NA,NA,NA,sub56
d3-instructions,6,21642,0.0-6.0,TRUE,TRUE,TRUE,FALSE,"""event"",""trial"",""time""
""fullscreenenter"",""5"",""10712""
","
","
","""event"",""trial"",""time""
""fullscreenenter"",""5"",""10712""
","
",NA,NA,NA,NA,NA,NA,NA,NA,NA,NA,NA,NA,NA,NA,NA,NA,NA,NA,NA,NA,NA,NA,sub56
d3-instructions,7,31110,0.0-7.0,TRUE,TRUE,TRUE,FALSE,"""event"",""trial"",""time""
""fullscreenenter"",""5"",""10712""
","
","
","""event"",""trial"",""time""
""fullscreenenter"",""5"",""10712""
","
",NA,NA,NA,NA,NA,NA,NA,NA,NA,NA,NA,NA,NA,NA,NA,NA,NA,NA,NA,NA,NA,NA,sub56
d3-instructions,8,36991,0.0-8.0,TRUE,TRUE,TRUE,FALSE,"""event"",""trial"",""time""
""fullscreenenter"",""5"",""10712""
","
","
","""event"",""trial"",""time""
""fullscreenenter"",""5"",""10712""
","
",NA,NA,NA,NA,NA,NA,NA,NA,NA,NA,NA,NA,NA,NA,NA,NA,NA,NA,NA,NA,NA,NA,sub56
d3-instructions,9,43674,0.0-9.0,TRUE,TRUE,TRUE,FALSE,"""event"",""trial"",""time""
""fullscreenenter"",""5"",""10712""
","
","
","""event"",""trial"",""time""
""fullscreenenter"",""5"",""10712""
","
",NA,NA,NA,NA,NA,NA,NA,NA,NA,NA,NA,NA,NA,NA,NA,NA,NA,NA,NA,NA,NA,NA,sub56
d3-instructions,10,56283,0.0-10.0,TRUE,TRUE,TRUE,FALSE,"""event"",""trial"",""time""
""fullscreenenter"",""5"",""10712""
","
","
","""event"",""trial"",""time""
""fullscreenenter"",""5"",""10712""
","
",NA,NA,NA,NA,NA,NA,NA,NA,NA,NA,NA,NA,NA,NA,NA,NA,NA,NA,NA,NA,NA,NA,sub56
d3-animate-choice,11,59557,0.0-11.0,TRUE,TRUE,TRUE,FALSE,"""event"",""trial"",""time""
""fullscreenenter"",""5"",""10712""
","
","
","""event"",""trial"",""time""
""fullscreenenter"",""5"",""10712""
","
",1266.5200000010373,NA,49,NA,NA,3000,1,NA,NA,images/tutgreenplanet.jpg,images/tutalien1,images/tutalien2,null,images/tutalien2,NA,NA,practice,null,NA,NA,NA,NA,sub56
d3-animate-choice,12,61638,0.0-12.0,TRUE,TRUE,TRUE,FALSE,"""event"",""trial"",""time""
""fullscreenenter"",""5"",""10712""
","
","
","""event"",""trial"",""time""
""fullscreenenter"",""5"",""10712""
","
",78.18499999848427,NA,48,NA,NA,3000,1,NA,NA,images/tutgreenplanet.jpg,images/tutalien1,images/tutalien2,null,images/tutalien1,NA,NA,practice,null,NA,NA,NA,NA,sub56
d3-animate-choice,13,65393,0.0-13.0,TRUE,TRUE,TRUE,FALSE,"""event"",""trial"",""time""
""fullscreenenter"",""5"",""10712""
","
","
","""event"",""trial"",""time""
""fullscreenenter"",""5"",""10712""
","
",1752.4000000012165,NA,49,NA,NA,3000,1,NA,NA,images/tutgreenplanet.jpg,images/tutalien1,images/tutalien2,null,images/tutalien2,NA,NA,practice,null,NA,NA,NA,NA,sub56
d3-animate-choice,14,68399,0.0-14.0,TRUE,TRUE,TRUE,FALSE,"""event"",""trial"",""time""
""fullscreenenter"",""5"",""10712""
","
","
","""event"",""trial"",""time""
""fullscreenenter"",""5"",""10712""
","
",1001.8500000005588,NA,49,NA,NA,3000,1,NA,NA,images/tutgreenplanet.jpg,images/tutalien1,images/tutalien2,null,images/tutalien2,NA,NA,practice,null,NA,NA,NA,NA,sub56
d3-instructions,15,77162,0.0-15.0,TRUE,TRUE,TRUE,FALSE,"""event"",""trial"",""time""
""fullscreenenter"",""5"",""10712""
","
","
","""event"",""trial"",""time""
""fullscreenenter"",""5"",""10712""
","
",NA,NA,NA,NA,NA,NA,NA,NA,NA,NA,NA,NA,NA,NA,NA,NA,NA,NA,NA,NA,NA,NA,sub56
d3-instructions,16,81208,0.0-16.0,TRUE,TRUE,TRUE,FALSE,"""event"",""trial"",""time""
""fullscreenenter"",""5"",""10712""
","
","
","""event"",""trial"",""time""
""fullscreenenter"",""5"",""10712""
","
",NA,NA,NA,NA,NA,NA,NA,NA,NA,NA,NA,NA,NA,NA,NA,NA,NA,NA,NA,NA,NA,NA,sub56
d3-instructions,17,89988,0.0-17.0,TRUE,TRUE,TRUE,FALSE,"""event"",""trial"",""time""
""fullscreenenter"",""5"",""10712""
","
","
","""event"",""trial"",""time""
""fullscreenenter"",""5"",""10712""
","
",NA,NA,NA,NA,NA,NA,NA,NA,NA,NA,NA,NA,NA,NA,NA,NA,NA,NA,NA,NA,NA,NA,sub56
d3-instructions,18,98029,0.0-18.0,TRUE,TRUE,TRUE,FALSE,"""event"",""trial"",""time""
""fullscreenenter"",""5"",""10712""
","
","
","""event"",""trial"",""time""
""fullscreenenter"",""5"",""10712""
","
",NA,NA,NA,NA,NA,NA,NA,NA,NA,NA,NA,NA,NA,NA,NA,NA,NA,NA,NA,NA,NA,NA,sub56
d3-instructions,19,108418,0.0-19.0,TRUE,TRUE,TRUE,FALSE,"""event"",""trial"",""time""
""fullscreenenter"",""5"",""10712""
","
","
","""event"",""trial"",""time""
""fullscreenenter"",""5"",""10712""
","
",NA,NA,NA,NA,NA,NA,NA,NA,NA,NA,NA,NA,NA,NA,NA,NA,NA,NA,NA,NA,NA,NA,sub56
d3-animate-choice,20,110952,0.0-20.0,TRUE,TRUE,TRUE,FALSE,"""event"",""trial"",""time""
""fullscreenenter"",""5"",""10712""
","
","
","""event"",""trial"",""time""
""fullscreenenter"",""5"",""10712""
","
",530.0400000014633,NA,49,NA,NA,3000,1,NA,NA,images/tutyellowplanet.jpg,null,images/tutalien3,null,images/tutalien3,images/t.png,NA,practice,null,NA,NA,NA,NA,sub56
d3-animate-choice,21,113245,0.0-21.0,TRUE,TRUE,TRUE,FALSE,"""event"",""trial"",""time""
""fullscreenenter"",""5"",""10712""
","
","
","""event"",""trial"",""time""
""fullscreenenter"",""5"",""10712""
","
",289.6499999988009,NA,49,NA,NA,3000,1,NA,NA,images/tutyellowplanet.jpg,null,images/tutalien3,null,images/tutalien3,images/t.png,NA,practice,null,NA,NA,NA,NA,sub56
d3-animate-choice,22,115445,0.0-22.0,TRUE,TRUE,TRUE,FALSE,"""event"",""trial"",""time""
""fullscreenenter"",""5"",""10712""
","
","
","""event"",""trial"",""time""
""fullscreenenter"",""5"",""10712""
","
",197.56499999857624,NA,49,NA,NA,3000,1,"1627.584999998362,2023.5699999975623",4949,images/tutyellowplanet.jpg,null,images/tutalien3,null,images/tutalien3,images/t.png,NA,practice,null,NA,NA,NA,NA,sub56
d3-animate-choice,23,117500,0.0-23.0,TRUE,TRUE,TRUE,FALSE,"""event"",""trial"",""time""
""fullscreenenter"",""5"",""10712""
","
","
","""event"",""trial"",""time""
""fullscreenenter"",""5"",""10712""
","
",51.66999999710242,NA,49,NA,NA,3000,1,1447.6999999969848,49,images/tutyellowplanet.jpg,null,images/tutalien3,null,images/tutalien3,images/nothing.png,NA,practice,null,NA,NA,NA,NA,sub56
d3-animate-choice,24,119787,0.0-24.0,TRUE,TRUE,TRUE,FALSE,"""event"",""trial"",""time""
""fullscreenenter"",""5"",""10712""
","
","
","""event"",""trial"",""time""
""fullscreenenter"",""5"",""10712""
","
",284.61500000048545,NA,49,NA,NA,3000,1,1750.7599999989907,49,images/tutyellowplanet.jpg,null,images/tutalien3,null,images/tutalien3,images/t.png,NA,practice,null,NA,NA,NA,NA,sub56
d3-animate-choice,25,122037,0.0-25.0,TRUE,TRUE,TRUE,FALSE,"""event"",""trial"",""time""
""fullscreenenter"",""5"",""10712""
","
","
","""event"",""trial"",""time""
""fullscreenenter"",""5"",""10712""
","
",246.46500000017113,NA,49,NA,NA,3000,1,NA,NA,images/tutyellowplanet.jpg,null,images/tutalien3,null,images/tutalien3,images/t.png,NA,practice,null,NA,NA,NA,NA,sub56
d3-animate-choice,26,124361,0.0-26.0,TRUE,TRUE,TRUE,FALSE,"""event"",""trial"",""time""
""fullscreenenter"",""5"",""10712""
","
","
","""event"",""trial"",""time""
""fullscreenenter"",""5"",""10712""
","
",321.2099999982456,NA,49,NA,NA,3000,1,1796.474999999191,49,images/tutyellowplanet.jpg,null,images/tutalien3,null,images/tutalien3,images/t.png,NA,practice,null,NA,NA,NA,NA,sub56
d3-animate-choice,27,126670,0.0-27.0,TRUE,TRUE,TRUE,FALSE,"""event"",""trial"",""time""
""fullscreenenter"",""5"",""10712""
","
","
","""event"",""trial"",""time""
""fullscreenenter"",""5"",""10712""
","
",306.5599999972619,NA,49,NA,NA,3000,1,NA,NA,images/tutyellowplanet.jpg,null,images/tutalien3,null,images/tutalien3,images/t.png,NA,practice,null,NA,NA,NA,NA,sub56
d3-animate-choice,28,129009,0.0-28.0,TRUE,TRUE,TRUE,FALSE,"""event"",""trial"",""time""
""fullscreenenter"",""5"",""10712""
","
","
","""event"",""trial"",""time""
""fullscreenenter"",""5"",""10712""
","
",336.11999999993714,NA,49,NA,NA,3000,1,NA,NA,images/tutyellowplanet.jpg,null,images/tutalien3,null,images/tutalien3,images/nothing.png,NA,practice,null,NA,NA,NA,NA,sub56
d3-animate-choice,29,131250,0.0-29.0,TRUE,TRUE,TRUE,FALSE,"""event"",""trial"",""time""
""fullscreenenter"",""5"",""10712""
","
","
","""event"",""trial"",""time""
""fullscreenenter"",""5"",""10712""
","
",237.4999999992724,NA,49,NA,NA,3000,1,1731.5699999999197,49,images/tutyellowplanet.jpg,null,images/tutalien3,null,images/tutalien3,images/t.png,NA,practice,null,NA,NA,NA,NA,sub56
d3-instructions,30,133941,0.0-30.0,TRUE,TRUE,TRUE,FALSE,"""event"",""trial"",""time""
""fullscreenenter"",""5"",""10712""
","
","
","""event"",""trial"",""time""
""fullscreenenter"",""5"",""10712""
","
",NA,NA,NA,NA,NA,NA,NA,NA,NA,NA,NA,NA,NA,NA,NA,NA,NA,NA,NA,NA,NA,NA,sub56
d3-instructions,31,138609,0.0-31.0,TRUE,TRUE,TRUE,FALSE,"""event"",""trial"",""time""
""fullscreenenter"",""5"",""10712""
","
","
","""event"",""trial"",""time""
""fullscreenenter"",""5"",""10712""
","
",NA,NA,NA,NA,NA,NA,NA,NA,NA,NA,NA,NA,NA,NA,NA,NA,NA,NA,NA,NA,NA,NA,sub56
d3-instructions,32,141858,0.0-32.0,TRUE,TRUE,TRUE,FALSE,"""event"",""trial"",""time""
""fullscreenenter"",""5"",""10712""
","
","
","""event"",""trial"",""time""
""fullscreenenter"",""5"",""10712""
","
",NA,NA,NA,NA,NA,NA,NA,NA,NA,NA,NA,NA,NA,NA,NA,NA,NA,NA,NA,NA,NA,NA,sub56
d3-instructions,33,144131,0.0-33.0,TRUE,TRUE,TRUE,FALSE,"""event"",""trial"",""time""
""fullscreenenter"",""5"",""10712""
","
","
","""event"",""trial"",""time""
""fullscreenenter"",""5"",""10712""
","
",NA,NA,NA,NA,NA,NA,NA,NA,NA,NA,NA,NA,NA,NA,NA,NA,NA,NA,NA,NA,NA,NA,sub56
d3-animate-choice,34,147111,0.0-34.0,TRUE,TRUE,TRUE,FALSE,"""event"",""trial"",""time""
""fullscreenenter"",""5"",""10712""
","
","
","""event"",""trial"",""time""
""fullscreenenter"",""5"",""10712""
","
",976.5150000021094,NA,49,NA,NA,3000,1,NA,NA,images/tutgreenplanet.jpg,images/tutalien1,images/tutalien2,null,images/tutalien2,images/t.png,NA,practice,null,NA,NA,NA,NA,sub56
d3-animate-choice,35,149431,0.0-35.0,TRUE,TRUE,TRUE,FALSE,"""event"",""trial"",""time""
""fullscreenenter"",""5"",""10712""
","
","
","""event"",""trial"",""time""
""fullscreenenter"",""5"",""10712""
","
",317.22499999887077,NA,49,NA,NA,3000,1,NA,NA,images/tutgreenplanet.jpg,images/tutalien1,images/tutalien2,null,images/tutalien2,images/t.png,NA,practice,null,NA,NA,NA,NA,sub56
d3-animate-choice,36,151731,0.0-36.0,TRUE,TRUE,TRUE,FALSE,"""event"",""trial"",""time""
""fullscreenenter"",""5"",""10712""
","
","
","""event"",""trial"",""time""
""fullscreenenter"",""5"",""10712""
","
",297.11999999926775,NA,49,NA,NA,3000,1,NA,NA,images/tutgreenplanet.jpg,images/tutalien1,images/tutalien2,null,images/tutalien2,images/t.png,NA,practice,null,NA,NA,NA,NA,sub56
d3-animate-choice,37,153997,0.0-37.0,TRUE,TRUE,TRUE,FALSE,"""event"",""trial"",""time""
""fullscreenenter"",""5"",""10712""
","
","
","""event"",""trial"",""time""
""fullscreenenter"",""5"",""10712""
","
",262.47000000148546,NA,49,NA,NA,3000,1,NA,NA,images/tutgreenplanet.jpg,images/tutalien1,images/tutalien2,null,images/tutalien2,images/t.png,NA,practice,null,NA,NA,NA,NA,sub56
d3-animate-choice,38,156241,0.0-38.0,TRUE,TRUE,TRUE,FALSE,"""event"",""trial"",""time""
""fullscreenenter"",""5"",""10712""
","
","
","""event"",""trial"",""time""
""fullscreenenter"",""5"",""10712""
","
",241.6799999991781,NA,49,NA,NA,3000,1,NA,NA,images/tutgreenplanet.jpg,images/tutalien1,images/tutalien2,null,images/tutalien2,images/t.png,NA,practice,null,NA,NA,NA,NA,sub56
d3-animate-choice,39,158466,0.0-39.0,TRUE,TRUE,TRUE,FALSE,"""event"",""trial"",""time""
""fullscreenenter"",""5"",""10712""
","
","
","""event"",""trial"",""time""
""fullscreenenter"",""5"",""10712""
","
",221.3549999978568,NA,49,NA,NA,3000,1,NA,NA,images/tutgreenplanet.jpg,images/tutalien1,images/tutalien2,null,images/tutalien2,images/t.png,NA,practice,null,NA,NA,NA,NA,sub56
d3-animate-choice,40,160697,0.0-40.0,TRUE,TRUE,TRUE,FALSE,"""event"",""trial"",""time""
""fullscreenenter"",""5"",""10712""
","
","
","""event"",""trial"",""time""
""fullscreenenter"",""5"",""10712""
","
",228.23999999673106,NA,49,NA,NA,3000,1,NA,NA,images/tutgreenplanet.jpg,images/tutalien1,images/tutalien2,null,images/tutalien2,images/t.png,NA,practice,null,NA,NA,NA,NA,sub56
d3-animate-choice,41,162945,0.0-41.0,TRUE,TRUE,TRUE,FALSE,"""event"",""trial"",""time""
""fullscreenenter"",""5"",""10712""
","
","
","""event"",""trial"",""time""
""fullscreenenter"",""5"",""10712""
","
",244.07000000064727,NA,49,NA,NA,3000,1,NA,NA,images/tutgreenplanet.jpg,images/tutalien1,images/tutalien2,null,images/tutalien2,images/t.png,NA,practice,null,NA,NA,NA,NA,sub56
d3-animate-choice,42,165058,0.0-42.0,TRUE,TRUE,TRUE,FALSE,"""event"",""trial"",""time""
""fullscreenenter"",""5"",""10712""
","
","
","""event"",""trial"",""time""
""fullscreenenter"",""5"",""10712""
","
",109.25499999939348,NA,49,NA,NA,3000,1,NA,NA,images/tutgreenplanet.jpg,images/tutalien1,images/tutalien2,null,images/tutalien2,images/nothing.png,NA,practice,null,NA,NA,NA,NA,sub56
d3-animate-choice,43,167304,0.0-43.0,TRUE,TRUE,TRUE,FALSE,"""event"",""trial"",""time""
""fullscreenenter"",""5"",""10712""
","
","
","""event"",""trial"",""time""
""fullscreenenter"",""5"",""10712""
","
",244.07000000064727,NA,49,NA,NA,3000,1,NA,NA,images/tutgreenplanet.jpg,images/tutalien1,images/tutalien2,null,images/tutalien2,images/t.png,NA,practice,null,NA,NA,NA,NA,sub56
d3-instructions,44,176360,0.0-44.0,TRUE,TRUE,TRUE,FALSE,"""event"",""trial"",""time""
""fullscreenenter"",""5"",""10712""
","
","
","""event"",""trial"",""time""
""fullscreenenter"",""5"",""10712""
","
",NA,NA,NA,NA,NA,NA,NA,NA,NA,NA,NA,NA,NA,NA,NA,NA,NA,NA,NA,NA,NA,NA,sub56
d3-instructions,45,182943,0.0-45.0,TRUE,TRUE,TRUE,FALSE,"""event"",""trial"",""time""
""fullscreenenter"",""5"",""10712""
","
","
","""event"",""trial"",""time""
""fullscreenenter"",""5"",""10712""
","
",NA,NA,NA,NA,NA,NA,NA,NA,NA,NA,NA,NA,NA,NA,NA,NA,NA,NA,NA,NA,NA,NA,sub56
d3-instructions,46,185204,0.0-46.0,TRUE,TRUE,TRUE,FALSE,"""event"",""trial"",""time""
""fullscreenenter"",""5"",""10712""
","
","
","""event"",""trial"",""time""
""fullscreenenter"",""5"",""10712""
","
",NA,NA,NA,NA,NA,NA,NA,NA,NA,NA,NA,NA,NA,NA,NA,NA,NA,NA,NA,NA,NA,NA,sub56
d3-instructions,47,200978,0.0-47.0,TRUE,TRUE,TRUE,FALSE,"""event"",""trial"",""time""
""fullscreenenter"",""5"",""10712""
","
","
","""event"",""trial"",""time""
""fullscreenenter"",""5"",""10712""
","
",NA,NA,NA,NA,NA,NA,NA,NA,NA,NA,NA,NA,NA,NA,NA,NA,NA,NA,NA,NA,NA,NA,sub56
d3-instructions,48,207012,0.0-48.0,TRUE,TRUE,TRUE,FALSE,"""event"",""trial"",""time""
""fullscreenenter"",""5"",""10712""
","
","
","""event"",""trial"",""time""
""fullscreenenter"",""5"",""10712""
","
",NA,NA,NA,NA,NA,NA,NA,NA,NA,NA,NA,NA,NA,NA,NA,NA,NA,NA,NA,NA,NA,NA,sub56
d3-instructions,49,213062,0.0-49.0,TRUE,TRUE,TRUE,FALSE,"""event"",""trial"",""time""
""fullscreenenter"",""5"",""10712""
","
","
","""event"",""trial"",""time""
""fullscreenenter"",""5"",""10712""
","
",NA,NA,NA,NA,NA,NA,NA,NA,NA,NA,NA,NA,NA,NA,NA,NA,NA,NA,NA,NA,NA,NA,sub56
d3-instructions,50,215374,0.0-50.0,TRUE,TRUE,TRUE,FALSE,"""event"",""trial"",""time""
""fullscreenenter"",""5"",""10712""
","
","
","""event"",""trial"",""time""
""fullscreenenter"",""5"",""10712""
","
",NA,NA,NA,NA,NA,NA,NA,NA,NA,NA,NA,NA,NA,NA,NA,NA,NA,NA,NA,NA,NA,NA,sub56
d3-instructions,51,218112,0.0-51.0,TRUE,TRUE,TRUE,FALSE,"""event"",""trial"",""time""
""fullscreenenter"",""5"",""10712""
","
","
","""event"",""trial"",""time""
""fullscreenenter"",""5"",""10712""
","
",NA,NA,NA,NA,NA,NA,NA,NA,NA,NA,NA,NA,NA,NA,NA,NA,NA,NA,NA,NA,NA,NA,sub56
d3-instructions,52,219071,0.0-52.0,TRUE,TRUE,TRUE,FALSE,"""event"",""trial"",""time""
""fullscreenenter"",""5"",""10712""
","
","
","""event"",""trial"",""time""
""fullscreenenter"",""5"",""10712""
","
",NA,NA,NA,NA,NA,NA,NA,NA,NA,NA,NA,NA,NA,NA,NA,NA,NA,NA,NA,NA,NA,NA,sub56
d3-instructions,53,225242,0.0-53.0,TRUE,TRUE,TRUE,FALSE,"""event"",""trial"",""time""
""fullscreenenter"",""5"",""10712""
","
","
","""event"",""trial"",""time""
""fullscreenenter"",""5"",""10712""
","
",NA,NA,NA,NA,NA,NA,NA,NA,NA,NA,NA,NA,NA,NA,NA,NA,NA,NA,NA,NA,NA,NA,sub56
d3-instructions,54,232589,0.0-54.0,TRUE,TRUE,TRUE,FALSE,"""event"",""trial"",""time""
""fullscreenenter"",""5"",""10712""
","
","
","""event"",""trial"",""time""
""fullscreenenter"",""5"",""10712""
","
",NA,NA,NA,NA,NA,NA,NA,NA,NA,NA,NA,NA,NA,NA,NA,NA,NA,NA,NA,NA,NA,NA,sub56
d3-instructions,55,236672,0.0-55.0,TRUE,TRUE,TRUE,FALSE,"""event"",""trial"",""time""
""fullscreenenter"",""5"",""10712""
","
","
","""event"",""trial"",""time""
""fullscreenenter"",""5"",""10712""
","
",NA,NA,NA,NA,NA,NA,NA,NA,NA,NA,NA,NA,NA,NA,NA,NA,NA,NA,NA,NA,NA,NA,sub56
d3-instructions,56,244772,0.0-56.0,TRUE,TRUE,TRUE,FALSE,"""event"",""trial"",""time""
""fullscreenenter"",""5"",""10712""
","
","
","""event"",""trial"",""time""
""fullscreenenter"",""5"",""10712""
","
",NA,NA,NA,NA,NA,NA,NA,NA,NA,NA,NA,NA,NA,NA,NA,NA,NA,NA,NA,NA,NA,NA,sub56
d3-instructions,57,252532,0.0-57.0,TRUE,TRUE,TRUE,FALSE,"""event"",""trial"",""time""
""fullscreenenter"",""5"",""10712""
","
","
","""event"",""trial"",""time""
""fullscreenenter"",""5"",""10712""
","
",NA,NA,NA,NA,NA,NA,NA,NA,NA,NA,NA,NA,NA,NA,NA,NA,NA,NA,NA,NA,NA,NA,sub56
d3-instructions,58,257378,0.0-58.0,TRUE,TRUE,TRUE,FALSE,"""event"",""trial"",""time""
""fullscreenenter"",""5"",""10712""
","
","
","""event"",""trial"",""time""
""fullscreenenter"",""5"",""10712""
","
",NA,NA,NA,NA,NA,NA,NA,NA,NA,NA,NA,NA,NA,NA,NA,NA,NA,NA,NA,NA,NA,NA,sub56
d3-instructions,59,260046,0.0-59.0,TRUE,TRUE,TRUE,FALSE,"""event"",""trial"",""time""
""fullscreenenter"",""5"",""10712""
","
","
","""event"",""trial"",""time""
""fullscreenenter"",""5"",""10712""
","
",NA,NA,NA,NA,NA,NA,NA,NA,NA,NA,NA,NA,NA,NA,NA,NA,NA,NA,NA,NA,NA,NA,sub56
d3-instructions,60,261417,0.0-60.0,TRUE,TRUE,TRUE,FALSE,"""event"",""trial"",""time""
""fullscreenenter"",""5"",""10712""
","
","
","""event"",""trial"",""time""
""fullscreenenter"",""5"",""10712""
","
",NA,NA,NA,NA,NA,NA,NA,NA,NA,NA,NA,NA,NA,NA,NA,NA,NA,NA,NA,NA,NA,NA,sub56
d3-animate-choice,61,264356,0.0-61.0-0.0,TRUE,TRUE,TRUE,FALSE,"""event"",""trial"",""time""
""fullscreenenter"",""5"",""10712""
","
","
","""event"",""trial"",""time""
""fullscreenenter"",""5"",""10712""
","
",934.5350000002654,NA,49,NA,NA,3000,1,NA,NA,images/earth.jpg,images/tutrocket2,images/tutrocket1,null,images/tutrocket1,NA,1,practice,null,1,NA,NA,NA,sub56
d3-animate-choice,62,267616,0.0-61.0-1.0,TRUE,TRUE,TRUE,FALSE,"""event"",""trial"",""time""
""fullscreenenter"",""5"",""10712""
","
","
","""event"",""trial"",""time""
""fullscreenenter"",""5"",""10712""
","
",1255.059999999532,NA,49,NA,NA,3000,1,NA,NA,images/tutgreenplanet.jpg,images/tutalien2,images/tutalien1,images/tutrocket1,images/tutalien1,images/nothing.png,2,practice,true,1,common,0,2020-06-15T22:21:17Z,sub56
two-step-fixation,63,268620,0.0-61.0-2.0,TRUE,TRUE,TRUE,FALSE,"""event"",""trial"",""time""
""fullscreenenter"",""5"",""10712""
","
","
","""event"",""trial"",""time""
""fullscreenenter"",""5"",""10712""
","
",NA,images/earth.jpg,NA,NA,NA,NA,NA,NA,NA,NA,NA,NA,NA,NA,NA,fixation,NA,NA,NA,NA,NA,NA,sub56
d3-animate-choice,64,272001,0.0-61.0-0.1,TRUE,TRUE,TRUE,FALSE,"""event"",""trial"",""time""
""fullscreenenter"",""5"",""10712""
","
","
","""event"",""trial"",""time""
""fullscreenenter"",""5"",""10712""
","
",1378.0899999983376,NA,49,NA,NA,3000,1,NA,NA,images/earth.jpg,images/tutrocket2,images/tutrocket1,null,images/tutrocket1,NA,1,practice,null,1,NA,NA,NA,sub56
d3-animate-choice,65,274933,0.0-61.0-1.1,TRUE,TRUE,TRUE,FALSE,"""event"",""trial"",""time""
""fullscreenenter"",""5"",""10712""
","
","
","""event"",""trial"",""time""
""fullscreenenter"",""5"",""10712""
","
",927.9050000004354,NA,49,NA,NA,3000,1,NA,NA,images/tutyellowplanet.jpg,images/tutalien4,images/tutalien3,images/tutrocket1,images/tutalien3,images/nothing.png,2,practice,false,1,rare,0,2020-06-15T22:21:25Z,sub56
two-step-fixation,66,275936,0.0-61.0-2.1,TRUE,TRUE,TRUE,FALSE,"""event"",""trial"",""time""
""fullscreenenter"",""5"",""10712""
","
","
","""event"",""trial"",""time""
""fullscreenenter"",""5"",""10712""
","
",NA,images/earth.jpg,NA,NA,NA,NA,NA,NA,NA,NA,NA,NA,NA,NA,NA,fixation,NA,NA,NA,NA,NA,NA,sub56
d3-animate-choice,67,278245,0.0-61.0-0.2,TRUE,TRUE,TRUE,FALSE,"""event"",""trial"",""time""
""fullscreenenter"",""5"",""10712""
","
","
","""event"",""trial"",""time""
""fullscreenenter"",""5"",""10712""
","
",305.7650000010035,NA,49,NA,NA,3000,1,NA,NA,images/earth.jpg,images/tutrocket2,images/tutrocket1,null,images/tutrocket1,NA,1,practice,null,1,NA,NA,NA,sub56
d3-animate-choice,68,280765,0.0-61.0-1.2,TRUE,TRUE,TRUE,FALSE,"""event"",""trial"",""time""
""fullscreenenter"",""5"",""10712""
","
","
","""event"",""trial"",""time""
""fullscreenenter"",""5"",""10712""
","
",516.7599999986123,NA,49,NA,NA,3000,1,NA,NA,images/tutgreenplanet.jpg,images/tutalien2,images/tutalien1,images/tutrocket1,images/tutalien1,images/t.png,2,practice,true,1,common,1,2020-06-15T22:21:31Z,sub56
two-step-fixation,69,281769,0.0-61.0-2.2,TRUE,TRUE,TRUE,FALSE,"""event"",""trial"",""time""
""fullscreenenter"",""5"",""10712""
","
","
","""event"",""trial"",""time""
""fullscreenenter"",""5"",""10712""
","
",NA,images/earth.jpg,NA,NA,NA,NA,NA,NA,NA,NA,NA,NA,NA,NA,NA,fixation,NA,NA,NA,NA,NA,NA,sub56
d3-animate-choice,70,284270,0.0-61.0-0.3,TRUE,TRUE,TRUE,FALSE,"""event"",""trial"",""time""
""fullscreenenter"",""5"",""10712""
","
","
","""event"",""trial"",""time""
""fullscreenenter"",""5"",""10712""
","
",496.790000001085,NA,49,NA,NA,3000,1,NA,NA,images/earth.jpg,images/tutrocket2,images/tutrocket1,null,images/tutrocket1,NA,1,practice,null,1,NA,NA,NA,sub56
d3-animate-choice,71,287004,0.0-61.0-1.3,TRUE,TRUE,TRUE,FALSE,"""event"",""trial"",""time""
""fullscreenenter"",""5"",""10712""
","
","
","""event"",""trial"",""time""
""fullscreenenter"",""5"",""10712""
","
",731.0249999972875,NA,49,NA,NA,3000,1,NA,NA,images/tutgreenplanet.jpg,images/tutalien2,images/tutalien1,images/tutrocket1,images/tutalien1,images/t.png,2,practice,true,1,common,1,2020-06-15T22:21:37Z,sub56
two-step-fixation,72,288008,0.0-61.0-2.3,TRUE,TRUE,TRUE,FALSE,"""event"",""trial"",""time""
""fullscreenenter"",""5"",""10712""
","
","
","""event"",""trial"",""time""
""fullscreenenter"",""5"",""10712""
","
",NA,images/earth.jpg,NA,NA,NA,NA,NA,NA,NA,NA,NA,NA,NA,NA,NA,fixation,NA,NA,NA,NA,NA,NA,sub56
d3-animate-choice,73,290328,0.0-61.0-0.4,TRUE,TRUE,TRUE,FALSE,"""event"",""trial"",""time""
""fullscreenenter"",""5"",""10712""
","
","
","""event"",""trial"",""time""
""fullscreenenter"",""5"",""10712""
","
",316.7350000003353,NA,49,NA,NA,3000,1,NA,NA,images/earth.jpg,images/tutrocket2,images/tutrocket1,null,images/tutrocket1,NA,1,practice,null,1,NA,NA,NA,sub56
d3-animate-choice,74,292769,0.0-61.0-1.4,TRUE,TRUE,TRUE,FALSE,"""event"",""trial"",""time""
""fullscreenenter"",""5"",""10712""
","
","
","""event"",""trial"",""time""
""fullscreenenter"",""5"",""10712""
","
",436.20500000182074,NA,49,NA,NA,3000,1,NA,NA,images/tutgreenplanet.jpg,images/tutalien2,images/tutalien1,images/tutrocket1,images/tutalien1,images/nothing.png,2,practice,true,1,common,0,2020-06-15T22:21:43Z,sub56
two-step-fixation,75,293772,0.0-61.0-2.4,TRUE,TRUE,TRUE,FALSE,"""event"",""trial"",""time""
""fullscreenenter"",""5"",""10712""
","
","
","""event"",""trial"",""time""
""fullscreenenter"",""5"",""10712""
","
",NA,images/earth.jpg,NA,NA,NA,NA,NA,NA,NA,NA,NA,NA,NA,NA,NA,fixation,NA,NA,NA,NA,NA,NA,sub56
d3-animate-choice,76,295935,0.0-61.0-0.5,TRUE,TRUE,TRUE,FALSE,"""event"",""trial"",""time""
""fullscreenenter"",""5"",""10712""
","
","
","""event"",""trial"",""time""
""fullscreenenter"",""5"",""10712""
","
",159.7750000000815,NA,49,NA,NA,3000,1,NA,NA,images/earth.jpg,images/tutrocket2,images/tutrocket1,null,images/tutrocket1,NA,1,practice,null,1,NA,NA,NA,sub56
d3-animate-choice,77,298485,0.0-61.0-1.5,TRUE,TRUE,TRUE,FALSE,"""event"",""trial"",""time""
""fullscreenenter"",""5"",""10712""
","
","
","""event"",""trial"",""time""
""fullscreenenter"",""5"",""10712""
","
",547.7299999984098,NA,49,NA,NA,3000,1,NA,NA,images/tutgreenplanet.jpg,images/tutalien2,images/tutalien1,images/tutrocket1,images/tutalien1,images/nothing.png,2,practice,true,1,common,0,2020-06-15T22:21:48Z,sub56
two-step-fixation,78,299487,0.0-61.0-2.5,TRUE,TRUE,TRUE,FALSE,"""event"",""trial"",""time""
""fullscreenenter"",""5"",""10712""
","
","
","""event"",""trial"",""time""
""fullscreenenter"",""5"",""10712""
","
",NA,images/earth.jpg,NA,NA,NA,NA,NA,NA,NA,NA,NA,NA,NA,NA,NA,fixation,NA,NA,NA,NA,NA,NA,sub56
d3-animate-choice,79,301779,0.0-61.0-0.6,TRUE,TRUE,TRUE,FALSE,"""event"",""trial"",""time""
""fullscreenenter"",""5"",""10712""
","
","
","""event"",""trial"",""time""
""fullscreenenter"",""5"",""10712""
","
",289.58500000229105,NA,49,NA,NA,3000,1,NA,NA,images/earth.jpg,images/tutrocket2,images/tutrocket1,null,images/tutrocket1,NA,1,practice,null,1,NA,NA,NA,sub56
d3-animate-choice,80,304959,0.0-61.0-1.6,TRUE,TRUE,TRUE,FALSE,"""event"",""trial"",""time""
""fullscreenenter"",""5"",""10712""
","
","
","""event"",""trial"",""time""
""fullscreenenter"",""5"",""10712""
","
",1176.6400000015274,NA,48,NA,NA,3000,1,NA,NA,images/tutyellowplanet.jpg,images/tutalien4,images/tutalien3,images/tutrocket1,images/tutalien4,images/nothing.png,2,practice,false,2,rare,0,2020-06-15T22:21:55Z,sub56
two-step-fixation,81,305962,0.0-61.0-2.6,TRUE,TRUE,TRUE,FALSE,"""event"",""trial"",""time""
""fullscreenenter"",""5"",""10712""
","
","
","""event"",""trial"",""time""
""fullscreenenter"",""5"",""10712""
","
",NA,images/earth.jpg,NA,NA,NA,NA,NA,NA,NA,NA,NA,NA,NA,NA,NA,fixation,NA,NA,NA,NA,NA,NA,sub56
d3-animate-choice,82,308222,0.0-61.0-0.7,TRUE,TRUE,TRUE,FALSE,"""event"",""trial"",""time""
""fullscreenenter"",""5"",""10712""
","
","
","""event"",""trial"",""time""
""fullscreenenter"",""5"",""10712""
","
",257.5600000018603,NA,49,NA,NA,3000,1,NA,NA,images/earth.jpg,images/tutrocket2,images/tutrocket1,null,images/tutrocket1,NA,1,practice,null,1,NA,NA,NA,sub56
d3-animate-choice,83,311192,0.0-61.0-1.7,TRUE,TRUE,TRUE,FALSE,"""event"",""trial"",""time""
""fullscreenenter"",""5"",""10712""
","
","
","""event"",""trial"",""time""
""fullscreenenter"",""5"",""10712""
","
",966.7900000022491,NA,49,NA,NA,3000,1,NA,NA,images/tutgreenplanet.jpg,images/tutalien2,images/tutalien1,images/tutrocket1,images/tutalien1,images/nothing.png,2,practice,true,1,common,0,2020-06-15T22:22:01Z,sub56
two-step-fixation,84,312195,0.0-61.0-2.7,TRUE,TRUE,TRUE,FALSE,"""event"",""trial"",""time""
""fullscreenenter"",""5"",""10712""
","
","
","""event"",""trial"",""time""
""fullscreenenter"",""5"",""10712""
","
",NA,images/earth.jpg,NA,NA,NA,NA,NA,NA,NA,NA,NA,NA,NA,NA,NA,fixation,NA,NA,NA,NA,NA,NA,sub56
d3-animate-choice,85,314504,0.0-61.0-0.8,TRUE,TRUE,TRUE,FALSE,"""event"",""trial"",""time""
""fullscreenenter"",""5"",""10712""
","
","
","""event"",""trial"",""time""
""fullscreenenter"",""5"",""10712""
","
",305.51500000001397,NA,49,NA,NA,3000,1,NA,NA,images/earth.jpg,images/tutrocket2,images/tutrocket1,null,images/tutrocket1,NA,1,practice,null,1,NA,NA,NA,sub56
d3-animate-choice,86,316897,0.0-61.0-1.8,TRUE,TRUE,TRUE,FALSE,"""event"",""trial"",""time""
""fullscreenenter"",""5"",""10712""
","
","
","""event"",""trial"",""time""
""fullscreenenter"",""5"",""10712""
","
",389.67000000044936,NA,48,NA,NA,3000,1,NA,NA,images/tutgreenplanet.jpg,images/tutalien2,images/tutalien1,images/tutrocket1,images/tutalien2,images/nothing.png,2,practice,true,2,common,0,2020-06-15T22:22:07Z,sub56
two-step-fixation,87,317900,0.0-61.0-2.8,TRUE,TRUE,TRUE,FALSE,"""event"",""trial"",""time""
""fullscreenenter"",""5"",""10712""
","
","
","""event"",""trial"",""time""
""fullscreenenter"",""5"",""10712""
","
",NA,images/earth.jpg,NA,NA,NA,NA,NA,NA,NA,NA,NA,NA,NA,NA,NA,fixation,NA,NA,NA,NA,NA,NA,sub56
d3-animate-choice,88,320268,0.0-61.0-0.9,TRUE,TRUE,TRUE,FALSE,"""event"",""trial"",""time""
""fullscreenenter"",""5"",""10712""
","
","
","""event"",""trial"",""time""
""fullscreenenter"",""5"",""10712""
","
",365.51999999943655,NA,48,NA,NA,3000,1,NA,NA,images/earth.jpg,images/tutrocket2,images/tutrocket1,null,images/tutrocket2,NA,1,practice,null,2,NA,NA,NA,sub56
d3-animate-choice,89,323449,0.0-61.0-1.9,TRUE,TRUE,TRUE,FALSE,"""event"",""trial"",""time""
""fullscreenenter"",""5"",""10712""
","
","
","""event"",""trial"",""time""
""fullscreenenter"",""5"",""10712""
","
",1177.5400000005611,NA,49,NA,NA,3000,1,NA,NA,images/tutyellowplanet.jpg,images/tutalien4,images/tutalien3,images/tutrocket2,images/tutalien3,images/nothing.png,2,practice,true,1,common,0,2020-06-15T22:22:13Z,sub56
two-step-fixation,90,324452,0.0-61.0-2.9,TRUE,TRUE,TRUE,FALSE,"""event"",""trial"",""time""
""fullscreenenter"",""5"",""10712""
","
","
","""event"",""trial"",""time""
""fullscreenenter"",""5"",""10712""
","
",NA,images/earth.jpg,NA,NA,NA,NA,NA,NA,NA,NA,NA,NA,NA,NA,NA,fixation,NA,NA,NA,NA,NA,NA,sub56
d3-animate-choice,91,326988,0.0-61.0-0.10,TRUE,TRUE,TRUE,FALSE,"""event"",""trial"",""time""
""fullscreenenter"",""5"",""10712""
","
","
","""event"",""trial"",""time""
""fullscreenenter"",""5"",""10712""
","
",532.3750000025029,NA,48,NA,NA,3000,1,NA,NA,images/earth.jpg,images/tutrocket2,images/tutrocket1,null,images/tutrocket2,NA,1,practice,null,2,NA,NA,NA,sub56
d3-animate-choice,92,330423,0.0-61.0-1.10,TRUE,TRUE,TRUE,FALSE,"""event"",""trial"",""time""
""fullscreenenter"",""5"",""10712""
","
","
","""event"",""trial"",""time""
""fullscreenenter"",""5"",""10712""
","
",1432.1799999998184,NA,49,NA,NA,3000,1,NA,NA,images/tutgreenplanet.jpg,images/tutalien2,images/tutalien1,images/tutrocket2,images/tutalien1,images/t.png,2,practice,false,1,rare,1,2020-06-15T22:22:20Z,sub56
two-step-fixation,93,331426,0.0-61.0-2.10,TRUE,TRUE,TRUE,FALSE,"""event"",""trial"",""time""
""fullscreenenter"",""5"",""10712""
","
","
","""event"",""trial"",""time""
""fullscreenenter"",""5"",""10712""
","
",NA,images/earth.jpg,NA,NA,NA,NA,NA,NA,NA,NA,NA,NA,NA,NA,NA,fixation,NA,NA,NA,NA,NA,NA,sub56
d3-animate-choice,94,333925,0.0-61.0-0.11,TRUE,TRUE,TRUE,FALSE,"""event"",""trial"",""time""
""fullscreenenter"",""5"",""10712""
","
","
","""event"",""trial"",""time""
""fullscreenenter"",""5"",""10712""
","
",495.5049999989569,NA,49,NA,NA,3000,1,NA,NA,images/earth.jpg,images/tutrocket2,images/tutrocket1,null,images/tutrocket1,NA,1,practice,null,1,NA,NA,NA,sub56
d3-animate-choice,95,337104,0.0-61.0-1.11,TRUE,TRUE,TRUE,FALSE,"""event"",""trial"",""time""
""fullscreenenter"",""5"",""10712""
","
","
","""event"",""trial"",""time""
""fullscreenenter"",""5"",""10712""
","
",1175.0000000029104,NA,48,NA,NA,3000,1,NA,NA,images/tutyellowplanet.jpg,images/tutalien4,images/tutalien3,images/tutrocket1,images/tutalien4,images/t.png,2,practice,false,2,rare,1,2020-06-15T22:22:27Z,sub56
two-step-fixation,96,338107,0.0-61.0-2.11,TRUE,TRUE,TRUE,FALSE,"""event"",""trial"",""time""
""fullscreenenter"",""5"",""10712""
","
","
","""event"",""trial"",""time""
""fullscreenenter"",""5"",""10712""
","
",NA,images/earth.jpg,NA,NA,NA,NA,NA,NA,NA,NA,NA,NA,NA,NA,NA,fixation,NA,NA,NA,NA,NA,NA,sub56
d3-animate-choice,97,340483,0.0-61.0-0.12,TRUE,TRUE,TRUE,FALSE,"""event"",""trial"",""time""
""fullscreenenter"",""5"",""10712""
","
","
","""event"",""trial"",""time""
""fullscreenenter"",""5"",""10712""
","
",373.2350000027218,NA,49,NA,NA,3000,1,NA,NA,images/earth.jpg,images/tutrocket2,images/tutrocket1,null,images/tutrocket1,NA,1,practice,null,1,NA,NA,NA,sub56
d3-animate-choice,98,343120,0.0-61.0-1.12,TRUE,TRUE,TRUE,FALSE,"""event"",""trial"",""time""
""fullscreenenter"",""5"",""10712""
","
","
","""event"",""trial"",""time""
""fullscreenenter"",""5"",""10712""
","
",633.9950000001118,NA,49,NA,NA,3000,1,NA,NA,images/tutgreenplanet.jpg,images/tutalien2,images/tutalien1,images/tutrocket1,images/tutalien1,images/t.png,2,practice,true,1,common,1,2020-06-15T22:22:33Z,sub56
two-step-fixation,99,344123,0.0-61.0-2.12,TRUE,TRUE,TRUE,FALSE,"""event"",""trial"",""time""
""fullscreenenter"",""5"",""10712""
","
","
","""event"",""trial"",""time""
""fullscreenenter"",""5"",""10712""
","
",NA,images/earth.jpg,NA,NA,NA,NA,NA,NA,NA,NA,NA,NA,NA,NA,NA,fixation,NA,NA,NA,NA,NA,NA,sub56
d3-animate-choice,100,346600,0.0-61.0-0.13,TRUE,TRUE,TRUE,FALSE,"""event"",""trial"",""time""
""fullscreenenter"",""5"",""10712""
","
","
","""event"",""trial"",""time""
""fullscreenenter"",""5"",""10712""
","
",474.255000000936,NA,49,NA,NA,3000,1,NA,NA,images/earth.jpg,images/tutrocket2,images/tutrocket1,null,images/tutrocket1,NA,1,practice,null,1,NA,NA,NA,sub56
d3-animate-choice,101,348959,0.0-61.0-1.13,TRUE,TRUE,TRUE,FALSE,"""event"",""trial"",""time""
""fullscreenenter"",""5"",""10712""
","
","
","""event"",""trial"",""time""
""fullscreenenter"",""5"",""10712""
","
",356.4399999995949,NA,49,NA,NA,3000,1,NA,NA,images/tutgreenplanet.jpg,images/tutalien2,images/tutalien1,images/tutrocket1,images/tutalien1,images/t.png,2,practice,true,1,common,1,2020-06-15T22:22:39Z,sub56
two-step-fixation,102,349963,0.0-61.0-2.13,TRUE,TRUE,TRUE,FALSE,"""event"",""trial"",""time""
""fullscreenenter"",""5"",""10712""
","
","
","""event"",""trial"",""time""
""fullscreenenter"",""5"",""10712""
","
",NA,images/earth.jpg,NA,NA,NA,NA,NA,NA,NA,NA,NA,NA,NA,NA,NA,fixation,NA,NA,NA,NA,NA,NA,sub56
d3-animate-choice,103,352260,0.0-61.0-0.14,TRUE,TRUE,TRUE,FALSE,"""event"",""trial"",""time""
""fullscreenenter"",""5"",""10712""
","
","
","""event"",""trial"",""time""
""fullscreenenter"",""5"",""10712""
","
",294.07999999966705,NA,48,NA,NA,3000,1,NA,NA,images/earth.jpg,images/tutrocket2,images/tutrocket1,null,images/tutrocket2,NA,1,practice,null,2,NA,NA,NA,sub56
d3-animate-choice,104,354617,0.0-61.0-1.14,TRUE,TRUE,TRUE,FALSE,"""event"",""trial"",""time""
""fullscreenenter"",""5"",""10712""
","
","
","""event"",""trial"",""time""
""fullscreenenter"",""5"",""10712""
","
",354.20499999960884,NA,48,NA,NA,3000,1,NA,NA,images/tutyellowplanet.jpg,images/tutalien4,images/tutalien3,images/tutrocket2,images/tutalien4,images/t.png,2,practice,true,2,common,1,2020-06-15T22:22:44Z,sub56
two-step-fixation,105,355619,0.0-61.0-2.14,TRUE,TRUE,TRUE,FALSE,"""event"",""trial"",""time""
""fullscreenenter"",""5"",""10712""
","
","
","""event"",""trial"",""time""
""fullscreenenter"",""5"",""10712""
","
",NA,images/earth.jpg,NA,NA,NA,NA,NA,NA,NA,NA,NA,NA,NA,NA,NA,fixation,NA,NA,NA,NA,NA,NA,sub56
d3-animate-choice,106,357853,0.0-61.0-0.15,TRUE,TRUE,TRUE,FALSE,"""event"",""trial"",""time""
""fullscreenenter"",""5"",""10712""
","
","
","""event"",""trial"",""time""
""fullscreenenter"",""5"",""10712""
","
",230.4199999998673,NA,48,NA,NA,3000,1,NA,NA,images/earth.jpg,images/tutrocket2,images/tutrocket1,null,images/tutrocket2,NA,1,practice,null,2,NA,NA,NA,sub56
d3-animate-choice,107,360264,0.0-61.0-1.15,TRUE,TRUE,TRUE,FALSE,"""event"",""trial"",""time""
""fullscreenenter"",""5"",""10712""
","
","
","""event"",""trial"",""time""
""fullscreenenter"",""5"",""10712""
","
",408.3599999976577,NA,48,NA,NA,3000,1,NA,NA,images/tutyellowplanet.jpg,images/tutalien4,images/tutalien3,images/tutrocket2,images/tutalien4,images/t.png,2,practice,true,2,common,1,2020-06-15T22:22:50Z,sub56
two-step-fixation,108,361267,0.0-61.0-2.15,TRUE,TRUE,TRUE,FALSE,"""event"",""trial"",""time""
""fullscreenenter"",""5"",""10712""
","
","
","""event"",""trial"",""time""
""fullscreenenter"",""5"",""10712""
","
",NA,images/earth.jpg,NA,NA,NA,NA,NA,NA,NA,NA,NA,NA,NA,NA,NA,fixation,NA,NA,NA,NA,NA,NA,sub56
d3-animate-choice,109,363553,0.0-61.0-0.16,TRUE,TRUE,TRUE,FALSE,"""event"",""trial"",""time""
""fullscreenenter"",""5"",""10712""
","
","
","""event"",""trial"",""time""
""fullscreenenter"",""5"",""10712""
","
",283.2449999987148,NA,49,NA,NA,3000,1,NA,NA,images/earth.jpg,images/tutrocket2,images/tutrocket1,null,images/tutrocket1,NA,1,practice,null,1,NA,NA,NA,sub56
d3-animate-choice,110,366179,0.0-61.0-1.16,TRUE,TRUE,TRUE,FALSE,"""event"",""trial"",""time""
""fullscreenenter"",""5"",""10712""
","
","
","""event"",""trial"",""time""
""fullscreenenter"",""5"",""10712""
","
",623.9200000018463,NA,49,NA,NA,3000,1,NA,NA,images/tutgreenplanet.jpg,images/tutalien2,images/tutalien1,images/tutrocket1,images/tutalien1,images/nothing.png,2,practice,true,1,common,0,2020-06-15T22:22:56Z,sub56
two-step-fixation,111,367182,0.0-61.0-2.16,TRUE,TRUE,TRUE,FALSE,"""event"",""trial"",""time""
""fullscreenenter"",""5"",""10712""
","
","
","""event"",""trial"",""time""
""fullscreenenter"",""5"",""10712""
","
",NA,images/earth.jpg,NA,NA,NA,NA,NA,NA,NA,NA,NA,NA,NA,NA,NA,fixation,NA,NA,NA,NA,NA,NA,sub56
d3-animate-choice,112,369278,0.0-61.0-0.17,TRUE,TRUE,TRUE,FALSE,"""event"",""trial"",""time""
""fullscreenenter"",""5"",""10712""
","
","
","""event"",""trial"",""time""
""fullscreenenter"",""5"",""10712""
","
",92.34500000096159,NA,49,NA,NA,3000,1,NA,NA,images/earth.jpg,images/tutrocket2,images/tutrocket1,null,images/tutrocket1,NA,1,practice,null,1,NA,NA,NA,sub56
d3-animate-choice,113,371702,0.0-61.0-1.17,TRUE,TRUE,TRUE,FALSE,"""event"",""trial"",""time""
""fullscreenenter"",""5"",""10712""
","
","
","""event"",""trial"",""time""
""fullscreenenter"",""5"",""10712""
","
",420.12500000052387,NA,49,NA,NA,3000,1,NA,NA,images/tutgreenplanet.jpg,images/tutalien2,images/tutalien1,images/tutrocket1,images/tutalien1,images/nothing.png,2,practice,true,1,common,0,2020-06-15T22:23:02Z,sub56
two-step-fixation,114,372705,0.0-61.0-2.17,TRUE,TRUE,TRUE,FALSE,"""event"",""trial"",""time""
""fullscreenenter"",""5"",""10712""
","
","
","""event"",""trial"",""time""
""fullscreenenter"",""5"",""10712""
","
",NA,images/earth.jpg,NA,NA,NA,NA,NA,NA,NA,NA,NA,NA,NA,NA,NA,fixation,NA,NA,NA,NA,NA,NA,sub56
d3-animate-choice,115,374740,0.0-61.0-0.18,TRUE,TRUE,TRUE,FALSE,"""event"",""trial"",""time""
""fullscreenenter"",""5"",""10712""
","
","
","""event"",""trial"",""time""
""fullscreenenter"",""5"",""10712""
","
",31.875000000582077,NA,48,NA,NA,3000,1,NA,NA,images/earth.jpg,images/tutrocket2,images/tutrocket1,null,images/tutrocket2,NA,1,practice,null,2,NA,NA,NA,sub56
d3-animate-choice,116,377267,0.0-61.0-1.18,TRUE,TRUE,TRUE,FALSE,"""event"",""trial"",""time""
""fullscreenenter"",""5"",""10712""
","
","
","""event"",""trial"",""time""
""fullscreenenter"",""5"",""10712""
","
",524.0249999988009,NA,48,NA,NA,3000,1,NA,NA,images/tutgreenplanet.jpg,images/tutalien2,images/tutalien1,images/tutrocket2,images/tutalien2,images/nothing.png,2,practice,false,2,rare,0,2020-06-15T22:23:07Z,sub56
two-step-fixation,117,378270,0.0-61.0-2.18,TRUE,TRUE,TRUE,FALSE,"""event"",""trial"",""time""
""fullscreenenter"",""5"",""10712""
","
","
","""event"",""trial"",""time""
""fullscreenenter"",""5"",""10712""
","
",NA,images/earth.jpg,NA,NA,NA,NA,NA,NA,NA,NA,NA,NA,NA,NA,NA,fixation,NA,NA,NA,NA,NA,NA,sub56
d3-animate-choice,118,380821,0.0-61.0-0.19,TRUE,TRUE,TRUE,FALSE,"""event"",""trial"",""time""
""fullscreenenter"",""5"",""10712""
","
","
","""event"",""trial"",""time""
""fullscreenenter"",""5"",""10712""
","
",545.3750000015134,NA,49,NA,NA,3000,1,NA,NA,images/earth.jpg,images/tutrocket2,images/tutrocket1,null,images/tutrocket1,NA,1,practice,null,1,NA,NA,NA,sub56
d3-animate-choice,119,383395,0.0-61.0-1.19,TRUE,TRUE,TRUE,FALSE,"""event"",""trial"",""time""
""fullscreenenter"",""5"",""10712""
","
","
","""event"",""trial"",""time""
""fullscreenenter"",""5"",""10712""
","
",572.0949999995064,NA,49,NA,NA,3000,1,2301.12999999983,37,images/tutgreenplanet.jpg,images/tutalien2,images/tutalien1,images/tutrocket1,images/tutalien1,images/t.png,2,practice,true,1,common,1,2020-06-15T22:23:13Z,sub56
two-step-fixation,120,384398,0.0-61.0-2.19,TRUE,TRUE,TRUE,FALSE,"""event"",""trial"",""time""
""fullscreenenter"",""5"",""10712""
","
","
","""event"",""trial"",""time""
""fullscreenenter"",""5"",""10712""
","
",NA,images/earth.jpg,NA,NA,NA,NA,NA,NA,NA,NA,NA,NA,NA,NA,NA,fixation,NA,NA,NA,NA,NA,NA,sub56
d3-instructions,121,387337,0.0-62.0,TRUE,TRUE,TRUE,FALSE,"""event"",""trial"",""time""
""fullscreenenter"",""5"",""10712""
","
","
","""event"",""trial"",""time""
""fullscreenenter"",""5"",""10712""
","
",NA,NA,NA,NA,NA,NA,NA,NA,NA,NA,NA,NA,NA,NA,NA,NA,NA,NA,NA,NA,NA,NA,sub56
audio-keyboard-response,122,390254,0.0-63.0,TRUE,TRUE,TRUE,FALSE,"""event"",""trial"",""time""
""fullscreenenter"",""5"",""10712""
","
","
","""event"",""trial"",""time""
""fullscreenenter"",""5"",""10712""
","
",2920,audio/instructions/treasure_feedback.wav,32,NA,NA,NA,NA,NA,NA,NA,NA,NA,NA,NA,NA,NA,NA,NA,NA,NA,NA,NA,sub56
d3-instructions,123,396875,0.0-64.0,TRUE,TRUE,TRUE,FALSE,"""event"",""trial"",""time""
""fullscreenenter"",""5"",""10712""
","
","
","""event"",""trial"",""time""
""fullscreenenter"",""5"",""10712""
","
",NA,NA,NA,NA,NA,NA,NA,NA,NA,NA,NA,NA,NA,NA,NA,NA,NA,NA,NA,NA,NA,NA,sub56
d3-instructions,124,406387,0.0-65.0,TRUE,TRUE,TRUE,FALSE,"""event"",""trial"",""time""
""fullscreenenter"",""5"",""10712""
","
","
","""event"",""trial"",""time""
""fullscreenenter"",""5"",""10712""
","
",NA,NA,NA,NA,NA,NA,NA,NA,NA,NA,NA,NA,NA,NA,NA,NA,NA,NA,NA,NA,NA,NA,sub56
d3-instructions,125,426379,0.0-66.0,TRUE,TRUE,TRUE,FALSE,"""event"",""trial"",""time""
""fullscreenenter"",""5"",""10712""
","
","
","""event"",""trial"",""time""
""fullscreenenter"",""5"",""10712""
","
",NA,NA,NA,NA,NA,NA,NA,NA,NA,NA,NA,NA,NA,NA,NA,NA,NA,NA,NA,NA,NA,NA,sub56
d3-instructions,126,435611,0.0-67.0,TRUE,TRUE,TRUE,FALSE,"""event"",""trial"",""time""
""fullscreenenter"",""5"",""10712""
","
","
","""event"",""trial"",""time""
""fullscreenenter"",""5"",""10712""
","
",NA,NA,NA,NA,NA,NA,NA,NA,NA,NA,NA,NA,NA,NA,NA,NA,NA,NA,NA,NA,NA,NA,sub56
d3-instructions,127,438128,0.0-68.0,TRUE,TRUE,TRUE,FALSE,"""event"",""trial"",""time""
""fullscreenenter"",""5"",""10712""
","
","
","""event"",""trial"",""time""
""fullscreenenter"",""5"",""10712""
","
",NA,NA,NA,NA,NA,NA,NA,NA,NA,NA,NA,NA,NA,NA,NA,NA,NA,NA,NA,NA,NA,NA,sub56
instructions-quiz,128,440252,0.0-69.0,TRUE,TRUE,TRUE,FALSE,"""event"",""trial"",""time""
""fullscreenenter"",""5"",""10712""
","
","
","""event"",""trial"",""time""
""fullscreenenter"",""5"",""10712""
","
",2122.6650000025984,audio/quiz/Q1_Prompt.wav,NA,1,NA,NA,NA,NA,NA,NA,NA,NA,NA,NA,NA,NA,NA,NA,NA,NA,NA,NA,sub56
audio-keyboard-response,129,441311,0.0-70.0,TRUE,TRUE,TRUE,FALSE,"""event"",""trial"",""time""
""fullscreenenter"",""5"",""10712""
","
","
","""event"",""trial"",""time""
""fullscreenenter"",""5"",""10712""
","
",1051,audio/quiz/Q1_Correct.wav,32,NA,NA,NA,NA,NA,NA,NA,NA,NA,NA,NA,NA,NA,NA,NA,NA,NA,NA,NA,sub56
instructions-quiz,130,443429,0.0-71.0,TRUE,TRUE,TRUE,FALSE,"""event"",""trial"",""time""
""fullscreenenter"",""5"",""10712""
","
","
","""event"",""trial"",""time""
""fullscreenenter"",""5"",""10712""
","
",2117.030000001192,audio/quiz/Q2_Prompt.wav,NA,0,NA,NA,NA,NA,NA,NA,NA,NA,NA,NA,NA,NA,NA,NA,NA,NA,NA,NA,sub56
audio-keyboard-response,131,445659,0.0-72.0,TRUE,TRUE,TRUE,FALSE,"""event"",""trial"",""time""
""fullscreenenter"",""5"",""10712""
","
","
","""event"",""trial"",""time""
""fullscreenenter"",""5"",""10712""
","
",2229,audio/quiz/Q2_Correct.wav,32,NA,NA,NA,NA,NA,NA,NA,NA,NA,NA,NA,NA,NA,NA,NA,NA,NA,NA,NA,sub56
instructions-quiz,132,448054,0.0-73.0,TRUE,TRUE,TRUE,FALSE,"""event"",""trial"",""time""
""fullscreenenter"",""5"",""10712""
","
","
","""event"",""trial"",""time""
""fullscreenenter"",""5"",""10712""
","
",2393.544999998994,audio/quiz/Q3_Prompt.wav,NA,1,NA,NA,NA,NA,NA,NA,NA,NA,NA,NA,NA,NA,NA,NA,NA,NA,NA,NA,sub56
audio-keyboard-response,133,449002,0.0-74.0,TRUE,TRUE,TRUE,FALSE,"""event"",""trial"",""time""
""fullscreenenter"",""5"",""10712""
","
","
","""event"",""trial"",""time""
""fullscreenenter"",""5"",""10712""
","
",941,audio/quiz/Q3_Correct.wav,32,NA,NA,NA,NA,NA,NA,NA,NA,NA,NA,NA,NA,NA,NA,NA,NA,NA,NA,NA,sub56
d3-instructions,134,532325,0.0-75.0,TRUE,TRUE,TRUE,FALSE,"""event"",""trial"",""time""
""fullscreenenter"",""5"",""10712""
","
","
","""event"",""trial"",""time""
""fullscreenenter"",""5"",""10712""
","
",NA,NA,NA,NA,NA,NA,NA,NA,NA,NA,NA,NA,NA,NA,NA,NA,NA,NA,NA,NA,NA,NA,sub56
d3-animate-choice,135,535927,0.0-76.0-0.0,TRUE,TRUE,TRUE,FALSE,"""event"",""trial"",""time""
""fullscreenenter"",""5"",""10712""
","
","
","""event"",""trial"",""time""
""fullscreenenter"",""5"",""10712""
","
",1597.7899999998044,NA,49,NA,NA,3000,1,NA,NA,images/earth.jpg,images/rocket2,images/rocket1,null,images/rocket1,NA,1,real,null,1,NA,NA,NA,sub56
d3-animate-choice,136,538309,0.0-76.0-1.0,TRUE,TRUE,TRUE,FALSE,"""event"",""trial"",""time""
""fullscreenenter"",""5"",""10712""
","
","
","""event"",""trial"",""time""
""fullscreenenter"",""5"",""10712""
","
",377.8050000000512,NA,49,NA,NA,3000,1,NA,NA,images/redplanet1.jpg,images/alien2,images/alien1,images/rocket1,images/alien1,images/nothing.png,2,real,true,1,common,0,2020-06-15T22:25:48Z,sub56
two-step-fixation,137,539312,0.0-76.0-2.0,TRUE,TRUE,TRUE,FALSE,"""event"",""trial"",""time""
""fullscreenenter"",""5"",""10712""
","
","
","""event"",""trial"",""time""
""fullscreenenter"",""5"",""10712""
","
",NA,images/earth.jpg,NA,NA,NA,NA,NA,NA,NA,NA,NA,NA,NA,NA,NA,fixation,NA,NA,NA,NA,NA,NA,sub56
d3-animate-choice,138,541690,0.0-76.0-0.1,TRUE,TRUE,TRUE,FALSE,"""event"",""trial"",""time""
""fullscreenenter"",""5"",""10712""
","
","
","""event"",""trial"",""time""
""fullscreenenter"",""5"",""10712""
","
",374.950000001234,NA,49,NA,NA,3000,1,NA,NA,images/earth.jpg,images/rocket2,images/rocket1,null,images/rocket1,NA,1,real,null,1,NA,NA,NA,sub56
d3-animate-choice,139,544680,0.0-76.0-1.1,TRUE,TRUE,TRUE,FALSE,"""event"",""trial"",""time""
""fullscreenenter"",""5"",""10712""
","
","
","""event"",""trial"",""time""
""fullscreenenter"",""5"",""10712""
","
",517.120000000461,NA,17,NA,NA,3000,1,987.2050000012387,48,images/redplanet1.jpg,images/alien2,images/alien1,images/rocket1,images/alien2,images/t.png,2,real,true,NA,common,1,2020-06-15T22:25:55Z,sub56
two-step-fixation,140,545682,0.0-76.0-2.1,TRUE,TRUE,TRUE,FALSE,"""event"",""trial"",""time""
""fullscreenenter"",""5"",""10712""
","
","
","""event"",""trial"",""time""
""fullscreenenter"",""5"",""10712""
","
",NA,images/earth.jpg,NA,NA,NA,NA,NA,NA,NA,NA,NA,NA,NA,NA,NA,fixation,NA,NA,NA,NA,NA,NA,sub56
d3-animate-choice,141,548085,0.0-76.0-0.2,TRUE,TRUE,TRUE,FALSE,"""event"",""trial"",""time""
""fullscreenenter"",""5"",""10712""
","
","
","""event"",""trial"",""time""
""fullscreenenter"",""5"",""10712""
","
",399.97999999835156,NA,49,NA,NA,3000,1,1798.1149999977788,17,images/earth.jpg,images/rocket2,images/rocket1,null,images/rocket1,NA,1,real,null,1,NA,NA,NA,sub56
d3-animate-choice,142,550423,0.0-76.0-1.2,TRUE,TRUE,TRUE,FALSE,"""event"",""trial"",""time""
""fullscreenenter"",""5"",""10712""
","
","
","""event"",""trial"",""time""
""fullscreenenter"",""5"",""10712""
","
",335.04499999969266,NA,48,NA,NA,3000,1,NA,NA,images/redplanet1.jpg,images/alien2,images/alien1,images/rocket1,images/alien2,images/t.png,2,real,true,2,common,1,2020-06-15T22:26:00Z,sub56
two-step-fixation,143,551426,0.0-76.0-2.2,TRUE,TRUE,TRUE,FALSE,"""event"",""trial"",""time""
""fullscreenenter"",""5"",""10712""
","
","
","""event"",""trial"",""time""
""fullscreenenter"",""5"",""10712""
","
",NA,images/earth.jpg,NA,NA,NA,NA,NA,NA,NA,NA,NA,NA,NA,NA,NA,fixation,NA,NA,NA,NA,NA,NA,sub56
d3-animate-choice,144,553802,0.0-76.0-0.3,TRUE,TRUE,TRUE,FALSE,"""event"",""trial"",""time""
""fullscreenenter"",""5"",""10712""
","
","
","""event"",""trial"",""time""
""fullscreenenter"",""5"",""10712""
","
",372.8350000019418,NA,49,NA,NA,3000,1,NA,NA,images/earth.jpg,images/rocket2,images/rocket1,null,images/rocket1,NA,1,real,null,1,NA,NA,NA,sub56
d3-animate-choice,145,555981,0.0-76.0-1.3,TRUE,TRUE,TRUE,FALSE,"""event"",""trial"",""time""
""fullscreenenter"",""5"",""10712""
","
","
","""event"",""trial"",""time""
""fullscreenenter"",""5"",""10712""
","
",175.07499999913853,NA,48,NA,NA,3000,1,NA,NA,images/purpleplanet.jpg,images/alien4,images/alien3,images/rocket1,images/alien4,images/t.png,2,real,false,2,rare,1,2020-06-15T22:26:06Z,sub56
two-step-fixation,146,556984,0.0-76.0-2.3,TRUE,TRUE,TRUE,FALSE,"""event"",""trial"",""time""
""fullscreenenter"",""5"",""10712""
","
","
","""event"",""trial"",""time""
""fullscreenenter"",""5"",""10712""
","
",NA,images/earth.jpg,NA,NA,NA,NA,NA,NA,NA,NA,NA,NA,NA,NA,NA,fixation,NA,NA,NA,NA,NA,NA,sub56
d3-animate-choice,147,559284,0.0-76.0-0.4,TRUE,TRUE,TRUE,FALSE,"""event"",""trial"",""time""
""fullscreenenter"",""5"",""10712""
","
","
","""event"",""trial"",""time""
""fullscreenenter"",""5"",""10712""
","
",295.2450000011595,NA,49,NA,NA,3000,1,NA,NA,images/earth.jpg,images/rocket2,images/rocket1,null,images/rocket1,NA,1,real,null,1,NA,NA,NA,sub56
d3-animate-choice,148,561851,0.0-76.0-1.4,TRUE,TRUE,TRUE,FALSE,"""event"",""trial"",""time""
""fullscreenenter"",""5"",""10712""
","
","
","""event"",""trial"",""time""
""fullscreenenter"",""5"",""10712""
","
",563.9799999989336,NA,48,NA,NA,3000,1,NA,NA,images/redplanet1.jpg,images/alien2,images/alien1,images/rocket1,images/alien2,images/t.png,2,real,true,2,common,1,2020-06-15T22:26:12Z,sub56
two-step-fixation,149,562853,0.0-76.0-2.4,TRUE,TRUE,TRUE,FALSE,"""event"",""trial"",""time""
""fullscreenenter"",""5"",""10712""
","
","
","""event"",""trial"",""time""
""fullscreenenter"",""5"",""10712""
","
",NA,images/earth.jpg,NA,NA,NA,NA,NA,NA,NA,NA,NA,NA,NA,NA,NA,fixation,NA,NA,NA,NA,NA,NA,sub56
d3-animate-choice,150,565193,0.0-76.0-0.5,TRUE,TRUE,TRUE,FALSE,"""event"",""trial"",""time""
""fullscreenenter"",""5"",""10712""
","
","
","""event"",""trial"",""time""
""fullscreenenter"",""5"",""10712""
","
",336.889999998617,NA,49,NA,NA,3000,1,NA,NA,images/earth.jpg,images/rocket2,images/rocket1,null,images/rocket1,NA,1,real,null,1,NA,NA,NA,sub56
d3-animate-choice,151,567584,0.0-76.0-1.5,TRUE,TRUE,TRUE,FALSE,"""event"",""trial"",""time""
""fullscreenenter"",""5"",""10712""
","
","
","""event"",""trial"",""time""
""fullscreenenter"",""5"",""10712""
","
",387.9850000011502,NA,48,NA,NA,3000,1,NA,NA,images/redplanet1.jpg,images/alien2,images/alien1,images/rocket1,images/alien2,images/t.png,2,real,true,2,common,1,2020-06-15T22:26:17Z,sub56
two-step-fixation,152,568586,0.0-76.0-2.5,TRUE,TRUE,TRUE,FALSE,"""event"",""trial"",""time""
""fullscreenenter"",""5"",""10712""
","
","
","""event"",""trial"",""time""
""fullscreenenter"",""5"",""10712""
","
",NA,images/earth.jpg,NA,NA,NA,NA,NA,NA,NA,NA,NA,NA,NA,NA,NA,fixation,NA,NA,NA,NA,NA,NA,sub56
d3-animate-choice,153,570888,0.0-76.0-0.6,TRUE,TRUE,TRUE,FALSE,"""event"",""trial"",""time""
""fullscreenenter"",""5"",""10712""
","
","
","""event"",""trial"",""time""
""fullscreenenter"",""5"",""10712""
","
",299.0499999978347,NA,49,NA,NA,3000,1,NA,NA,images/earth.jpg,images/rocket2,images/rocket1,null,images/rocket1,NA,1,real,null,1,NA,NA,NA,sub56
d3-animate-choice,154,573380,0.0-76.0-1.6,TRUE,TRUE,TRUE,FALSE,"""event"",""trial"",""time""
""fullscreenenter"",""5"",""10712""
","
","
","""event"",""trial"",""time""
""fullscreenenter"",""5"",""10712""
","
",488.57499999937136,NA,48,NA,NA,3000,1,NA,NA,images/redplanet1.jpg,images/alien2,images/alien1,images/rocket1,images/alien2,images/nothing.png,2,real,true,2,common,0,2020-06-15T22:26:23Z,sub56
two-step-fixation,155,574383,0.0-76.0-2.6,TRUE,TRUE,TRUE,FALSE,"""event"",""trial"",""time""
""fullscreenenter"",""5"",""10712""
","
","
","""event"",""trial"",""time""
""fullscreenenter"",""5"",""10712""
","
",NA,images/earth.jpg,NA,NA,NA,NA,NA,NA,NA,NA,NA,NA,NA,NA,NA,fixation,NA,NA,NA,NA,NA,NA,sub56
d3-animate-choice,156,576874,0.0-76.0-0.7,TRUE,TRUE,TRUE,FALSE,"""event"",""trial"",""time""
""fullscreenenter"",""5"",""10712""
","
","
","""event"",""trial"",""time""
""fullscreenenter"",""5"",""10712""
","
",488.78500000131316,NA,49,NA,NA,3000,1,NA,NA,images/earth.jpg,images/rocket2,images/rocket1,null,images/rocket1,NA,1,real,null,1,NA,NA,NA,sub56
d3-animate-choice,157,579262,0.0-76.0-1.7,TRUE,TRUE,TRUE,FALSE,"""event"",""trial"",""time""
""fullscreenenter"",""5"",""10712""
","
","
","""event"",""trial"",""time""
""fullscreenenter"",""5"",""10712""
","
",385.85000000242144,NA,48,NA,NA,3000,1,NA,NA,images/redplanet1.jpg,images/alien2,images/alien1,images/rocket1,images/alien2,images/nothing.png,2,real,true,2,common,0,2020-06-15T22:26:29Z,sub56
two-step-fixation,158,580265,0.0-76.0-2.7,TRUE,TRUE,TRUE,FALSE,"""event"",""trial"",""time""
""fullscreenenter"",""5"",""10712""
","
","
","""event"",""trial"",""time""
""fullscreenenter"",""5"",""10712""
","
",NA,images/earth.jpg,NA,NA,NA,NA,NA,NA,NA,NA,NA,NA,NA,NA,NA,fixation,NA,NA,NA,NA,NA,NA,sub56
d3-animate-choice,159,582607,0.0-76.0-0.8,TRUE,TRUE,TRUE,FALSE,"""event"",""trial"",""time""
""fullscreenenter"",""5"",""10712""
","
","
","""event"",""trial"",""time""
""fullscreenenter"",""5"",""10712""
","
",338.92000000202097,NA,48,NA,NA,3000,1,NA,NA,images/earth.jpg,images/rocket2,images/rocket1,null,images/rocket2,NA,1,real,null,2,NA,NA,NA,sub56
d3-animate-choice,160,585202,0.0-76.0-1.8,TRUE,TRUE,TRUE,FALSE,"""event"",""trial"",""time""
""fullscreenenter"",""5"",""10712""
","
","
","""event"",""trial"",""time""
""fullscreenenter"",""5"",""10712""
","
",591.5449999993434,NA,49,NA,NA,3000,1,NA,NA,images/purpleplanet.jpg,images/alien4,images/alien3,images/rocket2,images/alien3,images/nothing.png,2,real,true,1,common,0,2020-06-15T22:26:35Z,sub56
two-step-fixation,161,586205,0.0-76.0-2.8,TRUE,TRUE,TRUE,FALSE,"""event"",""trial"",""time""
""fullscreenenter"",""5"",""10712""
","
","
","""event"",""trial"",""time""
""fullscreenenter"",""5"",""10712""
","
",NA,images/earth.jpg,NA,NA,NA,NA,NA,NA,NA,NA,NA,NA,NA,NA,NA,fixation,NA,NA,NA,NA,NA,NA,sub56
d3-animate-choice,162,588489,0.0-76.0-0.9,TRUE,TRUE,TRUE,FALSE,"""event"",""trial"",""time""
""fullscreenenter"",""5"",""10712""
","
","
","""event"",""trial"",""time""
""fullscreenenter"",""5"",""10712""
","
",280.82999999972526,NA,48,NA,NA,3000,1,NA,NA,images/earth.jpg,images/rocket2,images/rocket1,null,images/rocket2,NA,1,real,null,2,NA,NA,NA,sub56
d3-animate-choice,163,591554,0.0-76.0-1.9,TRUE,TRUE,TRUE,FALSE,"""event"",""trial"",""time""
""fullscreenenter"",""5"",""10712""
","
","
","""event"",""trial"",""time""
""fullscreenenter"",""5"",""10712""
","
",1061.4650000025285,NA,48,NA,NA,3000,1,NA,NA,images/redplanet1.jpg,images/alien2,images/alien1,images/rocket2,images/alien2,images/t.png,2,real,false,2,rare,1,2020-06-15T22:26:41Z,sub56
two-step-fixation,164,592557,0.0-76.0-2.9,TRUE,TRUE,TRUE,FALSE,"""event"",""trial"",""time""
""fullscreenenter"",""5"",""10712""
","
","
","""event"",""trial"",""time""
""fullscreenenter"",""5"",""10712""
","
",NA,images/earth.jpg,NA,NA,NA,NA,NA,NA,NA,NA,NA,NA,NA,NA,NA,fixation,NA,NA,NA,NA,NA,NA,sub56
d3-animate-choice,165,595078,0.0-76.0-0.10,TRUE,TRUE,TRUE,FALSE,"""event"",""trial"",""time""
""fullscreenenter"",""5"",""10712""
","
","
","""event"",""trial"",""time""
""fullscreenenter"",""5"",""10712""
","
",517.6199999987148,NA,48,NA,NA,3000,1,NA,NA,images/earth.jpg,images/rocket2,images/rocket1,null,images/rocket2,NA,1,real,null,2,NA,NA,NA,sub56
d3-animate-choice,166,597451,0.0-76.0-1.10,TRUE,TRUE,TRUE,FALSE,"""event"",""trial"",""time""
""fullscreenenter"",""5"",""10712""
","
","
","""event"",""trial"",""time""
""fullscreenenter"",""5"",""10712""
","
",370.62000000150874,NA,48,NA,NA,3000,1,NA,NA,images/purpleplanet.jpg,images/alien4,images/alien3,images/rocket2,images/alien4,images/t.png,2,real,true,2,common,1,2020-06-15T22:26:47Z,sub56
two-step-fixation,167,598454,0.0-76.0-2.10,TRUE,TRUE,TRUE,FALSE,"""event"",""trial"",""time""
""fullscreenenter"",""5"",""10712""
","
","
","""event"",""trial"",""time""
""fullscreenenter"",""5"",""10712""
","
",NA,images/earth.jpg,NA,NA,NA,NA,NA,NA,NA,NA,NA,NA,NA,NA,NA,fixation,NA,NA,NA,NA,NA,NA,sub56
d3-animate-choice,168,600706,0.0-76.0-0.11,TRUE,TRUE,TRUE,FALSE,"""event"",""trial"",""time""
""fullscreenenter"",""5"",""10712""
","
","
","""event"",""trial"",""time""
""fullscreenenter"",""5"",""10712""
","
",248.4199999999255,NA,48,NA,NA,3000,1,NA,NA,images/earth.jpg,images/rocket2,images/rocket1,null,images/rocket2,NA,1,real,null,2,NA,NA,NA,sub56
d3-animate-choice,169,603113,0.0-76.0-1.11,TRUE,TRUE,TRUE,FALSE,"""event"",""trial"",""time""
""fullscreenenter"",""5"",""10712""
","
","
","""event"",""trial"",""time""
""fullscreenenter"",""5"",""10712""
","
",403.3049999999348,NA,48,NA,NA,3000,1,NA,NA,images/purpleplanet.jpg,images/alien4,images/alien3,images/rocket2,images/alien4,images/t.png,2,real,true,2,common,1,2020-06-15T22:26:53Z,sub56
two-step-fixation,170,604115,0.0-76.0-2.11,TRUE,TRUE,TRUE,FALSE,"""event"",""trial"",""time""
""fullscreenenter"",""5"",""10712""
","
","
","""event"",""trial"",""time""
""fullscreenenter"",""5"",""10712""
","
",NA,images/earth.jpg,NA,NA,NA,NA,NA,NA,NA,NA,NA,NA,NA,NA,NA,fixation,NA,NA,NA,NA,NA,NA,sub56
d3-animate-choice,171,606453,0.0-76.0-0.12,TRUE,TRUE,TRUE,FALSE,"""event"",""trial"",""time""
""fullscreenenter"",""5"",""10712""
","
","
","""event"",""trial"",""time""
""fullscreenenter"",""5"",""10712""
","
",334.5399999998044,NA,48,NA,NA,3000,1,NA,NA,images/earth.jpg,images/rocket2,images/rocket1,null,images/rocket2,NA,1,real,null,2,NA,NA,NA,sub56
d3-animate-choice,172,608988,0.0-76.0-1.12,TRUE,TRUE,TRUE,FALSE,"""event"",""trial"",""time""
""fullscreenenter"",""5"",""10712""
","
","
","""event"",""trial"",""time""
""fullscreenenter"",""5"",""10712""
","
",531.4899999976624,NA,48,NA,NA,3000,1,NA,NA,images/purpleplanet.jpg,images/alien4,images/alien3,images/rocket2,images/alien4,images/nothing.png,2,real,true,2,common,0,2020-06-15T22:26:59Z,sub56
two-step-fixation,173,609991,0.0-76.0-2.12,TRUE,TRUE,TRUE,FALSE,"""event"",""trial"",""time""
""fullscreenenter"",""5"",""10712""
","
","
","""event"",""trial"",""time""
""fullscreenenter"",""5"",""10712""
","
",NA,images/earth.jpg,NA,NA,NA,NA,NA,NA,NA,NA,NA,NA,NA,NA,NA,fixation,NA,NA,NA,NA,NA,NA,sub56
d3-animate-choice,174,612392,0.0-76.0-0.13,TRUE,TRUE,TRUE,FALSE,"""event"",""trial"",""time""
""fullscreenenter"",""5"",""10712""
","
","
","""event"",""trial"",""time""
""fullscreenenter"",""5"",""10712""
","
",397.43499999900814,NA,48,NA,NA,3000,1,NA,NA,images/earth.jpg,images/rocket2,images/rocket1,null,images/rocket2,NA,1,real,null,2,NA,NA,NA,sub56
d3-animate-choice,175,614793,0.0-76.0-1.13,TRUE,TRUE,TRUE,FALSE,"""event"",""trial"",""time""
""fullscreenenter"",""5"",""10712""
","
","
","""event"",""trial"",""time""
""fullscreenenter"",""5"",""10712""
","
",398.57000000122935,NA,48,NA,NA,3000,1,NA,NA,images/purpleplanet.jpg,images/alien4,images/alien3,images/rocket2,images/alien4,images/t.png,2,real,true,2,common,1,2020-06-15T22:27:05Z,sub56
two-step-fixation,176,615797,0.0-76.0-2.13,TRUE,TRUE,TRUE,FALSE,"""event"",""trial"",""time""
""fullscreenenter"",""5"",""10712""
","
","
","""event"",""trial"",""time""
""fullscreenenter"",""5"",""10712""
","
",NA,images/earth.jpg,NA,NA,NA,NA,NA,NA,NA,NA,NA,NA,NA,NA,NA,fixation,NA,NA,NA,NA,NA,NA,sub56
d3-animate-choice,177,618126,0.0-76.0-0.14,TRUE,TRUE,TRUE,FALSE,"""event"",""trial"",""time""
""fullscreenenter"",""5"",""10712""
","
","
","""event"",""trial"",""time""
""fullscreenenter"",""5"",""10712""
","
",326.5749999991385,NA,48,NA,NA,3000,1,NA,NA,images/earth.jpg,images/rocket2,images/rocket1,null,images/rocket2,NA,1,real,null,2,NA,NA,NA,sub56
d3-animate-choice,178,620617,0.0-76.0-1.14,TRUE,TRUE,TRUE,FALSE,"""event"",""trial"",""time""
""fullscreenenter"",""5"",""10712""
","
","
","""event"",""trial"",""time""
""fullscreenenter"",""5"",""10712""
","
",487.36000000278,NA,48,NA,NA,3000,1,NA,NA,images/purpleplanet.jpg,images/alien4,images/alien3,images/rocket2,images/alien4,images/t.png,2,real,true,2,common,1,2020-06-15T22:27:10Z,sub56
two-step-fixation,179,621620,0.0-76.0-2.14,TRUE,TRUE,TRUE,FALSE,"""event"",""trial"",""time""
""fullscreenenter"",""5"",""10712""
","
","
","""event"",""trial"",""time""
""fullscreenenter"",""5"",""10712""
","
",NA,images/earth.jpg,NA,NA,NA,NA,NA,NA,NA,NA,NA,NA,NA,NA,NA,fixation,NA,NA,NA,NA,NA,NA,sub56
d3-animate-choice,180,623900,0.0-76.0-0.15,TRUE,TRUE,TRUE,FALSE,"""event"",""trial"",""time""
""fullscreenenter"",""5"",""10712""
","
","
","""event"",""trial"",""time""
""fullscreenenter"",""5"",""10712""
","
",277.4500000013504,NA,48,NA,NA,3000,1,NA,NA,images/earth.jpg,images/rocket2,images/rocket1,null,images/rocket2,NA,1,real,null,2,NA,NA,NA,sub56
d3-animate-choice,181,626410,0.0-76.0-1.15,TRUE,TRUE,TRUE,FALSE,"""event"",""trial"",""time""
""fullscreenenter"",""5"",""10712""
","
","
","""event"",""trial"",""time""
""fullscreenenter"",""5"",""10712""
","
",507.5799999976298,NA,48,NA,NA,3000,1,NA,NA,images/purpleplanet.jpg,images/alien4,images/alien3,images/rocket2,images/alien4,images/nothing.png,2,real,true,2,common,0,2020-06-15T22:27:16Z,sub56
two-step-fixation,182,627413,0.0-76.0-2.15,TRUE,TRUE,TRUE,FALSE,"""event"",""trial"",""time""
""fullscreenenter"",""5"",""10712""
","
","
","""event"",""trial"",""time""
""fullscreenenter"",""5"",""10712""
","
",NA,images/earth.jpg,NA,NA,NA,NA,NA,NA,NA,NA,NA,NA,NA,NA,NA,fixation,NA,NA,NA,NA,NA,NA,sub56
d3-animate-choice,183,629884,0.0-76.0-0.16,TRUE,TRUE,TRUE,FALSE,"""event"",""trial"",""time""
""fullscreenenter"",""5"",""10712""
","
","
","""event"",""trial"",""time""
""fullscreenenter"",""5"",""10712""
","
",468.3399999993853,NA,48,NA,NA,3000,1,NA,NA,images/earth.jpg,images/rocket2,images/rocket1,null,images/rocket2,NA,1,real,null,2,NA,NA,NA,sub56
d3-animate-choice,184,632260,0.0-76.0-1.16,TRUE,TRUE,TRUE,FALSE,"""event"",""trial"",""time""
""fullscreenenter"",""5"",""10712""
","
","
","""event"",""trial"",""time""
""fullscreenenter"",""5"",""10712""
","
",370.6000000019558,NA,48,NA,NA,3000,1,NA,NA,images/purpleplanet.jpg,images/alien4,images/alien3,images/rocket2,images/alien4,images/t.png,2,real,true,2,common,1,2020-06-15T22:27:22Z,sub56
two-step-fixation,185,633263,0.0-76.0-2.16,TRUE,TRUE,TRUE,FALSE,"""event"",""trial"",""time""
""fullscreenenter"",""5"",""10712""
","
","
","""event"",""trial"",""time""
""fullscreenenter"",""5"",""10712""
","
",NA,images/earth.jpg,NA,NA,NA,NA,NA,NA,NA,NA,NA,NA,NA,NA,NA,fixation,NA,NA,NA,NA,NA,NA,sub56
d3-animate-choice,186,635628,0.0-76.0-0.17,TRUE,TRUE,TRUE,FALSE,"""event"",""trial"",""time""
""fullscreenenter"",""5"",""10712""
","
","
","""event"",""trial"",""time""
""fullscreenenter"",""5"",""10712""
","
",362.0150000024587,NA,48,NA,NA,3000,1,NA,NA,images/earth.jpg,images/rocket2,images/rocket1,null,images/rocket2,NA,1,real,null,2,NA,NA,NA,sub56
d3-animate-choice,187,638160,0.0-76.0-1.17,TRUE,TRUE,TRUE,FALSE,"""event"",""trial"",""time""
""fullscreenenter"",""5"",""10712""
","
","
","""event"",""trial"",""time""
""fullscreenenter"",""5"",""10712""
","
",528.4649999993853,NA,48,NA,NA,3000,1,NA,NA,images/purpleplanet.jpg,images/alien4,images/alien3,images/rocket2,images/alien4,images/t.png,2,real,true,2,common,1,2020-06-15T22:27:28Z,sub56
two-step-fixation,188,639164,0.0-76.0-2.17,TRUE,TRUE,TRUE,FALSE,"""event"",""trial"",""time""
""fullscreenenter"",""5"",""10712""
","
","
","""event"",""trial"",""time""
""fullscreenenter"",""5"",""10712""
","
",NA,images/earth.jpg,NA,NA,NA,NA,NA,NA,NA,NA,NA,NA,NA,NA,NA,fixation,NA,NA,NA,NA,NA,NA,sub56
d3-animate-choice,189,641485,0.0-76.0-0.18,TRUE,TRUE,TRUE,FALSE,"""event"",""trial"",""time""
""fullscreenenter"",""5"",""10712""
","
","
","""event"",""trial"",""time""
""fullscreenenter"",""5"",""10712""
","
",318.2300000007963,NA,48,NA,NA,3000,1,NA,NA,images/earth.jpg,images/rocket2,images/rocket1,null,images/rocket2,NA,1,real,null,2,NA,NA,NA,sub56
d3-animate-choice,190,643855,0.0-76.0-1.18,TRUE,TRUE,TRUE,FALSE,"""event"",""trial"",""time""
""fullscreenenter"",""5"",""10712""
","
","
","""event"",""trial"",""time""
""fullscreenenter"",""5"",""10712""
","
",366.35000000032596,NA,48,NA,NA,3000,1,NA,NA,images/purpleplanet.jpg,images/alien4,images/alien3,images/rocket2,images/alien4,images/nothing.png,2,real,true,2,common,0,2020-06-15T22:27:34Z,sub56
two-step-fixation,191,644859,0.0-76.0-2.18,TRUE,TRUE,TRUE,FALSE,"""event"",""trial"",""time""
""fullscreenenter"",""5"",""10712""
","
","
","""event"",""trial"",""time""
""fullscreenenter"",""5"",""10712""
","
",NA,images/earth.jpg,NA,NA,NA,NA,NA,NA,NA,NA,NA,NA,NA,NA,NA,fixation,NA,NA,NA,NA,NA,NA,sub56
d3-animate-choice,192,647193,0.0-76.0-0.19,TRUE,TRUE,TRUE,FALSE,"""event"",""trial"",""time""
""fullscreenenter"",""5"",""10712""
","
","
","""event"",""trial"",""time""
""fullscreenenter"",""5"",""10712""
","
",331.2500000030268,NA,48,NA,NA,3000,1,NA,NA,images/earth.jpg,images/rocket2,images/rocket1,null,images/rocket2,NA,1,real,null,2,NA,NA,NA,sub56
d3-animate-choice,193,649465,0.0-76.0-1.19,TRUE,TRUE,TRUE,FALSE,"""event"",""trial"",""time""
""fullscreenenter"",""5"",""10712""
","
","
","""event"",""trial"",""time""
""fullscreenenter"",""5"",""10712""
","
",268.43000000016764,NA,48,NA,NA,3000,1,NA,NA,images/redplanet1.jpg,images/alien2,images/alien1,images/rocket2,images/alien2,images/t.png,2,real,false,2,rare,1,2020-06-15T22:27:39Z,sub56
two-step-fixation,194,650468,0.0-76.0-2.19,TRUE,TRUE,TRUE,FALSE,"""event"",""trial"",""time""
""fullscreenenter"",""5"",""10712""
","
","
","""event"",""trial"",""time""
""fullscreenenter"",""5"",""10712""
","
",NA,images/earth.jpg,NA,NA,NA,NA,NA,NA,NA,NA,NA,NA,NA,NA,NA,fixation,NA,NA,NA,NA,NA,NA,sub56
d3-animate-choice,195,652958,0.0-76.0-0.20,TRUE,TRUE,TRUE,FALSE,"""event"",""trial"",""time""
""fullscreenenter"",""5"",""10712""
","
","
","""event"",""trial"",""time""
""fullscreenenter"",""5"",""10712""
","
",485.81000000203494,NA,49,NA,NA,3000,1,NA,NA,images/earth.jpg,images/rocket2,images/rocket1,null,images/rocket1,NA,1,real,null,1,NA,NA,NA,sub56
d3-animate-choice,196,656003,0.0-76.0-1.20,TRUE,TRUE,TRUE,FALSE,"""event"",""trial"",""time""
""fullscreenenter"",""5"",""10712""
","
","
","""event"",""trial"",""time""
""fullscreenenter"",""5"",""10712""
","
",1042.1950000018114,NA,48,NA,NA,3000,1,NA,NA,images/purpleplanet.jpg,images/alien4,images/alien3,images/rocket1,images/alien4,images/t.png,2,real,false,2,rare,1,2020-06-15T22:27:46Z,sub56
two-step-fixation,197,657005,0.0-76.0-2.20,TRUE,TRUE,TRUE,FALSE,"""event"",""trial"",""time""
""fullscreenenter"",""5"",""10712""
","
","
","""event"",""trial"",""time""
""fullscreenenter"",""5"",""10712""
","
",NA,images/earth.jpg,NA,NA,NA,NA,NA,NA,NA,NA,NA,NA,NA,NA,NA,fixation,NA,NA,NA,NA,NA,NA,sub56
d3-animate-choice,198,659659,0.0-76.0-0.21,TRUE,TRUE,TRUE,FALSE,"""event"",""trial"",""time""
""fullscreenenter"",""5"",""10712""
","
","
","""event"",""trial"",""time""
""fullscreenenter"",""5"",""10712""
","
",651.7449999992969,NA,49,NA,NA,3000,1,NA,NA,images/earth.jpg,images/rocket2,images/rocket1,null,images/rocket1,NA,1,real,null,1,NA,NA,NA,sub56
d3-animate-choice,199,662082,0.0-76.0-1.21,TRUE,TRUE,TRUE,FALSE,"""event"",""trial"",""time""
""fullscreenenter"",""5"",""10712""
","
","
","""event"",""trial"",""time""
""fullscreenenter"",""5"",""10712""
","
",418.9299999998184,NA,48,NA,NA,3000,1,NA,NA,images/redplanet1.jpg,images/alien2,images/alien1,images/rocket1,images/alien2,images/nothing.png,2,real,true,2,common,0,2020-06-15T22:27:52Z,sub56
two-step-fixation,200,663085,0.0-76.0-2.21,TRUE,TRUE,TRUE,FALSE,"""event"",""trial"",""time""
""fullscreenenter"",""5"",""10712""
","
","
","""event"",""trial"",""time""
""fullscreenenter"",""5"",""10712""
","
",NA,images/earth.jpg,NA,NA,NA,NA,NA,NA,NA,NA,NA,NA,NA,NA,NA,fixation,NA,NA,NA,NA,NA,NA,sub56
d3-animate-choice,201,665364,0.0-76.0-0.22,TRUE,TRUE,TRUE,FALSE,"""event"",""trial"",""time""
""fullscreenenter"",""5"",""10712""
","
","
","""event"",""trial"",""time""
""fullscreenenter"",""5"",""10712""
","
",275.0400000003865,NA,48,NA,NA,3000,1,NA,NA,images/earth.jpg,images/rocket2,images/rocket1,null,images/rocket2,NA,1,real,null,2,NA,NA,NA,sub56
d3-animate-choice,202,667803,0.0-76.0-1.22,TRUE,TRUE,TRUE,FALSE,"""event"",""trial"",""time""
""fullscreenenter"",""5"",""10712""
","
","
","""event"",""trial"",""time""
""fullscreenenter"",""5"",""10712""
","
",435.22500000114087,NA,48,NA,NA,3000,1,NA,NA,images/redplanet1.jpg,images/alien2,images/alien1,images/rocket2,images/alien2,images/t.png,2,real,false,2,rare,1,2020-06-15T22:27:58Z,sub56
two-step-fixation,203,668805,0.0-76.0-2.22,TRUE,TRUE,TRUE,FALSE,"""event"",""trial"",""time""
""fullscreenenter"",""5"",""10712""
","
","
","""event"",""trial"",""time""
""fullscreenenter"",""5"",""10712""
","
",NA,images/earth.jpg,NA,NA,NA,NA,NA,NA,NA,NA,NA,NA,NA,NA,NA,fixation,NA,NA,NA,NA,NA,NA,sub56
d3-animate-choice,204,671088,0.0-76.0-0.23,TRUE,TRUE,TRUE,FALSE,"""event"",""trial"",""time""
""fullscreenenter"",""5"",""10712""
","
","
","""event"",""trial"",""time""
""fullscreenenter"",""5"",""10712""
","
",280.1849999995902,NA,48,NA,NA,3000,1,NA,NA,images/earth.jpg,images/rocket2,images/rocket1,null,images/rocket2,NA,1,real,null,2,NA,NA,NA,sub56
d3-animate-choice,205,673432,0.0-76.0-1.23,TRUE,TRUE,TRUE,FALSE,"""event"",""trial"",""time""
""fullscreenenter"",""5"",""10712""
","
","
","""event"",""trial"",""time""
""fullscreenenter"",""5"",""10712""
","
",340.99499999859836,NA,48,NA,NA,3000,1,NA,NA,images/redplanet1.jpg,images/alien2,images/alien1,images/rocket2,images/alien2,images/nothing.png,2,real,false,2,rare,0,2020-06-15T22:28:03Z,sub56
two-step-fixation,206,674436,0.0-76.0-2.23,TRUE,TRUE,TRUE,FALSE,"""event"",""trial"",""time""
""fullscreenenter"",""5"",""10712""
","
","
","""event"",""trial"",""time""
""fullscreenenter"",""5"",""10712""
","
",NA,images/earth.jpg,NA,NA,NA,NA,NA,NA,NA,NA,NA,NA,NA,NA,NA,fixation,NA,NA,NA,NA,NA,NA,sub56
d3-animate-choice,207,676728,0.0-76.0-0.24,TRUE,TRUE,TRUE,FALSE,"""event"",""trial"",""time""
""fullscreenenter"",""5"",""10712""
","
","
","""event"",""trial"",""time""
""fullscreenenter"",""5"",""10712""
","
",289.0299999999115,NA,48,NA,NA,3000,1,NA,NA,images/earth.jpg,images/rocket2,images/rocket1,null,images/rocket2,NA,1,real,null,2,NA,NA,NA,sub56
d3-animate-choice,208,679164,0.0-76.0-1.24,TRUE,TRUE,TRUE,FALSE,"""event"",""trial"",""time""
""fullscreenenter"",""5"",""10712""
","
","
","""event"",""trial"",""time""
""fullscreenenter"",""5"",""10712""
","
",431.97999999753665,NA,48,NA,NA,3000,1,NA,NA,images/redplanet1.jpg,images/alien2,images/alien1,images/rocket2,images/alien2,images/t.png,2,real,false,2,rare,1,2020-06-15T22:28:09Z,sub56
two-step-fixation,209,680166,0.0-76.0-2.24,TRUE,TRUE,TRUE,FALSE,"""event"",""trial"",""time""
""fullscreenenter"",""5"",""10712""
","
","
","""event"",""trial"",""time""
""fullscreenenter"",""5"",""10712""
","
",NA,images/earth.jpg,NA,NA,NA,NA,NA,NA,NA,NA,NA,NA,NA,NA,NA,fixation,NA,NA,NA,NA,NA,NA,sub56
d3-animate-choice,210,682441,0.0-76.0-0.25,TRUE,TRUE,TRUE,FALSE,"""event"",""trial"",""time""
""fullscreenenter"",""5"",""10712""
","
","
","""event"",""trial"",""time""
""fullscreenenter"",""5"",""10712""
","
",270.1699999998091,NA,48,NA,NA,3000,1,NA,NA,images/earth.jpg,images/rocket2,images/rocket1,null,images/rocket2,NA,1,real,null,2,NA,NA,NA,sub56
d3-animate-choice,211,684900,0.0-76.0-1.25,TRUE,TRUE,TRUE,FALSE,"""event"",""trial"",""time""
""fullscreenenter"",""5"",""10712""
","
","
","""event"",""trial"",""time""
""fullscreenenter"",""5"",""10712""
","
",456.9550000014715,NA,48,NA,NA,3000,1,NA,NA,images/purpleplanet.jpg,images/alien4,images/alien3,images/rocket2,images/alien4,images/nothing.png,2,real,true,2,common,0,2020-06-15T22:28:15Z,sub56
two-step-fixation,212,685903,0.0-76.0-2.25,TRUE,TRUE,TRUE,FALSE,"""event"",""trial"",""time""
""fullscreenenter"",""5"",""10712""
","
","
","""event"",""trial"",""time""
""fullscreenenter"",""5"",""10712""
","
",NA,images/earth.jpg,NA,NA,NA,NA,NA,NA,NA,NA,NA,NA,NA,NA,NA,fixation,NA,NA,NA,NA,NA,NA,sub56
d3-animate-choice,213,688193,0.0-76.0-0.26,TRUE,TRUE,TRUE,FALSE,"""event"",""trial"",""time""
""fullscreenenter"",""5"",""10712""
","
","
","""event"",""trial"",""time""
""fullscreenenter"",""5"",""10712""
","
",286.28500000201166,NA,48,NA,NA,3000,1,NA,NA,images/earth.jpg,images/rocket2,images/rocket1,null,images/rocket2,NA,1,real,null,2,NA,NA,NA,sub56
d3-animate-choice,214,690653,0.0-76.0-1.26,TRUE,TRUE,TRUE,FALSE,"""event"",""trial"",""time""
""fullscreenenter"",""5"",""10712""
","
","
","""event"",""trial"",""time""
""fullscreenenter"",""5"",""10712""
","
",456.9350000019185,NA,48,NA,NA,3000,1,NA,NA,images/redplanet1.jpg,images/alien2,images/alien1,images/rocket2,images/alien2,images/t.png,2,real,false,2,rare,1,2020-06-15T22:28:21Z,sub56
two-step-fixation,215,691656,0.0-76.0-2.26,TRUE,TRUE,TRUE,FALSE,"""event"",""trial"",""time""
""fullscreenenter"",""5"",""10712""
","
","
","""event"",""trial"",""time""
""fullscreenenter"",""5"",""10712""
","
",NA,images/earth.jpg,NA,NA,NA,NA,NA,NA,NA,NA,NA,NA,NA,NA,NA,fixation,NA,NA,NA,NA,NA,NA,sub56
d3-animate-choice,216,694025,0.0-76.0-0.27,TRUE,TRUE,TRUE,FALSE,"""event"",""trial"",""time""
""fullscreenenter"",""5"",""10712""
","
","
","""event"",""trial"",""time""
""fullscreenenter"",""5"",""10712""
","
",366.1199999987148,NA,49,NA,NA,3000,1,NA,NA,images/earth.jpg,images/rocket2,images/rocket1,null,images/rocket1,NA,1,real,null,1,NA,NA,NA,sub56
d3-animate-choice,217,696498,0.0-76.0-1.27,TRUE,TRUE,TRUE,FALSE,"""event"",""trial"",""time""
""fullscreenenter"",""5"",""10712""
","
","
","""event"",""trial"",""time""
""fullscreenenter"",""5"",""10712""
","
",468.9300000027288,NA,48,NA,NA,3000,1,NA,NA,images/redplanet1.jpg,images/alien2,images/alien1,images/rocket1,images/alien2,images/nothing.png,2,real,true,2,common,0,2020-06-15T22:28:26Z,sub56
two-step-fixation,218,697500,0.0-76.0-2.27,TRUE,TRUE,TRUE,FALSE,"""event"",""trial"",""time""
""fullscreenenter"",""5"",""10712""
","
","
","""event"",""trial"",""time""
""fullscreenenter"",""5"",""10712""
","
",NA,images/earth.jpg,NA,NA,NA,NA,NA,NA,NA,NA,NA,NA,NA,NA,NA,fixation,NA,NA,NA,NA,NA,NA,sub56
d3-animate-choice,219,699796,0.0-76.0-0.28,TRUE,TRUE,TRUE,FALSE,"""event"",""trial"",""time""
""fullscreenenter"",""5"",""10712""
","
","
","""event"",""trial"",""time""
""fullscreenenter"",""5"",""10712""
","
",292.9349999977276,NA,48,NA,NA,3000,1,NA,NA,images/earth.jpg,images/rocket2,images/rocket1,null,images/rocket2,NA,1,real,null,2,NA,NA,NA,sub56
d3-animate-choice,220,702957,0.0-76.0-1.28,TRUE,TRUE,TRUE,FALSE,"""event"",""trial"",""time""
""fullscreenenter"",""5"",""10712""
","
","
","""event"",""trial"",""time""
""fullscreenenter"",""5"",""10712""
","
",1158.9200000017881,NA,49,NA,NA,3000,1,NA,NA,images/purpleplanet.jpg,images/alien4,images/alien3,images/rocket2,images/alien3,images/nothing.png,2,real,true,1,common,0,2020-06-15T22:28:33Z,sub56
two-step-fixation,221,703960,0.0-76.0-2.28,TRUE,TRUE,TRUE,FALSE,"""event"",""trial"",""time""
""fullscreenenter"",""5"",""10712""
","
","
","""event"",""trial"",""time""
""fullscreenenter"",""5"",""10712""
","
",NA,images/earth.jpg,NA,NA,NA,NA,NA,NA,NA,NA,NA,NA,NA,NA,NA,fixation,NA,NA,NA,NA,NA,NA,sub56
d3-animate-choice,222,706264,0.0-76.0-0.29,TRUE,TRUE,TRUE,FALSE,"""event"",""trial"",""time""
""fullscreenenter"",""5"",""10712""
","
","
","""event"",""trial"",""time""
""fullscreenenter"",""5"",""10712""
","
",301.53000000072643,NA,48,NA,NA,3000,1,NA,NA,images/earth.jpg,images/rocket2,images/rocket1,null,images/rocket2,NA,1,real,null,2,NA,NA,NA,sub56
d3-animate-choice,223,708656,0.0-76.0-1.29,TRUE,TRUE,TRUE,FALSE,"""event"",""trial"",""time""
""fullscreenenter"",""5"",""10712""
","
","
","""event"",""trial"",""time""
""fullscreenenter"",""5"",""10712""
","
",388.8299999998417,NA,48,NA,NA,3000,1,NA,NA,images/purpleplanet.jpg,images/alien4,images/alien3,images/rocket2,images/alien4,images/t.png,2,real,true,2,common,1,2020-06-15T22:28:39Z,sub56
two-step-fixation,224,709659,0.0-76.0-2.29,TRUE,TRUE,TRUE,FALSE,"""event"",""trial"",""time""
""fullscreenenter"",""5"",""10712""
","
","
","""event"",""trial"",""time""
""fullscreenenter"",""5"",""10712""
","
",NA,images/earth.jpg,NA,NA,NA,NA,NA,NA,NA,NA,NA,NA,NA,NA,NA,fixation,NA,NA,NA,NA,NA,NA,sub56
d3-animate-choice,225,711948,0.0-76.0-0.30,TRUE,TRUE,TRUE,FALSE,"""event"",""trial"",""time""
""fullscreenenter"",""5"",""10712""
","
","
","""event"",""trial"",""time""
""fullscreenenter"",""5"",""10712""
","
",284.88500000094064,NA,48,NA,NA,3000,1,NA,NA,images/earth.jpg,images/rocket2,images/rocket1,null,images/rocket2,NA,1,real,null,2,NA,NA,NA,sub56
d3-animate-choice,226,714336,0.0-76.0-1.30,TRUE,TRUE,TRUE,FALSE,"""event"",""trial"",""time""
""fullscreenenter"",""5"",""10712""
","
","
","""event"",""trial"",""time""
""fullscreenenter"",""5"",""10712""
","
",384.8550000002142,NA,48,NA,NA,3000,1,NA,NA,images/purpleplanet.jpg,images/alien4,images/alien3,images/rocket2,images/alien4,images/t.png,2,real,true,2,common,1,2020-06-15T22:28:44Z,sub56
two-step-fixation,227,715338,0.0-76.0-2.30,TRUE,TRUE,TRUE,FALSE,"""event"",""trial"",""time""
""fullscreenenter"",""5"",""10712""
","
","
","""event"",""trial"",""time""
""fullscreenenter"",""5"",""10712""
","
",NA,images/earth.jpg,NA,NA,NA,NA,NA,NA,NA,NA,NA,NA,NA,NA,NA,fixation,NA,NA,NA,NA,NA,NA,sub56
d3-animate-choice,228,717625,0.0-76.0-0.31,TRUE,TRUE,TRUE,FALSE,"""event"",""trial"",""time""
""fullscreenenter"",""5"",""10712""
","
","
","""event"",""trial"",""time""
""fullscreenenter"",""5"",""10712""
","
",285.6199999987148,NA,48,NA,NA,3000,1,NA,NA,images/earth.jpg,images/rocket2,images/rocket1,null,images/rocket2,NA,1,real,null,2,NA,NA,NA,sub56
d3-animate-choice,229,720433,0.0-76.0-1.31,TRUE,TRUE,TRUE,FALSE,"""event"",""trial"",""time""
""fullscreenenter"",""5"",""10712""
","
","
","""event"",""trial"",""time""
""fullscreenenter"",""5"",""10712""
","
",804.6700000014389,NA,48,NA,NA,3000,1,1307.700000001234,48,images/purpleplanet.jpg,images/alien4,images/alien3,images/rocket2,images/alien4,images/nothing.png,2,real,true,2,common,0,2020-06-15T22:28:50Z,sub56
two-step-fixation,230,721436,0.0-76.0-2.31,TRUE,TRUE,TRUE,FALSE,"""event"",""trial"",""time""
""fullscreenenter"",""5"",""10712""
","
","
","""event"",""trial"",""time""
""fullscreenenter"",""5"",""10712""
","
",NA,images/earth.jpg,NA,NA,NA,NA,NA,NA,NA,NA,NA,NA,NA,NA,NA,fixation,NA,NA,NA,NA,NA,NA,sub56
d3-animate-choice,231,723731,0.0-76.0-0.32,TRUE,TRUE,TRUE,FALSE,"""event"",""trial"",""time""
""fullscreenenter"",""5"",""10712""
","
","
","""event"",""trial"",""time""
""fullscreenenter"",""5"",""10712""
","
",292.7049999998417,NA,48,NA,NA,3000,1,NA,NA,images/earth.jpg,images/rocket2,images/rocket1,null,images/rocket2,NA,1,real,null,2,NA,NA,NA,sub56
d3-animate-choice,232,726075,0.0-76.0-1.32,TRUE,TRUE,TRUE,FALSE,"""event"",""trial"",""time""
""fullscreenenter"",""5"",""10712""
","
","
","""event"",""trial"",""time""
""fullscreenenter"",""5"",""10712""
","
",341.7699999990873,NA,48,NA,NA,3000,1,NA,NA,images/purpleplanet.jpg,images/alien4,images/alien3,images/rocket2,images/alien4,images/t.png,2,real,true,2,common,1,2020-06-15T22:28:56Z,sub56
two-step-fixation,233,727078,0.0-76.0-2.32,TRUE,TRUE,TRUE,FALSE,"""event"",""trial"",""time""
""fullscreenenter"",""5"",""10712""
","
","
","""event"",""trial"",""time""
""fullscreenenter"",""5"",""10712""
","
",NA,images/earth.jpg,NA,NA,NA,NA,NA,NA,NA,NA,NA,NA,NA,NA,NA,fixation,NA,NA,NA,NA,NA,NA,sub56
d3-animate-choice,234,729106,0.0-76.0-0.33,TRUE,TRUE,TRUE,FALSE,"""event"",""trial"",""time""
""fullscreenenter"",""5"",""10712""
","
","
","""event"",""trial"",""time""
""fullscreenenter"",""5"",""10712""
","
",24.675000000512227,NA,48,NA,NA,3000,1,"266.6800000006333,451.6150000017369",4848,images/earth.jpg,images/rocket2,images/rocket1,null,images/rocket2,NA,1,real,null,2,NA,NA,NA,sub56
d3-animate-choice,235,731424,0.0-76.0-1.33,TRUE,TRUE,TRUE,FALSE,"""event"",""trial"",""time""
""fullscreenenter"",""5"",""10712""
","
","
","""event"",""trial"",""time""
""fullscreenenter"",""5"",""10712""
","
",315.6249999993015,NA,48,NA,NA,3000,1,"476.42500000074506,630.5900000006659",4848,images/purpleplanet.jpg,images/alien4,images/alien3,images/rocket2,images/alien4,images/nothing.png,2,real,true,2,common,0,2020-06-15T22:29:01Z,sub56
two-step-fixation,236,732427,0.0-76.0-2.33,TRUE,TRUE,TRUE,FALSE,"""event"",""trial"",""time""
""fullscreenenter"",""5"",""10712""
","
","
","""event"",""trial"",""time""
""fullscreenenter"",""5"",""10712""
","
",NA,images/earth.jpg,NA,NA,NA,NA,NA,NA,NA,NA,NA,NA,NA,NA,NA,fixation,NA,NA,NA,NA,NA,NA,sub56
d3-animate-choice,237,734782,0.0-76.0-0.34,TRUE,TRUE,TRUE,FALSE,"""event"",""trial"",""time""
""fullscreenenter"",""5"",""10712""
","
","
","""event"",""trial"",""time""
""fullscreenenter"",""5"",""10712""
","
",351.9850000011502,NA,48,NA,NA,3000,1,NA,NA,images/earth.jpg,images/rocket2,images/rocket1,null,images/rocket2,NA,1,real,null,2,NA,NA,NA,sub56
d3-animate-choice,238,737211,0.0-76.0-1.34,TRUE,TRUE,TRUE,FALSE,"""event"",""trial"",""time""
""fullscreenenter"",""5"",""10712""
","
","
","""event"",""trial"",""time""
""fullscreenenter"",""5"",""10712""
","
",425.6099999983562,NA,48,NA,NA,3000,1,NA,NA,images/redplanet1.jpg,images/alien2,images/alien1,images/rocket2,images/alien2,images/t.png,2,real,false,2,rare,1,2020-06-15T22:29:07Z,sub56
two-step-fixation,239,738214,0.0-76.0-2.34,TRUE,TRUE,TRUE,FALSE,"""event"",""trial"",""time""
""fullscreenenter"",""5"",""10712""
","
","
","""event"",""trial"",""time""
""fullscreenenter"",""5"",""10712""
","
",NA,images/earth.jpg,NA,NA,NA,NA,NA,NA,NA,NA,NA,NA,NA,NA,NA,fixation,NA,NA,NA,NA,NA,NA,sub56
d3-animate-choice,240,740706,0.0-76.0-0.35,TRUE,TRUE,TRUE,FALSE,"""event"",""trial"",""time""
""fullscreenenter"",""5"",""10712""
","
","
","""event"",""trial"",""time""
""fullscreenenter"",""5"",""10712""
","
",488.7899999994552,NA,48,NA,NA,3000,1,NA,NA,images/earth.jpg,images/rocket2,images/rocket1,null,images/rocket2,NA,1,real,null,2,NA,NA,NA,sub56
d3-animate-choice,241,743130,0.0-76.0-1.35,TRUE,TRUE,TRUE,FALSE,"""event"",""trial"",""time""
""fullscreenenter"",""5"",""10712""
","
","
","""event"",""trial"",""time""
""fullscreenenter"",""5"",""10712""
","
",420.2800000021234,NA,48,NA,NA,3000,1,NA,NA,images/purpleplanet.jpg,images/alien4,images/alien3,images/rocket2,images/alien4,images/nothing.png,2,real,true,2,common,0,2020-06-15T22:29:13Z,sub56
two-step-fixation,242,744132,0.0-76.0-2.35,TRUE,TRUE,TRUE,FALSE,"""event"",""trial"",""time""
""fullscreenenter"",""5"",""10712""
","
","
","""event"",""trial"",""time""
""fullscreenenter"",""5"",""10712""
","
",NA,images/earth.jpg,NA,NA,NA,NA,NA,NA,NA,NA,NA,NA,NA,NA,NA,fixation,NA,NA,NA,NA,NA,NA,sub56
d3-animate-choice,243,746549,0.0-76.0-0.36,TRUE,TRUE,TRUE,FALSE,"""event"",""trial"",""time""
""fullscreenenter"",""5"",""10712""
","
","
","""event"",""trial"",""time""
""fullscreenenter"",""5"",""10712""
","
",414.60499999811873,NA,49,NA,NA,3000,1,NA,NA,images/earth.jpg,images/rocket2,images/rocket1,null,images/rocket1,NA,1,real,null,1,NA,NA,NA,sub56
d3-animate-choice,244,749570,0.0-76.0-1.36,TRUE,TRUE,TRUE,FALSE,"""event"",""trial"",""time""
""fullscreenenter"",""5"",""10712""
","
","
","""event"",""trial"",""time""
""fullscreenenter"",""5"",""10712""
","
",1017.5100000014063,NA,48,NA,NA,3000,1,NA,NA,images/purpleplanet.jpg,images/alien4,images/alien3,images/rocket1,images/alien4,images/t.png,2,real,false,2,rare,1,2020-06-15T22:29:19Z,sub56
two-step-fixation,245,750572,0.0-76.0-2.36,TRUE,TRUE,TRUE,FALSE,"""event"",""trial"",""time""
""fullscreenenter"",""5"",""10712""
","
","
","""event"",""trial"",""time""
""fullscreenenter"",""5"",""10712""
","
",NA,images/earth.jpg,NA,NA,NA,NA,NA,NA,NA,NA,NA,NA,NA,NA,NA,fixation,NA,NA,NA,NA,NA,NA,sub56
d3-animate-choice,246,752929,0.0-76.0-0.37,TRUE,TRUE,TRUE,FALSE,"""event"",""trial"",""time""
""fullscreenenter"",""5"",""10712""
","
","
","""event"",""trial"",""time""
""fullscreenenter"",""5"",""10712""
","
",353.4749999998603,NA,49,NA,NA,3000,1,NA,NA,images/earth.jpg,images/rocket2,images/rocket1,null,images/rocket1,NA,1,real,null,1,NA,NA,NA,sub56
d3-animate-choice,247,755376,0.0-76.0-1.37,TRUE,TRUE,TRUE,FALSE,"""event"",""trial"",""time""
""fullscreenenter"",""5"",""10712""
","
","
","""event"",""trial"",""time""
""fullscreenenter"",""5"",""10712""
","
",443.51000000105705,NA,48,NA,NA,3000,1,NA,NA,images/redplanet1.jpg,images/alien2,images/alien1,images/rocket1,images/alien2,images/nothing.png,2,real,true,2,common,0,2020-06-15T22:29:25Z,sub56
two-step-fixation,248,756380,0.0-76.0-2.37,TRUE,TRUE,TRUE,FALSE,"""event"",""trial"",""time""
""fullscreenenter"",""5"",""10712""
","
","
","""event"",""trial"",""time""
""fullscreenenter"",""5"",""10712""
","
",NA,images/earth.jpg,NA,NA,NA,NA,NA,NA,NA,NA,NA,NA,NA,NA,NA,fixation,NA,NA,NA,NA,NA,NA,sub56
d3-animate-choice,249,758718,0.0-76.0-0.38,TRUE,TRUE,TRUE,FALSE,"""event"",""trial"",""time""
""fullscreenenter"",""5"",""10712""
","
","
","""event"",""trial"",""time""
""fullscreenenter"",""5"",""10712""
","
",335.5249999986263,NA,48,NA,NA,3000,1,NA,NA,images/earth.jpg,images/rocket2,images/rocket1,null,images/rocket2,NA,1,real,null,2,NA,NA,NA,sub56
d3-animate-choice,250,760850,0.0-76.0-1.38,TRUE,TRUE,TRUE,FALSE,"""event"",""trial"",""time""
""fullscreenenter"",""5"",""10712""
","
","
","""event"",""trial"",""time""
""fullscreenenter"",""5"",""10712""
","
",128.14500000234693,NA,48,NA,NA,3000,1,NA,NA,images/redplanet1.jpg,images/alien2,images/alien1,images/rocket2,images/alien2,images/t.png,2,real,false,2,rare,1,2020-06-15T22:29:31Z,sub56
two-step-fixation,251,761853,0.0-76.0-2.38,TRUE,TRUE,TRUE,FALSE,"""event"",""trial"",""time""
""fullscreenenter"",""5"",""10712""
","
","
","""event"",""trial"",""time""
""fullscreenenter"",""5"",""10712""
","
",NA,images/earth.jpg,NA,NA,NA,NA,NA,NA,NA,NA,NA,NA,NA,NA,NA,fixation,NA,NA,NA,NA,NA,NA,sub56
d3-animate-choice,252,764157,0.0-76.0-0.39,TRUE,TRUE,TRUE,FALSE,"""event"",""trial"",""time""
""fullscreenenter"",""5"",""10712""
","
","
","""event"",""trial"",""time""
""fullscreenenter"",""5"",""10712""
","
",300.64000000129454,NA,48,NA,NA,3000,1,NA,NA,images/earth.jpg,images/rocket2,images/rocket1,null,images/rocket2,NA,1,real,null,2,NA,NA,NA,sub56
d3-animate-choice,253,766594,0.0-76.0-1.39,TRUE,TRUE,TRUE,FALSE,"""event"",""trial"",""time""
""fullscreenenter"",""5"",""10712""
","
","
","""event"",""trial"",""time""
""fullscreenenter"",""5"",""10712""
","
",433.3650000008056,NA,48,NA,NA,3000,1,NA,NA,images/redplanet1.jpg,images/alien2,images/alien1,images/rocket2,images/alien2,images/nothing.png,2,real,false,2,rare,0,2020-06-15T22:29:36Z,sub56
two-step-fixation,254,767597,0.0-76.0-2.39,TRUE,TRUE,TRUE,FALSE,"""event"",""trial"",""time""
""fullscreenenter"",""5"",""10712""
","
","
","""event"",""trial"",""time""
""fullscreenenter"",""5"",""10712""
","
",NA,images/earth.jpg,NA,NA,NA,NA,NA,NA,NA,NA,NA,NA,NA,NA,NA,fixation,NA,NA,NA,NA,NA,NA,sub56
d3-animate-choice,255,769917,0.0-76.0-0.40,TRUE,TRUE,TRUE,FALSE,"""event"",""trial"",""time""
""fullscreenenter"",""5"",""10712""
","
","
","""event"",""trial"",""time""
""fullscreenenter"",""5"",""10712""
","
",315.38000000000466,NA,49,NA,NA,3000,1,NA,NA,images/earth.jpg,images/rocket2,images/rocket1,null,images/rocket1,NA,1,real,null,1,NA,NA,NA,sub56
d3-animate-choice,256,772408,0.0-76.0-1.40,TRUE,TRUE,TRUE,FALSE,"""event"",""trial"",""time""
""fullscreenenter"",""5"",""10712""
","
","
","""event"",""trial"",""time""
""fullscreenenter"",""5"",""10712""
","
",487.73500000243075,NA,49,NA,NA,3000,1,NA,NA,images/redplanet1.jpg,images/alien2,images/alien1,images/rocket1,images/alien1,images/nothing.png,2,real,true,1,common,0,2020-06-15T22:29:42Z,sub56
two-step-fixation,257,773410,0.0-76.0-2.40,TRUE,TRUE,TRUE,FALSE,"""event"",""trial"",""time""
""fullscreenenter"",""5"",""10712""
","
","
","""event"",""trial"",""time""
""fullscreenenter"",""5"",""10712""
","
",NA,images/earth.jpg,NA,NA,NA,NA,NA,NA,NA,NA,NA,NA,NA,NA,NA,fixation,NA,NA,NA,NA,NA,NA,sub56
d3-animate-choice,258,775759,0.0-76.0-0.41,TRUE,TRUE,TRUE,FALSE,"""event"",""trial"",""time""
""fullscreenenter"",""5"",""10712""
","
","
","""event"",""trial"",""time""
""fullscreenenter"",""5"",""10712""
","
",345.4149999998044,NA,49,NA,NA,3000,1,NA,NA,images/earth.jpg,images/rocket2,images/rocket1,null,images/rocket1,NA,1,real,null,1,NA,NA,NA,sub56
d3-animate-choice,259,778174,0.0-76.0-1.41,TRUE,TRUE,TRUE,FALSE,"""event"",""trial"",""time""
""fullscreenenter"",""5"",""10712""
","
","
","""event"",""trial"",""time""
""fullscreenenter"",""5"",""10712""
","
",411.0450000007404,NA,48,NA,NA,3000,1,NA,NA,images/purpleplanet.jpg,images/alien4,images/alien3,images/rocket1,images/alien4,images/t.png,2,real,false,2,rare,1,2020-06-15T22:29:48Z,sub56
two-step-fixation,260,779177,0.0-76.0-2.41,TRUE,TRUE,TRUE,FALSE,"""event"",""trial"",""time""
""fullscreenenter"",""5"",""10712""
","
","
","""event"",""trial"",""time""
""fullscreenenter"",""5"",""10712""
","
",NA,images/earth.jpg,NA,NA,NA,NA,NA,NA,NA,NA,NA,NA,NA,NA,NA,fixation,NA,NA,NA,NA,NA,NA,sub56
d3-animate-choice,261,781508,0.0-76.0-0.42,TRUE,TRUE,TRUE,FALSE,"""event"",""trial"",""time""
""fullscreenenter"",""5"",""10712""
","
","
","""event"",""trial"",""time""
""fullscreenenter"",""5"",""10712""
","
",327.27499999967404,NA,49,NA,NA,3000,1,NA,NA,images/earth.jpg,images/rocket2,images/rocket1,null,images/rocket1,NA,1,real,null,1,NA,NA,NA,sub56
d3-animate-choice,262,783995,0.0-76.0-1.42,TRUE,TRUE,TRUE,FALSE,"""event"",""trial"",""time""
""fullscreenenter"",""5"",""10712""
","
","
","""event"",""trial"",""time""
""fullscreenenter"",""5"",""10712""
","
",484.52499999979045,NA,48,NA,NA,3000,1,NA,NA,images/purpleplanet.jpg,images/alien4,images/alien3,images/rocket1,images/alien4,images/nothing.png,2,real,false,2,rare,0,2020-06-15T22:29:54Z,sub56
two-step-fixation,263,784998,0.0-76.0-2.42,TRUE,TRUE,TRUE,FALSE,"""event"",""trial"",""time""
""fullscreenenter"",""5"",""10712""
","
","
","""event"",""trial"",""time""
""fullscreenenter"",""5"",""10712""
","
",NA,images/earth.jpg,NA,NA,NA,NA,NA,NA,NA,NA,NA,NA,NA,NA,NA,fixation,NA,NA,NA,NA,NA,NA,sub56
d3-animate-choice,264,787356,0.0-76.0-0.43,TRUE,TRUE,TRUE,FALSE,"""event"",""trial"",""time""
""fullscreenenter"",""5"",""10712""
","
","
","""event"",""trial"",""time""
""fullscreenenter"",""5"",""10712""
","
",355.1850000004051,NA,48,NA,NA,3000,1,NA,NA,images/earth.jpg,images/rocket2,images/rocket1,null,images/rocket2,NA,1,real,null,2,NA,NA,NA,sub56
d3-animate-choice,265,789765,0.0-76.0-1.43,TRUE,TRUE,TRUE,FALSE,"""event"",""trial"",""time""
""fullscreenenter"",""5"",""10712""
","
","
","""event"",""trial"",""time""
""fullscreenenter"",""5"",""10712""
","
",406.21500000264496,NA,48,NA,NA,3000,1,NA,NA,images/purpleplanet.jpg,images/alien4,images/alien3,images/rocket2,images/alien4,images/t.png,2,real,true,2,common,1,2020-06-15T22:30:00Z,sub56
two-step-fixation,266,790768,0.0-76.0-2.43,TRUE,TRUE,TRUE,FALSE,"""event"",""trial"",""time""
""fullscreenenter"",""5"",""10712""
","
","
","""event"",""trial"",""time""
""fullscreenenter"",""5"",""10712""
","
",NA,images/earth.jpg,NA,NA,NA,NA,NA,NA,NA,NA,NA,NA,NA,NA,NA,fixation,NA,NA,NA,NA,NA,NA,sub56
d3-animate-choice,267,793077,0.0-76.0-0.44,TRUE,TRUE,TRUE,FALSE,"""event"",""trial"",""time""
""fullscreenenter"",""5"",""10712""
","
","
","""event"",""trial"",""time""
""fullscreenenter"",""5"",""10712""
","
",306.13499999884516,NA,49,NA,NA,3000,1,NA,NA,images/earth.jpg,images/rocket2,images/rocket1,null,images/rocket1,NA,1,real,null,1,NA,NA,NA,sub56
d3-animate-choice,268,795702,0.0-76.0-1.44,TRUE,TRUE,TRUE,FALSE,"""event"",""trial"",""time""
""fullscreenenter"",""5"",""10712""
","
","
","""event"",""trial"",""time""
""fullscreenenter"",""5"",""10712""
","
",621.2599999998929,NA,48,NA,NA,3000,1,NA,NA,images/redplanet1.jpg,images/alien2,images/alien1,images/rocket1,images/alien2,images/t.png,2,real,true,2,common,1,2020-06-15T22:30:06Z,sub56
two-step-fixation,269,796705,0.0-76.0-2.44,TRUE,TRUE,TRUE,FALSE,"""event"",""trial"",""time""
""fullscreenenter"",""5"",""10712""
","
","
","""event"",""trial"",""time""
""fullscreenenter"",""5"",""10712""
","
",NA,images/earth.jpg,NA,NA,NA,NA,NA,NA,NA,NA,NA,NA,NA,NA,NA,fixation,NA,NA,NA,NA,NA,NA,sub56
d3-animate-choice,270,799193,0.0-76.0-0.45,TRUE,TRUE,TRUE,FALSE,"""event"",""trial"",""time""
""fullscreenenter"",""5"",""10712""
","
","
","""event"",""trial"",""time""
""fullscreenenter"",""5"",""10712""
","
",484.26499999919906,NA,49,NA,NA,3000,1,NA,NA,images/earth.jpg,images/rocket2,images/rocket1,null,images/rocket1,NA,1,real,null,1,NA,NA,NA,sub56
d3-animate-choice,271,801635,0.0-76.0-1.45,TRUE,TRUE,TRUE,FALSE,"""event"",""trial"",""time""
""fullscreenenter"",""5"",""10712""
","
","
","""event"",""trial"",""time""
""fullscreenenter"",""5"",""10712""
","
",438.9599999994971,NA,48,NA,NA,3000,1,NA,NA,images/purpleplanet.jpg,images/alien4,images/alien3,images/rocket1,images/alien4,images/t.png,2,real,false,2,rare,1,2020-06-15T22:30:12Z,sub56
two-step-fixation,272,802638,0.0-76.0-2.45,TRUE,TRUE,TRUE,FALSE,"""event"",""trial"",""time""
""fullscreenenter"",""5"",""10712""
","
","
","""event"",""trial"",""time""
""fullscreenenter"",""5"",""10712""
","
",NA,images/earth.jpg,NA,NA,NA,NA,NA,NA,NA,NA,NA,NA,NA,NA,NA,fixation,NA,NA,NA,NA,NA,NA,sub56
d3-animate-choice,273,805151,0.0-76.0-0.46,TRUE,TRUE,TRUE,FALSE,"""event"",""trial"",""time""
""fullscreenenter"",""5"",""10712""
","
","
","""event"",""trial"",""time""
""fullscreenenter"",""5"",""10712""
","
",509.79000000003725,NA,48,NA,NA,3000,1,NA,NA,images/earth.jpg,images/rocket2,images/rocket1,null,images/rocket2,NA,1,real,null,2,NA,NA,NA,sub56
d3-animate-choice,274,807669,0.0-76.0-1.46,TRUE,TRUE,TRUE,FALSE,"""event"",""trial"",""time""
""fullscreenenter"",""5"",""10712""
","
","
","""event"",""trial"",""time""
""fullscreenenter"",""5"",""10712""
","
",514.0900000005495,NA,48,NA,NA,3000,1,NA,NA,images/purpleplanet.jpg,images/alien4,images/alien3,images/rocket2,images/alien4,images/nothing.png,2,real,true,2,common,0,2020-06-15T22:30:18Z,sub56
two-step-fixation,275,808671,0.0-76.0-2.46,TRUE,TRUE,TRUE,FALSE,"""event"",""trial"",""time""
""fullscreenenter"",""5"",""10712""
","
","
","""event"",""trial"",""time""
""fullscreenenter"",""5"",""10712""
","
",NA,images/earth.jpg,NA,NA,NA,NA,NA,NA,NA,NA,NA,NA,NA,NA,NA,fixation,NA,NA,NA,NA,NA,NA,sub56
d3-animate-choice,276,811247,0.0-76.0-0.47,TRUE,TRUE,TRUE,FALSE,"""event"",""trial"",""time""
""fullscreenenter"",""5"",""10712""
","
","
","""event"",""trial"",""time""
""fullscreenenter"",""5"",""10712""
","
",573.275000002468,NA,49,NA,NA,3000,1,NA,NA,images/earth.jpg,images/rocket2,images/rocket1,null,images/rocket1,NA,1,real,null,1,NA,NA,NA,sub56
d3-animate-choice,277,813637,0.0-76.0-1.47,TRUE,TRUE,TRUE,FALSE,"""event"",""trial"",""time""
""fullscreenenter"",""5"",""10712""
","
","
","""event"",""trial"",""time""
""fullscreenenter"",""5"",""10712""
","
",387.09499999822583,NA,48,NA,NA,3000,1,NA,NA,images/redplanet1.jpg,images/alien2,images/alien1,images/rocket1,images/alien2,images/t.png,2,real,true,2,common,1,2020-06-15T22:30:24Z,sub56
two-step-fixation,278,814640,0.0-76.0-2.47,TRUE,TRUE,TRUE,FALSE,"""event"",""trial"",""time""
""fullscreenenter"",""5"",""10712""
","
","
","""event"",""trial"",""time""
""fullscreenenter"",""5"",""10712""
","
",NA,images/earth.jpg,NA,NA,NA,NA,NA,NA,NA,NA,NA,NA,NA,NA,NA,fixation,NA,NA,NA,NA,NA,NA,sub56
d3-animate-choice,279,817349,0.0-76.0-0.48,TRUE,TRUE,TRUE,FALSE,"""event"",""trial"",""time""
""fullscreenenter"",""5"",""10712""
","
","
","""event"",""trial"",""time""
""fullscreenenter"",""5"",""10712""
","
",705.0199999975739,NA,48,NA,NA,3000,1,NA,NA,images/earth.jpg,images/rocket2,images/rocket1,null,images/rocket2,NA,1,real,null,2,NA,NA,NA,sub56
d3-animate-choice,280,819772,0.0-76.0-1.48,TRUE,TRUE,TRUE,FALSE,"""event"",""trial"",""time""
""fullscreenenter"",""5"",""10712""
","
","
","""event"",""trial"",""time""
""fullscreenenter"",""5"",""10712""
","
",418.99000000185333,NA,48,NA,NA,3000,1,NA,NA,images/redplanet1.jpg,images/alien2,images/alien1,images/rocket2,images/alien2,images/nothing.png,2,real,false,2,rare,0,2020-06-15T22:30:30Z,sub56
two-step-fixation,281,820775,0.0-76.0-2.48,TRUE,TRUE,TRUE,FALSE,"""event"",""trial"",""time""
""fullscreenenter"",""5"",""10712""
","
","
","""event"",""trial"",""time""
""fullscreenenter"",""5"",""10712""
","
",NA,images/earth.jpg,NA,NA,NA,NA,NA,NA,NA,NA,NA,NA,NA,NA,NA,fixation,NA,NA,NA,NA,NA,NA,sub56
d3-animate-choice,282,822851,0.0-76.0-0.49,TRUE,TRUE,TRUE,FALSE,"""event"",""trial"",""time""
""fullscreenenter"",""5"",""10712""
","
","
","""event"",""trial"",""time""
""fullscreenenter"",""5"",""10712""
","
",71.929999998305,NA,48,NA,NA,3000,1,"237.8949999983888,533.0050000011688,693.0050000010524",484848,images/earth.jpg,images/rocket2,images/rocket1,null,images/rocket2,NA,1,real,null,2,NA,NA,NA,sub56
d3-animate-choice,283,825134,0.0-76.0-1.49,TRUE,TRUE,TRUE,FALSE,"""event"",""trial"",""time""
""fullscreenenter"",""5"",""10712""
","
","
","""event"",""trial"",""time""
""fullscreenenter"",""5"",""10712""
","
",278.88499999966007,NA,48,NA,NA,3000,1,NA,NA,images/redplanet1.jpg,images/alien2,images/alien1,images/rocket2,images/alien2,images/t.png,2,real,false,2,rare,1,2020-06-15T22:30:35Z,sub56
