trial_type,trial_index,time_elapsed,internal_node_id,rocket_sides,red_planet_first_rocket,red_display_order,purple_display_order,interactions,blur_events,focus_events,fullscreenenter_events,fullscreenexit_events,rt,stimulus,key_press,button_pressed,success,duration,valid_pressed,rts,keys,planet_text,right_text,left_text,center_text,chosen_text,reward_text,trial_stage,practice_trial,transition_type,choice,transition,reward,timestamp,subject_id
pavlovia,0,9,0.0-0.0,TRUE,FALSE,FALSE,FALSE,"
","
","
","
","
",NA,NA,NA,NA,NA,NA,NA,NA,NA,NA,NA,NA,NA,NA,NA,NA,NA,NA,NA,NA,NA,NA,sub114
html-keyboard-response,1,2129,0.0-1.0,TRUE,FALSE,FALSE,FALSE,"
","
","
","
","
",2119,Welcome! Press the space bar to begin.,32,NA,NA,NA,NA,NA,NA,NA,NA,NA,NA,NA,NA,NA,NA,NA,NA,NA,NA,NA,sub114
audio-keyboard-response,2,4876,0.0-2.0,TRUE,FALSE,FALSE,FALSE,"
","
","
","
","
",2705,audio/beep_loop.wav,32,NA,NA,NA,NA,NA,NA,NA,NA,NA,NA,NA,NA,NA,NA,NA,NA,NA,NA,NA,sub114
audio-button-response,3,6828,0.0-3.0,TRUE,FALSE,FALSE,FALSE,"
","
","
","
","
",NaN,audio/fish.mp3,NA,1,NA,NA,NA,NA,NA,NA,NA,NA,NA,NA,NA,NA,NA,NA,NA,NA,NA,NA,sub114
audio-button-response,4,9318,0.0-4.0,TRUE,FALSE,FALSE,FALSE,"""event"",""trial"",""time""
""fullscreenenter"",""5"",""12616""
","
","
","""event"",""trial"",""time""
""fullscreenenter"",""5"",""12616""
","
",NaN,audio/tiger.mp3,NA,4,NA,NA,NA,NA,NA,NA,NA,NA,NA,NA,NA,NA,NA,NA,NA,NA,NA,NA,sub114
fullscreen,5,13561,0.0-5.0,TRUE,FALSE,FALSE,FALSE,"""event"",""trial"",""time""
""fullscreenenter"",""5"",""12616""
","
","
","""event"",""trial"",""time""
""fullscreenenter"",""5"",""12616""
","
",NA,NA,NA,NA,TRUE,NA,NA,NA,NA,NA,NA,NA,NA,NA,NA,NA,NA,NA,NA,NA,NA,NA,sub114
d3-instructions,6,28471,0.0-6.0,TRUE,FALSE,FALSE,FALSE,"""event"",""trial"",""time""
""fullscreenenter"",""5"",""12616""
","
","
","""event"",""trial"",""time""
""fullscreenenter"",""5"",""12616""
","
",NA,NA,NA,NA,NA,NA,NA,NA,NA,NA,NA,NA,NA,NA,NA,NA,NA,NA,NA,NA,NA,NA,sub114
d3-instructions,7,36560,0.0-7.0,TRUE,FALSE,FALSE,FALSE,"""event"",""trial"",""time""
""fullscreenenter"",""5"",""12616""
","
","
","""event"",""trial"",""time""
""fullscreenenter"",""5"",""12616""
","
",NA,NA,NA,NA,NA,NA,NA,NA,NA,NA,NA,NA,NA,NA,NA,NA,NA,NA,NA,NA,NA,NA,sub114
d3-instructions,8,43619,0.0-8.0,TRUE,FALSE,FALSE,FALSE,"""event"",""trial"",""time""
""fullscreenenter"",""5"",""12616""
","
","
","""event"",""trial"",""time""
""fullscreenenter"",""5"",""12616""
","
",NA,NA,NA,NA,NA,NA,NA,NA,NA,NA,NA,NA,NA,NA,NA,NA,NA,NA,NA,NA,NA,NA,sub114
d3-instructions,9,54826,0.0-9.0,TRUE,FALSE,FALSE,FALSE,"""event"",""trial"",""time""
""fullscreenenter"",""5"",""12616""
","
","
","""event"",""trial"",""time""
""fullscreenenter"",""5"",""12616""
","
",NA,NA,NA,NA,NA,NA,NA,NA,NA,NA,NA,NA,NA,NA,NA,NA,NA,NA,NA,NA,NA,NA,sub114
d3-instructions,10,76194,0.0-10.0,TRUE,FALSE,FALSE,FALSE,"""event"",""trial"",""time""
""fullscreenenter"",""5"",""12616""
","
","
","""event"",""trial"",""time""
""fullscreenenter"",""5"",""12616""
","
",NA,NA,NA,NA,NA,NA,NA,NA,NA,NA,NA,NA,NA,NA,NA,NA,NA,NA,NA,NA,NA,NA,sub114
d3-animate-choice,11,79124,0.0-11.0,TRUE,FALSE,FALSE,FALSE,"""event"",""trial"",""time""
""fullscreenenter"",""5"",""12616""
","
","
","""event"",""trial"",""time""
""fullscreenenter"",""5"",""12616""
","
",926,NA,49,NA,NA,3000,1,1694,48,images/tutgreenplanet.jpg,images/tutalien1,images/tutalien2,null,images/tutalien2,NA,NA,practice,null,NA,NA,NA,NA,sub114
d3-animate-choice,12,81958,0.0-12.0,TRUE,FALSE,FALSE,FALSE,"""event"",""trial"",""time""
""fullscreenenter"",""5"",""12616""
","
","
","""event"",""trial"",""time""
""fullscreenenter"",""5"",""12616""
","
",832,NA,48,NA,NA,3000,1,NA,NA,images/tutgreenplanet.jpg,images/tutalien1,images/tutalien2,null,images/tutalien1,NA,NA,practice,null,NA,NA,NA,NA,sub114
d3-animate-choice,13,85296,0.0-13.0,TRUE,FALSE,FALSE,FALSE,"""event"",""trial"",""time""
""fullscreenenter"",""5"",""12616""
","
","
","""event"",""trial"",""time""
""fullscreenenter"",""5"",""12616""
","
",1335.9999999999854,NA,48,NA,NA,3000,1,NA,NA,images/tutgreenplanet.jpg,images/tutalien1,images/tutalien2,null,images/tutalien1,NA,NA,practice,null,NA,NA,NA,NA,sub114
d3-animate-choice,14,87847,0.0-14.0,TRUE,FALSE,FALSE,FALSE,"""event"",""trial"",""time""
""fullscreenenter"",""5"",""12616""
","
","
","""event"",""trial"",""time""
""fullscreenenter"",""5"",""12616""
","
",549.0000000000146,NA,49,NA,NA,3000,1,NA,NA,images/tutgreenplanet.jpg,images/tutalien1,images/tutalien2,null,images/tutalien2,NA,NA,practice,null,NA,NA,NA,NA,sub114
d3-instructions,15,94383,0.0-15.0,TRUE,FALSE,FALSE,FALSE,"""event"",""trial"",""time""
""fullscreenenter"",""5"",""12616""
","
","
","""event"",""trial"",""time""
""fullscreenenter"",""5"",""12616""
","
",NA,NA,NA,NA,NA,NA,NA,NA,NA,NA,NA,NA,NA,NA,NA,NA,NA,NA,NA,NA,NA,NA,sub114
d3-instructions,16,101786,0.0-16.0,TRUE,FALSE,FALSE,FALSE,"""event"",""trial"",""time""
""fullscreenenter"",""5"",""12616""
","
","
","""event"",""trial"",""time""
""fullscreenenter"",""5"",""12616""
","
",NA,NA,NA,NA,NA,NA,NA,NA,NA,NA,NA,NA,NA,NA,NA,NA,NA,NA,NA,NA,NA,NA,sub114
d3-instructions,17,111129,0.0-17.0,TRUE,FALSE,FALSE,FALSE,"""event"",""trial"",""time""
""fullscreenenter"",""5"",""12616""
","
","
","""event"",""trial"",""time""
""fullscreenenter"",""5"",""12616""
","
",NA,NA,NA,NA,NA,NA,NA,NA,NA,NA,NA,NA,NA,NA,NA,NA,NA,NA,NA,NA,NA,NA,sub114
d3-instructions,18,124436,0.0-18.0,TRUE,FALSE,FALSE,FALSE,"""event"",""trial"",""time""
""fullscreenenter"",""5"",""12616""
","
","
","""event"",""trial"",""time""
""fullscreenenter"",""5"",""12616""
","
",NA,NA,NA,NA,NA,NA,NA,NA,NA,NA,NA,NA,NA,NA,NA,NA,NA,NA,NA,NA,NA,NA,sub114
d3-instructions,19,138613,0.0-19.0,TRUE,FALSE,FALSE,FALSE,"""event"",""trial"",""time""
""fullscreenenter"",""5"",""12616""
","
","
","""event"",""trial"",""time""
""fullscreenenter"",""5"",""12616""
","
",NA,NA,NA,NA,NA,NA,NA,NA,NA,NA,NA,NA,NA,NA,NA,NA,NA,NA,NA,NA,NA,NA,sub114
d3-animate-choice,20,141464,0.0-20.0,TRUE,FALSE,FALSE,FALSE,"""event"",""trial"",""time""
""fullscreenenter"",""5"",""12616""
","
","
","""event"",""trial"",""time""
""fullscreenenter"",""5"",""12616""
","
",847,NA,49,NA,NA,3000,1,NA,NA,images/tutyellowplanet.jpg,null,images/tutalien3,null,images/tutalien3,images/t.png,NA,practice,null,NA,NA,NA,NA,sub114
d3-animate-choice,21,143962,0.0-21.0,TRUE,FALSE,FALSE,FALSE,"""event"",""trial"",""time""
""fullscreenenter"",""5"",""12616""
","
","
","""event"",""trial"",""time""
""fullscreenenter"",""5"",""12616""
","
",495,NA,49,NA,NA,3000,1,NA,NA,images/tutyellowplanet.jpg,null,images/tutalien3,null,images/tutalien3,images/t.png,NA,practice,null,NA,NA,NA,NA,sub114
d3-animate-choice,22,146251,0.0-22.0,TRUE,FALSE,FALSE,FALSE,"""event"",""trial"",""time""
""fullscreenenter"",""5"",""12616""
","
","
","""event"",""trial"",""time""
""fullscreenenter"",""5"",""12616""
","
",286,NA,49,NA,NA,3000,1,NA,NA,images/tutyellowplanet.jpg,null,images/tutalien3,null,images/tutalien3,images/t.png,NA,practice,null,NA,NA,NA,NA,sub114
d3-animate-choice,23,148818,0.0-23.0,TRUE,FALSE,FALSE,FALSE,"""event"",""trial"",""time""
""fullscreenenter"",""5"",""12616""
","
","
","""event"",""trial"",""time""
""fullscreenenter"",""5"",""12616""
","
",563.9999999999709,NA,49,NA,NA,3000,1,NA,NA,images/tutyellowplanet.jpg,null,images/tutalien3,null,images/tutalien3,images/t.png,NA,practice,null,NA,NA,NA,NA,sub114
d3-animate-choice,24,151323,0.0-24.0,TRUE,FALSE,FALSE,FALSE,"""event"",""trial"",""time""
""fullscreenenter"",""5"",""12616""
","
","
","""event"",""trial"",""time""
""fullscreenenter"",""5"",""12616""
","
",502.9999999999709,NA,49,NA,NA,3000,1,NA,NA,images/tutyellowplanet.jpg,null,images/tutalien3,null,images/tutalien3,images/t.png,NA,practice,null,NA,NA,NA,NA,sub114
d3-animate-choice,25,153843,0.0-25.0,TRUE,FALSE,FALSE,FALSE,"""event"",""trial"",""time""
""fullscreenenter"",""5"",""12616""
","
","
","""event"",""trial"",""time""
""fullscreenenter"",""5"",""12616""
","
",518,NA,49,NA,NA,3000,1,NA,NA,images/tutyellowplanet.jpg,null,images/tutalien3,null,images/tutalien3,images/t.png,NA,practice,null,NA,NA,NA,NA,sub114
d3-animate-choice,26,156230,0.0-26.0,TRUE,FALSE,FALSE,FALSE,"""event"",""trial"",""time""
""fullscreenenter"",""5"",""12616""
","
","
","""event"",""trial"",""time""
""fullscreenenter"",""5"",""12616""
","
",384,NA,49,NA,NA,3000,1,NA,NA,images/tutyellowplanet.jpg,null,images/tutalien3,null,images/tutalien3,images/t.png,NA,practice,null,NA,NA,NA,NA,sub114
d3-animate-choice,27,158577,0.0-27.0,TRUE,FALSE,FALSE,FALSE,"""event"",""trial"",""time""
""fullscreenenter"",""5"",""12616""
","
","
","""event"",""trial"",""time""
""fullscreenenter"",""5"",""12616""
","
",344,NA,49,NA,NA,3000,1,NA,NA,images/tutyellowplanet.jpg,null,images/tutalien3,null,images/tutalien3,images/t.png,NA,practice,null,NA,NA,NA,NA,sub114
d3-animate-choice,28,160880,0.0-28.0,TRUE,FALSE,FALSE,FALSE,"""event"",""trial"",""time""
""fullscreenenter"",""5"",""12616""
","
","
","""event"",""trial"",""time""
""fullscreenenter"",""5"",""12616""
","
",301,NA,49,NA,NA,3000,1,NA,NA,images/tutyellowplanet.jpg,null,images/tutalien3,null,images/tutalien3,images/t.png,NA,practice,null,NA,NA,NA,NA,sub114
d3-animate-choice,29,163203,0.0-29.0,TRUE,FALSE,FALSE,FALSE,"""event"",""trial"",""time""
""fullscreenenter"",""5"",""12616""
","
","
","""event"",""trial"",""time""
""fullscreenenter"",""5"",""12616""
","
",320,NA,49,NA,NA,3000,1,NA,NA,images/tutyellowplanet.jpg,null,images/tutalien3,null,images/tutalien3,images/nothing.png,NA,practice,null,NA,NA,NA,NA,sub114
d3-instructions,30,169638,0.0-30.0,TRUE,FALSE,FALSE,FALSE,"""event"",""trial"",""time""
""fullscreenenter"",""5"",""12616""
","
","
","""event"",""trial"",""time""
""fullscreenenter"",""5"",""12616""
","
",NA,NA,NA,NA,NA,NA,NA,NA,NA,NA,NA,NA,NA,NA,NA,NA,NA,NA,NA,NA,NA,NA,sub114
d3-instructions,31,180577,0.0-31.0,TRUE,FALSE,FALSE,FALSE,"""event"",""trial"",""time""
""fullscreenenter"",""5"",""12616""
","
","
","""event"",""trial"",""time""
""fullscreenenter"",""5"",""12616""
","
",NA,NA,NA,NA,NA,NA,NA,NA,NA,NA,NA,NA,NA,NA,NA,NA,NA,NA,NA,NA,NA,NA,sub114
d3-instructions,32,192227,0.0-32.0,TRUE,FALSE,FALSE,FALSE,"""event"",""trial"",""time""
""fullscreenenter"",""5"",""12616""
","
","
","""event"",""trial"",""time""
""fullscreenenter"",""5"",""12616""
","
",NA,NA,NA,NA,NA,NA,NA,NA,NA,NA,NA,NA,NA,NA,NA,NA,NA,NA,NA,NA,NA,NA,sub114
d3-instructions,33,203066,0.0-33.0,TRUE,FALSE,FALSE,FALSE,"""event"",""trial"",""time""
""fullscreenenter"",""5"",""12616""
","
","
","""event"",""trial"",""time""
""fullscreenenter"",""5"",""12616""
","
",NA,NA,NA,NA,NA,NA,NA,NA,NA,NA,NA,NA,NA,NA,NA,NA,NA,NA,NA,NA,NA,NA,sub114
d3-animate-choice,34,206791,0.0-34.0,TRUE,FALSE,FALSE,FALSE,"""event"",""trial"",""time""
""fullscreenenter"",""5"",""12616""
","
","
","""event"",""trial"",""time""
""fullscreenenter"",""5"",""12616""
","
",1723,NA,49,NA,NA,3000,1,NA,NA,images/tutgreenplanet.jpg,images/tutalien1,images/tutalien2,null,images/tutalien2,images/t.png,NA,practice,null,NA,NA,NA,NA,sub114
d3-animate-choice,35,209287,0.0-35.0,TRUE,FALSE,FALSE,FALSE,"""event"",""trial"",""time""
""fullscreenenter"",""5"",""12616""
","
","
","""event"",""trial"",""time""
""fullscreenenter"",""5"",""12616""
","
",494,NA,48,NA,NA,3000,1,NA,NA,images/tutgreenplanet.jpg,images/tutalien1,images/tutalien2,null,images/tutalien1,images/nothing.png,NA,practice,null,NA,NA,NA,NA,sub114
d3-animate-choice,36,211552,0.0-36.0,TRUE,FALSE,FALSE,FALSE,"""event"",""trial"",""time""
""fullscreenenter"",""5"",""12616""
","
","
","""event"",""trial"",""time""
""fullscreenenter"",""5"",""12616""
","
",264,NA,49,NA,NA,3000,1,NA,NA,images/tutgreenplanet.jpg,images/tutalien1,images/tutalien2,null,images/tutalien2,images/t.png,NA,practice,null,NA,NA,NA,NA,sub114
d3-animate-choice,37,213880,0.0-37.0,TRUE,FALSE,FALSE,FALSE,"""event"",""trial"",""time""
""fullscreenenter"",""5"",""12616""
","
","
","""event"",""trial"",""time""
""fullscreenenter"",""5"",""12616""
","
",325,NA,48,NA,NA,3000,1,NA,NA,images/tutgreenplanet.jpg,images/tutalien1,images/tutalien2,null,images/tutalien1,images/nothing.png,NA,practice,null,NA,NA,NA,NA,sub114
d3-animate-choice,38,216152,0.0-38.0,TRUE,FALSE,FALSE,FALSE,"""event"",""trial"",""time""
""fullscreenenter"",""5"",""12616""
","
","
","""event"",""trial"",""time""
""fullscreenenter"",""5"",""12616""
","
",269,NA,49,NA,NA,3000,1,NA,NA,images/tutgreenplanet.jpg,images/tutalien1,images/tutalien2,null,images/tutalien2,images/t.png,NA,practice,null,NA,NA,NA,NA,sub114
d3-animate-choice,39,218358,0.0-39.0,TRUE,FALSE,FALSE,FALSE,"""event"",""trial"",""time""
""fullscreenenter"",""5"",""12616""
","
","
","""event"",""trial"",""time""
""fullscreenenter"",""5"",""12616""
","
",204,NA,49,NA,NA,3000,1,NA,NA,images/tutgreenplanet.jpg,images/tutalien1,images/tutalien2,null,images/tutalien2,images/t.png,NA,practice,null,NA,NA,NA,NA,sub114
d3-animate-choice,40,220561,0.0-40.0,TRUE,FALSE,FALSE,FALSE,"""event"",""trial"",""time""
""fullscreenenter"",""5"",""12616""
","
","
","""event"",""trial"",""time""
""fullscreenenter"",""5"",""12616""
","
",201,NA,49,NA,NA,3000,1,NA,NA,images/tutgreenplanet.jpg,images/tutalien1,images/tutalien2,null,images/tutalien2,images/t.png,NA,practice,null,NA,NA,NA,NA,sub114
d3-animate-choice,41,222831,0.0-41.0,TRUE,FALSE,FALSE,FALSE,"""event"",""trial"",""time""
""fullscreenenter"",""5"",""12616""
","
","
","""event"",""trial"",""time""
""fullscreenenter"",""5"",""12616""
","
",268,NA,49,NA,NA,3000,1,NA,NA,images/tutgreenplanet.jpg,images/tutalien1,images/tutalien2,null,images/tutalien2,images/t.png,NA,practice,null,NA,NA,NA,NA,sub114
d3-animate-choice,42,225134,0.0-42.0,TRUE,FALSE,FALSE,FALSE,"""event"",""trial"",""time""
""fullscreenenter"",""5"",""12616""
","
","
","""event"",""trial"",""time""
""fullscreenenter"",""5"",""12616""
","
",300,NA,49,NA,NA,3000,1,NA,NA,images/tutgreenplanet.jpg,images/tutalien1,images/tutalien2,null,images/tutalien2,images/t.png,NA,practice,null,NA,NA,NA,NA,sub114
d3-animate-choice,43,227398,0.0-43.0,TRUE,FALSE,FALSE,FALSE,"""event"",""trial"",""time""
""fullscreenenter"",""5"",""12616""
","
","
","""event"",""trial"",""time""
""fullscreenenter"",""5"",""12616""
","
",262,NA,49,NA,NA,3000,1,NA,NA,images/tutgreenplanet.jpg,images/tutalien1,images/tutalien2,null,images/tutalien2,images/t.png,NA,practice,null,NA,NA,NA,NA,sub114
d3-instructions,44,241923,0.0-44.0,TRUE,FALSE,FALSE,FALSE,"""event"",""trial"",""time""
""fullscreenenter"",""5"",""12616""
","
","
","""event"",""trial"",""time""
""fullscreenenter"",""5"",""12616""
","
",NA,NA,NA,NA,NA,NA,NA,NA,NA,NA,NA,NA,NA,NA,NA,NA,NA,NA,NA,NA,NA,NA,sub114
d3-instructions,45,249906,0.0-45.0,TRUE,FALSE,FALSE,FALSE,"""event"",""trial"",""time""
""fullscreenenter"",""5"",""12616""
","
","
","""event"",""trial"",""time""
""fullscreenenter"",""5"",""12616""
","
",NA,NA,NA,NA,NA,NA,NA,NA,NA,NA,NA,NA,NA,NA,NA,NA,NA,NA,NA,NA,NA,NA,sub114
d3-instructions,46,254869,0.0-46.0,TRUE,FALSE,FALSE,FALSE,"""event"",""trial"",""time""
""fullscreenenter"",""5"",""12616""
","
","
","""event"",""trial"",""time""
""fullscreenenter"",""5"",""12616""
","
",NA,NA,NA,NA,NA,NA,NA,NA,NA,NA,NA,NA,NA,NA,NA,NA,NA,NA,NA,NA,NA,NA,sub114
d3-instructions,47,274984,0.0-47.0,TRUE,FALSE,FALSE,FALSE,"""event"",""trial"",""time""
""fullscreenenter"",""5"",""12616""
","
","
","""event"",""trial"",""time""
""fullscreenenter"",""5"",""12616""
","
",NA,NA,NA,NA,NA,NA,NA,NA,NA,NA,NA,NA,NA,NA,NA,NA,NA,NA,NA,NA,NA,NA,sub114
d3-instructions,48,277091,0.0-48.0,TRUE,FALSE,FALSE,FALSE,"""event"",""trial"",""time""
""fullscreenenter"",""5"",""12616""
","
","
","""event"",""trial"",""time""
""fullscreenenter"",""5"",""12616""
","
",NA,NA,NA,NA,NA,NA,NA,NA,NA,NA,NA,NA,NA,NA,NA,NA,NA,NA,NA,NA,NA,NA,sub114
d3-instructions,49,280243,0.0-49.0,TRUE,FALSE,FALSE,FALSE,"""event"",""trial"",""time""
""fullscreenenter"",""5"",""12616""
","
","
","""event"",""trial"",""time""
""fullscreenenter"",""5"",""12616""
","
",NA,NA,NA,NA,NA,NA,NA,NA,NA,NA,NA,NA,NA,NA,NA,NA,NA,NA,NA,NA,NA,NA,sub114
d3-instructions,50,282632,0.0-50.0,TRUE,FALSE,FALSE,FALSE,"""event"",""trial"",""time""
""fullscreenenter"",""5"",""12616""
","
","
","""event"",""trial"",""time""
""fullscreenenter"",""5"",""12616""
","
",NA,NA,NA,NA,NA,NA,NA,NA,NA,NA,NA,NA,NA,NA,NA,NA,NA,NA,NA,NA,NA,NA,sub114
d3-instructions,51,284077,0.0-51.0,TRUE,FALSE,FALSE,FALSE,"""event"",""trial"",""time""
""fullscreenenter"",""5"",""12616""
","
","
","""event"",""trial"",""time""
""fullscreenenter"",""5"",""12616""
","
",NA,NA,NA,NA,NA,NA,NA,NA,NA,NA,NA,NA,NA,NA,NA,NA,NA,NA,NA,NA,NA,NA,sub114
d3-instructions,52,285359,0.0-52.0,TRUE,FALSE,FALSE,FALSE,"""event"",""trial"",""time""
""fullscreenenter"",""5"",""12616""
","
","
","""event"",""trial"",""time""
""fullscreenenter"",""5"",""12616""
","
",NA,NA,NA,NA,NA,NA,NA,NA,NA,NA,NA,NA,NA,NA,NA,NA,NA,NA,NA,NA,NA,NA,sub114
d3-instructions,53,289270,0.0-53.0,TRUE,FALSE,FALSE,FALSE,"""event"",""trial"",""time""
""fullscreenenter"",""5"",""12616""
","
","
","""event"",""trial"",""time""
""fullscreenenter"",""5"",""12616""
","
",NA,NA,NA,NA,NA,NA,NA,NA,NA,NA,NA,NA,NA,NA,NA,NA,NA,NA,NA,NA,NA,NA,sub114
d3-instructions,54,293408,0.0-54.0,TRUE,FALSE,FALSE,FALSE,"""event"",""trial"",""time""
""fullscreenenter"",""5"",""12616""
","
","
","""event"",""trial"",""time""
""fullscreenenter"",""5"",""12616""
","
",NA,NA,NA,NA,NA,NA,NA,NA,NA,NA,NA,NA,NA,NA,NA,NA,NA,NA,NA,NA,NA,NA,sub114
d3-instructions,55,296122,0.0-55.0,TRUE,FALSE,FALSE,FALSE,"""event"",""trial"",""time""
""fullscreenenter"",""5"",""12616""
","
","
","""event"",""trial"",""time""
""fullscreenenter"",""5"",""12616""
","
",NA,NA,NA,NA,NA,NA,NA,NA,NA,NA,NA,NA,NA,NA,NA,NA,NA,NA,NA,NA,NA,NA,sub114
d3-instructions,56,299638,0.0-56.0,TRUE,FALSE,FALSE,FALSE,"""event"",""trial"",""time""
""fullscreenenter"",""5"",""12616""
","
","
","""event"",""trial"",""time""
""fullscreenenter"",""5"",""12616""
","
",NA,NA,NA,NA,NA,NA,NA,NA,NA,NA,NA,NA,NA,NA,NA,NA,NA,NA,NA,NA,NA,NA,sub114
d3-instructions,57,303998,0.0-57.0,TRUE,FALSE,FALSE,FALSE,"""event"",""trial"",""time""
""fullscreenenter"",""5"",""12616""
","
","
","""event"",""trial"",""time""
""fullscreenenter"",""5"",""12616""
","
",NA,NA,NA,NA,NA,NA,NA,NA,NA,NA,NA,NA,NA,NA,NA,NA,NA,NA,NA,NA,NA,NA,sub114
d3-instructions,58,307229,0.0-58.0,TRUE,FALSE,FALSE,FALSE,"""event"",""trial"",""time""
""fullscreenenter"",""5"",""12616""
","
","
","""event"",""trial"",""time""
""fullscreenenter"",""5"",""12616""
","
",NA,NA,NA,NA,NA,NA,NA,NA,NA,NA,NA,NA,NA,NA,NA,NA,NA,NA,NA,NA,NA,NA,sub114
d3-instructions,59,309026,0.0-59.0,TRUE,FALSE,FALSE,FALSE,"""event"",""trial"",""time""
""fullscreenenter"",""5"",""12616""
","
","
","""event"",""trial"",""time""
""fullscreenenter"",""5"",""12616""
","
",NA,NA,NA,NA,NA,NA,NA,NA,NA,NA,NA,NA,NA,NA,NA,NA,NA,NA,NA,NA,NA,NA,sub114
d3-instructions,60,310974,0.0-60.0,TRUE,FALSE,FALSE,FALSE,"""event"",""trial"",""time""
""fullscreenenter"",""5"",""12616""
","
","
","""event"",""trial"",""time""
""fullscreenenter"",""5"",""12616""
","
",NA,NA,NA,NA,NA,NA,NA,NA,NA,NA,NA,NA,NA,NA,NA,NA,NA,NA,NA,NA,NA,NA,sub114
d3-animate-choice,61,313576,0.0-61.0-0.0,TRUE,FALSE,FALSE,FALSE,"""event"",""trial"",""time""
""fullscreenenter"",""5"",""12616""
","
","
","""event"",""trial"",""time""
""fullscreenenter"",""5"",""12616""
","
",600,NA,49,NA,NA,3000,1,NA,NA,images/earth.jpg,images/tutrocket1,images/tutrocket2,null,images/tutrocket2,NA,1,practice,null,1,NA,NA,NA,sub114
d3-animate-choice,62,317579,0.0-61.0-1.0,TRUE,FALSE,FALSE,FALSE,"""event"",""trial"",""time""
""fullscreenenter"",""5"",""12616""
","
","
","""event"",""trial"",""time""
""fullscreenenter"",""5"",""12616""
","
",2253,NA,48,NA,NA,3000,1,NA,NA,images/tutyellowplanet.jpg,images/tutalien4,images/tutalien3,images/tutrocket2,images/tutalien4,images/nothing.png,2,practice,false,2,rare,0,2020-06-21T05:54:30Z,sub114
two-step-fixation,63,318582,0.0-61.0-2.0,TRUE,FALSE,FALSE,FALSE,"""event"",""trial"",""time""
""fullscreenenter"",""5"",""12616""
","
","
","""event"",""trial"",""time""
""fullscreenenter"",""5"",""12616""
","
",NA,images/earth.jpg,NA,NA,NA,NA,NA,NA,NA,NA,NA,NA,NA,NA,NA,fixation,NA,NA,NA,NA,NA,NA,sub114
d3-animate-choice,64,321151,0.0-61.0-0.1,TRUE,FALSE,FALSE,FALSE,"""event"",""trial"",""time""
""fullscreenenter"",""5"",""12616""
","
","
","""event"",""trial"",""time""
""fullscreenenter"",""5"",""12616""
","
",567,NA,48,NA,NA,3000,1,NA,NA,images/earth.jpg,images/tutrocket1,images/tutrocket2,null,images/tutrocket1,NA,1,practice,null,2,NA,NA,NA,sub114
d3-animate-choice,65,323988,0.0-61.0-1.1,TRUE,FALSE,FALSE,FALSE,"""event"",""trial"",""time""
""fullscreenenter"",""5"",""12616""
","
","
","""event"",""trial"",""time""
""fullscreenenter"",""5"",""12616""
","
",835.9999999999418,NA,48,NA,NA,3000,1,NA,NA,images/tutyellowplanet.jpg,images/tutalien4,images/tutalien3,images/tutrocket1,images/tutalien4,images/nothing.png,2,practice,true,2,common,0,2020-06-21T05:54:36Z,sub114
two-step-fixation,66,324989,0.0-61.0-2.1,TRUE,FALSE,FALSE,FALSE,"""event"",""trial"",""time""
""fullscreenenter"",""5"",""12616""
","
","
","""event"",""trial"",""time""
""fullscreenenter"",""5"",""12616""
","
",NA,images/earth.jpg,NA,NA,NA,NA,NA,NA,NA,NA,NA,NA,NA,NA,NA,fixation,NA,NA,NA,NA,NA,NA,sub114
d3-animate-choice,67,327507,0.0-61.0-0.2,TRUE,FALSE,FALSE,FALSE,"""event"",""trial"",""time""
""fullscreenenter"",""5"",""12616""
","
","
","""event"",""trial"",""time""
""fullscreenenter"",""5"",""12616""
","
",516,NA,48,NA,NA,3000,1,NA,NA,images/earth.jpg,images/tutrocket1,images/tutrocket2,null,images/tutrocket1,NA,1,practice,null,2,NA,NA,NA,sub114
d3-animate-choice,68,330068,0.0-61.0-1.2,TRUE,FALSE,FALSE,FALSE,"""event"",""trial"",""time""
""fullscreenenter"",""5"",""12616""
","
","
","""event"",""trial"",""time""
""fullscreenenter"",""5"",""12616""
","
",558,NA,49,NA,NA,3000,1,NA,NA,images/tutyellowplanet.jpg,images/tutalien4,images/tutalien3,images/tutrocket1,images/tutalien3,images/t.png,2,practice,true,1,common,1,2020-06-21T05:54:42Z,sub114
two-step-fixation,69,331069,0.0-61.0-2.2,TRUE,FALSE,FALSE,FALSE,"""event"",""trial"",""time""
""fullscreenenter"",""5"",""12616""
","
","
","""event"",""trial"",""time""
""fullscreenenter"",""5"",""12616""
","
",NA,images/earth.jpg,NA,NA,NA,NA,NA,NA,NA,NA,NA,NA,NA,NA,NA,fixation,NA,NA,NA,NA,NA,NA,sub114
d3-animate-choice,70,333478,0.0-61.0-0.3,TRUE,FALSE,FALSE,FALSE,"""event"",""trial"",""time""
""fullscreenenter"",""5"",""12616""
","
","
","""event"",""trial"",""time""
""fullscreenenter"",""5"",""12616""
","
",406,NA,49,NA,NA,3000,1,NA,NA,images/earth.jpg,images/tutrocket1,images/tutrocket2,null,images/tutrocket2,NA,1,practice,null,1,NA,NA,NA,sub114
d3-animate-choice,71,336062,0.0-61.0-1.3,TRUE,FALSE,FALSE,FALSE,"""event"",""trial"",""time""
""fullscreenenter"",""5"",""12616""
","
","
","""event"",""trial"",""time""
""fullscreenenter"",""5"",""12616""
","
",582,NA,49,NA,NA,3000,1,NA,NA,images/tutyellowplanet.jpg,images/tutalien4,images/tutalien3,images/tutrocket2,images/tutalien3,images/nothing.png,2,practice,false,1,rare,0,2020-06-21T05:54:48Z,sub114
two-step-fixation,72,337063,0.0-61.0-2.3,TRUE,FALSE,FALSE,FALSE,"""event"",""trial"",""time""
""fullscreenenter"",""5"",""12616""
","
","
","""event"",""trial"",""time""
""fullscreenenter"",""5"",""12616""
","
",NA,images/earth.jpg,NA,NA,NA,NA,NA,NA,NA,NA,NA,NA,NA,NA,NA,fixation,NA,NA,NA,NA,NA,NA,sub114
d3-animate-choice,73,339457,0.0-61.0-0.4,TRUE,FALSE,FALSE,FALSE,"""event"",""trial"",""time""
""fullscreenenter"",""5"",""12616""
","
","
","""event"",""trial"",""time""
""fullscreenenter"",""5"",""12616""
","
",391,NA,48,NA,NA,3000,1,NA,NA,images/earth.jpg,images/tutrocket1,images/tutrocket2,null,images/tutrocket1,NA,1,practice,null,2,NA,NA,NA,sub114
d3-animate-choice,74,341928,0.0-61.0-1.4,TRUE,FALSE,FALSE,FALSE,"""event"",""trial"",""time""
""fullscreenenter"",""5"",""12616""
","
","
","""event"",""trial"",""time""
""fullscreenenter"",""5"",""12616""
","
",469.0000000000582,NA,48,NA,NA,3000,1,NA,NA,images/tutyellowplanet.jpg,images/tutalien4,images/tutalien3,images/tutrocket1,images/tutalien4,images/nothing.png,2,practice,true,2,common,0,2020-06-21T05:54:54Z,sub114
two-step-fixation,75,342929,0.0-61.0-2.4,TRUE,FALSE,FALSE,FALSE,"""event"",""trial"",""time""
""fullscreenenter"",""5"",""12616""
","
","
","""event"",""trial"",""time""
""fullscreenenter"",""5"",""12616""
","
",NA,images/earth.jpg,NA,NA,NA,NA,NA,NA,NA,NA,NA,NA,NA,NA,NA,fixation,NA,NA,NA,NA,NA,NA,sub114
d3-animate-choice,76,345351,0.0-61.0-0.5,TRUE,FALSE,FALSE,FALSE,"""event"",""trial"",""time""
""fullscreenenter"",""5"",""12616""
","
","
","""event"",""trial"",""time""
""fullscreenenter"",""5"",""12616""
","
",420.0000000000582,NA,49,NA,NA,3000,1,NA,NA,images/earth.jpg,images/tutrocket1,images/tutrocket2,null,images/tutrocket2,NA,1,practice,null,1,NA,NA,NA,sub114
d3-animate-choice,77,347946,0.0-61.0-1.5,TRUE,FALSE,FALSE,FALSE,"""event"",""trial"",""time""
""fullscreenenter"",""5"",""12616""
","
","
","""event"",""trial"",""time""
""fullscreenenter"",""5"",""12616""
","
",593,NA,49,NA,NA,3000,1,NA,NA,images/tutgreenplanet.jpg,images/tutalien2,images/tutalien1,images/tutrocket2,images/tutalien1,images/t.png,2,practice,true,1,common,1,2020-06-21T05:55:00Z,sub114
two-step-fixation,78,348947,0.0-61.0-2.5,TRUE,FALSE,FALSE,FALSE,"""event"",""trial"",""time""
""fullscreenenter"",""5"",""12616""
","
","
","""event"",""trial"",""time""
""fullscreenenter"",""5"",""12616""
","
",NA,images/earth.jpg,NA,NA,NA,NA,NA,NA,NA,NA,NA,NA,NA,NA,NA,fixation,NA,NA,NA,NA,NA,NA,sub114
d3-animate-choice,79,351238,0.0-61.0-0.6,TRUE,FALSE,FALSE,FALSE,"""event"",""trial"",""time""
""fullscreenenter"",""5"",""12616""
","
","
","""event"",""trial"",""time""
""fullscreenenter"",""5"",""12616""
","
",288.0000000000582,NA,49,NA,NA,3000,1,NA,NA,images/earth.jpg,images/tutrocket1,images/tutrocket2,null,images/tutrocket2,NA,1,practice,null,1,NA,NA,NA,sub114
d3-animate-choice,80,353963,0.0-61.0-1.6,TRUE,FALSE,FALSE,FALSE,"""event"",""trial"",""time""
""fullscreenenter"",""5"",""12616""
","
","
","""event"",""trial"",""time""
""fullscreenenter"",""5"",""12616""
","
",723,NA,48,NA,NA,3000,1,NA,NA,images/tutgreenplanet.jpg,images/tutalien2,images/tutalien1,images/tutrocket2,images/tutalien2,images/nothing.png,2,practice,true,2,common,0,2020-06-21T05:55:06Z,sub114
two-step-fixation,81,354964,0.0-61.0-2.6,TRUE,FALSE,FALSE,FALSE,"""event"",""trial"",""time""
""fullscreenenter"",""5"",""12616""
","
","
","""event"",""trial"",""time""
""fullscreenenter"",""5"",""12616""
","
",NA,images/earth.jpg,NA,NA,NA,NA,NA,NA,NA,NA,NA,NA,NA,NA,NA,fixation,NA,NA,NA,NA,NA,NA,sub114
d3-animate-choice,82,357282,0.0-61.0-0.7,TRUE,FALSE,FALSE,FALSE,"""event"",""trial"",""time""
""fullscreenenter"",""5"",""12616""
","
","
","""event"",""trial"",""time""
""fullscreenenter"",""5"",""12616""
","
",316,NA,49,NA,NA,3000,1,NA,NA,images/earth.jpg,images/tutrocket1,images/tutrocket2,null,images/tutrocket2,NA,1,practice,null,1,NA,NA,NA,sub114
d3-animate-choice,83,360050,0.0-61.0-1.7,TRUE,FALSE,FALSE,FALSE,"""event"",""trial"",""time""
""fullscreenenter"",""5"",""12616""
","
","
","""event"",""trial"",""time""
""fullscreenenter"",""5"",""12616""
","
",765,NA,49,NA,NA,3000,1,NA,NA,images/tutyellowplanet.jpg,images/tutalien4,images/tutalien3,images/tutrocket2,images/tutalien3,images/nothing.png,2,practice,false,1,rare,0,2020-06-21T05:55:12Z,sub114
two-step-fixation,84,361051,0.0-61.0-2.7,TRUE,FALSE,FALSE,FALSE,"""event"",""trial"",""time""
""fullscreenenter"",""5"",""12616""
","
","
","""event"",""trial"",""time""
""fullscreenenter"",""5"",""12616""
","
",NA,images/earth.jpg,NA,NA,NA,NA,NA,NA,NA,NA,NA,NA,NA,NA,NA,fixation,NA,NA,NA,NA,NA,NA,sub114
d3-animate-choice,85,363398,0.0-61.0-0.8,TRUE,FALSE,FALSE,FALSE,"""event"",""trial"",""time""
""fullscreenenter"",""5"",""12616""
","
","
","""event"",""trial"",""time""
""fullscreenenter"",""5"",""12616""
","
",343.9999999999418,NA,49,NA,NA,3000,1,NA,NA,images/earth.jpg,images/tutrocket1,images/tutrocket2,null,images/tutrocket2,NA,1,practice,null,1,NA,NA,NA,sub114
d3-animate-choice,86,366076,0.0-61.0-1.8,TRUE,FALSE,FALSE,FALSE,"""event"",""trial"",""time""
""fullscreenenter"",""5"",""12616""
","
","
","""event"",""trial"",""time""
""fullscreenenter"",""5"",""12616""
","
",675,NA,49,NA,NA,3000,1,NA,NA,images/tutyellowplanet.jpg,images/tutalien4,images/tutalien3,images/tutrocket2,images/tutalien3,images/nothing.png,2,practice,false,1,rare,0,2020-06-21T05:55:18Z,sub114
two-step-fixation,87,367077,0.0-61.0-2.8,TRUE,FALSE,FALSE,FALSE,"""event"",""trial"",""time""
""fullscreenenter"",""5"",""12616""
","
","
","""event"",""trial"",""time""
""fullscreenenter"",""5"",""12616""
","
",NA,images/earth.jpg,NA,NA,NA,NA,NA,NA,NA,NA,NA,NA,NA,NA,NA,fixation,NA,NA,NA,NA,NA,NA,sub114
d3-animate-choice,88,369530,0.0-61.0-0.9,TRUE,FALSE,FALSE,FALSE,"""event"",""trial"",""time""
""fullscreenenter"",""5"",""12616""
","
","
","""event"",""trial"",""time""
""fullscreenenter"",""5"",""12616""
","
",451,NA,48,NA,NA,3000,1,NA,NA,images/earth.jpg,images/tutrocket1,images/tutrocket2,null,images/tutrocket1,NA,1,practice,null,2,NA,NA,NA,sub114
d3-animate-choice,89,372562,0.0-61.0-1.9,TRUE,FALSE,FALSE,FALSE,"""event"",""trial"",""time""
""fullscreenenter"",""5"",""12616""
","
","
","""event"",""trial"",""time""
""fullscreenenter"",""5"",""12616""
","
",1029,NA,49,NA,NA,3000,1,NA,NA,images/tutgreenplanet.jpg,images/tutalien2,images/tutalien1,images/tutrocket1,images/tutalien1,images/nothing.png,2,practice,false,1,rare,0,2020-06-21T05:55:25Z,sub114
two-step-fixation,90,373563,0.0-61.0-2.9,TRUE,FALSE,FALSE,FALSE,"""event"",""trial"",""time""
""fullscreenenter"",""5"",""12616""
","
","
","""event"",""trial"",""time""
""fullscreenenter"",""5"",""12616""
","
",NA,images/earth.jpg,NA,NA,NA,NA,NA,NA,NA,NA,NA,NA,NA,NA,NA,fixation,NA,NA,NA,NA,NA,NA,sub114
d3-animate-choice,91,375841,0.0-61.0-0.10,TRUE,FALSE,FALSE,FALSE,"""event"",""trial"",""time""
""fullscreenenter"",""5"",""12616""
","
","
","""event"",""trial"",""time""
""fullscreenenter"",""5"",""12616""
","
",277,NA,48,NA,NA,3000,1,NA,NA,images/earth.jpg,images/tutrocket1,images/tutrocket2,null,images/tutrocket1,NA,1,practice,null,2,NA,NA,NA,sub114
d3-animate-choice,92,378994,0.0-61.0-1.10,TRUE,FALSE,FALSE,FALSE,"""event"",""trial"",""time""
""fullscreenenter"",""5"",""12616""
","
","
","""event"",""trial"",""time""
""fullscreenenter"",""5"",""12616""
","
",1150,NA,48,NA,NA,3000,1,NA,NA,images/tutgreenplanet.jpg,images/tutalien2,images/tutalien1,images/tutrocket1,images/tutalien2,images/nothing.png,2,practice,false,2,rare,0,2020-06-21T05:55:31Z,sub114
two-step-fixation,93,379995,0.0-61.0-2.10,TRUE,FALSE,FALSE,FALSE,"""event"",""trial"",""time""
""fullscreenenter"",""5"",""12616""
","
","
","""event"",""trial"",""time""
""fullscreenenter"",""5"",""12616""
","
",NA,images/earth.jpg,NA,NA,NA,NA,NA,NA,NA,NA,NA,NA,NA,NA,NA,fixation,NA,NA,NA,NA,NA,NA,sub114
d3-animate-choice,94,382565,0.0-61.0-0.11,TRUE,FALSE,FALSE,FALSE,"""event"",""trial"",""time""
""fullscreenenter"",""5"",""12616""
","
","
","""event"",""trial"",""time""
""fullscreenenter"",""5"",""12616""
","
",569.0000000000582,NA,48,NA,NA,3000,1,NA,NA,images/earth.jpg,images/tutrocket1,images/tutrocket2,null,images/tutrocket1,NA,1,practice,null,2,NA,NA,NA,sub114
d3-animate-choice,95,385111,0.0-61.0-1.11,TRUE,FALSE,FALSE,FALSE,"""event"",""trial"",""time""
""fullscreenenter"",""5"",""12616""
","
","
","""event"",""trial"",""time""
""fullscreenenter"",""5"",""12616""
","
",543,NA,49,NA,NA,3000,1,NA,NA,images/tutgreenplanet.jpg,images/tutalien2,images/tutalien1,images/tutrocket1,images/tutalien1,images/nothing.png,2,practice,false,1,rare,0,2020-06-21T05:55:37Z,sub114
two-step-fixation,96,386113,0.0-61.0-2.11,TRUE,FALSE,FALSE,FALSE,"""event"",""trial"",""time""
""fullscreenenter"",""5"",""12616""
","
","
","""event"",""trial"",""time""
""fullscreenenter"",""5"",""12616""
","
",NA,images/earth.jpg,NA,NA,NA,NA,NA,NA,NA,NA,NA,NA,NA,NA,NA,fixation,NA,NA,NA,NA,NA,NA,sub114
d3-animate-choice,97,388595,0.0-61.0-0.12,TRUE,FALSE,FALSE,FALSE,"""event"",""trial"",""time""
""fullscreenenter"",""5"",""12616""
","
","
","""event"",""trial"",""time""
""fullscreenenter"",""5"",""12616""
","
",481,NA,49,NA,NA,3000,1,NA,NA,images/earth.jpg,images/tutrocket1,images/tutrocket2,null,images/tutrocket2,NA,1,practice,null,1,NA,NA,NA,sub114
d3-animate-choice,98,391408,0.0-61.0-1.12,TRUE,FALSE,FALSE,FALSE,"""event"",""trial"",""time""
""fullscreenenter"",""5"",""12616""
","
","
","""event"",""trial"",""time""
""fullscreenenter"",""5"",""12616""
","
",810.9999999999418,NA,48,NA,NA,3000,1,NA,NA,images/tutgreenplanet.jpg,images/tutalien2,images/tutalien1,images/tutrocket2,images/tutalien2,images/nothing.png,2,practice,true,2,common,0,2020-06-21T05:55:43Z,sub114
two-step-fixation,99,392409,0.0-61.0-2.12,TRUE,FALSE,FALSE,FALSE,"""event"",""trial"",""time""
""fullscreenenter"",""5"",""12616""
","
","
","""event"",""trial"",""time""
""fullscreenenter"",""5"",""12616""
","
",NA,images/earth.jpg,NA,NA,NA,NA,NA,NA,NA,NA,NA,NA,NA,NA,NA,fixation,NA,NA,NA,NA,NA,NA,sub114
d3-animate-choice,100,394768,0.0-61.0-0.13,TRUE,FALSE,FALSE,FALSE,"""event"",""trial"",""time""
""fullscreenenter"",""5"",""12616""
","
","
","""event"",""trial"",""time""
""fullscreenenter"",""5"",""12616""
","
",347,NA,49,NA,NA,3000,1,NA,NA,images/earth.jpg,images/tutrocket1,images/tutrocket2,null,images/tutrocket2,NA,1,practice,null,1,NA,NA,NA,sub114
d3-animate-choice,101,397096,0.0-61.0-1.13,TRUE,FALSE,FALSE,FALSE,"""event"",""trial"",""time""
""fullscreenenter"",""5"",""12616""
","
","
","""event"",""trial"",""time""
""fullscreenenter"",""5"",""12616""
","
",326,NA,49,NA,NA,3000,1,NA,NA,images/tutgreenplanet.jpg,images/tutalien2,images/tutalien1,images/tutrocket2,images/tutalien1,images/t.png,2,practice,true,1,common,1,2020-06-21T05:55:49Z,sub114
two-step-fixation,102,398098,0.0-61.0-2.13,TRUE,FALSE,FALSE,FALSE,"""event"",""trial"",""time""
""fullscreenenter"",""5"",""12616""
","
","
","""event"",""trial"",""time""
""fullscreenenter"",""5"",""12616""
","
",NA,images/earth.jpg,NA,NA,NA,NA,NA,NA,NA,NA,NA,NA,NA,NA,NA,fixation,NA,NA,NA,NA,NA,NA,sub114
d3-animate-choice,103,400495,0.0-61.0-0.14,TRUE,FALSE,FALSE,FALSE,"""event"",""trial"",""time""
""fullscreenenter"",""5"",""12616""
","
","
","""event"",""trial"",""time""
""fullscreenenter"",""5"",""12616""
","
",395,NA,49,NA,NA,3000,1,NA,NA,images/earth.jpg,images/tutrocket1,images/tutrocket2,null,images/tutrocket2,NA,1,practice,null,1,NA,NA,NA,sub114
d3-animate-choice,104,402927,0.0-61.0-1.14,TRUE,FALSE,FALSE,FALSE,"""event"",""trial"",""time""
""fullscreenenter"",""5"",""12616""
","
","
","""event"",""trial"",""time""
""fullscreenenter"",""5"",""12616""
","
",430,NA,49,NA,NA,3000,1,NA,NA,images/tutgreenplanet.jpg,images/tutalien2,images/tutalien1,images/tutrocket2,images/tutalien1,images/nothing.png,2,practice,true,1,common,0,2020-06-21T05:55:55Z,sub114
two-step-fixation,105,403928,0.0-61.0-2.14,TRUE,FALSE,FALSE,FALSE,"""event"",""trial"",""time""
""fullscreenenter"",""5"",""12616""
","
","
","""event"",""trial"",""time""
""fullscreenenter"",""5"",""12616""
","
",NA,images/earth.jpg,NA,NA,NA,NA,NA,NA,NA,NA,NA,NA,NA,NA,NA,fixation,NA,NA,NA,NA,NA,NA,sub114
d3-animate-choice,106,406330,0.0-61.0-0.15,TRUE,FALSE,FALSE,FALSE,"""event"",""trial"",""time""
""fullscreenenter"",""5"",""12616""
","
","
","""event"",""trial"",""time""
""fullscreenenter"",""5"",""12616""
","
",400,NA,48,NA,NA,3000,1,NA,NA,images/earth.jpg,images/tutrocket1,images/tutrocket2,null,images/tutrocket1,NA,1,practice,null,2,NA,NA,NA,sub114
d3-animate-choice,107,408974,0.0-61.0-1.15,TRUE,FALSE,FALSE,FALSE,"""event"",""trial"",""time""
""fullscreenenter"",""5"",""12616""
","
","
","""event"",""trial"",""time""
""fullscreenenter"",""5"",""12616""
","
",641,NA,48,NA,NA,3000,1,NA,NA,images/tutgreenplanet.jpg,images/tutalien2,images/tutalien1,images/tutrocket1,images/tutalien2,images/nothing.png,2,practice,false,2,rare,0,2020-06-21T05:56:01Z,sub114
two-step-fixation,108,409976,0.0-61.0-2.15,TRUE,FALSE,FALSE,FALSE,"""event"",""trial"",""time""
""fullscreenenter"",""5"",""12616""
","
","
","""event"",""trial"",""time""
""fullscreenenter"",""5"",""12616""
","
",NA,images/earth.jpg,NA,NA,NA,NA,NA,NA,NA,NA,NA,NA,NA,NA,NA,fixation,NA,NA,NA,NA,NA,NA,sub114
d3-animate-choice,109,412278,0.0-61.0-0.16,TRUE,FALSE,FALSE,FALSE,"""event"",""trial"",""time""
""fullscreenenter"",""5"",""12616""
","
","
","""event"",""trial"",""time""
""fullscreenenter"",""5"",""12616""
","
",299.9999999999418,NA,48,NA,NA,3000,1,NA,NA,images/earth.jpg,images/tutrocket1,images/tutrocket2,null,images/tutrocket1,NA,1,practice,null,2,NA,NA,NA,sub114
d3-animate-choice,110,415110,0.0-61.0-1.16,TRUE,FALSE,FALSE,FALSE,"""event"",""trial"",""time""
""fullscreenenter"",""5"",""12616""
","
","
","""event"",""trial"",""time""
""fullscreenenter"",""5"",""12616""
","
",831,NA,48,NA,NA,3000,1,NA,NA,images/tutyellowplanet.jpg,images/tutalien4,images/tutalien3,images/tutrocket1,images/tutalien4,images/t.png,2,practice,true,2,common,1,2020-06-21T05:56:07Z,sub114
two-step-fixation,111,416112,0.0-61.0-2.16,TRUE,FALSE,FALSE,FALSE,"""event"",""trial"",""time""
""fullscreenenter"",""5"",""12616""
","
","
","""event"",""trial"",""time""
""fullscreenenter"",""5"",""12616""
","
",NA,images/earth.jpg,NA,NA,NA,NA,NA,NA,NA,NA,NA,NA,NA,NA,NA,fixation,NA,NA,NA,NA,NA,NA,sub114
d3-animate-choice,112,418440,0.0-61.0-0.17,TRUE,FALSE,FALSE,FALSE,"""event"",""trial"",""time""
""fullscreenenter"",""5"",""12616""
","
","
","""event"",""trial"",""time""
""fullscreenenter"",""5"",""12616""
","
",326,NA,48,NA,NA,3000,1,NA,NA,images/earth.jpg,images/tutrocket1,images/tutrocket2,null,images/tutrocket1,NA,1,practice,null,2,NA,NA,NA,sub114
d3-animate-choice,113,420872,0.0-61.0-1.17,TRUE,FALSE,FALSE,FALSE,"""event"",""trial"",""time""
""fullscreenenter"",""5"",""12616""
","
","
","""event"",""trial"",""time""
""fullscreenenter"",""5"",""12616""
","
",429.9999999999418,NA,48,NA,NA,3000,1,NA,NA,images/tutyellowplanet.jpg,images/tutalien4,images/tutalien3,images/tutrocket1,images/tutalien4,images/t.png,2,practice,true,2,common,1,2020-06-21T05:56:13Z,sub114
two-step-fixation,114,421873,0.0-61.0-2.17,TRUE,FALSE,FALSE,FALSE,"""event"",""trial"",""time""
""fullscreenenter"",""5"",""12616""
","
","
","""event"",""trial"",""time""
""fullscreenenter"",""5"",""12616""
","
",NA,images/earth.jpg,NA,NA,NA,NA,NA,NA,NA,NA,NA,NA,NA,NA,NA,fixation,NA,NA,NA,NA,NA,NA,sub114
d3-animate-choice,115,424197,0.0-61.0-0.18,TRUE,FALSE,FALSE,FALSE,"""event"",""trial"",""time""
""fullscreenenter"",""5"",""12616""
","
","
","""event"",""trial"",""time""
""fullscreenenter"",""5"",""12616""
","
",320,NA,48,NA,NA,3000,1,NA,NA,images/earth.jpg,images/tutrocket1,images/tutrocket2,null,images/tutrocket1,NA,1,practice,null,2,NA,NA,NA,sub114
d3-animate-choice,116,426726,0.0-61.0-1.18,TRUE,FALSE,FALSE,FALSE,"""event"",""trial"",""time""
""fullscreenenter"",""5"",""12616""
","
","
","""event"",""trial"",""time""
""fullscreenenter"",""5"",""12616""
","
",526.9999999999418,NA,48,NA,NA,3000,1,NA,NA,images/tutyellowplanet.jpg,images/tutalien4,images/tutalien3,images/tutrocket1,images/tutalien4,images/t.png,2,practice,true,2,common,1,2020-06-21T05:56:19Z,sub114
two-step-fixation,117,427728,0.0-61.0-2.18,TRUE,FALSE,FALSE,FALSE,"""event"",""trial"",""time""
""fullscreenenter"",""5"",""12616""
","
","
","""event"",""trial"",""time""
""fullscreenenter"",""5"",""12616""
","
",NA,images/earth.jpg,NA,NA,NA,NA,NA,NA,NA,NA,NA,NA,NA,NA,NA,fixation,NA,NA,NA,NA,NA,NA,sub114
d3-animate-choice,118,430068,0.0-61.0-0.19,TRUE,FALSE,FALSE,FALSE,"""event"",""trial"",""time""
""fullscreenenter"",""5"",""12616""
","
","
","""event"",""trial"",""time""
""fullscreenenter"",""5"",""12616""
","
",338,NA,48,NA,NA,3000,1,NA,NA,images/earth.jpg,images/tutrocket1,images/tutrocket2,null,images/tutrocket1,NA,1,practice,null,2,NA,NA,NA,sub114
d3-animate-choice,119,432641,0.0-61.0-1.19,TRUE,FALSE,FALSE,FALSE,"""event"",""trial"",""time""
""fullscreenenter"",""5"",""12616""
","
","
","""event"",""trial"",""time""
""fullscreenenter"",""5"",""12616""
","
",571,NA,48,NA,NA,3000,1,NA,NA,images/tutgreenplanet.jpg,images/tutalien2,images/tutalien1,images/tutrocket1,images/tutalien2,images/nothing.png,2,practice,false,2,rare,0,2020-06-21T05:56:25Z,sub114
two-step-fixation,120,433642,0.0-61.0-2.19,TRUE,FALSE,FALSE,FALSE,"""event"",""trial"",""time""
""fullscreenenter"",""5"",""12616""
","
","
","""event"",""trial"",""time""
""fullscreenenter"",""5"",""12616""
","
",NA,images/earth.jpg,NA,NA,NA,NA,NA,NA,NA,NA,NA,NA,NA,NA,NA,fixation,NA,NA,NA,NA,NA,NA,sub114
d3-instructions,121,437582,0.0-62.0,TRUE,FALSE,FALSE,FALSE,"""event"",""trial"",""time""
""fullscreenenter"",""5"",""12616""
","
","
","""event"",""trial"",""time""
""fullscreenenter"",""5"",""12616""
","
",NA,NA,NA,NA,NA,NA,NA,NA,NA,NA,NA,NA,NA,NA,NA,NA,NA,NA,NA,NA,NA,NA,sub114
audio-keyboard-response,122,439284,0.0-63.0,TRUE,FALSE,FALSE,FALSE,"""event"",""trial"",""time""
""fullscreenenter"",""5"",""12616""
","
","
","""event"",""trial"",""time""
""fullscreenenter"",""5"",""12616""
","
",1701,audio/instructions/treasure_feedback.wav,32,NA,NA,NA,NA,NA,NA,NA,NA,NA,NA,NA,NA,NA,NA,NA,NA,NA,NA,NA,sub114
d3-instructions,123,444136,0.0-64.0,TRUE,FALSE,FALSE,FALSE,"""event"",""trial"",""time""
""fullscreenenter"",""5"",""12616""
","
","
","""event"",""trial"",""time""
""fullscreenenter"",""5"",""12616""
","
",NA,NA,NA,NA,NA,NA,NA,NA,NA,NA,NA,NA,NA,NA,NA,NA,NA,NA,NA,NA,NA,NA,sub114
d3-instructions,124,448399,0.0-65.0,TRUE,FALSE,FALSE,FALSE,"""event"",""trial"",""time""
""fullscreenenter"",""5"",""12616""
","
","
","""event"",""trial"",""time""
""fullscreenenter"",""5"",""12616""
","
",NA,NA,NA,NA,NA,NA,NA,NA,NA,NA,NA,NA,NA,NA,NA,NA,NA,NA,NA,NA,NA,NA,sub114
d3-instructions,125,454113,0.0-66.0,TRUE,FALSE,FALSE,FALSE,"""event"",""trial"",""time""
""fullscreenenter"",""5"",""12616""
","
","
","""event"",""trial"",""time""
""fullscreenenter"",""5"",""12616""
","
",NA,NA,NA,NA,NA,NA,NA,NA,NA,NA,NA,NA,NA,NA,NA,NA,NA,NA,NA,NA,NA,NA,sub114
d3-instructions,126,457214,0.0-67.0,TRUE,FALSE,FALSE,FALSE,"""event"",""trial"",""time""
""fullscreenenter"",""5"",""12616""
","
","
","""event"",""trial"",""time""
""fullscreenenter"",""5"",""12616""
","
",NA,NA,NA,NA,NA,NA,NA,NA,NA,NA,NA,NA,NA,NA,NA,NA,NA,NA,NA,NA,NA,NA,sub114
d3-instructions,127,460178,0.0-68.0,TRUE,FALSE,FALSE,FALSE,"""event"",""trial"",""time""
""fullscreenenter"",""5"",""12616""
","
","
","""event"",""trial"",""time""
""fullscreenenter"",""5"",""12616""
","
",NA,NA,NA,NA,NA,NA,NA,NA,NA,NA,NA,NA,NA,NA,NA,NA,NA,NA,NA,NA,NA,NA,sub114
instructions-quiz,128,462730,0.0-69.0,TRUE,FALSE,FALSE,FALSE,"""event"",""trial"",""time""
""fullscreenenter"",""5"",""12616""
","
","
","""event"",""trial"",""time""
""fullscreenenter"",""5"",""12616""
","
",2551,audio/quiz/Q1_Prompt.wav,NA,1,NA,NA,NA,NA,NA,NA,NA,NA,NA,NA,NA,NA,NA,NA,NA,NA,NA,NA,sub114
audio-keyboard-response,129,465900,0.0-70.0,TRUE,FALSE,FALSE,FALSE,"""event"",""trial"",""time""
""fullscreenenter"",""5"",""12616""
","
","
","""event"",""trial"",""time""
""fullscreenenter"",""5"",""12616""
","
",3170,audio/quiz/Q1_Correct.wav,32,NA,NA,NA,NA,NA,NA,NA,NA,NA,NA,NA,NA,NA,NA,NA,NA,NA,NA,NA,sub114
instructions-quiz,130,469605,0.0-71.0,TRUE,FALSE,FALSE,FALSE,"""event"",""trial"",""time""
""fullscreenenter"",""5"",""12616""
","
","
","""event"",""trial"",""time""
""fullscreenenter"",""5"",""12616""
","
",3704,audio/quiz/Q2_Prompt.wav,NA,0,NA,NA,NA,NA,NA,NA,NA,NA,NA,NA,NA,NA,NA,NA,NA,NA,NA,NA,sub114
audio-keyboard-response,131,470379,0.0-72.0,TRUE,FALSE,FALSE,FALSE,"""event"",""trial"",""time""
""fullscreenenter"",""5"",""12616""
","
","
","""event"",""trial"",""time""
""fullscreenenter"",""5"",""12616""
","
",775,audio/quiz/Q2_Correct.wav,32,NA,NA,NA,NA,NA,NA,NA,NA,NA,NA,NA,NA,NA,NA,NA,NA,NA,NA,NA,sub114
instructions-quiz,132,472933,0.0-73.0,TRUE,FALSE,FALSE,FALSE,"""event"",""trial"",""time""
""fullscreenenter"",""5"",""12616""
","
","
","""event"",""trial"",""time""
""fullscreenenter"",""5"",""12616""
","
",2554,audio/quiz/Q3_Prompt.wav,NA,1,NA,NA,NA,NA,NA,NA,NA,NA,NA,NA,NA,NA,NA,NA,NA,NA,NA,NA,sub114
audio-keyboard-response,133,474058,0.0-74.0,TRUE,FALSE,FALSE,FALSE,"""event"",""trial"",""time""
""fullscreenenter"",""5"",""12616""
","
","
","""event"",""trial"",""time""
""fullscreenenter"",""5"",""12616""
","
",1123,audio/quiz/Q3_Correct.wav,32,NA,NA,NA,NA,NA,NA,NA,NA,NA,NA,NA,NA,NA,NA,NA,NA,NA,NA,NA,sub114
d3-instructions,134,477222,0.0-75.0,TRUE,FALSE,FALSE,FALSE,"""event"",""trial"",""time""
""fullscreenenter"",""5"",""12616""
","
","
","""event"",""trial"",""time""
""fullscreenenter"",""5"",""12616""
","
",NA,NA,NA,NA,NA,NA,NA,NA,NA,NA,NA,NA,NA,NA,NA,NA,NA,NA,NA,NA,NA,NA,sub114
d3-animate-choice,135,480092,0.0-76.0-0.0,TRUE,FALSE,FALSE,FALSE,"""event"",""trial"",""time""
""fullscreenenter"",""5"",""12616""
","
","
","""event"",""trial"",""time""
""fullscreenenter"",""5"",""12616""
","
",865.9999999999418,NA,48,NA,NA,3000,1,NA,NA,images/earth.jpg,images/rocket2,images/rocket1,null,images/rocket2,NA,1,real,null,2,NA,NA,NA,sub114
d3-animate-choice,136,482820,0.0-76.0-1.0,TRUE,FALSE,FALSE,FALSE,"""event"",""trial"",""time""
""fullscreenenter"",""5"",""12616""
","
","
","""event"",""trial"",""time""
""fullscreenenter"",""5"",""12616""
","
",726,NA,48,NA,NA,3000,1,NA,NA,images/purpleplanet.jpg,images/alien4,images/alien3,images/rocket2,images/alien4,images/t.png,2,real,false,2,rare,1,2020-06-21T05:57:15Z,sub114
two-step-fixation,137,483822,0.0-76.0-2.0,TRUE,FALSE,FALSE,FALSE,"""event"",""trial"",""time""
""fullscreenenter"",""5"",""12616""
","
","
","""event"",""trial"",""time""
""fullscreenenter"",""5"",""12616""
","
",NA,images/earth.jpg,NA,NA,NA,NA,NA,NA,NA,NA,NA,NA,NA,NA,NA,fixation,NA,NA,NA,NA,NA,NA,sub114
d3-animate-choice,138,486179,0.0-76.0-0.1,TRUE,FALSE,FALSE,FALSE,"""event"",""trial"",""time""
""fullscreenenter"",""5"",""12616""
","
","
","""event"",""trial"",""time""
""fullscreenenter"",""5"",""12616""
","
",355,NA,48,NA,NA,3000,1,NA,NA,images/earth.jpg,images/rocket2,images/rocket1,null,images/rocket2,NA,1,real,null,2,NA,NA,NA,sub114
d3-animate-choice,139,488967,0.0-76.0-1.1,TRUE,FALSE,FALSE,FALSE,"""event"",""trial"",""time""
""fullscreenenter"",""5"",""12616""
","
","
","""event"",""trial"",""time""
""fullscreenenter"",""5"",""12616""
","
",786,NA,48,NA,NA,3000,1,NA,NA,images/redplanet1.jpg,images/alien2,images/alien1,images/rocket2,images/alien2,images/nothing.png,2,real,true,2,common,0,2020-06-21T05:57:21Z,sub114
two-step-fixation,140,489968,0.0-76.0-2.1,TRUE,FALSE,FALSE,FALSE,"""event"",""trial"",""time""
""fullscreenenter"",""5"",""12616""
","
","
","""event"",""trial"",""time""
""fullscreenenter"",""5"",""12616""
","
",NA,images/earth.jpg,NA,NA,NA,NA,NA,NA,NA,NA,NA,NA,NA,NA,NA,fixation,NA,NA,NA,NA,NA,NA,sub114
d3-animate-choice,141,492369,0.0-76.0-0.2,TRUE,FALSE,FALSE,FALSE,"""event"",""trial"",""time""
""fullscreenenter"",""5"",""12616""
","
","
","""event"",""trial"",""time""
""fullscreenenter"",""5"",""12616""
","
",399,NA,48,NA,NA,3000,1,NA,NA,images/earth.jpg,images/rocket2,images/rocket1,null,images/rocket2,NA,1,real,null,2,NA,NA,NA,sub114
d3-animate-choice,142,494969,0.0-76.0-1.2,TRUE,FALSE,FALSE,FALSE,"""event"",""trial"",""time""
""fullscreenenter"",""5"",""12616""
","
","
","""event"",""trial"",""time""
""fullscreenenter"",""5"",""12616""
","
",599,NA,48,NA,NA,3000,1,NA,NA,images/purpleplanet.jpg,images/alien4,images/alien3,images/rocket2,images/alien4,images/t.png,2,real,false,2,rare,1,2020-06-21T05:57:27Z,sub114
two-step-fixation,143,495970,0.0-76.0-2.2,TRUE,FALSE,FALSE,FALSE,"""event"",""trial"",""time""
""fullscreenenter"",""5"",""12616""
","
","
","""event"",""trial"",""time""
""fullscreenenter"",""5"",""12616""
","
",NA,images/earth.jpg,NA,NA,NA,NA,NA,NA,NA,NA,NA,NA,NA,NA,NA,fixation,NA,NA,NA,NA,NA,NA,sub114
d3-animate-choice,144,498275,0.0-76.0-0.3,TRUE,FALSE,FALSE,FALSE,"""event"",""trial"",""time""
""fullscreenenter"",""5"",""12616""
","
","
","""event"",""trial"",""time""
""fullscreenenter"",""5"",""12616""
","
",301.9999999998836,NA,48,NA,NA,3000,1,NA,NA,images/earth.jpg,images/rocket2,images/rocket1,null,images/rocket2,NA,1,real,null,2,NA,NA,NA,sub114
d3-animate-choice,145,500812,0.0-76.0-1.3,TRUE,FALSE,FALSE,FALSE,"""event"",""trial"",""time""
""fullscreenenter"",""5"",""12616""
","
","
","""event"",""trial"",""time""
""fullscreenenter"",""5"",""12616""
","
",534,NA,48,NA,NA,3000,1,NA,NA,images/purpleplanet.jpg,images/alien4,images/alien3,images/rocket2,images/alien4,images/t.png,2,real,false,2,rare,1,2020-06-21T05:57:33Z,sub114
two-step-fixation,146,501813,0.0-76.0-2.3,TRUE,FALSE,FALSE,FALSE,"""event"",""trial"",""time""
""fullscreenenter"",""5"",""12616""
","
","
","""event"",""trial"",""time""
""fullscreenenter"",""5"",""12616""
","
",NA,images/earth.jpg,NA,NA,NA,NA,NA,NA,NA,NA,NA,NA,NA,NA,NA,fixation,NA,NA,NA,NA,NA,NA,sub114
d3-animate-choice,147,504134,0.0-76.0-0.4,TRUE,FALSE,FALSE,FALSE,"""event"",""trial"",""time""
""fullscreenenter"",""5"",""12616""
","
","
","""event"",""trial"",""time""
""fullscreenenter"",""5"",""12616""
","
",319,NA,48,NA,NA,3000,1,NA,NA,images/earth.jpg,images/rocket2,images/rocket1,null,images/rocket2,NA,1,real,null,2,NA,NA,NA,sub114
d3-animate-choice,148,506960,0.0-76.0-1.4,TRUE,FALSE,FALSE,FALSE,"""event"",""trial"",""time""
""fullscreenenter"",""5"",""12616""
","
","
","""event"",""trial"",""time""
""fullscreenenter"",""5"",""12616""
","
",822.9999999999418,NA,49,NA,NA,3000,1,NA,NA,images/redplanet1.jpg,images/alien2,images/alien1,images/rocket2,images/alien1,images/nothing.png,2,real,true,1,common,0,2020-06-21T05:57:39Z,sub114
two-step-fixation,149,507961,0.0-76.0-2.4,TRUE,FALSE,FALSE,FALSE,"""event"",""trial"",""time""
""fullscreenenter"",""5"",""12616""
","
","
","""event"",""trial"",""time""
""fullscreenenter"",""5"",""12616""
","
",NA,images/earth.jpg,NA,NA,NA,NA,NA,NA,NA,NA,NA,NA,NA,NA,NA,fixation,NA,NA,NA,NA,NA,NA,sub114
d3-animate-choice,150,510418,0.0-76.0-0.5,TRUE,FALSE,FALSE,FALSE,"""event"",""trial"",""time""
""fullscreenenter"",""5"",""12616""
","
","
","""event"",""trial"",""time""
""fullscreenenter"",""5"",""12616""
","
",454,NA,48,NA,NA,3000,1,NA,NA,images/earth.jpg,images/rocket2,images/rocket1,null,images/rocket2,NA,1,real,null,2,NA,NA,NA,sub114
d3-animate-choice,151,513266,0.0-76.0-1.5,TRUE,FALSE,FALSE,FALSE,"""event"",""trial"",""time""
""fullscreenenter"",""5"",""12616""
","
","
","""event"",""trial"",""time""
""fullscreenenter"",""5"",""12616""
","
",845,NA,48,NA,NA,3000,1,NA,NA,images/redplanet1.jpg,images/alien2,images/alien1,images/rocket2,images/alien2,images/t.png,2,real,true,2,common,1,2020-06-21T05:57:45Z,sub114
two-step-fixation,152,514268,0.0-76.0-2.5,TRUE,FALSE,FALSE,FALSE,"""event"",""trial"",""time""
""fullscreenenter"",""5"",""12616""
","
","
","""event"",""trial"",""time""
""fullscreenenter"",""5"",""12616""
","
",NA,images/earth.jpg,NA,NA,NA,NA,NA,NA,NA,NA,NA,NA,NA,NA,NA,fixation,NA,NA,NA,NA,NA,NA,sub114
d3-animate-choice,153,516692,0.0-76.0-0.6,TRUE,FALSE,FALSE,FALSE,"""event"",""trial"",""time""
""fullscreenenter"",""5"",""12616""
","
","
","""event"",""trial"",""time""
""fullscreenenter"",""5"",""12616""
","
",421,NA,48,NA,NA,3000,1,NA,NA,images/earth.jpg,images/rocket2,images/rocket1,null,images/rocket2,NA,1,real,null,2,NA,NA,NA,sub114
d3-animate-choice,154,519570,0.0-76.0-1.6,TRUE,FALSE,FALSE,FALSE,"""event"",""trial"",""time""
""fullscreenenter"",""5"",""12616""
","
","
","""event"",""trial"",""time""
""fullscreenenter"",""5"",""12616""
","
",876,NA,48,NA,NA,3000,1,NA,NA,images/redplanet1.jpg,images/alien2,images/alien1,images/rocket2,images/alien2,images/nothing.png,2,real,true,2,common,0,2020-06-21T05:57:52Z,sub114
two-step-fixation,155,520572,0.0-76.0-2.6,TRUE,FALSE,FALSE,FALSE,"""event"",""trial"",""time""
""fullscreenenter"",""5"",""12616""
","
","
","""event"",""trial"",""time""
""fullscreenenter"",""5"",""12616""
","
",NA,images/earth.jpg,NA,NA,NA,NA,NA,NA,NA,NA,NA,NA,NA,NA,NA,fixation,NA,NA,NA,NA,NA,NA,sub114
d3-animate-choice,156,523115,0.0-76.0-0.7,TRUE,FALSE,FALSE,FALSE,"""event"",""trial"",""time""
""fullscreenenter"",""5"",""12616""
","
","
","""event"",""trial"",""time""
""fullscreenenter"",""5"",""12616""
","
",541,NA,48,NA,NA,3000,1,NA,NA,images/earth.jpg,images/rocket2,images/rocket1,null,images/rocket2,NA,1,real,null,2,NA,NA,NA,sub114
d3-animate-choice,157,525838,0.0-76.0-1.7,TRUE,FALSE,FALSE,FALSE,"""event"",""trial"",""time""
""fullscreenenter"",""5"",""12616""
","
","
","""event"",""trial"",""time""
""fullscreenenter"",""5"",""12616""
","
",722,NA,48,NA,NA,3000,1,NA,NA,images/redplanet1.jpg,images/alien2,images/alien1,images/rocket2,images/alien2,images/nothing.png,2,real,true,2,common,0,2020-06-21T05:57:58Z,sub114
two-step-fixation,158,526839,0.0-76.0-2.7,TRUE,FALSE,FALSE,FALSE,"""event"",""trial"",""time""
""fullscreenenter"",""5"",""12616""
","
","
","""event"",""trial"",""time""
""fullscreenenter"",""5"",""12616""
","
",NA,images/earth.jpg,NA,NA,NA,NA,NA,NA,NA,NA,NA,NA,NA,NA,NA,fixation,NA,NA,NA,NA,NA,NA,sub114
d3-animate-choice,159,529160,0.0-76.0-0.8,TRUE,FALSE,FALSE,FALSE,"""event"",""trial"",""time""
""fullscreenenter"",""5"",""12616""
","
","
","""event"",""trial"",""time""
""fullscreenenter"",""5"",""12616""
","
",319.0000000001164,NA,49,NA,NA,3000,1,NA,NA,images/earth.jpg,images/rocket2,images/rocket1,null,images/rocket1,NA,1,real,null,1,NA,NA,NA,sub114
d3-animate-choice,160,531925,0.0-76.0-1.8,TRUE,FALSE,FALSE,FALSE,"""event"",""trial"",""time""
""fullscreenenter"",""5"",""12616""
","
","
","""event"",""trial"",""time""
""fullscreenenter"",""5"",""12616""
","
",762,NA,49,NA,NA,3000,1,NA,NA,images/redplanet1.jpg,images/alien2,images/alien1,images/rocket1,images/alien1,images/t.png,2,real,false,1,rare,1,2020-06-21T05:58:04Z,sub114
two-step-fixation,161,532926,0.0-76.0-2.8,TRUE,FALSE,FALSE,FALSE,"""event"",""trial"",""time""
""fullscreenenter"",""5"",""12616""
","
","
","""event"",""trial"",""time""
""fullscreenenter"",""5"",""12616""
","
",NA,images/earth.jpg,NA,NA,NA,NA,NA,NA,NA,NA,NA,NA,NA,NA,NA,fixation,NA,NA,NA,NA,NA,NA,sub114
d3-animate-choice,162,535280,0.0-76.0-0.9,TRUE,FALSE,FALSE,FALSE,"""event"",""trial"",""time""
""fullscreenenter"",""5"",""12616""
","
","
","""event"",""trial"",""time""
""fullscreenenter"",""5"",""12616""
","
",352.0000000001164,NA,49,NA,NA,3000,1,NA,NA,images/earth.jpg,images/rocket2,images/rocket1,null,images/rocket1,NA,1,real,null,1,NA,NA,NA,sub114
d3-animate-choice,163,537959,0.0-76.0-1.9,TRUE,FALSE,FALSE,FALSE,"""event"",""trial"",""time""
""fullscreenenter"",""5"",""12616""
","
","
","""event"",""trial"",""time""
""fullscreenenter"",""5"",""12616""
","
",677,NA,48,NA,NA,3000,1,NA,NA,images/purpleplanet.jpg,images/alien4,images/alien3,images/rocket1,images/alien4,images/t.png,2,real,true,2,common,1,2020-06-21T05:58:10Z,sub114
two-step-fixation,164,538961,0.0-76.0-2.9,TRUE,FALSE,FALSE,FALSE,"""event"",""trial"",""time""
""fullscreenenter"",""5"",""12616""
","
","
","""event"",""trial"",""time""
""fullscreenenter"",""5"",""12616""
","
",NA,images/earth.jpg,NA,NA,NA,NA,NA,NA,NA,NA,NA,NA,NA,NA,NA,fixation,NA,NA,NA,NA,NA,NA,sub114
d3-animate-choice,165,541283,0.0-76.0-0.10,TRUE,FALSE,FALSE,FALSE,"""event"",""trial"",""time""
""fullscreenenter"",""5"",""12616""
","
","
","""event"",""trial"",""time""
""fullscreenenter"",""5"",""12616""
","
",320,NA,49,NA,NA,3000,1,NA,NA,images/earth.jpg,images/rocket2,images/rocket1,null,images/rocket1,NA,1,real,null,1,NA,NA,NA,sub114
d3-animate-choice,166,544029,0.0-76.0-1.10,TRUE,FALSE,FALSE,FALSE,"""event"",""trial"",""time""
""fullscreenenter"",""5"",""12616""
","
","
","""event"",""trial"",""time""
""fullscreenenter"",""5"",""12616""
","
",744,NA,48,NA,NA,3000,1,NA,NA,images/purpleplanet.jpg,images/alien4,images/alien3,images/rocket1,images/alien4,images/nothing.png,2,real,true,2,common,0,2020-06-21T05:58:16Z,sub114
two-step-fixation,167,545030,0.0-76.0-2.10,TRUE,FALSE,FALSE,FALSE,"""event"",""trial"",""time""
""fullscreenenter"",""5"",""12616""
","
","
","""event"",""trial"",""time""
""fullscreenenter"",""5"",""12616""
","
",NA,images/earth.jpg,NA,NA,NA,NA,NA,NA,NA,NA,NA,NA,NA,NA,NA,fixation,NA,NA,NA,NA,NA,NA,sub114
d3-animate-choice,168,547336,0.0-76.0-0.11,TRUE,FALSE,FALSE,FALSE,"""event"",""trial"",""time""
""fullscreenenter"",""5"",""12616""
","
","
","""event"",""trial"",""time""
""fullscreenenter"",""5"",""12616""
","
",304,NA,49,NA,NA,3000,1,NA,NA,images/earth.jpg,images/rocket2,images/rocket1,null,images/rocket1,NA,1,real,null,1,NA,NA,NA,sub114
d3-animate-choice,169,550031,0.0-76.0-1.11,TRUE,FALSE,FALSE,FALSE,"""event"",""trial"",""time""
""fullscreenenter"",""5"",""12616""
","
","
","""event"",""trial"",""time""
""fullscreenenter"",""5"",""12616""
","
",694,NA,49,NA,NA,3000,1,NA,NA,images/redplanet1.jpg,images/alien2,images/alien1,images/rocket1,images/alien1,images/t.png,2,real,false,1,rare,1,2020-06-21T05:58:22Z,sub114
two-step-fixation,170,551033,0.0-76.0-2.11,TRUE,FALSE,FALSE,FALSE,"""event"",""trial"",""time""
""fullscreenenter"",""5"",""12616""
","
","
","""event"",""trial"",""time""
""fullscreenenter"",""5"",""12616""
","
",NA,images/earth.jpg,NA,NA,NA,NA,NA,NA,NA,NA,NA,NA,NA,NA,NA,fixation,NA,NA,NA,NA,NA,NA,sub114
d3-animate-choice,171,553392,0.0-76.0-0.12,TRUE,FALSE,FALSE,FALSE,"""event"",""trial"",""time""
""fullscreenenter"",""5"",""12616""
","
","
","""event"",""trial"",""time""
""fullscreenenter"",""5"",""12616""
","
",357,NA,49,NA,NA,3000,1,NA,NA,images/earth.jpg,images/rocket2,images/rocket1,null,images/rocket1,NA,1,real,null,1,NA,NA,NA,sub114
d3-animate-choice,172,556359,0.0-76.0-1.12,TRUE,FALSE,FALSE,FALSE,"""event"",""trial"",""time""
""fullscreenenter"",""5"",""12616""
","
","
","""event"",""trial"",""time""
""fullscreenenter"",""5"",""12616""
","
",964,NA,49,NA,NA,3000,1,NA,NA,images/purpleplanet.jpg,images/alien4,images/alien3,images/rocket1,images/alien3,images/nothing.png,2,real,true,1,common,0,2020-06-21T05:58:28Z,sub114
two-step-fixation,173,557360,0.0-76.0-2.12,TRUE,FALSE,FALSE,FALSE,"""event"",""trial"",""time""
""fullscreenenter"",""5"",""12616""
","
","
","""event"",""trial"",""time""
""fullscreenenter"",""5"",""12616""
","
",NA,images/earth.jpg,NA,NA,NA,NA,NA,NA,NA,NA,NA,NA,NA,NA,NA,fixation,NA,NA,NA,NA,NA,NA,sub114
d3-animate-choice,174,559672,0.0-76.0-0.13,TRUE,FALSE,FALSE,FALSE,"""event"",""trial"",""time""
""fullscreenenter"",""5"",""12616""
","
","
","""event"",""trial"",""time""
""fullscreenenter"",""5"",""12616""
","
",310,NA,49,NA,NA,3000,1,NA,NA,images/earth.jpg,images/rocket2,images/rocket1,null,images/rocket1,NA,1,real,null,1,NA,NA,NA,sub114
d3-animate-choice,175,562387,0.0-76.0-1.13,TRUE,FALSE,FALSE,FALSE,"""event"",""trial"",""time""
""fullscreenenter"",""5"",""12616""
","
","
","""event"",""trial"",""time""
""fullscreenenter"",""5"",""12616""
","
",713.0000000001164,NA,48,NA,NA,3000,1,NA,NA,images/purpleplanet.jpg,images/alien4,images/alien3,images/rocket1,images/alien4,images/nothing.png,2,real,true,2,common,0,2020-06-21T05:58:34Z,sub114
two-step-fixation,176,563389,0.0-76.0-2.13,TRUE,FALSE,FALSE,FALSE,"""event"",""trial"",""time""
""fullscreenenter"",""5"",""12616""
","
","
","""event"",""trial"",""time""
""fullscreenenter"",""5"",""12616""
","
",NA,images/earth.jpg,NA,NA,NA,NA,NA,NA,NA,NA,NA,NA,NA,NA,NA,fixation,NA,NA,NA,NA,NA,NA,sub114
d3-animate-choice,177,565681,0.0-76.0-0.14,TRUE,FALSE,FALSE,FALSE,"""event"",""trial"",""time""
""fullscreenenter"",""5"",""12616""
","
","
","""event"",""trial"",""time""
""fullscreenenter"",""5"",""12616""
","
",290,NA,49,NA,NA,3000,1,NA,NA,images/earth.jpg,images/rocket2,images/rocket1,null,images/rocket1,NA,1,real,null,1,NA,NA,NA,sub114
d3-animate-choice,178,568470,0.0-76.0-1.14,TRUE,FALSE,FALSE,FALSE,"""event"",""trial"",""time""
""fullscreenenter"",""5"",""12616""
","
","
","""event"",""trial"",""time""
""fullscreenenter"",""5"",""12616""
","
",787,NA,48,NA,NA,3000,1,NA,NA,images/purpleplanet.jpg,images/alien4,images/alien3,images/rocket1,images/alien4,images/t.png,2,real,true,2,common,1,2020-06-21T05:58:40Z,sub114
two-step-fixation,179,569471,0.0-76.0-2.14,TRUE,FALSE,FALSE,FALSE,"""event"",""trial"",""time""
""fullscreenenter"",""5"",""12616""
","
","
","""event"",""trial"",""time""
""fullscreenenter"",""5"",""12616""
","
",NA,images/earth.jpg,NA,NA,NA,NA,NA,NA,NA,NA,NA,NA,NA,NA,NA,fixation,NA,NA,NA,NA,NA,NA,sub114
d3-animate-choice,180,571798,0.0-76.0-0.15,TRUE,FALSE,FALSE,FALSE,"""event"",""trial"",""time""
""fullscreenenter"",""5"",""12616""
","
","
","""event"",""trial"",""time""
""fullscreenenter"",""5"",""12616""
","
",324,NA,49,NA,NA,3000,1,NA,NA,images/earth.jpg,images/rocket2,images/rocket1,null,images/rocket1,NA,1,real,null,1,NA,NA,NA,sub114
d3-animate-choice,181,574450,0.0-76.0-1.15,TRUE,FALSE,FALSE,FALSE,"""event"",""trial"",""time""
""fullscreenenter"",""5"",""12616""
","
","
","""event"",""trial"",""time""
""fullscreenenter"",""5"",""12616""
","
",650,NA,49,NA,NA,3000,1,NA,NA,images/redplanet1.jpg,images/alien2,images/alien1,images/rocket1,images/alien1,images/t.png,2,real,false,1,rare,1,2020-06-21T05:58:46Z,sub114
two-step-fixation,182,575452,0.0-76.0-2.15,TRUE,FALSE,FALSE,FALSE,"""event"",""trial"",""time""
""fullscreenenter"",""5"",""12616""
","
","
","""event"",""trial"",""time""
""fullscreenenter"",""5"",""12616""
","
",NA,images/earth.jpg,NA,NA,NA,NA,NA,NA,NA,NA,NA,NA,NA,NA,NA,fixation,NA,NA,NA,NA,NA,NA,sub114
d3-animate-choice,183,577745,0.0-76.0-0.16,TRUE,FALSE,FALSE,FALSE,"""event"",""trial"",""time""
""fullscreenenter"",""5"",""12616""
","
","
","""event"",""trial"",""time""
""fullscreenenter"",""5"",""12616""
","
",291,NA,49,NA,NA,3000,1,NA,NA,images/earth.jpg,images/rocket2,images/rocket1,null,images/rocket1,NA,1,real,null,1,NA,NA,NA,sub114
d3-animate-choice,184,580767,0.0-76.0-1.16,TRUE,FALSE,FALSE,FALSE,"""event"",""trial"",""time""
""fullscreenenter"",""5"",""12616""
","
","
","""event"",""trial"",""time""
""fullscreenenter"",""5"",""12616""
","
",1020,NA,48,NA,NA,3000,1,NA,NA,images/purpleplanet.jpg,images/alien4,images/alien3,images/rocket1,images/alien4,images/t.png,2,real,true,2,common,1,2020-06-21T05:58:53Z,sub114
two-step-fixation,185,581768,0.0-76.0-2.16,TRUE,FALSE,FALSE,FALSE,"""event"",""trial"",""time""
""fullscreenenter"",""5"",""12616""
","
","
","""event"",""trial"",""time""
""fullscreenenter"",""5"",""12616""
","
",NA,images/earth.jpg,NA,NA,NA,NA,NA,NA,NA,NA,NA,NA,NA,NA,NA,fixation,NA,NA,NA,NA,NA,NA,sub114
d3-animate-choice,186,584276,0.0-76.0-0.17,TRUE,FALSE,FALSE,FALSE,"""event"",""trial"",""time""
""fullscreenenter"",""5"",""12616""
","
","
","""event"",""trial"",""time""
""fullscreenenter"",""5"",""12616""
","
",506,NA,49,NA,NA,3000,1,NA,NA,images/earth.jpg,images/rocket2,images/rocket1,null,images/rocket1,NA,1,real,null,1,NA,NA,NA,sub114
d3-animate-choice,187,586801,0.0-76.0-1.17,TRUE,FALSE,FALSE,FALSE,"""event"",""trial"",""time""
""fullscreenenter"",""5"",""12616""
","
","
","""event"",""trial"",""time""
""fullscreenenter"",""5"",""12616""
","
",523,NA,49,NA,NA,3000,1,NA,NA,images/redplanet1.jpg,images/alien2,images/alien1,images/rocket1,images/alien1,images/t.png,2,real,false,1,rare,1,2020-06-21T05:58:59Z,sub114
two-step-fixation,188,587802,0.0-76.0-2.17,TRUE,FALSE,FALSE,FALSE,"""event"",""trial"",""time""
""fullscreenenter"",""5"",""12616""
","
","
","""event"",""trial"",""time""
""fullscreenenter"",""5"",""12616""
","
",NA,images/earth.jpg,NA,NA,NA,NA,NA,NA,NA,NA,NA,NA,NA,NA,NA,fixation,NA,NA,NA,NA,NA,NA,sub114
d3-animate-choice,189,590135,0.0-76.0-0.18,TRUE,FALSE,FALSE,FALSE,"""event"",""trial"",""time""
""fullscreenenter"",""5"",""12616""
","
","
","""event"",""trial"",""time""
""fullscreenenter"",""5"",""12616""
","
",331,NA,49,NA,NA,3000,1,NA,NA,images/earth.jpg,images/rocket2,images/rocket1,null,images/rocket1,NA,1,real,null,1,NA,NA,NA,sub114
d3-animate-choice,190,592690,0.0-76.0-1.18,TRUE,FALSE,FALSE,FALSE,"""event"",""trial"",""time""
""fullscreenenter"",""5"",""12616""
","
","
","""event"",""trial"",""time""
""fullscreenenter"",""5"",""12616""
","
",553,NA,48,NA,NA,3000,1,NA,NA,images/purpleplanet.jpg,images/alien4,images/alien3,images/rocket1,images/alien4,images/t.png,2,real,true,2,common,1,2020-06-21T05:59:05Z,sub114
two-step-fixation,191,593692,0.0-76.0-2.18,TRUE,FALSE,FALSE,FALSE,"""event"",""trial"",""time""
""fullscreenenter"",""5"",""12616""
","
","
","""event"",""trial"",""time""
""fullscreenenter"",""5"",""12616""
","
",NA,images/earth.jpg,NA,NA,NA,NA,NA,NA,NA,NA,NA,NA,NA,NA,NA,fixation,NA,NA,NA,NA,NA,NA,sub114
d3-animate-choice,192,596001,0.0-76.0-0.19,TRUE,FALSE,FALSE,FALSE,"""event"",""trial"",""time""
""fullscreenenter"",""5"",""12616""
","
","
","""event"",""trial"",""time""
""fullscreenenter"",""5"",""12616""
","
",307,NA,49,NA,NA,3000,1,NA,NA,images/earth.jpg,images/rocket2,images/rocket1,null,images/rocket1,NA,1,real,null,1,NA,NA,NA,sub114
d3-animate-choice,193,598874,0.0-76.0-1.19,TRUE,FALSE,FALSE,FALSE,"""event"",""trial"",""time""
""fullscreenenter"",""5"",""12616""
","
","
","""event"",""trial"",""time""
""fullscreenenter"",""5"",""12616""
","
",871,NA,48,NA,NA,3000,1,NA,NA,images/purpleplanet.jpg,images/alien4,images/alien3,images/rocket1,images/alien4,images/t.png,2,real,true,2,common,1,2020-06-21T05:59:11Z,sub114
two-step-fixation,194,599876,0.0-76.0-2.19,TRUE,FALSE,FALSE,FALSE,"""event"",""trial"",""time""
""fullscreenenter"",""5"",""12616""
","
","
","""event"",""trial"",""time""
""fullscreenenter"",""5"",""12616""
","
",NA,images/earth.jpg,NA,NA,NA,NA,NA,NA,NA,NA,NA,NA,NA,NA,NA,fixation,NA,NA,NA,NA,NA,NA,sub114
d3-animate-choice,195,602295,0.0-76.0-0.20,TRUE,FALSE,FALSE,FALSE,"""event"",""trial"",""time""
""fullscreenenter"",""5"",""12616""
","
","
","""event"",""trial"",""time""
""fullscreenenter"",""5"",""12616""
","
",418,NA,49,NA,NA,3000,1,NA,NA,images/earth.jpg,images/rocket2,images/rocket1,null,images/rocket1,NA,1,real,null,1,NA,NA,NA,sub114
d3-animate-choice,196,604852,0.0-76.0-1.20,TRUE,FALSE,FALSE,FALSE,"""event"",""trial"",""time""
""fullscreenenter"",""5"",""12616""
","
","
","""event"",""trial"",""time""
""fullscreenenter"",""5"",""12616""
","
",555,NA,49,NA,NA,3000,1,NA,NA,images/redplanet1.jpg,images/alien2,images/alien1,images/rocket1,images/alien1,images/t.png,2,real,false,1,rare,1,2020-06-21T05:59:17Z,sub114
two-step-fixation,197,605854,0.0-76.0-2.20,TRUE,FALSE,FALSE,FALSE,"""event"",""trial"",""time""
""fullscreenenter"",""5"",""12616""
","
","
","""event"",""trial"",""time""
""fullscreenenter"",""5"",""12616""
","
",NA,images/earth.jpg,NA,NA,NA,NA,NA,NA,NA,NA,NA,NA,NA,NA,NA,fixation,NA,NA,NA,NA,NA,NA,sub114
d3-animate-choice,198,608229,0.0-76.0-0.21,TRUE,FALSE,FALSE,FALSE,"""event"",""trial"",""time""
""fullscreenenter"",""5"",""12616""
","
","
","""event"",""trial"",""time""
""fullscreenenter"",""5"",""12616""
","
",374,NA,49,NA,NA,3000,1,NA,NA,images/earth.jpg,images/rocket2,images/rocket1,null,images/rocket1,NA,1,real,null,1,NA,NA,NA,sub114
d3-animate-choice,199,611123,0.0-76.0-1.21,TRUE,FALSE,FALSE,FALSE,"""event"",""trial"",""time""
""fullscreenenter"",""5"",""12616""
","
","
","""event"",""trial"",""time""
""fullscreenenter"",""5"",""12616""
","
",892,NA,49,NA,NA,3000,1,NA,NA,images/redplanet1.jpg,images/alien2,images/alien1,images/rocket1,images/alien1,images/t.png,2,real,false,1,rare,1,2020-06-21T05:59:23Z,sub114
two-step-fixation,200,612125,0.0-76.0-2.21,TRUE,FALSE,FALSE,FALSE,"""event"",""trial"",""time""
""fullscreenenter"",""5"",""12616""
","
","
","""event"",""trial"",""time""
""fullscreenenter"",""5"",""12616""
","
",NA,images/earth.jpg,NA,NA,NA,NA,NA,NA,NA,NA,NA,NA,NA,NA,NA,fixation,NA,NA,NA,NA,NA,NA,sub114
d3-animate-choice,201,614492,0.0-76.0-0.22,TRUE,FALSE,FALSE,FALSE,"""event"",""trial"",""time""
""fullscreenenter"",""5"",""12616""
","
","
","""event"",""trial"",""time""
""fullscreenenter"",""5"",""12616""
","
",365,NA,49,NA,NA,3000,1,NA,NA,images/earth.jpg,images/rocket2,images/rocket1,null,images/rocket1,NA,1,real,null,1,NA,NA,NA,sub114
d3-animate-choice,202,617065,0.0-76.0-1.22,TRUE,FALSE,FALSE,FALSE,"""event"",""trial"",""time""
""fullscreenenter"",""5"",""12616""
","
","
","""event"",""trial"",""time""
""fullscreenenter"",""5"",""12616""
","
",571,NA,48,NA,NA,3000,1,NA,NA,images/purpleplanet.jpg,images/alien4,images/alien3,images/rocket1,images/alien4,images/nothing.png,2,real,true,2,common,0,2020-06-21T05:59:29Z,sub114
two-step-fixation,203,618066,0.0-76.0-2.22,TRUE,FALSE,FALSE,FALSE,"""event"",""trial"",""time""
""fullscreenenter"",""5"",""12616""
","
","
","""event"",""trial"",""time""
""fullscreenenter"",""5"",""12616""
","
",NA,images/earth.jpg,NA,NA,NA,NA,NA,NA,NA,NA,NA,NA,NA,NA,NA,fixation,NA,NA,NA,NA,NA,NA,sub114
d3-animate-choice,204,620546,0.0-76.0-0.23,TRUE,FALSE,FALSE,FALSE,"""event"",""trial"",""time""
""fullscreenenter"",""5"",""12616""
","
","
","""event"",""trial"",""time""
""fullscreenenter"",""5"",""12616""
","
",478,NA,49,NA,NA,3000,1,NA,NA,images/earth.jpg,images/rocket2,images/rocket1,null,images/rocket1,NA,1,real,null,1,NA,NA,NA,sub114
d3-animate-choice,205,623330,0.0-76.0-1.23,TRUE,FALSE,FALSE,FALSE,"""event"",""trial"",""time""
""fullscreenenter"",""5"",""12616""
","
","
","""event"",""trial"",""time""
""fullscreenenter"",""5"",""12616""
","
",781,NA,48,NA,NA,3000,1,NA,NA,images/purpleplanet.jpg,images/alien4,images/alien3,images/rocket1,images/alien4,images/t.png,2,real,true,2,common,1,2020-06-21T05:59:35Z,sub114
two-step-fixation,206,624332,0.0-76.0-2.23,TRUE,FALSE,FALSE,FALSE,"""event"",""trial"",""time""
""fullscreenenter"",""5"",""12616""
","
","
","""event"",""trial"",""time""
""fullscreenenter"",""5"",""12616""
","
",NA,images/earth.jpg,NA,NA,NA,NA,NA,NA,NA,NA,NA,NA,NA,NA,NA,fixation,NA,NA,NA,NA,NA,NA,sub114
d3-animate-choice,207,626711,0.0-76.0-0.24,TRUE,FALSE,FALSE,FALSE,"""event"",""trial"",""time""
""fullscreenenter"",""5"",""12616""
","
","
","""event"",""trial"",""time""
""fullscreenenter"",""5"",""12616""
","
",377.0000000001164,NA,49,NA,NA,3000,1,NA,NA,images/earth.jpg,images/rocket2,images/rocket1,null,images/rocket1,NA,1,real,null,1,NA,NA,NA,sub114
d3-animate-choice,208,629399,0.0-76.0-1.24,TRUE,FALSE,FALSE,FALSE,"""event"",""trial"",""time""
""fullscreenenter"",""5"",""12616""
","
","
","""event"",""trial"",""time""
""fullscreenenter"",""5"",""12616""
","
",686,NA,49,NA,NA,3000,1,NA,NA,images/redplanet1.jpg,images/alien2,images/alien1,images/rocket1,images/alien1,images/t.png,2,real,false,1,rare,1,2020-06-21T05:59:41Z,sub114
two-step-fixation,209,630401,0.0-76.0-2.24,TRUE,FALSE,FALSE,FALSE,"""event"",""trial"",""time""
""fullscreenenter"",""5"",""12616""
","
","
","""event"",""trial"",""time""
""fullscreenenter"",""5"",""12616""
","
",NA,images/earth.jpg,NA,NA,NA,NA,NA,NA,NA,NA,NA,NA,NA,NA,NA,fixation,NA,NA,NA,NA,NA,NA,sub114
d3-animate-choice,210,632831,0.0-76.0-0.25,TRUE,FALSE,FALSE,FALSE,"""event"",""trial"",""time""
""fullscreenenter"",""5"",""12616""
","
","
","""event"",""trial"",""time""
""fullscreenenter"",""5"",""12616""
","
",428.0000000001164,NA,49,NA,NA,3000,1,NA,NA,images/earth.jpg,images/rocket2,images/rocket1,null,images/rocket1,NA,1,real,null,1,NA,NA,NA,sub114
d3-animate-choice,211,635379,0.0-76.0-1.25,TRUE,FALSE,FALSE,FALSE,"""event"",""trial"",""time""
""fullscreenenter"",""5"",""12616""
","
","
","""event"",""trial"",""time""
""fullscreenenter"",""5"",""12616""
","
",546,NA,49,NA,NA,3000,1,NA,NA,images/redplanet1.jpg,images/alien2,images/alien1,images/rocket1,images/alien1,images/t.png,2,real,false,1,rare,1,2020-06-21T05:59:47Z,sub114
two-step-fixation,212,636380,0.0-76.0-2.25,TRUE,FALSE,FALSE,FALSE,"""event"",""trial"",""time""
""fullscreenenter"",""5"",""12616""
","
","
","""event"",""trial"",""time""
""fullscreenenter"",""5"",""12616""
","
",NA,images/earth.jpg,NA,NA,NA,NA,NA,NA,NA,NA,NA,NA,NA,NA,NA,fixation,NA,NA,NA,NA,NA,NA,sub114
d3-animate-choice,213,638907,0.0-76.0-0.26,TRUE,FALSE,FALSE,FALSE,"""event"",""trial"",""time""
""fullscreenenter"",""5"",""12616""
","
","
","""event"",""trial"",""time""
""fullscreenenter"",""5"",""12616""
","
",525,NA,49,NA,NA,3000,1,NA,NA,images/earth.jpg,images/rocket2,images/rocket1,null,images/rocket1,NA,1,real,null,1,NA,NA,NA,sub114
d3-animate-choice,214,641549,0.0-76.0-1.26,TRUE,FALSE,FALSE,FALSE,"""event"",""trial"",""time""
""fullscreenenter"",""5"",""12616""
","
","
","""event"",""trial"",""time""
""fullscreenenter"",""5"",""12616""
","
",640,NA,48,NA,NA,3000,1,NA,NA,images/purpleplanet.jpg,images/alien4,images/alien3,images/rocket1,images/alien4,images/t.png,2,real,true,2,common,1,2020-06-21T05:59:54Z,sub114
two-step-fixation,215,642551,0.0-76.0-2.26,TRUE,FALSE,FALSE,FALSE,"""event"",""trial"",""time""
""fullscreenenter"",""5"",""12616""
","
","
","""event"",""trial"",""time""
""fullscreenenter"",""5"",""12616""
","
",NA,images/earth.jpg,NA,NA,NA,NA,NA,NA,NA,NA,NA,NA,NA,NA,NA,fixation,NA,NA,NA,NA,NA,NA,sub114
d3-animate-choice,216,644877,0.0-76.0-0.27,TRUE,FALSE,FALSE,FALSE,"""event"",""trial"",""time""
""fullscreenenter"",""5"",""12616""
","
","
","""event"",""trial"",""time""
""fullscreenenter"",""5"",""12616""
","
",324,NA,49,NA,NA,3000,1,NA,NA,images/earth.jpg,images/rocket2,images/rocket1,null,images/rocket1,NA,1,real,null,1,NA,NA,NA,sub114
d3-animate-choice,217,647535,0.0-76.0-1.27,TRUE,FALSE,FALSE,FALSE,"""event"",""trial"",""time""
""fullscreenenter"",""5"",""12616""
","
","
","""event"",""trial"",""time""
""fullscreenenter"",""5"",""12616""
","
",655,NA,48,NA,NA,3000,1,NA,NA,images/purpleplanet.jpg,images/alien4,images/alien3,images/rocket1,images/alien4,images/nothing.png,2,real,true,2,common,0,2020-06-21T06:00:00Z,sub114
two-step-fixation,218,648536,0.0-76.0-2.27,TRUE,FALSE,FALSE,FALSE,"""event"",""trial"",""time""
""fullscreenenter"",""5"",""12616""
","
","
","""event"",""trial"",""time""
""fullscreenenter"",""5"",""12616""
","
",NA,images/earth.jpg,NA,NA,NA,NA,NA,NA,NA,NA,NA,NA,NA,NA,NA,fixation,NA,NA,NA,NA,NA,NA,sub114
d3-animate-choice,219,650877,0.0-76.0-0.28,TRUE,FALSE,FALSE,FALSE,"""event"",""trial"",""time""
""fullscreenenter"",""5"",""12616""
","
","
","""event"",""trial"",""time""
""fullscreenenter"",""5"",""12616""
","
",340,NA,49,NA,NA,3000,1,NA,NA,images/earth.jpg,images/rocket2,images/rocket1,null,images/rocket1,NA,1,real,null,1,NA,NA,NA,sub114
d3-animate-choice,220,653470,0.0-76.0-1.28,TRUE,FALSE,FALSE,FALSE,"""event"",""trial"",""time""
""fullscreenenter"",""5"",""12616""
","
","
","""event"",""trial"",""time""
""fullscreenenter"",""5"",""12616""
","
",591,NA,48,NA,NA,3000,1,NA,NA,images/purpleplanet.jpg,images/alien4,images/alien3,images/rocket1,images/alien4,images/t.png,2,real,true,2,common,1,2020-06-21T06:00:05Z,sub114
two-step-fixation,221,654472,0.0-76.0-2.28,TRUE,FALSE,FALSE,FALSE,"""event"",""trial"",""time""
""fullscreenenter"",""5"",""12616""
","
","
","""event"",""trial"",""time""
""fullscreenenter"",""5"",""12616""
","
",NA,images/earth.jpg,NA,NA,NA,NA,NA,NA,NA,NA,NA,NA,NA,NA,NA,fixation,NA,NA,NA,NA,NA,NA,sub114
d3-animate-choice,222,656814,0.0-76.0-0.29,TRUE,FALSE,FALSE,FALSE,"""event"",""trial"",""time""
""fullscreenenter"",""5"",""12616""
","
","
","""event"",""trial"",""time""
""fullscreenenter"",""5"",""12616""
","
",340,NA,49,NA,NA,3000,1,NA,NA,images/earth.jpg,images/rocket2,images/rocket1,null,images/rocket1,NA,1,real,null,1,NA,NA,NA,sub114
d3-animate-choice,223,659464,0.0-76.0-1.29,TRUE,FALSE,FALSE,FALSE,"""event"",""trial"",""time""
""fullscreenenter"",""5"",""12616""
","
","
","""event"",""trial"",""time""
""fullscreenenter"",""5"",""12616""
","
",648,NA,49,NA,NA,3000,1,NA,NA,images/redplanet1.jpg,images/alien2,images/alien1,images/rocket1,images/alien1,images/nothing.png,2,real,false,1,rare,0,2020-06-21T06:00:11Z,sub114
two-step-fixation,224,660466,0.0-76.0-2.29,TRUE,FALSE,FALSE,FALSE,"""event"",""trial"",""time""
""fullscreenenter"",""5"",""12616""
","
","
","""event"",""trial"",""time""
""fullscreenenter"",""5"",""12616""
","
",NA,images/earth.jpg,NA,NA,NA,NA,NA,NA,NA,NA,NA,NA,NA,NA,NA,fixation,NA,NA,NA,NA,NA,NA,sub114
d3-animate-choice,225,662979,0.0-76.0-0.30,TRUE,FALSE,FALSE,FALSE,"""event"",""trial"",""time""
""fullscreenenter"",""5"",""12616""
","
","
","""event"",""trial"",""time""
""fullscreenenter"",""5"",""12616""
","
",511,NA,49,NA,NA,3000,1,NA,NA,images/earth.jpg,images/rocket2,images/rocket1,null,images/rocket1,NA,1,real,null,1,NA,NA,NA,sub114
d3-animate-choice,226,665653,0.0-76.0-1.30,TRUE,FALSE,FALSE,FALSE,"""event"",""trial"",""time""
""fullscreenenter"",""5"",""12616""
","
","
","""event"",""trial"",""time""
""fullscreenenter"",""5"",""12616""
","
",671.9999999998836,NA,49,NA,NA,3000,1,NA,NA,images/redplanet1.jpg,images/alien2,images/alien1,images/rocket1,images/alien1,images/t.png,2,real,false,1,rare,1,2020-06-21T06:00:18Z,sub114
two-step-fixation,227,666654,0.0-76.0-2.30,TRUE,FALSE,FALSE,FALSE,"""event"",""trial"",""time""
""fullscreenenter"",""5"",""12616""
","
","
","""event"",""trial"",""time""
""fullscreenenter"",""5"",""12616""
","
",NA,images/earth.jpg,NA,NA,NA,NA,NA,NA,NA,NA,NA,NA,NA,NA,NA,fixation,NA,NA,NA,NA,NA,NA,sub114
d3-animate-choice,228,669184,0.0-76.0-0.31,TRUE,FALSE,FALSE,FALSE,"""event"",""trial"",""time""
""fullscreenenter"",""5"",""12616""
","
","
","""event"",""trial"",""time""
""fullscreenenter"",""5"",""12616""
","
",527.0000000001164,NA,49,NA,NA,3000,1,1239,57,images/earth.jpg,images/rocket2,images/rocket1,null,images/rocket1,NA,1,real,null,1,NA,NA,NA,sub114
d3-animate-choice,229,671868,0.0-76.0-1.31,TRUE,FALSE,FALSE,FALSE,"""event"",""trial"",""time""
""fullscreenenter"",""5"",""12616""
","
","
","""event"",""trial"",""time""
""fullscreenenter"",""5"",""12616""
","
",683,NA,49,NA,NA,3000,1,NA,NA,images/redplanet1.jpg,images/alien2,images/alien1,images/rocket1,images/alien1,images/t.png,2,real,false,1,rare,1,2020-06-21T06:00:24Z,sub114
two-step-fixation,230,672870,0.0-76.0-2.31,TRUE,FALSE,FALSE,FALSE,"""event"",""trial"",""time""
""fullscreenenter"",""5"",""12616""
","
","
","""event"",""trial"",""time""
""fullscreenenter"",""5"",""12616""
","
",NA,images/earth.jpg,NA,NA,NA,NA,NA,NA,NA,NA,NA,NA,NA,NA,NA,fixation,NA,NA,NA,NA,NA,NA,sub114
d3-animate-choice,231,675518,0.0-76.0-0.32,TRUE,FALSE,FALSE,FALSE,"""event"",""trial"",""time""
""fullscreenenter"",""5"",""12616""
","
","
","""event"",""trial"",""time""
""fullscreenenter"",""5"",""12616""
","
",647,NA,49,NA,NA,3000,1,NA,NA,images/earth.jpg,images/rocket2,images/rocket1,null,images/rocket1,NA,1,real,null,1,NA,NA,NA,sub114
d3-animate-choice,232,678254,0.0-76.0-1.32,TRUE,FALSE,FALSE,FALSE,"""event"",""trial"",""time""
""fullscreenenter"",""5"",""12616""
","
","
","""event"",""trial"",""time""
""fullscreenenter"",""5"",""12616""
","
",734,NA,49,NA,NA,3000,1,NA,NA,images/redplanet1.jpg,images/alien2,images/alien1,images/rocket1,images/alien1,images/t.png,2,real,false,1,rare,1,2020-06-21T06:00:30Z,sub114
two-step-fixation,233,679256,0.0-76.0-2.32,TRUE,FALSE,FALSE,FALSE,"""event"",""trial"",""time""
""fullscreenenter"",""5"",""12616""
","
","
","""event"",""trial"",""time""
""fullscreenenter"",""5"",""12616""
","
",NA,images/earth.jpg,NA,NA,NA,NA,NA,NA,NA,NA,NA,NA,NA,NA,NA,fixation,NA,NA,NA,NA,NA,NA,sub114
d3-animate-choice,234,681737,0.0-76.0-0.33,TRUE,FALSE,FALSE,FALSE,"""event"",""trial"",""time""
""fullscreenenter"",""5"",""12616""
","
","
","""event"",""trial"",""time""
""fullscreenenter"",""5"",""12616""
","
",480,NA,49,NA,NA,3000,1,NA,NA,images/earth.jpg,images/rocket2,images/rocket1,null,images/rocket1,NA,1,real,null,1,NA,NA,NA,sub114
d3-animate-choice,235,684448,0.0-76.0-1.33,TRUE,FALSE,FALSE,FALSE,"""event"",""trial"",""time""
""fullscreenenter"",""5"",""12616""
","
","
","""event"",""trial"",""time""
""fullscreenenter"",""5"",""12616""
","
",709,NA,48,NA,NA,3000,1,NA,NA,images/purpleplanet.jpg,images/alien4,images/alien3,images/rocket1,images/alien4,images/t.png,2,real,true,2,common,1,2020-06-21T06:00:36Z,sub114
two-step-fixation,236,685450,0.0-76.0-2.33,TRUE,FALSE,FALSE,FALSE,"""event"",""trial"",""time""
""fullscreenenter"",""5"",""12616""
","
","
","""event"",""trial"",""time""
""fullscreenenter"",""5"",""12616""
","
",NA,images/earth.jpg,NA,NA,NA,NA,NA,NA,NA,NA,NA,NA,NA,NA,NA,fixation,NA,NA,NA,NA,NA,NA,sub114
d3-animate-choice,237,687965,0.0-76.0-0.34,TRUE,FALSE,FALSE,FALSE,"""event"",""trial"",""time""
""fullscreenenter"",""5"",""12616""
","
","
","""event"",""trial"",""time""
""fullscreenenter"",""5"",""12616""
","
",512,NA,49,NA,NA,3000,1,NA,NA,images/earth.jpg,images/rocket2,images/rocket1,null,images/rocket1,NA,1,real,null,1,NA,NA,NA,sub114
d3-animate-choice,238,691025,0.0-76.0-1.34,TRUE,FALSE,FALSE,FALSE,"""event"",""trial"",""time""
""fullscreenenter"",""5"",""12616""
","
","
","""event"",""trial"",""time""
""fullscreenenter"",""5"",""12616""
","
",1058,NA,48,NA,NA,3000,1,NA,NA,images/purpleplanet.jpg,images/alien4,images/alien3,images/rocket1,images/alien4,images/t.png,2,real,true,2,common,1,2020-06-21T06:00:43Z,sub114
two-step-fixation,239,692027,0.0-76.0-2.34,TRUE,FALSE,FALSE,FALSE,"""event"",""trial"",""time""
""fullscreenenter"",""5"",""12616""
","
","
","""event"",""trial"",""time""
""fullscreenenter"",""5"",""12616""
","
",NA,images/earth.jpg,NA,NA,NA,NA,NA,NA,NA,NA,NA,NA,NA,NA,NA,fixation,NA,NA,NA,NA,NA,NA,sub114
d3-animate-choice,240,694548,0.0-76.0-0.35,TRUE,FALSE,FALSE,FALSE,"""event"",""trial"",""time""
""fullscreenenter"",""5"",""12616""
","
","
","""event"",""trial"",""time""
""fullscreenenter"",""5"",""12616""
","
",519,NA,49,NA,NA,3000,1,NA,NA,images/earth.jpg,images/rocket2,images/rocket1,null,images/rocket1,NA,1,real,null,1,NA,NA,NA,sub114
d3-animate-choice,241,697325,0.0-76.0-1.35,TRUE,FALSE,FALSE,FALSE,"""event"",""trial"",""time""
""fullscreenenter"",""5"",""12616""
","
","
","""event"",""trial"",""time""
""fullscreenenter"",""5"",""12616""
","
",776,NA,48,NA,NA,3000,1,NA,NA,images/purpleplanet.jpg,images/alien4,images/alien3,images/rocket1,images/alien4,images/nothing.png,2,real,true,2,common,0,2020-06-21T06:00:49Z,sub114
two-step-fixation,242,698327,0.0-76.0-2.35,TRUE,FALSE,FALSE,FALSE,"""event"",""trial"",""time""
""fullscreenenter"",""5"",""12616""
","
","
","""event"",""trial"",""time""
""fullscreenenter"",""5"",""12616""
","
",NA,images/earth.jpg,NA,NA,NA,NA,NA,NA,NA,NA,NA,NA,NA,NA,NA,fixation,NA,NA,NA,NA,NA,NA,sub114
d3-animate-choice,243,700858,0.0-76.0-0.36,TRUE,FALSE,FALSE,FALSE,"""event"",""trial"",""time""
""fullscreenenter"",""5"",""12616""
","
","
","""event"",""trial"",""time""
""fullscreenenter"",""5"",""12616""
","
",529,NA,49,NA,NA,3000,1,NA,NA,images/earth.jpg,images/rocket2,images/rocket1,null,images/rocket1,NA,1,real,null,1,NA,NA,NA,sub114
d3-animate-choice,244,703620,0.0-76.0-1.36,TRUE,FALSE,FALSE,FALSE,"""event"",""trial"",""time""
""fullscreenenter"",""5"",""12616""
","
","
","""event"",""trial"",""time""
""fullscreenenter"",""5"",""12616""
","
",759,NA,49,NA,NA,3000,1,NA,NA,images/redplanet1.jpg,images/alien2,images/alien1,images/rocket1,images/alien1,images/nothing.png,2,real,false,1,rare,0,2020-06-21T06:00:56Z,sub114
two-step-fixation,245,704621,0.0-76.0-2.36,TRUE,FALSE,FALSE,FALSE,"""event"",""trial"",""time""
""fullscreenenter"",""5"",""12616""
","
","
","""event"",""trial"",""time""
""fullscreenenter"",""5"",""12616""
","
",NA,images/earth.jpg,NA,NA,NA,NA,NA,NA,NA,NA,NA,NA,NA,NA,NA,fixation,NA,NA,NA,NA,NA,NA,sub114
d3-animate-choice,246,707151,0.0-76.0-0.37,TRUE,FALSE,FALSE,FALSE,"""event"",""trial"",""time""
""fullscreenenter"",""5"",""12616""
","
","
","""event"",""trial"",""time""
""fullscreenenter"",""5"",""12616""
","
",528,NA,49,NA,NA,3000,1,NA,NA,images/earth.jpg,images/rocket2,images/rocket1,null,images/rocket1,NA,1,real,null,1,NA,NA,NA,sub114
d3-animate-choice,247,709902,0.0-76.0-1.37,TRUE,FALSE,FALSE,FALSE,"""event"",""trial"",""time""
""fullscreenenter"",""5"",""12616""
","
","
","""event"",""trial"",""time""
""fullscreenenter"",""5"",""12616""
","
",750,NA,48,NA,NA,3000,1,NA,NA,images/purpleplanet.jpg,images/alien4,images/alien3,images/rocket1,images/alien4,images/t.png,2,real,true,2,common,1,2020-06-21T06:01:02Z,sub114
two-step-fixation,248,710904,0.0-76.0-2.37,TRUE,FALSE,FALSE,FALSE,"""event"",""trial"",""time""
""fullscreenenter"",""5"",""12616""
","
","
","""event"",""trial"",""time""
""fullscreenenter"",""5"",""12616""
","
",NA,images/earth.jpg,NA,NA,NA,NA,NA,NA,NA,NA,NA,NA,NA,NA,NA,fixation,NA,NA,NA,NA,NA,NA,sub114
d3-animate-choice,249,713507,0.0-76.0-0.38,TRUE,FALSE,FALSE,FALSE,"""event"",""trial"",""time""
""fullscreenenter"",""5"",""12616""
","
","
","""event"",""trial"",""time""
""fullscreenenter"",""5"",""12616""
","
",601.9999999998836,NA,49,NA,NA,3000,1,NA,NA,images/earth.jpg,images/rocket2,images/rocket1,null,images/rocket1,NA,1,real,null,1,NA,NA,NA,sub114
d3-animate-choice,250,716288,0.0-76.0-1.38,TRUE,FALSE,FALSE,FALSE,"""event"",""trial"",""time""
""fullscreenenter"",""5"",""12616""
","
","
","""event"",""trial"",""time""
""fullscreenenter"",""5"",""12616""
","
",778,NA,49,NA,NA,3000,1,NA,NA,images/redplanet1.jpg,images/alien2,images/alien1,images/rocket1,images/alien1,images/t.png,2,real,false,1,rare,1,2020-06-21T06:01:08Z,sub114
two-step-fixation,251,717289,0.0-76.0-2.38,TRUE,FALSE,FALSE,FALSE,"""event"",""trial"",""time""
""fullscreenenter"",""5"",""12616""
","
","
","""event"",""trial"",""time""
""fullscreenenter"",""5"",""12616""
","
",NA,images/earth.jpg,NA,NA,NA,NA,NA,NA,NA,NA,NA,NA,NA,NA,NA,fixation,NA,NA,NA,NA,NA,NA,sub114
d3-animate-choice,252,719713,0.0-76.0-0.39,TRUE,FALSE,FALSE,FALSE,"""event"",""trial"",""time""
""fullscreenenter"",""5"",""12616""
","
","
","""event"",""trial"",""time""
""fullscreenenter"",""5"",""12616""
","
",422.0000000001164,NA,49,NA,NA,3000,1,NA,NA,images/earth.jpg,images/rocket2,images/rocket1,null,images/rocket1,NA,1,real,null,1,NA,NA,NA,sub114
d3-animate-choice,253,723291,0.0-76.0-1.39,TRUE,FALSE,FALSE,FALSE,"""event"",""trial"",""time""
""fullscreenenter"",""5"",""12616""
","
","
","""event"",""trial"",""time""
""fullscreenenter"",""5"",""12616""
","
",1576.0000000001164,NA,48,NA,NA,3000,1,NA,NA,images/purpleplanet.jpg,images/alien4,images/alien3,images/rocket1,images/alien4,images/t.png,2,real,true,2,common,1,2020-06-21T06:01:15Z,sub114
two-step-fixation,254,724293,0.0-76.0-2.39,TRUE,FALSE,FALSE,FALSE,"""event"",""trial"",""time""
""fullscreenenter"",""5"",""12616""
","
","
","""event"",""trial"",""time""
""fullscreenenter"",""5"",""12616""
","
",NA,images/earth.jpg,NA,NA,NA,NA,NA,NA,NA,NA,NA,NA,NA,NA,NA,fixation,NA,NA,NA,NA,NA,NA,sub114
d3-animate-choice,255,726862,0.0-76.0-0.40,TRUE,FALSE,FALSE,FALSE,"""event"",""trial"",""time""
""fullscreenenter"",""5"",""12616""
","
","
","""event"",""trial"",""time""
""fullscreenenter"",""5"",""12616""
","
",568.0000000001164,NA,49,NA,NA,3000,1,NA,NA,images/earth.jpg,images/rocket2,images/rocket1,null,images/rocket1,NA,1,real,null,1,NA,NA,NA,sub114
d3-animate-choice,256,729532,0.0-76.0-1.40,TRUE,FALSE,FALSE,FALSE,"""event"",""trial"",""time""
""fullscreenenter"",""5"",""12616""
","
","
","""event"",""trial"",""time""
""fullscreenenter"",""5"",""12616""
","
",668,NA,48,NA,NA,3000,1,NA,NA,images/purpleplanet.jpg,images/alien4,images/alien3,images/rocket1,images/alien4,images/t.png,2,real,true,2,common,1,2020-06-21T06:01:22Z,sub114
two-step-fixation,257,730534,0.0-76.0-2.40,TRUE,FALSE,FALSE,FALSE,"""event"",""trial"",""time""
""fullscreenenter"",""5"",""12616""
","
","
","""event"",""trial"",""time""
""fullscreenenter"",""5"",""12616""
","
",NA,images/earth.jpg,NA,NA,NA,NA,NA,NA,NA,NA,NA,NA,NA,NA,NA,fixation,NA,NA,NA,NA,NA,NA,sub114
d3-animate-choice,258,733074,0.0-76.0-0.41,TRUE,FALSE,FALSE,FALSE,"""event"",""trial"",""time""
""fullscreenenter"",""5"",""12616""
","
","
","""event"",""trial"",""time""
""fullscreenenter"",""5"",""12616""
","
",536.9999999998836,NA,49,NA,NA,3000,1,NA,NA,images/earth.jpg,images/rocket2,images/rocket1,null,images/rocket1,NA,1,real,null,1,NA,NA,NA,sub114
d3-animate-choice,259,735806,0.0-76.0-1.41,TRUE,FALSE,FALSE,FALSE,"""event"",""trial"",""time""
""fullscreenenter"",""5"",""12616""
","
","
","""event"",""trial"",""time""
""fullscreenenter"",""5"",""12616""
","
",731,NA,49,NA,NA,3000,1,NA,NA,images/redplanet1.jpg,images/alien2,images/alien1,images/rocket1,images/alien1,images/t.png,2,real,false,1,rare,1,2020-06-21T06:01:28Z,sub114
two-step-fixation,260,736808,0.0-76.0-2.41,TRUE,FALSE,FALSE,FALSE,"""event"",""trial"",""time""
""fullscreenenter"",""5"",""12616""
","
","
","""event"",""trial"",""time""
""fullscreenenter"",""5"",""12616""
","
",NA,images/earth.jpg,NA,NA,NA,NA,NA,NA,NA,NA,NA,NA,NA,NA,NA,fixation,NA,NA,NA,NA,NA,NA,sub114
d3-animate-choice,261,739499,0.0-76.0-0.42,TRUE,FALSE,FALSE,FALSE,"""event"",""trial"",""time""
""fullscreenenter"",""5"",""12616""
","
","
","""event"",""trial"",""time""
""fullscreenenter"",""5"",""12616""
","
",689,NA,49,NA,NA,3000,1,NA,NA,images/earth.jpg,images/rocket2,images/rocket1,null,images/rocket1,NA,1,real,null,1,NA,NA,NA,sub114
d3-animate-choice,262,742108,0.0-76.0-1.42,TRUE,FALSE,FALSE,FALSE,"""event"",""trial"",""time""
""fullscreenenter"",""5"",""12616""
","
","
","""event"",""trial"",""time""
""fullscreenenter"",""5"",""12616""
","
",607,NA,48,NA,NA,3000,1,NA,NA,images/purpleplanet.jpg,images/alien4,images/alien3,images/rocket1,images/alien4,images/nothing.png,2,real,true,2,common,0,2020-06-21T06:01:34Z,sub114
two-step-fixation,263,743109,0.0-76.0-2.42,TRUE,FALSE,FALSE,FALSE,"""event"",""trial"",""time""
""fullscreenenter"",""5"",""12616""
","
","
","""event"",""trial"",""time""
""fullscreenenter"",""5"",""12616""
","
",NA,images/earth.jpg,NA,NA,NA,NA,NA,NA,NA,NA,NA,NA,NA,NA,NA,fixation,NA,NA,NA,NA,NA,NA,sub114
d3-animate-choice,264,745520,0.0-76.0-0.43,TRUE,FALSE,FALSE,FALSE,"""event"",""trial"",""time""
""fullscreenenter"",""5"",""12616""
","
","
","""event"",""trial"",""time""
""fullscreenenter"",""5"",""12616""
","
",409,NA,49,NA,NA,3000,1,NA,NA,images/earth.jpg,images/rocket2,images/rocket1,null,images/rocket1,NA,1,real,null,1,NA,NA,NA,sub114
d3-animate-choice,265,748379,0.0-76.0-1.43,TRUE,FALSE,FALSE,FALSE,"""event"",""trial"",""time""
""fullscreenenter"",""5"",""12616""
","
","
","""event"",""trial"",""time""
""fullscreenenter"",""5"",""12616""
","
",857,NA,48,NA,NA,3000,1,NA,NA,images/purpleplanet.jpg,images/alien4,images/alien3,images/rocket1,images/alien4,images/t.png,2,real,true,2,common,1,2020-06-21T06:01:40Z,sub114
two-step-fixation,266,749380,0.0-76.0-2.43,TRUE,FALSE,FALSE,FALSE,"""event"",""trial"",""time""
""fullscreenenter"",""5"",""12616""
","
","
","""event"",""trial"",""time""
""fullscreenenter"",""5"",""12616""
","
",NA,images/earth.jpg,NA,NA,NA,NA,NA,NA,NA,NA,NA,NA,NA,NA,NA,fixation,NA,NA,NA,NA,NA,NA,sub114
d3-animate-choice,267,751917,0.0-76.0-0.44,TRUE,FALSE,FALSE,FALSE,"""event"",""trial"",""time""
""fullscreenenter"",""5"",""12616""
","
","
","""event"",""trial"",""time""
""fullscreenenter"",""5"",""12616""
","
",534.9999999998836,NA,49,NA,NA,3000,1,NA,NA,images/earth.jpg,images/rocket2,images/rocket1,null,images/rocket1,NA,1,real,null,1,NA,NA,NA,sub114
d3-animate-choice,268,754645,0.0-76.0-1.44,TRUE,FALSE,FALSE,FALSE,"""event"",""trial"",""time""
""fullscreenenter"",""5"",""12616""
","
","
","""event"",""trial"",""time""
""fullscreenenter"",""5"",""12616""
","
",726,NA,48,NA,NA,3000,1,2192,57,images/purpleplanet.jpg,images/alien4,images/alien3,images/rocket1,images/alien4,images/nothing.png,2,real,true,2,common,0,2020-06-21T06:01:47Z,sub114
two-step-fixation,269,755647,0.0-76.0-2.44,TRUE,FALSE,FALSE,FALSE,"""event"",""trial"",""time""
""fullscreenenter"",""5"",""12616""
","
","
","""event"",""trial"",""time""
""fullscreenenter"",""5"",""12616""
","
",NA,images/earth.jpg,NA,NA,NA,NA,NA,NA,NA,NA,NA,NA,NA,NA,NA,fixation,NA,NA,NA,NA,NA,NA,sub114
d3-animate-choice,270,758066,0.0-76.0-0.45,TRUE,FALSE,FALSE,FALSE,"""event"",""trial"",""time""
""fullscreenenter"",""5"",""12616""
","
","
","""event"",""trial"",""time""
""fullscreenenter"",""5"",""12616""
","
",417.0000000001164,NA,49,NA,NA,3000,1,NA,NA,images/earth.jpg,images/rocket2,images/rocket1,null,images/rocket1,NA,1,real,null,1,NA,NA,NA,sub114
d3-animate-choice,271,760596,0.0-76.0-1.45,TRUE,FALSE,FALSE,FALSE,"""event"",""trial"",""time""
""fullscreenenter"",""5"",""12616""
","
","
","""event"",""trial"",""time""
""fullscreenenter"",""5"",""12616""
","
",528,NA,48,NA,NA,3000,1,NA,NA,images/purpleplanet.jpg,images/alien4,images/alien3,images/rocket1,images/alien4,images/nothing.png,2,real,true,2,common,0,2020-06-21T06:01:53Z,sub114
two-step-fixation,272,761597,0.0-76.0-2.45,TRUE,FALSE,FALSE,FALSE,"""event"",""trial"",""time""
""fullscreenenter"",""5"",""12616""
","
","
","""event"",""trial"",""time""
""fullscreenenter"",""5"",""12616""
","
",NA,images/earth.jpg,NA,NA,NA,NA,NA,NA,NA,NA,NA,NA,NA,NA,NA,fixation,NA,NA,NA,NA,NA,NA,sub114
d3-animate-choice,273,764080,0.0-76.0-0.46,TRUE,FALSE,FALSE,FALSE,"""event"",""trial"",""time""
""fullscreenenter"",""5"",""12616""
","
","
","""event"",""trial"",""time""
""fullscreenenter"",""5"",""12616""
","
",481,NA,49,NA,NA,3000,1,NA,NA,images/earth.jpg,images/rocket2,images/rocket1,null,images/rocket1,NA,1,real,null,1,NA,NA,NA,sub114
d3-animate-choice,274,766620,0.0-76.0-1.46,TRUE,FALSE,FALSE,FALSE,"""event"",""trial"",""time""
""fullscreenenter"",""5"",""12616""
","
","
","""event"",""trial"",""time""
""fullscreenenter"",""5"",""12616""
","
",538,NA,48,NA,NA,3000,1,NA,NA,images/purpleplanet.jpg,images/alien4,images/alien3,images/rocket1,images/alien4,images/nothing.png,2,real,true,2,common,0,2020-06-21T06:01:59Z,sub114
two-step-fixation,275,767622,0.0-76.0-2.46,TRUE,FALSE,FALSE,FALSE,"""event"",""trial"",""time""
""fullscreenenter"",""5"",""12616""
","
","
","""event"",""trial"",""time""
""fullscreenenter"",""5"",""12616""
","
",NA,images/earth.jpg,NA,NA,NA,NA,NA,NA,NA,NA,NA,NA,NA,NA,NA,fixation,NA,NA,NA,NA,NA,NA,sub114
d3-animate-choice,276,770002,0.0-76.0-0.47,TRUE,FALSE,FALSE,FALSE,"""event"",""trial"",""time""
""fullscreenenter"",""5"",""12616""
","
","
","""event"",""trial"",""time""
""fullscreenenter"",""5"",""12616""
","
",377,NA,49,NA,NA,3000,1,NA,NA,images/earth.jpg,images/rocket2,images/rocket1,null,images/rocket1,NA,1,real,null,1,NA,NA,NA,sub114
d3-animate-choice,277,773397,0.0-76.0-1.47,TRUE,FALSE,FALSE,FALSE,"""event"",""trial"",""time""
""fullscreenenter"",""5"",""12616""
","
","
","""event"",""trial"",""time""
""fullscreenenter"",""5"",""12616""
","
",1394,NA,49,NA,NA,3000,1,NA,NA,images/purpleplanet.jpg,images/alien4,images/alien3,images/rocket1,images/alien3,images/t.png,2,real,true,1,common,1,2020-06-21T06:02:05Z,sub114
two-step-fixation,278,774398,0.0-76.0-2.47,TRUE,FALSE,FALSE,FALSE,"""event"",""trial"",""time""
""fullscreenenter"",""5"",""12616""
","
","
","""event"",""trial"",""time""
""fullscreenenter"",""5"",""12616""
","
",NA,images/earth.jpg,NA,NA,NA,NA,NA,NA,NA,NA,NA,NA,NA,NA,NA,fixation,NA,NA,NA,NA,NA,NA,sub114
d3-animate-choice,279,776843,0.0-76.0-0.48,TRUE,FALSE,FALSE,FALSE,"""event"",""trial"",""time""
""fullscreenenter"",""5"",""12616""
","
","
","""event"",""trial"",""time""
""fullscreenenter"",""5"",""12616""
","
",443,NA,49,NA,NA,3000,1,NA,NA,images/earth.jpg,images/rocket2,images/rocket1,null,images/rocket1,NA,1,real,null,1,NA,NA,NA,sub114
d3-animate-choice,280,779715,0.0-76.0-1.48,TRUE,FALSE,FALSE,FALSE,"""event"",""trial"",""time""
""fullscreenenter"",""5"",""12616""
","
","
","""event"",""trial"",""time""
""fullscreenenter"",""5"",""12616""
","
",868.9999999998836,NA,49,NA,NA,3000,1,NA,NA,images/redplanet1.jpg,images/alien2,images/alien1,images/rocket1,images/alien1,images/t.png,2,real,false,1,rare,1,2020-06-21T06:02:12Z,sub114
two-step-fixation,281,780717,0.0-76.0-2.48,TRUE,FALSE,FALSE,FALSE,"""event"",""trial"",""time""
""fullscreenenter"",""5"",""12616""
","
","
","""event"",""trial"",""time""
""fullscreenenter"",""5"",""12616""
","
",NA,images/earth.jpg,NA,NA,NA,NA,NA,NA,NA,NA,NA,NA,NA,NA,NA,fixation,NA,NA,NA,NA,NA,NA,sub114
d3-animate-choice,282,783291,0.0-76.0-0.49,TRUE,FALSE,FALSE,FALSE,"""event"",""trial"",""time""
""fullscreenenter"",""5"",""12616""
","
","
","""event"",""trial"",""time""
""fullscreenenter"",""5"",""12616""
","
",573,NA,49,NA,NA,3000,1,NA,NA,images/earth.jpg,images/rocket2,images/rocket1,null,images/rocket1,NA,1,real,null,1,NA,NA,NA,sub114
d3-animate-choice,283,785928,0.0-76.0-1.49,TRUE,FALSE,FALSE,FALSE,"""event"",""trial"",""time""
""fullscreenenter"",""5"",""12616""
","
","
","""event"",""trial"",""time""
""fullscreenenter"",""5"",""12616""
","
",635.9999999998836,NA,49,NA,NA,3000,1,NA,NA,images/purpleplanet.jpg,images/alien4,images/alien3,images/rocket1,images/alien3,images/nothing.png,2,real,true,1,common,0,2020-06-21T06:02:18Z,sub114
two-step-fixation,284,786930,0.0-76.0-2.49,TRUE,FALSE,FALSE,FALSE,"""event"",""trial"",""time""
""fullscreenenter"",""5"",""12616""
","
","
","""event"",""trial"",""time""
""fullscreenenter"",""5"",""12616""
","
",NA,images/earth.jpg,NA,NA,NA,NA,NA,NA,NA,NA,NA,NA,NA,NA,NA,fixation,NA,NA,NA,NA,NA,NA,sub114
audio-button-response-2,285,813100,0.0-77.0,TRUE,FALSE,FALSE,FALSE,"""event"",""trial"",""time""
""fullscreenenter"",""5"",""12616""
","
","
","""event"",""trial"",""time""
""fullscreenenter"",""5"",""12616""
","
",26167.999999999884,audio/instructions/break_1.wav,NA,0,NA,NA,NA,NA,NA,NA,NA,NA,NA,NA,NA,NA,NA,NA,NA,NA,NA,NA,sub114
d3-animate-choice,286,816241,0.0-78.0-0.0,TRUE,FALSE,FALSE,FALSE,"""event"",""trial"",""time""
""fullscreenenter"",""5"",""12616""
","
","
","""event"",""trial"",""time""
""fullscreenenter"",""5"",""12616""
","
",1139.0000000001164,NA,49,NA,NA,3000,1,NA,NA,images/earth.jpg,images/rocket2,images/rocket1,null,images/rocket1,NA,1,real,null,1,NA,NA,NA,sub114
d3-animate-choice,287,818926,0.0-78.0-1.0,TRUE,FALSE,FALSE,FALSE,"""event"",""trial"",""time""
""fullscreenenter"",""5"",""12616""
","
","
","""event"",""trial"",""time""
""fullscreenenter"",""5"",""12616""
","
