trial_type,trial_index,time_elapsed,internal_node_id,rocket_sides,red_planet_first_rocket,red_display_order,purple_display_order,interactions,blur_events,focus_events,fullscreenenter_events,fullscreenexit_events,rt,stimulus,key_press,button_pressed,success,duration,valid_pressed,rts,keys,planet_text,right_text,left_text,center_text,chosen_text,reward_text,trial_stage,practice_trial,transition_type,choice,transition,reward,timestamp,subject_id
pavlovia,0,5,0.0-0.0,TRUE,FALSE,TRUE,TRUE,"
","
","
","
","
",NA,NA,NA,NA,NA,NA,NA,NA,NA,NA,NA,NA,NA,NA,NA,NA,NA,NA,NA,NA,NA,NA,sub97
html-keyboard-response,1,2091,0.0-1.0,TRUE,FALSE,TRUE,TRUE,"
","
","
","
","
",2084.630000004836,Welcome! Press the space bar to begin.,32,NA,NA,NA,NA,NA,NA,NA,NA,NA,NA,NA,NA,NA,NA,NA,NA,NA,NA,NA,sub97
audio-keyboard-response,2,11767,0.0-2.0,TRUE,FALSE,TRUE,TRUE,"
","
","
","
","
",9671,audio/beep_loop.wav,32,NA,NA,NA,NA,NA,NA,NA,NA,NA,NA,NA,NA,NA,NA,NA,NA,NA,NA,NA,sub97
audio-button-response,3,16833,0.0-3.0,TRUE,FALSE,TRUE,TRUE,"
","
","
","
","
",NaN,audio/fish.mp3,NA,1,NA,NA,NA,NA,NA,NA,NA,NA,NA,NA,NA,NA,NA,NA,NA,NA,NA,NA,sub97
audio-button-response,4,19390,0.0-4.0,TRUE,FALSE,TRUE,TRUE,"""event"",""trial"",""time""
""fullscreenenter"",""5"",""23843""
","
","
","""event"",""trial"",""time""
""fullscreenenter"",""5"",""23843""
","
",NaN,audio/tiger.mp3,NA,4,NA,NA,NA,NA,NA,NA,NA,NA,NA,NA,NA,NA,NA,NA,NA,NA,NA,NA,sub97
fullscreen,5,24831,0.0-5.0,TRUE,FALSE,TRUE,TRUE,"""event"",""trial"",""time""
""fullscreenenter"",""5"",""23843""
","
","
","""event"",""trial"",""time""
""fullscreenenter"",""5"",""23843""
","
",NA,NA,NA,NA,TRUE,NA,NA,NA,NA,NA,NA,NA,NA,NA,NA,NA,NA,NA,NA,NA,NA,NA,sub97
d3-instructions,6,45637,0.0-6.0,TRUE,FALSE,TRUE,TRUE,"""event"",""trial"",""time""
""fullscreenenter"",""5"",""23843""
","
","
","""event"",""trial"",""time""
""fullscreenenter"",""5"",""23843""
","
",NA,NA,NA,NA,NA,NA,NA,NA,NA,NA,NA,NA,NA,NA,NA,NA,NA,NA,NA,NA,NA,NA,sub97
d3-instructions,7,56093,0.0-7.0,TRUE,FALSE,TRUE,TRUE,"""event"",""trial"",""time""
""fullscreenenter"",""5"",""23843""
","
","
","""event"",""trial"",""time""
""fullscreenenter"",""5"",""23843""
","
",NA,NA,NA,NA,NA,NA,NA,NA,NA,NA,NA,NA,NA,NA,NA,NA,NA,NA,NA,NA,NA,NA,sub97
d3-instructions,8,62693,0.0-8.0,TRUE,FALSE,TRUE,TRUE,"""event"",""trial"",""time""
""fullscreenenter"",""5"",""23843""
","
","
","""event"",""trial"",""time""
""fullscreenenter"",""5"",""23843""
","
",NA,NA,NA,NA,NA,NA,NA,NA,NA,NA,NA,NA,NA,NA,NA,NA,NA,NA,NA,NA,NA,NA,sub97
d3-instructions,9,73938,0.0-9.0,TRUE,FALSE,TRUE,TRUE,"""event"",""trial"",""time""
""fullscreenenter"",""5"",""23843""
","
","
","""event"",""trial"",""time""
""fullscreenenter"",""5"",""23843""
","
",NA,NA,NA,NA,NA,NA,NA,NA,NA,NA,NA,NA,NA,NA,NA,NA,NA,NA,NA,NA,NA,NA,sub97
d3-instructions,10,94228,0.0-10.0,TRUE,FALSE,TRUE,TRUE,"""event"",""trial"",""time""
""fullscreenenter"",""5"",""23843""
","
","
","""event"",""trial"",""time""
""fullscreenenter"",""5"",""23843""
","
",NA,NA,NA,NA,NA,NA,NA,NA,NA,NA,NA,NA,NA,NA,NA,NA,NA,NA,NA,NA,NA,NA,sub97
d3-animate-choice,11,98136,0.0-11.0,TRUE,FALSE,TRUE,TRUE,"""event"",""trial"",""time""
""fullscreenenter"",""5"",""23843""
","
","
","""event"",""trial"",""time""
""fullscreenenter"",""5"",""23843""
","
",1898.9149999979418,NA,49,NA,NA,3000,1,3266.364999995858,48,images/tutgreenplanet.jpg,images/tutalien1,images/tutalien2,null,images/tutalien2,NA,NA,practice,null,NA,NA,NA,NA,sub97
d3-animate-choice,12,101514,0.0-12.0,TRUE,FALSE,TRUE,TRUE,"""event"",""trial"",""time""
""fullscreenenter"",""5"",""23843""
","
","
","""event"",""trial"",""time""
""fullscreenenter"",""5"",""23843""
","
",1375.4599999956554,NA,48,NA,NA,3000,1,NA,NA,images/tutgreenplanet.jpg,images/tutalien1,images/tutalien2,null,images/tutalien1,NA,NA,practice,null,NA,NA,NA,NA,sub97
d3-animate-choice,13,104171,0.0-13.0,TRUE,FALSE,TRUE,TRUE,"""event"",""trial"",""time""
""fullscreenenter"",""5"",""23843""
","
","
","""event"",""trial"",""time""
""fullscreenenter"",""5"",""23843""
","
",650.4150000037043,NA,49,NA,NA,3000,1,NA,NA,images/tutgreenplanet.jpg,images/tutalien1,images/tutalien2,null,images/tutalien2,NA,NA,practice,null,NA,NA,NA,NA,sub97
d3-animate-choice,14,106593,0.0-14.0,TRUE,FALSE,TRUE,TRUE,"""event"",""trial"",""time""
""fullscreenenter"",""5"",""23843""
","
","
","""event"",""trial"",""time""
""fullscreenenter"",""5"",""23843""
","
",415.78000000299653,NA,48,NA,NA,3000,1,NA,NA,images/tutgreenplanet.jpg,images/tutalien1,images/tutalien2,null,images/tutalien1,NA,NA,practice,null,NA,NA,NA,NA,sub97
d3-instructions,15,115679,0.0-15.0,TRUE,FALSE,TRUE,TRUE,"""event"",""trial"",""time""
""fullscreenenter"",""5"",""23843""
","
","
","""event"",""trial"",""time""
""fullscreenenter"",""5"",""23843""
","
",NA,NA,NA,NA,NA,NA,NA,NA,NA,NA,NA,NA,NA,NA,NA,NA,NA,NA,NA,NA,NA,NA,sub97
d3-instructions,16,123680,0.0-16.0,TRUE,FALSE,TRUE,TRUE,"""event"",""trial"",""time""
""fullscreenenter"",""5"",""23843""
","
","
","""event"",""trial"",""time""
""fullscreenenter"",""5"",""23843""
","
",NA,NA,NA,NA,NA,NA,NA,NA,NA,NA,NA,NA,NA,NA,NA,NA,NA,NA,NA,NA,NA,NA,sub97
d3-instructions,17,132893,0.0-17.0,TRUE,FALSE,TRUE,TRUE,"""event"",""trial"",""time""
""fullscreenenter"",""5"",""23843""
","
","
","""event"",""trial"",""time""
""fullscreenenter"",""5"",""23843""
","
",NA,NA,NA,NA,NA,NA,NA,NA,NA,NA,NA,NA,NA,NA,NA,NA,NA,NA,NA,NA,NA,NA,sub97
d3-instructions,18,145794,0.0-18.0,TRUE,FALSE,TRUE,TRUE,"""event"",""trial"",""time""
""fullscreenenter"",""5"",""23843""
","
","
","""event"",""trial"",""time""
""fullscreenenter"",""5"",""23843""
","
",NA,NA,NA,NA,NA,NA,NA,NA,NA,NA,NA,NA,NA,NA,NA,NA,NA,NA,NA,NA,NA,NA,sub97
d3-instructions,19,164282,0.0-19.0,TRUE,FALSE,TRUE,TRUE,"""event"",""trial"",""time""
""fullscreenenter"",""5"",""23843""
","
","
","""event"",""trial"",""time""
""fullscreenenter"",""5"",""23843""
","
",NA,NA,NA,NA,NA,NA,NA,NA,NA,NA,NA,NA,NA,NA,NA,NA,NA,NA,NA,NA,NA,NA,sub97
d3-animate-choice,20,167389,0.0-20.0,TRUE,FALSE,TRUE,TRUE,"""event"",""trial"",""time""
""fullscreenenter"",""5"",""23843""
","
","
","""event"",""trial"",""time""
""fullscreenenter"",""5"",""23843""
","
",1100.7800000006682,NA,49,NA,NA,3000,1,1827.194999998028,49,images/tutyellowplanet.jpg,null,images/tutalien3,null,images/tutalien3,images/t.png,NA,practice,null,NA,NA,NA,NA,sub97
d3-animate-choice,21,170076,0.0-21.0,TRUE,FALSE,TRUE,TRUE,"""event"",""trial"",""time""
""fullscreenenter"",""5"",""23843""
","
","
","""event"",""trial"",""time""
""fullscreenenter"",""5"",""23843""
","
",684.014999998908,NA,49,NA,NA,3000,1,NA,NA,images/tutyellowplanet.jpg,null,images/tutalien3,null,images/tutalien3,images/t.png,NA,practice,null,NA,NA,NA,NA,sub97
d3-animate-choice,22,172857,0.0-22.0,TRUE,FALSE,TRUE,TRUE,"""event"",""trial"",""time""
""fullscreenenter"",""5"",""23843""
","
","
","""event"",""trial"",""time""
""fullscreenenter"",""5"",""23843""
","
",778.0349999957252,NA,49,NA,NA,3000,1,NA,NA,images/tutyellowplanet.jpg,null,images/tutalien3,null,images/tutalien3,images/t.png,NA,practice,null,NA,NA,NA,NA,sub97
d3-animate-choice,23,175347,0.0-23.0,TRUE,FALSE,TRUE,TRUE,"""event"",""trial"",""time""
""fullscreenenter"",""5"",""23843""
","
","
","""event"",""trial"",""time""
""fullscreenenter"",""5"",""23843""
","
",482.85500000201864,NA,49,NA,NA,3000,1,NA,NA,images/tutyellowplanet.jpg,null,images/tutalien3,null,images/tutalien3,images/t.png,NA,practice,null,NA,NA,NA,NA,sub97
d3-animate-choice,24,177814,0.0-24.0,TRUE,FALSE,TRUE,TRUE,"""event"",""trial"",""time""
""fullscreenenter"",""5"",""23843""
","
","
","""event"",""trial"",""time""
""fullscreenenter"",""5"",""23843""
","
",462.4599999951897,NA,49,NA,NA,3000,1,NA,NA,images/tutyellowplanet.jpg,null,images/tutalien3,null,images/tutalien3,images/t.png,NA,practice,null,NA,NA,NA,NA,sub97
d3-animate-choice,25,180310,0.0-25.0,TRUE,FALSE,TRUE,TRUE,"""event"",""trial"",""time""
""fullscreenenter"",""5"",""23843""
","
","
","""event"",""trial"",""time""
""fullscreenenter"",""5"",""23843""
","
",493.24999999953434,NA,49,NA,NA,3000,1,NA,NA,images/tutyellowplanet.jpg,null,images/tutalien3,null,images/tutalien3,images/t.png,NA,practice,null,NA,NA,NA,NA,sub97
d3-animate-choice,26,182817,0.0-26.0,TRUE,FALSE,TRUE,TRUE,"""event"",""trial"",""time""
""fullscreenenter"",""5"",""23843""
","
","
","""event"",""trial"",""time""
""fullscreenenter"",""5"",""23843""
","
",500.37499999598367,NA,49,NA,NA,3000,1,NA,NA,images/tutyellowplanet.jpg,null,images/tutalien3,null,images/tutalien3,images/t.png,NA,practice,null,NA,NA,NA,NA,sub97
d3-animate-choice,27,185140,0.0-27.0,TRUE,FALSE,TRUE,TRUE,"""event"",""trial"",""time""
""fullscreenenter"",""5"",""23843""
","
","
","""event"",""trial"",""time""
""fullscreenenter"",""5"",""23843""
","
",317.76499999978114,NA,49,NA,NA,3000,1,NA,NA,images/tutyellowplanet.jpg,null,images/tutalien3,null,images/tutalien3,images/nothing.png,NA,practice,null,NA,NA,NA,NA,sub97
d3-animate-choice,28,187625,0.0-28.0,TRUE,FALSE,TRUE,TRUE,"""event"",""trial"",""time""
""fullscreenenter"",""5"",""23843""
","
","
","""event"",""trial"",""time""
""fullscreenenter"",""5"",""23843""
","
",479.2749999978696,NA,49,NA,NA,3000,1,NA,NA,images/tutyellowplanet.jpg,null,images/tutalien3,null,images/tutalien3,images/t.png,NA,practice,null,NA,NA,NA,NA,sub97
d3-animate-choice,29,190390,0.0-29.0,TRUE,FALSE,TRUE,TRUE,"""event"",""trial"",""time""
""fullscreenenter"",""5"",""23843""
","
","
","""event"",""trial"",""time""
""fullscreenenter"",""5"",""23843""
","
",760.3749999980209,NA,49,NA,NA,3000,1,NA,NA,images/tutyellowplanet.jpg,null,images/tutalien3,null,images/tutalien3,images/nothing.png,NA,practice,null,NA,NA,NA,NA,sub97
d3-instructions,30,198937,0.0-30.0,TRUE,FALSE,TRUE,TRUE,"""event"",""trial"",""time""
""fullscreenenter"",""5"",""23843""
","
","
","""event"",""trial"",""time""
""fullscreenenter"",""5"",""23843""
","
",NA,NA,NA,NA,NA,NA,NA,NA,NA,NA,NA,NA,NA,NA,NA,NA,NA,NA,NA,NA,NA,NA,sub97
d3-instructions,31,209574,0.0-31.0,TRUE,FALSE,TRUE,TRUE,"""event"",""trial"",""time""
""fullscreenenter"",""5"",""23843""
","
","
","""event"",""trial"",""time""
""fullscreenenter"",""5"",""23843""
","
",NA,NA,NA,NA,NA,NA,NA,NA,NA,NA,NA,NA,NA,NA,NA,NA,NA,NA,NA,NA,NA,NA,sub97
d3-instructions,32,218716,0.0-32.0,TRUE,FALSE,TRUE,TRUE,"""event"",""trial"",""time""
""fullscreenenter"",""5"",""23843""
","
","
","""event"",""trial"",""time""
""fullscreenenter"",""5"",""23843""
","
",NA,NA,NA,NA,NA,NA,NA,NA,NA,NA,NA,NA,NA,NA,NA,NA,NA,NA,NA,NA,NA,NA,sub97
d3-instructions,33,229386,0.0-33.0,TRUE,FALSE,TRUE,TRUE,"""event"",""trial"",""time""
""fullscreenenter"",""5"",""23843""
","
","
","""event"",""trial"",""time""
""fullscreenenter"",""5"",""23843""
","
",NA,NA,NA,NA,NA,NA,NA,NA,NA,NA,NA,NA,NA,NA,NA,NA,NA,NA,NA,NA,NA,NA,sub97
d3-animate-choice,34,236558,0.0-34.0,TRUE,FALSE,TRUE,TRUE,"""event"",""trial"",""time""
""fullscreenenter"",""5"",""23843""
","
","
","""event"",""trial"",""time""
""fullscreenenter"",""5"",""23843""
","
",5169.434999996156,NA,48,NA,NA,3000,1,NA,NA,images/tutgreenplanet.jpg,images/tutalien1,images/tutalien2,null,images/tutalien1,images/nothing.png,NA,practice,null,NA,NA,NA,NA,sub97
d3-animate-choice,35,239736,0.0-35.0,TRUE,FALSE,TRUE,TRUE,"""event"",""trial"",""time""
""fullscreenenter"",""5"",""23843""
","
","
","""event"",""trial"",""time""
""fullscreenenter"",""5"",""23843""
","
",1173.705000001064,NA,49,NA,NA,3000,1,NA,NA,images/tutgreenplanet.jpg,images/tutalien1,images/tutalien2,null,images/tutalien2,images/t.png,NA,practice,null,NA,NA,NA,NA,sub97
d3-animate-choice,36,242636,0.0-36.0,TRUE,FALSE,TRUE,TRUE,"""event"",""trial"",""time""
""fullscreenenter"",""5"",""23843""
","
","
","""event"",""trial"",""time""
""fullscreenenter"",""5"",""23843""
","
",898.2499999983702,NA,49,NA,NA,3000,1,NA,NA,images/tutgreenplanet.jpg,images/tutalien1,images/tutalien2,null,images/tutalien2,images/t.png,NA,practice,null,NA,NA,NA,NA,sub97
d3-animate-choice,37,245133,0.0-37.0,TRUE,FALSE,TRUE,TRUE,"""event"",""trial"",""time""
""fullscreenenter"",""5"",""23843""
","
","
","""event"",""trial"",""time""
""fullscreenenter"",""5"",""23843""
","
",488.9800000019022,NA,48,NA,NA,3000,1,NA,NA,images/tutgreenplanet.jpg,images/tutalien1,images/tutalien2,null,images/tutalien1,images/nothing.png,NA,practice,null,NA,NA,NA,NA,sub97
d3-animate-choice,38,247553,0.0-38.0,TRUE,FALSE,TRUE,TRUE,"""event"",""trial"",""time""
""fullscreenenter"",""5"",""23843""
","
","
","""event"",""trial"",""time""
""fullscreenenter"",""5"",""23843""
","
",417.24499999691034,NA,49,NA,NA,3000,1,NA,NA,images/tutgreenplanet.jpg,images/tutalien1,images/tutalien2,null,images/tutalien2,images/t.png,NA,practice,null,NA,NA,NA,NA,sub97
d3-animate-choice,39,250035,0.0-39.0,TRUE,FALSE,TRUE,TRUE,"""event"",""trial"",""time""
""fullscreenenter"",""5"",""23843""
","
","
","""event"",""trial"",""time""
""fullscreenenter"",""5"",""23843""
","
",476.0999999998603,NA,48,NA,NA,3000,1,NA,NA,images/tutgreenplanet.jpg,images/tutalien1,images/tutalien2,null,images/tutalien1,images/nothing.png,NA,practice,null,NA,NA,NA,NA,sub97
d3-animate-choice,40,252383,0.0-40.0,TRUE,FALSE,TRUE,TRUE,"""event"",""trial"",""time""
""fullscreenenter"",""5"",""23843""
","
","
","""event"",""trial"",""time""
""fullscreenenter"",""5"",""23843""
","
",344.3100000004051,NA,49,NA,NA,3000,1,NA,NA,images/tutgreenplanet.jpg,images/tutalien1,images/tutalien2,null,images/tutalien2,images/t.png,NA,practice,null,NA,NA,NA,NA,sub97
d3-animate-choice,41,254729,0.0-41.0,TRUE,FALSE,TRUE,TRUE,"""event"",""trial"",""time""
""fullscreenenter"",""5"",""23843""
","
","
","""event"",""trial"",""time""
""fullscreenenter"",""5"",""23843""
","
",343.7950000006822,NA,48,NA,NA,3000,1,NA,NA,images/tutgreenplanet.jpg,images/tutalien1,images/tutalien2,null,images/tutalien1,images/nothing.png,NA,practice,null,NA,NA,NA,NA,sub97
d3-animate-choice,42,257108,0.0-42.0,TRUE,FALSE,TRUE,TRUE,"""event"",""trial"",""time""
""fullscreenenter"",""5"",""23843""
","
","
","""event"",""trial"",""time""
""fullscreenenter"",""5"",""23843""
","
",373.0150000046706,NA,49,NA,NA,3000,1,NA,NA,images/tutgreenplanet.jpg,images/tutalien1,images/tutalien2,null,images/tutalien2,images/t.png,NA,practice,null,NA,NA,NA,NA,sub97
d3-animate-choice,43,259427,0.0-43.0,TRUE,FALSE,TRUE,TRUE,"""event"",""trial"",""time""
""fullscreenenter"",""5"",""23843""
","
","
","""event"",""trial"",""time""
""fullscreenenter"",""5"",""23843""
","
",314.44500000361586,NA,49,NA,NA,3000,1,NA,NA,images/tutgreenplanet.jpg,images/tutalien1,images/tutalien2,null,images/tutalien2,images/t.png,NA,practice,null,NA,NA,NA,NA,sub97
d3-instructions,44,275739,0.0-44.0,TRUE,FALSE,TRUE,TRUE,"""event"",""trial"",""time""
""fullscreenenter"",""5"",""23843""
","
","
","""event"",""trial"",""time""
""fullscreenenter"",""5"",""23843""
","
",NA,NA,NA,NA,NA,NA,NA,NA,NA,NA,NA,NA,NA,NA,NA,NA,NA,NA,NA,NA,NA,NA,sub97
d3-instructions,45,282080,0.0-45.0,TRUE,FALSE,TRUE,TRUE,"""event"",""trial"",""time""
""fullscreenenter"",""5"",""23843""
","
","
","""event"",""trial"",""time""
""fullscreenenter"",""5"",""23843""
","
",NA,NA,NA,NA,NA,NA,NA,NA,NA,NA,NA,NA,NA,NA,NA,NA,NA,NA,NA,NA,NA,NA,sub97
d3-instructions,46,287445,0.0-46.0,TRUE,FALSE,TRUE,TRUE,"""event"",""trial"",""time""
""fullscreenenter"",""5"",""23843""
","
","
","""event"",""trial"",""time""
""fullscreenenter"",""5"",""23843""
","
",NA,NA,NA,NA,NA,NA,NA,NA,NA,NA,NA,NA,NA,NA,NA,NA,NA,NA,NA,NA,NA,NA,sub97
d3-instructions,47,308097,0.0-47.0,TRUE,FALSE,TRUE,TRUE,"""event"",""trial"",""time""
""fullscreenenter"",""5"",""23843""
","
","
","""event"",""trial"",""time""
""fullscreenenter"",""5"",""23843""
","
",NA,NA,NA,NA,NA,NA,NA,NA,NA,NA,NA,NA,NA,NA,NA,NA,NA,NA,NA,NA,NA,NA,sub97
d3-instructions,48,314596,0.0-48.0,TRUE,FALSE,TRUE,TRUE,"""event"",""trial"",""time""
""fullscreenenter"",""5"",""23843""
","
","
","""event"",""trial"",""time""
""fullscreenenter"",""5"",""23843""
","
",NA,NA,NA,NA,NA,NA,NA,NA,NA,NA,NA,NA,NA,NA,NA,NA,NA,NA,NA,NA,NA,NA,sub97
d3-instructions,49,325477,0.0-49.0,TRUE,FALSE,TRUE,TRUE,"""event"",""trial"",""time""
""fullscreenenter"",""5"",""23843""
","
","
","""event"",""trial"",""time""
""fullscreenenter"",""5"",""23843""
","
",NA,NA,NA,NA,NA,NA,NA,NA,NA,NA,NA,NA,NA,NA,NA,NA,NA,NA,NA,NA,NA,NA,sub97
d3-instructions,50,334587,0.0-50.0,TRUE,FALSE,TRUE,TRUE,"""event"",""trial"",""time""
""fullscreenenter"",""5"",""23843""
","
","
","""event"",""trial"",""time""
""fullscreenenter"",""5"",""23843""
","
",NA,NA,NA,NA,NA,NA,NA,NA,NA,NA,NA,NA,NA,NA,NA,NA,NA,NA,NA,NA,NA,NA,sub97
d3-instructions,51,337380,0.0-51.0,TRUE,FALSE,TRUE,TRUE,"""event"",""trial"",""time""
""fullscreenenter"",""5"",""23843""
","
","
","""event"",""trial"",""time""
""fullscreenenter"",""5"",""23843""
","
",NA,NA,NA,NA,NA,NA,NA,NA,NA,NA,NA,NA,NA,NA,NA,NA,NA,NA,NA,NA,NA,NA,sub97
d3-instructions,52,340763,0.0-52.0,TRUE,FALSE,TRUE,TRUE,"""event"",""trial"",""time""
""fullscreenenter"",""5"",""23843""
","
","
","""event"",""trial"",""time""
""fullscreenenter"",""5"",""23843""
","
",NA,NA,NA,NA,NA,NA,NA,NA,NA,NA,NA,NA,NA,NA,NA,NA,NA,NA,NA,NA,NA,NA,sub97
d3-instructions,53,355794,0.0-53.0,TRUE,FALSE,TRUE,TRUE,"""event"",""trial"",""time""
""fullscreenenter"",""5"",""23843""
","
","
","""event"",""trial"",""time""
""fullscreenenter"",""5"",""23843""
","
",NA,NA,NA,NA,NA,NA,NA,NA,NA,NA,NA,NA,NA,NA,NA,NA,NA,NA,NA,NA,NA,NA,sub97
d3-instructions,54,380051,0.0-54.0,TRUE,FALSE,TRUE,TRUE,"""event"",""trial"",""time""
""fullscreenenter"",""5"",""23843""
","
","
","""event"",""trial"",""time""
""fullscreenenter"",""5"",""23843""
","
",NA,NA,NA,NA,NA,NA,NA,NA,NA,NA,NA,NA,NA,NA,NA,NA,NA,NA,NA,NA,NA,NA,sub97
d3-instructions,55,390271,0.0-55.0,TRUE,FALSE,TRUE,TRUE,"""event"",""trial"",""time""
""fullscreenenter"",""5"",""23843""
","
","
","""event"",""trial"",""time""
""fullscreenenter"",""5"",""23843""
","
",NA,NA,NA,NA,NA,NA,NA,NA,NA,NA,NA,NA,NA,NA,NA,NA,NA,NA,NA,NA,NA,NA,sub97
d3-instructions,56,399632,0.0-56.0,TRUE,FALSE,TRUE,TRUE,"""event"",""trial"",""time""
""fullscreenenter"",""5"",""23843""
","
","
","""event"",""trial"",""time""
""fullscreenenter"",""5"",""23843""
","
",NA,NA,NA,NA,NA,NA,NA,NA,NA,NA,NA,NA,NA,NA,NA,NA,NA,NA,NA,NA,NA,NA,sub97
d3-instructions,57,410674,0.0-57.0,TRUE,FALSE,TRUE,TRUE,"""event"",""trial"",""time""
""fullscreenenter"",""5"",""23843""
","
","
","""event"",""trial"",""time""
""fullscreenenter"",""5"",""23843""
","
",NA,NA,NA,NA,NA,NA,NA,NA,NA,NA,NA,NA,NA,NA,NA,NA,NA,NA,NA,NA,NA,NA,sub97
d3-instructions,58,425415,0.0-58.0,TRUE,FALSE,TRUE,TRUE,"""event"",""trial"",""time""
""fullscreenenter"",""5"",""23843""
","
","
","""event"",""trial"",""time""
""fullscreenenter"",""5"",""23843""
","
",NA,NA,NA,NA,NA,NA,NA,NA,NA,NA,NA,NA,NA,NA,NA,NA,NA,NA,NA,NA,NA,NA,sub97
d3-instructions,59,434557,0.0-59.0,TRUE,FALSE,TRUE,TRUE,"""event"",""trial"",""time""
""fullscreenenter"",""5"",""23843""
","
","
","""event"",""trial"",""time""
""fullscreenenter"",""5"",""23843""
","
",NA,NA,NA,NA,NA,NA,NA,NA,NA,NA,NA,NA,NA,NA,NA,NA,NA,NA,NA,NA,NA,NA,sub97
d3-instructions,60,441731,0.0-60.0,TRUE,FALSE,TRUE,TRUE,"""event"",""trial"",""time""
""fullscreenenter"",""5"",""23843""
","
","
","""event"",""trial"",""time""
""fullscreenenter"",""5"",""23843""
","
",NA,NA,NA,NA,NA,NA,NA,NA,NA,NA,NA,NA,NA,NA,NA,NA,NA,NA,NA,NA,NA,NA,sub97
d3-animate-choice,61,445735,0.0-61.0-0.0,TRUE,FALSE,TRUE,TRUE,"""event"",""trial"",""time""
""fullscreenenter"",""5"",""23843""
","
","
","""event"",""trial"",""time""
""fullscreenenter"",""5"",""23843""
","
",2205.9399999998277,NA,49,NA,NA,3000,1,NA,NA,images/earth.jpg,images/tutrocket2,images/tutrocket1,null,images/tutrocket1,NA,1,practice,null,1,NA,NA,NA,sub97
d3-animate-choice,62,449745,0.0-61.0-1.0,TRUE,FALSE,TRUE,TRUE,"""event"",""trial"",""time""
""fullscreenenter"",""5"",""23843""
","
","
","""event"",""trial"",""time""
""fullscreenenter"",""5"",""23843""
","
",null,NA,null,NA,NA,3000,0,NA,NA,images/tutyellowplanet.jpg,images/tutalien4,images/tutalien3,images/tutrocket1,NA,NA,2,practice,true,NA,common,0,2020-06-24T19:43:02Z,sub97
two-step-fixation,63,450753,0.0-61.0-2.0,TRUE,FALSE,TRUE,TRUE,"""event"",""trial"",""time""
""fullscreenenter"",""5"",""23843""
","
","
","""event"",""trial"",""time""
""fullscreenenter"",""5"",""23843""
","
",NA,images/earth.jpg,NA,NA,NA,NA,NA,NA,NA,NA,NA,NA,NA,NA,NA,fixation,NA,NA,NA,NA,NA,NA,sub97
d3-animate-choice,64,454757,0.0-61.0-0.1,TRUE,FALSE,TRUE,TRUE,"""event"",""trial"",""time""
""fullscreenenter"",""5"",""23843""
","
","
","""event"",""trial"",""time""
""fullscreenenter"",""5"",""23843""
","
",null,NA,null,NA,NA,3000,0,NA,NA,images/earth.jpg,images/tutrocket2,images/tutrocket1,null,NA,NA,1,practice,null,NA,NA,NA,NA,sub97
d3-animate-choice,65,455765,0.0-61.0-1.1,TRUE,FALSE,TRUE,TRUE,"""event"",""trial"",""time""
""fullscreenenter"",""5"",""23843""
","
","
","""event"",""trial"",""time""
""fullscreenenter"",""5"",""23843""
","
",null,NA,null,NA,NA,0,0,NA,NA,images/earth.jpg,images/tutrocket2,images/tutrocket1,null,NA,NA,2,practice,null,NA,NA,0,2020-06-24T19:43:08Z,sub97
two-step-fixation,66,456769,0.0-61.0-2.1,TRUE,FALSE,TRUE,TRUE,"""event"",""trial"",""time""
""fullscreenenter"",""5"",""23843""
","
","
","""event"",""trial"",""time""
""fullscreenenter"",""5"",""23843""
","
",NA,images/earth.jpg,NA,NA,NA,NA,NA,NA,NA,NA,NA,NA,NA,NA,NA,fixation,NA,NA,NA,NA,NA,NA,sub97
d3-animate-choice,67,459913,0.0-61.0-0.2,TRUE,FALSE,TRUE,TRUE,"""event"",""trial"",""time""
""fullscreenenter"",""5"",""23843""
","
","
","""event"",""trial"",""time""
""fullscreenenter"",""5"",""23843""
","
",1140.4350000011618,NA,49,NA,NA,3000,1,NA,NA,images/earth.jpg,images/tutrocket2,images/tutrocket1,null,images/tutrocket1,NA,1,practice,null,1,NA,NA,NA,sub97
d3-animate-choice,68,463919,0.0-61.0-1.2,TRUE,FALSE,TRUE,TRUE,"""event"",""trial"",""time""
""fullscreenenter"",""5"",""23843""
","
","
","""event"",""trial"",""time""
""fullscreenenter"",""5"",""23843""
","
",2354.54000000027,NA,49,NA,NA,3000,1,NA,NA,images/tutyellowplanet.jpg,images/tutalien4,images/tutalien3,images/tutrocket1,images/tutalien3,images/nothing.png,2,practice,true,1,common,0,2020-06-24T19:43:16Z,sub97
two-step-fixation,69,464921,0.0-61.0-2.2,TRUE,FALSE,TRUE,TRUE,"""event"",""trial"",""time""
""fullscreenenter"",""5"",""23843""
","
","
","""event"",""trial"",""time""
""fullscreenenter"",""5"",""23843""
","
",NA,images/earth.jpg,NA,NA,NA,NA,NA,NA,NA,NA,NA,NA,NA,NA,NA,fixation,NA,NA,NA,NA,NA,NA,sub97
d3-animate-choice,70,468173,0.0-61.0-0.3,TRUE,FALSE,TRUE,TRUE,"""event"",""trial"",""time""
""fullscreenenter"",""5"",""23843""
","
","
","""event"",""trial"",""time""
""fullscreenenter"",""5"",""23843""
","
",1248.0049999940093,NA,48,NA,NA,3000,1,NA,NA,images/earth.jpg,images/tutrocket2,images/tutrocket1,null,images/tutrocket2,NA,1,practice,null,2,NA,NA,NA,sub97
d3-animate-choice,71,471761,0.0-61.0-1.3,TRUE,FALSE,TRUE,TRUE,"""event"",""trial"",""time""
""fullscreenenter"",""5"",""23843""
","
","
","""event"",""trial"",""time""
""fullscreenenter"",""5"",""23843""
","
",1583.5450000013225,NA,48,NA,NA,3000,1,NA,NA,images/tutgreenplanet.jpg,images/tutalien2,images/tutalien1,images/tutrocket2,images/tutalien2,images/nothing.png,2,practice,true,2,common,0,2020-06-24T19:43:24Z,sub97
two-step-fixation,72,472766,0.0-61.0-2.3,TRUE,FALSE,TRUE,TRUE,"""event"",""trial"",""time""
""fullscreenenter"",""5"",""23843""
","
","
","""event"",""trial"",""time""
""fullscreenenter"",""5"",""23843""
","
",NA,images/earth.jpg,NA,NA,NA,NA,NA,NA,NA,NA,NA,NA,NA,NA,NA,fixation,NA,NA,NA,NA,NA,NA,sub97
d3-animate-choice,73,476772,0.0-61.0-0.4,TRUE,FALSE,TRUE,TRUE,"""event"",""trial"",""time""
""fullscreenenter"",""5"",""23843""
","
","
","""event"",""trial"",""time""
""fullscreenenter"",""5"",""23843""
","
",3087.6900000002934,NA,48,NA,NA,3000,0,NA,NA,images/earth.jpg,images/tutrocket2,images/tutrocket1,null,NA,NA,1,practice,null,2,NA,NA,NA,sub97
d3-animate-choice,74,477781,0.0-61.0-1.4,TRUE,FALSE,TRUE,TRUE,"""event"",""trial"",""time""
""fullscreenenter"",""5"",""23843""
","
","
","""event"",""trial"",""time""
""fullscreenenter"",""5"",""23843""
","
",null,NA,null,NA,NA,0,0,NA,NA,images/earth.jpg,images/tutrocket2,images/tutrocket1,null,NA,NA,2,practice,null,NA,NA,0,2020-06-24T19:43:30Z,sub97
two-step-fixation,75,478786,0.0-61.0-2.4,TRUE,FALSE,TRUE,TRUE,"""event"",""trial"",""time""
""fullscreenenter"",""5"",""23843""
","
","
","""event"",""trial"",""time""
""fullscreenenter"",""5"",""23843""
","
",NA,images/earth.jpg,NA,NA,NA,NA,NA,NA,NA,NA,NA,NA,NA,NA,NA,fixation,NA,NA,NA,NA,NA,NA,sub97
d3-animate-choice,76,481511,0.0-61.0-0.5,TRUE,FALSE,TRUE,TRUE,"""event"",""trial"",""time""
""fullscreenenter"",""5"",""23843""
","
","
","""event"",""trial"",""time""
""fullscreenenter"",""5"",""23843""
","
",720.7650000054855,NA,48,NA,NA,3000,1,NA,NA,images/earth.jpg,images/tutrocket2,images/tutrocket1,null,images/tutrocket2,NA,1,practice,null,2,NA,NA,NA,sub97
d3-animate-choice,77,485187,0.0-61.0-1.5,TRUE,FALSE,TRUE,TRUE,"""event"",""trial"",""time""
""fullscreenenter"",""5"",""23843""
","
","
","""event"",""trial"",""time""
""fullscreenenter"",""5"",""23843""
","
",1671.0200000015902,NA,49,NA,NA,3000,1,NA,NA,images/tutgreenplanet.jpg,images/tutalien2,images/tutalien1,images/tutrocket2,images/tutalien1,images/nothing.png,2,practice,true,1,common,0,2020-06-24T19:43:37Z,sub97
two-step-fixation,78,486192,0.0-61.0-2.5,TRUE,FALSE,TRUE,TRUE,"""event"",""trial"",""time""
""fullscreenenter"",""5"",""23843""
","
","
","""event"",""trial"",""time""
""fullscreenenter"",""5"",""23843""
","
",NA,images/earth.jpg,NA,NA,NA,NA,NA,NA,NA,NA,NA,NA,NA,NA,NA,fixation,NA,NA,NA,NA,NA,NA,sub97
d3-animate-choice,79,489370,0.0-61.0-0.6,TRUE,FALSE,TRUE,TRUE,"""event"",""trial"",""time""
""fullscreenenter"",""5"",""23843""
","
","
","""event"",""trial"",""time""
""fullscreenenter"",""5"",""23843""
","
",1173.2149999952526,NA,49,NA,NA,3000,1,NA,NA,images/earth.jpg,images/tutrocket2,images/tutrocket1,null,images/tutrocket1,NA,1,practice,null,1,NA,NA,NA,sub97
d3-animate-choice,80,492018,0.0-61.0-1.6,TRUE,FALSE,TRUE,TRUE,"""event"",""trial"",""time""
""fullscreenenter"",""5"",""23843""
","
","
","""event"",""trial"",""time""
""fullscreenenter"",""5"",""23843""
","
",642.1100000006845,NA,49,NA,NA,3000,1,NA,NA,images/tutgreenplanet.jpg,images/tutalien2,images/tutalien1,images/tutrocket1,images/tutalien1,images/t.png,2,practice,false,1,rare,1,2020-06-24T19:43:44Z,sub97
two-step-fixation,81,493026,0.0-61.0-2.6,TRUE,FALSE,TRUE,TRUE,"""event"",""trial"",""time""
""fullscreenenter"",""5"",""23843""
","
","
","""event"",""trial"",""time""
""fullscreenenter"",""5"",""23843""
","
",NA,images/earth.jpg,NA,NA,NA,NA,NA,NA,NA,NA,NA,NA,NA,NA,NA,fixation,NA,NA,NA,NA,NA,NA,sub97
d3-animate-choice,82,496156,0.0-61.0-0.7,TRUE,FALSE,TRUE,TRUE,"""event"",""trial"",""time""
""fullscreenenter"",""5"",""23843""
","
","
","""event"",""trial"",""time""
""fullscreenenter"",""5"",""23843""
","
",1125.8600000001024,NA,48,NA,NA,3000,1,NA,NA,images/earth.jpg,images/tutrocket2,images/tutrocket1,null,images/tutrocket2,NA,1,practice,null,2,NA,NA,NA,sub97
d3-animate-choice,83,499127,0.0-61.0-1.7,TRUE,FALSE,TRUE,TRUE,"""event"",""trial"",""time""
""fullscreenenter"",""5"",""23843""
","
","
","""event"",""trial"",""time""
""fullscreenenter"",""5"",""23843""
","
",967.0750000004773,NA,49,NA,NA,3000,1,NA,NA,images/tutgreenplanet.jpg,images/tutalien2,images/tutalien1,images/tutrocket2,images/tutalien1,images/t.png,2,practice,true,1,common,1,2020-06-24T19:43:51Z,sub97
two-step-fixation,84,500132,0.0-61.0-2.7,TRUE,FALSE,TRUE,TRUE,"""event"",""trial"",""time""
""fullscreenenter"",""5"",""23843""
","
","
","""event"",""trial"",""time""
""fullscreenenter"",""5"",""23843""
","
",NA,images/earth.jpg,NA,NA,NA,NA,NA,NA,NA,NA,NA,NA,NA,NA,NA,fixation,NA,NA,NA,NA,NA,NA,sub97
d3-animate-choice,85,502613,0.0-61.0-0.8,TRUE,FALSE,TRUE,TRUE,"""event"",""trial"",""time""
""fullscreenenter"",""5"",""23843""
","
","
","""event"",""trial"",""time""
""fullscreenenter"",""5"",""23843""
","
",474.1950000025099,NA,48,NA,NA,3000,1,NA,NA,images/earth.jpg,images/tutrocket2,images/tutrocket1,null,images/tutrocket2,NA,1,practice,null,2,NA,NA,NA,sub97
d3-animate-choice,86,505006,0.0-61.0-1.8,TRUE,FALSE,TRUE,TRUE,"""event"",""trial"",""time""
""fullscreenenter"",""5"",""23843""
","
","
","""event"",""trial"",""time""
""fullscreenenter"",""5"",""23843""
","
",388.120000003255,NA,49,NA,NA,3000,1,NA,NA,images/tutyellowplanet.jpg,images/tutalien4,images/tutalien3,images/tutrocket2,images/tutalien3,images/t.png,2,practice,false,1,rare,1,2020-06-24T19:43:57Z,sub97
two-step-fixation,87,506014,0.0-61.0-2.8,TRUE,FALSE,TRUE,TRUE,"""event"",""trial"",""time""
""fullscreenenter"",""5"",""23843""
","
","
","""event"",""trial"",""time""
""fullscreenenter"",""5"",""23843""
","
",NA,images/earth.jpg,NA,NA,NA,NA,NA,NA,NA,NA,NA,NA,NA,NA,NA,fixation,NA,NA,NA,NA,NA,NA,sub97
d3-animate-choice,88,508317,0.0-61.0-0.9,TRUE,FALSE,TRUE,TRUE,"""event"",""trial"",""time""
""fullscreenenter"",""5"",""23843""
","
","
","""event"",""trial"",""time""
""fullscreenenter"",""5"",""23843""
","
",295.4150000005029,NA,49,NA,NA,3000,1,NA,NA,images/earth.jpg,images/tutrocket2,images/tutrocket1,null,images/tutrocket1,NA,1,practice,null,1,NA,NA,NA,sub97
d3-animate-choice,89,510937,0.0-61.0-1.9,TRUE,FALSE,TRUE,TRUE,"""event"",""trial"",""time""
""fullscreenenter"",""5"",""23843""
","
","
","""event"",""trial"",""time""
""fullscreenenter"",""5"",""23843""
","
",614.8549999998068,NA,48,NA,NA,3000,1,NA,NA,images/tutgreenplanet.jpg,images/tutalien2,images/tutalien1,images/tutrocket1,images/tutalien2,images/nothing.png,2,practice,false,2,rare,0,2020-06-24T19:44:03Z,sub97
two-step-fixation,90,511944,0.0-61.0-2.9,TRUE,FALSE,TRUE,TRUE,"""event"",""trial"",""time""
""fullscreenenter"",""5"",""23843""
","
","
","""event"",""trial"",""time""
""fullscreenenter"",""5"",""23843""
","
",NA,images/earth.jpg,NA,NA,NA,NA,NA,NA,NA,NA,NA,NA,NA,NA,NA,fixation,NA,NA,NA,NA,NA,NA,sub97
d3-animate-choice,91,514756,0.0-61.0-0.10,TRUE,FALSE,TRUE,TRUE,"""event"",""trial"",""time""
""fullscreenenter"",""5"",""23843""
","
","
","""event"",""trial"",""time""
""fullscreenenter"",""5"",""23843""
","
",805.6250000008731,NA,48,NA,NA,3000,1,NA,NA,images/earth.jpg,images/tutrocket2,images/tutrocket1,null,images/tutrocket2,NA,1,practice,null,2,NA,NA,NA,sub97
d3-animate-choice,92,517538,0.0-61.0-1.10,TRUE,FALSE,TRUE,TRUE,"""event"",""trial"",""time""
""fullscreenenter"",""5"",""23843""
","
","
","""event"",""trial"",""time""
""fullscreenenter"",""5"",""23843""
","
",774.9299999995856,NA,49,NA,NA,3000,1,NA,NA,images/tutgreenplanet.jpg,images/tutalien2,images/tutalien1,images/tutrocket2,images/tutalien1,images/nothing.png,2,practice,true,1,common,0,2020-06-24T19:44:09Z,sub97
two-step-fixation,93,518542,0.0-61.0-2.10,TRUE,FALSE,TRUE,TRUE,"""event"",""trial"",""time""
""fullscreenenter"",""5"",""23843""
","
","
","""event"",""trial"",""time""
""fullscreenenter"",""5"",""23843""
","
",NA,images/earth.jpg,NA,NA,NA,NA,NA,NA,NA,NA,NA,NA,NA,NA,NA,fixation,NA,NA,NA,NA,NA,NA,sub97
d3-animate-choice,94,521509,0.0-61.0-0.11,TRUE,FALSE,TRUE,TRUE,"""event"",""trial"",""time""
""fullscreenenter"",""5"",""23843""
","
","
","""event"",""trial"",""time""
""fullscreenenter"",""5"",""23843""
","
",960.8000000007451,NA,49,NA,NA,3000,1,NA,NA,images/earth.jpg,images/tutrocket2,images/tutrocket1,null,images/tutrocket1,NA,1,practice,null,1,NA,NA,NA,sub97
d3-animate-choice,95,523903,0.0-61.0-1.11,TRUE,FALSE,TRUE,TRUE,"""event"",""trial"",""time""
""fullscreenenter"",""5"",""23843""
","
","
","""event"",""trial"",""time""
""fullscreenenter"",""5"",""23843""
","
",390.02500000060536,NA,48,NA,NA,3000,1,NA,NA,images/tutyellowplanet.jpg,images/tutalien4,images/tutalien3,images/tutrocket1,images/tutalien4,images/nothing.png,2,practice,true,2,common,0,2020-06-24T19:44:16Z,sub97
two-step-fixation,96,524908,0.0-61.0-2.11,TRUE,FALSE,TRUE,TRUE,"""event"",""trial"",""time""
""fullscreenenter"",""5"",""23843""
","
","
","""event"",""trial"",""time""
""fullscreenenter"",""5"",""23843""
","
",NA,images/earth.jpg,NA,NA,NA,NA,NA,NA,NA,NA,NA,NA,NA,NA,NA,fixation,NA,NA,NA,NA,NA,NA,sub97
d3-animate-choice,97,527983,0.0-61.0-0.12,TRUE,FALSE,TRUE,TRUE,"""event"",""trial"",""time""
""fullscreenenter"",""5"",""23843""
","
","
","""event"",""trial"",""time""
""fullscreenenter"",""5"",""23843""
","
",1067.2200000043958,NA,49,NA,NA,3000,1,NA,NA,images/earth.jpg,images/tutrocket2,images/tutrocket1,null,images/tutrocket1,NA,1,practice,null,1,NA,NA,NA,sub97
d3-animate-choice,98,530349,0.0-61.0-1.12,TRUE,FALSE,TRUE,TRUE,"""event"",""trial"",""time""
""fullscreenenter"",""5"",""23843""
","
","
","""event"",""trial"",""time""
""fullscreenenter"",""5"",""23843""
","
",357.6499999980442,NA,49,NA,NA,3000,1,NA,NA,images/tutyellowplanet.jpg,images/tutalien4,images/tutalien3,images/tutrocket1,images/tutalien3,images/nothing.png,2,practice,true,1,common,0,2020-06-24T19:44:22Z,sub97
two-step-fixation,99,531355,0.0-61.0-2.12,TRUE,FALSE,TRUE,TRUE,"""event"",""trial"",""time""
""fullscreenenter"",""5"",""23843""
","
","
","""event"",""trial"",""time""
""fullscreenenter"",""5"",""23843""
","
",NA,images/earth.jpg,NA,NA,NA,NA,NA,NA,NA,NA,NA,NA,NA,NA,NA,fixation,NA,NA,NA,NA,NA,NA,sub97
d3-animate-choice,100,533703,0.0-61.0-0.13,TRUE,FALSE,TRUE,TRUE,"""event"",""trial"",""time""
""fullscreenenter"",""5"",""23843""
","
","
","""event"",""trial"",""time""
""fullscreenenter"",""5"",""23843""
","
",339.92000000574626,NA,48,NA,NA,3000,1,NA,NA,images/earth.jpg,images/tutrocket2,images/tutrocket1,null,images/tutrocket2,NA,1,practice,null,2,NA,NA,NA,sub97
d3-animate-choice,101,536290,0.0-61.0-1.13,TRUE,FALSE,TRUE,TRUE,"""event"",""trial"",""time""
""fullscreenenter"",""5"",""23843""
","
","
","""event"",""trial"",""time""
""fullscreenenter"",""5"",""23843""
","
",582.5150000017602,NA,49,NA,NA,3000,1,NA,NA,images/tutgreenplanet.jpg,images/tutalien2,images/tutalien1,images/tutrocket2,images/tutalien1,images/nothing.png,2,practice,true,1,common,0,2020-06-24T19:44:28Z,sub97
two-step-fixation,102,537294,0.0-61.0-2.13,TRUE,FALSE,TRUE,TRUE,"""event"",""trial"",""time""
""fullscreenenter"",""5"",""23843""
","
","
","""event"",""trial"",""time""
""fullscreenenter"",""5"",""23843""
","
",NA,images/earth.jpg,NA,NA,NA,NA,NA,NA,NA,NA,NA,NA,NA,NA,NA,fixation,NA,NA,NA,NA,NA,NA,sub97
d3-animate-choice,103,540597,0.0-61.0-0.14,TRUE,FALSE,TRUE,TRUE,"""event"",""trial"",""time""
""fullscreenenter"",""5"",""23843""
","
","
","""event"",""trial"",""time""
""fullscreenenter"",""5"",""23843""
","
",1297.809999996447,NA,48,NA,NA,3000,1,NA,NA,images/earth.jpg,images/tutrocket2,images/tutrocket1,null,images/tutrocket2,NA,1,practice,null,2,NA,NA,NA,sub97
d3-animate-choice,104,543329,0.0-61.0-1.14,TRUE,FALSE,TRUE,TRUE,"""event"",""trial"",""time""
""fullscreenenter"",""5"",""23843""
","
","
","""event"",""trial"",""time""
""fullscreenenter"",""5"",""23843""
","
",723.9300000000512,NA,48,NA,NA,3000,1,NA,NA,images/tutgreenplanet.jpg,images/tutalien2,images/tutalien1,images/tutrocket2,images/tutalien2,images/t.png,2,practice,true,2,common,1,2020-06-24T19:44:35Z,sub97
two-step-fixation,105,544335,0.0-61.0-2.14,TRUE,FALSE,TRUE,TRUE,"""event"",""trial"",""time""
""fullscreenenter"",""5"",""23843""
","
","
","""event"",""trial"",""time""
""fullscreenenter"",""5"",""23843""
","
",NA,images/earth.jpg,NA,NA,NA,NA,NA,NA,NA,NA,NA,NA,NA,NA,NA,fixation,NA,NA,NA,NA,NA,NA,sub97
d3-animate-choice,106,547176,0.0-61.0-0.15,TRUE,FALSE,TRUE,TRUE,"""event"",""trial"",""time""
""fullscreenenter"",""5"",""23843""
","
","
","""event"",""trial"",""time""
""fullscreenenter"",""5"",""23843""
","
",835.9150000032969,NA,49,NA,NA,3000,1,NA,NA,images/earth.jpg,images/tutrocket2,images/tutrocket1,null,images/tutrocket1,NA,1,practice,null,1,NA,NA,NA,sub97
d3-animate-choice,107,550051,0.0-61.0-1.15,TRUE,FALSE,TRUE,TRUE,"""event"",""trial"",""time""
""fullscreenenter"",""5"",""23843""
","
","
","""event"",""trial"",""time""
""fullscreenenter"",""5"",""23843""
","
",866.9850000005681,NA,48,NA,NA,3000,1,NA,NA,images/tutyellowplanet.jpg,images/tutalien4,images/tutalien3,images/tutrocket1,images/tutalien4,images/t.png,2,practice,true,2,common,1,2020-06-24T19:44:42Z,sub97
two-step-fixation,108,551059,0.0-61.0-2.15,TRUE,FALSE,TRUE,TRUE,"""event"",""trial"",""time""
""fullscreenenter"",""5"",""23843""
","
","
","""event"",""trial"",""time""
""fullscreenenter"",""5"",""23843""
","
",NA,images/earth.jpg,NA,NA,NA,NA,NA,NA,NA,NA,NA,NA,NA,NA,NA,fixation,NA,NA,NA,NA,NA,NA,sub97
d3-animate-choice,109,553896,0.0-61.0-0.16,TRUE,FALSE,TRUE,TRUE,"""event"",""trial"",""time""
""fullscreenenter"",""5"",""23843""
","
","
","""event"",""trial"",""time""
""fullscreenenter"",""5"",""23843""
","
",831.5099999964004,NA,49,NA,NA,3000,1,NA,NA,images/earth.jpg,images/tutrocket2,images/tutrocket1,null,images/tutrocket1,NA,1,practice,null,1,NA,NA,NA,sub97
d3-animate-choice,110,556742,0.0-61.0-1.16,TRUE,FALSE,TRUE,TRUE,"""event"",""trial"",""time""
""fullscreenenter"",""5"",""23843""
","
","
","""event"",""trial"",""time""
""fullscreenenter"",""5"",""23843""
","
",842.3800000018673,NA,48,NA,NA,3000,1,NA,NA,images/tutyellowplanet.jpg,images/tutalien4,images/tutalien3,images/tutrocket1,images/tutalien4,images/nothing.png,2,practice,true,2,common,0,2020-06-24T19:44:49Z,sub97
two-step-fixation,111,557748,0.0-61.0-2.16,TRUE,FALSE,TRUE,TRUE,"""event"",""trial"",""time""
""fullscreenenter"",""5"",""23843""
","
","
","""event"",""trial"",""time""
""fullscreenenter"",""5"",""23843""
","
",NA,images/earth.jpg,NA,NA,NA,NA,NA,NA,NA,NA,NA,NA,NA,NA,NA,fixation,NA,NA,NA,NA,NA,NA,sub97
d3-animate-choice,112,560212,0.0-61.0-0.17,TRUE,FALSE,TRUE,TRUE,"""event"",""trial"",""time""
""fullscreenenter"",""5"",""23843""
","
","
","""event"",""trial"",""time""
""fullscreenenter"",""5"",""23843""
","
",459.3200000018114,NA,49,NA,NA,3000,1,NA,NA,images/earth.jpg,images/tutrocket2,images/tutrocket1,null,images/tutrocket1,NA,1,practice,null,1,NA,NA,NA,sub97
d3-animate-choice,113,562604,0.0-61.0-1.17,TRUE,FALSE,TRUE,TRUE,"""event"",""trial"",""time""
""fullscreenenter"",""5"",""23843""
","
","
","""event"",""trial"",""time""
""fullscreenenter"",""5"",""23843""
","
",385.5649999968009,NA,49,NA,NA,3000,1,NA,NA,images/tutyellowplanet.jpg,images/tutalien4,images/tutalien3,images/tutrocket1,images/tutalien3,images/nothing.png,2,practice,true,1,common,0,2020-06-24T19:44:55Z,sub97
two-step-fixation,114,563610,0.0-61.0-2.17,TRUE,FALSE,TRUE,TRUE,"""event"",""trial"",""time""
""fullscreenenter"",""5"",""23843""
","
","
","""event"",""trial"",""time""
""fullscreenenter"",""5"",""23843""
","
",NA,images/earth.jpg,NA,NA,NA,NA,NA,NA,NA,NA,NA,NA,NA,NA,NA,fixation,NA,NA,NA,NA,NA,NA,sub97
d3-animate-choice,115,566015,0.0-61.0-0.18,TRUE,FALSE,TRUE,TRUE,"""event"",""trial"",""time""
""fullscreenenter"",""5"",""23843""
","
","
","""event"",""trial"",""time""
""fullscreenenter"",""5"",""23843""
","
",397.3150000020396,NA,48,NA,NA,3000,1,NA,NA,images/earth.jpg,images/tutrocket2,images/tutrocket1,null,images/tutrocket2,NA,1,practice,null,2,NA,NA,NA,sub97
d3-animate-choice,116,568956,0.0-61.0-1.18,TRUE,FALSE,TRUE,TRUE,"""event"",""trial"",""time""
""fullscreenenter"",""5"",""23843""
","
","
","""event"",""trial"",""time""
""fullscreenenter"",""5"",""23843""
","
",935.910000000149,NA,49,NA,NA,3000,1,NA,NA,images/tutgreenplanet.jpg,images/tutalien2,images/tutalien1,images/tutrocket2,images/tutalien1,images/t.png,2,practice,true,1,common,1,2020-06-24T19:45:01Z,sub97
two-step-fixation,117,569961,0.0-61.0-2.18,TRUE,FALSE,TRUE,TRUE,"""event"",""trial"",""time""
""fullscreenenter"",""5"",""23843""
","
","
","""event"",""trial"",""time""
""fullscreenenter"",""5"",""23843""
","
",NA,images/earth.jpg,NA,NA,NA,NA,NA,NA,NA,NA,NA,NA,NA,NA,NA,fixation,NA,NA,NA,NA,NA,NA,sub97
d3-animate-choice,118,573319,0.0-61.0-0.19,TRUE,FALSE,TRUE,TRUE,"""event"",""trial"",""time""
""fullscreenenter"",""5"",""23843""
","
","
","""event"",""trial"",""time""
""fullscreenenter"",""5"",""23843""
","
",1350.7299999982351,NA,48,NA,NA,3000,1,NA,NA,images/earth.jpg,images/tutrocket2,images/tutrocket1,null,images/tutrocket2,NA,1,practice,null,2,NA,NA,NA,sub97
d3-animate-choice,119,575802,0.0-61.0-1.19,TRUE,FALSE,TRUE,TRUE,"""event"",""trial"",""time""
""fullscreenenter"",""5"",""23843""
","
","
","""event"",""trial"",""time""
""fullscreenenter"",""5"",""23843""
","
",475.9100000009639,NA,48,NA,NA,3000,1,NA,NA,images/tutgreenplanet.jpg,images/tutalien2,images/tutalien1,images/tutrocket2,images/tutalien2,images/nothing.png,2,practice,true,2,common,0,2020-06-24T19:45:08Z,sub97
two-step-fixation,120,576807,0.0-61.0-2.19,TRUE,FALSE,TRUE,TRUE,"""event"",""trial"",""time""
""fullscreenenter"",""5"",""23843""
","
","
","""event"",""trial"",""time""
""fullscreenenter"",""5"",""23843""
","
",NA,images/earth.jpg,NA,NA,NA,NA,NA,NA,NA,NA,NA,NA,NA,NA,NA,fixation,NA,NA,NA,NA,NA,NA,sub97
d3-instructions,121,584957,0.0-62.0,TRUE,FALSE,TRUE,TRUE,"""event"",""trial"",""time""
""fullscreenenter"",""5"",""23843""
","
","
","""event"",""trial"",""time""
""fullscreenenter"",""5"",""23843""
","
",NA,NA,NA,NA,NA,NA,NA,NA,NA,NA,NA,NA,NA,NA,NA,NA,NA,NA,NA,NA,NA,NA,sub97
audio-keyboard-response,122,591095,0.0-63.0,TRUE,FALSE,TRUE,TRUE,"""event"",""trial"",""time""
""fullscreenenter"",""5"",""23843""
","
","
","""event"",""trial"",""time""
""fullscreenenter"",""5"",""23843""
","
",6136,audio/instructions/treasure_feedback.wav,32,NA,NA,NA,NA,NA,NA,NA,NA,NA,NA,NA,NA,NA,NA,NA,NA,NA,NA,NA,sub97
d3-instructions,123,611045,0.0-64.0,TRUE,FALSE,TRUE,TRUE,"""event"",""trial"",""time""
""fullscreenenter"",""5"",""23843""
","
","
","""event"",""trial"",""time""
""fullscreenenter"",""5"",""23843""
","
",NA,NA,NA,NA,NA,NA,NA,NA,NA,NA,NA,NA,NA,NA,NA,NA,NA,NA,NA,NA,NA,NA,sub97
d3-instructions,124,624810,0.0-65.0,TRUE,FALSE,TRUE,TRUE,"""event"",""trial"",""time""
""fullscreenenter"",""5"",""23843""
","
","
","""event"",""trial"",""time""
""fullscreenenter"",""5"",""23843""
","
",NA,NA,NA,NA,NA,NA,NA,NA,NA,NA,NA,NA,NA,NA,NA,NA,NA,NA,NA,NA,NA,NA,sub97
d3-instructions,125,652109,0.0-66.0,TRUE,FALSE,TRUE,TRUE,"""event"",""trial"",""time""
""fullscreenenter"",""5"",""23843""
","
","
","""event"",""trial"",""time""
""fullscreenenter"",""5"",""23843""
","
",NA,NA,NA,NA,NA,NA,NA,NA,NA,NA,NA,NA,NA,NA,NA,NA,NA,NA,NA,NA,NA,NA,sub97
d3-instructions,126,668721,0.0-67.0,TRUE,FALSE,TRUE,TRUE,"""event"",""trial"",""time""
""fullscreenenter"",""5"",""23843""
","
","
","""event"",""trial"",""time""
""fullscreenenter"",""5"",""23843""
","
",NA,NA,NA,NA,NA,NA,NA,NA,NA,NA,NA,NA,NA,NA,NA,NA,NA,NA,NA,NA,NA,NA,sub97
d3-instructions,127,677842,0.0-68.0,TRUE,FALSE,TRUE,TRUE,"""event"",""trial"",""time""
""fullscreenenter"",""5"",""23843""
","
","
","""event"",""trial"",""time""
""fullscreenenter"",""5"",""23843""
","
",NA,NA,NA,NA,NA,NA,NA,NA,NA,NA,NA,NA,NA,NA,NA,NA,NA,NA,NA,NA,NA,NA,sub97
instructions-quiz,128,682584,0.0-69.0,TRUE,FALSE,TRUE,TRUE,"""event"",""trial"",""time""
""fullscreenenter"",""5"",""23843""
","
","
","""event"",""trial"",""time""
""fullscreenenter"",""5"",""23843""
","
",4740.144999996177,audio/quiz/Q1_Prompt.wav,NA,1,NA,NA,NA,NA,NA,NA,NA,NA,NA,NA,NA,NA,NA,NA,NA,NA,NA,NA,sub97
audio-keyboard-response,129,691754,0.0-70.0,TRUE,FALSE,TRUE,TRUE,"""event"",""trial"",""time""
""fullscreenenter"",""5"",""23843""
","
","
","""event"",""trial"",""time""
""fullscreenenter"",""5"",""23843""
","
",null,audio/quiz/Q1_Correct.wav,null,NA,NA,NA,NA,NA,NA,NA,NA,NA,NA,NA,NA,NA,NA,NA,NA,NA,NA,NA,sub97
instructions-quiz,130,701107,0.0-71.0,TRUE,FALSE,TRUE,TRUE,"""event"",""trial"",""time""
""fullscreenenter"",""5"",""23843""
","
","
","""event"",""trial"",""time""
""fullscreenenter"",""5"",""23843""
","
",9351.009999998496,audio/quiz/Q2_Prompt.wav,NA,0,NA,NA,NA,NA,NA,NA,NA,NA,NA,NA,NA,NA,NA,NA,NA,NA,NA,NA,sub97
audio-keyboard-response,131,713976,0.0-72.0,TRUE,FALSE,TRUE,TRUE,"""event"",""trial"",""time""
""fullscreenenter"",""5"",""23843""
","
","
","""event"",""trial"",""time""
""fullscreenenter"",""5"",""23843""
","
",null,audio/quiz/Q2_Correct.wav,null,NA,NA,NA,NA,NA,NA,NA,NA,NA,NA,NA,NA,NA,NA,NA,NA,NA,NA,NA,sub97
instructions-quiz,132,719696,0.0-73.0,TRUE,FALSE,TRUE,TRUE,"""event"",""trial"",""time""
""fullscreenenter"",""5"",""23843""
","
","
","""event"",""trial"",""time""
""fullscreenenter"",""5"",""23843""
","
",5719.160000000498,audio/quiz/Q3_Prompt.wav,NA,1,NA,NA,NA,NA,NA,NA,NA,NA,NA,NA,NA,NA,NA,NA,NA,NA,NA,NA,sub97
audio-keyboard-response,133,725493,0.0-74.0,TRUE,FALSE,TRUE,TRUE,"""event"",""trial"",""time""
""fullscreenenter"",""5"",""23843""
","
","
","""event"",""trial"",""time""
""fullscreenenter"",""5"",""23843""
","
",null,audio/quiz/Q3_Correct.wav,null,NA,NA,NA,NA,NA,NA,NA,NA,NA,NA,NA,NA,NA,NA,NA,NA,NA,NA,NA,sub97
d3-instructions,134,740013,0.0-75.0,TRUE,FALSE,TRUE,TRUE,"""event"",""trial"",""time""
""fullscreenenter"",""5"",""23843""
","
","
","""event"",""trial"",""time""
""fullscreenenter"",""5"",""23843""
","
",NA,NA,NA,NA,NA,NA,NA,NA,NA,NA,NA,NA,NA,NA,NA,NA,NA,NA,NA,NA,NA,NA,sub97
d3-animate-choice,135,744020,0.0-76.0-0.0,TRUE,FALSE,TRUE,TRUE,"""event"",""trial"",""time""
""fullscreenenter"",""5"",""23843""
","
","
","""event"",""trial"",""time""
""fullscreenenter"",""5"",""23843""
","
",3628.984999995795,NA,48,NA,NA,3000,0,NA,NA,images/earth.jpg,images/rocket2,images/rocket1,null,NA,NA,1,real,null,2,NA,NA,NA,sub97
d3-animate-choice,136,745025,0.0-76.0-1.0,TRUE,FALSE,TRUE,TRUE,"""event"",""trial"",""time""
""fullscreenenter"",""5"",""23843""
","
","
","""event"",""trial"",""time""
""fullscreenenter"",""5"",""23843""
","
",null,NA,null,NA,NA,0,0,NA,NA,images/earth.jpg,images/rocket2,images/rocket1,null,NA,NA,2,real,null,NA,NA,0,2020-06-24T19:47:57Z,sub97
two-step-fixation,137,746029,0.0-76.0-2.0,TRUE,FALSE,TRUE,TRUE,"""event"",""trial"",""time""
""fullscreenenter"",""5"",""23843""
","
","
","""event"",""trial"",""time""
""fullscreenenter"",""5"",""23843""
","
",NA,images/earth.jpg,NA,NA,NA,NA,NA,NA,NA,NA,NA,NA,NA,NA,NA,fixation,NA,NA,NA,NA,NA,NA,sub97
d3-animate-choice,138,748535,0.0-76.0-0.1,TRUE,FALSE,TRUE,TRUE,"""event"",""trial"",""time""
""fullscreenenter"",""5"",""23843""
","
","
","""event"",""trial"",""time""
""fullscreenenter"",""5"",""23843""
","
",502.76499999745283,NA,48,NA,NA,3000,1,NA,NA,images/earth.jpg,images/rocket2,images/rocket1,null,images/rocket2,NA,1,real,null,2,NA,NA,NA,sub97
d3-animate-choice,139,752400,0.0-76.0-1.1,TRUE,FALSE,TRUE,TRUE,"""event"",""trial"",""time""
""fullscreenenter"",""5"",""23843""
","
","
","""event"",""trial"",""time""
""fullscreenenter"",""5"",""23843""
","
",1861.8650000062771,NA,49,NA,NA,3000,1,NA,NA,images/redplanet1.jpg,images/alien2,images/alien1,images/rocket2,images/alien1,images/nothing.png,2,real,true,1,common,0,2020-06-24T19:48:04Z,sub97
two-step-fixation,140,753406,0.0-76.0-2.1,TRUE,FALSE,TRUE,TRUE,"""event"",""trial"",""time""
""fullscreenenter"",""5"",""23843""
","
","
","""event"",""trial"",""time""
""fullscreenenter"",""5"",""23843""
","
",NA,images/earth.jpg,NA,NA,NA,NA,NA,NA,NA,NA,NA,NA,NA,NA,NA,fixation,NA,NA,NA,NA,NA,NA,sub97
d3-animate-choice,141,756694,0.0-76.0-0.2,TRUE,FALSE,TRUE,TRUE,"""event"",""trial"",""time""
""fullscreenenter"",""5"",""23843""
","
","
","""event"",""trial"",""time""
""fullscreenenter"",""5"",""23843""
","
",1283.7150000050897,NA,49,NA,NA,3000,1,NA,NA,images/earth.jpg,images/rocket2,images/rocket1,null,images/rocket1,NA,1,real,null,1,NA,NA,NA,sub97
d3-animate-choice,142,759960,0.0-76.0-1.2,TRUE,FALSE,TRUE,TRUE,"""event"",""trial"",""time""
""fullscreenenter"",""5"",""23843""
","
","
","""event"",""trial"",""time""
""fullscreenenter"",""5"",""23843""
","
",1260.7350000034785,NA,48,NA,NA,3000,1,NA,NA,images/purpleplanet.jpg,images/alien4,images/alien3,images/rocket1,images/alien4,images/t.png,2,real,true,2,common,1,2020-06-24T19:48:12Z,sub97
two-step-fixation,143,760963,0.0-76.0-2.2,TRUE,FALSE,TRUE,TRUE,"""event"",""trial"",""time""
""fullscreenenter"",""5"",""23843""
","
","
","""event"",""trial"",""time""
""fullscreenenter"",""5"",""23843""
","
",NA,images/earth.jpg,NA,NA,NA,NA,NA,NA,NA,NA,NA,NA,NA,NA,NA,fixation,NA,NA,NA,NA,NA,NA,sub97
d3-animate-choice,144,763817,0.0-76.0-0.3,TRUE,FALSE,TRUE,TRUE,"""event"",""trial"",""time""
""fullscreenenter"",""5"",""23843""
","
","
","""event"",""trial"",""time""
""fullscreenenter"",""5"",""23843""
","
",846.8250000005355,NA,49,NA,NA,3000,1,NA,NA,images/earth.jpg,images/rocket2,images/rocket1,null,images/rocket1,NA,1,real,null,1,NA,NA,NA,sub97
d3-animate-choice,145,767184,0.0-76.0-1.3,TRUE,FALSE,TRUE,TRUE,"""event"",""trial"",""time""
""fullscreenenter"",""5"",""23843""
","
","
","""event"",""trial"",""time""
""fullscreenenter"",""5"",""23843""
","
",1362.8000000026077,NA,48,NA,NA,3000,1,NA,NA,images/redplanet1.jpg,images/alien2,images/alien1,images/rocket1,images/alien2,images/nothing.png,2,real,false,2,rare,0,2020-06-24T19:48:19Z,sub97
two-step-fixation,146,768186,0.0-76.0-2.3,TRUE,FALSE,TRUE,TRUE,"""event"",""trial"",""time""
""fullscreenenter"",""5"",""23843""
","
","
","""event"",""trial"",""time""
""fullscreenenter"",""5"",""23843""
","
",NA,images/earth.jpg,NA,NA,NA,NA,NA,NA,NA,NA,NA,NA,NA,NA,NA,fixation,NA,NA,NA,NA,NA,NA,sub97
d3-animate-choice,147,771151,0.0-76.0-0.4,TRUE,FALSE,TRUE,TRUE,"""event"",""trial"",""time""
""fullscreenenter"",""5"",""23843""
","
","
","""event"",""trial"",""time""
""fullscreenenter"",""5"",""23843""
","
",959.985000001383,NA,48,NA,NA,3000,1,NA,NA,images/earth.jpg,images/rocket2,images/rocket1,null,images/rocket2,NA,1,real,null,2,NA,NA,NA,sub97
d3-animate-choice,148,774616,0.0-76.0-1.4,TRUE,FALSE,TRUE,TRUE,"""event"",""trial"",""time""
""fullscreenenter"",""5"",""23843""
","
","
","""event"",""trial"",""time""
""fullscreenenter"",""5"",""23843""
","
",1460.8349999981,NA,49,NA,NA,3000,1,NA,NA,images/redplanet1.jpg,images/alien2,images/alien1,images/rocket2,images/alien1,images/t.png,2,real,true,1,common,1,2020-06-24T19:48:27Z,sub97
two-step-fixation,149,775623,0.0-76.0-2.4,TRUE,FALSE,TRUE,TRUE,"""event"",""trial"",""time""
""fullscreenenter"",""5"",""23843""
","
","
","""event"",""trial"",""time""
""fullscreenenter"",""5"",""23843""
","
",NA,images/earth.jpg,NA,NA,NA,NA,NA,NA,NA,NA,NA,NA,NA,NA,NA,fixation,NA,NA,NA,NA,NA,NA,sub97
d3-animate-choice,150,778229,0.0-76.0-0.5,TRUE,FALSE,TRUE,TRUE,"""event"",""trial"",""time""
""fullscreenenter"",""5"",""23843""
","
","
","""event"",""trial"",""time""
""fullscreenenter"",""5"",""23843""
","
",601.9050000031712,NA,48,NA,NA,3000,1,NA,NA,images/earth.jpg,images/rocket2,images/rocket1,null,images/rocket2,NA,1,real,null,2,NA,NA,NA,sub97
d3-animate-choice,151,781000,0.0-76.0-1.5,TRUE,FALSE,TRUE,TRUE,"""event"",""trial"",""time""
""fullscreenenter"",""5"",""23843""
","
","
","""event"",""trial"",""time""
""fullscreenenter"",""5"",""23843""
","
",767.8750000050059,NA,49,NA,NA,3000,1,NA,NA,images/redplanet1.jpg,images/alien2,images/alien1,images/rocket2,images/alien1,images/t.png,2,real,true,1,common,1,2020-06-24T19:48:33Z,sub97
two-step-fixation,152,782005,0.0-76.0-2.5,TRUE,FALSE,TRUE,TRUE,"""event"",""trial"",""time""
""fullscreenenter"",""5"",""23843""
","
","
","""event"",""trial"",""time""
""fullscreenenter"",""5"",""23843""
","
",NA,images/earth.jpg,NA,NA,NA,NA,NA,NA,NA,NA,NA,NA,NA,NA,NA,fixation,NA,NA,NA,NA,NA,NA,sub97
d3-animate-choice,153,784563,0.0-76.0-0.6,TRUE,FALSE,TRUE,TRUE,"""event"",""trial"",""time""
""fullscreenenter"",""5"",""23843""
","
","
","""event"",""trial"",""time""
""fullscreenenter"",""5"",""23843""
","
",554.1250000023283,NA,48,NA,NA,3000,1,NA,NA,images/earth.jpg,images/rocket2,images/rocket1,null,images/rocket2,NA,1,real,null,2,NA,NA,NA,sub97
d3-animate-choice,154,788379,0.0-76.0-1.6,TRUE,FALSE,TRUE,TRUE,"""event"",""trial"",""time""
""fullscreenenter"",""5"",""23843""
","
","
","""event"",""trial"",""time""
""fullscreenenter"",""5"",""23843""
","
",1811.4700000005541,NA,49,NA,NA,3000,1,NA,NA,images/purpleplanet.jpg,images/alien4,images/alien3,images/rocket2,images/alien3,images/nothing.png,2,real,false,1,rare,0,2020-06-24T19:48:40Z,sub97
two-step-fixation,155,789383,0.0-76.0-2.6,TRUE,FALSE,TRUE,TRUE,"""event"",""trial"",""time""
""fullscreenenter"",""5"",""23843""
","
","
","""event"",""trial"",""time""
""fullscreenenter"",""5"",""23843""
","
",NA,images/earth.jpg,NA,NA,NA,NA,NA,NA,NA,NA,NA,NA,NA,NA,NA,fixation,NA,NA,NA,NA,NA,NA,sub97
d3-animate-choice,156,791830,0.0-76.0-0.7,TRUE,FALSE,TRUE,TRUE,"""event"",""trial"",""time""
""fullscreenenter"",""5"",""23843""
","
","
","""event"",""trial"",""time""
""fullscreenenter"",""5"",""23843""
","
",443.4350000009872,NA,48,NA,NA,3000,1,NA,NA,images/earth.jpg,images/rocket2,images/rocket1,null,images/rocket2,NA,1,real,null,2,NA,NA,NA,sub97
d3-animate-choice,157,794566,0.0-76.0-1.7,TRUE,FALSE,TRUE,TRUE,"""event"",""trial"",""time""
""fullscreenenter"",""5"",""23843""
","
","
","""event"",""trial"",""time""
""fullscreenenter"",""5"",""23843""
","
",730.3950000059558,NA,49,NA,NA,3000,1,NA,NA,images/redplanet1.jpg,images/alien2,images/alien1,images/rocket2,images/alien1,images/nothing.png,2,real,true,1,common,0,2020-06-24T19:48:47Z,sub97
two-step-fixation,158,795571,0.0-76.0-2.7,TRUE,FALSE,TRUE,TRUE,"""event"",""trial"",""time""
""fullscreenenter"",""5"",""23843""
","
","
","""event"",""trial"",""time""
""fullscreenenter"",""5"",""23843""
","
",NA,images/earth.jpg,NA,NA,NA,NA,NA,NA,NA,NA,NA,NA,NA,NA,NA,fixation,NA,NA,NA,NA,NA,NA,sub97
d3-animate-choice,159,797662,0.0-76.0-0.8,TRUE,FALSE,TRUE,TRUE,"""event"",""trial"",""time""
""fullscreenenter"",""5"",""23843""
","
","
","""event"",""trial"",""time""
""fullscreenenter"",""5"",""23843""
","
",87.19000000564847,NA,48,NA,NA,3000,1,NA,NA,images/earth.jpg,images/rocket2,images/rocket1,null,images/rocket2,NA,1,real,null,2,NA,NA,NA,sub97
d3-animate-choice,160,800098,0.0-76.0-1.8,TRUE,FALSE,TRUE,TRUE,"""event"",""trial"",""time""
""fullscreenenter"",""5"",""23843""
","
","
","""event"",""trial"",""time""
""fullscreenenter"",""5"",""23843""
","
",429.8200000047218,NA,48,NA,NA,3000,1,NA,NA,images/redplanet1.jpg,images/alien2,images/alien1,images/rocket2,images/alien2,images/nothing.png,2,real,true,2,common,0,2020-06-24T19:48:52Z,sub97
two-step-fixation,161,801103,0.0-76.0-2.8,TRUE,FALSE,TRUE,TRUE,"""event"",""trial"",""time""
""fullscreenenter"",""5"",""23843""
","
","
","""event"",""trial"",""time""
""fullscreenenter"",""5"",""23843""
","
",NA,images/earth.jpg,NA,NA,NA,NA,NA,NA,NA,NA,NA,NA,NA,NA,NA,fixation,NA,NA,NA,NA,NA,NA,sub97
d3-animate-choice,162,803521,0.0-76.0-0.9,TRUE,FALSE,TRUE,TRUE,"""event"",""trial"",""time""
""fullscreenenter"",""5"",""23843""
","
","
","""event"",""trial"",""time""
""fullscreenenter"",""5"",""23843""
","
",412.24499999941327,NA,49,NA,NA,3000,1,NA,NA,images/earth.jpg,images/rocket2,images/rocket1,null,images/rocket1,NA,1,real,null,1,NA,NA,NA,sub97
d3-animate-choice,163,806582,0.0-76.0-1.9,TRUE,FALSE,TRUE,TRUE,"""event"",""trial"",""time""
""fullscreenenter"",""5"",""23843""
","
","
","""event"",""trial"",""time""
""fullscreenenter"",""5"",""23843""
","
",1054.0849999962375,NA,48,NA,NA,3000,1,NA,NA,images/purpleplanet.jpg,images/alien4,images/alien3,images/rocket1,images/alien4,images/t.png,2,real,true,2,common,1,2020-06-24T19:48:59Z,sub97
two-step-fixation,164,807589,0.0-76.0-2.9,TRUE,FALSE,TRUE,TRUE,"""event"",""trial"",""time""
""fullscreenenter"",""5"",""23843""
","
","
","""event"",""trial"",""time""
""fullscreenenter"",""5"",""23843""
","
",NA,images/earth.jpg,NA,NA,NA,NA,NA,NA,NA,NA,NA,NA,NA,NA,NA,fixation,NA,NA,NA,NA,NA,NA,sub97
d3-animate-choice,165,810008,0.0-76.0-0.10,TRUE,FALSE,TRUE,TRUE,"""event"",""trial"",""time""
""fullscreenenter"",""5"",""23843""
","
","
","""event"",""trial"",""time""
""fullscreenenter"",""5"",""23843""
","
",413.08000000577886,NA,49,NA,NA,3000,1,NA,NA,images/earth.jpg,images/rocket2,images/rocket1,null,images/rocket1,NA,1,real,null,1,NA,NA,NA,sub97
d3-animate-choice,166,812780,0.0-76.0-1.10,TRUE,FALSE,TRUE,TRUE,"""event"",""trial"",""time""
""fullscreenenter"",""5"",""23843""
","
","
","""event"",""trial"",""time""
""fullscreenenter"",""5"",""23843""
","
",767.6250000004657,NA,49,NA,NA,3000,1,NA,NA,images/purpleplanet.jpg,images/alien4,images/alien3,images/rocket1,images/alien3,images/nothing.png,2,real,true,1,common,0,2020-06-24T19:49:05Z,sub97
two-step-fixation,167,813784,0.0-76.0-2.10,TRUE,FALSE,TRUE,TRUE,"""event"",""trial"",""time""
""fullscreenenter"",""5"",""23843""
","
","
","""event"",""trial"",""time""
""fullscreenenter"",""5"",""23843""
","
",NA,images/earth.jpg,NA,NA,NA,NA,NA,NA,NA,NA,NA,NA,NA,NA,NA,fixation,NA,NA,NA,NA,NA,NA,sub97
d3-animate-choice,168,815883,0.0-76.0-0.11,TRUE,FALSE,TRUE,TRUE,"""event"",""trial"",""time""
""fullscreenenter"",""5"",""23843""
","
","
","""event"",""trial"",""time""
""fullscreenenter"",""5"",""23843""
","
",92.32999999949243,NA,49,NA,NA,3000,1,NA,NA,images/earth.jpg,images/rocket2,images/rocket1,null,images/rocket1,NA,1,real,null,1,NA,NA,NA,sub97
d3-animate-choice,169,818364,0.0-76.0-1.11,TRUE,FALSE,TRUE,TRUE,"""event"",""trial"",""time""
""fullscreenenter"",""5"",""23843""
","
","
","""event"",""trial"",""time""
""fullscreenenter"",""5"",""23843""
","
",475.5700000022771,NA,48,NA,NA,3000,1,NA,NA,images/purpleplanet.jpg,images/alien4,images/alien3,images/rocket1,images/alien4,images/t.png,2,real,true,2,common,1,2020-06-24T19:49:10Z,sub97
two-step-fixation,170,819367,0.0-76.0-2.11,TRUE,FALSE,TRUE,TRUE,"""event"",""trial"",""time""
""fullscreenenter"",""5"",""23843""
","
","
","""event"",""trial"",""time""
""fullscreenenter"",""5"",""23843""
","
",NA,images/earth.jpg,NA,NA,NA,NA,NA,NA,NA,NA,NA,NA,NA,NA,NA,fixation,NA,NA,NA,NA,NA,NA,sub97
d3-animate-choice,171,821862,0.0-76.0-0.12,TRUE,FALSE,TRUE,TRUE,"""event"",""trial"",""time""
""fullscreenenter"",""5"",""23843""
","
","
","""event"",""trial"",""time""
""fullscreenenter"",""5"",""23843""
","
",486.6450000044424,NA,49,NA,NA,3000,1,NA,NA,images/earth.jpg,images/rocket2,images/rocket1,null,images/rocket1,NA,1,real,null,1,NA,NA,NA,sub97
d3-animate-choice,172,825747,0.0-76.0-1.12,TRUE,FALSE,TRUE,TRUE,"""event"",""trial"",""time""
""fullscreenenter"",""5"",""23843""
","
","
","""event"",""trial"",""time""
""fullscreenenter"",""5"",""23843""
","
",1881.1200000054669,NA,48,NA,NA,3000,1,NA,NA,images/redplanet1.jpg,images/alien2,images/alien1,images/rocket1,images/alien2,images/nothing.png,2,real,false,2,rare,0,2020-06-24T19:49:18Z,sub97
two-step-fixation,173,826753,0.0-76.0-2.12,TRUE,FALSE,TRUE,TRUE,"""event"",""trial"",""time""
""fullscreenenter"",""5"",""23843""
","
","
","""event"",""trial"",""time""
""fullscreenenter"",""5"",""23843""
","
",NA,images/earth.jpg,NA,NA,NA,NA,NA,NA,NA,NA,NA,NA,NA,NA,NA,fixation,NA,NA,NA,NA,NA,NA,sub97
d3-animate-choice,174,829337,0.0-76.0-0.13,TRUE,FALSE,TRUE,TRUE,"""event"",""trial"",""time""
""fullscreenenter"",""5"",""23843""
","
","
","""event"",""trial"",""time""
""fullscreenenter"",""5"",""23843""
","
",578.3550000051036,NA,49,NA,NA,3000,1,NA,NA,images/earth.jpg,images/rocket2,images/rocket1,null,images/rocket1,NA,1,real,null,1,NA,NA,NA,sub97
d3-animate-choice,175,832135,0.0-76.0-1.13,TRUE,FALSE,TRUE,TRUE,"""event"",""trial"",""time""
""fullscreenenter"",""5"",""23843""
","
","
","""event"",""trial"",""time""
""fullscreenenter"",""5"",""23843""
","
",791.349999999511,NA,48,NA,NA,3000,1,NA,NA,images/purpleplanet.jpg,images/alien4,images/alien3,images/rocket1,images/alien4,images/t.png,2,real,true,2,common,1,2020-06-24T19:49:24Z,sub97
two-step-fixation,176,833140,0.0-76.0-2.13,TRUE,FALSE,TRUE,TRUE,"""event"",""trial"",""time""
""fullscreenenter"",""5"",""23843""
","
","
","""event"",""trial"",""time""
""fullscreenenter"",""5"",""23843""
","
",NA,images/earth.jpg,NA,NA,NA,NA,NA,NA,NA,NA,NA,NA,NA,NA,NA,fixation,NA,NA,NA,NA,NA,NA,sub97
d3-animate-choice,177,835385,0.0-76.0-0.14,TRUE,FALSE,TRUE,TRUE,"""event"",""trial"",""time""
""fullscreenenter"",""5"",""23843""
","
","
","""event"",""trial"",""time""
""fullscreenenter"",""5"",""23843""
","
",241.42500000004657,NA,49,NA,NA,3000,1,NA,NA,images/earth.jpg,images/rocket2,images/rocket1,null,images/rocket1,NA,1,real,null,1,NA,NA,NA,sub97
d3-animate-choice,178,837842,0.0-76.0-1.14,TRUE,FALSE,TRUE,TRUE,"""event"",""trial"",""time""
""fullscreenenter"",""5"",""23843""
","
","
","""event"",""trial"",""time""
""fullscreenenter"",""5"",""23843""
","
",451.17999999644235,NA,48,NA,NA,3000,1,NA,NA,images/purpleplanet.jpg,images/alien4,images/alien3,images/rocket1,images/alien4,images/t.png,2,real,true,2,common,1,2020-06-24T19:49:30Z,sub97
two-step-fixation,179,838850,0.0-76.0-2.14,TRUE,FALSE,TRUE,TRUE,"""event"",""trial"",""time""
""fullscreenenter"",""5"",""23843""
","
","
","""event"",""trial"",""time""
""fullscreenenter"",""5"",""23843""
","
",NA,images/earth.jpg,NA,NA,NA,NA,NA,NA,NA,NA,NA,NA,NA,NA,NA,fixation,NA,NA,NA,NA,NA,NA,sub97
d3-animate-choice,180,841377,0.0-76.0-0.15,TRUE,FALSE,TRUE,TRUE,"""event"",""trial"",""time""
""fullscreenenter"",""5"",""23843""
","
","
","""event"",""trial"",""time""
""fullscreenenter"",""5"",""23843""
","
",520.9450000037905,NA,49,NA,NA,3000,1,NA,NA,images/earth.jpg,images/rocket2,images/rocket1,null,images/rocket1,NA,1,real,null,1,NA,NA,NA,sub97
d3-animate-choice,181,843772,0.0-76.0-1.15,TRUE,FALSE,TRUE,TRUE,"""event"",""trial"",""time""
""fullscreenenter"",""5"",""23843""
","
","
","""event"",""trial"",""time""
""fullscreenenter"",""5"",""23843""
","
",388.79499999887776,NA,48,NA,NA,3000,1,NA,NA,images/purpleplanet.jpg,images/alien4,images/alien3,images/rocket1,images/alien4,images/t.png,2,real,true,2,common,1,2020-06-24T19:49:36Z,sub97
two-step-fixation,182,844778,0.0-76.0-2.15,TRUE,FALSE,TRUE,TRUE,"""event"",""trial"",""time""
""fullscreenenter"",""5"",""23843""
","
","
","""event"",""trial"",""time""
""fullscreenenter"",""5"",""23843""
","
",NA,images/earth.jpg,NA,NA,NA,NA,NA,NA,NA,NA,NA,NA,NA,NA,NA,fixation,NA,NA,NA,NA,NA,NA,sub97
d3-animate-choice,183,847206,0.0-76.0-0.16,TRUE,FALSE,TRUE,TRUE,"""event"",""trial"",""time""
""fullscreenenter"",""5"",""23843""
","
","
","""event"",""trial"",""time""
""fullscreenenter"",""5"",""23843""
","
",422.61000000149943,NA,49,NA,NA,3000,1,NA,NA,images/earth.jpg,images/rocket2,images/rocket1,null,images/rocket1,NA,1,real,null,1,NA,NA,NA,sub97
d3-animate-choice,184,849679,0.0-76.0-1.16,TRUE,FALSE,TRUE,TRUE,"""event"",""trial"",""time""
""fullscreenenter"",""5"",""23843""
","
","
","""event"",""trial"",""time""
""fullscreenenter"",""5"",""23843""
","
",468.41500000294764,NA,48,NA,NA,3000,1,NA,NA,images/purpleplanet.jpg,images/alien4,images/alien3,images/rocket1,images/alien4,images/t.png,2,real,true,2,common,1,2020-06-24T19:49:42Z,sub97
two-step-fixation,185,850682,0.0-76.0-2.16,TRUE,FALSE,TRUE,TRUE,"""event"",""trial"",""time""
""fullscreenenter"",""5"",""23843""
","
","
","""event"",""trial"",""time""
""fullscreenenter"",""5"",""23843""
","
",NA,images/earth.jpg,NA,NA,NA,NA,NA,NA,NA,NA,NA,NA,NA,NA,NA,fixation,NA,NA,NA,NA,NA,NA,sub97
d3-animate-choice,186,853286,0.0-76.0-0.17,TRUE,FALSE,TRUE,TRUE,"""event"",""trial"",""time""
""fullscreenenter"",""5"",""23843""
","
","
","""event"",""trial"",""time""
""fullscreenenter"",""5"",""23843""
","
",599.6999999987893,NA,49,NA,NA,3000,1,NA,NA,images/earth.jpg,images/rocket2,images/rocket1,null,images/rocket1,NA,1,real,null,1,NA,NA,NA,sub97
d3-animate-choice,187,855696,0.0-76.0-1.17,TRUE,FALSE,TRUE,TRUE,"""event"",""trial"",""time""
""fullscreenenter"",""5"",""23843""
","
","
","""event"",""trial"",""time""
""fullscreenenter"",""5"",""23843""
","
",405.0850000057835,NA,48,NA,NA,3000,1,NA,NA,images/purpleplanet.jpg,images/alien4,images/alien3,images/rocket1,images/alien4,images/nothing.png,2,real,true,2,common,0,2020-06-24T19:49:48Z,sub97
two-step-fixation,188,856701,0.0-76.0-2.17,TRUE,FALSE,TRUE,TRUE,"""event"",""trial"",""time""
""fullscreenenter"",""5"",""23843""
","
","
","""event"",""trial"",""time""
""fullscreenenter"",""5"",""23843""
","
",NA,images/earth.jpg,NA,NA,NA,NA,NA,NA,NA,NA,NA,NA,NA,NA,NA,fixation,NA,NA,NA,NA,NA,NA,sub97
d3-animate-choice,189,859176,0.0-76.0-0.18,TRUE,FALSE,TRUE,TRUE,"""event"",""trial"",""time""
""fullscreenenter"",""5"",""23843""
","
","
","""event"",""trial"",""time""
""fullscreenenter"",""5"",""23843""
","
",470.12000000546686,NA,48,NA,NA,3000,1,NA,NA,images/earth.jpg,images/rocket2,images/rocket1,null,images/rocket2,NA,1,real,null,2,NA,NA,NA,sub97
d3-animate-choice,190,861853,0.0-76.0-1.18,TRUE,FALSE,TRUE,TRUE,"""event"",""trial"",""time""
""fullscreenenter"",""5"",""23843""
","
","
","""event"",""trial"",""time""
""fullscreenenter"",""5"",""23843""
","
",670.8999999973457,NA,49,NA,NA,3000,1,NA,NA,images/redplanet1.jpg,images/alien2,images/alien1,images/rocket2,images/alien1,images/nothing.png,2,real,true,1,common,0,2020-06-24T19:49:54Z,sub97
two-step-fixation,191,862862,0.0-76.0-2.18,TRUE,FALSE,TRUE,TRUE,"""event"",""trial"",""time""
""fullscreenenter"",""5"",""23843""
","
","
","""event"",""trial"",""time""
""fullscreenenter"",""5"",""23843""
","
",NA,images/earth.jpg,NA,NA,NA,NA,NA,NA,NA,NA,NA,NA,NA,NA,NA,fixation,NA,NA,NA,NA,NA,NA,sub97
d3-animate-choice,192,865027,0.0-76.0-0.19,TRUE,FALSE,TRUE,TRUE,"""event"",""trial"",""time""
""fullscreenenter"",""5"",""23843""
","
","
","""event"",""trial"",""time""
""fullscreenenter"",""5"",""23843""
","
",157.16999999864493,NA,48,NA,NA,3000,1,"381.3000000009779,1554.2999999962049,1857.0399999953806,2119.9999999953434",48484848,images/earth.jpg,images/rocket2,images/rocket1,null,images/rocket2,NA,1,real,null,2,NA,NA,NA,sub97
d3-animate-choice,193,867470,0.0-76.0-1.19,TRUE,FALSE,TRUE,TRUE,"""event"",""trial"",""time""
""fullscreenenter"",""5"",""23843""
","
","
","""event"",""trial"",""time""
""fullscreenenter"",""5"",""23843""
","
",435.83000000217,NA,48,NA,NA,3000,1,NA,NA,images/purpleplanet.jpg,images/alien4,images/alien3,images/rocket2,images/alien4,images/nothing.png,2,real,false,2,rare,0,2020-06-24T19:49:59Z,sub97
two-step-fixation,194,868474,0.0-76.0-2.19,TRUE,FALSE,TRUE,TRUE,"""event"",""trial"",""time""
""fullscreenenter"",""5"",""23843""
","
","
","""event"",""trial"",""time""
""fullscreenenter"",""5"",""23843""
","
",NA,images/earth.jpg,NA,NA,NA,NA,NA,NA,NA,NA,NA,NA,NA,NA,NA,fixation,NA,NA,NA,NA,NA,NA,sub97
d3-animate-choice,195,871541,0.0-76.0-0.20,TRUE,FALSE,TRUE,TRUE,"""event"",""trial"",""time""
""fullscreenenter"",""5"",""23843""
","
","
","""event"",""trial"",""time""
""fullscreenenter"",""5"",""23843""
","
",1063.4500000014668,NA,48,NA,NA,3000,1,NA,NA,images/earth.jpg,images/rocket2,images/rocket1,null,images/rocket2,NA,1,real,null,2,NA,NA,NA,sub97
d3-animate-choice,196,874480,0.0-76.0-1.20,TRUE,FALSE,TRUE,TRUE,"""event"",""trial"",""time""
""fullscreenenter"",""5"",""23843""
","
","
","""event"",""trial"",""time""
""fullscreenenter"",""5"",""23843""
","
",934.4100000017788,NA,49,NA,NA,3000,1,NA,NA,images/purpleplanet.jpg,images/alien4,images/alien3,images/rocket2,images/alien3,images/t.png,2,real,false,1,rare,1,2020-06-24T19:50:06Z,sub97
two-step-fixation,197,875487,0.0-76.0-2.20,TRUE,FALSE,TRUE,TRUE,"""event"",""trial"",""time""
""fullscreenenter"",""5"",""23843""
","
","
","""event"",""trial"",""time""
""fullscreenenter"",""5"",""23843""
","
",NA,images/earth.jpg,NA,NA,NA,NA,NA,NA,NA,NA,NA,NA,NA,NA,NA,fixation,NA,NA,NA,NA,NA,NA,sub97
d3-animate-choice,198,878332,0.0-76.0-0.21,TRUE,FALSE,TRUE,TRUE,"""event"",""trial"",""time""
""fullscreenenter"",""5"",""23843""
","
","
","""event"",""trial"",""time""
""fullscreenenter"",""5"",""23843""
","
",841.5200000016484,NA,49,NA,NA,3000,1,NA,NA,images/earth.jpg,images/rocket2,images/rocket1,null,images/rocket1,NA,1,real,null,1,NA,NA,NA,sub97
d3-animate-choice,199,881219,0.0-76.0-1.21,TRUE,FALSE,TRUE,TRUE,"""event"",""trial"",""time""
""fullscreenenter"",""5"",""23843""
","
","
","""event"",""trial"",""time""
""fullscreenenter"",""5"",""23843""
","
",882.274999996298,NA,49,NA,NA,3000,1,NA,NA,images/redplanet1.jpg,images/alien2,images/alien1,images/rocket1,images/alien1,images/t.png,2,real,false,1,rare,1,2020-06-24T19:50:13Z,sub97
two-step-fixation,200,882225,0.0-76.0-2.21,TRUE,FALSE,TRUE,TRUE,"""event"",""trial"",""time""
""fullscreenenter"",""5"",""23843""
","
","
","""event"",""trial"",""time""
""fullscreenenter"",""5"",""23843""
","
",NA,images/earth.jpg,NA,NA,NA,NA,NA,NA,NA,NA,NA,NA,NA,NA,NA,fixation,NA,NA,NA,NA,NA,NA,sub97
d3-animate-choice,201,884862,0.0-76.0-0.22,TRUE,FALSE,TRUE,TRUE,"""event"",""trial"",""time""
""fullscreenenter"",""5"",""23843""
","
","
","""event"",""trial"",""time""
""fullscreenenter"",""5"",""23843""
","
",628.3800000019837,NA,49,NA,NA,3000,1,NA,NA,images/earth.jpg,images/rocket2,images/rocket1,null,images/rocket1,NA,1,real,null,1,NA,NA,NA,sub97
d3-animate-choice,202,887445,0.0-76.0-1.22,TRUE,FALSE,TRUE,TRUE,"""event"",""trial"",""time""
""fullscreenenter"",""5"",""23843""
","
","
","""event"",""trial"",""time""
""fullscreenenter"",""5"",""23843""
","
",578.3650000012713,NA,49,NA,NA,3000,1,NA,NA,images/purpleplanet.jpg,images/alien4,images/alien3,images/rocket1,images/alien3,images/nothing.png,2,real,true,1,common,0,2020-06-24T19:50:19Z,sub97
two-step-fixation,203,888451,0.0-76.0-2.22,TRUE,FALSE,TRUE,TRUE,"""event"",""trial"",""time""
""fullscreenenter"",""5"",""23843""
","
","
","""event"",""trial"",""time""
""fullscreenenter"",""5"",""23843""
","
",NA,images/earth.jpg,NA,NA,NA,NA,NA,NA,NA,NA,NA,NA,NA,NA,NA,fixation,NA,NA,NA,NA,NA,NA,sub97
d3-animate-choice,204,890592,0.0-76.0-0.23,TRUE,FALSE,TRUE,TRUE,"""event"",""trial"",""time""
""fullscreenenter"",""5"",""23843""
","
","
","""event"",""trial"",""time""
""fullscreenenter"",""5"",""23843""
","
",137.03000000538304,NA,48,NA,NA,3000,1,NA,NA,images/earth.jpg,images/rocket2,images/rocket1,null,images/rocket2,NA,1,real,null,2,NA,NA,NA,sub97
d3-animate-choice,205,893127,0.0-76.0-1.23,TRUE,FALSE,TRUE,TRUE,"""event"",""trial"",""time""
""fullscreenenter"",""5"",""23843""
","
","
","""event"",""trial"",""time""
""fullscreenenter"",""5"",""23843""
","
",531.8850000039674,NA,49,NA,NA,3000,1,NA,NA,images/redplanet1.jpg,images/alien2,images/alien1,images/rocket2,images/alien1,images/nothing.png,2,real,true,1,common,0,2020-06-24T19:50:25Z,sub97
two-step-fixation,206,894132,0.0-76.0-2.23,TRUE,FALSE,TRUE,TRUE,"""event"",""trial"",""time""
""fullscreenenter"",""5"",""23843""
","
","
","""event"",""trial"",""time""
""fullscreenenter"",""5"",""23843""
","
",NA,images/earth.jpg,NA,NA,NA,NA,NA,NA,NA,NA,NA,NA,NA,NA,NA,fixation,NA,NA,NA,NA,NA,NA,sub97
d3-animate-choice,207,896890,0.0-76.0-0.24,TRUE,FALSE,TRUE,TRUE,"""event"",""trial"",""time""
""fullscreenenter"",""5"",""23843""
","
","
","""event"",""trial"",""time""
""fullscreenenter"",""5"",""23843""
","
",751.0400000028312,NA,48,NA,NA,3000,1,1959.7500000018626,48,images/earth.jpg,images/rocket2,images/rocket1,null,images/rocket2,NA,1,real,null,2,NA,NA,NA,sub97
d3-animate-choice,208,899284,0.0-76.0-1.24,TRUE,FALSE,TRUE,TRUE,"""event"",""trial"",""time""
""fullscreenenter"",""5"",""23843""
","
","
","""event"",""trial"",""time""
""fullscreenenter"",""5"",""23843""
","
",389.75500000384636,NA,48,NA,NA,3000,1,NA,NA,images/purpleplanet.jpg,images/alien4,images/alien3,images/rocket2,images/alien4,images/nothing.png,2,real,false,2,rare,0,2020-06-24T19:50:31Z,sub97
two-step-fixation,209,900289,0.0-76.0-2.24,TRUE,FALSE,TRUE,TRUE,"""event"",""trial"",""time""
""fullscreenenter"",""5"",""23843""
","
","
","""event"",""trial"",""time""
""fullscreenenter"",""5"",""23843""
","
",NA,images/earth.jpg,NA,NA,NA,NA,NA,NA,NA,NA,NA,NA,NA,NA,NA,fixation,NA,NA,NA,NA,NA,NA,sub97
d3-animate-choice,210,902835,0.0-76.0-0.25,TRUE,FALSE,TRUE,TRUE,"""event"",""trial"",""time""
""fullscreenenter"",""5"",""23843""
","
","
","""event"",""trial"",""time""
""fullscreenenter"",""5"",""23843""
","
",541.3049999988871,NA,49,NA,NA,3000,1,NA,NA,images/earth.jpg,images/rocket2,images/rocket1,null,images/rocket1,NA,1,real,null,1,NA,NA,NA,sub97
d3-animate-choice,211,906115,0.0-76.0-1.25,TRUE,FALSE,TRUE,TRUE,"""event"",""trial"",""time""
""fullscreenenter"",""5"",""23843""
","
","
","""event"",""trial"",""time""
""fullscreenenter"",""5"",""23843""
","
",1276.565000000177,NA,48,NA,NA,3000,1,NA,NA,images/redplanet1.jpg,images/alien2,images/alien1,images/rocket1,images/alien2,images/nothing.png,2,real,false,2,rare,0,2020-06-24T19:50:38Z,sub97
two-step-fixation,212,907119,0.0-76.0-2.25,TRUE,FALSE,TRUE,TRUE,"""event"",""trial"",""time""
""fullscreenenter"",""5"",""23843""
","
","
","""event"",""trial"",""time""
""fullscreenenter"",""5"",""23843""
","
",NA,images/earth.jpg,NA,NA,NA,NA,NA,NA,NA,NA,NA,NA,NA,NA,NA,fixation,NA,NA,NA,NA,NA,NA,sub97
d3-animate-choice,213,909312,0.0-76.0-0.26,TRUE,FALSE,TRUE,TRUE,"""event"",""trial"",""time""
""fullscreenenter"",""5"",""23843""
","
","
","""event"",""trial"",""time""
""fullscreenenter"",""5"",""23843""
","
",184.74499999871477,NA,49,NA,NA,3000,1,NA,NA,images/earth.jpg,images/rocket2,images/rocket1,null,images/rocket1,NA,1,real,null,1,NA,NA,NA,sub97
d3-animate-choice,214,911885,0.0-76.0-1.26,TRUE,FALSE,TRUE,TRUE,"""event"",""trial"",""time""
""fullscreenenter"",""5"",""23843""
","
","
","""event"",""trial"",""time""
""fullscreenenter"",""5"",""23843""
","
",567.7900000009686,NA,48,NA,NA,3000,1,NA,NA,images/purpleplanet.jpg,images/alien4,images/alien3,images/rocket1,images/alien4,images/nothing.png,2,real,true,2,common,0,2020-06-24T19:50:44Z,sub97
two-step-fixation,215,912889,0.0-76.0-2.26,TRUE,FALSE,TRUE,TRUE,"""event"",""trial"",""time""
""fullscreenenter"",""5"",""23843""
","
","
","""event"",""trial"",""time""
""fullscreenenter"",""5"",""23843""
","
",NA,images/earth.jpg,NA,NA,NA,NA,NA,NA,NA,NA,NA,NA,NA,NA,NA,fixation,NA,NA,NA,NA,NA,NA,sub97
d3-animate-choice,216,914914,0.0-76.0-0.27,TRUE,FALSE,TRUE,TRUE,"""event"",""trial"",""time""
""fullscreenenter"",""5"",""23843""
","
","
","""event"",""trial"",""time""
""fullscreenenter"",""5"",""23843""
","
",22.124999995925464,NA,49,NA,NA,3000,1,NA,NA,images/earth.jpg,images/rocket2,images/rocket1,null,images/rocket1,NA,1,real,null,1,NA,NA,NA,sub97
d3-animate-choice,217,917564,0.0-76.0-1.27,TRUE,FALSE,TRUE,TRUE,"""event"",""trial"",""time""
""fullscreenenter"",""5"",""23843""
","
","
","""event"",""trial"",""time""
""fullscreenenter"",""5"",""23843""
","
",643.5649999985471,NA,49,NA,NA,3000,1,NA,NA,images/purpleplanet.jpg,images/alien4,images/alien3,images/rocket1,images/alien3,images/t.png,2,real,true,1,common,1,2020-06-24T19:50:50Z,sub97
two-step-fixation,218,918570,0.0-76.0-2.27,TRUE,FALSE,TRUE,TRUE,"""event"",""trial"",""time""
""fullscreenenter"",""5"",""23843""
","
","
","""event"",""trial"",""time""
""fullscreenenter"",""5"",""23843""
","
",NA,images/earth.jpg,NA,NA,NA,NA,NA,NA,NA,NA,NA,NA,NA,NA,NA,fixation,NA,NA,NA,NA,NA,NA,sub97
d3-animate-choice,219,921205,0.0-76.0-0.28,TRUE,FALSE,TRUE,TRUE,"""event"",""trial"",""time""
""fullscreenenter"",""5"",""23843""
","
","
","""event"",""trial"",""time""
""fullscreenenter"",""5"",""23843""
","
",630.8100000023842,NA,49,NA,NA,3000,1,NA,NA,images/earth.jpg,images/rocket2,images/rocket1,null,images/rocket1,NA,1,real,null,1,NA,NA,NA,sub97
d3-animate-choice,220,925209,0.0-76.0-1.28,TRUE,FALSE,TRUE,TRUE,"""event"",""trial"",""time""
""fullscreenenter"",""5"",""23843""
","
","
","""event"",""trial"",""time""
""fullscreenenter"",""5"",""23843""
","
",2280.634999995469,NA,48,NA,NA,3000,1,2359.404999995604,49,images/redplanet1.jpg,images/alien2,images/alien1,images/rocket1,images/alien2,images/t.png,2,real,false,2,rare,1,2020-06-24T19:50:57Z,sub97
two-step-fixation,221,926214,0.0-76.0-2.28,TRUE,FALSE,TRUE,TRUE,"""event"",""trial"",""time""
""fullscreenenter"",""5"",""23843""
","
","
","""event"",""trial"",""time""
""fullscreenenter"",""5"",""23843""
","
",NA,images/earth.jpg,NA,NA,NA,NA,NA,NA,NA,NA,NA,NA,NA,NA,NA,fixation,NA,NA,NA,NA,NA,NA,sub97
d3-animate-choice,222,928937,0.0-76.0-0.29,TRUE,FALSE,TRUE,TRUE,"""event"",""trial"",""time""
""fullscreenenter"",""5"",""23843""
","
","
","""event"",""trial"",""time""
""fullscreenenter"",""5"",""23843""
","
",717.8199999979697,NA,49,NA,NA,3000,1,NA,NA,images/earth.jpg,images/rocket2,images/rocket1,null,images/rocket1,NA,1,real,null,1,NA,NA,NA,sub97
d3-animate-choice,223,931889,0.0-76.0-1.29,TRUE,FALSE,TRUE,TRUE,"""event"",""trial"",""time""
""fullscreenenter"",""5"",""23843""
","
","
","""event"",""trial"",""time""
""fullscreenenter"",""5"",""23843""
","
",947.6749999957392,NA,49,NA,NA,3000,1,NA,NA,images/purpleplanet.jpg,images/alien4,images/alien3,images/rocket1,images/alien3,images/t.png,2,real,true,1,common,1,2020-06-24T19:51:04Z,sub97
two-step-fixation,224,932893,0.0-76.0-2.29,TRUE,FALSE,TRUE,TRUE,"""event"",""trial"",""time""
""fullscreenenter"",""5"",""23843""
","
","
","""event"",""trial"",""time""
""fullscreenenter"",""5"",""23843""
","
",NA,images/earth.jpg,NA,NA,NA,NA,NA,NA,NA,NA,NA,NA,NA,NA,NA,fixation,NA,NA,NA,NA,NA,NA,sub97
d3-animate-choice,225,935456,0.0-76.0-0.30,TRUE,FALSE,TRUE,TRUE,"""event"",""trial"",""time""
""fullscreenenter"",""5"",""23843""
","
","
","""event"",""trial"",""time""
""fullscreenenter"",""5"",""23843""
","
",556.4799999992829,NA,49,NA,NA,3000,1,NA,NA,images/earth.jpg,images/rocket2,images/rocket1,null,images/rocket1,NA,1,real,null,1,NA,NA,NA,sub97
d3-animate-choice,226,937862,0.0-76.0-1.30,TRUE,FALSE,TRUE,TRUE,"""event"",""trial"",""time""
""fullscreenenter"",""5"",""23843""
","
","
","""event"",""trial"",""time""
""fullscreenenter"",""5"",""23843""
","
",400.4950000017416,NA,48,NA,NA,3000,1,NA,NA,images/redplanet1.jpg,images/alien2,images/alien1,images/rocket1,images/alien2,images/nothing.png,2,real,false,2,rare,0,2020-06-24T19:51:10Z,sub97
two-step-fixation,227,938868,0.0-76.0-2.30,TRUE,FALSE,TRUE,TRUE,"""event"",""trial"",""time""
""fullscreenenter"",""5"",""23843""
","
","
","""event"",""trial"",""time""
""fullscreenenter"",""5"",""23843""
","
",NA,images/earth.jpg,NA,NA,NA,NA,NA,NA,NA,NA,NA,NA,NA,NA,NA,fixation,NA,NA,NA,NA,NA,NA,sub97
d3-animate-choice,228,942000,0.0-76.0-0.31,TRUE,FALSE,TRUE,TRUE,"""event"",""trial"",""time""
""fullscreenenter"",""5"",""23843""
","
","
","""event"",""trial"",""time""
""fullscreenenter"",""5"",""23843""
","
",1125.3649999999907,NA,49,NA,NA,3000,1,NA,NA,images/earth.jpg,images/rocket2,images/rocket1,null,images/rocket1,NA,1,real,null,1,NA,NA,NA,sub97
d3-animate-choice,229,944603,0.0-76.0-1.31,TRUE,FALSE,TRUE,TRUE,"""event"",""trial"",""time""
""fullscreenenter"",""5"",""23843""
","
","
","""event"",""trial"",""time""
""fullscreenenter"",""5"",""23843""
","
",598.7000000022817,NA,49,NA,NA,3000,1,NA,NA,images/purpleplanet.jpg,images/alien4,images/alien3,images/rocket1,images/alien3,images/nothing.png,2,real,true,1,common,0,2020-06-24T19:51:17Z,sub97
two-step-fixation,230,945611,0.0-76.0-2.31,TRUE,FALSE,TRUE,TRUE,"""event"",""trial"",""time""
""fullscreenenter"",""5"",""23843""
","
","
","""event"",""trial"",""time""
""fullscreenenter"",""5"",""23843""
","
",NA,images/earth.jpg,NA,NA,NA,NA,NA,NA,NA,NA,NA,NA,NA,NA,NA,fixation,NA,NA,NA,NA,NA,NA,sub97
d3-animate-choice,231,947770,0.0-76.0-0.32,TRUE,FALSE,TRUE,TRUE,"""event"",""trial"",""time""
""fullscreenenter"",""5"",""23843""
","
","
","""event"",""trial"",""time""
""fullscreenenter"",""5"",""23843""
","
",152.42500000016298,NA,48,NA,NA,3000,1,1872.239999996964,48,images/earth.jpg,images/rocket2,images/rocket1,null,images/rocket2,NA,1,real,null,2,NA,NA,NA,sub97
d3-animate-choice,232,950791,0.0-76.0-1.32,TRUE,FALSE,TRUE,TRUE,"""event"",""trial"",""time""
""fullscreenenter"",""5"",""23843""
","
","
","""event"",""trial"",""time""
""fullscreenenter"",""5"",""23843""
","
",1016.8499999999767,NA,48,NA,NA,3000,1,NA,NA,images/purpleplanet.jpg,images/alien4,images/alien3,images/rocket2,images/alien4,images/t.png,2,real,false,2,rare,1,2020-06-24T19:51:23Z,sub97
two-step-fixation,233,951798,0.0-76.0-2.32,TRUE,FALSE,TRUE,TRUE,"""event"",""trial"",""time""
""fullscreenenter"",""5"",""23843""
","
","
","""event"",""trial"",""time""
""fullscreenenter"",""5"",""23843""
","
",NA,images/earth.jpg,NA,NA,NA,NA,NA,NA,NA,NA,NA,NA,NA,NA,NA,fixation,NA,NA,NA,NA,NA,NA,sub97
d3-animate-choice,234,953962,0.0-76.0-0.33,TRUE,FALSE,TRUE,TRUE,"""event"",""trial"",""time""
""fullscreenenter"",""5"",""23843""
","
","
","""event"",""trial"",""time""
""fullscreenenter"",""5"",""23843""
","
",157.8349999981001,NA,48,NA,NA,3000,1,NA,NA,images/earth.jpg,images/rocket2,images/rocket1,null,images/rocket2,NA,1,real,null,2,NA,NA,NA,sub97
d3-animate-choice,235,956433,0.0-76.0-1.33,TRUE,FALSE,TRUE,TRUE,"""event"",""trial"",""time""
""fullscreenenter"",""5"",""23843""
","
","
","""event"",""trial"",""time""
""fullscreenenter"",""5"",""23843""
","
",467.304999998305,NA,48,NA,NA,3000,1,NA,NA,images/redplanet1.jpg,images/alien2,images/alien1,images/rocket2,images/alien2,images/t.png,2,real,true,2,common,1,2020-06-24T19:51:28Z,sub97
two-step-fixation,236,957438,0.0-76.0-2.33,TRUE,FALSE,TRUE,TRUE,"""event"",""trial"",""time""
""fullscreenenter"",""5"",""23843""
","
","
","""event"",""trial"",""time""
""fullscreenenter"",""5"",""23843""
","
",NA,images/earth.jpg,NA,NA,NA,NA,NA,NA,NA,NA,NA,NA,NA,NA,NA,fixation,NA,NA,NA,NA,NA,NA,sub97
d3-animate-choice,237,959772,0.0-76.0-0.34,TRUE,FALSE,TRUE,TRUE,"""event"",""trial"",""time""
""fullscreenenter"",""5"",""23843""
","
","
","""event"",""trial"",""time""
""fullscreenenter"",""5"",""23843""
","
",326.659999998752,NA,48,NA,NA,3000,1,"1624.6800000007497,1955.7100000019418,2249.2550000024494",484848,images/earth.jpg,images/rocket2,images/rocket1,null,images/rocket2,NA,1,real,null,2,NA,NA,NA,sub97
d3-animate-choice,238,961960,0.0-76.0-1.34,TRUE,FALSE,TRUE,TRUE,"""event"",""trial"",""time""
""fullscreenenter"",""5"",""23843""
","
","
","""event"",""trial"",""time""
""fullscreenenter"",""5"",""23843""
","
",183.7050000031013,NA,48,NA,NA,3000,1,470.0200000007171,48,images/redplanet1.jpg,images/alien2,images/alien1,images/rocket2,images/alien2,images/nothing.png,2,real,true,2,common,0,2020-06-24T19:51:34Z,sub97
two-step-fixation,239,962966,0.0-76.0-2.34,TRUE,FALSE,TRUE,TRUE,"""event"",""trial"",""time""
""fullscreenenter"",""5"",""23843""
","
","
","""event"",""trial"",""time""
""fullscreenenter"",""5"",""23843""
","
",NA,images/earth.jpg,NA,NA,NA,NA,NA,NA,NA,NA,NA,NA,NA,NA,NA,fixation,NA,NA,NA,NA,NA,NA,sub97
d3-animate-choice,240,965364,0.0-76.0-0.35,TRUE,FALSE,TRUE,TRUE,"""event"",""trial"",""time""
""fullscreenenter"",""5"",""23843""
","
","
","""event"",""trial"",""time""
""fullscreenenter"",""5"",""23843""
","
",393.5649999984307,NA,48,NA,NA,3000,1,NA,NA,images/earth.jpg,images/rocket2,images/rocket1,null,images/rocket2,NA,1,real,null,2,NA,NA,NA,sub97
d3-animate-choice,241,968570,0.0-76.0-1.35,TRUE,FALSE,TRUE,TRUE,"""event"",""trial"",""time""
""fullscreenenter"",""5"",""23843""
","
","
","""event"",""trial"",""time""
""fullscreenenter"",""5"",""23843""
","
",1200.7400000002235,NA,49,NA,NA,3000,1,NA,NA,images/redplanet1.jpg,images/alien2,images/alien1,images/rocket2,images/alien1,images/t.png,2,real,true,1,common,1,2020-06-24T19:51:41Z,sub97
two-step-fixation,242,969579,0.0-76.0-2.35,TRUE,FALSE,TRUE,TRUE,"""event"",""trial"",""time""
""fullscreenenter"",""5"",""23843""
","
","
","""event"",""trial"",""time""
""fullscreenenter"",""5"",""23843""
","
",NA,images/earth.jpg,NA,NA,NA,NA,NA,NA,NA,NA,NA,NA,NA,NA,NA,fixation,NA,NA,NA,NA,NA,NA,sub97
d3-animate-choice,243,971810,0.0-76.0-0.36,TRUE,FALSE,TRUE,TRUE,"""event"",""trial"",""time""
""fullscreenenter"",""5"",""23843""
","
","
","""event"",""trial"",""time""
""fullscreenenter"",""5"",""23843""
","
",225.33000000123866,NA,48,NA,NA,3000,1,NA,NA,images/earth.jpg,images/rocket2,images/rocket1,null,images/rocket2,NA,1,real,null,2,NA,NA,NA,sub97
d3-animate-choice,244,974404,0.0-76.0-1.36,TRUE,FALSE,TRUE,TRUE,"""event"",""trial"",""time""
""fullscreenenter"",""5"",""23843""
","
","
","""event"",""trial"",""time""
""fullscreenenter"",""5"",""23843""
","
",589.8249999955297,NA,49,NA,NA,3000,1,NA,NA,images/redplanet1.jpg,images/alien2,images/alien1,images/rocket2,images/alien1,images/t.png,2,real,true,1,common,1,2020-06-24T19:51:46Z,sub97
two-step-fixation,245,975408,0.0-76.0-2.36,TRUE,FALSE,TRUE,TRUE,"""event"",""trial"",""time""
""fullscreenenter"",""5"",""23843""
","
","
","""event"",""trial"",""time""
""fullscreenenter"",""5"",""23843""
","
",NA,images/earth.jpg,NA,NA,NA,NA,NA,NA,NA,NA,NA,NA,NA,NA,NA,fixation,NA,NA,NA,NA,NA,NA,sub97
d3-animate-choice,246,977896,0.0-76.0-0.37,TRUE,FALSE,TRUE,TRUE,"""event"",""trial"",""time""
""fullscreenenter"",""5"",""23843""
","
","
","""event"",""trial"",""time""
""fullscreenenter"",""5"",""23843""
","
",483.29000000376254,NA,48,NA,NA,3000,1,NA,NA,images/earth.jpg,images/rocket2,images/rocket1,null,images/rocket2,NA,1,real,null,2,NA,NA,NA,sub97
d3-animate-choice,247,980649,0.0-76.0-1.37,TRUE,FALSE,TRUE,TRUE,"""event"",""trial"",""time""
""fullscreenenter"",""5"",""23843""
","
","
","""event"",""trial"",""time""
""fullscreenenter"",""5"",""23843""
","
",748.489999998128,NA,49,NA,NA,3000,1,NA,NA,images/redplanet1.jpg,images/alien2,images/alien1,images/rocket2,images/alien1,images/t.png,2,real,true,1,common,1,2020-06-24T19:51:53Z,sub97
two-step-fixation,248,981653,0.0-76.0-2.37,TRUE,FALSE,TRUE,TRUE,"""event"",""trial"",""time""
""fullscreenenter"",""5"",""23843""
","
","
","""event"",""trial"",""time""
""fullscreenenter"",""5"",""23843""
","
",NA,images/earth.jpg,NA,NA,NA,NA,NA,NA,NA,NA,NA,NA,NA,NA,NA,fixation,NA,NA,NA,NA,NA,NA,sub97
d3-animate-choice,249,984189,0.0-76.0-0.38,TRUE,FALSE,TRUE,TRUE,"""event"",""trial"",""time""
""fullscreenenter"",""5"",""23843""
","
","
","""event"",""trial"",""time""
""fullscreenenter"",""5"",""23843""
","
",531.0299999982817,NA,48,NA,NA,3000,1,NA,NA,images/earth.jpg,images/rocket2,images/rocket1,null,images/rocket2,NA,1,real,null,2,NA,NA,NA,sub97
d3-animate-choice,250,988123,0.0-76.0-1.38,TRUE,FALSE,TRUE,TRUE,"""event"",""trial"",""time""
""fullscreenenter"",""5"",""23843""
","
","
","""event"",""trial"",""time""
""fullscreenenter"",""5"",""23843""
","
",1929.7099999967031,NA,49,NA,NA,3000,1,NA,NA,images/purpleplanet.jpg,images/alien4,images/alien3,images/rocket2,images/alien3,images/t.png,2,real,false,1,rare,1,2020-06-24T19:52:00Z,sub97
two-step-fixation,251,989129,0.0-76.0-2.38,TRUE,FALSE,TRUE,TRUE,"""event"",""trial"",""time""
""fullscreenenter"",""5"",""23843""
","
","
","""event"",""trial"",""time""
""fullscreenenter"",""5"",""23843""
","
",NA,images/earth.jpg,NA,NA,NA,NA,NA,NA,NA,NA,NA,NA,NA,NA,NA,fixation,NA,NA,NA,NA,NA,NA,sub97
d3-animate-choice,252,992010,0.0-76.0-0.39,TRUE,FALSE,TRUE,TRUE,"""event"",""trial"",""time""
""fullscreenenter"",""5"",""23843""
","
","
","""event"",""trial"",""time""
""fullscreenenter"",""5"",""23843""
","
",877.075000004028,NA,49,NA,NA,3000,1,NA,NA,images/earth.jpg,images/rocket2,images/rocket1,null,images/rocket1,NA,1,real,null,1,NA,NA,NA,sub97
d3-animate-choice,253,995086,0.0-76.0-1.39,TRUE,FALSE,TRUE,TRUE,"""event"",""trial"",""time""
""fullscreenenter"",""5"",""23843""
","
","
","""event"",""trial"",""time""
""fullscreenenter"",""5"",""23843""
","
",1068.5250000023516,NA,49,NA,NA,3000,1,NA,NA,images/redplanet1.jpg,images/alien2,images/alien1,images/rocket1,images/alien1,images/t.png,2,real,false,1,rare,1,2020-06-24T19:52:07Z,sub97
two-step-fixation,254,996092,0.0-76.0-2.39,TRUE,FALSE,TRUE,TRUE,"""event"",""trial"",""time""
""fullscreenenter"",""5"",""23843""
","
","
","""event"",""trial"",""time""
""fullscreenenter"",""5"",""23843""
","
",NA,images/earth.jpg,NA,NA,NA,NA,NA,NA,NA,NA,NA,NA,NA,NA,NA,fixation,NA,NA,NA,NA,NA,NA,sub97
d3-animate-choice,255,998918,0.0-76.0-0.40,TRUE,FALSE,TRUE,TRUE,"""event"",""trial"",""time""
""fullscreenenter"",""5"",""23843""
","
","
","""event"",""trial"",""time""
""fullscreenenter"",""5"",""23843""
","
",821.89500000095,NA,49,NA,NA,3000,1,NA,NA,images/earth.jpg,images/rocket2,images/rocket1,null,images/rocket1,NA,1,real,null,1,NA,NA,NA,sub97
d3-animate-choice,256,1001329,0.0-76.0-1.40,TRUE,FALSE,TRUE,TRUE,"""event"",""trial"",""time""
""fullscreenenter"",""5"",""23843""
","
","
","""event"",""trial"",""time""
""fullscreenenter"",""5"",""23843""
","
",406.02499999664724,NA,49,NA,NA,3000,1,NA,NA,images/redplanet1.jpg,images/alien2,images/alien1,images/rocket1,images/alien1,images/t.png,2,real,false,1,rare,1,2020-06-24T19:52:13Z,sub97
two-step-fixation,257,1002333,0.0-76.0-2.40,TRUE,FALSE,TRUE,TRUE,"""event"",""trial"",""time""
""fullscreenenter"",""5"",""23843""
","
","
","""event"",""trial"",""time""
""fullscreenenter"",""5"",""23843""
","
",NA,images/earth.jpg,NA,NA,NA,NA,NA,NA,NA,NA,NA,NA,NA,NA,NA,fixation,NA,NA,NA,NA,NA,NA,sub97
d3-animate-choice,258,1004819,0.0-76.0-0.41,TRUE,FALSE,TRUE,TRUE,"""event"",""trial"",""time""
""fullscreenenter"",""5"",""23843""
","
","
","""event"",""trial"",""time""
""fullscreenenter"",""5"",""23843""
","
",482.4000000008382,NA,49,NA,NA,3000,1,NA,NA,images/earth.jpg,images/rocket2,images/rocket1,null,images/rocket1,NA,1,real,null,1,NA,NA,NA,sub97
d3-animate-choice,259,1007326,0.0-76.0-1.41,TRUE,FALSE,TRUE,TRUE,"""event"",""trial"",""time""
""fullscreenenter"",""5"",""23843""
","
","
","""event"",""trial"",""time""
""fullscreenenter"",""5"",""23843""
","
",498.1000000042841,NA,49,NA,NA,3000,1,NA,NA,images/purpleplanet.jpg,images/alien4,images/alien3,images/rocket1,images/alien3,images/nothing.png,2,real,true,1,common,0,2020-06-24T19:52:19Z,sub97
two-step-fixation,260,1008330,0.0-76.0-2.41,TRUE,FALSE,TRUE,TRUE,"""event"",""trial"",""time""
""fullscreenenter"",""5"",""23843""
","
","
","""event"",""trial"",""time""
""fullscreenenter"",""5"",""23843""
","
",NA,images/earth.jpg,NA,NA,NA,NA,NA,NA,NA,NA,NA,NA,NA,NA,NA,fixation,NA,NA,NA,NA,NA,NA,sub97
d3-animate-choice,261,1010742,0.0-76.0-0.42,TRUE,FALSE,TRUE,TRUE,"""event"",""trial"",""time""
""fullscreenenter"",""5"",""23843""
","
","
","""event"",""trial"",""time""
""fullscreenenter"",""5"",""23843""
","
",408.3900000042049,NA,48,NA,NA,3000,1,NA,NA,images/earth.jpg,images/rocket2,images/rocket1,null,images/rocket2,NA,1,real,null,2,NA,NA,NA,sub97
d3-animate-choice,262,1013763,0.0-76.0-1.42,TRUE,FALSE,TRUE,TRUE,"""event"",""trial"",""time""
""fullscreenenter"",""5"",""23843""
","
","
","""event"",""trial"",""time""
""fullscreenenter"",""5"",""23843""
","
",1016.0200000028126,NA,49,NA,NA,3000,1,NA,NA,images/redplanet1.jpg,images/alien2,images/alien1,images/rocket2,images/alien1,images/t.png,2,real,true,1,common,1,2020-06-24T19:52:26Z,sub97
two-step-fixation,263,1014767,0.0-76.0-2.42,TRUE,FALSE,TRUE,TRUE,"""event"",""trial"",""time""
""fullscreenenter"",""5"",""23843""
","
","
","""event"",""trial"",""time""
""fullscreenenter"",""5"",""23843""
","
",NA,images/earth.jpg,NA,NA,NA,NA,NA,NA,NA,NA,NA,NA,NA,NA,NA,fixation,NA,NA,NA,NA,NA,NA,sub97
d3-animate-choice,264,1017210,0.0-76.0-0.43,TRUE,FALSE,TRUE,TRUE,"""event"",""trial"",""time""
""fullscreenenter"",""5"",""23843""
","
","
","""event"",""trial"",""time""
""fullscreenenter"",""5"",""23843""
","
",439.6649999979418,NA,48,NA,NA,3000,1,NA,NA,images/earth.jpg,images/rocket2,images/rocket1,null,images/rocket2,NA,1,real,null,2,NA,NA,NA,sub97
d3-animate-choice,265,1019571,0.0-76.0-1.43,TRUE,FALSE,TRUE,TRUE,"""event"",""trial"",""time""
""fullscreenenter"",""5"",""23843""
","
","
","""event"",""trial"",""time""
""fullscreenenter"",""5"",""23843""
","
",351.7850000062026,NA,49,NA,NA,3000,1,NA,NA,images/purpleplanet.jpg,images/alien4,images/alien3,images/rocket2,images/alien3,images/t.png,2,real,false,1,rare,1,2020-06-24T19:52:32Z,sub97
two-step-fixation,266,1020578,0.0-76.0-2.43,TRUE,FALSE,TRUE,TRUE,"""event"",""trial"",""time""
""fullscreenenter"",""5"",""23843""
","
","
","""event"",""trial"",""time""
""fullscreenenter"",""5"",""23843""
","
",NA,images/earth.jpg,NA,NA,NA,NA,NA,NA,NA,NA,NA,NA,NA,NA,NA,fixation,NA,NA,NA,NA,NA,NA,sub97
d3-animate-choice,267,1023229,0.0-76.0-0.44,TRUE,FALSE,TRUE,TRUE,"""event"",""trial"",""time""
""fullscreenenter"",""5"",""23843""
","
","
","""event"",""trial"",""time""
""fullscreenenter"",""5"",""23843""
","
",645.1649999944493,NA,48,NA,NA,3000,1,2556.9299999987707,49,images/earth.jpg,images/rocket2,images/rocket1,null,images/rocket2,NA,1,real,null,2,NA,NA,NA,sub97
d3-animate-choice,268,1025769,0.0-76.0-1.44,TRUE,FALSE,TRUE,TRUE,"""event"",""trial"",""time""
""fullscreenenter"",""5"",""23843""
","
","
","""event"",""trial"",""time""
""fullscreenenter"",""5"",""23843""
","
",533.8649999976624,NA,49,NA,NA,3000,1,NA,NA,images/redplanet1.jpg,images/alien2,images/alien1,images/rocket2,images/alien1,images/t.png,2,real,true,1,common,1,2020-06-24T19:52:38Z,sub97
two-step-fixation,269,1026773,0.0-76.0-2.44,TRUE,FALSE,TRUE,TRUE,"""event"",""trial"",""time""
""fullscreenenter"",""5"",""23843""
","
","
","""event"",""trial"",""time""
""fullscreenenter"",""5"",""23843""
","
",NA,images/earth.jpg,NA,NA,NA,NA,NA,NA,NA,NA,NA,NA,NA,NA,NA,fixation,NA,NA,NA,NA,NA,NA,sub97
d3-animate-choice,270,1029155,0.0-76.0-0.45,TRUE,FALSE,TRUE,TRUE,"""event"",""trial"",""time""
""fullscreenenter"",""5"",""23843""
","
","
","""event"",""trial"",""time""
""fullscreenenter"",""5"",""23843""
","
",376.15500000538304,NA,48,NA,NA,3000,1,"995.0300000056159,2058.3250000055414",4949,images/earth.jpg,images/rocket2,images/rocket1,null,images/rocket2,NA,1,real,null,2,NA,NA,NA,sub97
d3-animate-choice,271,1031363,0.0-76.0-1.45,TRUE,FALSE,TRUE,TRUE,"""event"",""trial"",""time""
""fullscreenenter"",""5"",""23843""
","
","
","""event"",""trial"",""time""
""fullscreenenter"",""5"",""23843""
","
",204.60499999893364,NA,49,NA,NA,3000,1,NA,NA,images/purpleplanet.jpg,images/alien4,images/alien3,images/rocket2,images/alien3,images/nothing.png,2,real,false,1,rare,0,2020-06-24T19:52:43Z,sub97
two-step-fixation,272,1032369,0.0-76.0-2.45,TRUE,FALSE,TRUE,TRUE,"""event"",""trial"",""time""
""fullscreenenter"",""5"",""23843""
","
","
","""event"",""trial"",""time""
""fullscreenenter"",""5"",""23843""
","
",NA,images/earth.jpg,NA,NA,NA,NA,NA,NA,NA,NA,NA,NA,NA,NA,NA,fixation,NA,NA,NA,NA,NA,NA,sub97
d3-animate-choice,273,1034986,0.0-76.0-0.46,TRUE,FALSE,TRUE,TRUE,"""event"",""trial"",""time""
""fullscreenenter"",""5"",""23843""
","
","
","""event"",""trial"",""time""
""fullscreenenter"",""5"",""23843""
","
",607.3449999967124,NA,48,NA,NA,3000,1,NA,NA,images/earth.jpg,images/rocket2,images/rocket1,null,images/rocket2,NA,1,real,null,2,NA,NA,NA,sub97
d3-animate-choice,274,1037625,0.0-76.0-1.46,TRUE,FALSE,TRUE,TRUE,"""event"",""trial"",""time""
""fullscreenenter"",""5"",""23843""
","
","
","""event"",""trial"",""time""
""fullscreenenter"",""5"",""23843""
","
",631.8400000019465,NA,48,NA,NA,3000,1,NA,NA,images/purpleplanet.jpg,images/alien4,images/alien3,images/rocket2,images/alien4,images/nothing.png,2,real,false,2,rare,0,2020-06-24T19:52:50Z,sub97
two-step-fixation,275,1038628,0.0-76.0-2.46,TRUE,FALSE,TRUE,TRUE,"""event"",""trial"",""time""
""fullscreenenter"",""5"",""23843""
","
","
","""event"",""trial"",""time""
""fullscreenenter"",""5"",""23843""
","
",NA,images/earth.jpg,NA,NA,NA,NA,NA,NA,NA,NA,NA,NA,NA,NA,NA,fixation,NA,NA,NA,NA,NA,NA,sub97
d3-animate-choice,276,1041048,0.0-76.0-0.47,TRUE,FALSE,TRUE,TRUE,"""event"",""trial"",""time""
""fullscreenenter"",""5"",""23843""
","
","
","""event"",""trial"",""time""
""fullscreenenter"",""5"",""23843""
","
",414.00000000430737,NA,48,NA,NA,3000,1,NA,NA,images/earth.jpg,images/rocket2,images/rocket1,null,images/rocket2,NA,1,real,null,2,NA,NA,NA,sub97
d3-animate-choice,277,1043666,0.0-76.0-1.47,TRUE,FALSE,TRUE,TRUE,"""event"",""trial"",""time""
""fullscreenenter"",""5"",""23843""
","
","
","""event"",""trial"",""time""
""fullscreenenter"",""5"",""23843""
","
",611.7950000041164,NA,49,NA,NA,3000,1,NA,NA,images/redplanet1.jpg,images/alien2,images/alien1,images/rocket2,images/alien1,images/t.png,2,real,true,1,common,1,2020-06-24T19:52:56Z,sub97
two-step-fixation,278,1044670,0.0-76.0-2.47,TRUE,FALSE,TRUE,TRUE,"""event"",""trial"",""time""
""fullscreenenter"",""5"",""23843""
","
","
","""event"",""trial"",""time""
""fullscreenenter"",""5"",""23843""
","
",NA,images/earth.jpg,NA,NA,NA,NA,NA,NA,NA,NA,NA,NA,NA,NA,NA,fixation,NA,NA,NA,NA,NA,NA,sub97
d3-animate-choice,279,1046699,0.0-76.0-0.48,TRUE,FALSE,TRUE,TRUE,"""event"",""trial"",""time""
""fullscreenenter"",""5"",""23843""
","
","
","""event"",""trial"",""time""
""fullscreenenter"",""5"",""23843""
","
",24.055000001564622,NA,48,NA,NA,3000,1,NA,NA,images/earth.jpg,images/rocket2,images/rocket1,null,images/rocket2,NA,1,real,null,2,NA,NA,NA,sub97
d3-animate-choice,280,1049183,0.0-76.0-1.48,TRUE,FALSE,TRUE,TRUE,"""event"",""trial"",""time""
""fullscreenenter"",""5"",""23843""
","
","
","""event"",""trial"",""time""
""fullscreenenter"",""5"",""23843""
","
",479.1800000022631,NA,49,NA,NA,3000,1,NA,NA,images/purpleplanet.jpg,images/alien4,images/alien3,images/rocket2,images/alien3,images/nothing.png,2,real,false,1,rare,0,2020-06-24T19:53:01Z,sub97
two-step-fixation,281,1050187,0.0-76.0-2.48,TRUE,FALSE,TRUE,TRUE,"""event"",""trial"",""time""
""fullscreenenter"",""5"",""23843""
","
","
","""event"",""trial"",""time""
""fullscreenenter"",""5"",""23843""
","
",NA,images/earth.jpg,NA,NA,NA,NA,NA,NA,NA,NA,NA,NA,NA,NA,NA,fixation,NA,NA,NA,NA,NA,NA,sub97
d3-animate-choice,282,1052497,0.0-76.0-0.49,TRUE,FALSE,TRUE,TRUE,"""event"",""trial"",""time""
""fullscreenenter"",""5"",""23843""
","
","
","""event"",""trial"",""time""
""fullscreenenter"",""5"",""23843""
","
",305.09000000171363,NA,48,NA,NA,3000,1,NA,NA,images/earth.jpg,images/rocket2,images/rocket1,null,images/rocket2,NA,1,real,null,2,NA,NA,NA,sub97
d3-animate-choice,283,1055241,0.0-76.0-1.49,TRUE,FALSE,TRUE,TRUE,"""event"",""trial"",""time""
""fullscreenenter"",""5"",""23843""
","
","
","""event"",""trial"",""time""
""fullscreenenter"",""5"",""23843""
","
",740.6399999964051,NA,49,NA,NA,3000,1,NA,NA,images/redplanet1.jpg,images/alien2,images/alien1,images/rocket2,images/alien1,images/t.png,2,real,true,1,common,1,2020-06-24T19:53:07Z,sub97
two-step-fixation,284,1056246,0.0-76.0-2.49,TRUE,FALSE,TRUE,TRUE,"""event"",""trial"",""time""
""fullscreenenter"",""5"",""23843""
","
","
","""event"",""trial"",""time""
""fullscreenenter"",""5"",""23843""
","
