trial_type,trial_index,time_elapsed,internal_node_id,rocket_sides,red_planet_first_rocket,red_display_order,purple_display_order,interactions,blur_events,focus_events,fullscreenenter_events,fullscreenexit_events,rt,stimulus,key_press,button_pressed,success,duration,valid_pressed,rts,keys,planet_text,right_text,left_text,center_text,chosen_text,reward_text,trial_stage,practice_trial,transition_type,choice,transition,reward,timestamp,subject_id
pavlovia,0,7,0.0-0.0,TRUE,TRUE,TRUE,TRUE,"
","
","
","
","
",NA,NA,NA,NA,NA,NA,NA,NA,NA,NA,NA,NA,NA,NA,NA,NA,NA,NA,NA,NA,NA,NA,sub80
html-keyboard-response,1,2066,0.0-1.0,TRUE,TRUE,TRUE,TRUE,"
","
","
","
","
",2057.6700000000274,Welcome! Press the space bar to begin.,32,NA,NA,NA,NA,NA,NA,NA,NA,NA,NA,NA,NA,NA,NA,NA,NA,NA,NA,NA,sub80
audio-keyboard-response,2,5247,0.0-2.0,TRUE,TRUE,TRUE,TRUE,"
","
","
","
","
",3146,audio/beep_loop.wav,32,NA,NA,NA,NA,NA,NA,NA,NA,NA,NA,NA,NA,NA,NA,NA,NA,NA,NA,NA,sub80
audio-button-response,3,6769,0.0-3.0,TRUE,TRUE,TRUE,TRUE,"
","
","
","
","
",NaN,audio/fish.mp3,NA,1,NA,NA,NA,NA,NA,NA,NA,NA,NA,NA,NA,NA,NA,NA,NA,NA,NA,NA,sub80
audio-button-response,4,9155,0.0-4.0,TRUE,TRUE,TRUE,TRUE,"""event"",""trial"",""time""
""fullscreenenter"",""5"",""12304""
","
","
","""event"",""trial"",""time""
""fullscreenenter"",""5"",""12304""
","
",NaN,audio/tiger.mp3,NA,4,NA,NA,NA,NA,NA,NA,NA,NA,NA,NA,NA,NA,NA,NA,NA,NA,NA,NA,sub80
fullscreen,5,13209,0.0-5.0,TRUE,TRUE,TRUE,TRUE,"""event"",""trial"",""time""
""fullscreenenter"",""5"",""12304""
","
","
","""event"",""trial"",""time""
""fullscreenenter"",""5"",""12304""
","
",NA,NA,NA,NA,TRUE,NA,NA,NA,NA,NA,NA,NA,NA,NA,NA,NA,NA,NA,NA,NA,NA,NA,sub80
d3-instructions,6,30657,0.0-6.0,TRUE,TRUE,TRUE,TRUE,"""event"",""trial"",""time""
""fullscreenenter"",""5"",""12304""
","
","
","""event"",""trial"",""time""
""fullscreenenter"",""5"",""12304""
","
",NA,NA,NA,NA,NA,NA,NA,NA,NA,NA,NA,NA,NA,NA,NA,NA,NA,NA,NA,NA,NA,NA,sub80
d3-instructions,7,39399,0.0-7.0,TRUE,TRUE,TRUE,TRUE,"""event"",""trial"",""time""
""fullscreenenter"",""5"",""12304""
","
","
","""event"",""trial"",""time""
""fullscreenenter"",""5"",""12304""
","
",NA,NA,NA,NA,NA,NA,NA,NA,NA,NA,NA,NA,NA,NA,NA,NA,NA,NA,NA,NA,NA,NA,sub80
d3-instructions,8,46221,0.0-8.0,TRUE,TRUE,TRUE,TRUE,"""event"",""trial"",""time""
""fullscreenenter"",""5"",""12304""
","
","
","""event"",""trial"",""time""
""fullscreenenter"",""5"",""12304""
","
",NA,NA,NA,NA,NA,NA,NA,NA,NA,NA,NA,NA,NA,NA,NA,NA,NA,NA,NA,NA,NA,NA,sub80
d3-instructions,9,57271,0.0-9.0,TRUE,TRUE,TRUE,TRUE,"""event"",""trial"",""time""
""fullscreenenter"",""5"",""12304""
","
","
","""event"",""trial"",""time""
""fullscreenenter"",""5"",""12304""
","
",NA,NA,NA,NA,NA,NA,NA,NA,NA,NA,NA,NA,NA,NA,NA,NA,NA,NA,NA,NA,NA,NA,sub80
d3-instructions,10,79389,0.0-10.0,TRUE,TRUE,TRUE,TRUE,"""event"",""trial"",""time""
""fullscreenenter"",""5"",""12304""
","
","
","""event"",""trial"",""time""
""fullscreenenter"",""5"",""12304""
","
",NA,NA,NA,NA,NA,NA,NA,NA,NA,NA,NA,NA,NA,NA,NA,NA,NA,NA,NA,NA,NA,NA,sub80
d3-animate-choice,11,81586,0.0-11.0,TRUE,TRUE,TRUE,TRUE,"""event"",""trial"",""time""
""fullscreenenter"",""5"",""12304""
","
","
","""event"",""trial"",""time""
""fullscreenenter"",""5"",""12304""
","
",179.06500000004598,NA,48,NA,NA,3000,1,"375.74499999993714,570.7649999999412,775.5799999999872,975.7399999999761,1165.714999999982",4948494849,images/tutgreenplanet.jpg,images/tutalien1,images/tutalien2,null,images/tutalien1,NA,NA,practice,null,NA,NA,NA,NA,sub80
d3-animate-choice,12,84187,0.0-12.0,TRUE,TRUE,TRUE,TRUE,"""event"",""trial"",""time""
""fullscreenenter"",""5"",""12304""
","
","
","""event"",""trial"",""time""
""fullscreenenter"",""5"",""12304""
","
",592.2999999999156,NA,48,NA,NA,3000,1,NA,NA,images/tutgreenplanet.jpg,images/tutalien1,images/tutalien2,null,images/tutalien1,NA,NA,practice,null,NA,NA,NA,NA,sub80
d3-animate-choice,13,86564,0.0-13.0,TRUE,TRUE,TRUE,TRUE,"""event"",""trial"",""time""
""fullscreenenter"",""5"",""12304""
","
","
","""event"",""trial"",""time""
""fullscreenenter"",""5"",""12304""
","
",368.454999999929,NA,49,NA,NA,3000,1,NA,NA,images/tutgreenplanet.jpg,images/tutalien1,images/tutalien2,null,images/tutalien2,NA,NA,practice,null,NA,NA,NA,NA,sub80
d3-animate-choice,14,89416,0.0-14.0,TRUE,TRUE,TRUE,TRUE,"""event"",""trial"",""time""
""fullscreenenter"",""5"",""12304""
","
","
","""event"",""trial"",""time""
""fullscreenenter"",""5"",""12304""
","
",843.2350000000442,NA,49,NA,NA,3000,1,NA,NA,images/tutgreenplanet.jpg,images/tutalien1,images/tutalien2,null,images/tutalien2,NA,NA,practice,null,NA,NA,NA,NA,sub80
d3-instructions,15,95882,0.0-15.0,TRUE,TRUE,TRUE,TRUE,"""event"",""trial"",""time""
""fullscreenenter"",""5"",""12304""
","
","
","""event"",""trial"",""time""
""fullscreenenter"",""5"",""12304""
","
",NA,NA,NA,NA,NA,NA,NA,NA,NA,NA,NA,NA,NA,NA,NA,NA,NA,NA,NA,NA,NA,NA,sub80
d3-instructions,16,103025,0.0-16.0,TRUE,TRUE,TRUE,TRUE,"""event"",""trial"",""time""
""fullscreenenter"",""5"",""12304""
","
","
","""event"",""trial"",""time""
""fullscreenenter"",""5"",""12304""
","
",NA,NA,NA,NA,NA,NA,NA,NA,NA,NA,NA,NA,NA,NA,NA,NA,NA,NA,NA,NA,NA,NA,sub80
d3-instructions,17,111723,0.0-17.0,TRUE,TRUE,TRUE,TRUE,"""event"",""trial"",""time""
""fullscreenenter"",""5"",""12304""
","
","
","""event"",""trial"",""time""
""fullscreenenter"",""5"",""12304""
","
",NA,NA,NA,NA,NA,NA,NA,NA,NA,NA,NA,NA,NA,NA,NA,NA,NA,NA,NA,NA,NA,NA,sub80
d3-instructions,18,125099,0.0-18.0,TRUE,TRUE,TRUE,TRUE,"""event"",""trial"",""time""
""fullscreenenter"",""5"",""12304""
","
","
","""event"",""trial"",""time""
""fullscreenenter"",""5"",""12304""
","
",NA,NA,NA,NA,NA,NA,NA,NA,NA,NA,NA,NA,NA,NA,NA,NA,NA,NA,NA,NA,NA,NA,sub80
d3-instructions,19,139797,0.0-19.0,TRUE,TRUE,TRUE,TRUE,"""event"",""trial"",""time""
""fullscreenenter"",""5"",""12304""
","
","
","""event"",""trial"",""time""
""fullscreenenter"",""5"",""12304""
","
",NA,NA,NA,NA,NA,NA,NA,NA,NA,NA,NA,NA,NA,NA,NA,NA,NA,NA,NA,NA,NA,NA,sub80
d3-animate-choice,20,143503,0.0-20.0,TRUE,TRUE,TRUE,TRUE,"""event"",""trial"",""time""
""fullscreenenter"",""5"",""12304""
","
","
","""event"",""trial"",""time""
""fullscreenenter"",""5"",""12304""
","
",1694.6549999999988,NA,49,NA,NA,3000,1,2244.6650000000373,49,images/tutyellowplanet.jpg,null,images/tutalien3,null,images/tutalien3,images/t.png,NA,practice,null,NA,NA,NA,NA,sub80
d3-animate-choice,21,145981,0.0-21.0,TRUE,TRUE,TRUE,TRUE,"""event"",""trial"",""time""
""fullscreenenter"",""5"",""12304""
","
","
","""event"",""trial"",""time""
""fullscreenenter"",""5"",""12304""
","
",471.5450000000128,NA,49,NA,NA,3000,1,NA,NA,images/tutyellowplanet.jpg,null,images/tutalien3,null,images/tutalien3,images/t.png,NA,practice,null,NA,NA,NA,NA,sub80
d3-animate-choice,22,148380,0.0-22.0,TRUE,TRUE,TRUE,TRUE,"""event"",""trial"",""time""
""fullscreenenter"",""5"",""12304""
","
","
","""event"",""trial"",""time""
""fullscreenenter"",""5"",""12304""
","
",391.6050000000105,NA,49,NA,NA,3000,1,NA,NA,images/tutyellowplanet.jpg,null,images/tutalien3,null,images/tutalien3,images/t.png,NA,practice,null,NA,NA,NA,NA,sub80
d3-animate-choice,23,150713,0.0-23.0,TRUE,TRUE,TRUE,TRUE,"""event"",""trial"",""time""
""fullscreenenter"",""5"",""12304""
","
","
","""event"",""trial"",""time""
""fullscreenenter"",""5"",""12304""
","
",326.3650000000198,NA,49,NA,NA,3000,1,NA,NA,images/tutyellowplanet.jpg,null,images/tutalien3,null,images/tutalien3,images/nothing.png,NA,practice,null,NA,NA,NA,NA,sub80
d3-animate-choice,24,153032,0.0-24.0,TRUE,TRUE,TRUE,TRUE,"""event"",""trial"",""time""
""fullscreenenter"",""5"",""12304""
","
","
","""event"",""trial"",""time""
""fullscreenenter"",""5"",""12304""
","
",312.7399999999616,NA,49,NA,NA,3000,1,NA,NA,images/tutyellowplanet.jpg,null,images/tutalien3,null,images/tutalien3,images/t.png,NA,practice,null,NA,NA,NA,NA,sub80
d3-animate-choice,25,155325,0.0-25.0,TRUE,TRUE,TRUE,TRUE,"""event"",""trial"",""time""
""fullscreenenter"",""5"",""12304""
","
","
","""event"",""trial"",""time""
""fullscreenenter"",""5"",""12304""
","
",286.09500000003027,NA,49,NA,NA,3000,1,NA,NA,images/tutyellowplanet.jpg,null,images/tutalien3,null,images/tutalien3,images/t.png,NA,practice,null,NA,NA,NA,NA,sub80
d3-animate-choice,26,157613,0.0-26.0,TRUE,TRUE,TRUE,TRUE,"""event"",""trial"",""time""
""fullscreenenter"",""5"",""12304""
","
","
","""event"",""trial"",""time""
""fullscreenenter"",""5"",""12304""
","
",281.74499999999534,NA,49,NA,NA,3000,1,NA,NA,images/tutyellowplanet.jpg,null,images/tutalien3,null,images/tutalien3,images/t.png,NA,practice,null,NA,NA,NA,NA,sub80
d3-animate-choice,27,159894,0.0-27.0,TRUE,TRUE,TRUE,TRUE,"""event"",""trial"",""time""
""fullscreenenter"",""5"",""12304""
","
","
","""event"",""trial"",""time""
""fullscreenenter"",""5"",""12304""
","
",275.23500000007334,NA,49,NA,NA,3000,1,NA,NA,images/tutyellowplanet.jpg,null,images/tutalien3,null,images/tutalien3,images/t.png,NA,practice,null,NA,NA,NA,NA,sub80
d3-animate-choice,28,162223,0.0-28.0,TRUE,TRUE,TRUE,TRUE,"""event"",""trial"",""time""
""fullscreenenter"",""5"",""12304""
","
","
","""event"",""trial"",""time""
""fullscreenenter"",""5"",""12304""
","
",322.46000000007916,NA,49,NA,NA,3000,1,NA,NA,images/tutyellowplanet.jpg,null,images/tutalien3,null,images/tutalien3,images/t.png,NA,practice,null,NA,NA,NA,NA,sub80
d3-animate-choice,29,164591,0.0-29.0,TRUE,TRUE,TRUE,TRUE,"""event"",""trial"",""time""
""fullscreenenter"",""5"",""12304""
","
","
","""event"",""trial"",""time""
""fullscreenenter"",""5"",""12304""
","
",362.32500000006985,NA,49,NA,NA,3000,1,NA,NA,images/tutyellowplanet.jpg,null,images/tutalien3,null,images/tutalien3,images/nothing.png,NA,practice,null,NA,NA,NA,NA,sub80
d3-instructions,30,172659,0.0-30.0,TRUE,TRUE,TRUE,TRUE,"""event"",""trial"",""time""
""fullscreenenter"",""5"",""12304""
","
","
","""event"",""trial"",""time""
""fullscreenenter"",""5"",""12304""
","
",NA,NA,NA,NA,NA,NA,NA,NA,NA,NA,NA,NA,NA,NA,NA,NA,NA,NA,NA,NA,NA,NA,sub80
d3-instructions,31,183356,0.0-31.0,TRUE,TRUE,TRUE,TRUE,"""event"",""trial"",""time""
""fullscreenenter"",""5"",""12304""
","
","
","""event"",""trial"",""time""
""fullscreenenter"",""5"",""12304""
","
",NA,NA,NA,NA,NA,NA,NA,NA,NA,NA,NA,NA,NA,NA,NA,NA,NA,NA,NA,NA,NA,NA,sub80
d3-instructions,32,194984,0.0-32.0,TRUE,TRUE,TRUE,TRUE,"""event"",""trial"",""time""
""fullscreenenter"",""5"",""12304""
","
","
","""event"",""trial"",""time""
""fullscreenenter"",""5"",""12304""
","
",NA,NA,NA,NA,NA,NA,NA,NA,NA,NA,NA,NA,NA,NA,NA,NA,NA,NA,NA,NA,NA,NA,sub80
d3-instructions,33,206962,0.0-33.0,TRUE,TRUE,TRUE,TRUE,"""event"",""trial"",""time""
""fullscreenenter"",""5"",""12304""
","
","
","""event"",""trial"",""time""
""fullscreenenter"",""5"",""12304""
","
",NA,NA,NA,NA,NA,NA,NA,NA,NA,NA,NA,NA,NA,NA,NA,NA,NA,NA,NA,NA,NA,NA,sub80
d3-animate-choice,34,210609,0.0-34.0,TRUE,TRUE,TRUE,TRUE,"""event"",""trial"",""time""
""fullscreenenter"",""5"",""12304""
","
","
","""event"",""trial"",""time""
""fullscreenenter"",""5"",""12304""
","
",1635.5449999999546,NA,49,NA,NA,3000,1,NA,NA,images/tutgreenplanet.jpg,images/tutalien1,images/tutalien2,null,images/tutalien2,images/nothing.png,NA,practice,null,NA,NA,NA,NA,sub80
d3-animate-choice,35,213639,0.0-35.0,TRUE,TRUE,TRUE,TRUE,"""event"",""trial"",""time""
""fullscreenenter"",""5"",""12304""
","
","
","""event"",""trial"",""time""
""fullscreenenter"",""5"",""12304""
","
",1022.2700000000477,NA,48,NA,NA,3000,1,NA,NA,images/tutgreenplanet.jpg,images/tutalien1,images/tutalien2,null,images/tutalien1,images/t.png,NA,practice,null,NA,NA,NA,NA,sub80
d3-animate-choice,36,216156,0.0-36.0,TRUE,TRUE,TRUE,TRUE,"""event"",""trial"",""time""
""fullscreenenter"",""5"",""12304""
","
","
","""event"",""trial"",""time""
""fullscreenenter"",""5"",""12304""
","
",508.7700000000186,NA,48,NA,NA,3000,1,NA,NA,images/tutgreenplanet.jpg,images/tutalien1,images/tutalien2,null,images/tutalien1,images/nothing.png,NA,practice,null,NA,NA,NA,NA,sub80
d3-animate-choice,37,218636,0.0-37.0,TRUE,TRUE,TRUE,TRUE,"""event"",""trial"",""time""
""fullscreenenter"",""5"",""12304""
","
","
","""event"",""trial"",""time""
""fullscreenenter"",""5"",""12304""
","
",472.5349999999744,NA,49,NA,NA,3000,1,NA,NA,images/tutgreenplanet.jpg,images/tutalien1,images/tutalien2,null,images/tutalien2,images/t.png,NA,practice,null,NA,NA,NA,NA,sub80
d3-animate-choice,38,221183,0.0-38.0,TRUE,TRUE,TRUE,TRUE,"""event"",""trial"",""time""
""fullscreenenter"",""5"",""12304""
","
","
","""event"",""trial"",""time""
""fullscreenenter"",""5"",""12304""
","
",539.625,NA,49,NA,NA,3000,1,NA,NA,images/tutgreenplanet.jpg,images/tutalien1,images/tutalien2,null,images/tutalien2,images/t.png,NA,practice,null,NA,NA,NA,NA,sub80
d3-animate-choice,39,223508,0.0-39.0,TRUE,TRUE,TRUE,TRUE,"""event"",""trial"",""time""
""fullscreenenter"",""5"",""12304""
","
","
","""event"",""trial"",""time""
""fullscreenenter"",""5"",""12304""
","
",317.0450000000128,NA,49,NA,NA,3000,1,NA,NA,images/tutgreenplanet.jpg,images/tutalien1,images/tutalien2,null,images/tutalien2,images/t.png,NA,practice,null,NA,NA,NA,NA,sub80
d3-animate-choice,40,225888,0.0-40.0,TRUE,TRUE,TRUE,TRUE,"""event"",""trial"",""time""
""fullscreenenter"",""5"",""12304""
","
","
","""event"",""trial"",""time""
""fullscreenenter"",""5"",""12304""
","
",373.3649999999325,NA,49,NA,NA,3000,1,NA,NA,images/tutgreenplanet.jpg,images/tutalien1,images/tutalien2,null,images/tutalien2,images/nothing.png,NA,practice,null,NA,NA,NA,NA,sub80
d3-animate-choice,41,228193,0.0-41.0,TRUE,TRUE,TRUE,TRUE,"""event"",""trial"",""time""
""fullscreenenter"",""5"",""12304""
","
","
","""event"",""trial"",""time""
""fullscreenenter"",""5"",""12304""
","
",297.23499999998603,NA,48,NA,NA,3000,1,NA,NA,images/tutgreenplanet.jpg,images/tutalien1,images/tutalien2,null,images/tutalien1,images/nothing.png,NA,practice,null,NA,NA,NA,NA,sub80
d3-animate-choice,42,230515,0.0-42.0,TRUE,TRUE,TRUE,TRUE,"""event"",""trial"",""time""
""fullscreenenter"",""5"",""12304""
","
","
","""event"",""trial"",""time""
""fullscreenenter"",""5"",""12304""
","
",314.0349999999744,NA,49,NA,NA,3000,1,NA,NA,images/tutgreenplanet.jpg,images/tutalien1,images/tutalien2,null,images/tutalien2,images/t.png,NA,practice,null,NA,NA,NA,NA,sub80
d3-animate-choice,43,232867,0.0-43.0,TRUE,TRUE,TRUE,TRUE,"""event"",""trial"",""time""
""fullscreenenter"",""5"",""12304""
","
","
","""event"",""trial"",""time""
""fullscreenenter"",""5"",""12304""
","
",343.92499999990105,NA,49,NA,NA,3000,1,NA,NA,images/tutgreenplanet.jpg,images/tutalien1,images/tutalien2,null,images/tutalien2,images/t.png,NA,practice,null,NA,NA,NA,NA,sub80
d3-instructions,44,246572,0.0-44.0,TRUE,TRUE,TRUE,TRUE,"""event"",""trial"",""time""
""fullscreenenter"",""5"",""12304""
","
","
","""event"",""trial"",""time""
""fullscreenenter"",""5"",""12304""
","
",NA,NA,NA,NA,NA,NA,NA,NA,NA,NA,NA,NA,NA,NA,NA,NA,NA,NA,NA,NA,NA,NA,sub80
d3-instructions,45,255047,0.0-45.0,TRUE,TRUE,TRUE,TRUE,"""event"",""trial"",""time""
""fullscreenenter"",""5"",""12304""
","
","
","""event"",""trial"",""time""
""fullscreenenter"",""5"",""12304""
","
",NA,NA,NA,NA,NA,NA,NA,NA,NA,NA,NA,NA,NA,NA,NA,NA,NA,NA,NA,NA,NA,NA,sub80
d3-instructions,46,260095,0.0-46.0,TRUE,TRUE,TRUE,TRUE,"""event"",""trial"",""time""
""fullscreenenter"",""5"",""12304""
","
","
","""event"",""trial"",""time""
""fullscreenenter"",""5"",""12304""
","
",NA,NA,NA,NA,NA,NA,NA,NA,NA,NA,NA,NA,NA,NA,NA,NA,NA,NA,NA,NA,NA,NA,sub80
d3-instructions,47,279134,0.0-47.0,TRUE,TRUE,TRUE,TRUE,"""event"",""trial"",""time""
""fullscreenenter"",""5"",""12304""
","
","
","""event"",""trial"",""time""
""fullscreenenter"",""5"",""12304""
","
",NA,NA,NA,NA,NA,NA,NA,NA,NA,NA,NA,NA,NA,NA,NA,NA,NA,NA,NA,NA,NA,NA,sub80
d3-instructions,48,288892,0.0-48.0,TRUE,TRUE,TRUE,TRUE,"""event"",""trial"",""time""
""fullscreenenter"",""5"",""12304""
","
","
","""event"",""trial"",""time""
""fullscreenenter"",""5"",""12304""
","
",NA,NA,NA,NA,NA,NA,NA,NA,NA,NA,NA,NA,NA,NA,NA,NA,NA,NA,NA,NA,NA,NA,sub80
d3-instructions,49,300450,0.0-49.0,TRUE,TRUE,TRUE,TRUE,"""event"",""trial"",""time""
""fullscreenenter"",""5"",""12304""
","
","
","""event"",""trial"",""time""
""fullscreenenter"",""5"",""12304""
","
",NA,NA,NA,NA,NA,NA,NA,NA,NA,NA,NA,NA,NA,NA,NA,NA,NA,NA,NA,NA,NA,NA,sub80
d3-instructions,50,309438,0.0-50.0,TRUE,TRUE,TRUE,TRUE,"""event"",""trial"",""time""
""fullscreenenter"",""5"",""12304""
","
","
","""event"",""trial"",""time""
""fullscreenenter"",""5"",""12304""
","
",NA,NA,NA,NA,NA,NA,NA,NA,NA,NA,NA,NA,NA,NA,NA,NA,NA,NA,NA,NA,NA,NA,sub80
d3-instructions,51,312170,0.0-51.0,TRUE,TRUE,TRUE,TRUE,"""event"",""trial"",""time""
""fullscreenenter"",""5"",""12304""
","
","
","""event"",""trial"",""time""
""fullscreenenter"",""5"",""12304""
","
",NA,NA,NA,NA,NA,NA,NA,NA,NA,NA,NA,NA,NA,NA,NA,NA,NA,NA,NA,NA,NA,NA,sub80
d3-instructions,52,315043,0.0-52.0,TRUE,TRUE,TRUE,TRUE,"""event"",""trial"",""time""
""fullscreenenter"",""5"",""12304""
","
","
","""event"",""trial"",""time""
""fullscreenenter"",""5"",""12304""
","
",NA,NA,NA,NA,NA,NA,NA,NA,NA,NA,NA,NA,NA,NA,NA,NA,NA,NA,NA,NA,NA,NA,sub80
d3-instructions,53,339886,0.0-53.0,TRUE,TRUE,TRUE,TRUE,"""event"",""trial"",""time""
""fullscreenenter"",""5"",""12304""
","
","
","""event"",""trial"",""time""
""fullscreenenter"",""5"",""12304""
","
",NA,NA,NA,NA,NA,NA,NA,NA,NA,NA,NA,NA,NA,NA,NA,NA,NA,NA,NA,NA,NA,NA,sub80
d3-instructions,54,352450,0.0-54.0,TRUE,TRUE,TRUE,TRUE,"""event"",""trial"",""time""
""fullscreenenter"",""5"",""12304""
","
","
","""event"",""trial"",""time""
""fullscreenenter"",""5"",""12304""
","
",NA,NA,NA,NA,NA,NA,NA,NA,NA,NA,NA,NA,NA,NA,NA,NA,NA,NA,NA,NA,NA,NA,sub80
d3-instructions,55,364200,0.0-55.0,TRUE,TRUE,TRUE,TRUE,"""event"",""trial"",""time""
""fullscreenenter"",""5"",""12304""
","
","
","""event"",""trial"",""time""
""fullscreenenter"",""5"",""12304""
","
",NA,NA,NA,NA,NA,NA,NA,NA,NA,NA,NA,NA,NA,NA,NA,NA,NA,NA,NA,NA,NA,NA,sub80
d3-instructions,56,372196,0.0-56.0,TRUE,TRUE,TRUE,TRUE,"""event"",""trial"",""time""
""fullscreenenter"",""5"",""12304""
","
","
","""event"",""trial"",""time""
""fullscreenenter"",""5"",""12304""
","
",NA,NA,NA,NA,NA,NA,NA,NA,NA,NA,NA,NA,NA,NA,NA,NA,NA,NA,NA,NA,NA,NA,sub80
d3-instructions,57,382691,0.0-57.0,TRUE,TRUE,TRUE,TRUE,"""event"",""trial"",""time""
""fullscreenenter"",""5"",""12304""
","
","
","""event"",""trial"",""time""
""fullscreenenter"",""5"",""12304""
","
",NA,NA,NA,NA,NA,NA,NA,NA,NA,NA,NA,NA,NA,NA,NA,NA,NA,NA,NA,NA,NA,NA,sub80
d3-instructions,58,393506,0.0-58.0,TRUE,TRUE,TRUE,TRUE,"""event"",""trial"",""time""
""fullscreenenter"",""5"",""12304""
","
","
","""event"",""trial"",""time""
""fullscreenenter"",""5"",""12304""
","
",NA,NA,NA,NA,NA,NA,NA,NA,NA,NA,NA,NA,NA,NA,NA,NA,NA,NA,NA,NA,NA,NA,sub80
d3-instructions,59,398239,0.0-59.0,TRUE,TRUE,TRUE,TRUE,"""event"",""trial"",""time""
""fullscreenenter"",""5"",""12304""
","
","
","""event"",""trial"",""time""
""fullscreenenter"",""5"",""12304""
","
",NA,NA,NA,NA,NA,NA,NA,NA,NA,NA,NA,NA,NA,NA,NA,NA,NA,NA,NA,NA,NA,NA,sub80
d3-instructions,60,404927,0.0-60.0,TRUE,TRUE,TRUE,TRUE,"""event"",""trial"",""time""
""fullscreenenter"",""5"",""12304""
","
","
","""event"",""trial"",""time""
""fullscreenenter"",""5"",""12304""
","
",NA,NA,NA,NA,NA,NA,NA,NA,NA,NA,NA,NA,NA,NA,NA,NA,NA,NA,NA,NA,NA,NA,sub80
d3-animate-choice,61,408151,0.0-61.0-0.0,TRUE,TRUE,TRUE,TRUE,"""event"",""trial"",""time""
""fullscreenenter"",""5"",""12304""
","
","
","""event"",""trial"",""time""
""fullscreenenter"",""5"",""12304""
","
",1210.4650000000256,NA,49,NA,NA,3000,1,NA,NA,images/earth.jpg,images/tutrocket2,images/tutrocket1,null,images/tutrocket1,NA,1,practice,null,1,NA,NA,NA,sub80
d3-animate-choice,62,411707,0.0-61.0-1.0,TRUE,TRUE,TRUE,TRUE,"""event"",""trial"",""time""
""fullscreenenter"",""5"",""12304""
","
","
","""event"",""trial"",""time""
""fullscreenenter"",""5"",""12304""
","
",1542.5649999999441,NA,48,NA,NA,3000,1,NA,NA,images/tutyellowplanet.jpg,images/tutalien4,images/tutalien3,images/tutrocket1,images/tutalien4,images/t.png,2,practice,false,2,rare,1,2020-06-17T06:48:58Z,sub80
two-step-fixation,63,412714,0.0-61.0-2.0,TRUE,TRUE,TRUE,TRUE,"""event"",""trial"",""time""
""fullscreenenter"",""5"",""12304""
","
","
","""event"",""trial"",""time""
""fullscreenenter"",""5"",""12304""
","
",NA,images/earth.jpg,NA,NA,NA,NA,NA,NA,NA,NA,NA,NA,NA,NA,NA,fixation,NA,NA,NA,NA,NA,NA,sub80
d3-animate-choice,64,415905,0.0-61.0-0.1,TRUE,TRUE,TRUE,TRUE,"""event"",""trial"",""time""
""fullscreenenter"",""5"",""12304""
","
","
","""event"",""trial"",""time""
""fullscreenenter"",""5"",""12304""
","
",1182.6749999999884,NA,48,NA,NA,3000,1,NA,NA,images/earth.jpg,images/tutrocket2,images/tutrocket1,null,images/tutrocket2,NA,1,practice,null,2,NA,NA,NA,sub80
d3-animate-choice,65,418579,0.0-61.0-1.1,TRUE,TRUE,TRUE,TRUE,"""event"",""trial"",""time""
""fullscreenenter"",""5"",""12304""
","
","
","""event"",""trial"",""time""
""fullscreenenter"",""5"",""12304""
","
",664.9700000000303,NA,49,NA,NA,3000,1,NA,NA,images/tutyellowplanet.jpg,images/tutalien4,images/tutalien3,images/tutrocket2,images/tutalien3,images/t.png,2,practice,true,1,common,1,2020-06-17T06:49:04Z,sub80
two-step-fixation,66,419583,0.0-61.0-2.1,TRUE,TRUE,TRUE,TRUE,"""event"",""trial"",""time""
""fullscreenenter"",""5"",""12304""
","
","
","""event"",""trial"",""time""
""fullscreenenter"",""5"",""12304""
","
",NA,images/earth.jpg,NA,NA,NA,NA,NA,NA,NA,NA,NA,NA,NA,NA,NA,fixation,NA,NA,NA,NA,NA,NA,sub80
d3-animate-choice,67,422181,0.0-61.0-0.2,TRUE,TRUE,TRUE,TRUE,"""event"",""trial"",""time""
""fullscreenenter"",""5"",""12304""
","
","
","""event"",""trial"",""time""
""fullscreenenter"",""5"",""12304""
","
",588.0499999999302,NA,49,NA,NA,3000,1,NA,NA,images/earth.jpg,images/tutrocket2,images/tutrocket1,null,images/tutrocket1,NA,1,practice,null,1,NA,NA,NA,sub80
d3-animate-choice,68,425242,0.0-61.0-1.2,TRUE,TRUE,TRUE,TRUE,"""event"",""trial"",""time""
""fullscreenenter"",""5"",""12304""
","
","
","""event"",""trial"",""time""
""fullscreenenter"",""5"",""12304""
","
",1051.375,NA,48,NA,NA,3000,1,NA,NA,images/tutgreenplanet.jpg,images/tutalien2,images/tutalien1,images/tutrocket1,images/tutalien2,images/nothing.png,2,practice,true,2,common,0,2020-06-17T06:49:11Z,sub80
two-step-fixation,69,426247,0.0-61.0-2.2,TRUE,TRUE,TRUE,TRUE,"""event"",""trial"",""time""
""fullscreenenter"",""5"",""12304""
","
","
","""event"",""trial"",""time""
""fullscreenenter"",""5"",""12304""
","
",NA,images/earth.jpg,NA,NA,NA,NA,NA,NA,NA,NA,NA,NA,NA,NA,NA,fixation,NA,NA,NA,NA,NA,NA,sub80
d3-animate-choice,70,428882,0.0-61.0-0.3,TRUE,TRUE,TRUE,TRUE,"""event"",""trial"",""time""
""fullscreenenter"",""5"",""12304""
","
","
","""event"",""trial"",""time""
""fullscreenenter"",""5"",""12304""
","
",622.8150000000605,NA,48,NA,NA,3000,1,NA,NA,images/earth.jpg,images/tutrocket2,images/tutrocket1,null,images/tutrocket2,NA,1,practice,null,2,NA,NA,NA,sub80
d3-animate-choice,71,432314,0.0-61.0-1.3,TRUE,TRUE,TRUE,TRUE,"""event"",""trial"",""time""
""fullscreenenter"",""5"",""12304""
","
","
","""event"",""trial"",""time""
""fullscreenenter"",""5"",""12304""
","
",1422.9249999999302,NA,48,NA,NA,3000,1,NA,NA,images/tutyellowplanet.jpg,images/tutalien4,images/tutalien3,images/tutrocket2,images/tutalien4,images/t.png,2,practice,true,2,common,1,2020-06-17T06:49:18Z,sub80
two-step-fixation,72,433318,0.0-61.0-2.3,TRUE,TRUE,TRUE,TRUE,"""event"",""trial"",""time""
""fullscreenenter"",""5"",""12304""
","
","
","""event"",""trial"",""time""
""fullscreenenter"",""5"",""12304""
","
",NA,images/earth.jpg,NA,NA,NA,NA,NA,NA,NA,NA,NA,NA,NA,NA,NA,fixation,NA,NA,NA,NA,NA,NA,sub80
d3-animate-choice,73,435871,0.0-61.0-0.4,TRUE,TRUE,TRUE,TRUE,"""event"",""trial"",""time""
""fullscreenenter"",""5"",""12304""
","
","
","""event"",""trial"",""time""
""fullscreenenter"",""5"",""12304""
","
",543.3750000001164,NA,49,NA,NA,3000,1,NA,NA,images/earth.jpg,images/tutrocket2,images/tutrocket1,null,images/tutrocket1,NA,1,practice,null,1,NA,NA,NA,sub80
d3-animate-choice,74,439342,0.0-61.0-1.4,TRUE,TRUE,TRUE,TRUE,"""event"",""trial"",""time""
""fullscreenenter"",""5"",""12304""
","
","
","""event"",""trial"",""time""
""fullscreenenter"",""5"",""12304""
","
",1463.3549999999814,NA,49,NA,NA,3000,1,NA,NA,images/tutgreenplanet.jpg,images/tutalien2,images/tutalien1,images/tutrocket1,images/tutalien1,images/nothing.png,2,practice,true,1,common,0,2020-06-17T06:49:25Z,sub80
two-step-fixation,75,440346,0.0-61.0-2.4,TRUE,TRUE,TRUE,TRUE,"""event"",""trial"",""time""
""fullscreenenter"",""5"",""12304""
","
","
","""event"",""trial"",""time""
""fullscreenenter"",""5"",""12304""
","
",NA,images/earth.jpg,NA,NA,NA,NA,NA,NA,NA,NA,NA,NA,NA,NA,NA,fixation,NA,NA,NA,NA,NA,NA,sub80
d3-animate-choice,76,443499,0.0-61.0-0.5,TRUE,TRUE,TRUE,TRUE,"""event"",""trial"",""time""
""fullscreenenter"",""5"",""12304""
","
","
","""event"",""trial"",""time""
""fullscreenenter"",""5"",""12304""
","
",1143.6299999999464,NA,48,NA,NA,3000,1,NA,NA,images/earth.jpg,images/tutrocket2,images/tutrocket1,null,images/tutrocket2,NA,1,practice,null,2,NA,NA,NA,sub80
d3-animate-choice,77,446724,0.0-61.0-1.5,TRUE,TRUE,TRUE,TRUE,"""event"",""trial"",""time""
""fullscreenenter"",""5"",""12304""
","
","
","""event"",""trial"",""time""
""fullscreenenter"",""5"",""12304""
","
",1215.670000000042,NA,48,NA,NA,3000,1,NA,NA,images/tutyellowplanet.jpg,images/tutalien4,images/tutalien3,images/tutrocket2,images/tutalien4,images/t.png,2,practice,true,2,common,1,2020-06-17T06:49:33Z,sub80
two-step-fixation,78,447728,0.0-61.0-2.5,TRUE,TRUE,TRUE,TRUE,"""event"",""trial"",""time""
""fullscreenenter"",""5"",""12304""
","
","
","""event"",""trial"",""time""
""fullscreenenter"",""5"",""12304""
","
",NA,images/earth.jpg,NA,NA,NA,NA,NA,NA,NA,NA,NA,NA,NA,NA,NA,fixation,NA,NA,NA,NA,NA,NA,sub80
d3-animate-choice,79,450273,0.0-61.0-0.6,TRUE,TRUE,TRUE,TRUE,"""event"",""trial"",""time""
""fullscreenenter"",""5"",""12304""
","
","
","""event"",""trial"",""time""
""fullscreenenter"",""5"",""12304""
","
",535.1499999999651,NA,49,NA,NA,3000,1,NA,NA,images/earth.jpg,images/tutrocket2,images/tutrocket1,null,images/tutrocket1,NA,1,practice,null,1,NA,NA,NA,sub80
d3-animate-choice,80,454281,0.0-61.0-1.6,TRUE,TRUE,TRUE,TRUE,"""event"",""trial"",""time""
""fullscreenenter"",""5"",""12304""
","
","
","""event"",""trial"",""time""
""fullscreenenter"",""5"",""12304""
","
",2022.7449999999953,NA,49,NA,NA,3000,1,NA,NA,images/tutgreenplanet.jpg,images/tutalien2,images/tutalien1,images/tutrocket1,images/tutalien1,images/nothing.png,2,practice,true,1,common,0,2020-06-17T06:49:40Z,sub80
two-step-fixation,81,455285,0.0-61.0-2.6,TRUE,TRUE,TRUE,TRUE,"""event"",""trial"",""time""
""fullscreenenter"",""5"",""12304""
","
","
","""event"",""trial"",""time""
""fullscreenenter"",""5"",""12304""
","
",NA,images/earth.jpg,NA,NA,NA,NA,NA,NA,NA,NA,NA,NA,NA,NA,NA,fixation,NA,NA,NA,NA,NA,NA,sub80
d3-animate-choice,82,457703,0.0-61.0-0.7,TRUE,TRUE,TRUE,TRUE,"""event"",""trial"",""time""
""fullscreenenter"",""5"",""12304""
","
","
","""event"",""trial"",""time""
""fullscreenenter"",""5"",""12304""
","
",409.0899999999674,NA,48,NA,NA,3000,1,NA,NA,images/earth.jpg,images/tutrocket2,images/tutrocket1,null,images/tutrocket2,NA,1,practice,null,2,NA,NA,NA,sub80
d3-animate-choice,83,461055,0.0-61.0-1.7,TRUE,TRUE,TRUE,TRUE,"""event"",""trial"",""time""
""fullscreenenter"",""5"",""12304""
","
","
","""event"",""trial"",""time""
""fullscreenenter"",""5"",""12304""
","
",1343.9650000000256,NA,49,NA,NA,3000,1,NA,NA,images/tutyellowplanet.jpg,images/tutalien4,images/tutalien3,images/tutrocket2,images/tutalien3,images/t.png,2,practice,true,1,common,1,2020-06-17T06:49:47Z,sub80
two-step-fixation,84,462059,0.0-61.0-2.7,TRUE,TRUE,TRUE,TRUE,"""event"",""trial"",""time""
""fullscreenenter"",""5"",""12304""
","
","
","""event"",""trial"",""time""
""fullscreenenter"",""5"",""12304""
","
",NA,images/earth.jpg,NA,NA,NA,NA,NA,NA,NA,NA,NA,NA,NA,NA,NA,fixation,NA,NA,NA,NA,NA,NA,sub80
d3-animate-choice,85,464753,0.0-61.0-0.8,TRUE,TRUE,TRUE,TRUE,"""event"",""trial"",""time""
""fullscreenenter"",""5"",""12304""
","
","
","""event"",""trial"",""time""
""fullscreenenter"",""5"",""12304""
","
",685.3650000000489,NA,49,NA,NA,3000,1,NA,NA,images/earth.jpg,images/tutrocket2,images/tutrocket1,null,images/tutrocket1,NA,1,practice,null,1,NA,NA,NA,sub80
d3-animate-choice,86,468411,0.0-61.0-1.8,TRUE,TRUE,TRUE,TRUE,"""event"",""trial"",""time""
""fullscreenenter"",""5"",""12304""
","
","
","""event"",""trial"",""time""
""fullscreenenter"",""5"",""12304""
","
",1652.045000000042,NA,48,NA,NA,3000,1,NA,NA,images/tutgreenplanet.jpg,images/tutalien2,images/tutalien1,images/tutrocket1,images/tutalien2,images/nothing.png,2,practice,true,2,common,0,2020-06-17T06:49:54Z,sub80
two-step-fixation,87,469415,0.0-61.0-2.8,TRUE,TRUE,TRUE,TRUE,"""event"",""trial"",""time""
""fullscreenenter"",""5"",""12304""
","
","
","""event"",""trial"",""time""
""fullscreenenter"",""5"",""12304""
","
",NA,images/earth.jpg,NA,NA,NA,NA,NA,NA,NA,NA,NA,NA,NA,NA,NA,fixation,NA,NA,NA,NA,NA,NA,sub80
d3-animate-choice,88,472231,0.0-61.0-0.9,TRUE,TRUE,TRUE,TRUE,"""event"",""trial"",""time""
""fullscreenenter"",""5"",""12304""
","
","
","""event"",""trial"",""time""
""fullscreenenter"",""5"",""12304""
","
",806.3899999999558,NA,48,NA,NA,3000,1,NA,NA,images/earth.jpg,images/tutrocket2,images/tutrocket1,null,images/tutrocket2,NA,1,practice,null,2,NA,NA,NA,sub80
d3-animate-choice,89,475707,0.0-61.0-1.9,TRUE,TRUE,TRUE,TRUE,"""event"",""trial"",""time""
""fullscreenenter"",""5"",""12304""
","
","
","""event"",""trial"",""time""
""fullscreenenter"",""5"",""12304""
","
",1467.8499999999767,NA,48,NA,NA,3000,1,NA,NA,images/tutyellowplanet.jpg,images/tutalien4,images/tutalien3,images/tutrocket2,images/tutalien4,images/t.png,2,practice,true,2,common,1,2020-06-17T06:50:02Z,sub80
two-step-fixation,90,476711,0.0-61.0-2.9,TRUE,TRUE,TRUE,TRUE,"""event"",""trial"",""time""
""fullscreenenter"",""5"",""12304""
","
","
","""event"",""trial"",""time""
""fullscreenenter"",""5"",""12304""
","
",NA,images/earth.jpg,NA,NA,NA,NA,NA,NA,NA,NA,NA,NA,NA,NA,NA,fixation,NA,NA,NA,NA,NA,NA,sub80
d3-animate-choice,91,479211,0.0-61.0-0.10,TRUE,TRUE,TRUE,TRUE,"""event"",""trial"",""time""
""fullscreenenter"",""5"",""12304""
","
","
","""event"",""trial"",""time""
""fullscreenenter"",""5"",""12304""
","
",491.41499999992084,NA,48,NA,NA,3000,1,NA,NA,images/earth.jpg,images/tutrocket2,images/tutrocket1,null,images/tutrocket2,NA,1,practice,null,2,NA,NA,NA,sub80
d3-animate-choice,92,481620,0.0-61.0-1.10,TRUE,TRUE,TRUE,TRUE,"""event"",""trial"",""time""
""fullscreenenter"",""5"",""12304""
","
","
","""event"",""trial"",""time""
""fullscreenenter"",""5"",""12304""
","
",399.4000000000233,NA,48,NA,NA,3000,1,NA,NA,images/tutyellowplanet.jpg,images/tutalien4,images/tutalien3,images/tutrocket2,images/tutalien4,images/t.png,2,practice,true,2,common,1,2020-06-17T06:50:07Z,sub80
two-step-fixation,93,482624,0.0-61.0-2.10,TRUE,TRUE,TRUE,TRUE,"""event"",""trial"",""time""
""fullscreenenter"",""5"",""12304""
","
","
","""event"",""trial"",""time""
""fullscreenenter"",""5"",""12304""
","
",NA,images/earth.jpg,NA,NA,NA,NA,NA,NA,NA,NA,NA,NA,NA,NA,NA,fixation,NA,NA,NA,NA,NA,NA,sub80
d3-animate-choice,94,485074,0.0-61.0-0.11,TRUE,TRUE,TRUE,TRUE,"""event"",""trial"",""time""
""fullscreenenter"",""5"",""12304""
","
","
","""event"",""trial"",""time""
""fullscreenenter"",""5"",""12304""
","
",441.70999999996275,NA,48,NA,NA,3000,1,NA,NA,images/earth.jpg,images/tutrocket2,images/tutrocket1,null,images/tutrocket2,NA,1,practice,null,2,NA,NA,NA,sub80
d3-animate-choice,95,487546,0.0-61.0-1.11,TRUE,TRUE,TRUE,TRUE,"""event"",""trial"",""time""
""fullscreenenter"",""5"",""12304""
","
","
","""event"",""trial"",""time""
""fullscreenenter"",""5"",""12304""
","
",463.7349999999278,NA,48,NA,NA,3000,1,NA,NA,images/tutgreenplanet.jpg,images/tutalien2,images/tutalien1,images/tutrocket2,images/tutalien2,images/nothing.png,2,practice,false,2,rare,0,2020-06-17T06:50:13Z,sub80
two-step-fixation,96,488550,0.0-61.0-2.11,TRUE,TRUE,TRUE,TRUE,"""event"",""trial"",""time""
""fullscreenenter"",""5"",""12304""
","
","
","""event"",""trial"",""time""
""fullscreenenter"",""5"",""12304""
","
",NA,images/earth.jpg,NA,NA,NA,NA,NA,NA,NA,NA,NA,NA,NA,NA,NA,fixation,NA,NA,NA,NA,NA,NA,sub80
d3-animate-choice,97,492458,0.0-61.0-0.12,TRUE,TRUE,TRUE,TRUE,"""event"",""trial"",""time""
""fullscreenenter"",""5"",""12304""
","
","
","""event"",""trial"",""time""
""fullscreenenter"",""5"",""12304""
","
",1898.1849999998813,NA,48,NA,NA,3000,1,NA,NA,images/earth.jpg,images/tutrocket2,images/tutrocket1,null,images/tutrocket2,NA,1,practice,null,2,NA,NA,NA,sub80
d3-animate-choice,98,496142,0.0-61.0-1.12,TRUE,TRUE,TRUE,TRUE,"""event"",""trial"",""time""
""fullscreenenter"",""5"",""12304""
","
","
","""event"",""trial"",""time""
""fullscreenenter"",""5"",""12304""
","
",1675.0600000000559,NA,49,NA,NA,3000,1,NA,NA,images/tutgreenplanet.jpg,images/tutalien2,images/tutalien1,images/tutrocket2,images/tutalien1,images/nothing.png,2,practice,false,1,rare,0,2020-06-17T06:50:22Z,sub80
two-step-fixation,99,497145,0.0-61.0-2.12,TRUE,TRUE,TRUE,TRUE,"""event"",""trial"",""time""
""fullscreenenter"",""5"",""12304""
","
","
","""event"",""trial"",""time""
""fullscreenenter"",""5"",""12304""
","
",NA,images/earth.jpg,NA,NA,NA,NA,NA,NA,NA,NA,NA,NA,NA,NA,NA,fixation,NA,NA,NA,NA,NA,NA,sub80
d3-animate-choice,100,499956,0.0-61.0-0.13,TRUE,TRUE,TRUE,TRUE,"""event"",""trial"",""time""
""fullscreenenter"",""5"",""12304""
","
","
","""event"",""trial"",""time""
""fullscreenenter"",""5"",""12304""
","
",803.0050000000047,NA,49,NA,NA,3000,1,NA,NA,images/earth.jpg,images/tutrocket2,images/tutrocket1,null,images/tutrocket1,NA,1,practice,null,1,NA,NA,NA,sub80
d3-animate-choice,101,502993,0.0-61.0-1.13,TRUE,TRUE,TRUE,TRUE,"""event"",""trial"",""time""
""fullscreenenter"",""5"",""12304""
","
","
","""event"",""trial"",""time""
""fullscreenenter"",""5"",""12304""
","
",1027.850000000035,NA,48,NA,NA,3000,1,NA,NA,images/tutyellowplanet.jpg,images/tutalien4,images/tutalien3,images/tutrocket1,images/tutalien4,images/nothing.png,2,practice,false,2,rare,0,2020-06-17T06:50:29Z,sub80
two-step-fixation,102,503997,0.0-61.0-2.13,TRUE,TRUE,TRUE,TRUE,"""event"",""trial"",""time""
""fullscreenenter"",""5"",""12304""
","
","
","""event"",""trial"",""time""
""fullscreenenter"",""5"",""12304""
","
",NA,images/earth.jpg,NA,NA,NA,NA,NA,NA,NA,NA,NA,NA,NA,NA,NA,fixation,NA,NA,NA,NA,NA,NA,sub80
d3-animate-choice,103,506552,0.0-61.0-0.14,TRUE,TRUE,TRUE,TRUE,"""event"",""trial"",""time""
""fullscreenenter"",""5"",""12304""
","
","
","""event"",""trial"",""time""
""fullscreenenter"",""5"",""12304""
","
",546.2000000000116,NA,49,NA,NA,3000,1,NA,NA,images/earth.jpg,images/tutrocket2,images/tutrocket1,null,images/tutrocket1,NA,1,practice,null,1,NA,NA,NA,sub80
d3-animate-choice,104,510171,0.0-61.0-1.14,TRUE,TRUE,TRUE,TRUE,"""event"",""trial"",""time""
""fullscreenenter"",""5"",""12304""
","
","
","""event"",""trial"",""time""
""fullscreenenter"",""5"",""12304""
","
",1609.954999999958,NA,49,NA,NA,3000,1,NA,NA,images/tutgreenplanet.jpg,images/tutalien2,images/tutalien1,images/tutrocket1,images/tutalien1,images/t.png,2,practice,true,1,common,1,2020-06-17T06:50:36Z,sub80
two-step-fixation,105,511176,0.0-61.0-2.14,TRUE,TRUE,TRUE,TRUE,"""event"",""trial"",""time""
""fullscreenenter"",""5"",""12304""
","
","
","""event"",""trial"",""time""
""fullscreenenter"",""5"",""12304""
","
",NA,images/earth.jpg,NA,NA,NA,NA,NA,NA,NA,NA,NA,NA,NA,NA,NA,fixation,NA,NA,NA,NA,NA,NA,sub80
d3-animate-choice,106,515019,0.0-61.0-0.15,TRUE,TRUE,TRUE,TRUE,"""event"",""trial"",""time""
""fullscreenenter"",""5"",""12304""
","
","
","""event"",""trial"",""time""
""fullscreenenter"",""5"",""12304""
","
",1834.0749999999534,NA,49,NA,NA,3000,1,NA,NA,images/earth.jpg,images/tutrocket2,images/tutrocket1,null,images/tutrocket1,NA,1,practice,null,1,NA,NA,NA,sub80
d3-animate-choice,107,517584,0.0-61.0-1.15,TRUE,TRUE,TRUE,TRUE,"""event"",""trial"",""time""
""fullscreenenter"",""5"",""12304""
","
","
","""event"",""trial"",""time""
""fullscreenenter"",""5"",""12304""
","
",556.4099999999162,NA,49,NA,NA,3000,1,NA,NA,images/tutgreenplanet.jpg,images/tutalien2,images/tutalien1,images/tutrocket1,images/tutalien1,images/t.png,2,practice,true,1,common,1,2020-06-17T06:50:43Z,sub80
two-step-fixation,108,518589,0.0-61.0-2.15,TRUE,TRUE,TRUE,TRUE,"""event"",""trial"",""time""
""fullscreenenter"",""5"",""12304""
","
","
","""event"",""trial"",""time""
""fullscreenenter"",""5"",""12304""
","
",NA,images/earth.jpg,NA,NA,NA,NA,NA,NA,NA,NA,NA,NA,NA,NA,NA,fixation,NA,NA,NA,NA,NA,NA,sub80
d3-animate-choice,109,521254,0.0-61.0-0.16,TRUE,TRUE,TRUE,TRUE,"""event"",""trial"",""time""
""fullscreenenter"",""5"",""12304""
","
","
","""event"",""trial"",""time""
""fullscreenenter"",""5"",""12304""
","
",655.8250000000698,NA,49,NA,NA,3000,1,NA,NA,images/earth.jpg,images/tutrocket2,images/tutrocket1,null,images/tutrocket1,NA,1,practice,null,1,NA,NA,NA,sub80
d3-animate-choice,110,523870,0.0-61.0-1.16,TRUE,TRUE,TRUE,TRUE,"""event"",""trial"",""time""
""fullscreenenter"",""5"",""12304""
","
","
","""event"",""trial"",""time""
""fullscreenenter"",""5"",""12304""
","
",607.4150000000373,NA,49,NA,NA,3000,1,NA,NA,images/tutgreenplanet.jpg,images/tutalien2,images/tutalien1,images/tutrocket1,images/tutalien1,images/nothing.png,2,practice,true,1,common,0,2020-06-17T06:50:50Z,sub80
two-step-fixation,111,524874,0.0-61.0-2.16,TRUE,TRUE,TRUE,TRUE,"""event"",""trial"",""time""
""fullscreenenter"",""5"",""12304""
","
","
","""event"",""trial"",""time""
""fullscreenenter"",""5"",""12304""
","
",NA,images/earth.jpg,NA,NA,NA,NA,NA,NA,NA,NA,NA,NA,NA,NA,NA,fixation,NA,NA,NA,NA,NA,NA,sub80
d3-animate-choice,112,527741,0.0-61.0-0.17,TRUE,TRUE,TRUE,TRUE,"""event"",""trial"",""time""
""fullscreenenter"",""5"",""12304""
","
","
","""event"",""trial"",""time""
""fullscreenenter"",""5"",""12304""
","
",858.3349999999627,NA,48,NA,NA,3000,1,NA,NA,images/earth.jpg,images/tutrocket2,images/tutrocket1,null,images/tutrocket2,NA,1,practice,null,2,NA,NA,NA,sub80
d3-animate-choice,113,531621,0.0-61.0-1.17,TRUE,TRUE,TRUE,TRUE,"""event"",""trial"",""time""
""fullscreenenter"",""5"",""12304""
","
","
","""event"",""trial"",""time""
""fullscreenenter"",""5"",""12304""
","
",1871.0250000000233,NA,48,NA,NA,3000,1,NA,NA,images/tutgreenplanet.jpg,images/tutalien2,images/tutalien1,images/tutrocket2,images/tutalien2,images/nothing.png,2,practice,false,2,rare,0,2020-06-17T06:50:57Z,sub80
two-step-fixation,114,532625,0.0-61.0-2.17,TRUE,TRUE,TRUE,TRUE,"""event"",""trial"",""time""
""fullscreenenter"",""5"",""12304""
","
","
","""event"",""trial"",""time""
""fullscreenenter"",""5"",""12304""
","
",NA,images/earth.jpg,NA,NA,NA,NA,NA,NA,NA,NA,NA,NA,NA,NA,NA,fixation,NA,NA,NA,NA,NA,NA,sub80
d3-animate-choice,115,535742,0.0-61.0-0.18,TRUE,TRUE,TRUE,TRUE,"""event"",""trial"",""time""
""fullscreenenter"",""5"",""12304""
","
","
","""event"",""trial"",""time""
""fullscreenenter"",""5"",""12304""
","
",1108.4300000000512,NA,48,NA,NA,3000,1,NA,NA,images/earth.jpg,images/tutrocket2,images/tutrocket1,null,images/tutrocket2,NA,1,practice,null,2,NA,NA,NA,sub80
d3-animate-choice,116,538997,0.0-61.0-1.18,TRUE,TRUE,TRUE,TRUE,"""event"",""trial"",""time""
""fullscreenenter"",""5"",""12304""
","
","
","""event"",""trial"",""time""
""fullscreenenter"",""5"",""12304""
","
",1245.859999999986,NA,48,NA,NA,3000,1,NA,NA,images/tutyellowplanet.jpg,images/tutalien4,images/tutalien3,images/tutrocket2,images/tutalien4,images/nothing.png,2,practice,true,2,common,0,2020-06-17T06:51:05Z,sub80
two-step-fixation,117,540001,0.0-61.0-2.18,TRUE,TRUE,TRUE,TRUE,"""event"",""trial"",""time""
""fullscreenenter"",""5"",""12304""
","
","
","""event"",""trial"",""time""
""fullscreenenter"",""5"",""12304""
","
",NA,images/earth.jpg,NA,NA,NA,NA,NA,NA,NA,NA,NA,NA,NA,NA,NA,fixation,NA,NA,NA,NA,NA,NA,sub80
d3-animate-choice,118,542773,0.0-61.0-0.19,TRUE,TRUE,TRUE,TRUE,"""event"",""trial"",""time""
""fullscreenenter"",""5"",""12304""
","
","
","""event"",""trial"",""time""
""fullscreenenter"",""5"",""12304""
","
",762.4250000000466,NA,48,NA,NA,3000,1,NA,NA,images/earth.jpg,images/tutrocket2,images/tutrocket1,null,images/tutrocket2,NA,1,practice,null,2,NA,NA,NA,sub80
d3-animate-choice,119,546780,0.0-61.0-1.19,TRUE,TRUE,TRUE,TRUE,"""event"",""trial"",""time""
""fullscreenenter"",""5"",""12304""
","
","
","""event"",""trial"",""time""
""fullscreenenter"",""5"",""12304""
","
",2838.710000000079,NA,49,NA,NA,3000,1,NA,NA,images/tutgreenplanet.jpg,images/tutalien2,images/tutalien1,images/tutrocket2,images/tutalien1,NA,2,practice,false,1,rare,0,2020-06-17T06:51:13Z,sub80
two-step-fixation,120,547784,0.0-61.0-2.19,TRUE,TRUE,TRUE,TRUE,"""event"",""trial"",""time""
""fullscreenenter"",""5"",""12304""
","
","
","""event"",""trial"",""time""
""fullscreenenter"",""5"",""12304""
","
",NA,images/earth.jpg,NA,NA,NA,NA,NA,NA,NA,NA,NA,NA,NA,NA,NA,fixation,NA,NA,NA,NA,NA,NA,sub80
d3-instructions,121,552974,0.0-62.0,TRUE,TRUE,TRUE,TRUE,"""event"",""trial"",""time""
""fullscreenenter"",""5"",""12304""
","
","
","""event"",""trial"",""time""
""fullscreenenter"",""5"",""12304""
","
",NA,NA,NA,NA,NA,NA,NA,NA,NA,NA,NA,NA,NA,NA,NA,NA,NA,NA,NA,NA,NA,NA,sub80
audio-keyboard-response,122,554892,0.0-63.0,TRUE,TRUE,TRUE,TRUE,"""event"",""trial"",""time""
""fullscreenenter"",""5"",""12304""
","
","
","""event"",""trial"",""time""
""fullscreenenter"",""5"",""12304""
","
",1904,audio/instructions/treasure_feedback.wav,32,NA,NA,NA,NA,NA,NA,NA,NA,NA,NA,NA,NA,NA,NA,NA,NA,NA,NA,NA,sub80
d3-instructions,123,565368,0.0-64.0,TRUE,TRUE,TRUE,TRUE,"""event"",""trial"",""time""
""fullscreenenter"",""5"",""12304""
","
","
","""event"",""trial"",""time""
""fullscreenenter"",""5"",""12304""
","
",NA,NA,NA,NA,NA,NA,NA,NA,NA,NA,NA,NA,NA,NA,NA,NA,NA,NA,NA,NA,NA,NA,sub80
d3-instructions,124,579215,0.0-65.0,TRUE,TRUE,TRUE,TRUE,"""event"",""trial"",""time""
""fullscreenenter"",""5"",""12304""
","
","
","""event"",""trial"",""time""
""fullscreenenter"",""5"",""12304""
","
",NA,NA,NA,NA,NA,NA,NA,NA,NA,NA,NA,NA,NA,NA,NA,NA,NA,NA,NA,NA,NA,NA,sub80
d3-instructions,125,597820,0.0-66.0,TRUE,TRUE,TRUE,TRUE,"""event"",""trial"",""time""
""fullscreenenter"",""5"",""12304""
","
","
","""event"",""trial"",""time""
""fullscreenenter"",""5"",""12304""
","
",NA,NA,NA,NA,NA,NA,NA,NA,NA,NA,NA,NA,NA,NA,NA,NA,NA,NA,NA,NA,NA,NA,sub80
d3-instructions,126,604361,0.0-67.0,TRUE,TRUE,TRUE,TRUE,"""event"",""trial"",""time""
""fullscreenenter"",""5"",""12304""
","
","
","""event"",""trial"",""time""
""fullscreenenter"",""5"",""12304""
","
",NA,NA,NA,NA,NA,NA,NA,NA,NA,NA,NA,NA,NA,NA,NA,NA,NA,NA,NA,NA,NA,NA,sub80
d3-instructions,127,608143,0.0-68.0,TRUE,TRUE,TRUE,TRUE,"""event"",""trial"",""time""
""fullscreenenter"",""5"",""12304""
","
","
","""event"",""trial"",""time""
""fullscreenenter"",""5"",""12304""
","
",NA,NA,NA,NA,NA,NA,NA,NA,NA,NA,NA,NA,NA,NA,NA,NA,NA,NA,NA,NA,NA,NA,sub80
instructions-quiz,128,611431,0.0-69.0,TRUE,TRUE,TRUE,TRUE,"""event"",""trial"",""time""
""fullscreenenter"",""5"",""12304""
","
","
","""event"",""trial"",""time""
""fullscreenenter"",""5"",""12304""
","
",3282.6450000000186,audio/quiz/Q1_Prompt.wav,NA,1,NA,NA,NA,NA,NA,NA,NA,NA,NA,NA,NA,NA,NA,NA,NA,NA,NA,NA,sub80
audio-keyboard-response,129,617358,0.0-70.0,TRUE,TRUE,TRUE,TRUE,"""event"",""trial"",""time""
""fullscreenenter"",""5"",""12304""
","
","
","""event"",""trial"",""time""
""fullscreenenter"",""5"",""12304""
","
",5909,audio/quiz/Q1_Correct.wav,32,NA,NA,NA,NA,NA,NA,NA,NA,NA,NA,NA,NA,NA,NA,NA,NA,NA,NA,NA,sub80
instructions-quiz,130,628677,0.0-71.0,TRUE,TRUE,TRUE,TRUE,"""event"",""trial"",""time""
""fullscreenenter"",""5"",""12304""
","
","
","""event"",""trial"",""time""
""fullscreenenter"",""5"",""12304""
","
",11316.070000000065,audio/quiz/Q2_Prompt.wav,NA,0,NA,NA,NA,NA,NA,NA,NA,NA,NA,NA,NA,NA,NA,NA,NA,NA,NA,NA,sub80
audio-keyboard-response,131,629950,0.0-72.0,TRUE,TRUE,TRUE,TRUE,"""event"",""trial"",""time""
""fullscreenenter"",""5"",""12304""
","
","
","""event"",""trial"",""time""
""fullscreenenter"",""5"",""12304""
","
",1265,audio/quiz/Q2_Correct.wav,32,NA,NA,NA,NA,NA,NA,NA,NA,NA,NA,NA,NA,NA,NA,NA,NA,NA,NA,NA,sub80
instructions-quiz,132,632761,0.0-73.0,TRUE,TRUE,TRUE,TRUE,"""event"",""trial"",""time""
""fullscreenenter"",""5"",""12304""
","
","
","""event"",""trial"",""time""
""fullscreenenter"",""5"",""12304""
","
",2807.180000000051,audio/quiz/Q3_Prompt.wav,NA,1,NA,NA,NA,NA,NA,NA,NA,NA,NA,NA,NA,NA,NA,NA,NA,NA,NA,NA,sub80
audio-keyboard-response,133,633582,0.0-74.0,TRUE,TRUE,TRUE,TRUE,"""event"",""trial"",""time""
""fullscreenenter"",""5"",""12304""
","
","
","""event"",""trial"",""time""
""fullscreenenter"",""5"",""12304""
","
",813,audio/quiz/Q3_Correct.wav,32,NA,NA,NA,NA,NA,NA,NA,NA,NA,NA,NA,NA,NA,NA,NA,NA,NA,NA,NA,sub80
d3-instructions,134,636945,0.0-75.0,TRUE,TRUE,TRUE,TRUE,"""event"",""trial"",""time""
""fullscreenenter"",""5"",""12304""
","
","
","""event"",""trial"",""time""
""fullscreenenter"",""5"",""12304""
","
",NA,NA,NA,NA,NA,NA,NA,NA,NA,NA,NA,NA,NA,NA,NA,NA,NA,NA,NA,NA,NA,NA,sub80
d3-animate-choice,135,640952,0.0-76.0-0.0,TRUE,TRUE,TRUE,TRUE,"""event"",""trial"",""time""
""fullscreenenter"",""5"",""12304""
","
","
","""event"",""trial"",""time""
""fullscreenenter"",""5"",""12304""
","
",2061.429999999935,NA,49,NA,NA,3000,1,NA,NA,images/earth.jpg,images/rocket2,images/rocket1,null,images/rocket1,NA,1,real,null,1,NA,NA,NA,sub80
d3-animate-choice,136,644753,0.0-76.0-1.0,TRUE,TRUE,TRUE,TRUE,"""event"",""trial"",""time""
""fullscreenenter"",""5"",""12304""
","
","
","""event"",""trial"",""time""
""fullscreenenter"",""5"",""12304""
","
",1792.1099999998696,NA,48,NA,NA,3000,1,NA,NA,images/redplanet1.jpg,images/alien2,images/alien1,images/rocket1,images/alien2,images/nothing.png,2,real,true,2,common,0,2020-06-17T06:52:51Z,sub80
two-step-fixation,137,645757,0.0-76.0-2.0,TRUE,TRUE,TRUE,TRUE,"""event"",""trial"",""time""
""fullscreenenter"",""5"",""12304""
","
","
","""event"",""trial"",""time""
""fullscreenenter"",""5"",""12304""
","
",NA,images/earth.jpg,NA,NA,NA,NA,NA,NA,NA,NA,NA,NA,NA,NA,NA,fixation,NA,NA,NA,NA,NA,NA,sub80
d3-animate-choice,138,648261,0.0-76.0-0.1,TRUE,TRUE,TRUE,TRUE,"""event"",""trial"",""time""
""fullscreenenter"",""5"",""12304""
","
","
","""event"",""trial"",""time""
""fullscreenenter"",""5"",""12304""
","
",494.7200000002049,NA,49,NA,NA,3000,1,NA,NA,images/earth.jpg,images/rocket2,images/rocket1,null,images/rocket1,NA,1,real,null,1,NA,NA,NA,sub80
d3-animate-choice,139,652268,0.0-76.0-1.1,TRUE,TRUE,TRUE,TRUE,"""event"",""trial"",""time""
""fullscreenenter"",""5"",""12304""
","
","
","""event"",""trial"",""time""
""fullscreenenter"",""5"",""12304""
","
",2331.04999999993,NA,48,NA,NA,3000,1,NA,NA,images/redplanet1.jpg,images/alien2,images/alien1,images/rocket1,images/alien2,images/t.png,2,real,true,2,common,1,2020-06-17T06:52:58Z,sub80
two-step-fixation,140,653272,0.0-76.0-2.1,TRUE,TRUE,TRUE,TRUE,"""event"",""trial"",""time""
""fullscreenenter"",""5"",""12304""
","
","
","""event"",""trial"",""time""
""fullscreenenter"",""5"",""12304""
","
",NA,images/earth.jpg,NA,NA,NA,NA,NA,NA,NA,NA,NA,NA,NA,NA,NA,fixation,NA,NA,NA,NA,NA,NA,sub80
d3-animate-choice,141,655706,0.0-76.0-0.2,TRUE,TRUE,TRUE,TRUE,"""event"",""trial"",""time""
""fullscreenenter"",""5"",""12304""
","
","
","""event"",""trial"",""time""
""fullscreenenter"",""5"",""12304""
","
",424.86999999999534,NA,49,NA,NA,3000,1,NA,NA,images/earth.jpg,images/rocket2,images/rocket1,null,images/rocket1,NA,1,real,null,1,NA,NA,NA,sub80
d3-animate-choice,142,658442,0.0-76.0-1.2,TRUE,TRUE,TRUE,TRUE,"""event"",""trial"",""time""
""fullscreenenter"",""5"",""12304""
","
","
","""event"",""trial"",""time""
""fullscreenenter"",""5"",""12304""
","
",727.0250000001397,NA,48,NA,NA,3000,1,NA,NA,images/redplanet1.jpg,images/alien2,images/alien1,images/rocket1,images/alien2,images/t.png,2,real,true,2,common,1,2020-06-17T06:53:04Z,sub80
two-step-fixation,143,659446,0.0-76.0-2.2,TRUE,TRUE,TRUE,TRUE,"""event"",""trial"",""time""
""fullscreenenter"",""5"",""12304""
","
","
","""event"",""trial"",""time""
""fullscreenenter"",""5"",""12304""
","
",NA,images/earth.jpg,NA,NA,NA,NA,NA,NA,NA,NA,NA,NA,NA,NA,NA,fixation,NA,NA,NA,NA,NA,NA,sub80
d3-animate-choice,144,661810,0.0-76.0-0.3,TRUE,TRUE,TRUE,TRUE,"""event"",""trial"",""time""
""fullscreenenter"",""5"",""12304""
","
","
","""event"",""trial"",""time""
""fullscreenenter"",""5"",""12304""
","
",355.58500000007916,NA,49,NA,NA,3000,1,NA,NA,images/earth.jpg,images/rocket2,images/rocket1,null,images/rocket1,NA,1,real,null,1,NA,NA,NA,sub80
d3-animate-choice,145,665781,0.0-76.0-1.3,TRUE,TRUE,TRUE,TRUE,"""event"",""trial"",""time""
""fullscreenenter"",""5"",""12304""
","
","
","""event"",""trial"",""time""
""fullscreenenter"",""5"",""12304""
","
",1962.5600000001723,NA,48,NA,NA,3000,1,NA,NA,images/purpleplanet.jpg,images/alien4,images/alien3,images/rocket1,images/alien4,images/t.png,2,real,false,2,rare,1,2020-06-17T06:53:12Z,sub80
two-step-fixation,146,666785,0.0-76.0-2.3,TRUE,TRUE,TRUE,TRUE,"""event"",""trial"",""time""
""fullscreenenter"",""5"",""12304""
","
","
","""event"",""trial"",""time""
""fullscreenenter"",""5"",""12304""
","
",NA,images/earth.jpg,NA,NA,NA,NA,NA,NA,NA,NA,NA,NA,NA,NA,NA,fixation,NA,NA,NA,NA,NA,NA,sub80
d3-animate-choice,147,669183,0.0-76.0-0.4,TRUE,TRUE,TRUE,TRUE,"""event"",""trial"",""time""
""fullscreenenter"",""5"",""12304""
","
","
","""event"",""trial"",""time""
""fullscreenenter"",""5"",""12304""
","
",389.13500000012573,NA,49,NA,NA,3000,1,NA,NA,images/earth.jpg,images/rocket2,images/rocket1,null,images/rocket1,NA,1,real,null,1,NA,NA,NA,sub80
d3-animate-choice,148,672580,0.0-76.0-1.4,TRUE,TRUE,TRUE,TRUE,"""event"",""trial"",""time""
""fullscreenenter"",""5"",""12304""
","
","
","""event"",""trial"",""time""
""fullscreenenter"",""5"",""12304""
","
",1387.5200000000186,NA,48,NA,NA,3000,1,NA,NA,images/redplanet1.jpg,images/alien2,images/alien1,images/rocket1,images/alien2,images/t.png,2,real,true,2,common,1,2020-06-17T06:53:18Z,sub80
two-step-fixation,149,673584,0.0-76.0-2.4,TRUE,TRUE,TRUE,TRUE,"""event"",""trial"",""time""
""fullscreenenter"",""5"",""12304""
","
","
","""event"",""trial"",""time""
""fullscreenenter"",""5"",""12304""
","
",NA,images/earth.jpg,NA,NA,NA,NA,NA,NA,NA,NA,NA,NA,NA,NA,NA,fixation,NA,NA,NA,NA,NA,NA,sub80
d3-animate-choice,150,675995,0.0-76.0-0.5,TRUE,TRUE,TRUE,TRUE,"""event"",""trial"",""time""
""fullscreenenter"",""5"",""12304""
","
","
","""event"",""trial"",""time""
""fullscreenenter"",""5"",""12304""
","
",401.6500000000233,NA,49,NA,NA,3000,1,NA,NA,images/earth.jpg,images/rocket2,images/rocket1,null,images/rocket1,NA,1,real,null,1,NA,NA,NA,sub80
d3-animate-choice,151,678796,0.0-76.0-1.5,TRUE,TRUE,TRUE,TRUE,"""event"",""trial"",""time""
""fullscreenenter"",""5"",""12304""
","
","
","""event"",""trial"",""time""
""fullscreenenter"",""5"",""12304""
","
",791.4049999999115,NA,48,NA,NA,3000,1,NA,NA,images/redplanet1.jpg,images/alien2,images/alien1,images/rocket1,images/alien2,images/t.png,2,real,true,2,common,1,2020-06-17T06:53:25Z,sub80
two-step-fixation,152,679800,0.0-76.0-2.5,TRUE,TRUE,TRUE,TRUE,"""event"",""trial"",""time""
""fullscreenenter"",""5"",""12304""
","
","
","""event"",""trial"",""time""
""fullscreenenter"",""5"",""12304""
","
",NA,images/earth.jpg,NA,NA,NA,NA,NA,NA,NA,NA,NA,NA,NA,NA,NA,fixation,NA,NA,NA,NA,NA,NA,sub80
d3-animate-choice,153,682345,0.0-76.0-0.6,TRUE,TRUE,TRUE,TRUE,"""event"",""trial"",""time""
""fullscreenenter"",""5"",""12304""
","
","
","""event"",""trial"",""time""
""fullscreenenter"",""5"",""12304""
","
",536.2700000000186,NA,49,NA,NA,3000,1,NA,NA,images/earth.jpg,images/rocket2,images/rocket1,null,images/rocket1,NA,1,real,null,1,NA,NA,NA,sub80
d3-animate-choice,154,685013,0.0-76.0-1.6,TRUE,TRUE,TRUE,TRUE,"""event"",""trial"",""time""
""fullscreenenter"",""5"",""12304""
","
","
","""event"",""trial"",""time""
""fullscreenenter"",""5"",""12304""
","
",659.0700000001816,NA,48,NA,NA,3000,1,NA,NA,images/redplanet1.jpg,images/alien2,images/alien1,images/rocket1,images/alien2,images/nothing.png,2,real,true,2,common,0,2020-06-17T06:53:31Z,sub80
two-step-fixation,155,686017,0.0-76.0-2.6,TRUE,TRUE,TRUE,TRUE,"""event"",""trial"",""time""
""fullscreenenter"",""5"",""12304""
","
","
","""event"",""trial"",""time""
""fullscreenenter"",""5"",""12304""
","
",NA,images/earth.jpg,NA,NA,NA,NA,NA,NA,NA,NA,NA,NA,NA,NA,NA,fixation,NA,NA,NA,NA,NA,NA,sub80
d3-animate-choice,156,688384,0.0-76.0-0.7,TRUE,TRUE,TRUE,TRUE,"""event"",""trial"",""time""
""fullscreenenter"",""5"",""12304""
","
","
","""event"",""trial"",""time""
""fullscreenenter"",""5"",""12304""
","
",358.4550000000745,NA,49,NA,NA,3000,1,NA,NA,images/earth.jpg,images/rocket2,images/rocket1,null,images/rocket1,NA,1,real,null,1,NA,NA,NA,sub80
d3-animate-choice,157,691877,0.0-76.0-1.7,TRUE,TRUE,TRUE,TRUE,"""event"",""trial"",""time""
""fullscreenenter"",""5"",""12304""
","
","
","""event"",""trial"",""time""
""fullscreenenter"",""5"",""12304""
","
",1483.795000000042,NA,49,NA,NA,3000,1,NA,NA,images/redplanet1.jpg,images/alien2,images/alien1,images/rocket1,images/alien1,images/t.png,2,real,true,1,common,1,2020-06-17T06:53:38Z,sub80
two-step-fixation,158,692881,0.0-76.0-2.7,TRUE,TRUE,TRUE,TRUE,"""event"",""trial"",""time""
""fullscreenenter"",""5"",""12304""
","
","
","""event"",""trial"",""time""
""fullscreenenter"",""5"",""12304""
","
",NA,images/earth.jpg,NA,NA,NA,NA,NA,NA,NA,NA,NA,NA,NA,NA,NA,fixation,NA,NA,NA,NA,NA,NA,sub80
d3-animate-choice,159,695376,0.0-76.0-0.8,TRUE,TRUE,TRUE,TRUE,"""event"",""trial"",""time""
""fullscreenenter"",""5"",""12304""
","
","
","""event"",""trial"",""time""
""fullscreenenter"",""5"",""12304""
","
",485.79999999981374,NA,49,NA,NA,3000,1,NA,NA,images/earth.jpg,images/rocket2,images/rocket1,null,images/rocket1,NA,1,real,null,1,NA,NA,NA,sub80
d3-animate-choice,160,697971,0.0-76.0-1.8,TRUE,TRUE,TRUE,TRUE,"""event"",""trial"",""time""
""fullscreenenter"",""5"",""12304""
","
","
","""event"",""trial"",""time""
""fullscreenenter"",""5"",""12304""
","
",586.5699999999488,NA,49,NA,NA,3000,1,NA,NA,images/redplanet1.jpg,images/alien2,images/alien1,images/rocket1,images/alien1,images/nothing.png,2,real,true,1,common,0,2020-06-17T06:53:44Z,sub80
two-step-fixation,161,698975,0.0-76.0-2.8,TRUE,TRUE,TRUE,TRUE,"""event"",""trial"",""time""
""fullscreenenter"",""5"",""12304""
","
","
","""event"",""trial"",""time""
""fullscreenenter"",""5"",""12304""
","
",NA,images/earth.jpg,NA,NA,NA,NA,NA,NA,NA,NA,NA,NA,NA,NA,NA,fixation,NA,NA,NA,NA,NA,NA,sub80
d3-animate-choice,162,702220,0.0-76.0-0.9,TRUE,TRUE,TRUE,TRUE,"""event"",""trial"",""time""
""fullscreenenter"",""5"",""12304""
","
","
","""event"",""trial"",""time""
""fullscreenenter"",""5"",""12304""
","
",1234.6350000000093,NA,48,NA,NA,3000,1,NA,NA,images/earth.jpg,images/rocket2,images/rocket1,null,images/rocket2,NA,1,real,null,2,NA,NA,NA,sub80
d3-animate-choice,163,705384,0.0-76.0-1.9,TRUE,TRUE,TRUE,TRUE,"""event"",""trial"",""time""
""fullscreenenter"",""5"",""12304""
","
","
","""event"",""trial"",""time""
""fullscreenenter"",""5"",""12304""
","
",1155.7900000000373,NA,48,NA,NA,3000,1,NA,NA,images/purpleplanet.jpg,images/alien4,images/alien3,images/rocket2,images/alien4,images/nothing.png,2,real,true,2,common,0,2020-06-17T06:53:51Z,sub80
two-step-fixation,164,706388,0.0-76.0-2.9,TRUE,TRUE,TRUE,TRUE,"""event"",""trial"",""time""
""fullscreenenter"",""5"",""12304""
","
","
","""event"",""trial"",""time""
""fullscreenenter"",""5"",""12304""
","
",NA,images/earth.jpg,NA,NA,NA,NA,NA,NA,NA,NA,NA,NA,NA,NA,NA,fixation,NA,NA,NA,NA,NA,NA,sub80
d3-animate-choice,165,709186,0.0-76.0-0.10,TRUE,TRUE,TRUE,TRUE,"""event"",""trial"",""time""
""fullscreenenter"",""5"",""12304""
","
","
","""event"",""trial"",""time""
""fullscreenenter"",""5"",""12304""
","
",788.4999999998836,NA,48,NA,NA,3000,1,NA,NA,images/earth.jpg,images/rocket2,images/rocket1,null,images/rocket2,NA,1,real,null,2,NA,NA,NA,sub80
d3-animate-choice,166,712409,0.0-76.0-1.10,TRUE,TRUE,TRUE,TRUE,"""event"",""trial"",""time""
""fullscreenenter"",""5"",""12304""
","
","
","""event"",""trial"",""time""
""fullscreenenter"",""5"",""12304""
","
",1213.5149999998976,NA,49,NA,NA,3000,1,NA,NA,images/purpleplanet.jpg,images/alien4,images/alien3,images/rocket2,images/alien3,images/nothing.png,2,real,true,1,common,0,2020-06-17T06:53:58Z,sub80
two-step-fixation,167,713413,0.0-76.0-2.10,TRUE,TRUE,TRUE,TRUE,"""event"",""trial"",""time""
""fullscreenenter"",""5"",""12304""
","
","
","""event"",""trial"",""time""
""fullscreenenter"",""5"",""12304""
","
",NA,images/earth.jpg,NA,NA,NA,NA,NA,NA,NA,NA,NA,NA,NA,NA,NA,fixation,NA,NA,NA,NA,NA,NA,sub80
d3-animate-choice,168,716576,0.0-76.0-0.11,TRUE,TRUE,TRUE,TRUE,"""event"",""trial"",""time""
""fullscreenenter"",""5"",""12304""
","
","
","""event"",""trial"",""time""
""fullscreenenter"",""5"",""12304""
","
",1153.6099999998696,NA,49,NA,NA,3000,1,NA,NA,images/earth.jpg,images/rocket2,images/rocket1,null,images/rocket1,NA,1,real,null,1,NA,NA,NA,sub80
d3-animate-choice,169,720437,0.0-76.0-1.11,TRUE,TRUE,TRUE,TRUE,"""event"",""trial"",""time""
""fullscreenenter"",""5"",""12304""
","
","
","""event"",""trial"",""time""
""fullscreenenter"",""5"",""12304""
","
",1851.795000000042,NA,48,NA,NA,3000,1,NA,NA,images/purpleplanet.jpg,images/alien4,images/alien3,images/rocket1,images/alien4,images/t.png,2,real,false,2,rare,1,2020-06-17T06:54:06Z,sub80
two-step-fixation,170,721441,0.0-76.0-2.11,TRUE,TRUE,TRUE,TRUE,"""event"",""trial"",""time""
""fullscreenenter"",""5"",""12304""
","
","
","""event"",""trial"",""time""
""fullscreenenter"",""5"",""12304""
","
",NA,images/earth.jpg,NA,NA,NA,NA,NA,NA,NA,NA,NA,NA,NA,NA,NA,fixation,NA,NA,NA,NA,NA,NA,sub80
d3-animate-choice,171,723973,0.0-76.0-0.12,TRUE,TRUE,TRUE,TRUE,"""event"",""trial"",""time""
""fullscreenenter"",""5"",""12304""
","
","
","""event"",""trial"",""time""
""fullscreenenter"",""5"",""12304""
","
",521.9899999998743,NA,49,NA,NA,3000,1,NA,NA,images/earth.jpg,images/rocket2,images/rocket1,null,images/rocket1,NA,1,real,null,1,NA,NA,NA,sub80
d3-animate-choice,172,727024,0.0-76.0-1.12,TRUE,TRUE,TRUE,TRUE,"""event"",""trial"",""time""
""fullscreenenter"",""5"",""12304""
","
","
","""event"",""trial"",""time""
""fullscreenenter"",""5"",""12304""
","
",1043.8250000000698,NA,48,NA,NA,3000,1,NA,NA,images/redplanet1.jpg,images/alien2,images/alien1,images/rocket1,images/alien2,images/t.png,2,real,true,2,common,1,2020-06-17T06:54:13Z,sub80
two-step-fixation,173,728028,0.0-76.0-2.12,TRUE,TRUE,TRUE,TRUE,"""event"",""trial"",""time""
""fullscreenenter"",""5"",""12304""
","
","
","""event"",""trial"",""time""
""fullscreenenter"",""5"",""12304""
","
",NA,images/earth.jpg,NA,NA,NA,NA,NA,NA,NA,NA,NA,NA,NA,NA,NA,fixation,NA,NA,NA,NA,NA,NA,sub80
d3-animate-choice,174,730504,0.0-76.0-0.13,TRUE,TRUE,TRUE,TRUE,"""event"",""trial"",""time""
""fullscreenenter"",""5"",""12304""
","
","
","""event"",""trial"",""time""
""fullscreenenter"",""5"",""12304""
","
",466.4899999999907,NA,49,NA,NA,3000,1,NA,NA,images/earth.jpg,images/rocket2,images/rocket1,null,images/rocket1,NA,1,real,null,1,NA,NA,NA,sub80
d3-animate-choice,175,733450,0.0-76.0-1.13,TRUE,TRUE,TRUE,TRUE,"""event"",""trial"",""time""
""fullscreenenter"",""5"",""12304""
","
","
","""event"",""trial"",""time""
""fullscreenenter"",""5"",""12304""
","
",937.7899999999208,NA,48,NA,NA,3000,1,NA,NA,images/purpleplanet.jpg,images/alien4,images/alien3,images/rocket1,images/alien4,images/t.png,2,real,false,2,rare,1,2020-06-17T06:54:19Z,sub80
two-step-fixation,176,734454,0.0-76.0-2.13,TRUE,TRUE,TRUE,TRUE,"""event"",""trial"",""time""
""fullscreenenter"",""5"",""12304""
","
","
","""event"",""trial"",""time""
""fullscreenenter"",""5"",""12304""
","
",NA,images/earth.jpg,NA,NA,NA,NA,NA,NA,NA,NA,NA,NA,NA,NA,NA,fixation,NA,NA,NA,NA,NA,NA,sub80
d3-animate-choice,177,736932,0.0-76.0-0.14,TRUE,TRUE,TRUE,TRUE,"""event"",""trial"",""time""
""fullscreenenter"",""5"",""12304""
","
","
","""event"",""trial"",""time""
""fullscreenenter"",""5"",""12304""
","
",469.0200000000186,NA,49,NA,NA,3000,1,NA,NA,images/earth.jpg,images/rocket2,images/rocket1,null,images/rocket1,NA,1,real,null,1,NA,NA,NA,sub80
d3-animate-choice,178,740284,0.0-76.0-1.14,TRUE,TRUE,TRUE,TRUE,"""event"",""trial"",""time""
""fullscreenenter"",""5"",""12304""
","
","
","""event"",""trial"",""time""
""fullscreenenter"",""5"",""12304""
","
",1343.520000000135,NA,48,NA,NA,3000,1,NA,NA,images/redplanet1.jpg,images/alien2,images/alien1,images/rocket1,images/alien2,images/t.png,2,real,true,2,common,1,2020-06-17T06:54:26Z,sub80
two-step-fixation,179,741288,0.0-76.0-2.14,TRUE,TRUE,TRUE,TRUE,"""event"",""trial"",""time""
""fullscreenenter"",""5"",""12304""
","
","
","""event"",""trial"",""time""
""fullscreenenter"",""5"",""12304""
","
",NA,images/earth.jpg,NA,NA,NA,NA,NA,NA,NA,NA,NA,NA,NA,NA,NA,fixation,NA,NA,NA,NA,NA,NA,sub80
d3-animate-choice,180,743724,0.0-76.0-0.15,TRUE,TRUE,TRUE,TRUE,"""event"",""trial"",""time""
""fullscreenenter"",""5"",""12304""
","
","
","""event"",""trial"",""time""
""fullscreenenter"",""5"",""12304""
","
",425.8699999997625,NA,49,NA,NA,3000,1,NA,NA,images/earth.jpg,images/rocket2,images/rocket1,null,images/rocket1,NA,1,real,null,1,NA,NA,NA,sub80
d3-animate-choice,181,746333,0.0-76.0-1.15,TRUE,TRUE,TRUE,TRUE,"""event"",""trial"",""time""
""fullscreenenter"",""5"",""12304""
","
","
","""event"",""trial"",""time""
""fullscreenenter"",""5"",""12304""
","
",601.1600000002654,NA,48,NA,NA,3000,1,NA,NA,images/redplanet1.jpg,images/alien2,images/alien1,images/rocket1,images/alien2,images/nothing.png,2,real,true,2,common,0,2020-06-17T06:54:32Z,sub80
two-step-fixation,182,747337,0.0-76.0-2.15,TRUE,TRUE,TRUE,TRUE,"""event"",""trial"",""time""
""fullscreenenter"",""5"",""12304""
","
","
","""event"",""trial"",""time""
""fullscreenenter"",""5"",""12304""
","
",NA,images/earth.jpg,NA,NA,NA,NA,NA,NA,NA,NA,NA,NA,NA,NA,NA,fixation,NA,NA,NA,NA,NA,NA,sub80
d3-animate-choice,183,749719,0.0-76.0-0.16,TRUE,TRUE,TRUE,TRUE,"""event"",""trial"",""time""
""fullscreenenter"",""5"",""12304""
","
","
","""event"",""trial"",""time""
""fullscreenenter"",""5"",""12304""
","
",371.8300000000745,NA,49,NA,NA,3000,1,NA,NA,images/earth.jpg,images/rocket2,images/rocket1,null,images/rocket1,NA,1,real,null,1,NA,NA,NA,sub80
d3-animate-choice,184,753414,0.0-76.0-1.16,TRUE,TRUE,TRUE,TRUE,"""event"",""trial"",""time""
""fullscreenenter"",""5"",""12304""
","
","
","""event"",""trial"",""time""
""fullscreenenter"",""5"",""12304""
","
",1685.8249999999534,NA,48,NA,NA,3000,1,NA,NA,images/redplanet1.jpg,images/alien2,images/alien1,images/rocket1,images/alien2,images/nothing.png,2,real,true,2,common,0,2020-06-17T06:54:39Z,sub80
two-step-fixation,185,754418,0.0-76.0-2.16,TRUE,TRUE,TRUE,TRUE,"""event"",""trial"",""time""
""fullscreenenter"",""5"",""12304""
","
","
","""event"",""trial"",""time""
""fullscreenenter"",""5"",""12304""
","
",NA,images/earth.jpg,NA,NA,NA,NA,NA,NA,NA,NA,NA,NA,NA,NA,NA,fixation,NA,NA,NA,NA,NA,NA,sub80
d3-animate-choice,186,756905,0.0-76.0-0.17,TRUE,TRUE,TRUE,TRUE,"""event"",""trial"",""time""
""fullscreenenter"",""5"",""12304""
","
","
","""event"",""trial"",""time""
""fullscreenenter"",""5"",""12304""
","
",477.97999999986496,NA,48,NA,NA,3000,1,NA,NA,images/earth.jpg,images/rocket2,images/rocket1,null,images/rocket2,NA,1,real,null,2,NA,NA,NA,sub80
d3-animate-choice,187,759985,0.0-76.0-1.17,TRUE,TRUE,TRUE,TRUE,"""event"",""trial"",""time""
""fullscreenenter"",""5"",""12304""
","
","
","""event"",""trial"",""time""
""fullscreenenter"",""5"",""12304""
","
",1070.1650000001537,NA,48,NA,NA,3000,1,NA,NA,images/purpleplanet.jpg,images/alien4,images/alien3,images/rocket2,images/alien4,images/t.png,2,real,true,2,common,1,2020-06-17T06:54:46Z,sub80
two-step-fixation,188,760988,0.0-76.0-2.17,TRUE,TRUE,TRUE,TRUE,"""event"",""trial"",""time""
""fullscreenenter"",""5"",""12304""
","
","
","""event"",""trial"",""time""
""fullscreenenter"",""5"",""12304""
","
",NA,images/earth.jpg,NA,NA,NA,NA,NA,NA,NA,NA,NA,NA,NA,NA,NA,fixation,NA,NA,NA,NA,NA,NA,sub80
d3-animate-choice,189,763666,0.0-76.0-0.18,TRUE,TRUE,TRUE,TRUE,"""event"",""trial"",""time""
""fullscreenenter"",""5"",""12304""
","
","
","""event"",""trial"",""time""
""fullscreenenter"",""5"",""12304""
","
",667.734999999986,NA,48,NA,NA,3000,1,NA,NA,images/earth.jpg,images/rocket2,images/rocket1,null,images/rocket2,NA,1,real,null,2,NA,NA,NA,sub80
d3-animate-choice,190,766288,0.0-76.0-1.18,TRUE,TRUE,TRUE,TRUE,"""event"",""trial"",""time""
""fullscreenenter"",""5"",""12304""
","
","
","""event"",""trial"",""time""
""fullscreenenter"",""5"",""12304""
","
",612.8250000001863,NA,48,NA,NA,3000,1,NA,NA,images/purpleplanet.jpg,images/alien4,images/alien3,images/rocket2,images/alien4,images/nothing.png,2,real,true,2,common,0,2020-06-17T06:54:52Z,sub80
two-step-fixation,191,767292,0.0-76.0-2.18,TRUE,TRUE,TRUE,TRUE,"""event"",""trial"",""time""
""fullscreenenter"",""5"",""12304""
","
","
","""event"",""trial"",""time""
""fullscreenenter"",""5"",""12304""
","
",NA,images/earth.jpg,NA,NA,NA,NA,NA,NA,NA,NA,NA,NA,NA,NA,NA,fixation,NA,NA,NA,NA,NA,NA,sub80
d3-animate-choice,192,769709,0.0-76.0-0.19,TRUE,TRUE,TRUE,TRUE,"""event"",""trial"",""time""
""fullscreenenter"",""5"",""12304""
","
","
","""event"",""trial"",""time""
""fullscreenenter"",""5"",""12304""
","
",407.0199999999022,NA,49,NA,NA,3000,1,NA,NA,images/earth.jpg,images/rocket2,images/rocket1,null,images/rocket1,NA,1,real,null,1,NA,NA,NA,sub80
d3-animate-choice,193,772527,0.0-76.0-1.19,TRUE,TRUE,TRUE,TRUE,"""event"",""trial"",""time""
""fullscreenenter"",""5"",""12304""
","
","
","""event"",""trial"",""time""
""fullscreenenter"",""5"",""12304""
","
",808.9150000001537,NA,48,NA,NA,3000,1,NA,NA,images/redplanet1.jpg,images/alien2,images/alien1,images/rocket1,images/alien2,images/nothing.png,2,real,true,2,common,0,2020-06-17T06:54:58Z,sub80
two-step-fixation,194,773531,0.0-76.0-2.19,TRUE,TRUE,TRUE,TRUE,"""event"",""trial"",""time""
""fullscreenenter"",""5"",""12304""
","
","
","""event"",""trial"",""time""
""fullscreenenter"",""5"",""12304""
","
",NA,images/earth.jpg,NA,NA,NA,NA,NA,NA,NA,NA,NA,NA,NA,NA,NA,fixation,NA,NA,NA,NA,NA,NA,sub80
d3-animate-choice,195,776138,0.0-76.0-0.20,TRUE,TRUE,TRUE,TRUE,"""event"",""trial"",""time""
""fullscreenenter"",""5"",""12304""
","
","
","""event"",""trial"",""time""
""fullscreenenter"",""5"",""12304""
","
",597.4599999999627,NA,48,NA,NA,3000,1,NA,NA,images/earth.jpg,images/rocket2,images/rocket1,null,images/rocket2,NA,1,real,null,2,NA,NA,NA,sub80
d3-animate-choice,196,779026,0.0-76.0-1.20,TRUE,TRUE,TRUE,TRUE,"""event"",""trial"",""time""
""fullscreenenter"",""5"",""12304""
","
","
","""event"",""trial"",""time""
""fullscreenenter"",""5"",""12304""
","
",876.2299999997485,NA,49,NA,NA,3000,1,NA,NA,images/purpleplanet.jpg,images/alien4,images/alien3,images/rocket2,images/alien3,images/nothing.png,2,real,true,1,common,0,2020-06-17T06:55:05Z,sub80
two-step-fixation,197,780030,0.0-76.0-2.20,TRUE,TRUE,TRUE,TRUE,"""event"",""trial"",""time""
""fullscreenenter"",""5"",""12304""
","
","
","""event"",""trial"",""time""
""fullscreenenter"",""5"",""12304""
","
",NA,images/earth.jpg,NA,NA,NA,NA,NA,NA,NA,NA,NA,NA,NA,NA,NA,fixation,NA,NA,NA,NA,NA,NA,sub80
d3-animate-choice,198,783100,0.0-76.0-0.21,TRUE,TRUE,TRUE,TRUE,"""event"",""trial"",""time""
""fullscreenenter"",""5"",""12304""
","
","
","""event"",""trial"",""time""
""fullscreenenter"",""5"",""12304""
","
",1061.3700000001118,NA,49,NA,NA,3000,1,NA,NA,images/earth.jpg,images/rocket2,images/rocket1,null,images/rocket1,NA,1,real,null,1,NA,NA,NA,sub80
d3-animate-choice,199,785767,0.0-76.0-1.21,TRUE,TRUE,TRUE,TRUE,"""event"",""trial"",""time""
""fullscreenenter"",""5"",""12304""
","
","
","""event"",""trial"",""time""
""fullscreenenter"",""5"",""12304""
","
",657.6850000000559,NA,49,NA,NA,3000,1,NA,NA,images/redplanet1.jpg,images/alien2,images/alien1,images/rocket1,images/alien1,images/nothing.png,2,real,true,1,common,0,2020-06-17T06:55:12Z,sub80
two-step-fixation,200,786771,0.0-76.0-2.21,TRUE,TRUE,TRUE,TRUE,"""event"",""trial"",""time""
""fullscreenenter"",""5"",""12304""
","
","
","""event"",""trial"",""time""
""fullscreenenter"",""5"",""12304""
","
",NA,images/earth.jpg,NA,NA,NA,NA,NA,NA,NA,NA,NA,NA,NA,NA,NA,fixation,NA,NA,NA,NA,NA,NA,sub80
d3-animate-choice,201,789163,0.0-76.0-0.22,TRUE,TRUE,TRUE,TRUE,"""event"",""trial"",""time""
""fullscreenenter"",""5"",""12304""
","
","
","""event"",""trial"",""time""
""fullscreenenter"",""5"",""12304""
","
",382.3650000001071,NA,49,NA,NA,3000,1,NA,NA,images/earth.jpg,images/rocket2,images/rocket1,null,images/rocket1,NA,1,real,null,1,NA,NA,NA,sub80
d3-animate-choice,202,792031,0.0-76.0-1.22,TRUE,TRUE,TRUE,TRUE,"""event"",""trial"",""time""
""fullscreenenter"",""5"",""12304""
","
","
","""event"",""trial"",""time""
""fullscreenenter"",""5"",""12304""
","
",859.25,NA,48,NA,NA,3000,1,NA,NA,images/purpleplanet.jpg,images/alien4,images/alien3,images/rocket1,images/alien4,images/nothing.png,2,real,false,2,rare,0,2020-06-17T06:55:18Z,sub80
two-step-fixation,203,793035,0.0-76.0-2.22,TRUE,TRUE,TRUE,TRUE,"""event"",""trial"",""time""
""fullscreenenter"",""5"",""12304""
","
","
","""event"",""trial"",""time""
""fullscreenenter"",""5"",""12304""
","
",NA,images/earth.jpg,NA,NA,NA,NA,NA,NA,NA,NA,NA,NA,NA,NA,NA,fixation,NA,NA,NA,NA,NA,NA,sub80
d3-animate-choice,204,795518,0.0-76.0-0.23,TRUE,TRUE,TRUE,TRUE,"""event"",""trial"",""time""
""fullscreenenter"",""5"",""12304""
","
","
","""event"",""trial"",""time""
""fullscreenenter"",""5"",""12304""
","
",473.4900000001071,NA,48,NA,NA,3000,1,NA,NA,images/earth.jpg,images/rocket2,images/rocket1,null,images/rocket2,NA,1,real,null,2,NA,NA,NA,sub80
d3-animate-choice,205,798164,0.0-76.0-1.23,TRUE,TRUE,TRUE,TRUE,"""event"",""trial"",""time""
""fullscreenenter"",""5"",""12304""
","
","
","""event"",""trial"",""time""
""fullscreenenter"",""5"",""12304""
","
",637.359999999986,NA,48,NA,NA,3000,1,NA,NA,images/purpleplanet.jpg,images/alien4,images/alien3,images/rocket2,images/alien4,images/nothing.png,2,real,true,2,common,0,2020-06-17T06:55:24Z,sub80
two-step-fixation,206,799168,0.0-76.0-2.23,TRUE,TRUE,TRUE,TRUE,"""event"",""trial"",""time""
""fullscreenenter"",""5"",""12304""
","
","
","""event"",""trial"",""time""
""fullscreenenter"",""5"",""12304""
","
",NA,images/earth.jpg,NA,NA,NA,NA,NA,NA,NA,NA,NA,NA,NA,NA,NA,fixation,NA,NA,NA,NA,NA,NA,sub80
d3-animate-choice,207,802124,0.0-76.0-0.24,TRUE,TRUE,TRUE,TRUE,"""event"",""trial"",""time""
""fullscreenenter"",""5"",""12304""
","
","
","""event"",""trial"",""time""
""fullscreenenter"",""5"",""12304""
","
",945.8850000001257,NA,49,NA,NA,3000,1,NA,NA,images/earth.jpg,images/rocket2,images/rocket1,null,images/rocket1,NA,1,real,null,1,NA,NA,NA,sub80
d3-animate-choice,208,805007,0.0-76.0-1.24,TRUE,TRUE,TRUE,TRUE,"""event"",""trial"",""time""
""fullscreenenter"",""5"",""12304""
","
","
","""event"",""trial"",""time""
""fullscreenenter"",""5"",""12304""
","
",874.515000000014,NA,48,NA,NA,3000,1,NA,NA,images/redplanet1.jpg,images/alien2,images/alien1,images/rocket1,images/alien2,images/t.png,2,real,true,2,common,1,2020-06-17T06:55:31Z,sub80
two-step-fixation,209,806011,0.0-76.0-2.24,TRUE,TRUE,TRUE,TRUE,"""event"",""trial"",""time""
""fullscreenenter"",""5"",""12304""
","
","
","""event"",""trial"",""time""
""fullscreenenter"",""5"",""12304""
","
",NA,images/earth.jpg,NA,NA,NA,NA,NA,NA,NA,NA,NA,NA,NA,NA,NA,fixation,NA,NA,NA,NA,NA,NA,sub80
d3-animate-choice,210,808399,0.0-76.0-0.25,TRUE,TRUE,TRUE,TRUE,"""event"",""trial"",""time""
""fullscreenenter"",""5"",""12304""
","
","
","""event"",""trial"",""time""
""fullscreenenter"",""5"",""12304""
","
",379.8100000000559,NA,49,NA,NA,3000,1,NA,NA,images/earth.jpg,images/rocket2,images/rocket1,null,images/rocket1,NA,1,real,null,1,NA,NA,NA,sub80
d3-animate-choice,211,810819,0.0-76.0-1.25,TRUE,TRUE,TRUE,TRUE,"""event"",""trial"",""time""
""fullscreenenter"",""5"",""12304""
","
","
","""event"",""trial"",""time""
""fullscreenenter"",""5"",""12304""
","
",412.8100000000559,NA,48,NA,NA,3000,1,NA,NA,images/redplanet1.jpg,images/alien2,images/alien1,images/rocket1,images/alien2,images/t.png,2,real,true,2,common,1,2020-06-17T06:55:37Z,sub80
two-step-fixation,212,811823,0.0-76.0-2.25,TRUE,TRUE,TRUE,TRUE,"""event"",""trial"",""time""
""fullscreenenter"",""5"",""12304""
","
","
","""event"",""trial"",""time""
""fullscreenenter"",""5"",""12304""
","
",NA,images/earth.jpg,NA,NA,NA,NA,NA,NA,NA,NA,NA,NA,NA,NA,NA,fixation,NA,NA,NA,NA,NA,NA,sub80
d3-animate-choice,213,814207,0.0-76.0-0.26,TRUE,TRUE,TRUE,TRUE,"""event"",""trial"",""time""
""fullscreenenter"",""5"",""12304""
","
","
","""event"",""trial"",""time""
""fullscreenenter"",""5"",""12304""
","
",374.2849999999162,NA,49,NA,NA,3000,1,NA,NA,images/earth.jpg,images/rocket2,images/rocket1,null,images/rocket1,NA,1,real,null,1,NA,NA,NA,sub80
d3-animate-choice,214,816617,0.0-76.0-1.26,TRUE,TRUE,TRUE,TRUE,"""event"",""trial"",""time""
""fullscreenenter"",""5"",""12304""
","
","
","""event"",""trial"",""time""
""fullscreenenter"",""5"",""12304""
","
",401.27499999990687,NA,48,NA,NA,3000,1,NA,NA,images/redplanet1.jpg,images/alien2,images/alien1,images/rocket1,images/alien2,images/t.png,2,real,true,2,common,1,2020-06-17T06:55:42Z,sub80
two-step-fixation,215,817621,0.0-76.0-2.26,TRUE,TRUE,TRUE,TRUE,"""event"",""trial"",""time""
""fullscreenenter"",""5"",""12304""
","
","
","""event"",""trial"",""time""
""fullscreenenter"",""5"",""12304""
","
",NA,images/earth.jpg,NA,NA,NA,NA,NA,NA,NA,NA,NA,NA,NA,NA,NA,fixation,NA,NA,NA,NA,NA,NA,sub80
d3-animate-choice,216,819913,0.0-76.0-0.27,TRUE,TRUE,TRUE,TRUE,"""event"",""trial"",""time""
""fullscreenenter"",""5"",""12304""
","
","
","""event"",""trial"",""time""
""fullscreenenter"",""5"",""12304""
","
",283.32500000006985,NA,49,NA,NA,3000,1,NA,NA,images/earth.jpg,images/rocket2,images/rocket1,null,images/rocket1,NA,1,real,null,1,NA,NA,NA,sub80
d3-animate-choice,217,822499,0.0-76.0-1.27,TRUE,TRUE,TRUE,TRUE,"""event"",""trial"",""time""
""fullscreenenter"",""5"",""12304""
","
","
","""event"",""trial"",""time""
""fullscreenenter"",""5"",""12304""
","
",577.640000000014,NA,48,NA,NA,3000,1,NA,NA,images/redplanet1.jpg,images/alien2,images/alien1,images/rocket1,images/alien2,images/t.png,2,real,true,2,common,1,2020-06-17T06:55:48Z,sub80
two-step-fixation,218,823504,0.0-76.0-2.27,TRUE,TRUE,TRUE,TRUE,"""event"",""trial"",""time""
""fullscreenenter"",""5"",""12304""
","
","
","""event"",""trial"",""time""
""fullscreenenter"",""5"",""12304""
","
",NA,images/earth.jpg,NA,NA,NA,NA,NA,NA,NA,NA,NA,NA,NA,NA,NA,fixation,NA,NA,NA,NA,NA,NA,sub80
d3-animate-choice,219,825871,0.0-76.0-0.28,TRUE,TRUE,TRUE,TRUE,"""event"",""trial"",""time""
""fullscreenenter"",""5"",""12304""
","
","
","""event"",""trial"",""time""
""fullscreenenter"",""5"",""12304""
","
",357.70999999996275,NA,49,NA,NA,3000,1,NA,NA,images/earth.jpg,images/rocket2,images/rocket1,null,images/rocket1,NA,1,real,null,1,NA,NA,NA,sub80
d3-animate-choice,220,828344,0.0-76.0-1.28,TRUE,TRUE,TRUE,TRUE,"""event"",""trial"",""time""
""fullscreenenter"",""5"",""12304""
","
","
","""event"",""trial"",""time""
""fullscreenenter"",""5"",""12304""
","
",464.9099999999162,NA,48,NA,NA,3000,1,NA,NA,images/redplanet1.jpg,images/alien2,images/alien1,images/rocket1,images/alien2,images/t.png,2,real,true,2,common,1,2020-06-17T06:55:54Z,sub80
two-step-fixation,221,829349,0.0-76.0-2.28,TRUE,TRUE,TRUE,TRUE,"""event"",""trial"",""time""
""fullscreenenter"",""5"",""12304""
","
","
","""event"",""trial"",""time""
""fullscreenenter"",""5"",""12304""
","
",NA,images/earth.jpg,NA,NA,NA,NA,NA,NA,NA,NA,NA,NA,NA,NA,NA,fixation,NA,NA,NA,NA,NA,NA,sub80
d3-animate-choice,222,831849,0.0-76.0-0.29,TRUE,TRUE,TRUE,TRUE,"""event"",""trial"",""time""
""fullscreenenter"",""5"",""12304""
","
","
","""event"",""trial"",""time""
""fullscreenenter"",""5"",""12304""
","
",491.1549999999115,NA,49,NA,NA,3000,1,NA,NA,images/earth.jpg,images/rocket2,images/rocket1,null,images/rocket1,NA,1,real,null,1,NA,NA,NA,sub80
d3-animate-choice,223,834476,0.0-76.0-1.29,TRUE,TRUE,TRUE,TRUE,"""event"",""trial"",""time""
""fullscreenenter"",""5"",""12304""
","
","
","""event"",""trial"",""time""
""fullscreenenter"",""5"",""12304""
","
",617.8000000000466,NA,48,NA,NA,3000,1,NA,NA,images/redplanet1.jpg,images/alien2,images/alien1,images/rocket1,images/alien2,images/nothing.png,2,real,true,2,common,0,2020-06-17T06:56:00Z,sub80
two-step-fixation,224,835480,0.0-76.0-2.29,TRUE,TRUE,TRUE,TRUE,"""event"",""trial"",""time""
""fullscreenenter"",""5"",""12304""
","
","
","""event"",""trial"",""time""
""fullscreenenter"",""5"",""12304""
","
",NA,images/earth.jpg,NA,NA,NA,NA,NA,NA,NA,NA,NA,NA,NA,NA,NA,fixation,NA,NA,NA,NA,NA,NA,sub80
d3-animate-choice,225,838597,0.0-76.0-0.30,TRUE,TRUE,TRUE,TRUE,"""event"",""trial"",""time""
""fullscreenenter"",""5"",""12304""
","
","
","""event"",""trial"",""time""
""fullscreenenter"",""5"",""12304""
","
",1107.479999999865,NA,48,NA,NA,3000,1,NA,NA,images/earth.jpg,images/rocket2,images/rocket1,null,images/rocket2,NA,1,real,null,2,NA,NA,NA,sub80
d3-animate-choice,226,842164,0.0-76.0-1.30,TRUE,TRUE,TRUE,TRUE,"""event"",""trial"",""time""
""fullscreenenter"",""5"",""12304""
","
","
","""event"",""trial"",""time""
""fullscreenenter"",""5"",""12304""
","
",1558.7749999999069,NA,48,NA,NA,3000,1,NA,NA,images/purpleplanet.jpg,images/alien4,images/alien3,images/rocket2,images/alien4,images/nothing.png,2,real,true,2,common,0,2020-06-17T06:56:08Z,sub80
two-step-fixation,227,843168,0.0-76.0-2.30,TRUE,TRUE,TRUE,TRUE,"""event"",""trial"",""time""
""fullscreenenter"",""5"",""12304""
","
","
","""event"",""trial"",""time""
""fullscreenenter"",""5"",""12304""
","
",NA,images/earth.jpg,NA,NA,NA,NA,NA,NA,NA,NA,NA,NA,NA,NA,NA,fixation,NA,NA,NA,NA,NA,NA,sub80
d3-animate-choice,228,846267,0.0-76.0-0.31,TRUE,TRUE,TRUE,TRUE,"""event"",""trial"",""time""
""fullscreenenter"",""5"",""12304""
","
","
","""event"",""trial"",""time""
""fullscreenenter"",""5"",""12304""
","
",1087.579999999958,NA,49,NA,NA,3000,1,NA,NA,images/earth.jpg,images/rocket2,images/rocket1,null,images/rocket1,NA,1,real,null,1,NA,NA,NA,sub80
d3-animate-choice,229,848720,0.0-76.0-1.31,TRUE,TRUE,TRUE,TRUE,"""event"",""trial"",""time""
""fullscreenenter"",""5"",""12304""
","
","
","""event"",""trial"",""time""
""fullscreenenter"",""5"",""12304""
","
",444.15500000014435,NA,49,NA,NA,3000,1,NA,NA,images/redplanet1.jpg,images/alien2,images/alien1,images/rocket1,images/alien1,images/t.png,2,real,true,1,common,1,2020-06-17T06:56:15Z,sub80
two-step-fixation,230,849725,0.0-76.0-2.31,TRUE,TRUE,TRUE,TRUE,"""event"",""trial"",""time""
""fullscreenenter"",""5"",""12304""
","
","
","""event"",""trial"",""time""
""fullscreenenter"",""5"",""12304""
","
",NA,images/earth.jpg,NA,NA,NA,NA,NA,NA,NA,NA,NA,NA,NA,NA,NA,fixation,NA,NA,NA,NA,NA,NA,sub80
d3-animate-choice,231,852157,0.0-76.0-0.32,TRUE,TRUE,TRUE,TRUE,"""event"",""trial"",""time""
""fullscreenenter"",""5"",""12304""
","
","
","""event"",""trial"",""time""
""fullscreenenter"",""5"",""12304""
","
",422.1250000001164,NA,49,NA,NA,3000,1,NA,NA,images/earth.jpg,images/rocket2,images/rocket1,null,images/rocket1,NA,1,real,null,1,NA,NA,NA,sub80
d3-animate-choice,232,854545,0.0-76.0-1.32,TRUE,TRUE,TRUE,TRUE,"""event"",""trial"",""time""
""fullscreenenter"",""5"",""12304""
","
","
","""event"",""trial"",""time""
""fullscreenenter"",""5"",""12304""
","
",378.47999999986496,NA,49,NA,NA,3000,1,NA,NA,images/purpleplanet.jpg,images/alien4,images/alien3,images/rocket1,images/alien3,images/nothing.png,2,real,false,1,rare,0,2020-06-17T06:56:20Z,sub80
two-step-fixation,233,855549,0.0-76.0-2.32,TRUE,TRUE,TRUE,TRUE,"""event"",""trial"",""time""
""fullscreenenter"",""5"",""12304""
","
","
","""event"",""trial"",""time""
""fullscreenenter"",""5"",""12304""
","
",NA,images/earth.jpg,NA,NA,NA,NA,NA,NA,NA,NA,NA,NA,NA,NA,NA,fixation,NA,NA,NA,NA,NA,NA,sub80
d3-animate-choice,234,858092,0.0-76.0-0.33,TRUE,TRUE,TRUE,TRUE,"""event"",""trial"",""time""
""fullscreenenter"",""5"",""12304""
","
","
","""event"",""trial"",""time""
""fullscreenenter"",""5"",""12304""
","
",534.3850000000093,NA,49,NA,NA,3000,1,NA,NA,images/earth.jpg,images/rocket2,images/rocket1,null,images/rocket1,NA,1,real,null,1,NA,NA,NA,sub80
d3-animate-choice,235,860856,0.0-76.0-1.33,TRUE,TRUE,TRUE,TRUE,"""event"",""trial"",""time""
""fullscreenenter"",""5"",""12304""
","
","
","""event"",""trial"",""time""
""fullscreenenter"",""5"",""12304""
","
",751.6700000001583,NA,49,NA,NA,3000,1,NA,NA,images/redplanet1.jpg,images/alien2,images/alien1,images/rocket1,images/alien1,images/t.png,2,real,true,1,common,1,2020-06-17T06:56:27Z,sub80
two-step-fixation,236,861860,0.0-76.0-2.33,TRUE,TRUE,TRUE,TRUE,"""event"",""trial"",""time""
""fullscreenenter"",""5"",""12304""
","
","
","""event"",""trial"",""time""
""fullscreenenter"",""5"",""12304""
","
",NA,images/earth.jpg,NA,NA,NA,NA,NA,NA,NA,NA,NA,NA,NA,NA,NA,fixation,NA,NA,NA,NA,NA,NA,sub80
d3-animate-choice,237,864464,0.0-76.0-0.34,TRUE,TRUE,TRUE,TRUE,"""event"",""trial"",""time""
""fullscreenenter"",""5"",""12304""
","
","
","""event"",""trial"",""time""
""fullscreenenter"",""5"",""12304""
","
",594.8300000000745,NA,49,NA,NA,3000,1,NA,NA,images/earth.jpg,images/rocket2,images/rocket1,null,images/rocket1,NA,1,real,null,1,NA,NA,NA,sub80
d3-animate-choice,238,867000,0.0-76.0-1.34,TRUE,TRUE,TRUE,TRUE,"""event"",""trial"",""time""
""fullscreenenter"",""5"",""12304""
","
","
","""event"",""trial"",""time""
""fullscreenenter"",""5"",""12304""
","
",527.5600000000559,NA,49,NA,NA,3000,1,NA,NA,images/redplanet1.jpg,images/alien2,images/alien1,images/rocket1,images/alien1,images/t.png,2,real,true,1,common,1,2020-06-17T06:56:33Z,sub80
two-step-fixation,239,868005,0.0-76.0-2.34,TRUE,TRUE,TRUE,TRUE,"""event"",""trial"",""time""
""fullscreenenter"",""5"",""12304""
","
","
","""event"",""trial"",""time""
""fullscreenenter"",""5"",""12304""
","
",NA,images/earth.jpg,NA,NA,NA,NA,NA,NA,NA,NA,NA,NA,NA,NA,NA,fixation,NA,NA,NA,NA,NA,NA,sub80
d3-animate-choice,240,870421,0.0-76.0-0.35,TRUE,TRUE,TRUE,TRUE,"""event"",""trial"",""time""
""fullscreenenter"",""5"",""12304""
","
","
","""event"",""trial"",""time""
""fullscreenenter"",""5"",""12304""
","
",407.60999999998603,NA,49,NA,NA,3000,1,NA,NA,images/earth.jpg,images/rocket2,images/rocket1,null,images/rocket1,NA,1,real,null,1,NA,NA,NA,sub80
d3-animate-choice,241,872863,0.0-76.0-1.35,TRUE,TRUE,TRUE,TRUE,"""event"",""trial"",""time""
""fullscreenenter"",""5"",""12304""
","
","
","""event"",""trial"",""time""
""fullscreenenter"",""5"",""12304""
","
",432.41499999992084,NA,49,NA,NA,3000,1,NA,NA,images/redplanet1.jpg,images/alien2,images/alien1,images/rocket1,images/alien1,images/nothing.png,2,real,true,1,common,0,2020-06-17T06:56:39Z,sub80
two-step-fixation,242,873867,0.0-76.0-2.35,TRUE,TRUE,TRUE,TRUE,"""event"",""trial"",""time""
""fullscreenenter"",""5"",""12304""
","
","
","""event"",""trial"",""time""
""fullscreenenter"",""5"",""12304""
","
",NA,images/earth.jpg,NA,NA,NA,NA,NA,NA,NA,NA,NA,NA,NA,NA,NA,fixation,NA,NA,NA,NA,NA,NA,sub80
d3-animate-choice,243,876381,0.0-76.0-0.36,TRUE,TRUE,TRUE,TRUE,"""event"",""trial"",""time""
""fullscreenenter"",""5"",""12304""
","
","
","""event"",""trial"",""time""
""fullscreenenter"",""5"",""12304""
","
",506.4350000000559,NA,49,NA,NA,3000,1,NA,NA,images/earth.jpg,images/rocket2,images/rocket1,null,images/rocket1,NA,1,real,null,1,NA,NA,NA,sub80
d3-animate-choice,244,878970,0.0-76.0-1.36,TRUE,TRUE,TRUE,TRUE,"""event"",""trial"",""time""
""fullscreenenter"",""5"",""12304""
","
","
","""event"",""trial"",""time""
""fullscreenenter"",""5"",""12304""
","
",580.0249999999069,NA,48,NA,NA,3000,1,NA,NA,images/redplanet1.jpg,images/alien2,images/alien1,images/rocket1,images/alien2,images/t.png,2,real,true,2,common,1,2020-06-17T06:56:45Z,sub80
two-step-fixation,245,879974,0.0-76.0-2.36,TRUE,TRUE,TRUE,TRUE,"""event"",""trial"",""time""
""fullscreenenter"",""5"",""12304""
","
","
","""event"",""trial"",""time""
""fullscreenenter"",""5"",""12304""
","
",NA,images/earth.jpg,NA,NA,NA,NA,NA,NA,NA,NA,NA,NA,NA,NA,NA,fixation,NA,NA,NA,NA,NA,NA,sub80
d3-animate-choice,246,882319,0.0-76.0-0.37,TRUE,TRUE,TRUE,TRUE,"""event"",""trial"",""time""
""fullscreenenter"",""5"",""12304""
","
","
","""event"",""trial"",""time""
""fullscreenenter"",""5"",""12304""
","
",335.7850000000326,NA,49,NA,NA,3000,1,NA,NA,images/earth.jpg,images/rocket2,images/rocket1,null,images/rocket1,NA,1,real,null,1,NA,NA,NA,sub80
d3-animate-choice,247,884777,0.0-76.0-1.37,TRUE,TRUE,TRUE,TRUE,"""event"",""trial"",""time""
""fullscreenenter"",""5"",""12304""
","
","
","""event"",""trial"",""time""
""fullscreenenter"",""5"",""12304""
","
",450.12999999988824,NA,48,NA,NA,3000,1,NA,NA,images/redplanet1.jpg,images/alien2,images/alien1,images/rocket1,images/alien2,images/nothing.png,2,real,true,2,common,0,2020-06-17T06:56:51Z,sub80
two-step-fixation,248,885781,0.0-76.0-2.37,TRUE,TRUE,TRUE,TRUE,"""event"",""trial"",""time""
""fullscreenenter"",""5"",""12304""
","
","
","""event"",""trial"",""time""
""fullscreenenter"",""5"",""12304""
","
",NA,images/earth.jpg,NA,NA,NA,NA,NA,NA,NA,NA,NA,NA,NA,NA,NA,fixation,NA,NA,NA,NA,NA,NA,sub80
d3-animate-choice,249,888607,0.0-76.0-0.38,TRUE,TRUE,TRUE,TRUE,"""event"",""trial"",""time""
""fullscreenenter"",""5"",""12304""
","
","
","""event"",""trial"",""time""
""fullscreenenter"",""5"",""12304""
","
",816.8049999999348,NA,48,NA,NA,3000,1,NA,NA,images/earth.jpg,images/rocket2,images/rocket1,null,images/rocket2,NA,1,real,null,2,NA,NA,NA,sub80
d3-animate-choice,250,891341,0.0-76.0-1.38,TRUE,TRUE,TRUE,TRUE,"""event"",""trial"",""time""
""fullscreenenter"",""5"",""12304""
","
","
","""event"",""trial"",""time""
""fullscreenenter"",""5"",""12304""
","
",725.1749999998137,NA,48,NA,NA,3000,1,NA,NA,images/redplanet1.jpg,images/alien2,images/alien1,images/rocket2,images/alien2,images/nothing.png,2,real,false,2,rare,0,2020-06-17T06:56:57Z,sub80
two-step-fixation,251,892345,0.0-76.0-2.38,TRUE,TRUE,TRUE,TRUE,"""event"",""trial"",""time""
""fullscreenenter"",""5"",""12304""
","
","
","""event"",""trial"",""time""
""fullscreenenter"",""5"",""12304""
","
",NA,images/earth.jpg,NA,NA,NA,NA,NA,NA,NA,NA,NA,NA,NA,NA,NA,fixation,NA,NA,NA,NA,NA,NA,sub80
d3-animate-choice,252,895930,0.0-76.0-0.39,TRUE,TRUE,TRUE,TRUE,"""event"",""trial"",""time""
""fullscreenenter"",""5"",""12304""
","
","
","""event"",""trial"",""time""
""fullscreenenter"",""5"",""12304""
","
",1574.7850000000326,NA,49,NA,NA,3000,1,NA,NA,images/earth.jpg,images/rocket2,images/rocket1,null,images/rocket1,NA,1,real,null,1,NA,NA,NA,sub80
d3-animate-choice,253,899937,0.0-76.0-1.39,TRUE,TRUE,TRUE,TRUE,"""event"",""trial"",""time""
""fullscreenenter"",""5"",""12304""
","
","
","""event"",""trial"",""time""
""fullscreenenter"",""5"",""12304""
","
",2394.405000000028,NA,48,NA,NA,3000,1,NA,NA,images/purpleplanet.jpg,images/alien4,images/alien3,images/rocket1,images/alien4,images/nothing.png,2,real,false,2,rare,0,2020-06-17T06:57:06Z,sub80
two-step-fixation,254,900941,0.0-76.0-2.39,TRUE,TRUE,TRUE,TRUE,"""event"",""trial"",""time""
""fullscreenenter"",""5"",""12304""
","
","
","""event"",""trial"",""time""
""fullscreenenter"",""5"",""12304""
","
",NA,images/earth.jpg,NA,NA,NA,NA,NA,NA,NA,NA,NA,NA,NA,NA,NA,fixation,NA,NA,NA,NA,NA,NA,sub80
d3-animate-choice,255,903299,0.0-76.0-0.40,TRUE,TRUE,TRUE,TRUE,"""event"",""trial"",""time""
""fullscreenenter"",""5"",""12304""
","
","
","""event"",""trial"",""time""
""fullscreenenter"",""5"",""12304""
","
",348.44999999995343,NA,49,NA,NA,3000,1,NA,NA,images/earth.jpg,images/rocket2,images/rocket1,null,images/rocket1,NA,1,real,null,1,NA,NA,NA,sub80
d3-animate-choice,256,906298,0.0-76.0-1.40,TRUE,TRUE,TRUE,TRUE,"""event"",""trial"",""time""
""fullscreenenter"",""5"",""12304""
","
","
","""event"",""trial"",""time""
""fullscreenenter"",""5"",""12304""
","
",990.6550000000279,NA,48,NA,NA,3000,1,NA,NA,images/redplanet1.jpg,images/alien2,images/alien1,images/rocket1,images/alien2,images/t.png,2,real,true,2,common,1,2020-06-17T06:57:12Z,sub80
two-step-fixation,257,907302,0.0-76.0-2.40,TRUE,TRUE,TRUE,TRUE,"""event"",""trial"",""time""
""fullscreenenter"",""5"",""12304""
","
","
","""event"",""trial"",""time""
""fullscreenenter"",""5"",""12304""
","
",NA,images/earth.jpg,NA,NA,NA,NA,NA,NA,NA,NA,NA,NA,NA,NA,NA,fixation,NA,NA,NA,NA,NA,NA,sub80
d3-animate-choice,258,909634,0.0-76.0-0.41,TRUE,TRUE,TRUE,TRUE,"""event"",""trial"",""time""
""fullscreenenter"",""5"",""12304""
","
","
","""event"",""trial"",""time""
""fullscreenenter"",""5"",""12304""
","
",322.70999999984633,NA,49,NA,NA,3000,1,NA,NA,images/earth.jpg,images/rocket2,images/rocket1,null,images/rocket1,NA,1,real,null,1,NA,NA,NA,sub80
d3-animate-choice,259,912399,0.0-76.0-1.41,TRUE,TRUE,TRUE,TRUE,"""event"",""trial"",""time""
""fullscreenenter"",""5"",""12304""
","
","
","""event"",""trial"",""time""
""fullscreenenter"",""5"",""12304""
","
",757.625,NA,48,NA,NA,3000,1,NA,NA,images/redplanet1.jpg,images/alien2,images/alien1,images/rocket1,images/alien2,images/t.png,2,real,true,2,common,1,2020-06-17T06:57:18Z,sub80
two-step-fixation,260,913404,0.0-76.0-2.41,TRUE,TRUE,TRUE,TRUE,"""event"",""trial"",""time""
""fullscreenenter"",""5"",""12304""
","
","
","""event"",""trial"",""time""
""fullscreenenter"",""5"",""12304""
","
",NA,images/earth.jpg,NA,NA,NA,NA,NA,NA,NA,NA,NA,NA,NA,NA,NA,fixation,NA,NA,NA,NA,NA,NA,sub80
d3-animate-choice,261,915809,0.0-76.0-0.42,TRUE,TRUE,TRUE,TRUE,"""event"",""trial"",""time""
""fullscreenenter"",""5"",""12304""
","
","
","""event"",""trial"",""time""
""fullscreenenter"",""5"",""12304""
","
",395.8300000001909,NA,49,NA,NA,3000,1,NA,NA,images/earth.jpg,images/rocket2,images/rocket1,null,images/rocket1,NA,1,real,null,1,NA,NA,NA,sub80
d3-animate-choice,262,918419,0.0-76.0-1.42,TRUE,TRUE,TRUE,TRUE,"""event"",""trial"",""time""
""fullscreenenter"",""5"",""12304""
","
","
","""event"",""trial"",""time""
""fullscreenenter"",""5"",""12304""
","
",602.0200000000186,NA,48,NA,NA,3000,1,NA,NA,images/redplanet1.jpg,images/alien2,images/alien1,images/rocket1,images/alien2,images/t.png,2,real,true,2,common,1,2020-06-17T06:57:24Z,sub80
two-step-fixation,263,919424,0.0-76.0-2.42,TRUE,TRUE,TRUE,TRUE,"""event"",""trial"",""time""
""fullscreenenter"",""5"",""12304""
","
","
","""event"",""trial"",""time""
""fullscreenenter"",""5"",""12304""
","
",NA,images/earth.jpg,NA,NA,NA,NA,NA,NA,NA,NA,NA,NA,NA,NA,NA,fixation,NA,NA,NA,NA,NA,NA,sub80
d3-animate-choice,264,921852,0.0-76.0-0.43,TRUE,TRUE,TRUE,TRUE,"""event"",""trial"",""time""
""fullscreenenter"",""5"",""12304""
","
","
","""event"",""trial"",""time""
""fullscreenenter"",""5"",""12304""
","
",417.26500000001397,NA,49,NA,NA,3000,1,NA,NA,images/earth.jpg,images/rocket2,images/rocket1,null,images/rocket1,NA,1,real,null,1,NA,NA,NA,sub80
d3-animate-choice,265,924500,0.0-76.0-1.43,TRUE,TRUE,TRUE,TRUE,"""event"",""trial"",""time""
""fullscreenenter"",""5"",""12304""
","
","
","""event"",""trial"",""time""
""fullscreenenter"",""5"",""12304""
","
",642.1999999999534,NA,48,NA,NA,3000,1,NA,NA,images/redplanet1.jpg,images/alien2,images/alien1,images/rocket1,images/alien2,images/nothing.png,2,real,true,2,common,0,2020-06-17T06:57:30Z,sub80
two-step-fixation,266,925503,0.0-76.0-2.43,TRUE,TRUE,TRUE,TRUE,"""event"",""trial"",""time""
""fullscreenenter"",""5"",""12304""
","
","
","""event"",""trial"",""time""
""fullscreenenter"",""5"",""12304""
","
",NA,images/earth.jpg,NA,NA,NA,NA,NA,NA,NA,NA,NA,NA,NA,NA,NA,fixation,NA,NA,NA,NA,NA,NA,sub80
d3-animate-choice,267,927907,0.0-76.0-0.44,TRUE,TRUE,TRUE,TRUE,"""event"",""trial"",""time""
""fullscreenenter"",""5"",""12304""
","
","
","""event"",""trial"",""time""
""fullscreenenter"",""5"",""12304""
","
",399.8850000000093,NA,48,NA,NA,3000,1,NA,NA,images/earth.jpg,images/rocket2,images/rocket1,null,images/rocket2,NA,1,real,null,2,NA,NA,NA,sub80
d3-animate-choice,268,931331,0.0-76.0-1.44,TRUE,TRUE,TRUE,TRUE,"""event"",""trial"",""time""
""fullscreenenter"",""5"",""12304""
","
","
","""event"",""trial"",""time""
""fullscreenenter"",""5"",""12304""
","
",1415.7500000001164,NA,48,NA,NA,3000,1,NA,NA,images/purpleplanet.jpg,images/alien4,images/alien3,images/rocket2,images/alien4,images/t.png,2,real,true,2,common,1,2020-06-17T06:57:37Z,sub80
two-step-fixation,269,932336,0.0-76.0-2.44,TRUE,TRUE,TRUE,TRUE,"""event"",""trial"",""time""
""fullscreenenter"",""5"",""12304""
","
","
","""event"",""trial"",""time""
""fullscreenenter"",""5"",""12304""
","
",NA,images/earth.jpg,NA,NA,NA,NA,NA,NA,NA,NA,NA,NA,NA,NA,NA,fixation,NA,NA,NA,NA,NA,NA,sub80
d3-animate-choice,270,934780,0.0-76.0-0.45,TRUE,TRUE,TRUE,TRUE,"""event"",""trial"",""time""
""fullscreenenter"",""5"",""12304""
","
","
","""event"",""trial"",""time""
""fullscreenenter"",""5"",""12304""
","
",435.19999999995343,NA,48,NA,NA,3000,1,NA,NA,images/earth.jpg,images/rocket2,images/rocket1,null,images/rocket2,NA,1,real,null,2,NA,NA,NA,sub80
d3-animate-choice,271,937494,0.0-76.0-1.45,TRUE,TRUE,TRUE,TRUE,"""event"",""trial"",""time""
""fullscreenenter"",""5"",""12304""
","
","
","""event"",""trial"",""time""
""fullscreenenter"",""5"",""12304""
","
",704.1899999999441,NA,48,NA,NA,3000,1,NA,NA,images/purpleplanet.jpg,images/alien4,images/alien3,images/rocket2,images/alien4,images/t.png,2,real,true,2,common,1,2020-06-17T06:57:43Z,sub80
two-step-fixation,272,938498,0.0-76.0-2.45,TRUE,TRUE,TRUE,TRUE,"""event"",""trial"",""time""
""fullscreenenter"",""5"",""12304""
","
","
","""event"",""trial"",""time""
""fullscreenenter"",""5"",""12304""
","
",NA,images/earth.jpg,NA,NA,NA,NA,NA,NA,NA,NA,NA,NA,NA,NA,NA,fixation,NA,NA,NA,NA,NA,NA,sub80
d3-animate-choice,273,941039,0.0-76.0-0.46,TRUE,TRUE,TRUE,TRUE,"""event"",""trial"",""time""
""fullscreenenter"",""5"",""12304""
","
","
","""event"",""trial"",""time""
""fullscreenenter"",""5"",""12304""
","
",532.7150000000838,NA,48,NA,NA,3000,1,NA,NA,images/earth.jpg,images/rocket2,images/rocket1,null,images/rocket2,NA,1,real,null,2,NA,NA,NA,sub80
d3-animate-choice,274,943410,0.0-76.0-1.46,TRUE,TRUE,TRUE,TRUE,"""event"",""trial"",""time""
""fullscreenenter"",""5"",""12304""
","
","
","""event"",""trial"",""time""
""fullscreenenter"",""5"",""12304""
","
",362.3549999999814,NA,48,NA,NA,3000,1,NA,NA,images/purpleplanet.jpg,images/alien4,images/alien3,images/rocket2,images/alien4,images/t.png,2,real,true,2,common,1,2020-06-17T06:57:49Z,sub80
two-step-fixation,275,944413,0.0-76.0-2.46,TRUE,TRUE,TRUE,TRUE,"""event"",""trial"",""time""
""fullscreenenter"",""5"",""12304""
","
","
","""event"",""trial"",""time""
""fullscreenenter"",""5"",""12304""
","
",NA,images/earth.jpg,NA,NA,NA,NA,NA,NA,NA,NA,NA,NA,NA,NA,NA,fixation,NA,NA,NA,NA,NA,NA,sub80
d3-animate-choice,276,946711,0.0-76.0-0.47,TRUE,TRUE,TRUE,TRUE,"""event"",""trial"",""time""
""fullscreenenter"",""5"",""12304""
","
","
","""event"",""trial"",""time""
""fullscreenenter"",""5"",""12304""
","
",292.4000000000233,NA,48,NA,NA,3000,1,NA,NA,images/earth.jpg,images/rocket2,images/rocket1,null,images/rocket2,NA,1,real,null,2,NA,NA,NA,sub80
d3-animate-choice,277,949373,0.0-76.0-1.47,TRUE,TRUE,TRUE,TRUE,"""event"",""trial"",""time""
""fullscreenenter"",""5"",""12304""
","
","
","""event"",""trial"",""time""
""fullscreenenter"",""5"",""12304""
","
",654.2899999999208,NA,48,NA,NA,3000,1,NA,NA,images/purpleplanet.jpg,images/alien4,images/alien3,images/rocket2,images/alien4,images/t.png,2,real,true,2,common,1,2020-06-17T06:57:55Z,sub80
two-step-fixation,278,950377,0.0-76.0-2.47,TRUE,TRUE,TRUE,TRUE,"""event"",""trial"",""time""
""fullscreenenter"",""5"",""12304""
","
","
","""event"",""trial"",""time""
""fullscreenenter"",""5"",""12304""
","
",NA,images/earth.jpg,NA,NA,NA,NA,NA,NA,NA,NA,NA,NA,NA,NA,NA,fixation,NA,NA,NA,NA,NA,NA,sub80
d3-animate-choice,279,952726,0.0-76.0-0.48,TRUE,TRUE,TRUE,TRUE,"""event"",""trial"",""time""
""fullscreenenter"",""5"",""12304""
","
","
","""event"",""trial"",""time""
""fullscreenenter"",""5"",""12304""
","
",339.6250000001164,NA,48,NA,NA,3000,1,NA,NA,images/earth.jpg,images/rocket2,images/rocket1,null,images/rocket2,NA,1,real,null,2,NA,NA,NA,sub80
d3-animate-choice,280,955178,0.0-76.0-1.48,TRUE,TRUE,TRUE,TRUE,"""event"",""trial"",""time""
""fullscreenenter"",""5"",""12304""
","
","
","""event"",""trial"",""time""
""fullscreenenter"",""5"",""12304""
","
",443.70999999996275,NA,48,NA,NA,3000,1,NA,NA,images/purpleplanet.jpg,images/alien4,images/alien3,images/rocket2,images/alien4,images/nothing.png,2,real,true,2,common,0,2020-06-17T06:58:01Z,sub80
two-step-fixation,281,956183,0.0-76.0-2.48,TRUE,TRUE,TRUE,TRUE,"""event"",""trial"",""time""
""fullscreenenter"",""5"",""12304""
","
","
","""event"",""trial"",""time""
""fullscreenenter"",""5"",""12304""
","
",NA,images/earth.jpg,NA,NA,NA,NA,NA,NA,NA,NA,NA,NA,NA,NA,NA,fixation,NA,NA,NA,NA,NA,NA,sub80
d3-animate-choice,282,958528,0.0-76.0-0.49,TRUE,TRUE,TRUE,TRUE,"""event"",""trial"",""time""
""fullscreenenter"",""5"",""12304""
","
","
","""event"",""trial"",""time""
""fullscreenenter"",""5"",""12304""
","
",335.0050000001211,NA,49,NA,NA,3000,1,NA,NA,images/earth.jpg,images/rocket2,images/rocket1,null,images/rocket1,NA,1,real,null,1,NA,NA,NA,sub80
d3-animate-choice,283,961282,0.0-76.0-1.49,TRUE,TRUE,TRUE,TRUE,"""event"",""trial"",""time""
""fullscreenenter"",""5"",""12304""
","
","
","""event"",""trial"",""time""
""fullscreenenter"",""5"",""12304""
","
",747.9049999999115,NA,48,NA,NA,3000,1,NA,NA,images/redplanet1.jpg,images/alien2,images/alien1,images/rocket1,images/alien2,images/t.png,2,real,true,2,common,1,2020-06-17T06:58:07Z,sub80
two-step-fixation,284,962286,0.0-76.0-2.49,TRUE,TRUE,TRUE,TRUE,"""event"",""trial"",""time""
""fullscreenenter"",""5"",""12304""
","
","
","""event"",""trial"",""time""
""fullscreenenter"",""5"",""12304""
","
",NA,images/earth.jpg,NA,NA,NA,NA,NA,NA,NA,NA,NA,NA,NA,NA,NA,fixation,NA,NA,NA,NA,NA,NA,sub80
audio-button-response-2,285,1768132,0.0-77.0,TRUE,TRUE,TRUE,TRUE,"""event"",""trial"",""time""
""fullscreenenter"",""5"",""12304""
","
","
","""event"",""trial"",""time""
