trial_type,trial_index,time_elapsed,internal_node_id,rocket_sides,red_planet_first_rocket,red_display_order,purple_display_order,interactions,blur_events,focus_events,fullscreenenter_events,fullscreenexit_events,rt,stimulus,key_press,button_pressed,success,duration,valid_pressed,rts,keys,planet_text,right_text,left_text,center_text,chosen_text,reward_text,trial_stage,practice_trial,transition_type,choice,transition,reward,timestamp,subject_id
pavlovia,0,11,0.0-0.0,FALSE,TRUE,TRUE,FALSE,"
","
","
","
","
",NA,NA,NA,NA,NA,NA,NA,NA,NA,NA,NA,NA,NA,NA,NA,NA,NA,NA,NA,NA,NA,NA,sub1
html-keyboard-response,1,956,0.0-1.0,FALSE,TRUE,TRUE,FALSE,"
","
","
","
","
",941.6600000113249,Welcome! Press the space bar to begin.,32,NA,NA,NA,NA,NA,NA,NA,NA,NA,NA,NA,NA,NA,NA,NA,NA,NA,NA,NA,sub1
audio-keyboard-response,2,3512,0.0-2.0,FALSE,TRUE,TRUE,FALSE,"
","
","
","
","
",2444,audio/beep_loop.wav,32,NA,NA,NA,NA,NA,NA,NA,NA,NA,NA,NA,NA,NA,NA,NA,NA,NA,NA,NA,sub1
audio-button-response,3,6849,0.0-3.0,FALSE,TRUE,TRUE,FALSE,"
","
","
","
","
",NaN,audio/fish.mp3,NA,1,NA,NA,NA,NA,NA,NA,NA,NA,NA,NA,NA,NA,NA,NA,NA,NA,NA,NA,sub1
audio-button-response,4,9237,0.0-4.0,FALSE,TRUE,TRUE,FALSE,"""event"",""trial"",""time""
""fullscreenenter"",""5"",""13301""
","
","
","""event"",""trial"",""time""
""fullscreenenter"",""5"",""13301""
","
",NaN,audio/tiger.mp3,NA,4,NA,NA,NA,NA,NA,NA,NA,NA,NA,NA,NA,NA,NA,NA,NA,NA,NA,NA,sub1
fullscreen,5,13706,0.0-5.0,FALSE,TRUE,TRUE,FALSE,"""event"",""trial"",""time""
""fullscreenenter"",""5"",""13301""
","
","
","""event"",""trial"",""time""
""fullscreenenter"",""5"",""13301""
","
",NA,NA,NA,NA,TRUE,NA,NA,NA,NA,NA,NA,NA,NA,NA,NA,NA,NA,NA,NA,NA,NA,NA,sub1
d3-instructions,6,27426,0.0-6.0,FALSE,TRUE,TRUE,FALSE,"""event"",""trial"",""time""
""fullscreenenter"",""5"",""13301""
","
","
","""event"",""trial"",""time""
""fullscreenenter"",""5"",""13301""
","
",NA,NA,NA,NA,NA,NA,NA,NA,NA,NA,NA,NA,NA,NA,NA,NA,NA,NA,NA,NA,NA,NA,sub1
d3-instructions,7,35925,0.0-7.0,FALSE,TRUE,TRUE,FALSE,"""event"",""trial"",""time""
""fullscreenenter"",""5"",""13301""
","
","
","""event"",""trial"",""time""
""fullscreenenter"",""5"",""13301""
","
",NA,NA,NA,NA,NA,NA,NA,NA,NA,NA,NA,NA,NA,NA,NA,NA,NA,NA,NA,NA,NA,NA,sub1
d3-instructions,8,41791,0.0-8.0,FALSE,TRUE,TRUE,FALSE,"""event"",""trial"",""time""
""fullscreenenter"",""5"",""13301""
","
","
","""event"",""trial"",""time""
""fullscreenenter"",""5"",""13301""
","
",NA,NA,NA,NA,NA,NA,NA,NA,NA,NA,NA,NA,NA,NA,NA,NA,NA,NA,NA,NA,NA,NA,sub1
d3-instructions,9,52257,0.0-9.0,FALSE,TRUE,TRUE,FALSE,"""event"",""trial"",""time""
""fullscreenenter"",""5"",""13301""
","
","
","""event"",""trial"",""time""
""fullscreenenter"",""5"",""13301""
","
",NA,NA,NA,NA,NA,NA,NA,NA,NA,NA,NA,NA,NA,NA,NA,NA,NA,NA,NA,NA,NA,NA,sub1
d3-instructions,10,71146,0.0-10.0,FALSE,TRUE,TRUE,FALSE,"""event"",""trial"",""time""
""fullscreenenter"",""5"",""13301""
","
","
","""event"",""trial"",""time""
""fullscreenenter"",""5"",""13301""
","
",NA,NA,NA,NA,NA,NA,NA,NA,NA,NA,NA,NA,NA,NA,NA,NA,NA,NA,NA,NA,NA,NA,sub1
d3-animate-choice,11,74083,0.0-11.0,FALSE,TRUE,TRUE,FALSE,"""event"",""trial"",""time""
""fullscreenenter"",""5"",""13301""
","
","
","""event"",""trial"",""time""
""fullscreenenter"",""5"",""13301""
","
",922.6699999999255,NA,49,NA,NA,3000,1,"1673.7449998036027,2641.404999885708",4848,images/tutgreenplanet.jpg,images/tutalien1,images/tutalien2,null,images/tutalien2,NA,NA,practice,null,NA,NA,NA,NA,sub1
d3-animate-choice,12,76329,0.0-12.0,FALSE,TRUE,TRUE,FALSE,"""event"",""trial"",""time""
""fullscreenenter"",""5"",""13301""
","
","
","""event"",""trial"",""time""
""fullscreenenter"",""5"",""13301""
","
",237.7849998883903,NA,49,NA,NA,3000,1,1163.5600000154227,48,images/tutgreenplanet.jpg,images/tutalien1,images/tutalien2,null,images/tutalien2,NA,NA,practice,null,NA,NA,NA,NA,sub1
d3-animate-choice,13,78633,0.0-13.0,FALSE,TRUE,TRUE,FALSE,"""event"",""trial"",""time""
""fullscreenenter"",""5"",""13301""
","
","
","""event"",""trial"",""time""
""fullscreenenter"",""5"",""13301""
","
",296.2450000923127,NA,48,NA,NA,3000,1,NA,NA,images/tutgreenplanet.jpg,images/tutalien1,images/tutalien2,null,images/tutalien1,NA,NA,practice,null,NA,NA,NA,NA,sub1
d3-animate-choice,14,81049,0.0-14.0,FALSE,TRUE,TRUE,FALSE,"""event"",""trial"",""time""
""fullscreenenter"",""5"",""13301""
","
","
","""event"",""trial"",""time""
""fullscreenenter"",""5"",""13301""
","
",410.08999990299344,NA,48,NA,NA,3000,1,NA,NA,images/tutgreenplanet.jpg,images/tutalien1,images/tutalien2,null,images/tutalien1,NA,NA,practice,null,NA,NA,NA,NA,sub1
d3-instructions,15,86684,0.0-15.0,FALSE,TRUE,TRUE,FALSE,"""event"",""trial"",""time""
""fullscreenenter"",""5"",""13301""
","
","
","""event"",""trial"",""time""
""fullscreenenter"",""5"",""13301""
","
",NA,NA,NA,NA,NA,NA,NA,NA,NA,NA,NA,NA,NA,NA,NA,NA,NA,NA,NA,NA,NA,NA,sub1
d3-instructions,16,88856,0.0-16.0,FALSE,TRUE,TRUE,FALSE,"""event"",""trial"",""time""
""fullscreenenter"",""5"",""13301""
","
","
","""event"",""trial"",""time""
""fullscreenenter"",""5"",""13301""
","
",NA,NA,NA,NA,NA,NA,NA,NA,NA,NA,NA,NA,NA,NA,NA,NA,NA,NA,NA,NA,NA,NA,sub1
d3-instructions,17,97644,0.0-17.0,FALSE,TRUE,TRUE,FALSE,"""event"",""trial"",""time""
""fullscreenenter"",""5"",""13301""
","
","
","""event"",""trial"",""time""
""fullscreenenter"",""5"",""13301""
","
",NA,NA,NA,NA,NA,NA,NA,NA,NA,NA,NA,NA,NA,NA,NA,NA,NA,NA,NA,NA,NA,NA,sub1
d3-instructions,18,109297,0.0-18.0,FALSE,TRUE,TRUE,FALSE,"""event"",""trial"",""time""
""fullscreenenter"",""5"",""13301""
","
","
","""event"",""trial"",""time""
""fullscreenenter"",""5"",""13301""
","
",NA,NA,NA,NA,NA,NA,NA,NA,NA,NA,NA,NA,NA,NA,NA,NA,NA,NA,NA,NA,NA,NA,sub1
d3-instructions,19,121724,0.0-19.0,FALSE,TRUE,TRUE,FALSE,"""event"",""trial"",""time""
""fullscreenenter"",""5"",""13301""
","
","
","""event"",""trial"",""time""
""fullscreenenter"",""5"",""13301""
","
",NA,NA,NA,NA,NA,NA,NA,NA,NA,NA,NA,NA,NA,NA,NA,NA,NA,NA,NA,NA,NA,NA,sub1
d3-animate-choice,20,124570,0.0-20.0,FALSE,TRUE,TRUE,FALSE,"""event"",""trial"",""time""
""fullscreenenter"",""5"",""13301""
","
","
","""event"",""trial"",""time""
""fullscreenenter"",""5"",""13301""
","
",838.5450001806021,NA,49,NA,NA,3000,1,NA,NA,images/tutyellowplanet.jpg,null,images/tutalien3,null,images/tutalien3,images/t.png,NA,practice,null,NA,NA,NA,NA,sub1
d3-animate-choice,21,127558,0.0-21.0,FALSE,TRUE,TRUE,FALSE,"""event"",""trial"",""time""
""fullscreenenter"",""5"",""13301""
","
","
","""event"",""trial"",""time""
""fullscreenenter"",""5"",""13301""
","
",982.869999948889,NA,49,NA,NA,3000,1,NA,NA,images/tutyellowplanet.jpg,null,images/tutalien3,null,images/tutalien3,images/t.png,NA,practice,null,NA,NA,NA,NA,sub1
d3-animate-choice,22,130050,0.0-22.0,FALSE,TRUE,TRUE,FALSE,"""event"",""trial"",""time""
""fullscreenenter"",""5"",""13301""
","
","
","""event"",""trial"",""time""
""fullscreenenter"",""5"",""13301""
","
",485.99499999545515,NA,49,NA,NA,3000,1,NA,NA,images/tutyellowplanet.jpg,null,images/tutalien3,null,images/tutalien3,images/nothing.png,NA,practice,null,NA,NA,NA,NA,sub1
d3-animate-choice,23,132912,0.0-23.0,FALSE,TRUE,TRUE,FALSE,"""event"",""trial"",""time""
""fullscreenenter"",""5"",""13301""
","
","
","""event"",""trial"",""time""
""fullscreenenter"",""5"",""13301""
","
",857.2799998801202,NA,49,NA,NA,3000,1,NA,NA,images/tutyellowplanet.jpg,null,images/tutalien3,null,images/tutalien3,images/t.png,NA,practice,null,NA,NA,NA,NA,sub1
d3-animate-choice,24,135211,0.0-24.0,FALSE,TRUE,TRUE,FALSE,"""event"",""trial"",""time""
""fullscreenenter"",""5"",""13301""
","
","
","""event"",""trial"",""time""
""fullscreenenter"",""5"",""13301""
","
",291.6550000663847,NA,49,NA,NA,3000,1,NA,NA,images/tutyellowplanet.jpg,null,images/tutalien3,null,images/tutalien3,images/t.png,NA,practice,null,NA,NA,NA,NA,sub1
d3-animate-choice,25,137457,0.0-25.0,FALSE,TRUE,TRUE,FALSE,"""event"",""trial"",""time""
""fullscreenenter"",""5"",""13301""
","
","
","""event"",""trial"",""time""
""fullscreenenter"",""5"",""13301""
","
",243.3449998497963,NA,49,NA,NA,3000,1,1794.0700000617653,49,images/tutyellowplanet.jpg,null,images/tutalien3,null,images/tutalien3,images/t.png,NA,practice,null,NA,NA,NA,NA,sub1
d3-animate-choice,26,139820,0.0-26.0,FALSE,TRUE,TRUE,FALSE,"""event"",""trial"",""time""
""fullscreenenter"",""5"",""13301""
","
","
","""event"",""trial"",""time""
""fullscreenenter"",""5"",""13301""
","
",355.9450001921505,NA,49,NA,NA,3000,1,NA,NA,images/tutyellowplanet.jpg,null,images/tutalien3,null,images/tutalien3,images/t.png,NA,practice,null,NA,NA,NA,NA,sub1
d3-animate-choice,27,142102,0.0-27.0,FALSE,TRUE,TRUE,FALSE,"""event"",""trial"",""time""
""fullscreenenter"",""5"",""13301""
","
","
","""event"",""trial"",""time""
""fullscreenenter"",""5"",""13301""
","
",276.2799998745322,NA,49,NA,NA,3000,1,NA,NA,images/tutyellowplanet.jpg,null,images/tutalien3,null,images/tutalien3,images/t.png,NA,practice,null,NA,NA,NA,NA,sub1
d3-animate-choice,28,144417,0.0-28.0,FALSE,TRUE,TRUE,FALSE,"""event"",""trial"",""time""
""fullscreenenter"",""5"",""13301""
","
","
","""event"",""trial"",""time""
""fullscreenenter"",""5"",""13301""
","
",307.6500000897795,NA,49,NA,NA,3000,1,NA,NA,images/tutyellowplanet.jpg,null,images/tutalien3,null,images/tutalien3,images/t.png,NA,practice,null,NA,NA,NA,NA,sub1
d3-animate-choice,29,146716,0.0-29.0,FALSE,TRUE,TRUE,FALSE,"""event"",""trial"",""time""
""fullscreenenter"",""5"",""13301""
","
","
","""event"",""trial"",""time""
""fullscreenenter"",""5"",""13301""
","
",293.37000008672476,NA,49,NA,NA,3000,1,NA,NA,images/tutyellowplanet.jpg,null,images/tutalien3,null,images/tutalien3,images/nothing.png,NA,practice,null,NA,NA,NA,NA,sub1
d3-instructions,30,149769,0.0-30.0,FALSE,TRUE,TRUE,FALSE,"""event"",""trial"",""time""
""fullscreenenter"",""5"",""13301""
","
","
","""event"",""trial"",""time""
""fullscreenenter"",""5"",""13301""
","
",NA,NA,NA,NA,NA,NA,NA,NA,NA,NA,NA,NA,NA,NA,NA,NA,NA,NA,NA,NA,NA,NA,sub1
d3-instructions,31,160213,0.0-31.0,FALSE,TRUE,TRUE,FALSE,"""event"",""trial"",""time""
""fullscreenenter"",""5"",""13301""
","
","
","""event"",""trial"",""time""
""fullscreenenter"",""5"",""13301""
","
",NA,NA,NA,NA,NA,NA,NA,NA,NA,NA,NA,NA,NA,NA,NA,NA,NA,NA,NA,NA,NA,NA,sub1
d3-instructions,32,167414,0.0-32.0,FALSE,TRUE,TRUE,FALSE,"""event"",""trial"",""time""
""fullscreenenter"",""5"",""13301""
","
","
","""event"",""trial"",""time""
""fullscreenenter"",""5"",""13301""
","
",NA,NA,NA,NA,NA,NA,NA,NA,NA,NA,NA,NA,NA,NA,NA,NA,NA,NA,NA,NA,NA,NA,sub1
d3-instructions,33,170874,0.0-33.0,FALSE,TRUE,TRUE,FALSE,"""event"",""trial"",""time""
""fullscreenenter"",""5"",""13301""
","
","
","""event"",""trial"",""time""
""fullscreenenter"",""5"",""13301""
","
",NA,NA,NA,NA,NA,NA,NA,NA,NA,NA,NA,NA,NA,NA,NA,NA,NA,NA,NA,NA,NA,NA,sub1
d3-animate-choice,34,174164,0.0-34.0,FALSE,TRUE,TRUE,FALSE,"""event"",""trial"",""time""
""fullscreenenter"",""5"",""13301""
","
","
","""event"",""trial"",""time""
""fullscreenenter"",""5"",""13301""
","
",1285.6850000098348,NA,49,NA,NA,3000,1,NA,NA,images/tutgreenplanet.jpg,images/tutalien1,images/tutalien2,null,images/tutalien2,images/nothing.png,NA,practice,null,NA,NA,NA,NA,sub1
d3-animate-choice,35,176672,0.0-35.0,FALSE,TRUE,TRUE,FALSE,"""event"",""trial"",""time""
""fullscreenenter"",""5"",""13301""
","
","
","""event"",""trial"",""time""
""fullscreenenter"",""5"",""13301""
","
",504.5799999497831,NA,48,NA,NA,3000,1,NA,NA,images/tutgreenplanet.jpg,images/tutalien1,images/tutalien2,null,images/tutalien1,images/nothing.png,NA,practice,null,NA,NA,NA,NA,sub1
d3-animate-choice,36,178976,0.0-36.0,FALSE,TRUE,TRUE,FALSE,"""event"",""trial"",""time""
""fullscreenenter"",""5"",""13301""
","
","
","""event"",""trial"",""time""
""fullscreenenter"",""5"",""13301""
","
",298.3599998988211,NA,49,NA,NA,3000,1,NA,NA,images/tutgreenplanet.jpg,images/tutalien1,images/tutalien2,null,images/tutalien2,images/t.png,NA,practice,null,NA,NA,NA,NA,sub1
d3-animate-choice,37,181234,0.0-37.0,FALSE,TRUE,TRUE,FALSE,"""event"",""trial"",""time""
""fullscreenenter"",""5"",""13301""
","
","
","""event"",""trial"",""time""
""fullscreenenter"",""5"",""13301""
","
",250.19500008784235,NA,49,NA,NA,3000,1,NA,NA,images/tutgreenplanet.jpg,images/tutalien1,images/tutalien2,null,images/tutalien2,images/t.png,NA,practice,null,NA,NA,NA,NA,sub1
d3-animate-choice,38,183523,0.0-38.0,FALSE,TRUE,TRUE,FALSE,"""event"",""trial"",""time""
""fullscreenenter"",""5"",""13301""
","
","
","""event"",""trial"",""time""
""fullscreenenter"",""5"",""13301""
","
",284.31000001728535,NA,49,NA,NA,3000,1,NA,NA,images/tutgreenplanet.jpg,images/tutalien1,images/tutalien2,null,images/tutalien2,images/t.png,NA,practice,null,NA,NA,NA,NA,sub1
d3-animate-choice,39,185820,0.0-39.0,FALSE,TRUE,TRUE,FALSE,"""event"",""trial"",""time""
""fullscreenenter"",""5"",""13301""
","
","
","""event"",""trial"",""time""
""fullscreenenter"",""5"",""13301""
","
",292.7800000179559,NA,49,NA,NA,3000,1,NA,NA,images/tutgreenplanet.jpg,images/tutalien1,images/tutalien2,null,images/tutalien2,images/t.png,NA,practice,null,NA,NA,NA,NA,sub1
d3-animate-choice,40,188101,0.0-40.0,FALSE,TRUE,TRUE,FALSE,"""event"",""trial"",""time""
""fullscreenenter"",""5"",""13301""
","
","
","""event"",""trial"",""time""
""fullscreenenter"",""5"",""13301""
","
",272.7250000461936,NA,49,NA,NA,3000,1,NA,NA,images/tutgreenplanet.jpg,images/tutalien1,images/tutalien2,null,images/tutalien2,images/t.png,NA,practice,null,NA,NA,NA,NA,sub1
d3-animate-choice,41,190383,0.0-41.0,FALSE,TRUE,TRUE,FALSE,"""event"",""trial"",""time""
""fullscreenenter"",""5"",""13301""
","
","
","""event"",""trial"",""time""
""fullscreenenter"",""5"",""13301""
","
",273.90000014565885,NA,49,NA,NA,3000,1,NA,NA,images/tutgreenplanet.jpg,images/tutalien1,images/tutalien2,null,images/tutalien2,images/t.png,NA,practice,null,NA,NA,NA,NA,sub1
d3-animate-choice,42,192687,0.0-42.0,FALSE,TRUE,TRUE,FALSE,"""event"",""trial"",""time""
""fullscreenenter"",""5"",""13301""
","
","
","""event"",""trial"",""time""
""fullscreenenter"",""5"",""13301""
","
",299.64999994263053,NA,49,NA,NA,3000,1,NA,NA,images/tutgreenplanet.jpg,images/tutalien1,images/tutalien2,null,images/tutalien2,images/t.png,NA,practice,null,NA,NA,NA,NA,sub1
d3-animate-choice,43,194928,0.0-43.0,FALSE,TRUE,TRUE,FALSE,"""event"",""trial"",""time""
""fullscreenenter"",""5"",""13301""
","
","
","""event"",""trial"",""time""
""fullscreenenter"",""5"",""13301""
","
",236.66499997489154,NA,49,NA,NA,3000,1,NA,NA,images/tutgreenplanet.jpg,images/tutalien1,images/tutalien2,null,images/tutalien2,images/t.png,NA,practice,null,NA,NA,NA,NA,sub1
d3-instructions,44,206955,0.0-44.0,FALSE,TRUE,TRUE,FALSE,"""event"",""trial"",""time""
""fullscreenenter"",""5"",""13301""
","
","
","""event"",""trial"",""time""
""fullscreenenter"",""5"",""13301""
","
",NA,NA,NA,NA,NA,NA,NA,NA,NA,NA,NA,NA,NA,NA,NA,NA,NA,NA,NA,NA,NA,NA,sub1
d3-instructions,45,210121,0.0-45.0,FALSE,TRUE,TRUE,FALSE,"""event"",""trial"",""time""
""fullscreenenter"",""5"",""13301""
","
","
","""event"",""trial"",""time""
""fullscreenenter"",""5"",""13301""
","
",NA,NA,NA,NA,NA,NA,NA,NA,NA,NA,NA,NA,NA,NA,NA,NA,NA,NA,NA,NA,NA,NA,sub1
d3-instructions,46,217442,0.0-46.0,FALSE,TRUE,TRUE,FALSE,"""event"",""trial"",""time""
""fullscreenenter"",""5"",""13301""
","
","
","""event"",""trial"",""time""
""fullscreenenter"",""5"",""13301""
","
",NA,NA,NA,NA,NA,NA,NA,NA,NA,NA,NA,NA,NA,NA,NA,NA,NA,NA,NA,NA,NA,NA,sub1
d3-instructions,47,242073,0.0-47.0,FALSE,TRUE,TRUE,FALSE,"""event"",""trial"",""time""
""fullscreenenter"",""5"",""13301""
","
","
","""event"",""trial"",""time""
""fullscreenenter"",""5"",""13301""
","
",NA,NA,NA,NA,NA,NA,NA,NA,NA,NA,NA,NA,NA,NA,NA,NA,NA,NA,NA,NA,NA,NA,sub1
d3-instructions,48,247180,0.0-48.0,FALSE,TRUE,TRUE,FALSE,"""event"",""trial"",""time""
""fullscreenenter"",""5"",""13301""
","
","
","""event"",""trial"",""time""
""fullscreenenter"",""5"",""13301""
","
",NA,NA,NA,NA,NA,NA,NA,NA,NA,NA,NA,NA,NA,NA,NA,NA,NA,NA,NA,NA,NA,NA,sub1
d3-instructions,49,253241,0.0-49.0,FALSE,TRUE,TRUE,FALSE,"""event"",""trial"",""time""
""fullscreenenter"",""5"",""13301""
","
","
","""event"",""trial"",""time""
""fullscreenenter"",""5"",""13301""
","
",NA,NA,NA,NA,NA,NA,NA,NA,NA,NA,NA,NA,NA,NA,NA,NA,NA,NA,NA,NA,NA,NA,sub1
d3-instructions,50,256760,0.0-50.0,FALSE,TRUE,TRUE,FALSE,"""event"",""trial"",""time""
""fullscreenenter"",""5"",""13301""
","
","
","""event"",""trial"",""time""
""fullscreenenter"",""5"",""13301""
","
",NA,NA,NA,NA,NA,NA,NA,NA,NA,NA,NA,NA,NA,NA,NA,NA,NA,NA,NA,NA,NA,NA,sub1
d3-instructions,51,259230,0.0-51.0,FALSE,TRUE,TRUE,FALSE,"""event"",""trial"",""time""
""fullscreenenter"",""5"",""13301""
","
","
","""event"",""trial"",""time""
""fullscreenenter"",""5"",""13301""
","
",NA,NA,NA,NA,NA,NA,NA,NA,NA,NA,NA,NA,NA,NA,NA,NA,NA,NA,NA,NA,NA,NA,sub1
d3-instructions,52,261355,0.0-52.0,FALSE,TRUE,TRUE,FALSE,"""event"",""trial"",""time""
""fullscreenenter"",""5"",""13301""
","
","
","""event"",""trial"",""time""
""fullscreenenter"",""5"",""13301""
","
",NA,NA,NA,NA,NA,NA,NA,NA,NA,NA,NA,NA,NA,NA,NA,NA,NA,NA,NA,NA,NA,NA,sub1
d3-instructions,53,270488,0.0-53.0,FALSE,TRUE,TRUE,FALSE,"""event"",""trial"",""time""
""fullscreenenter"",""5"",""13301""
","
","
","""event"",""trial"",""time""
""fullscreenenter"",""5"",""13301""
","
",NA,NA,NA,NA,NA,NA,NA,NA,NA,NA,NA,NA,NA,NA,NA,NA,NA,NA,NA,NA,NA,NA,sub1
d3-instructions,54,279488,0.0-54.0,FALSE,TRUE,TRUE,FALSE,"""event"",""trial"",""time""
""fullscreenenter"",""5"",""13301""
","
","
","""event"",""trial"",""time""
""fullscreenenter"",""5"",""13301""
","
",NA,NA,NA,NA,NA,NA,NA,NA,NA,NA,NA,NA,NA,NA,NA,NA,NA,NA,NA,NA,NA,NA,sub1
d3-instructions,55,283697,0.0-55.0,FALSE,TRUE,TRUE,FALSE,"""event"",""trial"",""time""
""fullscreenenter"",""5"",""13301""
","
","
","""event"",""trial"",""time""
""fullscreenenter"",""5"",""13301""
","
",NA,NA,NA,NA,NA,NA,NA,NA,NA,NA,NA,NA,NA,NA,NA,NA,NA,NA,NA,NA,NA,NA,sub1
d3-instructions,56,289612,0.0-56.0,FALSE,TRUE,TRUE,FALSE,"""event"",""trial"",""time""
""fullscreenenter"",""5"",""13301""
","
","
","""event"",""trial"",""time""
""fullscreenenter"",""5"",""13301""
","
",NA,NA,NA,NA,NA,NA,NA,NA,NA,NA,NA,NA,NA,NA,NA,NA,NA,NA,NA,NA,NA,NA,sub1
d3-instructions,57,310088,0.0-57.0,FALSE,TRUE,TRUE,FALSE,"""event"",""trial"",""time""
""fullscreenenter"",""5"",""13301""
","
","
","""event"",""trial"",""time""
""fullscreenenter"",""5"",""13301""
","
",NA,NA,NA,NA,NA,NA,NA,NA,NA,NA,NA,NA,NA,NA,NA,NA,NA,NA,NA,NA,NA,NA,sub1
d3-instructions,58,315357,0.0-58.0,FALSE,TRUE,TRUE,FALSE,"""event"",""trial"",""time""
""fullscreenenter"",""5"",""13301""
","
","
","""event"",""trial"",""time""
""fullscreenenter"",""5"",""13301""
","
",NA,NA,NA,NA,NA,NA,NA,NA,NA,NA,NA,NA,NA,NA,NA,NA,NA,NA,NA,NA,NA,NA,sub1
d3-instructions,59,318915,0.0-59.0,FALSE,TRUE,TRUE,FALSE,"""event"",""trial"",""time""
""fullscreenenter"",""5"",""13301""
","
","
","""event"",""trial"",""time""
""fullscreenenter"",""5"",""13301""
","
",NA,NA,NA,NA,NA,NA,NA,NA,NA,NA,NA,NA,NA,NA,NA,NA,NA,NA,NA,NA,NA,NA,sub1
d3-instructions,60,322241,0.0-60.0,FALSE,TRUE,TRUE,FALSE,"""event"",""trial"",""time""
""fullscreenenter"",""5"",""13301""
","
","
","""event"",""trial"",""time""
""fullscreenenter"",""5"",""13301""
","
",NA,NA,NA,NA,NA,NA,NA,NA,NA,NA,NA,NA,NA,NA,NA,NA,NA,NA,NA,NA,NA,NA,sub1
d3-animate-choice,61,324819,0.0-61.0-0.0,FALSE,TRUE,TRUE,FALSE,"""event"",""trial"",""time""
""fullscreenenter"",""5"",""13301""
","
","
","""event"",""trial"",""time""
""fullscreenenter"",""5"",""13301""
","
",572.8400000371039,NA,49,NA,NA,3000,1,NA,NA,images/earth.jpg,images/tutrocket2,images/tutrocket1,null,images/tutrocket1,NA,1,practice,null,1,NA,NA,NA,sub1
d3-animate-choice,62,327841,0.0-61.0-1.0,FALSE,TRUE,TRUE,FALSE,"""event"",""trial"",""time""
""fullscreenenter"",""5"",""13301""
","
","
","""event"",""trial"",""time""
""fullscreenenter"",""5"",""13301""
","
",1014.0799998771399,NA,48,NA,NA,3000,1,NA,NA,images/tutyellowplanet.jpg,images/tutalien4,images/tutalien3,images/tutrocket1,images/tutalien4,images/nothing.png,2,practice,false,2,rare,0,2020-06-09T18:12:11Z,sub1
two-step-fixation,63,328851,0.0-61.0-2.0,FALSE,TRUE,TRUE,FALSE,"""event"",""trial"",""time""
""fullscreenenter"",""5"",""13301""
","
","
","""event"",""trial"",""time""
""fullscreenenter"",""5"",""13301""
","
",NA,images/earth.jpg,NA,NA,NA,NA,NA,NA,NA,NA,NA,NA,NA,NA,NA,fixation,NA,NA,NA,NA,NA,NA,sub1
d3-animate-choice,64,332342,0.0-61.0-0.1,FALSE,TRUE,TRUE,FALSE,"""event"",""trial"",""time""
""fullscreenenter"",""5"",""13301""
","
","
","""event"",""trial"",""time""
""fullscreenenter"",""5"",""13301""
","
",1481.4100000075996,NA,48,NA,NA,3000,1,NA,NA,images/earth.jpg,images/tutrocket2,images/tutrocket1,null,images/tutrocket2,NA,1,practice,null,2,NA,NA,NA,sub1
d3-animate-choice,65,335136,0.0-61.0-1.1,FALSE,TRUE,TRUE,FALSE,"""event"",""trial"",""time""
""fullscreenenter"",""5"",""13301""
","
","
","""event"",""trial"",""time""
""fullscreenenter"",""5"",""13301""
","
",785.1400000508875,NA,49,NA,NA,3000,1,NA,NA,images/tutyellowplanet.jpg,images/tutalien4,images/tutalien3,images/tutrocket2,images/tutalien3,images/t.png,2,practice,true,1,common,1,2020-06-09T18:12:18Z,sub1
two-step-fixation,66,336145,0.0-61.0-2.1,FALSE,TRUE,TRUE,FALSE,"""event"",""trial"",""time""
""fullscreenenter"",""5"",""13301""
","
","
","""event"",""trial"",""time""
""fullscreenenter"",""5"",""13301""
","
",NA,images/earth.jpg,NA,NA,NA,NA,NA,NA,NA,NA,NA,NA,NA,NA,NA,fixation,NA,NA,NA,NA,NA,NA,sub1
d3-animate-choice,67,339186,0.0-61.0-0.2,FALSE,TRUE,TRUE,FALSE,"""event"",""trial"",""time""
""fullscreenenter"",""5"",""13301""
","
","
","""event"",""trial"",""time""
""fullscreenenter"",""5"",""13301""
","
",1037.379999877885,NA,48,NA,NA,3000,1,NA,NA,images/earth.jpg,images/tutrocket2,images/tutrocket1,null,images/tutrocket2,NA,1,practice,null,2,NA,NA,NA,sub1
d3-animate-choice,68,342246,0.0-61.0-1.2,FALSE,TRUE,TRUE,FALSE,"""event"",""trial"",""time""
""fullscreenenter"",""5"",""13301""
","
","
","""event"",""trial"",""time""
""fullscreenenter"",""5"",""13301""
","
",1055.455000139773,NA,49,NA,NA,3000,1,NA,NA,images/tutgreenplanet.jpg,images/tutalien2,images/tutalien1,images/tutrocket2,images/tutalien1,images/nothing.png,2,practice,false,1,rare,0,2020-06-09T18:12:25Z,sub1
two-step-fixation,69,343250,0.0-61.0-2.2,FALSE,TRUE,TRUE,FALSE,"""event"",""trial"",""time""
""fullscreenenter"",""5"",""13301""
","
","
","""event"",""trial"",""time""
""fullscreenenter"",""5"",""13301""
","
",NA,images/earth.jpg,NA,NA,NA,NA,NA,NA,NA,NA,NA,NA,NA,NA,NA,fixation,NA,NA,NA,NA,NA,NA,sub1
d3-animate-choice,70,346366,0.0-61.0-0.3,FALSE,TRUE,TRUE,FALSE,"""event"",""trial"",""time""
""fullscreenenter"",""5"",""13301""
","
","
","""event"",""trial"",""time""
""fullscreenenter"",""5"",""13301""
","
",1107.164999935776,NA,48,NA,NA,3000,1,NA,NA,images/earth.jpg,images/tutrocket2,images/tutrocket1,null,images/tutrocket2,NA,1,practice,null,2,NA,NA,NA,sub1
d3-animate-choice,71,349820,0.0-61.0-1.3,FALSE,TRUE,TRUE,FALSE,"""event"",""trial"",""time""
""fullscreenenter"",""5"",""13301""
","
","
","""event"",""trial"",""time""
""fullscreenenter"",""5"",""13301""
","
",1447.829999960959,NA,48,NA,NA,3000,1,NA,NA,images/tutgreenplanet.jpg,images/tutalien2,images/tutalien1,images/tutrocket2,images/tutalien2,images/nothing.png,2,practice,false,2,rare,0,2020-06-09T18:12:33Z,sub1
two-step-fixation,72,350825,0.0-61.0-2.3,FALSE,TRUE,TRUE,FALSE,"""event"",""trial"",""time""
""fullscreenenter"",""5"",""13301""
","
","
","""event"",""trial"",""time""
""fullscreenenter"",""5"",""13301""
","
",NA,images/earth.jpg,NA,NA,NA,NA,NA,NA,NA,NA,NA,NA,NA,NA,NA,fixation,NA,NA,NA,NA,NA,NA,sub1
d3-animate-choice,73,353132,0.0-61.0-0.4,FALSE,TRUE,TRUE,FALSE,"""event"",""trial"",""time""
""fullscreenenter"",""5"",""13301""
","
","
","""event"",""trial"",""time""
""fullscreenenter"",""5"",""13301""
","
",300.87499995715916,NA,49,NA,NA,3000,1,NA,NA,images/earth.jpg,images/tutrocket2,images/tutrocket1,null,images/tutrocket1,NA,1,practice,null,1,NA,NA,NA,sub1
d3-animate-choice,74,356256,0.0-61.0-1.4,FALSE,TRUE,TRUE,FALSE,"""event"",""trial"",""time""
""fullscreenenter"",""5"",""13301""
","
","
","""event"",""trial"",""time""
""fullscreenenter"",""5"",""13301""
","
",1116.4949999656528,NA,49,NA,NA,3000,1,NA,NA,images/tutgreenplanet.jpg,images/tutalien2,images/tutalien1,images/tutrocket1,images/tutalien1,images/nothing.png,2,practice,true,1,common,0,2020-06-09T18:12:39Z,sub1
two-step-fixation,75,357260,0.0-61.0-2.4,FALSE,TRUE,TRUE,FALSE,"""event"",""trial"",""time""
""fullscreenenter"",""5"",""13301""
","
","
","""event"",""trial"",""time""
""fullscreenenter"",""5"",""13301""
","
",NA,images/earth.jpg,NA,NA,NA,NA,NA,NA,NA,NA,NA,NA,NA,NA,NA,fixation,NA,NA,NA,NA,NA,NA,sub1
d3-animate-choice,76,359836,0.0-61.0-0.5,FALSE,TRUE,TRUE,FALSE,"""event"",""trial"",""time""
""fullscreenenter"",""5"",""13301""
","
","
","""event"",""trial"",""time""
""fullscreenenter"",""5"",""13301""
","
",569.4200000725687,NA,49,NA,NA,3000,1,NA,NA,images/earth.jpg,images/tutrocket2,images/tutrocket1,null,images/tutrocket1,NA,1,practice,null,1,NA,NA,NA,sub1
d3-animate-choice,77,363500,0.0-61.0-1.5,FALSE,TRUE,TRUE,FALSE,"""event"",""trial"",""time""
""fullscreenenter"",""5"",""13301""
","
","
","""event"",""trial"",""time""
""fullscreenenter"",""5"",""13301""
","
",1657.799999928102,NA,48,NA,NA,3000,1,NA,NA,images/tutyellowplanet.jpg,images/tutalien4,images/tutalien3,images/tutrocket1,images/tutalien4,images/t.png,2,practice,false,2,rare,1,2020-06-09T18:12:47Z,sub1
two-step-fixation,78,364506,0.0-61.0-2.5,FALSE,TRUE,TRUE,FALSE,"""event"",""trial"",""time""
""fullscreenenter"",""5"",""13301""
","
","
","""event"",""trial"",""time""
""fullscreenenter"",""5"",""13301""
","
",NA,images/earth.jpg,NA,NA,NA,NA,NA,NA,NA,NA,NA,NA,NA,NA,NA,fixation,NA,NA,NA,NA,NA,NA,sub1
d3-animate-choice,79,367494,0.0-61.0-0.6,FALSE,TRUE,TRUE,FALSE,"""event"",""trial"",""time""
""fullscreenenter"",""5"",""13301""
","
","
","""event"",""trial"",""time""
""fullscreenenter"",""5"",""13301""
","
",983.4749998990446,NA,48,NA,NA,3000,1,NA,NA,images/earth.jpg,images/tutrocket2,images/tutrocket1,null,images/tutrocket2,NA,1,practice,null,2,NA,NA,NA,sub1
d3-animate-choice,80,370913,0.0-61.0-1.6,FALSE,TRUE,TRUE,FALSE,"""event"",""trial"",""time""
""fullscreenenter"",""5"",""13301""
","
","
","""event"",""trial"",""time""
""fullscreenenter"",""5"",""13301""
","
",1409.4249999616295,NA,48,NA,NA,3000,1,NA,NA,images/tutyellowplanet.jpg,images/tutalien4,images/tutalien3,images/tutrocket2,images/tutalien4,images/t.png,2,practice,true,2,common,1,2020-06-09T18:12:54Z,sub1
two-step-fixation,81,371922,0.0-61.0-2.6,FALSE,TRUE,TRUE,FALSE,"""event"",""trial"",""time""
""fullscreenenter"",""5"",""13301""
","
","
","""event"",""trial"",""time""
""fullscreenenter"",""5"",""13301""
","
",NA,images/earth.jpg,NA,NA,NA,NA,NA,NA,NA,NA,NA,NA,NA,NA,NA,fixation,NA,NA,NA,NA,NA,NA,sub1
d3-animate-choice,82,374245,0.0-61.0-0.7,FALSE,TRUE,TRUE,FALSE,"""event"",""trial"",""time""
""fullscreenenter"",""5"",""13301""
","
","
","""event"",""trial"",""time""
""fullscreenenter"",""5"",""13301""
","
",315.0100000202656,NA,49,NA,NA,3000,1,NA,NA,images/earth.jpg,images/tutrocket2,images/tutrocket1,null,images/tutrocket1,NA,1,practice,null,1,NA,NA,NA,sub1
d3-animate-choice,83,377706,0.0-61.0-1.7,FALSE,TRUE,TRUE,FALSE,"""event"",""trial"",""time""
""fullscreenenter"",""5"",""13301""
","
","
","""event"",""trial"",""time""
""fullscreenenter"",""5"",""13301""
","
",1453.6900001112372,NA,49,NA,NA,3000,1,NA,NA,images/tutgreenplanet.jpg,images/tutalien2,images/tutalien1,images/tutrocket1,images/tutalien1,images/t.png,2,practice,true,1,common,1,2020-06-09T18:13:01Z,sub1
two-step-fixation,84,378714,0.0-61.0-2.7,FALSE,TRUE,TRUE,FALSE,"""event"",""trial"",""time""
""fullscreenenter"",""5"",""13301""
","
","
","""event"",""trial"",""time""
""fullscreenenter"",""5"",""13301""
","
",NA,images/earth.jpg,NA,NA,NA,NA,NA,NA,NA,NA,NA,NA,NA,NA,NA,fixation,NA,NA,NA,NA,NA,NA,sub1
d3-animate-choice,85,381235,0.0-61.0-0.8,FALSE,TRUE,TRUE,FALSE,"""event"",""trial"",""time""
""fullscreenenter"",""5"",""13301""
","
","
","""event"",""trial"",""time""
""fullscreenenter"",""5"",""13301""
","
",513.3650000207126,NA,48,NA,NA,3000,1,NA,NA,images/earth.jpg,images/tutrocket2,images/tutrocket1,null,images/tutrocket2,NA,1,practice,null,2,NA,NA,NA,sub1
d3-animate-choice,86,384198,0.0-61.0-1.8,FALSE,TRUE,TRUE,FALSE,"""event"",""trial"",""time""
""fullscreenenter"",""5"",""13301""
","
","
","""event"",""trial"",""time""
""fullscreenenter"",""5"",""13301""
","
",958.1199998501688,NA,48,NA,NA,3000,1,NA,NA,images/tutyellowplanet.jpg,images/tutalien4,images/tutalien3,images/tutrocket2,images/tutalien4,images/nothing.png,2,practice,true,2,common,0,2020-06-09T18:13:07Z,sub1
two-step-fixation,87,385203,0.0-61.0-2.8,FALSE,TRUE,TRUE,FALSE,"""event"",""trial"",""time""
""fullscreenenter"",""5"",""13301""
","
","
","""event"",""trial"",""time""
""fullscreenenter"",""5"",""13301""
","
",NA,images/earth.jpg,NA,NA,NA,NA,NA,NA,NA,NA,NA,NA,NA,NA,NA,fixation,NA,NA,NA,NA,NA,NA,sub1
d3-animate-choice,88,387663,0.0-61.0-0.9,FALSE,TRUE,TRUE,FALSE,"""event"",""trial"",""time""
""fullscreenenter"",""5"",""13301""
","
","
","""event"",""trial"",""time""
""fullscreenenter"",""5"",""13301""
","
",453.3100000116974,NA,49,NA,NA,3000,1,NA,NA,images/earth.jpg,images/tutrocket2,images/tutrocket1,null,images/tutrocket1,NA,1,practice,null,1,NA,NA,NA,sub1
d3-animate-choice,89,391358,0.0-61.0-1.9,FALSE,TRUE,TRUE,FALSE,"""event"",""trial"",""time""
""fullscreenenter"",""5"",""13301""
","
","
","""event"",""trial"",""time""
""fullscreenenter"",""5"",""13301""
","
",1690.2250000275671,NA,49,NA,NA,3000,1,NA,NA,images/tutyellowplanet.jpg,images/tutalien4,images/tutalien3,images/tutrocket1,images/tutalien3,images/nothing.png,2,practice,false,1,rare,0,2020-06-09T18:13:14Z,sub1
two-step-fixation,90,392364,0.0-61.0-2.9,FALSE,TRUE,TRUE,FALSE,"""event"",""trial"",""time""
""fullscreenenter"",""5"",""13301""
","
","
","""event"",""trial"",""time""
""fullscreenenter"",""5"",""13301""
","
",NA,images/earth.jpg,NA,NA,NA,NA,NA,NA,NA,NA,NA,NA,NA,NA,NA,fixation,NA,NA,NA,NA,NA,NA,sub1
d3-animate-choice,91,394906,0.0-61.0-0.10,FALSE,TRUE,TRUE,FALSE,"""event"",""trial"",""time""
""fullscreenenter"",""5"",""13301""
","
","
","""event"",""trial"",""time""
""fullscreenenter"",""5"",""13301""
","
",536.7300000507385,NA,48,NA,NA,3000,1,NA,NA,images/earth.jpg,images/tutrocket2,images/tutrocket1,null,images/tutrocket2,NA,1,practice,null,2,NA,NA,NA,sub1
d3-animate-choice,92,398337,0.0-61.0-1.10,FALSE,TRUE,TRUE,FALSE,"""event"",""trial"",""time""
""fullscreenenter"",""5"",""13301""
","
","
","""event"",""trial"",""time""
""fullscreenenter"",""5"",""13301""
","
",1425.519999815151,NA,48,NA,NA,3000,1,NA,NA,images/tutyellowplanet.jpg,images/tutalien4,images/tutalien3,images/tutrocket2,images/tutalien4,images/t.png,2,practice,true,2,common,1,2020-06-09T18:13:21Z,sub1
two-step-fixation,93,399341,0.0-61.0-2.10,FALSE,TRUE,TRUE,FALSE,"""event"",""trial"",""time""
""fullscreenenter"",""5"",""13301""
","
","
","""event"",""trial"",""time""
""fullscreenenter"",""5"",""13301""
","
",NA,images/earth.jpg,NA,NA,NA,NA,NA,NA,NA,NA,NA,NA,NA,NA,NA,fixation,NA,NA,NA,NA,NA,NA,sub1
d3-animate-choice,94,401732,0.0-61.0-0.11,FALSE,TRUE,TRUE,FALSE,"""event"",""trial"",""time""
""fullscreenenter"",""5"",""13301""
","
","
","""event"",""trial"",""time""
""fullscreenenter"",""5"",""13301""
","
",386.8849999271333,NA,49,NA,NA,3000,1,NA,NA,images/earth.jpg,images/tutrocket2,images/tutrocket1,null,images/tutrocket1,NA,1,practice,null,1,NA,NA,NA,sub1
d3-animate-choice,95,404641,0.0-61.0-1.11,FALSE,TRUE,TRUE,FALSE,"""event"",""trial"",""time""
""fullscreenenter"",""5"",""13301""
","
","
","""event"",""trial"",""time""
""fullscreenenter"",""5"",""13301""
","
",903.8749998435378,NA,48,NA,NA,3000,1,NA,NA,images/tutyellowplanet.jpg,images/tutalien4,images/tutalien3,images/tutrocket1,images/tutalien4,images/nothing.png,2,practice,false,2,rare,0,2020-06-09T18:13:28Z,sub1
two-step-fixation,96,405646,0.0-61.0-2.11,FALSE,TRUE,TRUE,FALSE,"""event"",""trial"",""time""
""fullscreenenter"",""5"",""13301""
","
","
","""event"",""trial"",""time""
""fullscreenenter"",""5"",""13301""
","
",NA,images/earth.jpg,NA,NA,NA,NA,NA,NA,NA,NA,NA,NA,NA,NA,NA,fixation,NA,NA,NA,NA,NA,NA,sub1
d3-animate-choice,97,408548,0.0-61.0-0.12,FALSE,TRUE,TRUE,FALSE,"""event"",""trial"",""time""
""fullscreenenter"",""5"",""13301""
","
","
","""event"",""trial"",""time""
""fullscreenenter"",""5"",""13301""
","
",896.0949999745935,NA,48,NA,NA,3000,1,NA,NA,images/earth.jpg,images/tutrocket2,images/tutrocket1,null,images/tutrocket2,NA,1,practice,null,2,NA,NA,NA,sub1
d3-animate-choice,98,411779,0.0-61.0-1.12,FALSE,TRUE,TRUE,FALSE,"""event"",""trial"",""time""
""fullscreenenter"",""5"",""13301""
","
","
","""event"",""trial"",""time""
""fullscreenenter"",""5"",""13301""
","
",1226.3249999377877,NA,49,NA,NA,3000,1,NA,NA,images/tutgreenplanet.jpg,images/tutalien2,images/tutalien1,images/tutrocket2,images/tutalien1,images/t.png,2,practice,false,1,rare,1,2020-06-09T18:13:35Z,sub1
two-step-fixation,99,412785,0.0-61.0-2.12,FALSE,TRUE,TRUE,FALSE,"""event"",""trial"",""time""
""fullscreenenter"",""5"",""13301""
","
","
","""event"",""trial"",""time""
""fullscreenenter"",""5"",""13301""
","
",NA,images/earth.jpg,NA,NA,NA,NA,NA,NA,NA,NA,NA,NA,NA,NA,NA,fixation,NA,NA,NA,NA,NA,NA,sub1
d3-animate-choice,100,415578,0.0-61.0-0.13,FALSE,TRUE,TRUE,FALSE,"""event"",""trial"",""time""
""fullscreenenter"",""5"",""13301""
","
","
","""event"",""trial"",""time""
""fullscreenenter"",""5"",""13301""
","
",788.4450000710785,NA,48,NA,NA,3000,1,NA,NA,images/earth.jpg,images/tutrocket2,images/tutrocket1,null,images/tutrocket2,NA,1,practice,null,2,NA,NA,NA,sub1
d3-animate-choice,101,418622,0.0-61.0-1.13,FALSE,TRUE,TRUE,FALSE,"""event"",""trial"",""time""
""fullscreenenter"",""5"",""13301""
","
","
","""event"",""trial"",""time""
""fullscreenenter"",""5"",""13301""
","
",1039.6600000094622,NA,48,NA,NA,3000,1,NA,NA,images/tutyellowplanet.jpg,images/tutalien4,images/tutalien3,images/tutrocket2,images/tutalien4,images/t.png,2,practice,true,2,common,1,2020-06-09T18:13:42Z,sub1
two-step-fixation,102,419627,0.0-61.0-2.13,FALSE,TRUE,TRUE,FALSE,"""event"",""trial"",""time""
""fullscreenenter"",""5"",""13301""
","
","
","""event"",""trial"",""time""
""fullscreenenter"",""5"",""13301""
","
",NA,images/earth.jpg,NA,NA,NA,NA,NA,NA,NA,NA,NA,NA,NA,NA,NA,fixation,NA,NA,NA,NA,NA,NA,sub1
d3-animate-choice,103,422053,0.0-61.0-0.14,FALSE,TRUE,TRUE,FALSE,"""event"",""trial"",""time""
""fullscreenenter"",""5"",""13301""
","
","
","""event"",""trial"",""time""
""fullscreenenter"",""5"",""13301""
","
",422.61500004678965,NA,49,NA,NA,3000,1,NA,NA,images/earth.jpg,images/tutrocket2,images/tutrocket1,null,images/tutrocket1,NA,1,practice,null,1,NA,NA,NA,sub1
d3-animate-choice,104,425581,0.0-61.0-1.14,FALSE,TRUE,TRUE,FALSE,"""event"",""trial"",""time""
""fullscreenenter"",""5"",""13301""
","
","
","""event"",""trial"",""time""
""fullscreenenter"",""5"",""13301""
","
",1522.4349999334663,NA,49,NA,NA,3000,1,NA,NA,images/tutyellowplanet.jpg,images/tutalien4,images/tutalien3,images/tutrocket1,images/tutalien3,images/nothing.png,2,practice,false,1,rare,0,2020-06-09T18:13:49Z,sub1
two-step-fixation,105,426587,0.0-61.0-2.14,FALSE,TRUE,TRUE,FALSE,"""event"",""trial"",""time""
""fullscreenenter"",""5"",""13301""
","
","
","""event"",""trial"",""time""
""fullscreenenter"",""5"",""13301""
","
",NA,images/earth.jpg,NA,NA,NA,NA,NA,NA,NA,NA,NA,NA,NA,NA,NA,fixation,NA,NA,NA,NA,NA,NA,sub1
d3-animate-choice,106,428935,0.0-61.0-0.15,FALSE,TRUE,TRUE,FALSE,"""event"",""trial"",""time""
""fullscreenenter"",""5"",""13301""
","
","
","""event"",""trial"",""time""
""fullscreenenter"",""5"",""13301""
","
",342.38000004552305,NA,48,NA,NA,3000,1,NA,NA,images/earth.jpg,images/tutrocket2,images/tutrocket1,null,images/tutrocket2,NA,1,practice,null,2,NA,NA,NA,sub1
d3-animate-choice,107,431832,0.0-61.0-1.15,FALSE,TRUE,TRUE,FALSE,"""event"",""trial"",""time""
""fullscreenenter"",""5"",""13301""
","
","
","""event"",""trial"",""time""
""fullscreenenter"",""5"",""13301""
","
",891.2100000306964,NA,49,NA,NA,3000,1,NA,NA,images/tutgreenplanet.jpg,images/tutalien2,images/tutalien1,images/tutrocket2,images/tutalien1,images/nothing.png,2,practice,false,1,rare,0,2020-06-09T18:13:55Z,sub1
two-step-fixation,108,432838,0.0-61.0-2.15,FALSE,TRUE,TRUE,FALSE,"""event"",""trial"",""time""
""fullscreenenter"",""5"",""13301""
","
","
","""event"",""trial"",""time""
""fullscreenenter"",""5"",""13301""
","
",NA,images/earth.jpg,NA,NA,NA,NA,NA,NA,NA,NA,NA,NA,NA,NA,NA,fixation,NA,NA,NA,NA,NA,NA,sub1
d3-animate-choice,109,435170,0.0-61.0-0.16,FALSE,TRUE,TRUE,FALSE,"""event"",""trial"",""time""
""fullscreenenter"",""5"",""13301""
","
","
","""event"",""trial"",""time""
""fullscreenenter"",""5"",""13301""
","
",326.1400000192225,NA,49,NA,NA,3000,1,NA,NA,images/earth.jpg,images/tutrocket2,images/tutrocket1,null,images/tutrocket1,NA,1,practice,null,1,NA,NA,NA,sub1
d3-animate-choice,110,438298,0.0-61.0-1.16,FALSE,TRUE,TRUE,FALSE,"""event"",""trial"",""time""
""fullscreenenter"",""5"",""13301""
","
","
","""event"",""trial"",""time""
""fullscreenenter"",""5"",""13301""
","
",1123.1900001876056,NA,49,NA,NA,3000,1,NA,NA,images/tutgreenplanet.jpg,images/tutalien2,images/tutalien1,images/tutrocket1,images/tutalien1,images/t.png,2,practice,true,1,common,1,2020-06-09T18:14:01Z,sub1
two-step-fixation,111,439303,0.0-61.0-2.16,FALSE,TRUE,TRUE,FALSE,"""event"",""trial"",""time""
""fullscreenenter"",""5"",""13301""
","
","
","""event"",""trial"",""time""
""fullscreenenter"",""5"",""13301""
","
",NA,images/earth.jpg,NA,NA,NA,NA,NA,NA,NA,NA,NA,NA,NA,NA,NA,fixation,NA,NA,NA,NA,NA,NA,sub1
d3-animate-choice,112,442273,0.0-61.0-0.17,FALSE,TRUE,TRUE,FALSE,"""event"",""trial"",""time""
""fullscreenenter"",""5"",""13301""
","
","
","""event"",""trial"",""time""
""fullscreenenter"",""5"",""13301""
","
",965.1850000955164,NA,49,NA,NA,3000,1,NA,NA,images/earth.jpg,images/tutrocket2,images/tutrocket1,null,images/tutrocket1,NA,1,practice,null,1,NA,NA,NA,sub1
d3-animate-choice,113,445033,0.0-61.0-1.17,FALSE,TRUE,TRUE,FALSE,"""event"",""trial"",""time""
""fullscreenenter"",""5"",""13301""
","
","
","""event"",""trial"",""time""
""fullscreenenter"",""5"",""13301""
","
",753.2999999821186,NA,49,NA,NA,3000,1,NA,NA,images/tutgreenplanet.jpg,images/tutalien2,images/tutalien1,images/tutrocket1,images/tutalien1,images/nothing.png,2,practice,true,1,common,0,2020-06-09T18:14:08Z,sub1
two-step-fixation,114,446038,0.0-61.0-2.17,FALSE,TRUE,TRUE,FALSE,"""event"",""trial"",""time""
""fullscreenenter"",""5"",""13301""
","
","
","""event"",""trial"",""time""
""fullscreenenter"",""5"",""13301""
","
",NA,images/earth.jpg,NA,NA,NA,NA,NA,NA,NA,NA,NA,NA,NA,NA,NA,fixation,NA,NA,NA,NA,NA,NA,sub1
d3-animate-choice,115,448504,0.0-61.0-0.18,FALSE,TRUE,TRUE,FALSE,"""event"",""trial"",""time""
""fullscreenenter"",""5"",""13301""
","
","
","""event"",""trial"",""time""
""fullscreenenter"",""5"",""13301""
","
",460.02999995835125,NA,48,NA,NA,3000,1,NA,NA,images/earth.jpg,images/tutrocket2,images/tutrocket1,null,images/tutrocket2,NA,1,practice,null,2,NA,NA,NA,sub1
d3-animate-choice,116,451263,0.0-61.0-1.18,FALSE,TRUE,TRUE,FALSE,"""event"",""trial"",""time""
""fullscreenenter"",""5"",""13301""
","
","
","""event"",""trial"",""time""
""fullscreenenter"",""5"",""13301""
","
",747.8549999650568,NA,48,NA,NA,3000,1,NA,NA,images/tutyellowplanet.jpg,images/tutalien4,images/tutalien3,images/tutrocket2,images/tutalien4,images/t.png,2,practice,true,2,common,1,2020-06-09T18:14:14Z,sub1
two-step-fixation,117,452271,0.0-61.0-2.18,FALSE,TRUE,TRUE,FALSE,"""event"",""trial"",""time""
""fullscreenenter"",""5"",""13301""
","
","
","""event"",""trial"",""time""
""fullscreenenter"",""5"",""13301""
","
",NA,images/earth.jpg,NA,NA,NA,NA,NA,NA,NA,NA,NA,NA,NA,NA,NA,fixation,NA,NA,NA,NA,NA,NA,sub1
d3-animate-choice,118,454621,0.0-61.0-0.19,FALSE,TRUE,TRUE,FALSE,"""event"",""trial"",""time""
""fullscreenenter"",""5"",""13301""
","
","
","""event"",""trial"",""time""
""fullscreenenter"",""5"",""13301""
","
",345.97000014036894,NA,49,NA,NA,3000,1,NA,NA,images/earth.jpg,images/tutrocket2,images/tutrocket1,null,images/tutrocket1,NA,1,practice,null,1,NA,NA,NA,sub1
d3-animate-choice,119,457418,0.0-61.0-1.19,FALSE,TRUE,TRUE,FALSE,"""event"",""trial"",""time""
""fullscreenenter"",""5"",""13301""
","
","
","""event"",""trial"",""time""
""fullscreenenter"",""5"",""13301""
","
",789.8549998644739,NA,48,NA,NA,3000,1,NA,NA,images/tutyellowplanet.jpg,images/tutalien4,images/tutalien3,images/tutrocket1,images/tutalien4,images/t.png,2,practice,false,2,rare,1,2020-06-09T18:14:20Z,sub1
two-step-fixation,120,458425,0.0-61.0-2.19,FALSE,TRUE,TRUE,FALSE,"""event"",""trial"",""time""
""fullscreenenter"",""5"",""13301""
","
","
","""event"",""trial"",""time""
""fullscreenenter"",""5"",""13301""
","
",NA,images/earth.jpg,NA,NA,NA,NA,NA,NA,NA,NA,NA,NA,NA,NA,NA,fixation,NA,NA,NA,NA,NA,NA,sub1
d3-instructions,121,461212,0.0-62.0,FALSE,TRUE,TRUE,FALSE,"""event"",""trial"",""time""
""fullscreenenter"",""5"",""13301""
","
","
","""event"",""trial"",""time""
""fullscreenenter"",""5"",""13301""
","
",NA,NA,NA,NA,NA,NA,NA,NA,NA,NA,NA,NA,NA,NA,NA,NA,NA,NA,NA,NA,NA,NA,sub1
audio-keyboard-response,122,463362,0.0-63.0,FALSE,TRUE,TRUE,FALSE,"""event"",""trial"",""time""
""fullscreenenter"",""5"",""13301""
","
","
","""event"",""trial"",""time""
""fullscreenenter"",""5"",""13301""
","
",2148,audio/instructions/treasure_feedback.wav,32,NA,NA,NA,NA,NA,NA,NA,NA,NA,NA,NA,NA,NA,NA,NA,NA,NA,NA,NA,sub1
d3-instructions,123,470941,0.0-64.0,FALSE,TRUE,TRUE,FALSE,"""event"",""trial"",""time""
""fullscreenenter"",""5"",""13301""
","
","
","""event"",""trial"",""time""
""fullscreenenter"",""5"",""13301""
","
",NA,NA,NA,NA,NA,NA,NA,NA,NA,NA,NA,NA,NA,NA,NA,NA,NA,NA,NA,NA,NA,NA,sub1
d3-instructions,124,480201,0.0-65.0,FALSE,TRUE,TRUE,FALSE,"""event"",""trial"",""time""
""fullscreenenter"",""5"",""13301""
","
","
","""event"",""trial"",""time""
""fullscreenenter"",""5"",""13301""
","
",NA,NA,NA,NA,NA,NA,NA,NA,NA,NA,NA,NA,NA,NA,NA,NA,NA,NA,NA,NA,NA,NA,sub1
d3-instructions,125,501309,0.0-66.0,FALSE,TRUE,TRUE,FALSE,"""event"",""trial"",""time""
""fullscreenenter"",""5"",""13301""
","
","
","""event"",""trial"",""time""
""fullscreenenter"",""5"",""13301""
","
",NA,NA,NA,NA,NA,NA,NA,NA,NA,NA,NA,NA,NA,NA,NA,NA,NA,NA,NA,NA,NA,NA,sub1
d3-instructions,126,509881,0.0-67.0,FALSE,TRUE,TRUE,FALSE,"""event"",""trial"",""time""
""fullscreenenter"",""5"",""13301""
","
","
","""event"",""trial"",""time""
""fullscreenenter"",""5"",""13301""
","
",NA,NA,NA,NA,NA,NA,NA,NA,NA,NA,NA,NA,NA,NA,NA,NA,NA,NA,NA,NA,NA,NA,sub1
d3-instructions,127,512943,0.0-68.0,FALSE,TRUE,TRUE,FALSE,"""event"",""trial"",""time""
""fullscreenenter"",""5"",""13301""
","
","
","""event"",""trial"",""time""
""fullscreenenter"",""5"",""13301""
","
",NA,NA,NA,NA,NA,NA,NA,NA,NA,NA,NA,NA,NA,NA,NA,NA,NA,NA,NA,NA,NA,NA,sub1
instructions-quiz,128,515332,0.0-69.0,FALSE,TRUE,TRUE,FALSE,"""event"",""trial"",""time""
""fullscreenenter"",""5"",""13301""
","
","
","""event"",""trial"",""time""
""fullscreenenter"",""5"",""13301""
","
",2386.7049999535084,audio/quiz/Q1_Prompt.wav,NA,1,NA,NA,NA,NA,NA,NA,NA,NA,NA,NA,NA,NA,NA,NA,NA,NA,NA,NA,sub1
audio-keyboard-response,129,524504,0.0-70.0,FALSE,TRUE,TRUE,FALSE,"""event"",""trial"",""time""
""fullscreenenter"",""5"",""13301""
","
","
","""event"",""trial"",""time""
""fullscreenenter"",""5"",""13301""
","
",null,audio/quiz/Q1_Correct.wav,null,NA,NA,NA,NA,NA,NA,NA,NA,NA,NA,NA,NA,NA,NA,NA,NA,NA,NA,NA,sub1
instructions-quiz,130,528938,0.0-71.0,FALSE,TRUE,TRUE,FALSE,"""event"",""trial"",""time""
""fullscreenenter"",""5"",""13301""
","
","
","""event"",""trial"",""time""
""fullscreenenter"",""5"",""13301""
","
",4432.019999949262,audio/quiz/Q2_Prompt.wav,NA,0,NA,NA,NA,NA,NA,NA,NA,NA,NA,NA,NA,NA,NA,NA,NA,NA,NA,NA,sub1
audio-keyboard-response,131,541809,0.0-72.0,FALSE,TRUE,TRUE,FALSE,"""event"",""trial"",""time""
""fullscreenenter"",""5"",""13301""
","
","
","""event"",""trial"",""time""
""fullscreenenter"",""5"",""13301""
","
",null,audio/quiz/Q2_Correct.wav,null,NA,NA,NA,NA,NA,NA,NA,NA,NA,NA,NA,NA,NA,NA,NA,NA,NA,NA,NA,sub1
instructions-quiz,132,544336,0.0-73.0,FALSE,TRUE,TRUE,FALSE,"""event"",""trial"",""time""
""fullscreenenter"",""5"",""13301""
","
","
","""event"",""trial"",""time""
""fullscreenenter"",""5"",""13301""
","
",2525.7250000722706,audio/quiz/Q3_Prompt.wav,NA,1,NA,NA,NA,NA,NA,NA,NA,NA,NA,NA,NA,NA,NA,NA,NA,NA,NA,NA,sub1
audio-keyboard-response,133,550134,0.0-74.0,FALSE,TRUE,TRUE,FALSE,"""event"",""trial"",""time""
""fullscreenenter"",""5"",""13301""
","
","
","""event"",""trial"",""time""
""fullscreenenter"",""5"",""13301""
","
",null,audio/quiz/Q3_Correct.wav,null,NA,NA,NA,NA,NA,NA,NA,NA,NA,NA,NA,NA,NA,NA,NA,NA,NA,NA,NA,sub1
d3-instructions,134,556759,0.0-75.0,FALSE,TRUE,TRUE,FALSE,"""event"",""trial"",""time""
""fullscreenenter"",""5"",""13301""
","
","
","""event"",""trial"",""time""
""fullscreenenter"",""5"",""13301""
","
",NA,NA,NA,NA,NA,NA,NA,NA,NA,NA,NA,NA,NA,NA,NA,NA,NA,NA,NA,NA,NA,NA,sub1
d3-animate-choice,135,559898,0.0-76.0-0.0,FALSE,TRUE,TRUE,FALSE,"""event"",""trial"",""time""
""fullscreenenter"",""5"",""13301""
","
","
","""event"",""trial"",""time""
""fullscreenenter"",""5"",""13301""
","
",1131.4799999818206,NA,49,NA,NA,3000,1,NA,NA,images/earth.jpg,images/rocket1,images/rocket2,null,images/rocket2,NA,1,real,null,1,NA,NA,NA,sub1
d3-animate-choice,136,563359,0.0-76.0-1.0,FALSE,TRUE,TRUE,FALSE,"""event"",""trial"",""time""
""fullscreenenter"",""5"",""13301""
","
","
","""event"",""trial"",""time""
""fullscreenenter"",""5"",""13301""
","
",1457.620000001043,NA,49,NA,NA,3000,1,NA,NA,images/purpleplanet.jpg,images/alien4,images/alien3,images/rocket2,images/alien3,images/t.png,2,real,true,1,common,1,2020-06-09T18:16:06Z,sub1
two-step-fixation,137,564362,0.0-76.0-2.0,FALSE,TRUE,TRUE,FALSE,"""event"",""trial"",""time""
""fullscreenenter"",""5"",""13301""
","
","
","""event"",""trial"",""time""
""fullscreenenter"",""5"",""13301""
","
",NA,images/earth.jpg,NA,NA,NA,NA,NA,NA,NA,NA,NA,NA,NA,NA,NA,fixation,NA,NA,NA,NA,NA,NA,sub1
d3-animate-choice,138,567007,0.0-76.0-0.1,FALSE,TRUE,TRUE,FALSE,"""event"",""trial"",""time""
""fullscreenenter"",""5"",""13301""
","
","
","""event"",""trial"",""time""
""fullscreenenter"",""5"",""13301""
","
",638.9999999664724,NA,49,NA,NA,3000,1,NA,NA,images/earth.jpg,images/rocket1,images/rocket2,null,images/rocket2,NA,1,real,null,1,NA,NA,NA,sub1
d3-animate-choice,139,569500,0.0-76.0-1.1,FALSE,TRUE,TRUE,FALSE,"""event"",""trial"",""time""
""fullscreenenter"",""5"",""13301""
","
","
","""event"",""trial"",""time""
""fullscreenenter"",""5"",""13301""
","
",483.5899998433888,NA,49,NA,NA,3000,1,NA,NA,images/purpleplanet.jpg,images/alien4,images/alien3,images/rocket2,images/alien3,images/nothing.png,2,real,true,1,common,0,2020-06-09T18:16:13Z,sub1
two-step-fixation,140,570504,0.0-76.0-2.1,FALSE,TRUE,TRUE,FALSE,"""event"",""trial"",""time""
""fullscreenenter"",""5"",""13301""
","
","
","""event"",""trial"",""time""
""fullscreenenter"",""5"",""13301""
","
",NA,images/earth.jpg,NA,NA,NA,NA,NA,NA,NA,NA,NA,NA,NA,NA,NA,fixation,NA,NA,NA,NA,NA,NA,sub1
d3-animate-choice,141,572774,0.0-76.0-0.2,FALSE,TRUE,TRUE,FALSE,"""event"",""trial"",""time""
""fullscreenenter"",""5"",""13301""
","
","
","""event"",""trial"",""time""
""fullscreenenter"",""5"",""13301""
","
",264.19000001624227,NA,48,NA,NA,3000,1,NA,NA,images/earth.jpg,images/rocket1,images/rocket2,null,images/rocket1,NA,1,real,null,2,NA,NA,NA,sub1
d3-animate-choice,142,575496,0.0-76.0-1.2,FALSE,TRUE,TRUE,FALSE,"""event"",""trial"",""time""
""fullscreenenter"",""5"",""13301""
","
","
","""event"",""trial"",""time""
""fullscreenenter"",""5"",""13301""
","
",718.1949999649078,NA,49,NA,NA,3000,1,NA,NA,images/purpleplanet.jpg,images/alien4,images/alien3,images/rocket1,images/alien3,images/nothing.png,2,real,false,1,rare,0,2020-06-09T18:16:19Z,sub1
two-step-fixation,143,576500,0.0-76.0-2.2,FALSE,TRUE,TRUE,FALSE,"""event"",""trial"",""time""
""fullscreenenter"",""5"",""13301""
","
","
","""event"",""trial"",""time""
""fullscreenenter"",""5"",""13301""
","
",NA,images/earth.jpg,NA,NA,NA,NA,NA,NA,NA,NA,NA,NA,NA,NA,NA,fixation,NA,NA,NA,NA,NA,NA,sub1
d3-animate-choice,144,578809,0.0-76.0-0.3,FALSE,TRUE,TRUE,FALSE,"""event"",""trial"",""time""
""fullscreenenter"",""5"",""13301""
","
","
","""event"",""trial"",""time""
""fullscreenenter"",""5"",""13301""
","
",302.26499983109534,NA,48,NA,NA,3000,1,NA,NA,images/earth.jpg,images/rocket1,images/rocket2,null,images/rocket1,NA,1,real,null,2,NA,NA,NA,sub1
d3-animate-choice,145,582323,0.0-76.0-1.3,FALSE,TRUE,TRUE,FALSE,"""event"",""trial"",""time""
""fullscreenenter"",""5"",""13301""
","
","
","""event"",""trial"",""time""
""fullscreenenter"",""5"",""13301""
","
",1507.2250000666827,NA,48,NA,NA,3000,1,NA,NA,images/redplanet1.jpg,images/alien2,images/alien1,images/rocket1,images/alien2,images/t.png,2,real,true,2,common,1,2020-06-09T18:16:25Z,sub1
two-step-fixation,146,583327,0.0-76.0-2.3,FALSE,TRUE,TRUE,FALSE,"""event"",""trial"",""time""
""fullscreenenter"",""5"",""13301""
","
","
","""event"",""trial"",""time""
""fullscreenenter"",""5"",""13301""
","
",NA,images/earth.jpg,NA,NA,NA,NA,NA,NA,NA,NA,NA,NA,NA,NA,NA,fixation,NA,NA,NA,NA,NA,NA,sub1
d3-animate-choice,147,585655,0.0-76.0-0.4,FALSE,TRUE,TRUE,FALSE,"""event"",""trial"",""time""
""fullscreenenter"",""5"",""13301""
","
","
","""event"",""trial"",""time""
""fullscreenenter"",""5"",""13301""
","
",321.68499985709786,NA,48,NA,NA,3000,1,NA,NA,images/earth.jpg,images/rocket1,images/rocket2,null,images/rocket1,NA,1,real,null,2,NA,NA,NA,sub1
d3-animate-choice,148,589414,0.0-76.0-1.4,FALSE,TRUE,TRUE,FALSE,"""event"",""trial"",""time""
""fullscreenenter"",""5"",""13301""
","
","
","""event"",""trial"",""time""
""fullscreenenter"",""5"",""13301""
","
",1751.1950000189245,NA,48,NA,NA,3000,1,NA,NA,images/purpleplanet.jpg,images/alien4,images/alien3,images/rocket1,images/alien4,images/t.png,2,real,false,2,rare,1,2020-06-09T18:16:32Z,sub1
two-step-fixation,149,590423,0.0-76.0-2.4,FALSE,TRUE,TRUE,FALSE,"""event"",""trial"",""time""
""fullscreenenter"",""5"",""13301""
","
","
","""event"",""trial"",""time""
""fullscreenenter"",""5"",""13301""
","
",NA,images/earth.jpg,NA,NA,NA,NA,NA,NA,NA,NA,NA,NA,NA,NA,NA,fixation,NA,NA,NA,NA,NA,NA,sub1
d3-animate-choice,150,592695,0.0-76.0-0.5,FALSE,TRUE,TRUE,FALSE,"""event"",""trial"",""time""
""fullscreenenter"",""5"",""13301""
","
","
","""event"",""trial"",""time""
""fullscreenenter"",""5"",""13301""
","
",267.4899999983609,NA,49,NA,NA,3000,1,NA,NA,images/earth.jpg,images/rocket1,images/rocket2,null,images/rocket2,NA,1,real,null,1,NA,NA,NA,sub1
d3-animate-choice,151,595743,0.0-76.0-1.5,FALSE,TRUE,TRUE,FALSE,"""event"",""trial"",""time""
""fullscreenenter"",""5"",""13301""
","
","
","""event"",""trial"",""time""
""fullscreenenter"",""5"",""13301""
","
",1042.6900000311434,NA,48,NA,NA,3000,1,NA,NA,images/redplanet1.jpg,images/alien2,images/alien1,images/rocket2,images/alien2,images/nothing.png,2,real,false,2,rare,0,2020-06-09T18:16:39Z,sub1
two-step-fixation,152,596748,0.0-76.0-2.5,FALSE,TRUE,TRUE,FALSE,"""event"",""trial"",""time""
""fullscreenenter"",""5"",""13301""
","
","
","""event"",""trial"",""time""
""fullscreenenter"",""5"",""13301""
","
",NA,images/earth.jpg,NA,NA,NA,NA,NA,NA,NA,NA,NA,NA,NA,NA,NA,fixation,NA,NA,NA,NA,NA,NA,sub1
d3-animate-choice,153,598773,0.0-76.0-0.6,FALSE,TRUE,TRUE,FALSE,"""event"",""trial"",""time""
""fullscreenenter"",""5"",""13301""
","
","
","""event"",""trial"",""time""
""fullscreenenter"",""5"",""13301""
","
",17.32999994419515,NA,49,NA,NA,3000,1,NA,NA,images/earth.jpg,images/rocket1,images/rocket2,null,images/rocket2,NA,1,real,null,1,NA,NA,NA,sub1
d3-animate-choice,154,601210,0.0-76.0-1.6,FALSE,TRUE,TRUE,FALSE,"""event"",""trial"",""time""
""fullscreenenter"",""5"",""13301""
","
","
","""event"",""trial"",""time""
""fullscreenenter"",""5"",""13301""
","
",432.2399999946356,NA,49,NA,NA,3000,1,NA,NA,images/purpleplanet.jpg,images/alien4,images/alien3,images/rocket2,images/alien3,images/nothing.png,2,real,true,1,common,0,2020-06-09T18:16:44Z,sub1
two-step-fixation,155,602214,0.0-76.0-2.6,FALSE,TRUE,TRUE,FALSE,"""event"",""trial"",""time""
""fullscreenenter"",""5"",""13301""
","
","
","""event"",""trial"",""time""
""fullscreenenter"",""5"",""13301""
","
",NA,images/earth.jpg,NA,NA,NA,NA,NA,NA,NA,NA,NA,NA,NA,NA,NA,fixation,NA,NA,NA,NA,NA,NA,sub1
d3-animate-choice,156,604531,0.0-76.0-0.7,FALSE,TRUE,TRUE,FALSE,"""event"",""trial"",""time""
""fullscreenenter"",""5"",""13301""
","
","
","""event"",""trial"",""time""
""fullscreenenter"",""5"",""13301""
","
",312.28499999269843,NA,48,NA,NA,3000,1,NA,NA,images/earth.jpg,images/rocket1,images/rocket2,null,images/rocket1,NA,1,real,null,2,NA,NA,NA,sub1
d3-animate-choice,157,607784,0.0-76.0-1.7,FALSE,TRUE,TRUE,FALSE,"""event"",""trial"",""time""
""fullscreenenter"",""5"",""13301""
","
","
","""event"",""trial"",""time""
""fullscreenenter"",""5"",""13301""
","
",1247.9650001041591,NA,49,NA,NA,3000,1,NA,NA,images/redplanet1.jpg,images/alien2,images/alien1,images/rocket1,images/alien1,images/nothing.png,2,real,true,1,common,0,2020-06-09T18:16:51Z,sub1
two-step-fixation,158,608789,0.0-76.0-2.7,FALSE,TRUE,TRUE,FALSE,"""event"",""trial"",""time""
""fullscreenenter"",""5"",""13301""
","
","
","""event"",""trial"",""time""
""fullscreenenter"",""5"",""13301""
","
",NA,images/earth.jpg,NA,NA,NA,NA,NA,NA,NA,NA,NA,NA,NA,NA,NA,fixation,NA,NA,NA,NA,NA,NA,sub1
d3-animate-choice,159,611077,0.0-76.0-0.8,FALSE,TRUE,TRUE,FALSE,"""event"",""trial"",""time""
""fullscreenenter"",""5"",""13301""
","
","
","""event"",""trial"",""time""
""fullscreenenter"",""5"",""13301""
","
",281.8799999076873,NA,49,NA,NA,3000,1,NA,NA,images/earth.jpg,images/rocket1,images/rocket2,null,images/rocket2,NA,1,real,null,1,NA,NA,NA,sub1
d3-animate-choice,160,614183,0.0-76.0-1.8,FALSE,TRUE,TRUE,FALSE,"""event"",""trial"",""time""
""fullscreenenter"",""5"",""13301""
","
","
","""event"",""trial"",""time""
""fullscreenenter"",""5"",""13301""
","
",1098.699999973178,NA,48,NA,NA,3000,1,NA,NA,images/purpleplanet.jpg,images/alien4,images/alien3,images/rocket2,images/alien4,images/t.png,2,real,true,2,common,1,2020-06-09T18:16:57Z,sub1
two-step-fixation,161,615192,0.0-76.0-2.8,FALSE,TRUE,TRUE,FALSE,"""event"",""trial"",""time""
""fullscreenenter"",""5"",""13301""
","
","
","""event"",""trial"",""time""
""fullscreenenter"",""5"",""13301""
","
",NA,images/earth.jpg,NA,NA,NA,NA,NA,NA,NA,NA,NA,NA,NA,NA,NA,fixation,NA,NA,NA,NA,NA,NA,sub1
d3-animate-choice,162,617463,0.0-76.0-0.9,FALSE,TRUE,TRUE,FALSE,"""event"",""trial"",""time""
""fullscreenenter"",""5"",""13301""
","
","
","""event"",""trial"",""time""
""fullscreenenter"",""5"",""13301""
","
",263.55000003241,NA,49,NA,NA,3000,1,NA,NA,images/earth.jpg,images/rocket1,images/rocket2,null,images/rocket2,NA,1,real,null,1,NA,NA,NA,sub1
d3-animate-choice,163,620022,0.0-76.0-1.9,FALSE,TRUE,TRUE,FALSE,"""event"",""trial"",""time""
""fullscreenenter"",""5"",""13301""
","
","
","""event"",""trial"",""time""
""fullscreenenter"",""5"",""13301""
","
",554.3850001413375,NA,48,NA,NA,3000,1,NA,NA,images/purpleplanet.jpg,images/alien4,images/alien3,images/rocket2,images/alien4,images/t.png,2,real,true,2,common,1,2020-06-09T18:17:03Z,sub1
two-step-fixation,164,621027,0.0-76.0-2.9,FALSE,TRUE,TRUE,FALSE,"""event"",""trial"",""time""
""fullscreenenter"",""5"",""13301""
","
","
","""event"",""trial"",""time""
""fullscreenenter"",""5"",""13301""
","
",NA,images/earth.jpg,NA,NA,NA,NA,NA,NA,NA,NA,NA,NA,NA,NA,NA,fixation,NA,NA,NA,NA,NA,NA,sub1
d3-animate-choice,165,623471,0.0-76.0-0.10,FALSE,TRUE,TRUE,FALSE,"""event"",""trial"",""time""
""fullscreenenter"",""5"",""13301""
","
","
","""event"",""trial"",""time""
""fullscreenenter"",""5"",""13301""
","
",433.8150001130998,NA,49,NA,NA,3000,1,NA,NA,images/earth.jpg,images/rocket1,images/rocket2,null,images/rocket2,NA,1,real,null,1,NA,NA,NA,sub1
d3-animate-choice,166,626810,0.0-76.0-1.10,FALSE,TRUE,TRUE,FALSE,"""event"",""trial"",""time""
""fullscreenenter"",""5"",""13301""
","
","
","""event"",""trial"",""time""
""fullscreenenter"",""5"",""13301""
","
",1334.8600000608712,NA,48,NA,NA,3000,1,NA,NA,images/redplanet1.jpg,images/alien2,images/alien1,images/rocket2,images/alien2,images/nothing.png,2,real,false,2,rare,0,2020-06-09T18:17:10Z,sub1
two-step-fixation,167,627818,0.0-76.0-2.10,FALSE,TRUE,TRUE,FALSE,"""event"",""trial"",""time""
""fullscreenenter"",""5"",""13301""
","
","
","""event"",""trial"",""time""
""fullscreenenter"",""5"",""13301""
","
",NA,images/earth.jpg,NA,NA,NA,NA,NA,NA,NA,NA,NA,NA,NA,NA,NA,fixation,NA,NA,NA,NA,NA,NA,sub1
d3-animate-choice,168,630177,0.0-76.0-0.11,FALSE,TRUE,TRUE,FALSE,"""event"",""trial"",""time""
""fullscreenenter"",""5"",""13301""
","
","
","""event"",""trial"",""time""
""fullscreenenter"",""5"",""13301""
","
",352.5000000372529,NA,49,NA,NA,3000,1,NA,NA,images/earth.jpg,images/rocket1,images/rocket2,null,images/rocket2,NA,1,real,null,1,NA,NA,NA,sub1
d3-animate-choice,169,632934,0.0-76.0-1.11,FALSE,TRUE,TRUE,FALSE,"""event"",""trial"",""time""
""fullscreenenter"",""5"",""13301""
","
","
","""event"",""trial"",""time""
""fullscreenenter"",""5"",""13301""
","
",753.2200000714511,NA,48,NA,NA,3000,1,NA,NA,images/purpleplanet.jpg,images/alien4,images/alien3,images/rocket2,images/alien4,images/nothing.png,2,real,true,2,common,0,2020-06-09T18:17:16Z,sub1
two-step-fixation,170,633938,0.0-76.0-2.11,FALSE,TRUE,TRUE,FALSE,"""event"",""trial"",""time""
""fullscreenenter"",""5"",""13301""
","
","
","""event"",""trial"",""time""
""fullscreenenter"",""5"",""13301""
","
",NA,images/earth.jpg,NA,NA,NA,NA,NA,NA,NA,NA,NA,NA,NA,NA,NA,fixation,NA,NA,NA,NA,NA,NA,sub1
d3-animate-choice,171,636487,0.0-76.0-0.12,FALSE,TRUE,TRUE,FALSE,"""event"",""trial"",""time""
""fullscreenenter"",""5"",""13301""
","
","
","""event"",""trial"",""time""
""fullscreenenter"",""5"",""13301""
","
",541.8599999975413,NA,48,NA,NA,3000,1,NA,NA,images/earth.jpg,images/rocket1,images/rocket2,null,images/rocket1,NA,1,real,null,2,NA,NA,NA,sub1
d3-animate-choice,172,639865,0.0-76.0-1.12,FALSE,TRUE,TRUE,FALSE,"""event"",""trial"",""time""
""fullscreenenter"",""5"",""13301""
","
","
","""event"",""trial"",""time""
""fullscreenenter"",""5"",""13301""
","
",1374.0049998741597,NA,48,NA,NA,3000,1,NA,NA,images/purpleplanet.jpg,images/alien4,images/alien3,images/rocket1,images/alien4,images/nothing.png,2,real,false,2,rare,0,2020-06-09T18:17:23Z,sub1
two-step-fixation,173,640870,0.0-76.0-2.12,FALSE,TRUE,TRUE,FALSE,"""event"",""trial"",""time""
""fullscreenenter"",""5"",""13301""
","
","
","""event"",""trial"",""time""
""fullscreenenter"",""5"",""13301""
","
",NA,images/earth.jpg,NA,NA,NA,NA,NA,NA,NA,NA,NA,NA,NA,NA,NA,fixation,NA,NA,NA,NA,NA,NA,sub1
d3-animate-choice,174,643149,0.0-76.0-0.13,FALSE,TRUE,TRUE,FALSE,"""event"",""trial"",""time""
""fullscreenenter"",""5"",""13301""
","
","
","""event"",""trial"",""time""
""fullscreenenter"",""5"",""13301""
","
",273.30999984405935,NA,49,NA,NA,3000,1,NA,NA,images/earth.jpg,images/rocket1,images/rocket2,null,images/rocket2,NA,1,real,null,1,NA,NA,NA,sub1
d3-animate-choice,175,646471,0.0-76.0-1.13,FALSE,TRUE,TRUE,FALSE,"""event"",""trial"",""time""
""fullscreenenter"",""5"",""13301""
","
","
","""event"",""trial"",""time""
""fullscreenenter"",""5"",""13301""
","
",1316.530000185594,NA,49,NA,NA,3000,1,NA,NA,images/purpleplanet.jpg,images/alien4,images/alien3,images/rocket2,images/alien3,images/nothing.png,2,real,true,1,common,0,2020-06-09T18:17:30Z,sub1
two-step-fixation,176,647476,0.0-76.0-2.13,FALSE,TRUE,TRUE,FALSE,"""event"",""trial"",""time""
""fullscreenenter"",""5"",""13301""
","
","
","""event"",""trial"",""time""
""fullscreenenter"",""5"",""13301""
","
",NA,images/earth.jpg,NA,NA,NA,NA,NA,NA,NA,NA,NA,NA,NA,NA,NA,fixation,NA,NA,NA,NA,NA,NA,sub1
d3-animate-choice,177,649803,0.0-76.0-0.14,FALSE,TRUE,TRUE,FALSE,"""event"",""trial"",""time""
""fullscreenenter"",""5"",""13301""
","
","
","""event"",""trial"",""time""
""fullscreenenter"",""5"",""13301""
","
",321.76500000059605,NA,48,NA,NA,3000,1,NA,NA,images/earth.jpg,images/rocket1,images/rocket2,null,images/rocket1,NA,1,real,null,2,NA,NA,NA,sub1
d3-animate-choice,178,652851,0.0-76.0-1.14,FALSE,TRUE,TRUE,FALSE,"""event"",""trial"",""time""
""fullscreenenter"",""5"",""13301""
","
","
","""event"",""trial"",""time""
""fullscreenenter"",""5"",""13301""
","
",1042.0050001703203,NA,48,NA,NA,3000,1,NA,NA,images/redplanet1.jpg,images/alien2,images/alien1,images/rocket1,images/alien2,images/nothing.png,2,real,true,2,common,0,2020-06-09T18:17:36Z,sub1
two-step-fixation,179,653857,0.0-76.0-2.14,FALSE,TRUE,TRUE,FALSE,"""event"",""trial"",""time""
""fullscreenenter"",""5"",""13301""
","
","
","""event"",""trial"",""time""
""fullscreenenter"",""5"",""13301""
","
",NA,images/earth.jpg,NA,NA,NA,NA,NA,NA,NA,NA,NA,NA,NA,NA,NA,fixation,NA,NA,NA,NA,NA,NA,sub1
d3-animate-choice,180,656143,0.0-76.0-0.15,FALSE,TRUE,TRUE,FALSE,"""event"",""trial"",""time""
""fullscreenenter"",""5"",""13301""
","
","
","""event"",""trial"",""time""
""fullscreenenter"",""5"",""13301""
","
",277.765000006184,NA,48,NA,NA,3000,1,NA,NA,images/earth.jpg,images/rocket1,images/rocket2,null,images/rocket1,NA,1,real,null,2,NA,NA,NA,sub1
d3-animate-choice,181,658772,0.0-76.0-1.15,FALSE,TRUE,TRUE,FALSE,"""event"",""trial"",""time""
""fullscreenenter"",""5"",""13301""
","
","
","""event"",""trial"",""time""
""fullscreenenter"",""5"",""13301""
","
",622.1099998801947,NA,49,NA,NA,3000,1,NA,NA,images/redplanet1.jpg,images/alien2,images/alien1,images/rocket1,images/alien1,images/nothing.png,2,real,true,1,common,0,2020-06-09T18:17:42Z,sub1
two-step-fixation,182,659780,0.0-76.0-2.15,FALSE,TRUE,TRUE,FALSE,"""event"",""trial"",""time""
""fullscreenenter"",""5"",""13301""
","
","
","""event"",""trial"",""time""
""fullscreenenter"",""5"",""13301""
","
",NA,images/earth.jpg,NA,NA,NA,NA,NA,NA,NA,NA,NA,NA,NA,NA,NA,fixation,NA,NA,NA,NA,NA,NA,sub1
d3-animate-choice,183,662192,0.0-76.0-0.16,FALSE,TRUE,TRUE,FALSE,"""event"",""trial"",""time""
""fullscreenenter"",""5"",""13301""
","
","
","""event"",""trial"",""time""
""fullscreenenter"",""5"",""13301""
","
",404.8149997834116,NA,49,NA,NA,3000,1,NA,NA,images/earth.jpg,images/rocket1,images/rocket2,null,images/rocket2,NA,1,real,null,1,NA,NA,NA,sub1
d3-animate-choice,184,664956,0.0-76.0-1.16,FALSE,TRUE,TRUE,FALSE,"""event"",""trial"",""time""
""fullscreenenter"",""5"",""13301""
","
","
","""event"",""trial"",""time""
""fullscreenenter"",""5"",""13301""
","
",758.0500000622123,NA,48,NA,NA,3000,1,NA,NA,images/purpleplanet.jpg,images/alien4,images/alien3,images/rocket2,images/alien4,images/t.png,2,real,true,2,common,1,2020-06-09T18:17:48Z,sub1
two-step-fixation,185,665962,0.0-76.0-2.16,FALSE,TRUE,TRUE,FALSE,"""event"",""trial"",""time""
""fullscreenenter"",""5"",""13301""
","
","
","""event"",""trial"",""time""
""fullscreenenter"",""5"",""13301""
","
",NA,images/earth.jpg,NA,NA,NA,NA,NA,NA,NA,NA,NA,NA,NA,NA,NA,fixation,NA,NA,NA,NA,NA,NA,sub1
d3-animate-choice,186,668281,0.0-76.0-0.17,FALSE,TRUE,TRUE,FALSE,"""event"",""trial"",""time""
""fullscreenenter"",""5"",""13301""
","
","
","""event"",""trial"",""time""
""fullscreenenter"",""5"",""13301""
","
",309.8649999592453,NA,49,NA,NA,3000,1,NA,NA,images/earth.jpg,images/rocket1,images/rocket2,null,images/rocket2,NA,1,real,null,1,NA,NA,NA,sub1
d3-animate-choice,187,670762,0.0-76.0-1.17,FALSE,TRUE,TRUE,FALSE,"""event"",""trial"",""time""
""fullscreenenter"",""5"",""13301""
","
","
","""event"",""trial"",""time""
""fullscreenenter"",""5"",""13301""
","
",473.93500013276935,NA,48,NA,NA,3000,1,NA,NA,images/purpleplanet.jpg,images/alien4,images/alien3,images/rocket2,images/alien4,images/nothing.png,2,real,true,2,common,0,2020-06-09T18:17:54Z,sub1
two-step-fixation,188,671766,0.0-76.0-2.17,FALSE,TRUE,TRUE,FALSE,"""event"",""trial"",""time""
""fullscreenenter"",""5"",""13301""
","
","
","""event"",""trial"",""time""
""fullscreenenter"",""5"",""13301""
","
",NA,images/earth.jpg,NA,NA,NA,NA,NA,NA,NA,NA,NA,NA,NA,NA,NA,fixation,NA,NA,NA,NA,NA,NA,sub1
d3-animate-choice,189,674080,0.0-76.0-0.18,FALSE,TRUE,TRUE,FALSE,"""event"",""trial"",""time""
""fullscreenenter"",""5"",""13301""
","
","
","""event"",""trial"",""time""
""fullscreenenter"",""5"",""13301""
","
",308.930000057444,NA,49,NA,NA,3000,1,NA,NA,images/earth.jpg,images/rocket1,images/rocket2,null,images/rocket2,NA,1,real,null,1,NA,NA,NA,sub1
d3-animate-choice,190,676566,0.0-76.0-1.18,FALSE,TRUE,TRUE,FALSE,"""event"",""trial"",""time""
""fullscreenenter"",""5"",""13301""
","
","
","""event"",""trial"",""time""
""fullscreenenter"",""5"",""13301""
","
",478.0899998731911,NA,49,NA,NA,3000,1,NA,NA,images/purpleplanet.jpg,images/alien4,images/alien3,images/rocket2,images/alien3,images/nothing.png,2,real,true,1,common,0,2020-06-09T18:18:00Z,sub1
two-step-fixation,191,677569,0.0-76.0-2.18,FALSE,TRUE,TRUE,FALSE,"""event"",""trial"",""time""
""fullscreenenter"",""5"",""13301""
","
","
","""event"",""trial"",""time""
""fullscreenenter"",""5"",""13301""
","
",NA,images/earth.jpg,NA,NA,NA,NA,NA,NA,NA,NA,NA,NA,NA,NA,NA,fixation,NA,NA,NA,NA,NA,NA,sub1
d3-animate-choice,192,679853,0.0-76.0-0.19,FALSE,TRUE,TRUE,FALSE,"""event"",""trial"",""time""
""fullscreenenter"",""5"",""13301""
","
","
","""event"",""trial"",""time""
""fullscreenenter"",""5"",""13301""
","
",277.8900000266731,NA,49,NA,NA,3000,1,NA,NA,images/earth.jpg,images/rocket1,images/rocket2,null,images/rocket2,NA,1,real,null,1,NA,NA,NA,sub1
d3-animate-choice,193,682283,0.0-76.0-1.19,FALSE,TRUE,TRUE,FALSE,"""event"",""trial"",""time""
""fullscreenenter"",""5"",""13301""
","
","
","""event"",""trial"",""time""
""fullscreenenter"",""5"",""13301""
","
",422.34999989159405,NA,48,NA,NA,3000,1,NA,NA,images/purpleplanet.jpg,images/alien4,images/alien3,images/rocket2,images/alien4,images/nothing.png,2,real,true,2,common,0,2020-06-09T18:18:05Z,sub1
two-step-fixation,194,683288,0.0-76.0-2.19,FALSE,TRUE,TRUE,FALSE,"""event"",""trial"",""time""
""fullscreenenter"",""5"",""13301""
","
","
","""event"",""trial"",""time""
""fullscreenenter"",""5"",""13301""
","
",NA,images/earth.jpg,NA,NA,NA,NA,NA,NA,NA,NA,NA,NA,NA,NA,NA,fixation,NA,NA,NA,NA,NA,NA,sub1
d3-animate-choice,195,686015,0.0-76.0-0.20,FALSE,TRUE,TRUE,FALSE,"""event"",""trial"",""time""
""fullscreenenter"",""5"",""13301""
","
","
","""event"",""trial"",""time""
""fullscreenenter"",""5"",""13301""
","
",722.150000045076,NA,48,NA,NA,3000,1,NA,NA,images/earth.jpg,images/rocket1,images/rocket2,null,images/rocket1,NA,1,real,null,2,NA,NA,NA,sub1
d3-animate-choice,196,688946,0.0-76.0-1.20,FALSE,TRUE,TRUE,FALSE,"""event"",""trial"",""time""
""fullscreenenter"",""5"",""13301""
","
","
","""event"",""trial"",""time""
""fullscreenenter"",""5"",""13301""
","
",925.6049999967217,NA,48,NA,NA,3000,1,NA,NA,images/redplanet1.jpg,images/alien2,images/alien1,images/rocket1,images/alien2,images/t.png,2,real,true,2,common,1,2020-06-09T18:18:12Z,sub1
two-step-fixation,197,689950,0.0-76.0-2.20,FALSE,TRUE,TRUE,FALSE,"""event"",""trial"",""time""
""fullscreenenter"",""5"",""13301""
","
","
","""event"",""trial"",""time""
""fullscreenenter"",""5"",""13301""
","
",NA,images/earth.jpg,NA,NA,NA,NA,NA,NA,NA,NA,NA,NA,NA,NA,NA,fixation,NA,NA,NA,NA,NA,NA,sub1
d3-animate-choice,198,692396,0.0-76.0-0.21,FALSE,TRUE,TRUE,FALSE,"""event"",""trial"",""time""
""fullscreenenter"",""5"",""13301""
","
","
","""event"",""trial"",""time""
""fullscreenenter"",""5"",""13301""
","
",438.6400000657886,NA,48,NA,NA,3000,1,NA,NA,images/earth.jpg,images/rocket1,images/rocket2,null,images/rocket1,NA,1,real,null,2,NA,NA,NA,sub1
d3-animate-choice,199,694952,0.0-76.0-1.21,FALSE,TRUE,TRUE,FALSE,"""event"",""trial"",""time""
""fullscreenenter"",""5"",""13301""
","
","
","""event"",""trial"",""time""
""fullscreenenter"",""5"",""13301""
","
",551.1799999512732,NA,48,NA,NA,3000,1,NA,NA,images/purpleplanet.jpg,images/alien4,images/alien3,images/rocket1,images/alien4,images/t.png,2,real,false,2,rare,1,2020-06-09T18:18:18Z,sub1
two-step-fixation,200,695958,0.0-76.0-2.21,FALSE,TRUE,TRUE,FALSE,"""event"",""trial"",""time""
""fullscreenenter"",""5"",""13301""
","
","
","""event"",""trial"",""time""
""fullscreenenter"",""5"",""13301""
","
",NA,images/earth.jpg,NA,NA,NA,NA,NA,NA,NA,NA,NA,NA,NA,NA,NA,fixation,NA,NA,NA,NA,NA,NA,sub1
d3-animate-choice,201,698511,0.0-76.0-0.22,FALSE,TRUE,TRUE,FALSE,"""event"",""trial"",""time""
""fullscreenenter"",""5"",""13301""
","
","
","""event"",""trial"",""time""
""fullscreenenter"",""5"",""13301""
","
",547.9150000028312,NA,48,NA,NA,3000,1,NA,NA,images/earth.jpg,images/rocket1,images/rocket2,null,images/rocket1,NA,1,real,null,2,NA,NA,NA,sub1
d3-animate-choice,202,701064,0.0-76.0-1.22,FALSE,TRUE,TRUE,FALSE,"""event"",""trial"",""time""
""fullscreenenter"",""5"",""13301""
","
","
","""event"",""trial"",""time""
""fullscreenenter"",""5"",""13301""
","
",547.8550000116229,NA,48,NA,NA,3000,1,NA,NA,images/redplanet1.jpg,images/alien2,images/alien1,images/rocket1,images/alien2,images/nothing.png,2,real,true,2,common,0,2020-06-09T18:18:24Z,sub1
two-step-fixation,203,702068,0.0-76.0-2.22,FALSE,TRUE,TRUE,FALSE,"""event"",""trial"",""time""
""fullscreenenter"",""5"",""13301""
","
","
","""event"",""trial"",""time""
""fullscreenenter"",""5"",""13301""
","
",NA,images/earth.jpg,NA,NA,NA,NA,NA,NA,NA,NA,NA,NA,NA,NA,NA,fixation,NA,NA,NA,NA,NA,NA,sub1
d3-animate-choice,204,704356,0.0-76.0-0.23,FALSE,TRUE,TRUE,FALSE,"""event"",""trial"",""time""
""fullscreenenter"",""5"",""13301""
","
","
","""event"",""trial"",""time""
""fullscreenenter"",""5"",""13301""
","
",282.6050000730902,NA,49,NA,NA,3000,1,NA,NA,images/earth.jpg,images/rocket1,images/rocket2,null,images/rocket2,NA,1,real,null,1,NA,NA,NA,sub1
d3-animate-choice,205,706837,0.0-76.0-1.23,FALSE,TRUE,TRUE,FALSE,"""event"",""trial"",""time""
""fullscreenenter"",""5"",""13301""
","
","
","""event"",""trial"",""time""
""fullscreenenter"",""5"",""13301""
","
",475.1299999188632,NA,48,NA,NA,3000,1,NA,NA,images/purpleplanet.jpg,images/alien4,images/alien3,images/rocket2,images/alien4,images/nothing.png,2,real,true,2,common,0,2020-06-09T18:18:30Z,sub1
two-step-fixation,206,707841,0.0-76.0-2.23,FALSE,TRUE,TRUE,FALSE,"""event"",""trial"",""time""
""fullscreenenter"",""5"",""13301""
","
","
","""event"",""trial"",""time""
""fullscreenenter"",""5"",""13301""
","
",NA,images/earth.jpg,NA,NA,NA,NA,NA,NA,NA,NA,NA,NA,NA,NA,NA,fixation,NA,NA,NA,NA,NA,NA,sub1
d3-animate-choice,207,710274,0.0-76.0-0.24,FALSE,TRUE,TRUE,FALSE,"""event"",""trial"",""time""
""fullscreenenter"",""5"",""13301""
","
","
","""event"",""trial"",""time""
""fullscreenenter"",""5"",""13301""
","
",422.9399999603629,NA,48,NA,NA,3000,1,NA,NA,images/earth.jpg,images/rocket1,images/rocket2,null,images/rocket1,NA,1,real,null,2,NA,NA,NA,sub1
d3-animate-choice,208,712604,0.0-76.0-1.24,FALSE,TRUE,TRUE,FALSE,"""event"",""trial"",""time""
""fullscreenenter"",""5"",""13301""
","
","
","""event"",""trial"",""time""
""fullscreenenter"",""5"",""13301""
","
",325.4999998025596,NA,48,NA,NA,3000,1,NA,NA,images/redplanet1.jpg,images/alien2,images/alien1,images/rocket1,images/alien2,images/t.png,2,real,true,2,common,1,2020-06-09T18:18:36Z,sub1
two-step-fixation,209,713608,0.0-76.0-2.24,FALSE,TRUE,TRUE,FALSE,"""event"",""trial"",""time""
""fullscreenenter"",""5"",""13301""
","
","
","""event"",""trial"",""time""
""fullscreenenter"",""5"",""13301""
","
",NA,images/earth.jpg,NA,NA,NA,NA,NA,NA,NA,NA,NA,NA,NA,NA,NA,fixation,NA,NA,NA,NA,NA,NA,sub1
d3-animate-choice,210,715897,0.0-76.0-0.25,FALSE,TRUE,TRUE,FALSE,"""event"",""trial"",""time""
""fullscreenenter"",""5"",""13301""
","
","
","""event"",""trial"",""time""
""fullscreenenter"",""5"",""13301""
","
",284.41000008024275,NA,48,NA,NA,3000,1,NA,NA,images/earth.jpg,images/rocket1,images/rocket2,null,images/rocket1,NA,1,real,null,2,NA,NA,NA,sub1
d3-animate-choice,211,718284,0.0-76.0-1.25,FALSE,TRUE,TRUE,FALSE,"""event"",""trial"",""time""
""fullscreenenter"",""5"",""13301""
","
","
","""event"",""trial"",""time""
""fullscreenenter"",""5"",""13301""
","
",381.8099999334663,NA,48,NA,NA,3000,1,NA,NA,images/redplanet1.jpg,images/alien2,images/alien1,images/rocket1,images/alien2,images/t.png,2,real,true,2,common,1,2020-06-09T18:18:41Z,sub1
two-step-fixation,212,719289,0.0-76.0-2.25,FALSE,TRUE,TRUE,FALSE,"""event"",""trial"",""time""
""fullscreenenter"",""5"",""13301""
","
","
","""event"",""trial"",""time""
""fullscreenenter"",""5"",""13301""
","
",NA,images/earth.jpg,NA,NA,NA,NA,NA,NA,NA,NA,NA,NA,NA,NA,NA,fixation,NA,NA,NA,NA,NA,NA,sub1
d3-animate-choice,213,721602,0.0-76.0-0.26,FALSE,TRUE,TRUE,FALSE,"""event"",""trial"",""time""
""fullscreenenter"",""5"",""13301""
","
","
","""event"",""trial"",""time""
""fullscreenenter"",""5"",""13301""
","
",307.5749999843538,NA,49,NA,NA,3000,1,NA,NA,images/earth.jpg,images/rocket1,images/rocket2,null,images/rocket2,NA,1,real,null,1,NA,NA,NA,sub1
d3-animate-choice,214,723911,0.0-76.0-1.26,FALSE,TRUE,TRUE,FALSE,"""event"",""trial"",""time""
""fullscreenenter"",""5"",""13301""
","
","
","""event"",""trial"",""time""
""fullscreenenter"",""5"",""13301""
","
",301.41500011086464,NA,48,NA,NA,3000,1,NA,NA,images/redplanet1.jpg,images/alien2,images/alien1,images/rocket2,images/alien2,images/t.png,2,real,false,2,rare,1,2020-06-09T18:18:47Z,sub1
two-step-fixation,215,724917,0.0-76.0-2.26,FALSE,TRUE,TRUE,FALSE,"""event"",""trial"",""time""
""fullscreenenter"",""5"",""13301""
","
","
","""event"",""trial"",""time""
""fullscreenenter"",""5"",""13301""
","
",NA,images/earth.jpg,NA,NA,NA,NA,NA,NA,NA,NA,NA,NA,NA,NA,NA,fixation,NA,NA,NA,NA,NA,NA,sub1
d3-animate-choice,216,727183,0.0-76.0-0.27,FALSE,TRUE,TRUE,FALSE,"""event"",""trial"",""time""
""fullscreenenter"",""5"",""13301""
","
","
","""event"",""trial"",""time""
""fullscreenenter"",""5"",""13301""
","
",261.6900000721216,NA,48,NA,NA,3000,1,NA,NA,images/earth.jpg,images/rocket1,images/rocket2,null,images/rocket1,NA,1,real,null,2,NA,NA,NA,sub1
d3-animate-choice,217,729979,0.0-76.0-1.27,FALSE,TRUE,TRUE,FALSE,"""event"",""trial"",""time""
""fullscreenenter"",""5"",""13301""
","
","
","""event"",""trial"",""time""
""fullscreenenter"",""5"",""13301""
","
",789.2700000666082,NA,48,NA,NA,3000,1,NA,NA,images/purpleplanet.jpg,images/alien4,images/alien3,images/rocket1,images/alien4,images/t.png,2,real,false,2,rare,1,2020-06-09T18:18:53Z,sub1
two-step-fixation,218,730983,0.0-76.0-2.27,FALSE,TRUE,TRUE,FALSE,"""event"",""trial"",""time""
""fullscreenenter"",""5"",""13301""
","
","
","""event"",""trial"",""time""
""fullscreenenter"",""5"",""13301""
","
",NA,images/earth.jpg,NA,NA,NA,NA,NA,NA,NA,NA,NA,NA,NA,NA,NA,fixation,NA,NA,NA,NA,NA,NA,sub1
d3-animate-choice,219,733304,0.0-76.0-0.28,FALSE,TRUE,TRUE,FALSE,"""event"",""trial"",""time""
""fullscreenenter"",""5"",""13301""
","
","
","""event"",""trial"",""time""
""fullscreenenter"",""5"",""13301""
","
",315.8050000201911,NA,49,NA,NA,3000,1,NA,NA,images/earth.jpg,images/rocket1,images/rocket2,null,images/rocket2,NA,1,real,null,1,NA,NA,NA,sub1
d3-animate-choice,220,735889,0.0-76.0-1.28,FALSE,TRUE,TRUE,FALSE,"""event"",""trial"",""time""
""fullscreenenter"",""5"",""13301""
","
","
","""event"",""trial"",""time""
""fullscreenenter"",""5"",""13301""
","
",579.9349998123944,NA,48,NA,NA,3000,1,NA,NA,images/purpleplanet.jpg,images/alien4,images/alien3,images/rocket2,images/alien4,images/t.png,2,real,true,2,common,1,2020-06-09T18:18:59Z,sub1
two-step-fixation,221,736893,0.0-76.0-2.28,FALSE,TRUE,TRUE,FALSE,"""event"",""trial"",""time""
""fullscreenenter"",""5"",""13301""
","
","
","""event"",""trial"",""time""
""fullscreenenter"",""5"",""13301""
","
",NA,images/earth.jpg,NA,NA,NA,NA,NA,NA,NA,NA,NA,NA,NA,NA,NA,fixation,NA,NA,NA,NA,NA,NA,sub1
d3-animate-choice,222,739156,0.0-76.0-0.29,FALSE,TRUE,TRUE,FALSE,"""event"",""trial"",""time""
""fullscreenenter"",""5"",""13301""
","
","
","""event"",""trial"",""time""
""fullscreenenter"",""5"",""13301""
","
",258.75500007532537,NA,49,NA,NA,3000,1,NA,NA,images/earth.jpg,images/rocket1,images/rocket2,null,images/rocket2,NA,1,real,null,1,NA,NA,NA,sub1
d3-animate-choice,223,741549,0.0-76.0-1.29,FALSE,TRUE,TRUE,FALSE,"""event"",""trial"",""time""
""fullscreenenter"",""5"",""13301""
","
","
","""event"",""trial"",""time""
""fullscreenenter"",""5"",""13301""
","
",386.83999981731176,NA,48,NA,NA,3000,1,NA,NA,images/purpleplanet.jpg,images/alien4,images/alien3,images/rocket2,images/alien4,images/nothing.png,2,real,true,2,common,0,2020-06-09T18:19:05Z,sub1
two-step-fixation,224,742557,0.0-76.0-2.29,FALSE,TRUE,TRUE,FALSE,"""event"",""trial"",""time""
""fullscreenenter"",""5"",""13301""
","
","
","""event"",""trial"",""time""
""fullscreenenter"",""5"",""13301""
","
",NA,images/earth.jpg,NA,NA,NA,NA,NA,NA,NA,NA,NA,NA,NA,NA,NA,fixation,NA,NA,NA,NA,NA,NA,sub1
d3-animate-choice,225,744829,0.0-76.0-0.30,FALSE,TRUE,TRUE,FALSE,"""event"",""trial"",""time""
""fullscreenenter"",""5"",""13301""
","
","
","""event"",""trial"",""time""
""fullscreenenter"",""5"",""13301""
","
",265.54500008933246,NA,48,NA,NA,3000,1,NA,NA,images/earth.jpg,images/rocket1,images/rocket2,null,images/rocket1,NA,1,real,null,2,NA,NA,NA,sub1
d3-animate-choice,226,747281,0.0-76.0-1.30,FALSE,TRUE,TRUE,FALSE,"""event"",""trial"",""time""
""fullscreenenter"",""5"",""13301""
","
","
","""event"",""trial"",""time""
""fullscreenenter"",""5"",""13301""
","
",448.43999994918704,NA,48,NA,NA,3000,1,NA,NA,images/redplanet1.jpg,images/alien2,images/alien1,images/rocket1,images/alien2,images/t.png,2,real,true,2,common,1,2020-06-09T18:19:10Z,sub1
two-step-fixation,227,748286,0.0-76.0-2.30,FALSE,TRUE,TRUE,FALSE,"""event"",""trial"",""time""
""fullscreenenter"",""5"",""13301""
","
","
","""event"",""trial"",""time""
""fullscreenenter"",""5"",""13301""
","
",NA,images/earth.jpg,NA,NA,NA,NA,NA,NA,NA,NA,NA,NA,NA,NA,NA,fixation,NA,NA,NA,NA,NA,NA,sub1
d3-animate-choice,228,750558,0.0-76.0-0.31,FALSE,TRUE,TRUE,FALSE,"""event"",""trial"",""time""
""fullscreenenter"",""5"",""13301""
","
","
","""event"",""trial"",""time""
""fullscreenenter"",""5"",""13301""
","
",263.52500007487833,NA,48,NA,NA,3000,1,NA,NA,images/earth.jpg,images/rocket1,images/rocket2,null,images/rocket1,NA,1,real,null,2,NA,NA,NA,sub1
d3-animate-choice,229,752928,0.0-76.0-1.31,FALSE,TRUE,TRUE,FALSE,"""event"",""trial"",""time""
""fullscreenenter"",""5"",""13301""
","
","
","""event"",""trial"",""time""
""fullscreenenter"",""5"",""13301""
","
",360.70499988272786,NA,48,NA,NA,3000,1,NA,NA,images/purpleplanet.jpg,images/alien4,images/alien3,images/rocket1,images/alien4,images/nothing.png,2,real,false,2,rare,0,2020-06-09T18:19:16Z,sub1
two-step-fixation,230,753933,0.0-76.0-2.31,FALSE,TRUE,TRUE,FALSE,"""event"",""trial"",""time""
""fullscreenenter"",""5"",""13301""
","
","
","""event"",""trial"",""time""
""fullscreenenter"",""5"",""13301""
","
",NA,images/earth.jpg,NA,NA,NA,NA,NA,NA,NA,NA,NA,NA,NA,NA,NA,fixation,NA,NA,NA,NA,NA,NA,sub1
d3-animate-choice,231,757208,0.0-76.0-0.32,FALSE,TRUE,TRUE,FALSE,"""event"",""trial"",""time""
""fullscreenenter"",""5"",""13301""
","
","
","""event"",""trial"",""time""
""fullscreenenter"",""5"",""13301""
","
",1269.4900000933558,NA,49,NA,NA,3000,1,NA,NA,images/earth.jpg,images/rocket1,images/rocket2,null,images/rocket2,NA,1,real,null,1,NA,NA,NA,sub1
d3-animate-choice,232,759556,0.0-76.0-1.32,FALSE,TRUE,TRUE,FALSE,"""event"",""trial"",""time""
""fullscreenenter"",""5"",""13301""
","
","
","""event"",""trial"",""time""
""fullscreenenter"",""5"",""13301""
","
",340.0099999271333,NA,48,NA,NA,3000,1,NA,NA,images/redplanet1.jpg,images/alien2,images/alien1,images/rocket2,images/alien2,images/nothing.png,2,real,false,2,rare,0,2020-06-09T18:19:23Z,sub1
two-step-fixation,233,760565,0.0-76.0-2.32,FALSE,TRUE,TRUE,FALSE,"""event"",""trial"",""time""
""fullscreenenter"",""5"",""13301""
","
","
","""event"",""trial"",""time""
""fullscreenenter"",""5"",""13301""
","
",NA,images/earth.jpg,NA,NA,NA,NA,NA,NA,NA,NA,NA,NA,NA,NA,NA,fixation,NA,NA,NA,NA,NA,NA,sub1
d3-animate-choice,234,762905,0.0-76.0-0.33,FALSE,TRUE,TRUE,FALSE,"""event"",""trial"",""time""
""fullscreenenter"",""5"",""13301""
","
","
","""event"",""trial"",""time""
""fullscreenenter"",""5"",""13301""
","
",331.5050001256168,NA,49,NA,NA,3000,1,NA,NA,images/earth.jpg,images/rocket1,images/rocket2,null,images/rocket2,NA,1,real,null,1,NA,NA,NA,sub1
d3-animate-choice,235,765315,0.0-76.0-1.33,FALSE,TRUE,TRUE,FALSE,"""event"",""trial"",""time""
""fullscreenenter"",""5"",""13301""
","
","
","""event"",""trial"",""time""
""fullscreenenter"",""5"",""13301""
","
",404.27000005729496,NA,48,NA,NA,3000,1,NA,NA,images/purpleplanet.jpg,images/alien4,images/alien3,images/rocket2,images/alien4,images/nothing.png,2,real,true,2,common,0,2020-06-09T18:19:28Z,sub1
two-step-fixation,236,766320,0.0-76.0-2.33,FALSE,TRUE,TRUE,FALSE,"""event"",""trial"",""time""
""fullscreenenter"",""5"",""13301""
","
","
","""event"",""trial"",""time""
""fullscreenenter"",""5"",""13301""
","
",NA,images/earth.jpg,NA,NA,NA,NA,NA,NA,NA,NA,NA,NA,NA,NA,NA,fixation,NA,NA,NA,NA,NA,NA,sub1
d3-animate-choice,237,769169,0.0-76.0-0.34,FALSE,TRUE,TRUE,FALSE,"""event"",""trial"",""time""
""fullscreenenter"",""5"",""13301""
","
","
","""event"",""trial"",""time""
""fullscreenenter"",""5"",""13301""
","
",843.2550001889467,NA,48,NA,NA,3000,1,NA,NA,images/earth.jpg,images/rocket1,images/rocket2,null,images/rocket1,NA,1,real,null,2,NA,NA,NA,sub1
d3-animate-choice,238,771648,0.0-76.0-1.34,FALSE,TRUE,TRUE,FALSE,"""event"",""trial"",""time""
""fullscreenenter"",""5"",""13301""
","
","
","""event"",""trial"",""time""
""fullscreenenter"",""5"",""13301""
","
",472.22999995574355,NA,48,NA,NA,3000,1,NA,NA,images/redplanet1.jpg,images/alien2,images/alien1,images/rocket1,images/alien2,images/nothing.png,2,real,true,2,common,0,2020-06-09T18:19:35Z,sub1
two-step-fixation,239,772652,0.0-76.0-2.34,FALSE,TRUE,TRUE,FALSE,"""event"",""trial"",""time""
""fullscreenenter"",""5"",""13301""
","
","
","""event"",""trial"",""time""
""fullscreenenter"",""5"",""13301""
","
",NA,images/earth.jpg,NA,NA,NA,NA,NA,NA,NA,NA,NA,NA,NA,NA,NA,fixation,NA,NA,NA,NA,NA,NA,sub1
d3-animate-choice,240,774686,0.0-76.0-0.35,FALSE,TRUE,TRUE,FALSE,"""event"",""trial"",""time""
""fullscreenenter"",""5"",""13301""
","
","
","""event"",""trial"",""time""
""fullscreenenter"",""5"",""13301""
","
",29.229999985545874,NA,49,NA,NA,3000,1,NA,NA,images/earth.jpg,images/rocket1,images/rocket2,null,images/rocket2,NA,1,real,null,1,NA,NA,NA,sub1
d3-animate-choice,241,777024,0.0-76.0-1.35,FALSE,TRUE,TRUE,FALSE,"""event"",""trial"",""time""
""fullscreenenter"",""5"",""13301""
","
","
","""event"",""trial"",""time""
""fullscreenenter"",""5"",""13301""
","
",332.16500002890825,NA,48,NA,NA,3000,1,NA,NA,images/redplanet1.jpg,images/alien2,images/alien1,images/rocket2,images/alien2,images/t.png,2,real,false,2,rare,1,2020-06-09T18:19:40Z,sub1
two-step-fixation,242,778029,0.0-76.0-2.35,FALSE,TRUE,TRUE,FALSE,"""event"",""trial"",""time""
""fullscreenenter"",""5"",""13301""
","
","
","""event"",""trial"",""time""
""fullscreenenter"",""5"",""13301""
","
",NA,images/earth.jpg,NA,NA,NA,NA,NA,NA,NA,NA,NA,NA,NA,NA,NA,fixation,NA,NA,NA,NA,NA,NA,sub1
d3-animate-choice,243,780539,0.0-76.0-0.36,FALSE,TRUE,TRUE,FALSE,"""event"",""trial"",""time""
""fullscreenenter"",""5"",""13301""
","
","
","""event"",""trial"",""time""
""fullscreenenter"",""5"",""13301""
","
",504.8149998765439,NA,49,NA,NA,3000,1,NA,NA,images/earth.jpg,images/rocket1,images/rocket2,null,images/rocket2,NA,1,real,null,1,NA,NA,NA,sub1
d3-animate-choice,244,783378,0.0-76.0-1.36,FALSE,TRUE,TRUE,FALSE,"""event"",""trial"",""time""
""fullscreenenter"",""5"",""13301""
","
","
","""event"",""trial"",""time""
""fullscreenenter"",""5"",""13301""
","
",831.7399998195469,NA,48,NA,NA,3000,1,NA,NA,images/purpleplanet.jpg,images/alien4,images/alien3,images/rocket2,images/alien4,images/t.png,2,real,true,2,common,1,2020-06-09T18:19:46Z,sub1
two-step-fixation,245,784382,0.0-76.0-2.36,FALSE,TRUE,TRUE,FALSE,"""event"",""trial"",""time""
""fullscreenenter"",""5"",""13301""
","
","
","""event"",""trial"",""time""
""fullscreenenter"",""5"",""13301""
","
",NA,images/earth.jpg,NA,NA,NA,NA,NA,NA,NA,NA,NA,NA,NA,NA,NA,fixation,NA,NA,NA,NA,NA,NA,sub1
d3-animate-choice,246,786655,0.0-76.0-0.37,FALSE,TRUE,TRUE,FALSE,"""event"",""trial"",""time""
""fullscreenenter"",""5"",""13301""
","
","
","""event"",""trial"",""time""
""fullscreenenter"",""5"",""13301""
","
",268.92500021494925,NA,49,NA,NA,3000,1,NA,NA,images/earth.jpg,images/rocket1,images/rocket2,null,images/rocket2,NA,1,real,null,1,NA,NA,NA,sub1
d3-animate-choice,247,789066,0.0-76.0-1.37,FALSE,TRUE,TRUE,FALSE,"""event"",""trial"",""time""
""fullscreenenter"",""5"",""13301""
","
","
","""event"",""trial"",""time""
""fullscreenenter"",""5"",""13301""
","
",405.9750000014901,NA,48,NA,NA,3000,1,NA,NA,images/redplanet1.jpg,images/alien2,images/alien1,images/rocket2,images/alien2,images/t.png,2,real,false,2,rare,1,2020-06-09T18:19:52Z,sub1
two-step-fixation,248,790070,0.0-76.0-2.37,FALSE,TRUE,TRUE,FALSE,"""event"",""trial"",""time""
""fullscreenenter"",""5"",""13301""
","
","
","""event"",""trial"",""time""
""fullscreenenter"",""5"",""13301""
","
",NA,images/earth.jpg,NA,NA,NA,NA,NA,NA,NA,NA,NA,NA,NA,NA,NA,fixation,NA,NA,NA,NA,NA,NA,sub1
d3-animate-choice,249,792439,0.0-76.0-0.38,FALSE,TRUE,TRUE,FALSE,"""event"",""trial"",""time""
""fullscreenenter"",""5"",""13301""
","
","
","""event"",""trial"",""time""
""fullscreenenter"",""5"",""13301""
","
",364.2550001386553,NA,49,NA,NA,3000,1,NA,NA,images/earth.jpg,images/rocket1,images/rocket2,null,images/rocket2,NA,1,real,null,1,NA,NA,NA,sub1
d3-animate-choice,250,794952,0.0-76.0-1.38,FALSE,TRUE,TRUE,FALSE,"""event"",""trial"",""time""
""fullscreenenter"",""5"",""13301""
","
","
","""event"",""trial"",""time""
""fullscreenenter"",""5"",""13301""
","
",508.34499998018146,NA,48,NA,NA,3000,1,NA,NA,images/redplanet1.jpg,images/alien2,images/alien1,images/rocket2,images/alien2,images/nothing.png,2,real,false,2,rare,0,2020-06-09T18:19:58Z,sub1
two-step-fixation,251,795958,0.0-76.0-2.38,FALSE,TRUE,TRUE,FALSE,"""event"",""trial"",""time""
""fullscreenenter"",""5"",""13301""
","
","
","""event"",""trial"",""time""
""fullscreenenter"",""5"",""13301""
","
",NA,images/earth.jpg,NA,NA,NA,NA,NA,NA,NA,NA,NA,NA,NA,NA,NA,fixation,NA,NA,NA,NA,NA,NA,sub1
d3-animate-choice,252,798254,0.0-76.0-0.39,FALSE,TRUE,TRUE,FALSE,"""event"",""trial"",""time""
""fullscreenenter"",""5"",""13301""
","
","
","""event"",""trial"",""time""
""fullscreenenter"",""5"",""13301""
","
",291.3200000766665,NA,49,NA,NA,3000,1,NA,NA,images/earth.jpg,images/rocket1,images/rocket2,null,images/rocket2,NA,1,real,null,1,NA,NA,NA,sub1
d3-animate-choice,253,800886,0.0-76.0-1.39,FALSE,TRUE,TRUE,FALSE,"""event"",""trial"",""time""
""fullscreenenter"",""5"",""13301""
","
","
","""event"",""trial"",""time""
""fullscreenenter"",""5"",""13301""
","
",627.1949999500066,NA,48,NA,NA,3000,1,NA,NA,images/purpleplanet.jpg,images/alien4,images/alien3,images/rocket2,images/alien4,images/t.png,2,real,true,2,common,1,2020-06-09T18:20:04Z,sub1
two-step-fixation,254,801892,0.0-76.0-2.39,FALSE,TRUE,TRUE,FALSE,"""event"",""trial"",""time""
""fullscreenenter"",""5"",""13301""
","
","
","""event"",""trial"",""time""
""fullscreenenter"",""5"",""13301""
","
",NA,images/earth.jpg,NA,NA,NA,NA,NA,NA,NA,NA,NA,NA,NA,NA,NA,fixation,NA,NA,NA,NA,NA,NA,sub1
d3-animate-choice,255,804039,0.0-76.0-0.40,FALSE,TRUE,TRUE,FALSE,"""event"",""trial"",""time""
""fullscreenenter"",""5"",""13301""
","
","
","""event"",""trial"",""time""
""fullscreenenter"",""5"",""13301""
","
",142.73000019602478,NA,49,NA,NA,3000,1,NA,NA,images/earth.jpg,images/rocket1,images/rocket2,null,images/rocket2,NA,1,real,null,1,NA,NA,NA,sub1
d3-animate-choice,256,806400,0.0-76.0-1.40,FALSE,TRUE,TRUE,FALSE,"""event"",""trial"",""time""
""fullscreenenter"",""5"",""13301""
","
","
","""event"",""trial"",""time""
""fullscreenenter"",""5"",""13301""
","
",355.77999986708164,NA,48,NA,NA,3000,1,NA,NA,images/purpleplanet.jpg,images/alien4,images/alien3,images/rocket2,images/alien4,images/nothing.png,2,real,true,2,common,0,2020-06-09T18:20:09Z,sub1
two-step-fixation,257,807404,0.0-76.0-2.40,FALSE,TRUE,TRUE,FALSE,"""event"",""trial"",""time""
""fullscreenenter"",""5"",""13301""
","
","
","""event"",""trial"",""time""
""fullscreenenter"",""5"",""13301""
","
",NA,images/earth.jpg,NA,NA,NA,NA,NA,NA,NA,NA,NA,NA,NA,NA,NA,fixation,NA,NA,NA,NA,NA,NA,sub1
d3-animate-choice,258,810225,0.0-76.0-0.41,FALSE,TRUE,TRUE,FALSE,"""event"",""trial"",""time""
""fullscreenenter"",""5"",""13301""
","
","
","""event"",""trial"",""time""
""fullscreenenter"",""5"",""13301""
","
",816.080000018701,NA,49,NA,NA,3000,1,NA,NA,images/earth.jpg,images/rocket1,images/rocket2,null,images/rocket2,NA,1,real,null,1,NA,NA,NA,sub1
d3-animate-choice,259,812669,0.0-76.0-1.41,FALSE,TRUE,TRUE,FALSE,"""event"",""trial"",""time""
""fullscreenenter"",""5"",""13301""
","
","
","""event"",""trial"",""time""
""fullscreenenter"",""5"",""13301""
","
",440.35499985329807,NA,48,NA,NA,3000,1,NA,NA,images/purpleplanet.jpg,images/alien4,images/alien3,images/rocket2,images/alien4,images/nothing.png,2,real,true,2,common,0,2020-06-09T18:20:16Z,sub1
two-step-fixation,260,813676,0.0-76.0-2.41,FALSE,TRUE,TRUE,FALSE,"""event"",""trial"",""time""
""fullscreenenter"",""5"",""13301""
","
","
","""event"",""trial"",""time""
""fullscreenenter"",""5"",""13301""
","
",NA,images/earth.jpg,NA,NA,NA,NA,NA,NA,NA,NA,NA,NA,NA,NA,NA,fixation,NA,NA,NA,NA,NA,NA,sub1
d3-animate-choice,261,815958,0.0-76.0-0.42,FALSE,TRUE,TRUE,FALSE,"""event"",""trial"",""time""
""fullscreenenter"",""5"",""13301""
","
","
","""event"",""trial"",""time""
""fullscreenenter"",""5"",""13301""
","
",276.20500000193715,NA,48,NA,NA,3000,1,NA,NA,images/earth.jpg,images/rocket1,images/rocket2,null,images/rocket1,NA,1,real,null,2,NA,NA,NA,sub1
d3-animate-choice,262,818239,0.0-76.0-1.42,FALSE,TRUE,TRUE,FALSE,"""event"",""trial"",""time""
""fullscreenenter"",""5"",""13301""
","
","
","""event"",""trial"",""time""
""fullscreenenter"",""5"",""13301""
","
",274.34500004164875,NA,48,NA,NA,3000,1,NA,NA,images/purpleplanet.jpg,images/alien4,images/alien3,images/rocket1,images/alien4,images/t.png,2,real,false,2,rare,1,2020-06-09T18:20:21Z,sub1
two-step-fixation,263,819243,0.0-76.0-2.42,FALSE,TRUE,TRUE,FALSE,"""event"",""trial"",""time""
""fullscreenenter"",""5"",""13301""
","
","
","""event"",""trial"",""time""
""fullscreenenter"",""5"",""13301""
","
",NA,images/earth.jpg,NA,NA,NA,NA,NA,NA,NA,NA,NA,NA,NA,NA,NA,fixation,NA,NA,NA,NA,NA,NA,sub1
d3-animate-choice,264,821556,0.0-76.0-0.43,FALSE,TRUE,TRUE,FALSE,"""event"",""trial"",""time""
""fullscreenenter"",""5"",""13301""
","
","
","""event"",""trial"",""time""
""fullscreenenter"",""5"",""13301""
","
",308.3399999886751,NA,48,NA,NA,3000,1,NA,NA,images/earth.jpg,images/rocket1,images/rocket2,null,images/rocket1,NA,1,real,null,2,NA,NA,NA,sub1
d3-animate-choice,265,824176,0.0-76.0-1.43,FALSE,TRUE,TRUE,FALSE,"""event"",""trial"",""time""
""fullscreenenter"",""5"",""13301""
","
","
","""event"",""trial"",""time""
""fullscreenenter"",""5"",""13301""
","
",613.7650001328439,NA,48,NA,NA,3000,1,NA,NA,images/redplanet1.jpg,images/alien2,images/alien1,images/rocket1,images/alien2,images/nothing.png,2,real,true,2,common,0,2020-06-09T18:20:27Z,sub1
two-step-fixation,266,825183,0.0-76.0-2.43,FALSE,TRUE,TRUE,FALSE,"""event"",""trial"",""time""
""fullscreenenter"",""5"",""13301""
","
","
","""event"",""trial"",""time""
""fullscreenenter"",""5"",""13301""
","
",NA,images/earth.jpg,NA,NA,NA,NA,NA,NA,NA,NA,NA,NA,NA,NA,NA,fixation,NA,NA,NA,NA,NA,NA,sub1
d3-animate-choice,267,827614,0.0-76.0-0.44,FALSE,TRUE,TRUE,FALSE,"""event"",""trial"",""time""
""fullscreenenter"",""5"",""13301""
","
","
","""event"",""trial"",""time""
""fullscreenenter"",""5"",""13301""
","
",423.5000000335276,NA,49,NA,NA,3000,1,NA,NA,images/earth.jpg,images/rocket1,images/rocket2,null,images/rocket2,NA,1,real,null,1,NA,NA,NA,sub1
d3-animate-choice,268,830302,0.0-76.0-1.44,FALSE,TRUE,TRUE,FALSE,"""event"",""trial"",""time""
""fullscreenenter"",""5"",""13301""
","
","
","""event"",""trial"",""time""
""fullscreenenter"",""5"",""13301""
","
",683.1749998964369,NA,48,NA,NA,3000,1,NA,NA,images/purpleplanet.jpg,images/alien4,images/alien3,images/rocket2,images/alien4,images/nothing.png,2,real,true,2,common,0,2020-06-09T18:20:33Z,sub1
two-step-fixation,269,831307,0.0-76.0-2.44,FALSE,TRUE,TRUE,FALSE,"""event"",""trial"",""time""
""fullscreenenter"",""5"",""13301""
","
","
","""event"",""trial"",""time""
""fullscreenenter"",""5"",""13301""
","
",NA,images/earth.jpg,NA,NA,NA,NA,NA,NA,NA,NA,NA,NA,NA,NA,NA,fixation,NA,NA,NA,NA,NA,NA,sub1
d3-animate-choice,270,833850,0.0-76.0-0.45,FALSE,TRUE,TRUE,FALSE,"""event"",""trial"",""time""
""fullscreenenter"",""5"",""13301""
","
","
","""event"",""trial"",""time""
""fullscreenenter"",""5"",""13301""
","
",535.3649999015033,NA,48,NA,NA,3000,1,NA,NA,images/earth.jpg,images/rocket1,images/rocket2,null,images/rocket1,NA,1,real,null,2,NA,NA,NA,sub1
d3-animate-choice,271,836278,0.0-76.0-1.45,FALSE,TRUE,TRUE,FALSE,"""event"",""trial"",""time""
""fullscreenenter"",""5"",""13301""
","
","
","""event"",""trial"",""time""
""fullscreenenter"",""5"",""13301""
","
",423.4449998475611,NA,48,NA,NA,3000,1,NA,NA,images/redplanet1.jpg,images/alien2,images/alien1,images/rocket1,images/alien2,images/t.png,2,real,true,2,common,1,2020-06-09T18:20:39Z,sub1
two-step-fixation,272,837283,0.0-76.0-2.45,FALSE,TRUE,TRUE,FALSE,"""event"",""trial"",""time""
""fullscreenenter"",""5"",""13301""
","
","
","""event"",""trial"",""time""
""fullscreenenter"",""5"",""13301""
","
",NA,images/earth.jpg,NA,NA,NA,NA,NA,NA,NA,NA,NA,NA,NA,NA,NA,fixation,NA,NA,NA,NA,NA,NA,sub1
d3-animate-choice,273,839633,0.0-76.0-0.46,FALSE,TRUE,TRUE,FALSE,"""event"",""trial"",""time""
""fullscreenenter"",""5"",""13301""
","
","
","""event"",""trial"",""time""
""fullscreenenter"",""5"",""13301""
","
",344.0849999897182,NA,49,NA,NA,3000,1,NA,NA,images/earth.jpg,images/rocket1,images/rocket2,null,images/rocket2,NA,1,real,null,1,NA,NA,NA,sub1
d3-animate-choice,274,842028,0.0-76.0-1.46,FALSE,TRUE,TRUE,FALSE,"""event"",""trial"",""time""
""fullscreenenter"",""5"",""13301""
","
","
","""event"",""trial"",""time""
""fullscreenenter"",""5"",""13301""
","
",389.5799999590963,NA,48,NA,NA,3000,1,NA,NA,images/purpleplanet.jpg,images/alien4,images/alien3,images/rocket2,images/alien4,images/t.png,2,real,true,2,common,1,2020-06-09T18:20:45Z,sub1
two-step-fixation,275,843033,0.0-76.0-2.46,FALSE,TRUE,TRUE,FALSE,"""event"",""trial"",""time""
""fullscreenenter"",""5"",""13301""
","
","
","""event"",""trial"",""time""
""fullscreenenter"",""5"",""13301""
","
",NA,images/earth.jpg,NA,NA,NA,NA,NA,NA,NA,NA,NA,NA,NA,NA,NA,fixation,NA,NA,NA,NA,NA,NA,sub1
d3-animate-choice,276,845401,0.0-76.0-0.47,FALSE,TRUE,TRUE,FALSE,"""event"",""trial"",""time""
""fullscreenenter"",""5"",""13301""
","
","
","""event"",""trial"",""time""
""fullscreenenter"",""5"",""13301""
","
",362.4849999323487,NA,49,NA,NA,3000,1,NA,NA,images/earth.jpg,images/rocket1,images/rocket2,null,images/rocket2,NA,1,real,null,1,NA,NA,NA,sub1
d3-animate-choice,277,847784,0.0-76.0-1.47,FALSE,TRUE,TRUE,FALSE,"""event"",""trial"",""time""
""fullscreenenter"",""5"",""13301""
","
","
","""event"",""trial"",""time""
""fullscreenenter"",""5"",""13301""
","
",375.7949999999255,NA,48,NA,NA,3000,1,NA,NA,images/purpleplanet.jpg,images/alien4,images/alien3,images/rocket2,images/alien4,images/t.png,2,real,true,2,common,1,2020-06-09T18:20:51Z,sub1
two-step-fixation,278,848788,0.0-76.0-2.47,FALSE,TRUE,TRUE,FALSE,"""event"",""trial"",""time""
""fullscreenenter"",""5"",""13301""
","
","
","""event"",""trial"",""time""
""fullscreenenter"",""5"",""13301""
","
",NA,images/earth.jpg,NA,NA,NA,NA,NA,NA,NA,NA,NA,NA,NA,NA,NA,fixation,NA,NA,NA,NA,NA,NA,sub1
d3-animate-choice,279,851079,0.0-76.0-0.48,FALSE,TRUE,TRUE,FALSE,"""event"",""trial"",""time""
""fullscreenenter"",""5"",""13301""
","
","
","""event"",""trial"",""time""
""fullscreenenter"",""5"",""13301""
","
",284.57999997772276,NA,49,NA,NA,3000,1,NA,NA,images/earth.jpg,images/rocket1,images/rocket2,null,images/rocket2,NA,1,real,null,1,NA,NA,NA,sub1
d3-animate-choice,280,853507,0.0-76.0-1.48,FALSE,TRUE,TRUE,FALSE,"""event"",""trial"",""time""
""fullscreenenter"",""5"",""13301""
","
","
","""event"",""trial"",""time""
""fullscreenenter"",""5"",""13301""
","
",421.7699998989701,NA,48,NA,NA,3000,1,NA,NA,images/redplanet1.jpg,images/alien2,images/alien1,images/rocket2,images/alien2,images/nothing.png,2,real,false,2,rare,0,2020-06-09T18:20:57Z,sub1
two-step-fixation,281,854512,0.0-76.0-2.48,FALSE,TRUE,TRUE,FALSE,"""event"",""trial"",""time""
""fullscreenenter"",""5"",""13301""
","
","
","""event"",""trial"",""time""
""fullscreenenter"",""5"",""13301""
","
",NA,images/earth.jpg,NA,NA,NA,NA,NA,NA,NA,NA,NA,NA,NA,NA,NA,fixation,NA,NA,NA,NA,NA,NA,sub1
d3-animate-choice,282,856835,0.0-76.0-0.49,FALSE,TRUE,TRUE,FALSE,"""event"",""trial"",""time""
""fullscreenenter"",""5"",""13301""
","
","
","""event"",""trial"",""time""
""fullscreenenter"",""5"",""13301""
","
",317.85500003024936,NA,48,NA,NA,3000,1,NA,NA,images/earth.jpg,images/rocket1,images/rocket2,null,images/rocket1,NA,1,real,null,2,NA,NA,NA,sub1
d3-animate-choice,283,859700,0.0-76.0-1.49,FALSE,TRUE,TRUE,FALSE,"""event"",""trial"",""time""
""fullscreenenter"",""5"",""13301""
","
","
","""event"",""trial"",""time""
""fullscreenenter"",""5"",""13301""
","
",857.5800000689924,NA,48,NA,NA,3000,1,NA,NA,images/redplanet1.jpg,images/alien2,images/alien1,images/rocket1,images/alien2,images/t.png,2,real,true,2,common,1,2020-06-09T18:21:03Z,sub1
two-step-fixation,284,860704,0.0-76.0-2.49,FALSE,TRUE,TRUE,FALSE,"""event"",""trial"",""time""
""fullscreenenter"",""5"",""13301""
","
","
","""event"",""trial"",""time""
