trial_type,trial_index,time_elapsed,internal_node_id,rocket_sides,red_planet_first_rocket,red_display_order,purple_display_order,interactions,blur_events,focus_events,fullscreenenter_events,fullscreenexit_events,rt,stimulus,key_press,button_pressed,success,duration,valid_pressed,rts,keys,planet_text,right_text,left_text,center_text,chosen_text,reward_text,trial_stage,practice_trial,transition_type,choice,transition,reward,timestamp,subject_id
pavlovia,0,12,0.0-0.0,FALSE,FALSE,TRUE,FALSE,"
","
","
","
","
",NA,NA,NA,NA,NA,NA,NA,NA,NA,NA,NA,NA,NA,NA,NA,NA,NA,NA,NA,NA,NA,NA,sub75
html-keyboard-response,1,918,0.0-1.0,FALSE,FALSE,TRUE,FALSE,"
","
","
","
","
",905,Welcome! Press the space bar to begin.,77,NA,NA,NA,NA,NA,NA,NA,NA,NA,NA,NA,NA,NA,NA,NA,NA,NA,NA,NA,sub75
audio-keyboard-response,2,4522,0.0-2.0,FALSE,FALSE,TRUE,FALSE,"
","
","
","
","
",3564,audio/beep_loop.wav,32,NA,NA,NA,NA,NA,NA,NA,NA,NA,NA,NA,NA,NA,NA,NA,NA,NA,NA,NA,sub75
audio-button-response,3,8258,0.0-3.0,FALSE,FALSE,TRUE,FALSE,"
","
","
","
","
",NaN,audio/fish.mp3,NA,1,NA,NA,NA,NA,NA,NA,NA,NA,NA,NA,NA,NA,NA,NA,NA,NA,NA,NA,sub75
audio-button-response,4,10854,0.0-4.0,FALSE,FALSE,TRUE,FALSE,"""event"",""trial"",""time""
""fullscreenenter"",""5"",""13360""
","
","
","""event"",""trial"",""time""
""fullscreenenter"",""5"",""13360""
","
",NaN,audio/tiger.mp3,NA,4,NA,NA,NA,NA,NA,NA,NA,NA,NA,NA,NA,NA,NA,NA,NA,NA,NA,NA,sub75
fullscreen,5,14302,0.0-5.0,FALSE,FALSE,TRUE,FALSE,"""event"",""trial"",""time""
""fullscreenenter"",""5"",""13360""
","
","
","""event"",""trial"",""time""
""fullscreenenter"",""5"",""13360""
","
",NA,NA,NA,NA,TRUE,NA,NA,NA,NA,NA,NA,NA,NA,NA,NA,NA,NA,NA,NA,NA,NA,NA,sub75
d3-instructions,6,21641,0.0-6.0,FALSE,FALSE,TRUE,FALSE,"""event"",""trial"",""time""
""fullscreenenter"",""5"",""13360""
","
","
","""event"",""trial"",""time""
""fullscreenenter"",""5"",""13360""
","
",NA,NA,NA,NA,NA,NA,NA,NA,NA,NA,NA,NA,NA,NA,NA,NA,NA,NA,NA,NA,NA,NA,sub75
d3-instructions,7,29057,0.0-7.0,FALSE,FALSE,TRUE,FALSE,"""event"",""trial"",""time""
""fullscreenenter"",""5"",""13360""
","
","
","""event"",""trial"",""time""
""fullscreenenter"",""5"",""13360""
","
",NA,NA,NA,NA,NA,NA,NA,NA,NA,NA,NA,NA,NA,NA,NA,NA,NA,NA,NA,NA,NA,NA,sub75
d3-instructions,8,35278,0.0-8.0,FALSE,FALSE,TRUE,FALSE,"""event"",""trial"",""time""
""fullscreenenter"",""5"",""13360""
","
","
","""event"",""trial"",""time""
""fullscreenenter"",""5"",""13360""
","
",NA,NA,NA,NA,NA,NA,NA,NA,NA,NA,NA,NA,NA,NA,NA,NA,NA,NA,NA,NA,NA,NA,sub75
d3-instructions,9,44864,0.0-9.0,FALSE,FALSE,TRUE,FALSE,"""event"",""trial"",""time""
""fullscreenenter"",""5"",""13360""
","
","
","""event"",""trial"",""time""
""fullscreenenter"",""5"",""13360""
","
",NA,NA,NA,NA,NA,NA,NA,NA,NA,NA,NA,NA,NA,NA,NA,NA,NA,NA,NA,NA,NA,NA,sub75
d3-instructions,10,58523,0.0-10.0,FALSE,FALSE,TRUE,FALSE,"""event"",""trial"",""time""
""fullscreenenter"",""5"",""13360""
","
","
","""event"",""trial"",""time""
""fullscreenenter"",""5"",""13360""
","
",NA,NA,NA,NA,NA,NA,NA,NA,NA,NA,NA,NA,NA,NA,NA,NA,NA,NA,NA,NA,NA,NA,sub75
d3-animate-choice,11,61743,0.0-11.0,FALSE,FALSE,TRUE,FALSE,"""event"",""trial"",""time""
""fullscreenenter"",""5"",""13360""
","
","
","""event"",""trial"",""time""
""fullscreenenter"",""5"",""13360""
","
",1216,NA,49,NA,NA,3000,1,2019,48,images/tutgreenplanet.jpg,images/tutalien1,images/tutalien2,null,images/tutalien2,NA,NA,practice,null,NA,NA,NA,NA,sub75
d3-animate-choice,12,63782,0.0-12.0,FALSE,FALSE,TRUE,FALSE,"""event"",""trial"",""time""
""fullscreenenter"",""5"",""13360""
","
","
","""event"",""trial"",""time""
""fullscreenenter"",""5"",""13360""
","
",34.99999999998545,NA,48,NA,NA,3000,1,"903.9999999999854,1809.9999999999854",4849,images/tutgreenplanet.jpg,images/tutalien1,images/tutalien2,null,images/tutalien1,NA,NA,practice,null,NA,NA,NA,NA,sub75
d3-animate-choice,13,66459,0.0-13.0,FALSE,FALSE,TRUE,FALSE,"""event"",""trial"",""time""
""fullscreenenter"",""5"",""13360""
","
","
","""event"",""trial"",""time""
""fullscreenenter"",""5"",""13360""
","
",673,NA,49,NA,NA,3000,1,NA,NA,images/tutgreenplanet.jpg,images/tutalien1,images/tutalien2,null,images/tutalien2,NA,NA,practice,null,NA,NA,NA,NA,sub75
d3-animate-choice,14,69112,0.0-14.0,FALSE,FALSE,TRUE,FALSE,"""event"",""trial"",""time""
""fullscreenenter"",""5"",""13360""
","
","
","""event"",""trial"",""time""
""fullscreenenter"",""5"",""13360""
","
",651.0000000000146,NA,48,NA,NA,3000,1,NA,NA,images/tutgreenplanet.jpg,images/tutalien1,images/tutalien2,null,images/tutalien1,NA,NA,practice,null,NA,NA,NA,NA,sub75
d3-instructions,15,74790,0.0-15.0,FALSE,FALSE,TRUE,FALSE,"""event"",""trial"",""time""
""fullscreenenter"",""5"",""13360""
","
","
","""event"",""trial"",""time""
""fullscreenenter"",""5"",""13360""
","
",NA,NA,NA,NA,NA,NA,NA,NA,NA,NA,NA,NA,NA,NA,NA,NA,NA,NA,NA,NA,NA,NA,sub75
d3-instructions,16,76998,0.0-16.0,FALSE,FALSE,TRUE,FALSE,"""event"",""trial"",""time""
""fullscreenenter"",""5"",""13360""
","
","
","""event"",""trial"",""time""
""fullscreenenter"",""5"",""13360""
","
",NA,NA,NA,NA,NA,NA,NA,NA,NA,NA,NA,NA,NA,NA,NA,NA,NA,NA,NA,NA,NA,NA,sub75
d3-instructions,17,83365,0.0-17.0,FALSE,FALSE,TRUE,FALSE,"""event"",""trial"",""time""
""fullscreenenter"",""5"",""13360""
","
","
","""event"",""trial"",""time""
""fullscreenenter"",""5"",""13360""
","
",NA,NA,NA,NA,NA,NA,NA,NA,NA,NA,NA,NA,NA,NA,NA,NA,NA,NA,NA,NA,NA,NA,sub75
d3-instructions,18,88762,0.0-18.0,FALSE,FALSE,TRUE,FALSE,"""event"",""trial"",""time""
""fullscreenenter"",""5"",""13360""
","
","
","""event"",""trial"",""time""
""fullscreenenter"",""5"",""13360""
","
",NA,NA,NA,NA,NA,NA,NA,NA,NA,NA,NA,NA,NA,NA,NA,NA,NA,NA,NA,NA,NA,NA,sub75
d3-instructions,19,95161,0.0-19.0,FALSE,FALSE,TRUE,FALSE,"""event"",""trial"",""time""
""fullscreenenter"",""5"",""13360""
","
","
","""event"",""trial"",""time""
""fullscreenenter"",""5"",""13360""
","
",NA,NA,NA,NA,NA,NA,NA,NA,NA,NA,NA,NA,NA,NA,NA,NA,NA,NA,NA,NA,NA,NA,sub75
d3-animate-choice,20,98180,0.0-20.0,FALSE,FALSE,TRUE,FALSE,"""event"",""trial"",""time""
""fullscreenenter"",""5"",""13360""
","
","
","""event"",""trial"",""time""
""fullscreenenter"",""5"",""13360""
","
",1017,NA,49,NA,NA,3000,1,NA,NA,images/tutyellowplanet.jpg,null,images/tutalien3,null,images/tutalien3,images/t.png,NA,practice,null,NA,NA,NA,NA,sub75
d3-animate-choice,21,100591,0.0-21.0,FALSE,FALSE,TRUE,FALSE,"""event"",""trial"",""time""
""fullscreenenter"",""5"",""13360""
","
","
","""event"",""trial"",""time""
""fullscreenenter"",""5"",""13360""
","
",408.00000000001455,NA,49,NA,NA,3000,1,NA,NA,images/tutyellowplanet.jpg,null,images/tutalien3,null,images/tutalien3,images/t.png,NA,practice,null,NA,NA,NA,NA,sub75
d3-animate-choice,22,102914,0.0-22.0,FALSE,FALSE,TRUE,FALSE,"""event"",""trial"",""time""
""fullscreenenter"",""5"",""13360""
","
","
","""event"",""trial"",""time""
""fullscreenenter"",""5"",""13360""
","
",319.99999999998545,NA,49,NA,NA,3000,1,NA,NA,images/tutyellowplanet.jpg,null,images/tutalien3,null,images/tutalien3,images/t.png,NA,practice,null,NA,NA,NA,NA,sub75
d3-animate-choice,23,105210,0.0-23.0,FALSE,FALSE,TRUE,FALSE,"""event"",""trial"",""time""
""fullscreenenter"",""5"",""13360""
","
","
","""event"",""trial"",""time""
""fullscreenenter"",""5"",""13360""
","
",294,NA,49,NA,NA,3000,1,NA,NA,images/tutyellowplanet.jpg,null,images/tutalien3,null,images/tutalien3,images/t.png,NA,practice,null,NA,NA,NA,NA,sub75
d3-animate-choice,24,107492,0.0-24.0,FALSE,FALSE,TRUE,FALSE,"""event"",""trial"",""time""
""fullscreenenter"",""5"",""13360""
","
","
","""event"",""trial"",""time""
""fullscreenenter"",""5"",""13360""
","
",280.00000000001455,NA,49,NA,NA,3000,1,1688,49,images/tutyellowplanet.jpg,null,images/tutalien3,null,images/tutalien3,images/t.png,NA,practice,null,NA,NA,NA,NA,sub75
d3-animate-choice,25,109725,0.0-25.0,FALSE,FALSE,TRUE,FALSE,"""event"",""trial"",""time""
""fullscreenenter"",""5"",""13360""
","
","
","""event"",""trial"",""time""
""fullscreenenter"",""5"",""13360""
","
",230.00000000001455,NA,49,NA,NA,3000,1,NA,NA,images/tutyellowplanet.jpg,null,images/tutalien3,null,images/tutalien3,images/t.png,NA,practice,null,NA,NA,NA,NA,sub75
d3-animate-choice,26,111998,0.0-26.0,FALSE,FALSE,TRUE,FALSE,"""event"",""trial"",""time""
""fullscreenenter"",""5"",""13360""
","
","
","""event"",""trial"",""time""
""fullscreenenter"",""5"",""13360""
","
",269.99999999998545,NA,49,NA,NA,3000,1,NA,NA,images/tutyellowplanet.jpg,null,images/tutalien3,null,images/tutalien3,images/t.png,NA,practice,null,NA,NA,NA,NA,sub75
d3-animate-choice,27,114258,0.0-27.0,FALSE,FALSE,TRUE,FALSE,"""event"",""trial"",""time""
""fullscreenenter"",""5"",""13360""
","
","
","""event"",""trial"",""time""
""fullscreenenter"",""5"",""13360""
","
",256.99999999998545,NA,49,NA,NA,3000,1,NA,NA,images/tutyellowplanet.jpg,null,images/tutalien3,null,images/tutalien3,images/t.png,NA,practice,null,NA,NA,NA,NA,sub75
d3-animate-choice,28,116550,0.0-28.0,FALSE,FALSE,TRUE,FALSE,"""event"",""trial"",""time""
""fullscreenenter"",""5"",""13360""
","
","
","""event"",""trial"",""time""
""fullscreenenter"",""5"",""13360""
","
",289,NA,49,NA,NA,3000,1,NA,NA,images/tutyellowplanet.jpg,null,images/tutalien3,null,images/tutalien3,images/t.png,NA,practice,null,NA,NA,NA,NA,sub75
d3-animate-choice,29,119009,0.0-29.0,FALSE,FALSE,TRUE,FALSE,"""event"",""trial"",""time""
""fullscreenenter"",""5"",""13360""
","
","
","""event"",""trial"",""time""
""fullscreenenter"",""5"",""13360""
","
",455.99999999998545,NA,49,NA,NA,3000,1,NA,NA,images/tutyellowplanet.jpg,null,images/tutalien3,null,images/tutalien3,images/t.png,NA,practice,null,NA,NA,NA,NA,sub75
d3-instructions,30,121887,0.0-30.0,FALSE,FALSE,TRUE,FALSE,"""event"",""trial"",""time""
""fullscreenenter"",""5"",""13360""
","
","
","""event"",""trial"",""time""
""fullscreenenter"",""5"",""13360""
","
",NA,NA,NA,NA,NA,NA,NA,NA,NA,NA,NA,NA,NA,NA,NA,NA,NA,NA,NA,NA,NA,NA,sub75
d3-instructions,31,132617,0.0-31.0,FALSE,FALSE,TRUE,FALSE,"""event"",""trial"",""time""
""fullscreenenter"",""5"",""13360""
","
","
","""event"",""trial"",""time""
""fullscreenenter"",""5"",""13360""
","
",NA,NA,NA,NA,NA,NA,NA,NA,NA,NA,NA,NA,NA,NA,NA,NA,NA,NA,NA,NA,NA,NA,sub75
d3-instructions,32,134922,0.0-32.0,FALSE,FALSE,TRUE,FALSE,"""event"",""trial"",""time""
""fullscreenenter"",""5"",""13360""
","
","
","""event"",""trial"",""time""
""fullscreenenter"",""5"",""13360""
","
",NA,NA,NA,NA,NA,NA,NA,NA,NA,NA,NA,NA,NA,NA,NA,NA,NA,NA,NA,NA,NA,NA,sub75
d3-instructions,33,138915,0.0-33.0,FALSE,FALSE,TRUE,FALSE,"""event"",""trial"",""time""
""fullscreenenter"",""5"",""13360""
","
","
","""event"",""trial"",""time""
""fullscreenenter"",""5"",""13360""
","
",NA,NA,NA,NA,NA,NA,NA,NA,NA,NA,NA,NA,NA,NA,NA,NA,NA,NA,NA,NA,NA,NA,sub75
d3-animate-choice,34,141855,0.0-34.0,FALSE,FALSE,TRUE,FALSE,"""event"",""trial"",""time""
""fullscreenenter"",""5"",""13360""
","
","
","""event"",""trial"",""time""
""fullscreenenter"",""5"",""13360""
","
",937,NA,49,NA,NA,3000,1,NA,NA,images/tutgreenplanet.jpg,images/tutalien1,images/tutalien2,null,images/tutalien2,images/t.png,NA,practice,null,NA,NA,NA,NA,sub75
d3-animate-choice,35,144768,0.0-35.0,FALSE,FALSE,TRUE,FALSE,"""event"",""trial"",""time""
""fullscreenenter"",""5"",""13360""
","
","
","""event"",""trial"",""time""
""fullscreenenter"",""5"",""13360""
","
",910,NA,49,NA,NA,3000,1,NA,NA,images/tutgreenplanet.jpg,images/tutalien1,images/tutalien2,null,images/tutalien2,images/t.png,NA,practice,null,NA,NA,NA,NA,sub75
d3-animate-choice,36,147069,0.0-36.0,FALSE,FALSE,TRUE,FALSE,"""event"",""trial"",""time""
""fullscreenenter"",""5"",""13360""
","
","
","""event"",""trial"",""time""
""fullscreenenter"",""5"",""13360""
","
",298,NA,49,NA,NA,3000,1,NA,NA,images/tutgreenplanet.jpg,images/tutalien1,images/tutalien2,null,images/tutalien2,images/t.png,NA,practice,null,NA,NA,NA,NA,sub75
d3-animate-choice,37,149355,0.0-37.0,FALSE,FALSE,TRUE,FALSE,"""event"",""trial"",""time""
""fullscreenenter"",""5"",""13360""
","
","
","""event"",""trial"",""time""
""fullscreenenter"",""5"",""13360""
","
",284,NA,49,NA,NA,3000,1,NA,NA,images/tutgreenplanet.jpg,images/tutalien1,images/tutalien2,null,images/tutalien2,images/t.png,NA,practice,null,NA,NA,NA,NA,sub75
d3-animate-choice,38,151606,0.0-38.0,FALSE,FALSE,TRUE,FALSE,"""event"",""trial"",""time""
""fullscreenenter"",""5"",""13360""
","
","
","""event"",""trial"",""time""
""fullscreenenter"",""5"",""13360""
","
",248,NA,49,NA,NA,3000,1,NA,NA,images/tutgreenplanet.jpg,images/tutalien1,images/tutalien2,null,images/tutalien2,images/t.png,NA,practice,null,NA,NA,NA,NA,sub75
d3-animate-choice,39,153866,0.0-39.0,FALSE,FALSE,TRUE,FALSE,"""event"",""trial"",""time""
""fullscreenenter"",""5"",""13360""
","
","
","""event"",""trial"",""time""
""fullscreenenter"",""5"",""13360""
","
",258,NA,48,NA,NA,3000,1,NA,NA,images/tutgreenplanet.jpg,images/tutalien1,images/tutalien2,null,images/tutalien1,images/nothing.png,NA,practice,null,NA,NA,NA,NA,sub75
d3-animate-choice,40,156097,0.0-40.0,FALSE,FALSE,TRUE,FALSE,"""event"",""trial"",""time""
""fullscreenenter"",""5"",""13360""
","
","
","""event"",""trial"",""time""
""fullscreenenter"",""5"",""13360""
","
",229,NA,48,NA,NA,3000,1,NA,NA,images/tutgreenplanet.jpg,images/tutalien1,images/tutalien2,null,images/tutalien1,images/nothing.png,NA,practice,null,NA,NA,NA,NA,sub75
d3-animate-choice,41,158340,0.0-41.0,FALSE,FALSE,TRUE,FALSE,"""event"",""trial"",""time""
""fullscreenenter"",""5"",""13360""
","
","
","""event"",""trial"",""time""
""fullscreenenter"",""5"",""13360""
","
",240,NA,48,NA,NA,3000,1,NA,NA,images/tutgreenplanet.jpg,images/tutalien1,images/tutalien2,null,images/tutalien1,images/nothing.png,NA,practice,null,NA,NA,NA,NA,sub75
d3-animate-choice,42,160520,0.0-42.0,FALSE,FALSE,TRUE,FALSE,"""event"",""trial"",""time""
""fullscreenenter"",""5"",""13360""
","
","
","""event"",""trial"",""time""
""fullscreenenter"",""5"",""13360""
","
",177,NA,48,NA,NA,3000,1,NA,NA,images/tutgreenplanet.jpg,images/tutalien1,images/tutalien2,null,images/tutalien1,images/nothing.png,NA,practice,null,NA,NA,NA,NA,sub75
d3-animate-choice,43,162759,0.0-43.0,FALSE,FALSE,TRUE,FALSE,"""event"",""trial"",""time""
""fullscreenenter"",""5"",""13360""
","
","
","""event"",""trial"",""time""
""fullscreenenter"",""5"",""13360""
","
",237,NA,48,NA,NA,3000,1,NA,NA,images/tutgreenplanet.jpg,images/tutalien1,images/tutalien2,null,images/tutalien1,images/nothing.png,NA,practice,null,NA,NA,NA,NA,sub75
d3-instructions,44,170011,0.0-44.0,FALSE,FALSE,TRUE,FALSE,"""event"",""trial"",""time""
""fullscreenenter"",""5"",""13360""
","
","
","""event"",""trial"",""time""
""fullscreenenter"",""5"",""13360""
","
",NA,NA,NA,NA,NA,NA,NA,NA,NA,NA,NA,NA,NA,NA,NA,NA,NA,NA,NA,NA,NA,NA,sub75
d3-instructions,45,171584,0.0-45.0,FALSE,FALSE,TRUE,FALSE,"""event"",""trial"",""time""
""fullscreenenter"",""5"",""13360""
","
","
","""event"",""trial"",""time""
""fullscreenenter"",""5"",""13360""
","
",NA,NA,NA,NA,NA,NA,NA,NA,NA,NA,NA,NA,NA,NA,NA,NA,NA,NA,NA,NA,NA,NA,sub75
d3-instructions,46,173963,0.0-46.0,FALSE,FALSE,TRUE,FALSE,"""event"",""trial"",""time""
""fullscreenenter"",""5"",""13360""
","
","
","""event"",""trial"",""time""
""fullscreenenter"",""5"",""13360""
","
",NA,NA,NA,NA,NA,NA,NA,NA,NA,NA,NA,NA,NA,NA,NA,NA,NA,NA,NA,NA,NA,NA,sub75
d3-instructions,47,181763,0.0-47.0,FALSE,FALSE,TRUE,FALSE,"""event"",""trial"",""time""
""fullscreenenter"",""5"",""13360""
","
","
","""event"",""trial"",""time""
""fullscreenenter"",""5"",""13360""
","
",NA,NA,NA,NA,NA,NA,NA,NA,NA,NA,NA,NA,NA,NA,NA,NA,NA,NA,NA,NA,NA,NA,sub75
d3-instructions,48,184376,0.0-48.0,FALSE,FALSE,TRUE,FALSE,"""event"",""trial"",""time""
""fullscreenenter"",""5"",""13360""
","
","
","""event"",""trial"",""time""
""fullscreenenter"",""5"",""13360""
","
",NA,NA,NA,NA,NA,NA,NA,NA,NA,NA,NA,NA,NA,NA,NA,NA,NA,NA,NA,NA,NA,NA,sub75
d3-instructions,49,186886,0.0-49.0,FALSE,FALSE,TRUE,FALSE,"""event"",""trial"",""time""
""fullscreenenter"",""5"",""13360""
","
","
","""event"",""trial"",""time""
""fullscreenenter"",""5"",""13360""
","
",NA,NA,NA,NA,NA,NA,NA,NA,NA,NA,NA,NA,NA,NA,NA,NA,NA,NA,NA,NA,NA,NA,sub75
d3-instructions,50,190118,0.0-50.0,FALSE,FALSE,TRUE,FALSE,"""event"",""trial"",""time""
""fullscreenenter"",""5"",""13360""
","
","
","""event"",""trial"",""time""
""fullscreenenter"",""5"",""13360""
","
",NA,NA,NA,NA,NA,NA,NA,NA,NA,NA,NA,NA,NA,NA,NA,NA,NA,NA,NA,NA,NA,NA,sub75
d3-instructions,51,192100,0.0-51.0,FALSE,FALSE,TRUE,FALSE,"""event"",""trial"",""time""
""fullscreenenter"",""5"",""13360""
","
","
","""event"",""trial"",""time""
""fullscreenenter"",""5"",""13360""
","
",NA,NA,NA,NA,NA,NA,NA,NA,NA,NA,NA,NA,NA,NA,NA,NA,NA,NA,NA,NA,NA,NA,sub75
d3-instructions,52,193361,0.0-52.0,FALSE,FALSE,TRUE,FALSE,"""event"",""trial"",""time""
""fullscreenenter"",""5"",""13360""
","
","
","""event"",""trial"",""time""
""fullscreenenter"",""5"",""13360""
","
",NA,NA,NA,NA,NA,NA,NA,NA,NA,NA,NA,NA,NA,NA,NA,NA,NA,NA,NA,NA,NA,NA,sub75
d3-instructions,53,207181,0.0-53.0,FALSE,FALSE,TRUE,FALSE,"""event"",""trial"",""time""
""fullscreenenter"",""5"",""13360""
","
","
","""event"",""trial"",""time""
""fullscreenenter"",""5"",""13360""
","
",NA,NA,NA,NA,NA,NA,NA,NA,NA,NA,NA,NA,NA,NA,NA,NA,NA,NA,NA,NA,NA,NA,sub75
d3-instructions,54,221022,0.0-54.0,FALSE,FALSE,TRUE,FALSE,"""event"",""trial"",""time""
""fullscreenenter"",""5"",""13360""
","
","
","""event"",""trial"",""time""
""fullscreenenter"",""5"",""13360""
","
",NA,NA,NA,NA,NA,NA,NA,NA,NA,NA,NA,NA,NA,NA,NA,NA,NA,NA,NA,NA,NA,NA,sub75
d3-instructions,55,224612,0.0-55.0,FALSE,FALSE,TRUE,FALSE,"""event"",""trial"",""time""
""fullscreenenter"",""5"",""13360""
","
","
","""event"",""trial"",""time""
""fullscreenenter"",""5"",""13360""
","
",NA,NA,NA,NA,NA,NA,NA,NA,NA,NA,NA,NA,NA,NA,NA,NA,NA,NA,NA,NA,NA,NA,sub75
d3-instructions,56,230661,0.0-56.0,FALSE,FALSE,TRUE,FALSE,"""event"",""trial"",""time""
""fullscreenenter"",""5"",""13360""
","
","
","""event"",""trial"",""time""
""fullscreenenter"",""5"",""13360""
","
",NA,NA,NA,NA,NA,NA,NA,NA,NA,NA,NA,NA,NA,NA,NA,NA,NA,NA,NA,NA,NA,NA,sub75
d3-instructions,57,241867,0.0-57.0,FALSE,FALSE,TRUE,FALSE,"""event"",""trial"",""time""
""fullscreenenter"",""5"",""13360""
","
","
","""event"",""trial"",""time""
""fullscreenenter"",""5"",""13360""
","
",NA,NA,NA,NA,NA,NA,NA,NA,NA,NA,NA,NA,NA,NA,NA,NA,NA,NA,NA,NA,NA,NA,sub75
d3-instructions,58,253150,0.0-58.0,FALSE,FALSE,TRUE,FALSE,"""event"",""trial"",""time""
""fullscreenenter"",""5"",""13360""
","
","
","""event"",""trial"",""time""
""fullscreenenter"",""5"",""13360""
","
",NA,NA,NA,NA,NA,NA,NA,NA,NA,NA,NA,NA,NA,NA,NA,NA,NA,NA,NA,NA,NA,NA,sub75
d3-instructions,59,259817,0.0-59.0,FALSE,FALSE,TRUE,FALSE,"""event"",""trial"",""time""
""fullscreenenter"",""5"",""13360""
","
","
","""event"",""trial"",""time""
""fullscreenenter"",""5"",""13360""
","
",NA,NA,NA,NA,NA,NA,NA,NA,NA,NA,NA,NA,NA,NA,NA,NA,NA,NA,NA,NA,NA,NA,sub75
d3-instructions,60,267064,0.0-60.0,FALSE,FALSE,TRUE,FALSE,"""event"",""trial"",""time""
""fullscreenenter"",""5"",""13360""
","
","
","""event"",""trial"",""time""
""fullscreenenter"",""5"",""13360""
","
",NA,NA,NA,NA,NA,NA,NA,NA,NA,NA,NA,NA,NA,NA,NA,NA,NA,NA,NA,NA,NA,NA,sub75
d3-animate-choice,61,270354,0.0-61.0-0.0,FALSE,FALSE,TRUE,FALSE,"""event"",""trial"",""time""
""fullscreenenter"",""5"",""13360""
","
","
","""event"",""trial"",""time""
""fullscreenenter"",""5"",""13360""
","
",1287,NA,49,NA,NA,3000,1,NA,NA,images/earth.jpg,images/tutrocket1,images/tutrocket2,null,images/tutrocket2,NA,1,practice,null,1,NA,NA,NA,sub75
d3-animate-choice,62,273846,0.0-61.0-1.0,FALSE,FALSE,TRUE,FALSE,"""event"",""trial"",""time""
""fullscreenenter"",""5"",""13360""
","
","
","""event"",""trial"",""time""
""fullscreenenter"",""5"",""13360""
","
",1488,NA,49,NA,NA,3000,1,NA,NA,images/tutgreenplanet.jpg,images/tutalien2,images/tutalien1,images/tutrocket2,images/tutalien1,images/nothing.png,2,practice,true,1,common,0,2020-06-20T15:51:29Z,sub75
two-step-fixation,63,274849,0.0-61.0-2.0,FALSE,FALSE,TRUE,FALSE,"""event"",""trial"",""time""
""fullscreenenter"",""5"",""13360""
","
","
","""event"",""trial"",""time""
""fullscreenenter"",""5"",""13360""
","
",NA,images/earth.jpg,NA,NA,NA,NA,NA,NA,NA,NA,NA,NA,NA,NA,NA,fixation,NA,NA,NA,NA,NA,NA,sub75
d3-animate-choice,64,277781,0.0-61.0-0.1,FALSE,FALSE,TRUE,FALSE,"""event"",""trial"",""time""
""fullscreenenter"",""5"",""13360""
","
","
","""event"",""trial"",""time""
""fullscreenenter"",""5"",""13360""
","
",929,NA,49,NA,NA,3000,1,NA,NA,images/earth.jpg,images/tutrocket1,images/tutrocket2,null,images/tutrocket2,NA,1,practice,null,1,NA,NA,NA,sub75
d3-animate-choice,65,280979,0.0-61.0-1.1,FALSE,FALSE,TRUE,FALSE,"""event"",""trial"",""time""
""fullscreenenter"",""5"",""13360""
","
","
","""event"",""trial"",""time""
""fullscreenenter"",""5"",""13360""
","
",1196,NA,48,NA,NA,3000,1,NA,NA,images/tutgreenplanet.jpg,images/tutalien2,images/tutalien1,images/tutrocket2,images/tutalien2,images/nothing.png,2,practice,true,2,common,0,2020-06-20T15:51:36Z,sub75
two-step-fixation,66,281981,0.0-61.0-2.1,FALSE,FALSE,TRUE,FALSE,"""event"",""trial"",""time""
""fullscreenenter"",""5"",""13360""
","
","
","""event"",""trial"",""time""
""fullscreenenter"",""5"",""13360""
","
",NA,images/earth.jpg,NA,NA,NA,NA,NA,NA,NA,NA,NA,NA,NA,NA,NA,fixation,NA,NA,NA,NA,NA,NA,sub75
d3-animate-choice,67,284495,0.0-61.0-0.2,FALSE,FALSE,TRUE,FALSE,"""event"",""trial"",""time""
""fullscreenenter"",""5"",""13360""
","
","
","""event"",""trial"",""time""
""fullscreenenter"",""5"",""13360""
","
",511,NA,48,NA,NA,3000,1,NA,NA,images/earth.jpg,images/tutrocket1,images/tutrocket2,null,images/tutrocket1,NA,1,practice,null,2,NA,NA,NA,sub75
d3-animate-choice,68,287417,0.0-61.0-1.2,FALSE,FALSE,TRUE,FALSE,"""event"",""trial"",""time""
""fullscreenenter"",""5"",""13360""
","
","
","""event"",""trial"",""time""
""fullscreenenter"",""5"",""13360""
","
",920,NA,49,NA,NA,3000,1,NA,NA,images/tutgreenplanet.jpg,images/tutalien2,images/tutalien1,images/tutrocket1,images/tutalien1,images/nothing.png,2,practice,false,1,rare,0,2020-06-20T15:51:42Z,sub75
two-step-fixation,69,288419,0.0-61.0-2.2,FALSE,FALSE,TRUE,FALSE,"""event"",""trial"",""time""
""fullscreenenter"",""5"",""13360""
","
","
","""event"",""trial"",""time""
""fullscreenenter"",""5"",""13360""
","
",NA,images/earth.jpg,NA,NA,NA,NA,NA,NA,NA,NA,NA,NA,NA,NA,NA,fixation,NA,NA,NA,NA,NA,NA,sub75
d3-animate-choice,70,290772,0.0-61.0-0.3,FALSE,FALSE,TRUE,FALSE,"""event"",""trial"",""time""
""fullscreenenter"",""5"",""13360""
","
","
","""event"",""trial"",""time""
""fullscreenenter"",""5"",""13360""
","
",353,NA,48,NA,NA,3000,1,NA,NA,images/earth.jpg,images/tutrocket1,images/tutrocket2,null,images/tutrocket1,NA,1,practice,null,2,NA,NA,NA,sub75
d3-animate-choice,71,293396,0.0-61.0-1.3,FALSE,FALSE,TRUE,FALSE,"""event"",""trial"",""time""
""fullscreenenter"",""5"",""13360""
","
","
","""event"",""trial"",""time""
""fullscreenenter"",""5"",""13360""
","
",621,NA,48,NA,NA,3000,1,NA,NA,images/tutgreenplanet.jpg,images/tutalien2,images/tutalien1,images/tutrocket1,images/tutalien2,images/nothing.png,2,practice,false,2,rare,0,2020-06-20T15:51:48Z,sub75
two-step-fixation,72,294398,0.0-61.0-2.3,FALSE,FALSE,TRUE,FALSE,"""event"",""trial"",""time""
""fullscreenenter"",""5"",""13360""
","
","
","""event"",""trial"",""time""
""fullscreenenter"",""5"",""13360""
","
",NA,images/earth.jpg,NA,NA,NA,NA,NA,NA,NA,NA,NA,NA,NA,NA,NA,fixation,NA,NA,NA,NA,NA,NA,sub75
d3-animate-choice,73,296838,0.0-61.0-0.4,FALSE,FALSE,TRUE,FALSE,"""event"",""trial"",""time""
""fullscreenenter"",""5"",""13360""
","
","
","""event"",""trial"",""time""
""fullscreenenter"",""5"",""13360""
","
",437,NA,49,NA,NA,3000,1,NA,NA,images/earth.jpg,images/tutrocket1,images/tutrocket2,null,images/tutrocket2,NA,1,practice,null,1,NA,NA,NA,sub75
d3-animate-choice,74,299668,0.0-61.0-1.4,FALSE,FALSE,TRUE,FALSE,"""event"",""trial"",""time""
""fullscreenenter"",""5"",""13360""
","
","
","""event"",""trial"",""time""
""fullscreenenter"",""5"",""13360""
","
",828,NA,49,NA,NA,3000,1,NA,NA,images/tutyellowplanet.jpg,images/tutalien4,images/tutalien3,images/tutrocket2,images/tutalien3,images/nothing.png,2,practice,false,1,rare,0,2020-06-20T15:51:54Z,sub75
two-step-fixation,75,300670,0.0-61.0-2.4,FALSE,FALSE,TRUE,FALSE,"""event"",""trial"",""time""
""fullscreenenter"",""5"",""13360""
","
","
","""event"",""trial"",""time""
""fullscreenenter"",""5"",""13360""
","
",NA,images/earth.jpg,NA,NA,NA,NA,NA,NA,NA,NA,NA,NA,NA,NA,NA,fixation,NA,NA,NA,NA,NA,NA,sub75
d3-animate-choice,76,303162,0.0-61.0-0.5,FALSE,FALSE,TRUE,FALSE,"""event"",""trial"",""time""
""fullscreenenter"",""5"",""13360""
","
","
","""event"",""trial"",""time""
""fullscreenenter"",""5"",""13360""
","
",491,NA,49,NA,NA,3000,1,NA,NA,images/earth.jpg,images/tutrocket1,images/tutrocket2,null,images/tutrocket2,NA,1,practice,null,1,NA,NA,NA,sub75
d3-animate-choice,77,305653,0.0-61.0-1.5,FALSE,FALSE,TRUE,FALSE,"""event"",""trial"",""time""
""fullscreenenter"",""5"",""13360""
","
","
","""event"",""trial"",""time""
""fullscreenenter"",""5"",""13360""
","
",489.0000000000582,NA,48,NA,NA,3000,1,NA,NA,images/tutgreenplanet.jpg,images/tutalien2,images/tutalien1,images/tutrocket2,images/tutalien2,images/nothing.png,2,practice,true,2,common,0,2020-06-20T15:52:00Z,sub75
two-step-fixation,78,306655,0.0-61.0-2.5,FALSE,FALSE,TRUE,FALSE,"""event"",""trial"",""time""
""fullscreenenter"",""5"",""13360""
","
","
","""event"",""trial"",""time""
""fullscreenenter"",""5"",""13360""
","
",NA,images/earth.jpg,NA,NA,NA,NA,NA,NA,NA,NA,NA,NA,NA,NA,NA,fixation,NA,NA,NA,NA,NA,NA,sub75
d3-animate-choice,79,308973,0.0-61.0-0.6,FALSE,FALSE,TRUE,FALSE,"""event"",""trial"",""time""
""fullscreenenter"",""5"",""13360""
","
","
","""event"",""trial"",""time""
""fullscreenenter"",""5"",""13360""
","
",316,NA,49,NA,NA,3000,1,NA,NA,images/earth.jpg,images/tutrocket1,images/tutrocket2,null,images/tutrocket2,NA,1,practice,null,1,NA,NA,NA,sub75
d3-animate-choice,80,311347,0.0-61.0-1.6,FALSE,FALSE,TRUE,FALSE,"""event"",""trial"",""time""
""fullscreenenter"",""5"",""13360""
","
","
","""event"",""trial"",""time""
""fullscreenenter"",""5"",""13360""
","
",372,NA,49,NA,NA,3000,1,NA,NA,images/tutgreenplanet.jpg,images/tutalien2,images/tutalien1,images/tutrocket2,images/tutalien1,images/nothing.png,2,practice,true,1,common,0,2020-06-20T15:52:06Z,sub75
two-step-fixation,81,312349,0.0-61.0-2.6,FALSE,FALSE,TRUE,FALSE,"""event"",""trial"",""time""
""fullscreenenter"",""5"",""13360""
","
","
","""event"",""trial"",""time""
""fullscreenenter"",""5"",""13360""
","
",NA,images/earth.jpg,NA,NA,NA,NA,NA,NA,NA,NA,NA,NA,NA,NA,NA,fixation,NA,NA,NA,NA,NA,NA,sub75
d3-animate-choice,82,314656,0.0-61.0-0.7,FALSE,FALSE,TRUE,FALSE,"""event"",""trial"",""time""
""fullscreenenter"",""5"",""13360""
","
","
","""event"",""trial"",""time""
""fullscreenenter"",""5"",""13360""
","
",303,NA,49,NA,NA,3000,1,NA,NA,images/earth.jpg,images/tutrocket1,images/tutrocket2,null,images/tutrocket2,NA,1,practice,null,1,NA,NA,NA,sub75
d3-animate-choice,83,316906,0.0-61.0-1.7,FALSE,FALSE,TRUE,FALSE,"""event"",""trial"",""time""
""fullscreenenter"",""5"",""13360""
","
","
","""event"",""trial"",""time""
""fullscreenenter"",""5"",""13360""
","
",249,NA,48,NA,NA,3000,1,NA,NA,images/tutgreenplanet.jpg,images/tutalien2,images/tutalien1,images/tutrocket2,images/tutalien2,images/t.png,2,practice,true,2,common,1,2020-06-20T15:52:12Z,sub75
two-step-fixation,84,317909,0.0-61.0-2.7,FALSE,FALSE,TRUE,FALSE,"""event"",""trial"",""time""
""fullscreenenter"",""5"",""13360""
","
","
","""event"",""trial"",""time""
""fullscreenenter"",""5"",""13360""
","
",NA,images/earth.jpg,NA,NA,NA,NA,NA,NA,NA,NA,NA,NA,NA,NA,NA,fixation,NA,NA,NA,NA,NA,NA,sub75
d3-animate-choice,85,320260,0.0-61.0-0.8,FALSE,FALSE,TRUE,FALSE,"""event"",""trial"",""time""
""fullscreenenter"",""5"",""13360""
","
","
","""event"",""trial"",""time""
""fullscreenenter"",""5"",""13360""
","
",349,NA,49,NA,NA,3000,1,NA,NA,images/earth.jpg,images/tutrocket1,images/tutrocket2,null,images/tutrocket2,NA,1,practice,null,1,NA,NA,NA,sub75
d3-animate-choice,86,322682,0.0-61.0-1.8,FALSE,FALSE,TRUE,FALSE,"""event"",""trial"",""time""
""fullscreenenter"",""5"",""13360""
","
","
","""event"",""trial"",""time""
""fullscreenenter"",""5"",""13360""
","
",420.0000000000582,NA,48,NA,NA,3000,1,NA,NA,images/tutgreenplanet.jpg,images/tutalien2,images/tutalien1,images/tutrocket2,images/tutalien2,images/nothing.png,2,practice,true,2,common,0,2020-06-20T15:52:18Z,sub75
two-step-fixation,87,323683,0.0-61.0-2.8,FALSE,FALSE,TRUE,FALSE,"""event"",""trial"",""time""
""fullscreenenter"",""5"",""13360""
","
","
","""event"",""trial"",""time""
""fullscreenenter"",""5"",""13360""
","
",NA,images/earth.jpg,NA,NA,NA,NA,NA,NA,NA,NA,NA,NA,NA,NA,NA,fixation,NA,NA,NA,NA,NA,NA,sub75
d3-animate-choice,88,325946,0.0-61.0-0.9,FALSE,FALSE,TRUE,FALSE,"""event"",""trial"",""time""
""fullscreenenter"",""5"",""13360""
","
","
","""event"",""trial"",""time""
""fullscreenenter"",""5"",""13360""
","
",260,NA,48,NA,NA,3000,1,NA,NA,images/earth.jpg,images/tutrocket1,images/tutrocket2,null,images/tutrocket1,NA,1,practice,null,2,NA,NA,NA,sub75
d3-animate-choice,89,328833,0.0-61.0-1.9,FALSE,FALSE,TRUE,FALSE,"""event"",""trial"",""time""
""fullscreenenter"",""5"",""13360""
","
","
","""event"",""trial"",""time""
""fullscreenenter"",""5"",""13360""
","
",884,NA,48,NA,NA,3000,1,NA,NA,images/tutyellowplanet.jpg,images/tutalien4,images/tutalien3,images/tutrocket1,images/tutalien4,images/t.png,2,practice,true,2,common,1,2020-06-20T15:52:24Z,sub75
two-step-fixation,90,329836,0.0-61.0-2.9,FALSE,FALSE,TRUE,FALSE,"""event"",""trial"",""time""
""fullscreenenter"",""5"",""13360""
","
","
","""event"",""trial"",""time""
""fullscreenenter"",""5"",""13360""
","
",NA,images/earth.jpg,NA,NA,NA,NA,NA,NA,NA,NA,NA,NA,NA,NA,NA,fixation,NA,NA,NA,NA,NA,NA,sub75
d3-animate-choice,91,332220,0.0-61.0-0.10,FALSE,FALSE,TRUE,FALSE,"""event"",""trial"",""time""
""fullscreenenter"",""5"",""13360""
","
","
","""event"",""trial"",""time""
""fullscreenenter"",""5"",""13360""
","
",381,NA,48,NA,NA,3000,1,NA,NA,images/earth.jpg,images/tutrocket1,images/tutrocket2,null,images/tutrocket1,NA,1,practice,null,2,NA,NA,NA,sub75
d3-animate-choice,92,334642,0.0-61.0-1.10,FALSE,FALSE,TRUE,FALSE,"""event"",""trial"",""time""
""fullscreenenter"",""5"",""13360""
","
","
","""event"",""trial"",""time""
""fullscreenenter"",""5"",""13360""
","
",418.0000000000582,NA,48,NA,NA,3000,1,NA,NA,images/tutyellowplanet.jpg,images/tutalien4,images/tutalien3,images/tutrocket1,images/tutalien4,images/t.png,2,practice,true,2,common,1,2020-06-20T15:52:29Z,sub75
two-step-fixation,93,335644,0.0-61.0-2.10,FALSE,FALSE,TRUE,FALSE,"""event"",""trial"",""time""
""fullscreenenter"",""5"",""13360""
","
","
","""event"",""trial"",""time""
""fullscreenenter"",""5"",""13360""
","
",NA,images/earth.jpg,NA,NA,NA,NA,NA,NA,NA,NA,NA,NA,NA,NA,NA,fixation,NA,NA,NA,NA,NA,NA,sub75
d3-animate-choice,94,337976,0.0-61.0-0.11,FALSE,FALSE,TRUE,FALSE,"""event"",""trial"",""time""
""fullscreenenter"",""5"",""13360""
","
","
","""event"",""trial"",""time""
""fullscreenenter"",""5"",""13360""
","
",329,NA,48,NA,NA,3000,1,NA,NA,images/earth.jpg,images/tutrocket1,images/tutrocket2,null,images/tutrocket1,NA,1,practice,null,2,NA,NA,NA,sub75
d3-animate-choice,95,340360,0.0-61.0-1.11,FALSE,FALSE,TRUE,FALSE,"""event"",""trial"",""time""
""fullscreenenter"",""5"",""13360""
","
","
","""event"",""trial"",""time""
""fullscreenenter"",""5"",""13360""
","
",380,NA,48,NA,NA,3000,1,NA,NA,images/tutyellowplanet.jpg,images/tutalien4,images/tutalien3,images/tutrocket1,images/tutalien4,images/nothing.png,2,practice,true,2,common,0,2020-06-20T15:52:35Z,sub75
two-step-fixation,96,341362,0.0-61.0-2.11,FALSE,FALSE,TRUE,FALSE,"""event"",""trial"",""time""
""fullscreenenter"",""5"",""13360""
","
","
","""event"",""trial"",""time""
""fullscreenenter"",""5"",""13360""
","
",NA,images/earth.jpg,NA,NA,NA,NA,NA,NA,NA,NA,NA,NA,NA,NA,NA,fixation,NA,NA,NA,NA,NA,NA,sub75
d3-animate-choice,97,343615,0.0-61.0-0.12,FALSE,FALSE,TRUE,FALSE,"""event"",""trial"",""time""
""fullscreenenter"",""5"",""13360""
","
","
","""event"",""trial"",""time""
""fullscreenenter"",""5"",""13360""
","
",251,NA,48,NA,NA,3000,1,NA,NA,images/earth.jpg,images/tutrocket1,images/tutrocket2,null,images/tutrocket1,NA,1,practice,null,2,NA,NA,NA,sub75
d3-animate-choice,98,346185,0.0-61.0-1.12,FALSE,FALSE,TRUE,FALSE,"""event"",""trial"",""time""
""fullscreenenter"",""5"",""13360""
","
","
","""event"",""trial"",""time""
""fullscreenenter"",""5"",""13360""
","
",568.9999999999418,NA,48,NA,NA,3000,1,NA,NA,images/tutyellowplanet.jpg,images/tutalien4,images/tutalien3,images/tutrocket1,images/tutalien4,images/t.png,2,practice,true,2,common,1,2020-06-20T15:52:41Z,sub75
two-step-fixation,99,347188,0.0-61.0-2.12,FALSE,FALSE,TRUE,FALSE,"""event"",""trial"",""time""
""fullscreenenter"",""5"",""13360""
","
","
","""event"",""trial"",""time""
""fullscreenenter"",""5"",""13360""
","
",NA,images/earth.jpg,NA,NA,NA,NA,NA,NA,NA,NA,NA,NA,NA,NA,NA,fixation,NA,NA,NA,NA,NA,NA,sub75
d3-animate-choice,100,349442,0.0-61.0-0.13,FALSE,FALSE,TRUE,FALSE,"""event"",""trial"",""time""
""fullscreenenter"",""5"",""13360""
","
","
","""event"",""trial"",""time""
""fullscreenenter"",""5"",""13360""
","
",251,NA,48,NA,NA,3000,1,NA,NA,images/earth.jpg,images/tutrocket1,images/tutrocket2,null,images/tutrocket1,NA,1,practice,null,2,NA,NA,NA,sub75
d3-animate-choice,101,351777,0.0-61.0-1.13,FALSE,FALSE,TRUE,FALSE,"""event"",""trial"",""time""
""fullscreenenter"",""5"",""13360""
","
","
","""event"",""trial"",""time""
""fullscreenenter"",""5"",""13360""
","
",332.9999999999418,NA,48,NA,NA,3000,1,NA,NA,images/tutyellowplanet.jpg,images/tutalien4,images/tutalien3,images/tutrocket1,images/tutalien4,images/nothing.png,2,practice,true,2,common,0,2020-06-20T15:52:47Z,sub75
two-step-fixation,102,352780,0.0-61.0-2.13,FALSE,FALSE,TRUE,FALSE,"""event"",""trial"",""time""
""fullscreenenter"",""5"",""13360""
","
","
","""event"",""trial"",""time""
""fullscreenenter"",""5"",""13360""
","
",NA,images/earth.jpg,NA,NA,NA,NA,NA,NA,NA,NA,NA,NA,NA,NA,NA,fixation,NA,NA,NA,NA,NA,NA,sub75
d3-animate-choice,103,355346,0.0-61.0-0.14,FALSE,FALSE,TRUE,FALSE,"""event"",""trial"",""time""
""fullscreenenter"",""5"",""13360""
","
","
","""event"",""trial"",""time""
""fullscreenenter"",""5"",""13360""
","
",565,NA,48,NA,NA,3000,1,NA,NA,images/earth.jpg,images/tutrocket1,images/tutrocket2,null,images/tutrocket1,NA,1,practice,null,2,NA,NA,NA,sub75
d3-animate-choice,104,357663,0.0-61.0-1.14,FALSE,FALSE,TRUE,FALSE,"""event"",""trial"",""time""
""fullscreenenter"",""5"",""13360""
","
","
","""event"",""trial"",""time""
""fullscreenenter"",""5"",""13360""
","
",314,NA,48,NA,NA,3000,1,NA,NA,images/tutyellowplanet.jpg,images/tutalien4,images/tutalien3,images/tutrocket1,images/tutalien4,images/t.png,2,practice,true,2,common,1,2020-06-20T15:52:52Z,sub75
two-step-fixation,105,358666,0.0-61.0-2.14,FALSE,FALSE,TRUE,FALSE,"""event"",""trial"",""time""
""fullscreenenter"",""5"",""13360""
","
","
","""event"",""trial"",""time""
""fullscreenenter"",""5"",""13360""
","
",NA,images/earth.jpg,NA,NA,NA,NA,NA,NA,NA,NA,NA,NA,NA,NA,NA,fixation,NA,NA,NA,NA,NA,NA,sub75
d3-animate-choice,106,361043,0.0-61.0-0.15,FALSE,FALSE,TRUE,FALSE,"""event"",""trial"",""time""
""fullscreenenter"",""5"",""13360""
","
","
","""event"",""trial"",""time""
""fullscreenenter"",""5"",""13360""
","
",376,NA,48,NA,NA,3000,1,NA,NA,images/earth.jpg,images/tutrocket1,images/tutrocket2,null,images/tutrocket1,NA,1,practice,null,2,NA,NA,NA,sub75
d3-animate-choice,107,363487,0.0-61.0-1.15,FALSE,FALSE,TRUE,FALSE,"""event"",""trial"",""time""
""fullscreenenter"",""5"",""13360""
","
","
","""event"",""trial"",""time""
""fullscreenenter"",""5"",""13360""
","
",441,NA,48,NA,NA,3000,1,NA,NA,images/tutyellowplanet.jpg,images/tutalien4,images/tutalien3,images/tutrocket1,images/tutalien4,images/t.png,2,practice,true,2,common,1,2020-06-20T15:52:58Z,sub75
two-step-fixation,108,364490,0.0-61.0-2.15,FALSE,FALSE,TRUE,FALSE,"""event"",""trial"",""time""
""fullscreenenter"",""5"",""13360""
","
","
","""event"",""trial"",""time""
""fullscreenenter"",""5"",""13360""
","
",NA,images/earth.jpg,NA,NA,NA,NA,NA,NA,NA,NA,NA,NA,NA,NA,NA,fixation,NA,NA,NA,NA,NA,NA,sub75
d3-animate-choice,109,366787,0.0-61.0-0.16,FALSE,FALSE,TRUE,FALSE,"""event"",""trial"",""time""
""fullscreenenter"",""5"",""13360""
","
","
","""event"",""trial"",""time""
""fullscreenenter"",""5"",""13360""
","
",294,NA,48,NA,NA,3000,1,NA,NA,images/earth.jpg,images/tutrocket1,images/tutrocket2,null,images/tutrocket1,NA,1,practice,null,2,NA,NA,NA,sub75
d3-animate-choice,110,369094,0.0-61.0-1.16,FALSE,FALSE,TRUE,FALSE,"""event"",""trial"",""time""
""fullscreenenter"",""5"",""13360""
","
","
","""event"",""trial"",""time""
""fullscreenenter"",""5"",""13360""
","
",305,NA,48,NA,NA,3000,1,NA,NA,images/tutyellowplanet.jpg,images/tutalien4,images/tutalien3,images/tutrocket1,images/tutalien4,images/nothing.png,2,practice,true,2,common,0,2020-06-20T15:53:04Z,sub75
two-step-fixation,111,370096,0.0-61.0-2.16,FALSE,FALSE,TRUE,FALSE,"""event"",""trial"",""time""
""fullscreenenter"",""5"",""13360""
","
","
","""event"",""trial"",""time""
""fullscreenenter"",""5"",""13360""
","
",NA,images/earth.jpg,NA,NA,NA,NA,NA,NA,NA,NA,NA,NA,NA,NA,NA,fixation,NA,NA,NA,NA,NA,NA,sub75
d3-animate-choice,112,372175,0.0-61.0-0.17,FALSE,FALSE,TRUE,FALSE,"""event"",""trial"",""time""
""fullscreenenter"",""5"",""13360""
","
","
","""event"",""trial"",""time""
""fullscreenenter"",""5"",""13360""
","
",77,NA,48,NA,NA,3000,1,NA,NA,images/earth.jpg,images/tutrocket1,images/tutrocket2,null,images/tutrocket1,NA,1,practice,null,2,NA,NA,NA,sub75
d3-animate-choice,113,374660,0.0-61.0-1.17,FALSE,FALSE,TRUE,FALSE,"""event"",""trial"",""time""
""fullscreenenter"",""5"",""13360""
","
","
","""event"",""trial"",""time""
""fullscreenenter"",""5"",""13360""
","
",482,NA,48,NA,NA,3000,1,NA,NA,images/tutgreenplanet.jpg,images/tutalien2,images/tutalien1,images/tutrocket1,images/tutalien2,images/nothing.png,2,practice,false,2,rare,0,2020-06-20T15:53:09Z,sub75
two-step-fixation,114,375662,0.0-61.0-2.17,FALSE,FALSE,TRUE,FALSE,"""event"",""trial"",""time""
""fullscreenenter"",""5"",""13360""
","
","
","""event"",""trial"",""time""
""fullscreenenter"",""5"",""13360""
","
",NA,images/earth.jpg,NA,NA,NA,NA,NA,NA,NA,NA,NA,NA,NA,NA,NA,fixation,NA,NA,NA,NA,NA,NA,sub75
d3-animate-choice,115,377919,0.0-61.0-0.18,FALSE,FALSE,TRUE,FALSE,"""event"",""trial"",""time""
""fullscreenenter"",""5"",""13360""
","
","
","""event"",""trial"",""time""
""fullscreenenter"",""5"",""13360""
","
",253.9999999999418,NA,48,NA,NA,3000,1,NA,NA,images/earth.jpg,images/tutrocket1,images/tutrocket2,null,images/tutrocket1,NA,1,practice,null,2,NA,NA,NA,sub75
d3-animate-choice,116,380254,0.0-61.0-1.18,FALSE,FALSE,TRUE,FALSE,"""event"",""trial"",""time""
""fullscreenenter"",""5"",""13360""
","
","
","""event"",""trial"",""time""
""fullscreenenter"",""5"",""13360""
","
",333.0000000000582,NA,48,NA,NA,3000,1,NA,NA,images/tutyellowplanet.jpg,images/tutalien4,images/tutalien3,images/tutrocket1,images/tutalien4,images/nothing.png,2,practice,true,2,common,0,2020-06-20T15:53:15Z,sub75
two-step-fixation,117,381255,0.0-61.0-2.18,FALSE,FALSE,TRUE,FALSE,"""event"",""trial"",""time""
""fullscreenenter"",""5"",""13360""
","
","
","""event"",""trial"",""time""
""fullscreenenter"",""5"",""13360""
","
",NA,images/earth.jpg,NA,NA,NA,NA,NA,NA,NA,NA,NA,NA,NA,NA,NA,fixation,NA,NA,NA,NA,NA,NA,sub75
d3-animate-choice,118,383542,0.0-61.0-0.19,FALSE,FALSE,TRUE,FALSE,"""event"",""trial"",""time""
""fullscreenenter"",""5"",""13360""
","
","
","""event"",""trial"",""time""
""fullscreenenter"",""5"",""13360""
","
",285,NA,48,NA,NA,3000,1,NA,NA,images/earth.jpg,images/tutrocket1,images/tutrocket2,null,images/tutrocket1,NA,1,practice,null,2,NA,NA,NA,sub75
d3-animate-choice,119,385895,0.0-61.0-1.19,FALSE,FALSE,TRUE,FALSE,"""event"",""trial"",""time""
""fullscreenenter"",""5"",""13360""
","
","
","""event"",""trial"",""time""
""fullscreenenter"",""5"",""13360""
","
",349.9999999999418,NA,49,NA,NA,3000,1,NA,NA,images/tutyellowplanet.jpg,images/tutalien4,images/tutalien3,images/tutrocket1,images/tutalien3,images/nothing.png,2,practice,true,1,common,0,2020-06-20T15:53:21Z,sub75
two-step-fixation,120,386897,0.0-61.0-2.19,FALSE,FALSE,TRUE,FALSE,"""event"",""trial"",""time""
""fullscreenenter"",""5"",""13360""
","
","
","""event"",""trial"",""time""
""fullscreenenter"",""5"",""13360""
","
",NA,images/earth.jpg,NA,NA,NA,NA,NA,NA,NA,NA,NA,NA,NA,NA,NA,fixation,NA,NA,NA,NA,NA,NA,sub75
d3-instructions,121,391502,0.0-62.0,FALSE,FALSE,TRUE,FALSE,"""event"",""trial"",""time""
""fullscreenenter"",""5"",""13360""
","
","
","""event"",""trial"",""time""
""fullscreenenter"",""5"",""13360""
","
",NA,NA,NA,NA,NA,NA,NA,NA,NA,NA,NA,NA,NA,NA,NA,NA,NA,NA,NA,NA,NA,NA,sub75
audio-keyboard-response,122,394488,0.0-63.0,FALSE,FALSE,TRUE,FALSE,"""event"",""trial"",""time""
""fullscreenenter"",""5"",""13360""
","
","
","""event"",""trial"",""time""
""fullscreenenter"",""5"",""13360""
","
",2987,audio/instructions/treasure_feedback.wav,32,NA,NA,NA,NA,NA,NA,NA,NA,NA,NA,NA,NA,NA,NA,NA,NA,NA,NA,NA,sub75
d3-instructions,123,405784,0.0-64.0,FALSE,FALSE,TRUE,FALSE,"""event"",""trial"",""time""
""fullscreenenter"",""5"",""13360""
","
","
","""event"",""trial"",""time""
""fullscreenenter"",""5"",""13360""
","
",NA,NA,NA,NA,NA,NA,NA,NA,NA,NA,NA,NA,NA,NA,NA,NA,NA,NA,NA,NA,NA,NA,sub75
d3-instructions,124,419594,0.0-65.0,FALSE,FALSE,TRUE,FALSE,"""event"",""trial"",""time""
""fullscreenenter"",""5"",""13360""
","
","
","""event"",""trial"",""time""
""fullscreenenter"",""5"",""13360""
","
",NA,NA,NA,NA,NA,NA,NA,NA,NA,NA,NA,NA,NA,NA,NA,NA,NA,NA,NA,NA,NA,NA,sub75
d3-instructions,125,432589,0.0-66.0,FALSE,FALSE,TRUE,FALSE,"""event"",""trial"",""time""
""fullscreenenter"",""5"",""13360""
","
","
","""event"",""trial"",""time""
""fullscreenenter"",""5"",""13360""
","
",NA,NA,NA,NA,NA,NA,NA,NA,NA,NA,NA,NA,NA,NA,NA,NA,NA,NA,NA,NA,NA,NA,sub75
d3-instructions,126,442688,0.0-67.0,FALSE,FALSE,TRUE,FALSE,"""event"",""trial"",""time""
""fullscreenenter"",""5"",""13360""
","
","
","""event"",""trial"",""time""
""fullscreenenter"",""5"",""13360""
","
",NA,NA,NA,NA,NA,NA,NA,NA,NA,NA,NA,NA,NA,NA,NA,NA,NA,NA,NA,NA,NA,NA,sub75
d3-instructions,127,446562,0.0-68.0,FALSE,FALSE,TRUE,FALSE,"""event"",""trial"",""time""
""fullscreenenter"",""5"",""13360""
","
","
","""event"",""trial"",""time""
""fullscreenenter"",""5"",""13360""
","
",NA,NA,NA,NA,NA,NA,NA,NA,NA,NA,NA,NA,NA,NA,NA,NA,NA,NA,NA,NA,NA,NA,sub75
instructions-quiz,128,449730,0.0-69.0,FALSE,FALSE,TRUE,FALSE,"""event"",""trial"",""time""
""fullscreenenter"",""5"",""13360""
","
","
","""event"",""trial"",""time""
""fullscreenenter"",""5"",""13360""
","
",3165,audio/quiz/Q1_Prompt.wav,NA,1,NA,NA,NA,NA,NA,NA,NA,NA,NA,NA,NA,NA,NA,NA,NA,NA,NA,NA,sub75
audio-keyboard-response,129,458902,0.0-70.0,FALSE,FALSE,TRUE,FALSE,"""event"",""trial"",""time""
""fullscreenenter"",""5"",""13360""
","
","
","""event"",""trial"",""time""
""fullscreenenter"",""5"",""13360""
","
",null,audio/quiz/Q1_Correct.wav,null,NA,NA,NA,NA,NA,NA,NA,NA,NA,NA,NA,NA,NA,NA,NA,NA,NA,NA,NA,sub75
instructions-quiz,130,462971,0.0-71.0,FALSE,FALSE,TRUE,FALSE,"""event"",""trial"",""time""
""fullscreenenter"",""5"",""13360""
","
","
","""event"",""trial"",""time""
""fullscreenenter"",""5"",""13360""
","
",4067.999999999942,audio/quiz/Q2_Prompt.wav,NA,0,NA,NA,NA,NA,NA,NA,NA,NA,NA,NA,NA,NA,NA,NA,NA,NA,NA,NA,sub75
audio-keyboard-response,131,475842,0.0-72.0,FALSE,FALSE,TRUE,FALSE,"""event"",""trial"",""time""
""fullscreenenter"",""5"",""13360""
","
","
","""event"",""trial"",""time""
""fullscreenenter"",""5"",""13360""
","
",null,audio/quiz/Q2_Correct.wav,null,NA,NA,NA,NA,NA,NA,NA,NA,NA,NA,NA,NA,NA,NA,NA,NA,NA,NA,NA,sub75
instructions-quiz,132,478873,0.0-73.0,FALSE,FALSE,TRUE,FALSE,"""event"",""trial"",""time""
""fullscreenenter"",""5"",""13360""
","
","
","""event"",""trial"",""time""
""fullscreenenter"",""5"",""13360""
","
",3029,audio/quiz/Q3_Prompt.wav,NA,1,NA,NA,NA,NA,NA,NA,NA,NA,NA,NA,NA,NA,NA,NA,NA,NA,NA,NA,sub75
audio-keyboard-response,133,484672,0.0-74.0,FALSE,FALSE,TRUE,FALSE,"""event"",""trial"",""time""
""fullscreenenter"",""5"",""13360""
","
","
","""event"",""trial"",""time""
""fullscreenenter"",""5"",""13360""
","
",null,audio/quiz/Q3_Correct.wav,null,NA,NA,NA,NA,NA,NA,NA,NA,NA,NA,NA,NA,NA,NA,NA,NA,NA,NA,NA,sub75
d3-instructions,134,494705,0.0-75.0,FALSE,FALSE,TRUE,FALSE,"""event"",""trial"",""time""
""fullscreenenter"",""5"",""13360""
","
","
","""event"",""trial"",""time""
""fullscreenenter"",""5"",""13360""
","
",NA,NA,NA,NA,NA,NA,NA,NA,NA,NA,NA,NA,NA,NA,NA,NA,NA,NA,NA,NA,NA,NA,sub75
d3-animate-choice,135,497805,0.0-76.0-0.0,FALSE,FALSE,TRUE,FALSE,"""event"",""trial"",""time""
""fullscreenenter"",""5"",""13360""
","
","
","""event"",""trial"",""time""
""fullscreenenter"",""5"",""13360""
","
",1097,NA,49,NA,NA,3000,1,NA,NA,images/earth.jpg,images/rocket1,images/rocket2,null,images/rocket2,NA,1,real,null,1,NA,NA,NA,sub75
d3-animate-choice,136,500701,0.0-76.0-1.0,FALSE,FALSE,TRUE,FALSE,"""event"",""trial"",""time""
""fullscreenenter"",""5"",""13360""
","
","
","""event"",""trial"",""time""
""fullscreenenter"",""5"",""13360""
","
",894,NA,49,NA,NA,3000,1,NA,NA,images/redplanet1.jpg,images/alien2,images/alien1,images/rocket2,images/alien1,images/nothing.png,2,real,true,1,common,0,2020-06-20T15:55:16Z,sub75
two-step-fixation,137,501703,0.0-76.0-2.0,FALSE,FALSE,TRUE,FALSE,"""event"",""trial"",""time""
""fullscreenenter"",""5"",""13360""
","
","
","""event"",""trial"",""time""
""fullscreenenter"",""5"",""13360""
","
",NA,images/earth.jpg,NA,NA,NA,NA,NA,NA,NA,NA,NA,NA,NA,NA,NA,fixation,NA,NA,NA,NA,NA,NA,sub75
d3-animate-choice,138,504132,0.0-76.0-0.1,FALSE,FALSE,TRUE,FALSE,"""event"",""trial"",""time""
""fullscreenenter"",""5"",""13360""
","
","
","""event"",""trial"",""time""
""fullscreenenter"",""5"",""13360""
","
",426.0000000000582,NA,49,NA,NA,3000,1,NA,NA,images/earth.jpg,images/rocket1,images/rocket2,null,images/rocket2,NA,1,real,null,1,NA,NA,NA,sub75
d3-animate-choice,139,506771,0.0-76.0-1.1,FALSE,FALSE,TRUE,FALSE,"""event"",""trial"",""time""
""fullscreenenter"",""5"",""13360""
","
","
","""event"",""trial"",""time""
""fullscreenenter"",""5"",""13360""
","
",637.0000000000582,NA,48,NA,NA,3000,1,NA,NA,images/redplanet1.jpg,images/alien2,images/alien1,images/rocket2,images/alien2,images/nothing.png,2,real,true,2,common,0,2020-06-20T15:55:22Z,sub75
two-step-fixation,140,507773,0.0-76.0-2.1,FALSE,FALSE,TRUE,FALSE,"""event"",""trial"",""time""
""fullscreenenter"",""5"",""13360""
","
","
","""event"",""trial"",""time""
""fullscreenenter"",""5"",""13360""
","
",NA,images/earth.jpg,NA,NA,NA,NA,NA,NA,NA,NA,NA,NA,NA,NA,NA,fixation,NA,NA,NA,NA,NA,NA,sub75
d3-animate-choice,141,510079,0.0-76.0-0.2,FALSE,FALSE,TRUE,FALSE,"""event"",""trial"",""time""
""fullscreenenter"",""5"",""13360""
","
","
","""event"",""trial"",""time""
""fullscreenenter"",""5"",""13360""
","
",304,NA,48,NA,NA,3000,1,NA,NA,images/earth.jpg,images/rocket1,images/rocket2,null,images/rocket1,NA,1,real,null,2,NA,NA,NA,sub75
d3-animate-choice,142,512596,0.0-76.0-1.2,FALSE,FALSE,TRUE,FALSE,"""event"",""trial"",""time""
""fullscreenenter"",""5"",""13360""
","
","
","""event"",""trial"",""time""
""fullscreenenter"",""5"",""13360""
","
",514,NA,49,NA,NA,3000,1,NA,NA,images/purpleplanet.jpg,images/alien4,images/alien3,images/rocket1,images/alien3,images/nothing.png,2,real,true,1,common,0,2020-06-20T15:55:27Z,sub75
two-step-fixation,143,513598,0.0-76.0-2.2,FALSE,FALSE,TRUE,FALSE,"""event"",""trial"",""time""
""fullscreenenter"",""5"",""13360""
","
","
","""event"",""trial"",""time""
""fullscreenenter"",""5"",""13360""
","
",NA,images/earth.jpg,NA,NA,NA,NA,NA,NA,NA,NA,NA,NA,NA,NA,NA,fixation,NA,NA,NA,NA,NA,NA,sub75
d3-animate-choice,144,515905,0.0-76.0-0.3,FALSE,FALSE,TRUE,FALSE,"""event"",""trial"",""time""
""fullscreenenter"",""5"",""13360""
","
","
","""event"",""trial"",""time""
""fullscreenenter"",""5"",""13360""
","
",305,NA,48,NA,NA,3000,1,NA,NA,images/earth.jpg,images/rocket1,images/rocket2,null,images/rocket1,NA,1,real,null,2,NA,NA,NA,sub75
d3-animate-choice,145,518308,0.0-76.0-1.3,FALSE,FALSE,TRUE,FALSE,"""event"",""trial"",""time""
""fullscreenenter"",""5"",""13360""
","
","
","""event"",""trial"",""time""
""fullscreenenter"",""5"",""13360""
","
",399,NA,48,NA,NA,3000,1,NA,NA,images/purpleplanet.jpg,images/alien4,images/alien3,images/rocket1,images/alien4,images/t.png,2,real,true,2,common,1,2020-06-20T15:55:33Z,sub75
two-step-fixation,146,519310,0.0-76.0-2.3,FALSE,FALSE,TRUE,FALSE,"""event"",""trial"",""time""
""fullscreenenter"",""5"",""13360""
","
","
","""event"",""trial"",""time""
""fullscreenenter"",""5"",""13360""
","
",NA,images/earth.jpg,NA,NA,NA,NA,NA,NA,NA,NA,NA,NA,NA,NA,NA,fixation,NA,NA,NA,NA,NA,NA,sub75
d3-animate-choice,147,521617,0.0-76.0-0.4,FALSE,FALSE,TRUE,FALSE,"""event"",""trial"",""time""
""fullscreenenter"",""5"",""13360""
","
","
","""event"",""trial"",""time""
""fullscreenenter"",""5"",""13360""
","
",304,NA,48,NA,NA,3000,1,NA,NA,images/earth.jpg,images/rocket1,images/rocket2,null,images/rocket1,NA,1,real,null,2,NA,NA,NA,sub75
d3-animate-choice,148,523988,0.0-76.0-1.4,FALSE,FALSE,TRUE,FALSE,"""event"",""trial"",""time""
""fullscreenenter"",""5"",""13360""
","
","
","""event"",""trial"",""time""
""fullscreenenter"",""5"",""13360""
","
",368,NA,48,NA,NA,3000,1,NA,NA,images/purpleplanet.jpg,images/alien4,images/alien3,images/rocket1,images/alien4,images/t.png,2,real,true,2,common,1,2020-06-20T15:55:39Z,sub75
two-step-fixation,149,524990,0.0-76.0-2.4,FALSE,FALSE,TRUE,FALSE,"""event"",""trial"",""time""
""fullscreenenter"",""5"",""13360""
","
","
","""event"",""trial"",""time""
""fullscreenenter"",""5"",""13360""
","
",NA,images/earth.jpg,NA,NA,NA,NA,NA,NA,NA,NA,NA,NA,NA,NA,NA,fixation,NA,NA,NA,NA,NA,NA,sub75
d3-animate-choice,150,527241,0.0-76.0-0.5,FALSE,FALSE,TRUE,FALSE,"""event"",""trial"",""time""
""fullscreenenter"",""5"",""13360""
","
","
","""event"",""trial"",""time""
""fullscreenenter"",""5"",""13360""
","
",249,NA,48,NA,NA,3000,1,NA,NA,images/earth.jpg,images/rocket1,images/rocket2,null,images/rocket1,NA,1,real,null,2,NA,NA,NA,sub75
d3-animate-choice,151,529526,0.0-76.0-1.5,FALSE,FALSE,TRUE,FALSE,"""event"",""trial"",""time""
""fullscreenenter"",""5"",""13360""
","
","
","""event"",""trial"",""time""
""fullscreenenter"",""5"",""13360""
","
",282,NA,48,NA,NA,3000,1,NA,NA,images/purpleplanet.jpg,images/alien4,images/alien3,images/rocket1,images/alien4,images/t.png,2,real,true,2,common,1,2020-06-20T15:55:44Z,sub75
two-step-fixation,152,530528,0.0-76.0-2.5,FALSE,FALSE,TRUE,FALSE,"""event"",""trial"",""time""
""fullscreenenter"",""5"",""13360""
","
","
","""event"",""trial"",""time""
""fullscreenenter"",""5"",""13360""
","
",NA,images/earth.jpg,NA,NA,NA,NA,NA,NA,NA,NA,NA,NA,NA,NA,NA,fixation,NA,NA,NA,NA,NA,NA,sub75
d3-animate-choice,153,532802,0.0-76.0-0.6,FALSE,FALSE,TRUE,FALSE,"""event"",""trial"",""time""
""fullscreenenter"",""5"",""13360""
","
","
","""event"",""trial"",""time""
""fullscreenenter"",""5"",""13360""
","
",272,NA,48,NA,NA,3000,1,NA,NA,images/earth.jpg,images/rocket1,images/rocket2,null,images/rocket1,NA,1,real,null,2,NA,NA,NA,sub75
d3-animate-choice,154,535247,0.0-76.0-1.6,FALSE,FALSE,TRUE,FALSE,"""event"",""trial"",""time""
""fullscreenenter"",""5"",""13360""
","
","
","""event"",""trial"",""time""
""fullscreenenter"",""5"",""13360""
","
",441.0000000001164,NA,48,NA,NA,3000,1,NA,NA,images/redplanet1.jpg,images/alien2,images/alien1,images/rocket1,images/alien2,images/t.png,2,real,false,2,rare,1,2020-06-20T15:55:50Z,sub75
two-step-fixation,155,536249,0.0-76.0-2.6,FALSE,FALSE,TRUE,FALSE,"""event"",""trial"",""time""
""fullscreenenter"",""5"",""13360""
","
","
","""event"",""trial"",""time""
""fullscreenenter"",""5"",""13360""
","
",NA,images/earth.jpg,NA,NA,NA,NA,NA,NA,NA,NA,NA,NA,NA,NA,NA,fixation,NA,NA,NA,NA,NA,NA,sub75
d3-animate-choice,156,538469,0.0-76.0-0.7,FALSE,FALSE,TRUE,FALSE,"""event"",""trial"",""time""
""fullscreenenter"",""5"",""13360""
","
","
","""event"",""trial"",""time""
""fullscreenenter"",""5"",""13360""
","
",217.99999999988358,NA,48,NA,NA,3000,1,NA,NA,images/earth.jpg,images/rocket1,images/rocket2,null,images/rocket1,NA,1,real,null,2,NA,NA,NA,sub75
d3-animate-choice,157,540813,0.0-76.0-1.7,FALSE,FALSE,TRUE,FALSE,"""event"",""trial"",""time""
""fullscreenenter"",""5"",""13360""
","
","
","""event"",""trial"",""time""
""fullscreenenter"",""5"",""13360""
","
",342,NA,48,NA,NA,3000,1,NA,NA,images/purpleplanet.jpg,images/alien4,images/alien3,images/rocket1,images/alien4,images/t.png,2,real,true,2,common,1,2020-06-20T15:55:56Z,sub75
two-step-fixation,158,541816,0.0-76.0-2.7,FALSE,FALSE,TRUE,FALSE,"""event"",""trial"",""time""
""fullscreenenter"",""5"",""13360""
","
","
","""event"",""trial"",""time""
""fullscreenenter"",""5"",""13360""
","
",NA,images/earth.jpg,NA,NA,NA,NA,NA,NA,NA,NA,NA,NA,NA,NA,NA,fixation,NA,NA,NA,NA,NA,NA,sub75
d3-animate-choice,159,544267,0.0-76.0-0.8,FALSE,FALSE,TRUE,FALSE,"""event"",""trial"",""time""
""fullscreenenter"",""5"",""13360""
","
","
","""event"",""trial"",""time""
""fullscreenenter"",""5"",""13360""
","
",448.9999999998836,NA,48,NA,NA,3000,1,NA,NA,images/earth.jpg,images/rocket1,images/rocket2,null,images/rocket1,NA,1,real,null,2,NA,NA,NA,sub75
d3-animate-choice,160,546577,0.0-76.0-1.8,FALSE,FALSE,TRUE,FALSE,"""event"",""trial"",""time""
""fullscreenenter"",""5"",""13360""
","
","
","""event"",""trial"",""time""
""fullscreenenter"",""5"",""13360""
","
",306.9999999998836,NA,48,NA,NA,3000,1,NA,NA,images/purpleplanet.jpg,images/alien4,images/alien3,images/rocket1,images/alien4,images/t.png,2,real,true,2,common,1,2020-06-20T15:56:01Z,sub75
two-step-fixation,161,547580,0.0-76.0-2.8,FALSE,FALSE,TRUE,FALSE,"""event"",""trial"",""time""
""fullscreenenter"",""5"",""13360""
","
","
","""event"",""trial"",""time""
""fullscreenenter"",""5"",""13360""
","
",NA,images/earth.jpg,NA,NA,NA,NA,NA,NA,NA,NA,NA,NA,NA,NA,NA,fixation,NA,NA,NA,NA,NA,NA,sub75
d3-animate-choice,162,549819,0.0-76.0-0.9,FALSE,FALSE,TRUE,FALSE,"""event"",""trial"",""time""
""fullscreenenter"",""5"",""13360""
","
","
","""event"",""trial"",""time""
""fullscreenenter"",""5"",""13360""
","
",236,NA,48,NA,NA,3000,1,NA,NA,images/earth.jpg,images/rocket1,images/rocket2,null,images/rocket1,NA,1,real,null,2,NA,NA,NA,sub75
d3-animate-choice,163,552097,0.0-76.0-1.9,FALSE,FALSE,TRUE,FALSE,"""event"",""trial"",""time""
""fullscreenenter"",""5"",""13360""
","
","
","""event"",""trial"",""time""
""fullscreenenter"",""5"",""13360""
","
",275.0000000001164,NA,48,NA,NA,3000,1,NA,NA,images/purpleplanet.jpg,images/alien4,images/alien3,images/rocket1,images/alien4,images/t.png,2,real,true,2,common,1,2020-06-20T15:56:07Z,sub75
two-step-fixation,164,553100,0.0-76.0-2.9,FALSE,FALSE,TRUE,FALSE,"""event"",""trial"",""time""
""fullscreenenter"",""5"",""13360""
","
","
","""event"",""trial"",""time""
""fullscreenenter"",""5"",""13360""
","
",NA,images/earth.jpg,NA,NA,NA,NA,NA,NA,NA,NA,NA,NA,NA,NA,NA,fixation,NA,NA,NA,NA,NA,NA,sub75
d3-animate-choice,165,555384,0.0-76.0-0.10,FALSE,FALSE,TRUE,FALSE,"""event"",""trial"",""time""
""fullscreenenter"",""5"",""13360""
","
","
","""event"",""trial"",""time""
""fullscreenenter"",""5"",""13360""
","
",282,NA,48,NA,NA,3000,1,NA,NA,images/earth.jpg,images/rocket1,images/rocket2,null,images/rocket1,NA,1,real,null,2,NA,NA,NA,sub75
d3-animate-choice,166,558182,0.0-76.0-1.10,FALSE,FALSE,TRUE,FALSE,"""event"",""trial"",""time""
""fullscreenenter"",""5"",""13360""
","
","
","""event"",""trial"",""time""
""fullscreenenter"",""5"",""13360""
","
",794,NA,48,NA,NA,3000,1,NA,NA,images/redplanet1.jpg,images/alien2,images/alien1,images/rocket1,images/alien2,images/nothing.png,2,real,false,2,rare,0,2020-06-20T15:56:13Z,sub75
two-step-fixation,167,559184,0.0-76.0-2.10,FALSE,FALSE,TRUE,FALSE,"""event"",""trial"",""time""
""fullscreenenter"",""5"",""13360""
","
","
","""event"",""trial"",""time""
""fullscreenenter"",""5"",""13360""
","
",NA,images/earth.jpg,NA,NA,NA,NA,NA,NA,NA,NA,NA,NA,NA,NA,NA,fixation,NA,NA,NA,NA,NA,NA,sub75
d3-animate-choice,168,561339,0.0-76.0-0.11,FALSE,FALSE,TRUE,FALSE,"""event"",""trial"",""time""
""fullscreenenter"",""5"",""13360""
","
","
","""event"",""trial"",""time""
""fullscreenenter"",""5"",""13360""
","
",152,NA,48,NA,NA,3000,1,NA,NA,images/earth.jpg,images/rocket1,images/rocket2,null,images/rocket1,NA,1,real,null,2,NA,NA,NA,sub75
d3-animate-choice,169,563691,0.0-76.0-1.11,FALSE,FALSE,TRUE,FALSE,"""event"",""trial"",""time""
""fullscreenenter"",""5"",""13360""
","
","
","""event"",""trial"",""time""
""fullscreenenter"",""5"",""13360""
","
",349.9999999998836,NA,48,NA,NA,3000,1,NA,NA,images/purpleplanet.jpg,images/alien4,images/alien3,images/rocket1,images/alien4,images/t.png,2,real,true,2,common,1,2020-06-20T15:56:19Z,sub75
two-step-fixation,170,564692,0.0-76.0-2.11,FALSE,FALSE,TRUE,FALSE,"""event"",""trial"",""time""
""fullscreenenter"",""5"",""13360""
","
","
","""event"",""trial"",""time""
""fullscreenenter"",""5"",""13360""
","
",NA,images/earth.jpg,NA,NA,NA,NA,NA,NA,NA,NA,NA,NA,NA,NA,NA,fixation,NA,NA,NA,NA,NA,NA,sub75
d3-animate-choice,171,566987,0.0-76.0-0.12,FALSE,FALSE,TRUE,FALSE,"""event"",""trial"",""time""
""fullscreenenter"",""5"",""13360""
","
","
","""event"",""trial"",""time""
""fullscreenenter"",""5"",""13360""
","
",293,NA,48,NA,NA,3000,1,NA,NA,images/earth.jpg,images/rocket1,images/rocket2,null,images/rocket1,NA,1,real,null,2,NA,NA,NA,sub75
d3-animate-choice,172,569633,0.0-76.0-1.12,FALSE,FALSE,TRUE,FALSE,"""event"",""trial"",""time""
""fullscreenenter"",""5"",""13360""
","
","
","""event"",""trial"",""time""
""fullscreenenter"",""5"",""13360""
","
",643,NA,48,NA,NA,3000,1,NA,NA,images/purpleplanet.jpg,images/alien4,images/alien3,images/rocket1,images/alien4,images/t.png,2,real,true,2,common,1,2020-06-20T15:56:24Z,sub75
two-step-fixation,173,570636,0.0-76.0-2.12,FALSE,FALSE,TRUE,FALSE,"""event"",""trial"",""time""
""fullscreenenter"",""5"",""13360""
","
","
","""event"",""trial"",""time""
""fullscreenenter"",""5"",""13360""
","
",NA,images/earth.jpg,NA,NA,NA,NA,NA,NA,NA,NA,NA,NA,NA,NA,NA,fixation,NA,NA,NA,NA,NA,NA,sub75
d3-animate-choice,174,573065,0.0-76.0-0.13,FALSE,FALSE,TRUE,FALSE,"""event"",""trial"",""time""
""fullscreenenter"",""5"",""13360""
","
","
","""event"",""trial"",""time""
""fullscreenenter"",""5"",""13360""
","
",426,NA,48,NA,NA,3000,1,NA,NA,images/earth.jpg,images/rocket1,images/rocket2,null,images/rocket1,NA,1,real,null,2,NA,NA,NA,sub75
d3-animate-choice,175,575448,0.0-76.0-1.13,FALSE,FALSE,TRUE,FALSE,"""event"",""trial"",""time""
""fullscreenenter"",""5"",""13360""
","
","
","""event"",""trial"",""time""
""fullscreenenter"",""5"",""13360""
","
",380,NA,48,NA,NA,3000,1,NA,NA,images/purpleplanet.jpg,images/alien4,images/alien3,images/rocket1,images/alien4,images/t.png,2,real,true,2,common,1,2020-06-20T15:56:30Z,sub75
two-step-fixation,176,576450,0.0-76.0-2.13,FALSE,FALSE,TRUE,FALSE,"""event"",""trial"",""time""
""fullscreenenter"",""5"",""13360""
","
","
","""event"",""trial"",""time""
""fullscreenenter"",""5"",""13360""
","
",NA,images/earth.jpg,NA,NA,NA,NA,NA,NA,NA,NA,NA,NA,NA,NA,NA,fixation,NA,NA,NA,NA,NA,NA,sub75
d3-animate-choice,177,578728,0.0-76.0-0.14,FALSE,FALSE,TRUE,FALSE,"""event"",""trial"",""time""
""fullscreenenter"",""5"",""13360""
","
","
","""event"",""trial"",""time""
""fullscreenenter"",""5"",""13360""
","
",275,NA,48,NA,NA,3000,1,NA,NA,images/earth.jpg,images/rocket1,images/rocket2,null,images/rocket1,NA,1,real,null,2,NA,NA,NA,sub75
d3-animate-choice,178,581378,0.0-76.0-1.14,FALSE,FALSE,TRUE,FALSE,"""event"",""trial"",""time""
""fullscreenenter"",""5"",""13360""
","
","
","""event"",""trial"",""time""
""fullscreenenter"",""5"",""13360""
","
",646,NA,48,NA,NA,3000,1,NA,NA,images/purpleplanet.jpg,images/alien4,images/alien3,images/rocket1,images/alien4,images/t.png,2,real,true,2,common,1,2020-06-20T15:56:36Z,sub75
two-step-fixation,179,582380,0.0-76.0-2.14,FALSE,FALSE,TRUE,FALSE,"""event"",""trial"",""time""
""fullscreenenter"",""5"",""13360""
","
","
","""event"",""trial"",""time""
""fullscreenenter"",""5"",""13360""
","
",NA,images/earth.jpg,NA,NA,NA,NA,NA,NA,NA,NA,NA,NA,NA,NA,NA,fixation,NA,NA,NA,NA,NA,NA,sub75
d3-animate-choice,180,584563,0.0-76.0-0.15,FALSE,FALSE,TRUE,FALSE,"""event"",""trial"",""time""
""fullscreenenter"",""5"",""13360""
","
","
","""event"",""trial"",""time""
""fullscreenenter"",""5"",""13360""
","
",181,NA,48,NA,NA,3000,1,NA,NA,images/earth.jpg,images/rocket1,images/rocket2,null,images/rocket1,NA,1,real,null,2,NA,NA,NA,sub75
d3-animate-choice,181,586974,0.0-76.0-1.15,FALSE,FALSE,TRUE,FALSE,"""event"",""trial"",""time""
""fullscreenenter"",""5"",""13360""
","
","
","""event"",""trial"",""time""
""fullscreenenter"",""5"",""13360""
","
",410,NA,48,NA,NA,3000,1,NA,NA,images/purpleplanet.jpg,images/alien4,images/alien3,images/rocket1,images/alien4,images/t.png,2,real,true,2,common,1,2020-06-20T15:56:42Z,sub75
two-step-fixation,182,587976,0.0-76.0-2.15,FALSE,FALSE,TRUE,FALSE,"""event"",""trial"",""time""
""fullscreenenter"",""5"",""13360""
","
","
","""event"",""trial"",""time""
""fullscreenenter"",""5"",""13360""
","
",NA,images/earth.jpg,NA,NA,NA,NA,NA,NA,NA,NA,NA,NA,NA,NA,NA,fixation,NA,NA,NA,NA,NA,NA,sub75
d3-animate-choice,183,590652,0.0-76.0-0.16,FALSE,FALSE,TRUE,FALSE,"""event"",""trial"",""time""
""fullscreenenter"",""5"",""13360""
","
","
","""event"",""trial"",""time""
""fullscreenenter"",""5"",""13360""
","
",674,NA,48,NA,NA,3000,1,NA,NA,images/earth.jpg,images/rocket1,images/rocket2,null,images/rocket1,NA,1,real,null,2,NA,NA,NA,sub75
d3-animate-choice,184,593125,0.0-76.0-1.16,FALSE,FALSE,TRUE,FALSE,"""event"",""trial"",""time""
""fullscreenenter"",""5"",""13360""
","
","
","""event"",""trial"",""time""
""fullscreenenter"",""5"",""13360""
","
",471.0000000001164,NA,48,NA,NA,3000,1,NA,NA,images/purpleplanet.jpg,images/alien4,images/alien3,images/rocket1,images/alien4,images/t.png,2,real,true,2,common,1,2020-06-20T15:56:48Z,sub75
two-step-fixation,185,594126,0.0-76.0-2.16,FALSE,FALSE,TRUE,FALSE,"""event"",""trial"",""time""
""fullscreenenter"",""5"",""13360""
","
","
","""event"",""trial"",""time""
""fullscreenenter"",""5"",""13360""
","
",NA,images/earth.jpg,NA,NA,NA,NA,NA,NA,NA,NA,NA,NA,NA,NA,NA,fixation,NA,NA,NA,NA,NA,NA,sub75
d3-animate-choice,186,596385,0.0-76.0-0.17,FALSE,FALSE,TRUE,FALSE,"""event"",""trial"",""time""
""fullscreenenter"",""5"",""13360""
","
","
","""event"",""trial"",""time""
""fullscreenenter"",""5"",""13360""
","
",257,NA,48,NA,NA,3000,1,NA,NA,images/earth.jpg,images/rocket1,images/rocket2,null,images/rocket1,NA,1,real,null,2,NA,NA,NA,sub75
d3-animate-choice,187,599030,0.0-76.0-1.17,FALSE,FALSE,TRUE,FALSE,"""event"",""trial"",""time""
""fullscreenenter"",""5"",""13360""
","
","
","""event"",""trial"",""time""
""fullscreenenter"",""5"",""13360""
","
",641,NA,48,NA,NA,3000,1,NA,NA,images/purpleplanet.jpg,images/alien4,images/alien3,images/rocket1,images/alien4,images/nothing.png,2,real,true,2,common,0,2020-06-20T15:56:54Z,sub75
two-step-fixation,188,600032,0.0-76.0-2.17,FALSE,FALSE,TRUE,FALSE,"""event"",""trial"",""time""
""fullscreenenter"",""5"",""13360""
","
","
","""event"",""trial"",""time""
""fullscreenenter"",""5"",""13360""
","
",NA,images/earth.jpg,NA,NA,NA,NA,NA,NA,NA,NA,NA,NA,NA,NA,NA,fixation,NA,NA,NA,NA,NA,NA,sub75
d3-animate-choice,189,602316,0.0-76.0-0.18,FALSE,FALSE,TRUE,FALSE,"""event"",""trial"",""time""
""fullscreenenter"",""5"",""13360""
","
","
","""event"",""trial"",""time""
""fullscreenenter"",""5"",""13360""
","
",281,NA,48,NA,NA,3000,1,NA,NA,images/earth.jpg,images/rocket1,images/rocket2,null,images/rocket1,NA,1,real,null,2,NA,NA,NA,sub75
d3-animate-choice,190,604674,0.0-76.0-1.18,FALSE,FALSE,TRUE,FALSE,"""event"",""trial"",""time""
""fullscreenenter"",""5"",""13360""
","
","
","""event"",""trial"",""time""
""fullscreenenter"",""5"",""13360""
","
",356,NA,48,NA,NA,3000,1,NA,NA,images/purpleplanet.jpg,images/alien4,images/alien3,images/rocket1,images/alien4,images/t.png,2,real,true,2,common,1,2020-06-20T15:57:00Z,sub75
two-step-fixation,191,605676,0.0-76.0-2.18,FALSE,FALSE,TRUE,FALSE,"""event"",""trial"",""time""
""fullscreenenter"",""5"",""13360""
","
","
","""event"",""trial"",""time""
""fullscreenenter"",""5"",""13360""
","
",NA,images/earth.jpg,NA,NA,NA,NA,NA,NA,NA,NA,NA,NA,NA,NA,NA,fixation,NA,NA,NA,NA,NA,NA,sub75
d3-animate-choice,192,607946,0.0-76.0-0.19,FALSE,FALSE,TRUE,FALSE,"""event"",""trial"",""time""
""fullscreenenter"",""5"",""13360""
","
","
","""event"",""trial"",""time""
""fullscreenenter"",""5"",""13360""
","
",267,NA,48,NA,NA,3000,1,NA,NA,images/earth.jpg,images/rocket1,images/rocket2,null,images/rocket1,NA,1,real,null,2,NA,NA,NA,sub75
d3-animate-choice,193,610307,0.0-76.0-1.19,FALSE,FALSE,TRUE,FALSE,"""event"",""trial"",""time""
""fullscreenenter"",""5"",""13360""
","
","
","""event"",""trial"",""time""
""fullscreenenter"",""5"",""13360""
","
",360,NA,48,NA,NA,3000,1,NA,NA,images/purpleplanet.jpg,images/alien4,images/alien3,images/rocket1,images/alien4,images/t.png,2,real,true,2,common,1,2020-06-20T15:57:05Z,sub75
two-step-fixation,194,611308,0.0-76.0-2.19,FALSE,FALSE,TRUE,FALSE,"""event"",""trial"",""time""
""fullscreenenter"",""5"",""13360""
","
","
","""event"",""trial"",""time""
""fullscreenenter"",""5"",""13360""
","
",NA,images/earth.jpg,NA,NA,NA,NA,NA,NA,NA,NA,NA,NA,NA,NA,NA,fixation,NA,NA,NA,NA,NA,NA,sub75
d3-animate-choice,195,613522,0.0-76.0-0.20,FALSE,FALSE,TRUE,FALSE,"""event"",""trial"",""time""
""fullscreenenter"",""5"",""13360""
","
","
","""event"",""trial"",""time""
""fullscreenenter"",""5"",""13360""
","
",211,NA,48,NA,NA,3000,1,NA,NA,images/earth.jpg,images/rocket1,images/rocket2,null,images/rocket1,NA,1,real,null,2,NA,NA,NA,sub75
d3-animate-choice,196,615778,0.0-76.0-1.20,FALSE,FALSE,TRUE,FALSE,"""event"",""trial"",""time""
""fullscreenenter"",""5"",""13360""
","
","
","""event"",""trial"",""time""
""fullscreenenter"",""5"",""13360""
","
",253,NA,48,NA,NA,3000,1,NA,NA,images/redplanet1.jpg,images/alien2,images/alien1,images/rocket1,images/alien2,images/t.png,2,real,false,2,rare,1,2020-06-20T15:57:11Z,sub75
two-step-fixation,197,616779,0.0-76.0-2.20,FALSE,FALSE,TRUE,FALSE,"""event"",""trial"",""time""
""fullscreenenter"",""5"",""13360""
","
","
","""event"",""trial"",""time""
""fullscreenenter"",""5"",""13360""
","
",NA,images/earth.jpg,NA,NA,NA,NA,NA,NA,NA,NA,NA,NA,NA,NA,NA,fixation,NA,NA,NA,NA,NA,NA,sub75
d3-animate-choice,198,618923,0.0-76.0-0.21,FALSE,FALSE,TRUE,FALSE,"""event"",""trial"",""time""
""fullscreenenter"",""5"",""13360""
","
","
","""event"",""trial"",""time""
""fullscreenenter"",""5"",""13360""
","
",142,NA,48,NA,NA,3000,1,NA,NA,images/earth.jpg,images/rocket1,images/rocket2,null,images/rocket1,NA,1,real,null,2,NA,NA,NA,sub75
d3-animate-choice,199,621286,0.0-76.0-1.21,FALSE,FALSE,TRUE,FALSE,"""event"",""trial"",""time""
""fullscreenenter"",""5"",""13360""
","
","
","""event"",""trial"",""time""
""fullscreenenter"",""5"",""13360""
","
",361,NA,48,NA,NA,3000,1,NA,NA,images/purpleplanet.jpg,images/alien4,images/alien3,images/rocket1,images/alien4,images/t.png,2,real,true,2,common,1,2020-06-20T15:57:16Z,sub75
two-step-fixation,200,622288,0.0-76.0-2.21,FALSE,FALSE,TRUE,FALSE,"""event"",""trial"",""time""
""fullscreenenter"",""5"",""13360""
","
","
","""event"",""trial"",""time""
""fullscreenenter"",""5"",""13360""
","
",NA,images/earth.jpg,NA,NA,NA,NA,NA,NA,NA,NA,NA,NA,NA,NA,NA,fixation,NA,NA,NA,NA,NA,NA,sub75
d3-animate-choice,201,624366,0.0-76.0-0.22,FALSE,FALSE,TRUE,FALSE,"""event"",""trial"",""time""
""fullscreenenter"",""5"",""13360""
","
","
","""event"",""trial"",""time""
""fullscreenenter"",""5"",""13360""
","
",75,NA,48,NA,NA,3000,1,NA,NA,images/earth.jpg,images/rocket1,images/rocket2,null,images/rocket1,NA,1,real,null,2,NA,NA,NA,sub75
d3-animate-choice,202,626836,0.0-76.0-1.22,FALSE,FALSE,TRUE,FALSE,"""event"",""trial"",""time""
""fullscreenenter"",""5"",""13360""
","
","
","""event"",""trial"",""time""
""fullscreenenter"",""5"",""13360""
","
",467,NA,48,NA,NA,3000,1,NA,NA,images/purpleplanet.jpg,images/alien4,images/alien3,images/rocket1,images/alien4,images/t.png,2,real,true,2,common,1,2020-06-20T15:57:22Z,sub75
two-step-fixation,203,627838,0.0-76.0-2.22,FALSE,FALSE,TRUE,FALSE,"""event"",""trial"",""time""
""fullscreenenter"",""5"",""13360""
","
","
","""event"",""trial"",""time""
""fullscreenenter"",""5"",""13360""
","
",NA,images/earth.jpg,NA,NA,NA,NA,NA,NA,NA,NA,NA,NA,NA,NA,NA,fixation,NA,NA,NA,NA,NA,NA,sub75
d3-animate-choice,204,630161,0.0-76.0-0.23,FALSE,FALSE,TRUE,FALSE,"""event"",""trial"",""time""
""fullscreenenter"",""5"",""13360""
","
","
","""event"",""trial"",""time""
""fullscreenenter"",""5"",""13360""
","
",319.9999999998836,NA,48,NA,NA,3000,1,NA,NA,images/earth.jpg,images/rocket1,images/rocket2,null,images/rocket1,NA,1,real,null,2,NA,NA,NA,sub75
d3-animate-choice,205,632504,0.0-76.0-1.23,FALSE,FALSE,TRUE,FALSE,"""event"",""trial"",""time""
""fullscreenenter"",""5"",""13360""
","
","
","""event"",""trial"",""time""
""fullscreenenter"",""5"",""13360""
","
",340,NA,48,NA,NA,3000,1,NA,NA,images/purpleplanet.jpg,images/alien4,images/alien3,images/rocket1,images/alien4,images/t.png,2,real,true,2,common,1,2020-06-20T15:57:27Z,sub75
two-step-fixation,206,633506,0.0-76.0-2.23,FALSE,FALSE,TRUE,FALSE,"""event"",""trial"",""time""
""fullscreenenter"",""5"",""13360""
","
","
","""event"",""trial"",""time""
""fullscreenenter"",""5"",""13360""
","
",NA,images/earth.jpg,NA,NA,NA,NA,NA,NA,NA,NA,NA,NA,NA,NA,NA,fixation,NA,NA,NA,NA,NA,NA,sub75
d3-animate-choice,207,635628,0.0-76.0-0.24,FALSE,FALSE,TRUE,FALSE,"""event"",""trial"",""time""
""fullscreenenter"",""5"",""13360""
","
","
","""event"",""trial"",""time""
""fullscreenenter"",""5"",""13360""
","
",119,NA,48,NA,NA,3000,1,NA,NA,images/earth.jpg,images/rocket1,images/rocket2,null,images/rocket1,NA,1,real,null,2,NA,NA,NA,sub75
d3-animate-choice,208,637759,0.0-76.0-1.24,FALSE,FALSE,TRUE,FALSE,"""event"",""trial"",""time""
""fullscreenenter"",""5"",""13360""
","
","
","""event"",""trial"",""time""
""fullscreenenter"",""5"",""13360""
","
",129,NA,48,NA,NA,3000,1,NA,NA,images/purpleplanet.jpg,images/alien4,images/alien3,images/rocket1,images/alien4,images/t.png,2,real,true,2,common,1,2020-06-20T15:57:33Z,sub75
two-step-fixation,209,638760,0.0-76.0-2.24,FALSE,FALSE,TRUE,FALSE,"""event"",""trial"",""time""
""fullscreenenter"",""5"",""13360""
","
","
","""event"",""trial"",""time""
""fullscreenenter"",""5"",""13360""
","
",NA,images/earth.jpg,NA,NA,NA,NA,NA,NA,NA,NA,NA,NA,NA,NA,NA,fixation,NA,NA,NA,NA,NA,NA,sub75
d3-animate-choice,210,640997,0.0-76.0-0.25,FALSE,FALSE,TRUE,FALSE,"""event"",""trial"",""time""
""fullscreenenter"",""5"",""13360""
","
","
","""event"",""trial"",""time""
""fullscreenenter"",""5"",""13360""
","
",235,NA,48,NA,NA,3000,1,NA,NA,images/earth.jpg,images/rocket1,images/rocket2,null,images/rocket1,NA,1,real,null,2,NA,NA,NA,sub75
d3-animate-choice,211,644130,0.0-76.0-1.25,FALSE,FALSE,TRUE,FALSE,"""event"",""trial"",""time""
""fullscreenenter"",""5"",""13360""
","
","
","""event"",""trial"",""time""
""fullscreenenter"",""5"",""13360""
","
",1130.9999999998836,NA,48,NA,NA,3000,1,NA,NA,images/redplanet1.jpg,images/alien2,images/alien1,images/rocket1,images/alien2,images/nothing.png,2,real,false,2,rare,0,2020-06-20T15:57:39Z,sub75
two-step-fixation,212,645134,0.0-76.0-2.25,FALSE,FALSE,TRUE,FALSE,"""event"",""trial"",""time""
""fullscreenenter"",""5"",""13360""
","
","
","""event"",""trial"",""time""
""fullscreenenter"",""5"",""13360""
","
",NA,images/earth.jpg,NA,NA,NA,NA,NA,NA,NA,NA,NA,NA,NA,NA,NA,fixation,NA,NA,NA,NA,NA,NA,sub75
d3-animate-choice,213,647281,0.0-76.0-0.26,FALSE,FALSE,TRUE,FALSE,"""event"",""trial"",""time""
""fullscreenenter"",""5"",""13360""
","
","
","""event"",""trial"",""time""
""fullscreenenter"",""5"",""13360""
","
",144,NA,48,NA,NA,3000,1,"345,532,747,1017,1254",4848484848,images/earth.jpg,images/rocket1,images/rocket2,null,images/rocket1,NA,1,real,null,2,NA,NA,NA,sub75
d3-animate-choice,214,649386,0.0-76.0-1.26,FALSE,FALSE,TRUE,FALSE,"""event"",""trial"",""time""
""fullscreenenter"",""5"",""13360""
","
","
","""event"",""trial"",""time""
""fullscreenenter"",""5"",""13360""
","
",103,NA,48,NA,NA,3000,1,NA,NA,images/purpleplanet.jpg,images/alien4,images/alien3,images/rocket1,images/alien4,images/t.png,2,real,true,2,common,1,2020-06-20T15:57:44Z,sub75
two-step-fixation,215,650387,0.0-76.0-2.26,FALSE,FALSE,TRUE,FALSE,"""event"",""trial"",""time""
""fullscreenenter"",""5"",""13360""
","
","
","""event"",""trial"",""time""
""fullscreenenter"",""5"",""13360""
","
",NA,images/earth.jpg,NA,NA,NA,NA,NA,NA,NA,NA,NA,NA,NA,NA,NA,fixation,NA,NA,NA,NA,NA,NA,sub75
d3-animate-choice,216,652533,0.0-76.0-0.27,FALSE,FALSE,TRUE,FALSE,"""event"",""trial"",""time""
""fullscreenenter"",""5"",""13360""
","
","
","""event"",""trial"",""time""
""fullscreenenter"",""5"",""13360""
","
",144,NA,48,NA,NA,3000,1,NA,NA,images/earth.jpg,images/rocket1,images/rocket2,null,images/rocket1,NA,1,real,null,2,NA,NA,NA,sub75
d3-animate-choice,217,655019,0.0-76.0-1.27,FALSE,FALSE,TRUE,FALSE,"""event"",""trial"",""time""
""fullscreenenter"",""5"",""13360""
","
","
","""event"",""trial"",""time""
""fullscreenenter"",""5"",""13360""
","
",483,NA,48,NA,NA,3000,1,NA,NA,images/purpleplanet.jpg,images/alien4,images/alien3,images/rocket1,images/alien4,images/t.png,2,real,true,2,common,1,2020-06-20T15:57:50Z,sub75
two-step-fixation,218,656020,0.0-76.0-2.27,FALSE,FALSE,TRUE,FALSE,"""event"",""trial"",""time""
""fullscreenenter"",""5"",""13360""
","
","
","""event"",""trial"",""time""
""fullscreenenter"",""5"",""13360""
","
",NA,images/earth.jpg,NA,NA,NA,NA,NA,NA,NA,NA,NA,NA,NA,NA,NA,fixation,NA,NA,NA,NA,NA,NA,sub75
d3-animate-choice,219,658476,0.0-76.0-0.28,FALSE,FALSE,TRUE,FALSE,"""event"",""trial"",""time""
""fullscreenenter"",""5"",""13360""
","
","
","""event"",""trial"",""time""
""fullscreenenter"",""5"",""13360""
","
",452.9999999998836,NA,48,NA,NA,3000,1,NA,NA,images/earth.jpg,images/rocket1,images/rocket2,null,images/rocket1,NA,1,real,null,2,NA,NA,NA,sub75
d3-animate-choice,220,660983,0.0-76.0-1.28,FALSE,FALSE,TRUE,FALSE,"""event"",""trial"",""time""
""fullscreenenter"",""5"",""13360""
","
","
","""event"",""trial"",""time""
""fullscreenenter"",""5"",""13360""
","
",506,NA,48,NA,NA,3000,1,NA,NA,images/purpleplanet.jpg,images/alien4,images/alien3,images/rocket1,images/alien4,images/t.png,2,real,true,2,common,1,2020-06-20T15:57:56Z,sub75
two-step-fixation,221,661985,0.0-76.0-2.28,FALSE,FALSE,TRUE,FALSE,"""event"",""trial"",""time""
""fullscreenenter"",""5"",""13360""
","
","
","""event"",""trial"",""time""
""fullscreenenter"",""5"",""13360""
","
",NA,images/earth.jpg,NA,NA,NA,NA,NA,NA,NA,NA,NA,NA,NA,NA,NA,fixation,NA,NA,NA,NA,NA,NA,sub75
d3-animate-choice,222,664529,0.0-76.0-0.29,FALSE,FALSE,TRUE,FALSE,"""event"",""trial"",""time""
""fullscreenenter"",""5"",""13360""
","
","
","""event"",""trial"",""time""
""fullscreenenter"",""5"",""13360""
","
",541,NA,48,NA,NA,3000,1,NA,NA,images/earth.jpg,images/rocket1,images/rocket2,null,images/rocket1,NA,1,real,null,2,NA,NA,NA,sub75
d3-animate-choice,223,667157,0.0-76.0-1.29,FALSE,FALSE,TRUE,FALSE,"""event"",""trial"",""time""
""fullscreenenter"",""5"",""13360""
","
","
","""event"",""trial"",""time""
""fullscreenenter"",""5"",""13360""
","
",625,NA,48,NA,NA,3000,1,NA,NA,images/purpleplanet.jpg,images/alien4,images/alien3,images/rocket1,images/alien4,images/t.png,2,real,true,2,common,1,2020-06-20T15:58:02Z,sub75
two-step-fixation,224,668158,0.0-76.0-2.29,FALSE,FALSE,TRUE,FALSE,"""event"",""trial"",""time""
""fullscreenenter"",""5"",""13360""
","
","
","""event"",""trial"",""time""
""fullscreenenter"",""5"",""13360""
","
",NA,images/earth.jpg,NA,NA,NA,NA,NA,NA,NA,NA,NA,NA,NA,NA,NA,fixation,NA,NA,NA,NA,NA,NA,sub75
d3-animate-choice,225,670459,0.0-76.0-0.30,FALSE,FALSE,TRUE,FALSE,"""event"",""trial"",""time""
""fullscreenenter"",""5"",""13360""
","
","
","""event"",""trial"",""time""
""fullscreenenter"",""5"",""13360""
","
",298,NA,48,NA,NA,3000,1,NA,NA,images/earth.jpg,images/rocket1,images/rocket2,null,images/rocket1,NA,1,real,null,2,NA,NA,NA,sub75
d3-animate-choice,226,672856,0.0-76.0-1.30,FALSE,FALSE,TRUE,FALSE,"""event"",""trial"",""time""
""fullscreenenter"",""5"",""13360""
","
","
","""event"",""trial"",""time""
""fullscreenenter"",""5"",""13360""
","
",396,NA,48,NA,NA,3000,1,NA,NA,images/redplanet1.jpg,images/alien2,images/alien1,images/rocket1,images/alien2,images/t.png,2,real,false,2,rare,1,2020-06-20T15:58:08Z,sub75
two-step-fixation,227,673859,0.0-76.0-2.30,FALSE,FALSE,TRUE,FALSE,"""event"",""trial"",""time""
""fullscreenenter"",""5"",""13360""
","
","
","""event"",""trial"",""time""
""fullscreenenter"",""5"",""13360""
","
",NA,images/earth.jpg,NA,NA,NA,NA,NA,NA,NA,NA,NA,NA,NA,NA,NA,fixation,NA,NA,NA,NA,NA,NA,sub75
d3-animate-choice,228,675998,0.0-76.0-0.31,FALSE,FALSE,TRUE,FALSE,"""event"",""trial"",""time""
""fullscreenenter"",""5"",""13360""
","
","
","""event"",""trial"",""time""
""fullscreenenter"",""5"",""13360""
","
",137,NA,48,NA,NA,3000,1,NA,NA,images/earth.jpg,images/rocket1,images/rocket2,null,images/rocket1,NA,1,real,null,2,NA,NA,NA,sub75
d3-animate-choice,229,678601,0.0-76.0-1.31,FALSE,FALSE,TRUE,FALSE,"""event"",""trial"",""time""
""fullscreenenter"",""5"",""13360""
","
","
","""event"",""trial"",""time""
""fullscreenenter"",""5"",""13360""
","
",602,NA,48,NA,NA,3000,1,NA,NA,images/purpleplanet.jpg,images/alien4,images/alien3,images/rocket1,images/alien4,images/t.png,2,real,true,2,common,1,2020-06-20T15:58:13Z,sub75
two-step-fixation,230,679602,0.0-76.0-2.31,FALSE,FALSE,TRUE,FALSE,"""event"",""trial"",""time""
""fullscreenenter"",""5"",""13360""
","
","
","""event"",""trial"",""time""
""fullscreenenter"",""5"",""13360""
","
",NA,images/earth.jpg,NA,NA,NA,NA,NA,NA,NA,NA,NA,NA,NA,NA,NA,fixation,NA,NA,NA,NA,NA,NA,sub75
d3-animate-choice,231,681701,0.0-76.0-0.32,FALSE,FALSE,TRUE,FALSE,"""event"",""trial"",""time""
""fullscreenenter"",""5"",""13360""
","
","
","""event"",""trial"",""time""
""fullscreenenter"",""5"",""13360""
","
",96,NA,48,NA,NA,3000,1,NA,NA,images/earth.jpg,images/rocket1,images/rocket2,null,images/rocket1,NA,1,real,null,2,NA,NA,NA,sub75
d3-animate-choice,232,684362,0.0-76.0-1.32,FALSE,FALSE,TRUE,FALSE,"""event"",""trial"",""time""
""fullscreenenter"",""5"",""13360""
","
","
","""event"",""trial"",""time""
""fullscreenenter"",""5"",""13360""
","
",658,NA,48,NA,NA,3000,1,NA,NA,images/purpleplanet.jpg,images/alien4,images/alien3,images/rocket1,images/alien4,images/t.png,2,real,true,2,common,1,2020-06-20T15:58:19Z,sub75
two-step-fixation,233,685364,0.0-76.0-2.32,FALSE,FALSE,TRUE,FALSE,"""event"",""trial"",""time""
""fullscreenenter"",""5"",""13360""
","
","
","""event"",""trial"",""time""
""fullscreenenter"",""5"",""13360""
","
",NA,images/earth.jpg,NA,NA,NA,NA,NA,NA,NA,NA,NA,NA,NA,NA,NA,fixation,NA,NA,NA,NA,NA,NA,sub75
d3-animate-choice,234,687627,0.0-76.0-0.33,FALSE,FALSE,TRUE,FALSE,"""event"",""trial"",""time""
""fullscreenenter"",""5"",""13360""
","
","
","""event"",""trial"",""time""
""fullscreenenter"",""5"",""13360""
","
",259,NA,48,NA,NA,3000,1,NA,NA,images/earth.jpg,images/rocket1,images/rocket2,null,images/rocket1,NA,1,real,null,2,NA,NA,NA,sub75
d3-animate-choice,235,690098,0.0-76.0-1.33,FALSE,FALSE,TRUE,FALSE,"""event"",""trial"",""time""
""fullscreenenter"",""5"",""13360""
","
","
","""event"",""trial"",""time""
""fullscreenenter"",""5"",""13360""
","
",468,NA,48,NA,NA,3000,1,2136,48,images/purpleplanet.jpg,images/alien4,images/alien3,images/rocket1,images/alien4,images/nothing.png,2,real,true,2,common,0,2020-06-20T15:58:25Z,sub75
two-step-fixation,236,691099,0.0-76.0-2.33,FALSE,FALSE,TRUE,FALSE,"""event"",""trial"",""time""
""fullscreenenter"",""5"",""13360""
","
","
","""event"",""trial"",""time""
""fullscreenenter"",""5"",""13360""
","
",NA,images/earth.jpg,NA,NA,NA,NA,NA,NA,NA,NA,NA,NA,NA,NA,NA,fixation,NA,NA,NA,NA,NA,NA,sub75
d3-animate-choice,237,693132,0.0-76.0-0.34,FALSE,FALSE,TRUE,FALSE,"""event"",""trial"",""time""
""fullscreenenter"",""5"",""13360""
","
","
","""event"",""trial"",""time""
""fullscreenenter"",""5"",""13360""
","
",31,NA,48,NA,NA,3000,1,NA,NA,images/earth.jpg,images/rocket1,images/rocket2,null,images/rocket1,NA,1,real,null,2,NA,NA,NA,sub75
d3-animate-choice,238,695589,0.0-76.0-1.34,FALSE,FALSE,TRUE,FALSE,"""event"",""trial"",""time""
""fullscreenenter"",""5"",""13360""
","
","
","""event"",""trial"",""time""
""fullscreenenter"",""5"",""13360""
","
",456,NA,48,NA,NA,3000,1,NA,NA,images/purpleplanet.jpg,images/alien4,images/alien3,images/rocket1,images/alien4,images/t.png,2,real,true,2,common,1,2020-06-20T15:58:30Z,sub75
two-step-fixation,239,696591,0.0-76.0-2.34,FALSE,FALSE,TRUE,FALSE,"""event"",""trial"",""time""
""fullscreenenter"",""5"",""13360""
","
","
","""event"",""trial"",""time""
""fullscreenenter"",""5"",""13360""
","
",NA,images/earth.jpg,NA,NA,NA,NA,NA,NA,NA,NA,NA,NA,NA,NA,NA,fixation,NA,NA,NA,NA,NA,NA,sub75
d3-animate-choice,240,698924,0.0-76.0-0.35,FALSE,FALSE,TRUE,FALSE,"""event"",""trial"",""time""
""fullscreenenter"",""5"",""13360""
","
","
","""event"",""trial"",""time""
""fullscreenenter"",""5"",""13360""
","
",331,NA,48,NA,NA,3000,1,NA,NA,images/earth.jpg,images/rocket1,images/rocket2,null,images/rocket1,NA,1,real,null,2,NA,NA,NA,sub75
d3-animate-choice,241,701420,0.0-76.0-1.35,FALSE,FALSE,TRUE,FALSE,"""event"",""trial"",""time""
""fullscreenenter"",""5"",""13360""
","
","
","""event"",""trial"",""time""
""fullscreenenter"",""5"",""13360""
","
",494,NA,48,NA,NA,3000,1,NA,NA,images/purpleplanet.jpg,images/alien4,images/alien3,images/rocket1,images/alien4,images/t.png,2,real,true,2,common,1,2020-06-20T15:58:36Z,sub75
two-step-fixation,242,702421,0.0-76.0-2.35,FALSE,FALSE,TRUE,FALSE,"""event"",""trial"",""time""
""fullscreenenter"",""5"",""13360""
","
","
","""event"",""trial"",""time""
""fullscreenenter"",""5"",""13360""
","
",NA,images/earth.jpg,NA,NA,NA,NA,NA,NA,NA,NA,NA,NA,NA,NA,NA,fixation,NA,NA,NA,NA,NA,NA,sub75
d3-animate-choice,243,704627,0.0-76.0-0.36,FALSE,FALSE,TRUE,FALSE,"""event"",""trial"",""time""
""fullscreenenter"",""5"",""13360""
","
","
","""event"",""trial"",""time""
""fullscreenenter"",""5"",""13360""
","
",203,NA,48,NA,NA,3000,1,NA,NA,images/earth.jpg,images/rocket1,images/rocket2,null,images/rocket1,NA,1,real,null,2,NA,NA,NA,sub75
d3-animate-choice,244,707137,0.0-76.0-1.36,FALSE,FALSE,TRUE,FALSE,"""event"",""trial"",""time""
""fullscreenenter"",""5"",""13360""
","
","
","""event"",""trial"",""time""
""fullscreenenter"",""5"",""13360""
","
",507,NA,48,NA,NA,3000,1,NA,NA,images/purpleplanet.jpg,images/alien4,images/alien3,images/rocket1,images/alien4,images/nothing.png,2,real,true,2,common,0,2020-06-20T15:58:42Z,sub75
two-step-fixation,245,708139,0.0-76.0-2.36,FALSE,FALSE,TRUE,FALSE,"""event"",""trial"",""time""
""fullscreenenter"",""5"",""13360""
","
","
","""event"",""trial"",""time""
""fullscreenenter"",""5"",""13360""
","
",NA,images/earth.jpg,NA,NA,NA,NA,NA,NA,NA,NA,NA,NA,NA,NA,NA,fixation,NA,NA,NA,NA,NA,NA,sub75
d3-animate-choice,246,710651,0.0-76.0-0.37,FALSE,FALSE,TRUE,FALSE,"""event"",""trial"",""time""
""fullscreenenter"",""5"",""13360""
","
","
","""event"",""trial"",""time""
""fullscreenenter"",""5"",""13360""
","
",510,NA,48,NA,NA,3000,1,NA,NA,images/earth.jpg,images/rocket1,images/rocket2,null,images/rocket1,NA,1,real,null,2,NA,NA,NA,sub75
d3-animate-choice,247,712955,0.0-76.0-1.37,FALSE,FALSE,TRUE,FALSE,"""event"",""trial"",""time""
""fullscreenenter"",""5"",""13360""
","
","
","""event"",""trial"",""time""
""fullscreenenter"",""5"",""13360""
","
",302,NA,48,NA,NA,3000,1,NA,NA,images/redplanet1.jpg,images/alien2,images/alien1,images/rocket1,images/alien2,images/t.png,2,real,false,2,rare,1,2020-06-20T15:58:48Z,sub75
two-step-fixation,248,713958,0.0-76.0-2.37,FALSE,FALSE,TRUE,FALSE,"""event"",""trial"",""time""
""fullscreenenter"",""5"",""13360""
","
","
","""event"",""trial"",""time""
""fullscreenenter"",""5"",""13360""
","
",NA,images/earth.jpg,NA,NA,NA,NA,NA,NA,NA,NA,NA,NA,NA,NA,NA,fixation,NA,NA,NA,NA,NA,NA,sub75
d3-animate-choice,249,716282,0.0-76.0-0.38,FALSE,FALSE,TRUE,FALSE,"""event"",""trial"",""time""
""fullscreenenter"",""5"",""13360""
","
","
","""event"",""trial"",""time""
""fullscreenenter"",""5"",""13360""
","
",322,NA,48,NA,NA,3000,1,NA,NA,images/earth.jpg,images/rocket1,images/rocket2,null,images/rocket1,NA,1,real,null,2,NA,NA,NA,sub75
d3-animate-choice,250,718916,0.0-76.0-1.38,FALSE,FALSE,TRUE,FALSE,"""event"",""trial"",""time""
""fullscreenenter"",""5"",""13360""
","
","
","""event"",""trial"",""time""
""fullscreenenter"",""5"",""13360""
","
",632,NA,48,NA,NA,3000,1,NA,NA,images/purpleplanet.jpg,images/alien4,images/alien3,images/rocket1,images/alien4,images/t.png,2,real,true,2,common,1,2020-06-20T15:58:54Z,sub75
two-step-fixation,251,719917,0.0-76.0-2.38,FALSE,FALSE,TRUE,FALSE,"""event"",""trial"",""time""
""fullscreenenter"",""5"",""13360""
","
","
","""event"",""trial"",""time""
""fullscreenenter"",""5"",""13360""
","
",NA,images/earth.jpg,NA,NA,NA,NA,NA,NA,NA,NA,NA,NA,NA,NA,NA,fixation,NA,NA,NA,NA,NA,NA,sub75
d3-animate-choice,252,722204,0.0-76.0-0.39,FALSE,FALSE,TRUE,FALSE,"""event"",""trial"",""time""
""fullscreenenter"",""5"",""13360""
","
","
","""event"",""trial"",""time""
""fullscreenenter"",""5"",""13360""
","
",284,NA,48,NA,NA,3000,1,NA,NA,images/earth.jpg,images/rocket1,images/rocket2,null,images/rocket1,NA,1,real,null,2,NA,NA,NA,sub75
d3-animate-choice,253,724918,0.0-76.0-1.39,FALSE,FALSE,TRUE,FALSE,"""event"",""trial"",""time""
""fullscreenenter"",""5"",""13360""
","
","
","""event"",""trial"",""time""
""fullscreenenter"",""5"",""13360""
","
",711,NA,48,NA,NA,3000,1,NA,NA,images/redplanet1.jpg,images/alien2,images/alien1,images/rocket1,images/alien2,images/nothing.png,2,real,false,2,rare,0,2020-06-20T15:59:00Z,sub75
two-step-fixation,254,725920,0.0-76.0-2.39,FALSE,FALSE,TRUE,FALSE,"""event"",""trial"",""time""
""fullscreenenter"",""5"",""13360""
","
","
","""event"",""trial"",""time""
""fullscreenenter"",""5"",""13360""
","
",NA,images/earth.jpg,NA,NA,NA,NA,NA,NA,NA,NA,NA,NA,NA,NA,NA,fixation,NA,NA,NA,NA,NA,NA,sub75
d3-animate-choice,255,728102,0.0-76.0-0.40,FALSE,FALSE,TRUE,FALSE,"""event"",""trial"",""time""
""fullscreenenter"",""5"",""13360""
","
","
","""event"",""trial"",""time""
""fullscreenenter"",""5"",""13360""
","
",181,NA,48,NA,NA,3000,1,NA,NA,images/earth.jpg,images/rocket1,images/rocket2,null,images/rocket1,NA,1,real,null,2,NA,NA,NA,sub75
d3-animate-choice,256,730537,0.0-76.0-1.40,FALSE,FALSE,TRUE,FALSE,"""event"",""trial"",""time""
""fullscreenenter"",""5"",""13360""
","
","
","""event"",""trial"",""time""
""fullscreenenter"",""5"",""13360""
","
",433,NA,48,NA,NA,3000,1,NA,NA,images/purpleplanet.jpg,images/alien4,images/alien3,images/rocket1,images/alien4,images/nothing.png,2,real,true,2,common,0,2020-06-20T15:59:05Z,sub75
two-step-fixation,257,731539,0.0-76.0-2.40,FALSE,FALSE,TRUE,FALSE,"""event"",""trial"",""time""
""fullscreenenter"",""5"",""13360""
","
","
","""event"",""trial"",""time""
""fullscreenenter"",""5"",""13360""
","
",NA,images/earth.jpg,NA,NA,NA,NA,NA,NA,NA,NA,NA,NA,NA,NA,NA,fixation,NA,NA,NA,NA,NA,NA,sub75
d3-animate-choice,258,733817,0.0-76.0-0.41,FALSE,FALSE,TRUE,FALSE,"""event"",""trial"",""time""
""fullscreenenter"",""5"",""13360""
","
","
","""event"",""trial"",""time""
""fullscreenenter"",""5"",""13360""
","
",275.9999999998836,NA,48,NA,NA,3000,1,NA,NA,images/earth.jpg,images/rocket1,images/rocket2,null,images/rocket1,NA,1,real,null,2,NA,NA,NA,sub75
d3-animate-choice,259,736191,0.0-76.0-1.41,FALSE,FALSE,TRUE,FALSE,"""event"",""trial"",""time""
""fullscreenenter"",""5"",""13360""
","
","
","""event"",""trial"",""time""
""fullscreenenter"",""5"",""13360""
","
",371.9999999998836,NA,48,NA,NA,3000,1,NA,NA,images/purpleplanet.jpg,images/alien4,images/alien3,images/rocket1,images/alien4,images/t.png,2,real,true,2,common,1,2020-06-20T15:59:11Z,sub75
two-step-fixation,260,737193,0.0-76.0-2.41,FALSE,FALSE,TRUE,FALSE,"""event"",""trial"",""time""
""fullscreenenter"",""5"",""13360""
","
","
","""event"",""trial"",""time""
""fullscreenenter"",""5"",""13360""
","
",NA,images/earth.jpg,NA,NA,NA,NA,NA,NA,NA,NA,NA,NA,NA,NA,NA,fixation,NA,NA,NA,NA,NA,NA,sub75
d3-animate-choice,261,739490,0.0-76.0-0.42,FALSE,FALSE,TRUE,FALSE,"""event"",""trial"",""time""
""fullscreenenter"",""5"",""13360""
","
","
","""event"",""trial"",""time""
""fullscreenenter"",""5"",""13360""
","
",294.9999999998836,NA,48,NA,NA,3000,1,NA,NA,images/earth.jpg,images/rocket1,images/rocket2,null,images/rocket1,NA,1,real,null,2,NA,NA,NA,sub75
d3-animate-choice,262,742030,0.0-76.0-1.42,FALSE,FALSE,TRUE,FALSE,"""event"",""trial"",""time""
""fullscreenenter"",""5"",""13360""
","
","
","""event"",""trial"",""time""
""fullscreenenter"",""5"",""13360""
","
",536,NA,48,NA,NA,3000,1,NA,NA,images/purpleplanet.jpg,images/alien4,images/alien3,images/rocket1,images/alien4,images/nothing.png,2,real,true,2,common,0,2020-06-20T15:59:17Z,sub75
two-step-fixation,263,743032,0.0-76.0-2.42,FALSE,FALSE,TRUE,FALSE,"""event"",""trial"",""time""
""fullscreenenter"",""5"",""13360""
","
","
","""event"",""trial"",""time""
""fullscreenenter"",""5"",""13360""
","
",NA,images/earth.jpg,NA,NA,NA,NA,NA,NA,NA,NA,NA,NA,NA,NA,NA,fixation,NA,NA,NA,NA,NA,NA,sub75
d3-animate-choice,264,745319,0.0-76.0-0.43,FALSE,FALSE,TRUE,FALSE,"""event"",""trial"",""time""
""fullscreenenter"",""5"",""13360""
","
","
","""event"",""trial"",""time""
""fullscreenenter"",""5"",""13360""
","
",285.0000000001164,NA,48,NA,NA,3000,1,NA,NA,images/earth.jpg,images/rocket1,images/rocket2,null,images/rocket1,NA,1,real,null,2,NA,NA,NA,sub75
d3-animate-choice,265,748077,0.0-76.0-1.43,FALSE,FALSE,TRUE,FALSE,"""event"",""trial"",""time""
""fullscreenenter"",""5"",""13360""
","
","
","""event"",""trial"",""time""
""fullscreenenter"",""5"",""13360""
","
",756,NA,48,NA,NA,3000,1,NA,NA,images/redplanet1.jpg,images/alien2,images/alien1,images/rocket1,images/alien2,images/t.png,2,real,false,2,rare,1,2020-06-20T15:59:23Z,sub75
two-step-fixation,266,749078,0.0-76.0-2.43,FALSE,FALSE,TRUE,FALSE,"""event"",""trial"",""time""
""fullscreenenter"",""5"",""13360""
","
","
","""event"",""trial"",""time""
""fullscreenenter"",""5"",""13360""
","
",NA,images/earth.jpg,NA,NA,NA,NA,NA,NA,NA,NA,NA,NA,NA,NA,NA,fixation,NA,NA,NA,NA,NA,NA,sub75
d3-animate-choice,267,751362,0.0-76.0-0.44,FALSE,FALSE,TRUE,FALSE,"""event"",""trial"",""time""
""fullscreenenter"",""5"",""13360""
","
","
","""event"",""trial"",""time""
""fullscreenenter"",""5"",""13360""
","
",282.0000000001164,NA,48,NA,NA,3000,1,NA,NA,images/earth.jpg,images/rocket1,images/rocket2,null,images/rocket1,NA,1,real,null,2,NA,NA,NA,sub75
d3-animate-choice,268,753835,0.0-76.0-1.44,FALSE,FALSE,TRUE,FALSE,"""event"",""trial"",""time""
""fullscreenenter"",""5"",""13360""
","
","
","""event"",""trial"",""time""
""fullscreenenter"",""5"",""13360""
","
",471,NA,48,NA,NA,3000,1,NA,NA,images/purpleplanet.jpg,images/alien4,images/alien3,images/rocket1,images/alien4,images/nothing.png,2,real,true,2,common,0,2020-06-20T15:59:29Z,sub75
two-step-fixation,269,754836,0.0-76.0-2.44,FALSE,FALSE,TRUE,FALSE,"""event"",""trial"",""time""
""fullscreenenter"",""5"",""13360""
","
","
","""event"",""trial"",""time""
""fullscreenenter"",""5"",""13360""
","
",NA,images/earth.jpg,NA,NA,NA,NA,NA,NA,NA,NA,NA,NA,NA,NA,NA,fixation,NA,NA,NA,NA,NA,NA,sub75
d3-animate-choice,270,757141,0.0-76.0-0.45,FALSE,FALSE,TRUE,FALSE,"""event"",""trial"",""time""
""fullscreenenter"",""5"",""13360""
","
","
","""event"",""trial"",""time""
""fullscreenenter"",""5"",""13360""
","
",303,NA,48,NA,NA,3000,1,NA,NA,images/earth.jpg,images/rocket1,images/rocket2,null,images/rocket1,NA,1,real,null,2,NA,NA,NA,sub75
d3-animate-choice,271,759592,0.0-76.0-1.45,FALSE,FALSE,TRUE,FALSE,"""event"",""trial"",""time""
""fullscreenenter"",""5"",""13360""
","
","
","""event"",""trial"",""time""
""fullscreenenter"",""5"",""13360""
","
",449,NA,48,NA,NA,3000,1,NA,NA,images/purpleplanet.jpg,images/alien4,images/alien3,images/rocket1,images/alien4,images/nothing.png,2,real,true,2,common,0,2020-06-20T15:59:34Z,sub75
two-step-fixation,272,760594,0.0-76.0-2.45,FALSE,FALSE,TRUE,FALSE,"""event"",""trial"",""time""
""fullscreenenter"",""5"",""13360""
","
","
","""event"",""trial"",""time""
""fullscreenenter"",""5"",""13360""
","
",NA,images/earth.jpg,NA,NA,NA,NA,NA,NA,NA,NA,NA,NA,NA,NA,NA,fixation,NA,NA,NA,NA,NA,NA,sub75
d3-animate-choice,273,762902,0.0-76.0-0.46,FALSE,FALSE,TRUE,FALSE,"""event"",""trial"",""time""
""fullscreenenter"",""5"",""13360""
","
","
","""event"",""trial"",""time""
""fullscreenenter"",""5"",""13360""
","
",306,NA,49,NA,NA,3000,1,NA,NA,images/earth.jpg,images/rocket1,images/rocket2,null,images/rocket2,NA,1,real,null,1,NA,NA,NA,sub75
d3-animate-choice,274,765285,0.0-76.0-1.46,FALSE,FALSE,TRUE,FALSE,"""event"",""trial"",""time""
""fullscreenenter"",""5"",""13360""
","
","
","""event"",""trial"",""time""
""fullscreenenter"",""5"",""13360""
","
",381.0000000001164,NA,48,NA,NA,3000,1,NA,NA,images/redplanet1.jpg,images/alien2,images/alien1,images/rocket2,images/alien2,images/t.png,2,real,true,2,common,1,2020-06-20T15:59:40Z,sub75
two-step-fixation,275,766286,0.0-76.0-2.46,FALSE,FALSE,TRUE,FALSE,"""event"",""trial"",""time""
""fullscreenenter"",""5"",""13360""
","
","
","""event"",""trial"",""time""
""fullscreenenter"",""5"",""13360""
","
",NA,images/earth.jpg,NA,NA,NA,NA,NA,NA,NA,NA,NA,NA,NA,NA,NA,fixation,NA,NA,NA,NA,NA,NA,sub75
d3-animate-choice,276,768574,0.0-76.0-0.47,FALSE,FALSE,TRUE,FALSE,"""event"",""trial"",""time""
""fullscreenenter"",""5"",""13360""
","
","
","""event"",""trial"",""time""
""fullscreenenter"",""5"",""13360""
","
",284,NA,49,NA,NA,3000,1,NA,NA,images/earth.jpg,images/rocket1,images/rocket2,null,images/rocket2,NA,1,real,null,1,NA,NA,NA,sub75
d3-animate-choice,277,771033,0.0-76.0-1.47,FALSE,FALSE,TRUE,FALSE,"""event"",""trial"",""time""
""fullscreenenter"",""5"",""13360""
","
","
","""event"",""trial"",""time""
""fullscreenenter"",""5"",""13360""
","
",457,NA,48,NA,NA,3000,1,NA,NA,images/redplanet1.jpg,images/alien2,images/alien1,images/rocket2,images/alien2,images/t.png,2,real,true,2,common,1,2020-06-20T15:59:46Z,sub75
two-step-fixation,278,772036,0.0-76.0-2.47,FALSE,FALSE,TRUE,FALSE,"""event"",""trial"",""time""
""fullscreenenter"",""5"",""13360""
","
","
","""event"",""trial"",""time""
""fullscreenenter"",""5"",""13360""
","
",NA,images/earth.jpg,NA,NA,NA,NA,NA,NA,NA,NA,NA,NA,NA,NA,NA,fixation,NA,NA,NA,NA,NA,NA,sub75
d3-animate-choice,279,774421,0.0-76.0-0.48,FALSE,FALSE,TRUE,FALSE,"""event"",""trial"",""time""
""fullscreenenter"",""5"",""13360""
","
","
","""event"",""trial"",""time""
""fullscreenenter"",""5"",""13360""
","
",382.0000000001164,NA,49,NA,NA,3000,1,NA,NA,images/earth.jpg,images/rocket1,images/rocket2,null,images/rocket2,NA,1,real,null,1,NA,NA,NA,sub75
d3-animate-choice,280,776847,0.0-76.0-1.48,FALSE,FALSE,TRUE,FALSE,"""event"",""trial"",""time""
""fullscreenenter"",""5"",""13360""
","
","
","""event"",""trial"",""time""
""fullscreenenter"",""5"",""13360""
","
",423,NA,48,NA,NA,3000,1,NA,NA,images/redplanet1.jpg,images/alien2,images/alien1,images/rocket2,images/alien2,images/nothing.png,2,real,true,2,common,0,2020-06-20T15:59:52Z,sub75
two-step-fixation,281,777850,0.0-76.0-2.48,FALSE,FALSE,TRUE,FALSE,"""event"",""trial"",""time""
""fullscreenenter"",""5"",""13360""
","
","
","""event"",""trial"",""time""
""fullscreenenter"",""5"",""13360""
","
",NA,images/earth.jpg,NA,NA,NA,NA,NA,NA,NA,NA,NA,NA,NA,NA,NA,fixation,NA,NA,NA,NA,NA,NA,sub75
d3-animate-choice,282,780185,0.0-76.0-0.49,FALSE,FALSE,TRUE,FALSE,"""event"",""trial"",""time""
""fullscreenenter"",""5"",""13360""
","
","
","""event"",""trial"",""time""
""fullscreenenter"",""5"",""13360""
","
",332.0000000001164,NA,49,NA,NA,3000,1,887,48,images/earth.jpg,images/rocket1,images/rocket2,null,images/rocket2,NA,1,real,null,1,NA,NA,NA,sub75
d3-animate-choice,283,782569,0.0-76.0-1.49,FALSE,FALSE,TRUE,FALSE,"""event"",""trial"",""time""
""fullscreenenter"",""5"",""13360""
","
","
","""event"",""trial"",""time""
""fullscreenenter"",""5"",""13360""
","
",383,NA,48,NA,NA,3000,1,NA,NA,images/purpleplanet.jpg,images/alien4,images/alien3,images/rocket2,images/alien4,images/nothing.png,2,real,false,2,rare,0,2020-06-20T15:59:57Z,sub75
two-step-fixation,284,783570,0.0-76.0-2.49,FALSE,FALSE,TRUE,FALSE,"""event"",""trial"",""time""
""fullscreenenter"",""5"",""13360""
","
","
","""event"",""trial"",""time""
""fullscreenenter"",""5"",""13360""
","
",NA,images/earth.jpg,NA,NA,NA,NA,NA,NA,NA,NA,NA,NA,NA,NA,NA,fixation,NA,NA,NA,NA,NA,NA,sub75
audio-button-response-2,285,794572,0.0-77.0,FALSE,FALSE,TRUE,FALSE,"""event"",""trial"",""time""
""fullscreenenter"",""5"",""13360""
","
","
","""event"",""trial"",""time""
""fullscreenenter"",""5"",""13360""
","
",11000,audio/instructions/break_1.wav,NA,0,NA,NA,NA,NA,NA,NA,NA,NA,NA,NA,NA,NA,NA,NA,NA,NA,NA,NA,sub75
d3-animate-choice,286,797875,0.0-78.0-0.0,FALSE,FALSE,TRUE,FALSE,"""event"",""trial"",""time""
""fullscreenenter"",""5"",""13360""
","
","
","""event"",""trial"",""time""
""fullscreenenter"",""5"",""13360""
","
",1301,NA,49,NA,NA,3000,1,NA,NA,images/earth.jpg,images/rocket1,images/rocket2,null,images/rocket2,NA,1,real,null,1,NA,NA,NA,sub75
d3-animate-choice,287,800415,0.0-78.0-1.0,FALSE,FALSE,TRUE,FALSE,"""event"",""trial"",""time""
""fullscreenenter"",""5"",""13360""
","
","
","""event"",""trial"",""time""
""fullscreenenter"",""5"",""13360""
","
",537.0000000001164,NA,49,NA,NA,3000,1,NA,NA,images/redplanet1.jpg,images/alien2,images/alien1,images/rocket2,images/alien1,images/t.png,2,real,true,1,common,1,2020-06-20T16:00:15Z,sub75
two-step-fixation,288,801417,0.0-78.0-2.0,FALSE,FALSE,TRUE,FALSE,"""event"",""trial"",""time""
