trial_type,trial_index,time_elapsed,internal_node_id,rocket_sides,red_planet_first_rocket,red_display_order,purple_display_order,interactions,blur_events,focus_events,fullscreenenter_events,fullscreenexit_events,rt,stimulus,key_press,button_pressed,success,duration,valid_pressed,rts,keys,planet_text,right_text,left_text,center_text,chosen_text,reward_text,trial_stage,practice_trial,transition_type,choice,transition,reward,timestamp,subject_id
pavlovia,0,6,0.0-0.0,TRUE,TRUE,TRUE,TRUE,"
","
","
","
","
",NA,NA,NA,NA,NA,NA,NA,NA,NA,NA,NA,NA,NA,NA,NA,NA,NA,NA,NA,NA,NA,NA,sub52
html-keyboard-response,1,3106,0.0-1.0,TRUE,TRUE,TRUE,TRUE,"
","
","
","
","
",3098.404999997001,Welcome! Press the space bar to begin.,32,NA,NA,NA,NA,NA,NA,NA,NA,NA,NA,NA,NA,NA,NA,NA,NA,NA,NA,NA,sub52
audio-keyboard-response,2,8364,0.0-2.0,TRUE,TRUE,TRUE,TRUE,"
","
","
","
","
",5195,audio/beep_loop.wav,77,NA,NA,NA,NA,NA,NA,NA,NA,NA,NA,NA,NA,NA,NA,NA,NA,NA,NA,NA,sub52
audio-button-response,3,13395,0.0-3.0,TRUE,TRUE,TRUE,TRUE,"
","
","
","
","
",NaN,audio/fish.mp3,NA,1,NA,NA,NA,NA,NA,NA,NA,NA,NA,NA,NA,NA,NA,NA,NA,NA,NA,NA,sub52
audio-button-response,4,17627,0.0-4.0,TRUE,TRUE,TRUE,TRUE,"""event"",""trial"",""time""
""fullscreenenter"",""5"",""24901""
","
","
","""event"",""trial"",""time""
""fullscreenenter"",""5"",""24901""
","
",NaN,audio/tiger.mp3,NA,4,NA,NA,NA,NA,NA,NA,NA,NA,NA,NA,NA,NA,NA,NA,NA,NA,NA,NA,sub52
fullscreen,5,25627,0.0-5.0,TRUE,TRUE,TRUE,TRUE,"""event"",""trial"",""time""
""fullscreenenter"",""5"",""24901""
","
","
","""event"",""trial"",""time""
""fullscreenenter"",""5"",""24901""
","
",NA,NA,NA,NA,TRUE,NA,NA,NA,NA,NA,NA,NA,NA,NA,NA,NA,NA,NA,NA,NA,NA,NA,sub52
d3-instructions,6,40198,0.0-6.0,TRUE,TRUE,TRUE,TRUE,"""event"",""trial"",""time""
""fullscreenenter"",""5"",""24901""
","
","
","""event"",""trial"",""time""
""fullscreenenter"",""5"",""24901""
","
",NA,NA,NA,NA,NA,NA,NA,NA,NA,NA,NA,NA,NA,NA,NA,NA,NA,NA,NA,NA,NA,NA,sub52
d3-instructions,7,47913,0.0-7.0,TRUE,TRUE,TRUE,TRUE,"""event"",""trial"",""time""
""fullscreenenter"",""5"",""24901""
","
","
","""event"",""trial"",""time""
""fullscreenenter"",""5"",""24901""
","
",NA,NA,NA,NA,NA,NA,NA,NA,NA,NA,NA,NA,NA,NA,NA,NA,NA,NA,NA,NA,NA,NA,sub52
d3-instructions,8,54642,0.0-8.0,TRUE,TRUE,TRUE,TRUE,"""event"",""trial"",""time""
""fullscreenenter"",""5"",""24901""
","
","
","""event"",""trial"",""time""
""fullscreenenter"",""5"",""24901""
","
",NA,NA,NA,NA,NA,NA,NA,NA,NA,NA,NA,NA,NA,NA,NA,NA,NA,NA,NA,NA,NA,NA,sub52
d3-instructions,9,65621,0.0-9.0,TRUE,TRUE,TRUE,TRUE,"""event"",""trial"",""time""
""fullscreenenter"",""5"",""24901""
","
","
","""event"",""trial"",""time""
""fullscreenenter"",""5"",""24901""
","
",NA,NA,NA,NA,NA,NA,NA,NA,NA,NA,NA,NA,NA,NA,NA,NA,NA,NA,NA,NA,NA,NA,sub52
d3-instructions,10,80616,0.0-10.0,TRUE,TRUE,TRUE,TRUE,"""event"",""trial"",""time""
""fullscreenenter"",""5"",""24901""
","
","
","""event"",""trial"",""time""
""fullscreenenter"",""5"",""24901""
","
",NA,NA,NA,NA,NA,NA,NA,NA,NA,NA,NA,NA,NA,NA,NA,NA,NA,NA,NA,NA,NA,NA,sub52
d3-animate-choice,11,83825,0.0-11.0,TRUE,TRUE,TRUE,TRUE,"""event"",""trial"",""time""
""fullscreenenter"",""5"",""24901""
","
","
","""event"",""trial"",""time""
""fullscreenenter"",""5"",""24901""
","
",1197.6450000074692,NA,49,NA,NA,3000,1,"1659.0250000008382,2954.4349999632686",4848,images/tutgreenplanet.jpg,images/tutalien1,images/tutalien2,null,images/tutalien2,NA,NA,practice,null,NA,NA,NA,NA,sub52
d3-animate-choice,12,86788,0.0-12.0,TRUE,TRUE,TRUE,TRUE,"""event"",""trial"",""time""
""fullscreenenter"",""5"",""24901""
","
","
","""event"",""trial"",""time""
""fullscreenenter"",""5"",""24901""
","
",955.9949999675155,NA,48,NA,NA,3000,1,2281.959999992978,48,images/tutgreenplanet.jpg,images/tutalien1,images/tutalien2,null,images/tutalien1,NA,NA,practice,null,NA,NA,NA,NA,sub52
d3-animate-choice,13,89571,0.0-13.0,TRUE,TRUE,TRUE,TRUE,"""event"",""trial"",""time""
""fullscreenenter"",""5"",""24901""
","
","
","""event"",""trial"",""time""
""fullscreenenter"",""5"",""24901""
","
",775.5749999778345,NA,49,NA,NA,3000,1,"1634.139999980107,2435.6949999928474",4848,images/tutgreenplanet.jpg,images/tutalien1,images/tutalien2,null,images/tutalien2,NA,NA,practice,null,NA,NA,NA,NA,sub52
d3-animate-choice,14,91990,0.0-14.0,TRUE,TRUE,TRUE,TRUE,"""event"",""trial"",""time""
""fullscreenenter"",""5"",""24901""
","
","
","""event"",""trial"",""time""
""fullscreenenter"",""5"",""24901""
","
",414.0849999967031,NA,48,NA,NA,3000,1,1231.099999975413,48,images/tutgreenplanet.jpg,images/tutalien1,images/tutalien2,null,images/tutalien1,NA,NA,practice,null,NA,NA,NA,NA,sub52
d3-instructions,15,98184,0.0-15.0,TRUE,TRUE,TRUE,TRUE,"""event"",""trial"",""time""
""fullscreenenter"",""5"",""24901""
","
","
","""event"",""trial"",""time""
""fullscreenenter"",""5"",""24901""
","
",NA,NA,NA,NA,NA,NA,NA,NA,NA,NA,NA,NA,NA,NA,NA,NA,NA,NA,NA,NA,NA,NA,sub52
d3-instructions,16,103930,0.0-16.0,TRUE,TRUE,TRUE,TRUE,"""event"",""trial"",""time""
""fullscreenenter"",""5"",""24901""
","
","
","""event"",""trial"",""time""
""fullscreenenter"",""5"",""24901""
","
",NA,NA,NA,NA,NA,NA,NA,NA,NA,NA,NA,NA,NA,NA,NA,NA,NA,NA,NA,NA,NA,NA,sub52
d3-instructions,17,112276,0.0-17.0,TRUE,TRUE,TRUE,TRUE,"""event"",""trial"",""time""
""fullscreenenter"",""5"",""24901""
","
","
","""event"",""trial"",""time""
""fullscreenenter"",""5"",""24901""
","
",NA,NA,NA,NA,NA,NA,NA,NA,NA,NA,NA,NA,NA,NA,NA,NA,NA,NA,NA,NA,NA,NA,sub52
d3-instructions,18,124084,0.0-18.0,TRUE,TRUE,TRUE,TRUE,"""event"",""trial"",""time""
""fullscreenenter"",""5"",""24901""
","
","
","""event"",""trial"",""time""
""fullscreenenter"",""5"",""24901""
","
",NA,NA,NA,NA,NA,NA,NA,NA,NA,NA,NA,NA,NA,NA,NA,NA,NA,NA,NA,NA,NA,NA,sub52
d3-instructions,19,137787,0.0-19.0,TRUE,TRUE,TRUE,TRUE,"""event"",""trial"",""time""
""fullscreenenter"",""5"",""24901""
","
","
","""event"",""trial"",""time""
""fullscreenenter"",""5"",""24901""
","
",NA,NA,NA,NA,NA,NA,NA,NA,NA,NA,NA,NA,NA,NA,NA,NA,NA,NA,NA,NA,NA,NA,sub52
d3-animate-choice,20,141325,0.0-20.0,TRUE,TRUE,TRUE,TRUE,"""event"",""trial"",""time""
""fullscreenenter"",""5"",""24901""
","
","
","""event"",""trial"",""time""
""fullscreenenter"",""5"",""24901""
","
",1530.1699999836273,NA,49,NA,NA,3000,1,2664.755000034347,49,images/tutyellowplanet.jpg,null,images/tutalien3,null,images/tutalien3,images/t.png,NA,practice,null,NA,NA,NA,NA,sub52
d3-animate-choice,21,143387,0.0-21.0,TRUE,TRUE,TRUE,TRUE,"""event"",""trial"",""time""
""fullscreenenter"",""5"",""24901""
","
","
","""event"",""trial"",""time""
""fullscreenenter"",""5"",""24901""
","
",58.514999982435256,NA,49,NA,NA,3000,1,"910.1999999838881,1734.2749999952503",4949,images/tutyellowplanet.jpg,null,images/tutalien3,null,images/tutalien3,images/nothing.png,NA,practice,null,NA,NA,NA,NA,sub52
d3-animate-choice,22,145872,0.0-22.0,TRUE,TRUE,TRUE,TRUE,"""event"",""trial"",""time""
""fullscreenenter"",""5"",""24901""
","
","
","""event"",""trial"",""time""
""fullscreenenter"",""5"",""24901""
","
",478.9599999785423,NA,49,NA,NA,3000,1,"1197.0250000013039,2011.4550000289455",4949,images/tutyellowplanet.jpg,null,images/tutalien3,null,images/tutalien3,images/t.png,NA,practice,null,NA,NA,NA,NA,sub52
d3-animate-choice,23,148467,0.0-23.0,TRUE,TRUE,TRUE,TRUE,"""event"",""trial"",""time""
""fullscreenenter"",""5"",""24901""
","
","
","""event"",""trial"",""time""
""fullscreenenter"",""5"",""24901""
","
",592.4450000165962,NA,49,NA,NA,3000,1,"1426.8150000134483,2566.4700000197627",4949,images/tutyellowplanet.jpg,null,images/tutalien3,null,images/tutalien3,images/t.png,NA,practice,null,NA,NA,NA,NA,sub52
d3-animate-choice,24,151266,0.0-24.0,TRUE,TRUE,TRUE,TRUE,"""event"",""trial"",""time""
""fullscreenenter"",""5"",""24901""
","
","
","""event"",""trial"",""time""
""fullscreenenter"",""5"",""24901""
","
",791.8800000334159,NA,49,NA,NA,3000,1,"1765.480000001844,2519.4200000260025",4949,images/tutyellowplanet.jpg,null,images/tutalien3,null,images/tutalien3,images/t.png,NA,practice,null,NA,NA,NA,NA,sub52
d3-animate-choice,25,153860,0.0-25.0,TRUE,TRUE,TRUE,TRUE,"""event"",""trial"",""time""
""fullscreenenter"",""5"",""24901""
","
","
","""event"",""trial"",""time""
""fullscreenenter"",""5"",""24901""
","
",587.4349999940023,NA,49,NA,NA,3000,1,"1618.175000010524,2438.060000014957",4949,images/tutyellowplanet.jpg,null,images/tutalien3,null,images/tutalien3,images/t.png,NA,practice,null,NA,NA,NA,NA,sub52
d3-animate-choice,26,156532,0.0-26.0,TRUE,TRUE,TRUE,TRUE,"""event"",""trial"",""time""
""fullscreenenter"",""5"",""24901""
","
","
","""event"",""trial"",""time""
""fullscreenenter"",""5"",""24901""
","
",663.8249999959953,NA,49,NA,NA,3000,1,"1541.8700000154786,2390.079999982845",4949,images/tutyellowplanet.jpg,null,images/tutalien3,null,images/tutalien3,images/nothing.png,NA,practice,null,NA,NA,NA,NA,sub52
d3-animate-choice,27,159142,0.0-27.0,TRUE,TRUE,TRUE,TRUE,"""event"",""trial"",""time""
""fullscreenenter"",""5"",""24901""
","
","
","""event"",""trial"",""time""
""fullscreenenter"",""5"",""24901""
","
",606.4049999695271,NA,49,NA,NA,3000,1,"1447.7999999653548,2335.9899999923073",4949,images/tutyellowplanet.jpg,null,images/tutalien3,null,images/tutalien3,images/nothing.png,NA,practice,null,NA,NA,NA,NA,sub52
d3-animate-choice,28,161630,0.0-28.0,TRUE,TRUE,TRUE,TRUE,"""event"",""trial"",""time""
""fullscreenenter"",""5"",""24901""
","
","
","""event"",""trial"",""time""
""fullscreenenter"",""5"",""24901""
","
",483.7299999780953,NA,49,NA,NA,3000,1,"1466.8349999701604,2365.7099999836646",4949,images/tutyellowplanet.jpg,null,images/tutalien3,null,images/tutalien3,images/t.png,NA,practice,null,NA,NA,NA,NA,sub52
d3-animate-choice,29,164321,0.0-29.0,TRUE,TRUE,TRUE,TRUE,"""event"",""trial"",""time""
""fullscreenenter"",""5"",""24901""
","
","
","""event"",""trial"",""time""
""fullscreenenter"",""5"",""24901""
","
",683.4299999754876,NA,49,NA,NA,3000,1,"1558.2050000084564,2450.95999998739",4949,images/tutyellowplanet.jpg,null,images/tutalien3,null,images/tutalien3,images/t.png,NA,practice,null,NA,NA,NA,NA,sub52
d3-instructions,30,170129,0.0-30.0,TRUE,TRUE,TRUE,TRUE,"""event"",""trial"",""time""
""fullscreenenter"",""5"",""24901""
","
","
","""event"",""trial"",""time""
""fullscreenenter"",""5"",""24901""
","
",NA,NA,NA,NA,NA,NA,NA,NA,NA,NA,NA,NA,NA,NA,NA,NA,NA,NA,NA,NA,NA,NA,sub52
d3-instructions,31,179926,0.0-31.0,TRUE,TRUE,TRUE,TRUE,"""event"",""trial"",""time""
""fullscreenenter"",""5"",""24901""
","
","
","""event"",""trial"",""time""
""fullscreenenter"",""5"",""24901""
","
",NA,NA,NA,NA,NA,NA,NA,NA,NA,NA,NA,NA,NA,NA,NA,NA,NA,NA,NA,NA,NA,NA,sub52
d3-instructions,32,184921,0.0-32.0,TRUE,TRUE,TRUE,TRUE,"""event"",""trial"",""time""
""fullscreenenter"",""5"",""24901""
","
","
","""event"",""trial"",""time""
""fullscreenenter"",""5"",""24901""
","
",NA,NA,NA,NA,NA,NA,NA,NA,NA,NA,NA,NA,NA,NA,NA,NA,NA,NA,NA,NA,NA,NA,sub52
d3-instructions,33,191405,0.0-33.0,TRUE,TRUE,TRUE,TRUE,"""event"",""trial"",""time""
""fullscreenenter"",""5"",""24901""
","
","
","""event"",""trial"",""time""
""fullscreenenter"",""5"",""24901""
","
",NA,NA,NA,NA,NA,NA,NA,NA,NA,NA,NA,NA,NA,NA,NA,NA,NA,NA,NA,NA,NA,NA,sub52
d3-animate-choice,34,194818,0.0-34.0,TRUE,TRUE,TRUE,TRUE,"""event"",""trial"",""time""
""fullscreenenter"",""5"",""24901""
","
","
","""event"",""trial"",""time""
""fullscreenenter"",""5"",""24901""
","
",1407.0150000043213,NA,49,NA,NA,3000,1,NA,NA,images/tutgreenplanet.jpg,images/tutalien1,images/tutalien2,null,images/tutalien2,images/t.png,NA,practice,null,NA,NA,NA,NA,sub52
d3-animate-choice,35,197915,0.0-35.0,TRUE,TRUE,TRUE,TRUE,"""event"",""trial"",""time""
""fullscreenenter"",""5"",""24901""
","
","
","""event"",""trial"",""time""
""fullscreenenter"",""5"",""24901""
","
",1092.3699999693781,NA,49,NA,NA,3000,1,NA,NA,images/tutgreenplanet.jpg,images/tutalien1,images/tutalien2,null,images/tutalien2,images/nothing.png,NA,practice,null,NA,NA,NA,NA,sub52
d3-animate-choice,36,201710,0.0-36.0,TRUE,TRUE,TRUE,TRUE,"""event"",""trial"",""time""
""fullscreenenter"",""5"",""24901""
","
","
","""event"",""trial"",""time""
""fullscreenenter"",""5"",""24901""
","
",1788.8700000476092,NA,48,NA,NA,3000,1,NA,NA,images/tutgreenplanet.jpg,images/tutalien1,images/tutalien2,null,images/tutalien1,images/nothing.png,NA,practice,null,NA,NA,NA,NA,sub52
d3-animate-choice,37,206343,0.0-37.0,TRUE,TRUE,TRUE,TRUE,"""event"",""trial"",""time""
""fullscreenenter"",""5"",""24901""
","
","
","""event"",""trial"",""time""
""fullscreenenter"",""5"",""24901""
","
",2626.994999998715,NA,49,NA,NA,3000,1,NA,NA,images/tutgreenplanet.jpg,images/tutalien1,images/tutalien2,null,images/tutalien2,images/t.png,NA,practice,null,NA,NA,NA,NA,sub52
d3-animate-choice,38,208798,0.0-38.0,TRUE,TRUE,TRUE,TRUE,"""event"",""trial"",""time""
""fullscreenenter"",""5"",""24901""
","
","
","""event"",""trial"",""time""
""fullscreenenter"",""5"",""24901""
","
",449.7599999886006,NA,49,NA,NA,3000,1,NA,NA,images/tutgreenplanet.jpg,images/tutalien1,images/tutalien2,null,images/tutalien2,images/nothing.png,NA,practice,null,NA,NA,NA,NA,sub52
d3-animate-choice,39,211263,0.0-39.0,TRUE,TRUE,TRUE,TRUE,"""event"",""trial"",""time""
""fullscreenenter"",""5"",""24901""
","
","
","""event"",""trial"",""time""
""fullscreenenter"",""5"",""24901""
","
",460.5299999821,NA,49,NA,NA,3000,1,NA,NA,images/tutgreenplanet.jpg,images/tutalien1,images/tutalien2,null,images/tutalien2,images/t.png,NA,practice,null,NA,NA,NA,NA,sub52
d3-animate-choice,40,213636,0.0-40.0,TRUE,TRUE,TRUE,TRUE,"""event"",""trial"",""time""
""fullscreenenter"",""5"",""24901""
","
","
","""event"",""trial"",""time""
""fullscreenenter"",""5"",""24901""
","
",368.91499999910593,NA,49,NA,NA,3000,1,NA,NA,images/tutgreenplanet.jpg,images/tutalien1,images/tutalien2,null,images/tutalien2,images/t.png,NA,practice,null,NA,NA,NA,NA,sub52
d3-animate-choice,41,216153,0.0-41.0,TRUE,TRUE,TRUE,TRUE,"""event"",""trial"",""time""
""fullscreenenter"",""5"",""24901""
","
","
","""event"",""trial"",""time""
""fullscreenenter"",""5"",""24901""
","
",513.9799999888055,NA,49,NA,NA,3000,1,NA,NA,images/tutgreenplanet.jpg,images/tutalien1,images/tutalien2,null,images/tutalien2,images/t.png,NA,practice,null,NA,NA,NA,NA,sub52
d3-animate-choice,42,218556,0.0-42.0,TRUE,TRUE,TRUE,TRUE,"""event"",""trial"",""time""
""fullscreenenter"",""5"",""24901""
","
","
","""event"",""trial"",""time""
""fullscreenenter"",""5"",""24901""
","
",397.04500004881993,NA,49,NA,NA,3000,1,NA,NA,images/tutgreenplanet.jpg,images/tutalien1,images/tutalien2,null,images/tutalien2,images/t.png,NA,practice,null,NA,NA,NA,NA,sub52
d3-animate-choice,43,220918,0.0-43.0,TRUE,TRUE,TRUE,TRUE,"""event"",""trial"",""time""
""fullscreenenter"",""5"",""24901""
","
","
","""event"",""trial"",""time""
""fullscreenenter"",""5"",""24901""
","
",357.4849999858998,NA,49,NA,NA,3000,1,NA,NA,images/tutgreenplanet.jpg,images/tutalien1,images/tutalien2,null,images/tutalien2,images/t.png,NA,practice,null,NA,NA,NA,NA,sub52
d3-instructions,44,237311,0.0-44.0,TRUE,TRUE,TRUE,TRUE,"""event"",""trial"",""time""
""fullscreenenter"",""5"",""24901""
","
","
","""event"",""trial"",""time""
""fullscreenenter"",""5"",""24901""
","
",NA,NA,NA,NA,NA,NA,NA,NA,NA,NA,NA,NA,NA,NA,NA,NA,NA,NA,NA,NA,NA,NA,sub52
d3-instructions,45,244420,0.0-45.0,TRUE,TRUE,TRUE,TRUE,"""event"",""trial"",""time""
""fullscreenenter"",""5"",""24901""
","
","
","""event"",""trial"",""time""
""fullscreenenter"",""5"",""24901""
","
",NA,NA,NA,NA,NA,NA,NA,NA,NA,NA,NA,NA,NA,NA,NA,NA,NA,NA,NA,NA,NA,NA,sub52
d3-instructions,46,248061,0.0-46.0,TRUE,TRUE,TRUE,TRUE,"""event"",""trial"",""time""
""fullscreenenter"",""5"",""24901""
","
","
","""event"",""trial"",""time""
""fullscreenenter"",""5"",""24901""
","
",NA,NA,NA,NA,NA,NA,NA,NA,NA,NA,NA,NA,NA,NA,NA,NA,NA,NA,NA,NA,NA,NA,sub52
d3-instructions,47,264404,0.0-47.0,TRUE,TRUE,TRUE,TRUE,"""event"",""trial"",""time""
""fullscreenenter"",""5"",""24901""
","
","
","""event"",""trial"",""time""
""fullscreenenter"",""5"",""24901""
","
",NA,NA,NA,NA,NA,NA,NA,NA,NA,NA,NA,NA,NA,NA,NA,NA,NA,NA,NA,NA,NA,NA,sub52
d3-instructions,48,271111,0.0-48.0,TRUE,TRUE,TRUE,TRUE,"""event"",""trial"",""time""
""fullscreenenter"",""5"",""24901""
","
","
","""event"",""trial"",""time""
""fullscreenenter"",""5"",""24901""
","
",NA,NA,NA,NA,NA,NA,NA,NA,NA,NA,NA,NA,NA,NA,NA,NA,NA,NA,NA,NA,NA,NA,sub52
d3-instructions,49,281421,0.0-49.0,TRUE,TRUE,TRUE,TRUE,"""event"",""trial"",""time""
""fullscreenenter"",""5"",""24901""
","
","
","""event"",""trial"",""time""
""fullscreenenter"",""5"",""24901""
","
",NA,NA,NA,NA,NA,NA,NA,NA,NA,NA,NA,NA,NA,NA,NA,NA,NA,NA,NA,NA,NA,NA,sub52
d3-instructions,50,290324,0.0-50.0,TRUE,TRUE,TRUE,TRUE,"""event"",""trial"",""time""
""fullscreenenter"",""5"",""24901""
","
","
","""event"",""trial"",""time""
""fullscreenenter"",""5"",""24901""
","
",NA,NA,NA,NA,NA,NA,NA,NA,NA,NA,NA,NA,NA,NA,NA,NA,NA,NA,NA,NA,NA,NA,sub52
d3-instructions,51,293123,0.0-51.0,TRUE,TRUE,TRUE,TRUE,"""event"",""trial"",""time""
""fullscreenenter"",""5"",""24901""
","
","
","""event"",""trial"",""time""
""fullscreenenter"",""5"",""24901""
","
",NA,NA,NA,NA,NA,NA,NA,NA,NA,NA,NA,NA,NA,NA,NA,NA,NA,NA,NA,NA,NA,NA,sub52
d3-instructions,52,295034,0.0-52.0,TRUE,TRUE,TRUE,TRUE,"""event"",""trial"",""time""
""fullscreenenter"",""5"",""24901""
","
","
","""event"",""trial"",""time""
""fullscreenenter"",""5"",""24901""
","
",NA,NA,NA,NA,NA,NA,NA,NA,NA,NA,NA,NA,NA,NA,NA,NA,NA,NA,NA,NA,NA,NA,sub52
d3-instructions,53,313593,0.0-53.0,TRUE,TRUE,TRUE,TRUE,"""event"",""trial"",""time""
""fullscreenenter"",""5"",""24901""
","
","
","""event"",""trial"",""time""
""fullscreenenter"",""5"",""24901""
","
",NA,NA,NA,NA,NA,NA,NA,NA,NA,NA,NA,NA,NA,NA,NA,NA,NA,NA,NA,NA,NA,NA,sub52
d3-instructions,54,333292,0.0-54.0,TRUE,TRUE,TRUE,TRUE,"""event"",""trial"",""time""
""fullscreenenter"",""5"",""24901""
","
","
","""event"",""trial"",""time""
""fullscreenenter"",""5"",""24901""
","
",NA,NA,NA,NA,NA,NA,NA,NA,NA,NA,NA,NA,NA,NA,NA,NA,NA,NA,NA,NA,NA,NA,sub52
d3-instructions,55,346437,0.0-55.0,TRUE,TRUE,TRUE,TRUE,"""event"",""trial"",""time""
""fullscreenenter"",""5"",""24901""
","
","
","""event"",""trial"",""time""
""fullscreenenter"",""5"",""24901""
","
",NA,NA,NA,NA,NA,NA,NA,NA,NA,NA,NA,NA,NA,NA,NA,NA,NA,NA,NA,NA,NA,NA,sub52
d3-instructions,56,353887,0.0-56.0,TRUE,TRUE,TRUE,TRUE,"""event"",""trial"",""time""
""fullscreenenter"",""5"",""24901""
","
","
","""event"",""trial"",""time""
""fullscreenenter"",""5"",""24901""
","
",NA,NA,NA,NA,NA,NA,NA,NA,NA,NA,NA,NA,NA,NA,NA,NA,NA,NA,NA,NA,NA,NA,sub52
d3-instructions,57,363937,0.0-57.0,TRUE,TRUE,TRUE,TRUE,"""event"",""trial"",""time""
""fullscreenenter"",""5"",""24901""
","
","
","""event"",""trial"",""time""
""fullscreenenter"",""5"",""24901""
","
",NA,NA,NA,NA,NA,NA,NA,NA,NA,NA,NA,NA,NA,NA,NA,NA,NA,NA,NA,NA,NA,NA,sub52
d3-instructions,58,370984,0.0-58.0,TRUE,TRUE,TRUE,TRUE,"""event"",""trial"",""time""
""fullscreenenter"",""5"",""24901""
","
","
","""event"",""trial"",""time""
""fullscreenenter"",""5"",""24901""
","
",NA,NA,NA,NA,NA,NA,NA,NA,NA,NA,NA,NA,NA,NA,NA,NA,NA,NA,NA,NA,NA,NA,sub52
d3-instructions,59,376301,0.0-59.0,TRUE,TRUE,TRUE,TRUE,"""event"",""trial"",""time""
""fullscreenenter"",""5"",""24901""
","
","
","""event"",""trial"",""time""
""fullscreenenter"",""5"",""24901""
","
",NA,NA,NA,NA,NA,NA,NA,NA,NA,NA,NA,NA,NA,NA,NA,NA,NA,NA,NA,NA,NA,NA,sub52
d3-instructions,60,381890,0.0-60.0,TRUE,TRUE,TRUE,TRUE,"""event"",""trial"",""time""
""fullscreenenter"",""5"",""24901""
","
","
","""event"",""trial"",""time""
""fullscreenenter"",""5"",""24901""
","
",NA,NA,NA,NA,NA,NA,NA,NA,NA,NA,NA,NA,NA,NA,NA,NA,NA,NA,NA,NA,NA,NA,sub52
d3-animate-choice,61,385899,0.0-61.0-0.0,TRUE,TRUE,TRUE,TRUE,"""event"",""trial"",""time""
""fullscreenenter"",""5"",""24901""
","
","
","""event"",""trial"",""time""
""fullscreenenter"",""5"",""24901""
","
",2780.9000000124797,NA,81,NA,NA,3000,1,3380.5649999994785,49,images/earth.jpg,images/tutrocket2,images/tutrocket1,null,images/tutrocket1,NA,1,practice,null,NA,NA,NA,NA,sub52
d3-animate-choice,62,389855,0.0-61.0-1.0,TRUE,TRUE,TRUE,TRUE,"""event"",""trial"",""time""
""fullscreenenter"",""5"",""24901""
","
","
","""event"",""trial"",""time""
""fullscreenenter"",""5"",""24901""
","
",1943.2099999976344,NA,49,NA,NA,3000,1,2658.754999982193,49,images/tutgreenplanet.jpg,images/tutalien2,images/tutalien1,images/tutrocket1,images/tutalien1,images/t.png,2,practice,true,1,common,1,2020-06-15T17:55:21Z,sub52
two-step-fixation,63,390861,0.0-61.0-2.0,TRUE,TRUE,TRUE,TRUE,"""event"",""trial"",""time""
""fullscreenenter"",""5"",""24901""
","
","
","""event"",""trial"",""time""
""fullscreenenter"",""5"",""24901""
","
",NA,images/earth.jpg,NA,NA,NA,NA,NA,NA,NA,NA,NA,NA,NA,NA,NA,fixation,NA,NA,NA,NA,NA,NA,sub52
d3-animate-choice,64,394866,0.0-61.0-0.1,TRUE,TRUE,TRUE,TRUE,"""event"",""trial"",""time""
""fullscreenenter"",""5"",""24901""
","
","
","""event"",""trial"",""time""
""fullscreenenter"",""5"",""24901""
","
",3761.0449999920093,NA,48,NA,NA,3000,0,NA,NA,images/earth.jpg,images/tutrocket2,images/tutrocket1,null,NA,NA,1,practice,null,2,NA,NA,NA,sub52
d3-animate-choice,65,395874,0.0-61.0-1.1,TRUE,TRUE,TRUE,TRUE,"""event"",""trial"",""time""
""fullscreenenter"",""5"",""24901""
","
","
","""event"",""trial"",""time""
""fullscreenenter"",""5"",""24901""
","
",764.2050000140443,NA,48,NA,NA,0,0,NA,NA,images/earth.jpg,images/tutrocket2,images/tutrocket1,null,NA,NA,2,practice,null,2,NA,0,2020-06-15T17:55:27Z,sub52
two-step-fixation,66,396876,0.0-61.0-2.1,TRUE,TRUE,TRUE,TRUE,"""event"",""trial"",""time""
""fullscreenenter"",""5"",""24901""
","
","
","""event"",""trial"",""time""
""fullscreenenter"",""5"",""24901""
","
",NA,images/earth.jpg,NA,NA,NA,NA,NA,NA,NA,NA,NA,NA,NA,NA,NA,fixation,NA,NA,NA,NA,NA,NA,sub52
d3-animate-choice,67,400099,0.0-61.0-0.2,TRUE,TRUE,TRUE,TRUE,"""event"",""trial"",""time""
""fullscreenenter"",""5"",""24901""
","
","
","""event"",""trial"",""time""
""fullscreenenter"",""5"",""24901""
","
",1216.8500000261702,NA,48,NA,NA,3000,1,NA,NA,images/earth.jpg,images/tutrocket2,images/tutrocket1,null,images/tutrocket2,NA,1,practice,null,2,NA,NA,NA,sub52
d3-animate-choice,68,403083,0.0-61.0-1.2,TRUE,TRUE,TRUE,TRUE,"""event"",""trial"",""time""
""fullscreenenter"",""5"",""24901""
","
","
","""event"",""trial"",""time""
""fullscreenenter"",""5"",""24901""
","
",978.9050000254065,NA,48,NA,NA,3000,1,NA,NA,images/tutgreenplanet.jpg,images/tutalien2,images/tutalien1,images/tutrocket2,images/tutalien2,images/nothing.png,2,practice,false,2,rare,0,2020-06-15T17:55:35Z,sub52
two-step-fixation,69,404087,0.0-61.0-2.2,TRUE,TRUE,TRUE,TRUE,"""event"",""trial"",""time""
""fullscreenenter"",""5"",""24901""
","
","
","""event"",""trial"",""time""
""fullscreenenter"",""5"",""24901""
","
",NA,images/earth.jpg,NA,NA,NA,NA,NA,NA,NA,NA,NA,NA,NA,NA,NA,fixation,NA,NA,NA,NA,NA,NA,sub52
d3-animate-choice,70,407942,0.0-61.0-0.3,TRUE,TRUE,TRUE,TRUE,"""event"",""trial"",""time""
""fullscreenenter"",""5"",""24901""
","
","
","""event"",""trial"",""time""
""fullscreenenter"",""5"",""24901""
","
",1850.7949999766424,NA,49,NA,NA,3000,1,NA,NA,images/earth.jpg,images/tutrocket2,images/tutrocket1,null,images/tutrocket1,NA,1,practice,null,1,NA,NA,NA,sub52
d3-animate-choice,71,410720,0.0-61.0-1.3,TRUE,TRUE,TRUE,TRUE,"""event"",""trial"",""time""
""fullscreenenter"",""5"",""24901""
","
","
","""event"",""trial"",""time""
""fullscreenenter"",""5"",""24901""
","
",769.6599999908358,NA,49,NA,NA,3000,1,NA,NA,images/tutgreenplanet.jpg,images/tutalien2,images/tutalien1,images/tutrocket1,images/tutalien1,images/nothing.png,2,practice,true,1,common,0,2020-06-15T17:55:42Z,sub52
two-step-fixation,72,411725,0.0-61.0-2.3,TRUE,TRUE,TRUE,TRUE,"""event"",""trial"",""time""
""fullscreenenter"",""5"",""24901""
","
","
","""event"",""trial"",""time""
""fullscreenenter"",""5"",""24901""
","
",NA,images/earth.jpg,NA,NA,NA,NA,NA,NA,NA,NA,NA,NA,NA,NA,NA,fixation,NA,NA,NA,NA,NA,NA,sub52
d3-animate-choice,73,415732,0.0-61.0-0.4,TRUE,TRUE,TRUE,TRUE,"""event"",""trial"",""time""
""fullscreenenter"",""5"",""24901""
","
","
","""event"",""trial"",""time""
""fullscreenenter"",""5"",""24901""
","
",null,NA,null,NA,NA,3000,0,NA,NA,images/earth.jpg,images/tutrocket2,images/tutrocket1,null,NA,NA,1,practice,null,NA,NA,NA,NA,sub52
d3-animate-choice,74,416743,0.0-61.0-1.4,TRUE,TRUE,TRUE,TRUE,"""event"",""trial"",""time""
""fullscreenenter"",""5"",""24901""
","
","
","""event"",""trial"",""time""
""fullscreenenter"",""5"",""24901""
","
",null,NA,null,NA,NA,0,0,NA,NA,images/earth.jpg,images/tutrocket2,images/tutrocket1,null,NA,NA,2,practice,null,NA,NA,0,2020-06-15T17:55:48Z,sub52
two-step-fixation,75,417746,0.0-61.0-2.4,TRUE,TRUE,TRUE,TRUE,"""event"",""trial"",""time""
""fullscreenenter"",""5"",""24901""
","
","
","""event"",""trial"",""time""
""fullscreenenter"",""5"",""24901""
","
",NA,images/earth.jpg,NA,NA,NA,NA,NA,NA,NA,NA,NA,NA,NA,NA,NA,fixation,NA,NA,NA,NA,NA,NA,sub52
d3-animate-choice,76,421182,0.0-61.0-0.5,TRUE,TRUE,TRUE,TRUE,"""event"",""trial"",""time""
""fullscreenenter"",""5"",""24901""
","
","
","""event"",""trial"",""time""
""fullscreenenter"",""5"",""24901""
","
",1429.2799999821,NA,49,NA,NA,3000,1,NA,NA,images/earth.jpg,images/tutrocket2,images/tutrocket1,null,images/tutrocket1,NA,1,practice,null,1,NA,NA,NA,sub52
d3-animate-choice,77,424129,0.0-61.0-1.5,TRUE,TRUE,TRUE,TRUE,"""event"",""trial"",""time""
""fullscreenenter"",""5"",""24901""
","
","
","""event"",""trial"",""time""
""fullscreenenter"",""5"",""24901""
","
",938.9150000060908,NA,48,NA,NA,3000,1,NA,NA,images/tutgreenplanet.jpg,images/tutalien2,images/tutalien1,images/tutrocket1,images/tutalien2,images/nothing.png,2,practice,true,2,common,0,2020-06-15T17:55:56Z,sub52
two-step-fixation,78,425133,0.0-61.0-2.5,TRUE,TRUE,TRUE,TRUE,"""event"",""trial"",""time""
""fullscreenenter"",""5"",""24901""
","
","
","""event"",""trial"",""time""
""fullscreenenter"",""5"",""24901""
","
",NA,images/earth.jpg,NA,NA,NA,NA,NA,NA,NA,NA,NA,NA,NA,NA,NA,fixation,NA,NA,NA,NA,NA,NA,sub52
d3-animate-choice,79,428712,0.0-61.0-0.6,TRUE,TRUE,TRUE,TRUE,"""event"",""trial"",""time""
""fullscreenenter"",""5"",""24901""
","
","
","""event"",""trial"",""time""
""fullscreenenter"",""5"",""24901""
","
",1569.0499999909662,NA,49,NA,NA,3000,1,NA,NA,images/earth.jpg,images/tutrocket2,images/tutrocket1,null,images/tutrocket1,NA,1,practice,null,1,NA,NA,NA,sub52
d3-animate-choice,80,431305,0.0-61.0-1.6,TRUE,TRUE,TRUE,TRUE,"""event"",""trial"",""time""
""fullscreenenter"",""5"",""24901""
","
","
","""event"",""trial"",""time""
""fullscreenenter"",""5"",""24901""
","
",585.4699999908917,NA,49,NA,NA,3000,1,NA,NA,images/tutgreenplanet.jpg,images/tutalien2,images/tutalien1,images/tutrocket1,images/tutalien1,images/t.png,2,practice,true,1,common,1,2020-06-15T17:56:03Z,sub52
two-step-fixation,81,432311,0.0-61.0-2.6,TRUE,TRUE,TRUE,TRUE,"""event"",""trial"",""time""
""fullscreenenter"",""5"",""24901""
","
","
","""event"",""trial"",""time""
""fullscreenenter"",""5"",""24901""
","
",NA,images/earth.jpg,NA,NA,NA,NA,NA,NA,NA,NA,NA,NA,NA,NA,NA,fixation,NA,NA,NA,NA,NA,NA,sub52
d3-animate-choice,82,436318,0.0-61.0-0.7,TRUE,TRUE,TRUE,TRUE,"""event"",""trial"",""time""
""fullscreenenter"",""5"",""24901""
","
","
","""event"",""trial"",""time""
""fullscreenenter"",""5"",""24901""
","
",null,NA,null,NA,NA,3000,0,NA,NA,images/earth.jpg,images/tutrocket2,images/tutrocket1,null,NA,NA,1,practice,null,NA,NA,NA,NA,sub52
d3-animate-choice,83,437327,0.0-61.0-1.7,TRUE,TRUE,TRUE,TRUE,"""event"",""trial"",""time""
""fullscreenenter"",""5"",""24901""
","
","
","""event"",""trial"",""time""
""fullscreenenter"",""5"",""24901""
","
",252.87500000558794,NA,49,NA,NA,0,0,NA,NA,images/earth.jpg,images/tutrocket2,images/tutrocket1,null,NA,NA,2,practice,null,1,NA,0,2020-06-15T17:56:09Z,sub52
two-step-fixation,84,438334,0.0-61.0-2.7,TRUE,TRUE,TRUE,TRUE,"""event"",""trial"",""time""
""fullscreenenter"",""5"",""24901""
","
","
","""event"",""trial"",""time""
""fullscreenenter"",""5"",""24901""
","
",NA,images/earth.jpg,NA,NA,NA,NA,NA,NA,NA,NA,NA,NA,NA,NA,NA,fixation,NA,NA,NA,NA,NA,NA,sub52
d3-animate-choice,85,440742,0.0-61.0-0.8,TRUE,TRUE,TRUE,TRUE,"""event"",""trial"",""time""
""fullscreenenter"",""5"",""24901""
","
","
","""event"",""trial"",""time""
""fullscreenenter"",""5"",""24901""
","
",402.0149999996647,NA,49,NA,NA,3000,1,NA,NA,images/earth.jpg,images/tutrocket2,images/tutrocket1,null,images/tutrocket1,NA,1,practice,null,1,NA,NA,NA,sub52
d3-animate-choice,86,444276,0.0-61.0-1.8,TRUE,TRUE,TRUE,TRUE,"""event"",""trial"",""time""
""fullscreenenter"",""5"",""24901""
","
","
","""event"",""trial"",""time""
""fullscreenenter"",""5"",""24901""
","
",1526.6150000388734,NA,49,NA,NA,3000,1,NA,NA,images/tutyellowplanet.jpg,images/tutalien4,images/tutalien3,images/tutrocket1,images/tutalien3,images/t.png,2,practice,false,1,rare,1,2020-06-15T17:56:16Z,sub52
two-step-fixation,87,445278,0.0-61.0-2.8,TRUE,TRUE,TRUE,TRUE,"""event"",""trial"",""time""
""fullscreenenter"",""5"",""24901""
","
","
","""event"",""trial"",""time""
""fullscreenenter"",""5"",""24901""
","
",NA,images/earth.jpg,NA,NA,NA,NA,NA,NA,NA,NA,NA,NA,NA,NA,NA,fixation,NA,NA,NA,NA,NA,NA,sub52
d3-animate-choice,88,448363,0.0-61.0-0.9,TRUE,TRUE,TRUE,TRUE,"""event"",""trial"",""time""
""fullscreenenter"",""5"",""24901""
","
","
","""event"",""trial"",""time""
""fullscreenenter"",""5"",""24901""
","
",1080.4349999525584,NA,49,NA,NA,3000,1,NA,NA,images/earth.jpg,images/tutrocket2,images/tutrocket1,null,images/tutrocket1,NA,1,practice,null,1,NA,NA,NA,sub52
d3-animate-choice,89,451294,0.0-61.0-1.9,TRUE,TRUE,TRUE,TRUE,"""event"",""trial"",""time""
""fullscreenenter"",""5"",""24901""
","
","
","""event"",""trial"",""time""
""fullscreenenter"",""5"",""24901""
","
",924.6750000165775,NA,49,NA,NA,3000,1,NA,NA,images/tutgreenplanet.jpg,images/tutalien2,images/tutalien1,images/tutrocket1,images/tutalien1,images/nothing.png,2,practice,true,1,common,0,2020-06-15T17:56:23Z,sub52
two-step-fixation,90,452298,0.0-61.0-2.9,TRUE,TRUE,TRUE,TRUE,"""event"",""trial"",""time""
""fullscreenenter"",""5"",""24901""
","
","
","""event"",""trial"",""time""
""fullscreenenter"",""5"",""24901""
","
",NA,images/earth.jpg,NA,NA,NA,NA,NA,NA,NA,NA,NA,NA,NA,NA,NA,fixation,NA,NA,NA,NA,NA,NA,sub52
d3-animate-choice,91,455360,0.0-61.0-0.10,TRUE,TRUE,TRUE,TRUE,"""event"",""trial"",""time""
""fullscreenenter"",""5"",""24901""
","
","
","""event"",""trial"",""time""
""fullscreenenter"",""5"",""24901""
","
",1056.9099999847822,NA,49,NA,NA,3000,1,NA,NA,images/earth.jpg,images/tutrocket2,images/tutrocket1,null,images/tutrocket1,NA,1,practice,null,1,NA,NA,NA,sub52
d3-animate-choice,92,458870,0.0-61.0-1.10,TRUE,TRUE,TRUE,TRUE,"""event"",""trial"",""time""
""fullscreenenter"",""5"",""24901""
","
","
","""event"",""trial"",""time""
""fullscreenenter"",""5"",""24901""
","
",1502.0849999855272,NA,48,NA,NA,3000,1,NA,NA,images/tutgreenplanet.jpg,images/tutalien2,images/tutalien1,images/tutrocket1,images/tutalien2,images/nothing.png,2,practice,true,2,common,0,2020-06-15T17:56:30Z,sub52
two-step-fixation,93,459876,0.0-61.0-2.10,TRUE,TRUE,TRUE,TRUE,"""event"",""trial"",""time""
""fullscreenenter"",""5"",""24901""
","
","
","""event"",""trial"",""time""
""fullscreenenter"",""5"",""24901""
","
",NA,images/earth.jpg,NA,NA,NA,NA,NA,NA,NA,NA,NA,NA,NA,NA,NA,fixation,NA,NA,NA,NA,NA,NA,sub52
d3-animate-choice,94,463885,0.0-61.0-0.11,TRUE,TRUE,TRUE,TRUE,"""event"",""trial"",""time""
""fullscreenenter"",""5"",""24901""
","
","
","""event"",""trial"",""time""
""fullscreenenter"",""5"",""24901""
","
",2020.325000048615,NA,48,NA,NA,3000,1,3388.4600000455976,39,images/earth.jpg,images/tutrocket2,images/tutrocket1,null,images/tutrocket2,NA,1,practice,null,2,NA,NA,NA,sub52
d3-animate-choice,95,467498,0.0-61.0-1.11,TRUE,TRUE,TRUE,TRUE,"""event"",""trial"",""time""
""fullscreenenter"",""5"",""24901""
","
","
","""event"",""trial"",""time""
""fullscreenenter"",""5"",""24901""
","
",1597.8100000065751,NA,49,NA,NA,3000,1,NA,NA,images/tutyellowplanet.jpg,images/tutalien4,images/tutalien3,images/tutrocket2,images/tutalien3,images/t.png,2,practice,true,1,common,1,2020-06-15T17:56:39Z,sub52
two-step-fixation,96,468501,0.0-61.0-2.11,TRUE,TRUE,TRUE,TRUE,"""event"",""trial"",""time""
""fullscreenenter"",""5"",""24901""
","
","
","""event"",""trial"",""time""
""fullscreenenter"",""5"",""24901""
","
",NA,images/earth.jpg,NA,NA,NA,NA,NA,NA,NA,NA,NA,NA,NA,NA,NA,fixation,NA,NA,NA,NA,NA,NA,sub52
d3-animate-choice,97,472066,0.0-61.0-0.12,TRUE,TRUE,TRUE,TRUE,"""event"",""trial"",""time""
""fullscreenenter"",""5"",""24901""
","
","
","""event"",""trial"",""time""
""fullscreenenter"",""5"",""24901""
","
",1561.440000019502,NA,48,NA,NA,3000,1,NA,NA,images/earth.jpg,images/tutrocket2,images/tutrocket1,null,images/tutrocket2,NA,1,practice,null,2,NA,NA,NA,sub52
d3-animate-choice,98,474947,0.0-61.0-1.12,TRUE,TRUE,TRUE,TRUE,"""event"",""trial"",""time""
""fullscreenenter"",""5"",""24901""
","
","
","""event"",""trial"",""time""
""fullscreenenter"",""5"",""24901""
","
",875.1199999824166,NA,49,NA,NA,3000,1,NA,NA,images/tutyellowplanet.jpg,images/tutalien4,images/tutalien3,images/tutrocket2,images/tutalien3,images/nothing.png,2,practice,true,1,common,0,2020-06-15T17:56:46Z,sub52
two-step-fixation,99,475954,0.0-61.0-2.12,TRUE,TRUE,TRUE,TRUE,"""event"",""trial"",""time""
""fullscreenenter"",""5"",""24901""
","
","
","""event"",""trial"",""time""
""fullscreenenter"",""5"",""24901""
","
",NA,images/earth.jpg,NA,NA,NA,NA,NA,NA,NA,NA,NA,NA,NA,NA,NA,fixation,NA,NA,NA,NA,NA,NA,sub52
d3-animate-choice,100,479964,0.0-61.0-0.13,TRUE,TRUE,TRUE,TRUE,"""event"",""trial"",""time""
""fullscreenenter"",""5"",""24901""
","
","
","""event"",""trial"",""time""
""fullscreenenter"",""5"",""24901""
","
",2077.385000011418,NA,48,NA,NA,3000,1,NA,NA,images/earth.jpg,images/tutrocket2,images/tutrocket1,null,images/tutrocket2,NA,1,practice,null,2,NA,NA,NA,sub52
d3-animate-choice,101,482408,0.0-61.0-1.13,TRUE,TRUE,TRUE,TRUE,"""event"",""trial"",""time""
""fullscreenenter"",""5"",""24901""
","
","
","""event"",""trial"",""time""
""fullscreenenter"",""5"",""24901""
","
",437.86500004353,NA,48,NA,NA,3000,1,NA,NA,images/tutyellowplanet.jpg,images/tutalien4,images/tutalien3,images/tutrocket2,images/tutalien4,images/t.png,2,practice,true,2,common,1,2020-06-15T17:56:54Z,sub52
two-step-fixation,102,483414,0.0-61.0-2.13,TRUE,TRUE,TRUE,TRUE,"""event"",""trial"",""time""
""fullscreenenter"",""5"",""24901""
","
","
","""event"",""trial"",""time""
""fullscreenenter"",""5"",""24901""
","
",NA,images/earth.jpg,NA,NA,NA,NA,NA,NA,NA,NA,NA,NA,NA,NA,NA,fixation,NA,NA,NA,NA,NA,NA,sub52
d3-animate-choice,103,486746,0.0-61.0-0.14,TRUE,TRUE,TRUE,TRUE,"""event"",""trial"",""time""
""fullscreenenter"",""5"",""24901""
","
","
","""event"",""trial"",""time""
""fullscreenenter"",""5"",""24901""
","
",1326.1749999946915,NA,48,NA,NA,3000,1,NA,NA,images/earth.jpg,images/tutrocket2,images/tutrocket1,null,images/tutrocket2,NA,1,practice,null,2,NA,NA,NA,sub52
d3-animate-choice,104,489388,0.0-61.0-1.14,TRUE,TRUE,TRUE,TRUE,"""event"",""trial"",""time""
""fullscreenenter"",""5"",""24901""
","
","
","""event"",""trial"",""time""
""fullscreenenter"",""5"",""24901""
","
",634.8650000290945,NA,48,NA,NA,3000,1,NA,NA,images/tutyellowplanet.jpg,images/tutalien4,images/tutalien3,images/tutrocket2,images/tutalien4,images/t.png,2,practice,true,2,common,1,2020-06-15T17:57:01Z,sub52
two-step-fixation,105,490391,0.0-61.0-2.14,TRUE,TRUE,TRUE,TRUE,"""event"",""trial"",""time""
""fullscreenenter"",""5"",""24901""
","
","
","""event"",""trial"",""time""
""fullscreenenter"",""5"",""24901""
","
",NA,images/earth.jpg,NA,NA,NA,NA,NA,NA,NA,NA,NA,NA,NA,NA,NA,fixation,NA,NA,NA,NA,NA,NA,sub52
d3-animate-choice,106,492838,0.0-61.0-0.15,TRUE,TRUE,TRUE,TRUE,"""event"",""trial"",""time""
""fullscreenenter"",""5"",""24901""
","
","
","""event"",""trial"",""time""
""fullscreenenter"",""5"",""24901""
","
",440.6049999524839,NA,48,NA,NA,3000,1,457.4249999714084,39,images/earth.jpg,images/tutrocket2,images/tutrocket1,null,images/tutrocket2,NA,1,practice,null,2,NA,NA,NA,sub52
d3-animate-choice,107,495274,0.0-61.0-1.15,TRUE,TRUE,TRUE,TRUE,"""event"",""trial"",""time""
""fullscreenenter"",""5"",""24901""
","
","
","""event"",""trial"",""time""
""fullscreenenter"",""5"",""24901""
","
",432.99499998101965,NA,48,NA,NA,3000,1,NA,NA,images/tutyellowplanet.jpg,images/tutalien4,images/tutalien3,images/tutrocket2,images/tutalien4,images/t.png,2,practice,true,2,common,1,2020-06-15T17:57:07Z,sub52
two-step-fixation,108,496277,0.0-61.0-2.15,TRUE,TRUE,TRUE,TRUE,"""event"",""trial"",""time""
""fullscreenenter"",""5"",""24901""
","
","
","""event"",""trial"",""time""
""fullscreenenter"",""5"",""24901""
","
",NA,images/earth.jpg,NA,NA,NA,NA,NA,NA,NA,NA,NA,NA,NA,NA,NA,fixation,NA,NA,NA,NA,NA,NA,sub52
d3-animate-choice,109,498960,0.0-61.0-0.16,TRUE,TRUE,TRUE,TRUE,"""event"",""trial"",""time""
""fullscreenenter"",""5"",""24901""
","
","
","""event"",""trial"",""time""
""fullscreenenter"",""5"",""24901""
","
",677.7149999979883,NA,48,NA,NA,3000,1,NA,NA,images/earth.jpg,images/tutrocket2,images/tutrocket1,null,images/tutrocket2,NA,1,practice,null,2,NA,NA,NA,sub52
d3-animate-choice,110,501694,0.0-61.0-1.16,TRUE,TRUE,TRUE,TRUE,"""event"",""trial"",""time""
""fullscreenenter"",""5"",""24901""
","
","
","""event"",""trial"",""time""
""fullscreenenter"",""5"",""24901""
","
",727.0300000091083,NA,48,NA,NA,3000,1,865.8350000041537,39,images/tutyellowplanet.jpg,images/tutalien4,images/tutalien3,images/tutrocket2,images/tutalien4,images/t.png,2,practice,true,2,common,1,2020-06-15T17:57:13Z,sub52
two-step-fixation,111,502697,0.0-61.0-2.16,TRUE,TRUE,TRUE,TRUE,"""event"",""trial"",""time""
""fullscreenenter"",""5"",""24901""
","
","
","""event"",""trial"",""time""
""fullscreenenter"",""5"",""24901""
","
",NA,images/earth.jpg,NA,NA,NA,NA,NA,NA,NA,NA,NA,NA,NA,NA,NA,fixation,NA,NA,NA,NA,NA,NA,sub52
d3-animate-choice,112,505299,0.0-61.0-0.17,TRUE,TRUE,TRUE,TRUE,"""event"",""trial"",""time""
""fullscreenenter"",""5"",""24901""
","
","
","""event"",""trial"",""time""
""fullscreenenter"",""5"",""24901""
","
",595.499999995809,NA,48,NA,NA,3000,1,NA,NA,images/earth.jpg,images/tutrocket2,images/tutrocket1,null,images/tutrocket2,NA,1,practice,null,2,NA,NA,NA,sub52
d3-animate-choice,113,507933,0.0-61.0-1.17,TRUE,TRUE,TRUE,TRUE,"""event"",""trial"",""time""
""fullscreenenter"",""5"",""24901""
","
","
","""event"",""trial"",""time""
""fullscreenenter"",""5"",""24901""
","
",628.3549999934621,NA,48,NA,NA,3000,1,NA,NA,images/tutyellowplanet.jpg,images/tutalien4,images/tutalien3,images/tutrocket2,images/tutalien4,images/t.png,2,practice,true,2,common,1,2020-06-15T17:57:19Z,sub52
two-step-fixation,114,508936,0.0-61.0-2.17,TRUE,TRUE,TRUE,TRUE,"""event"",""trial"",""time""
""fullscreenenter"",""5"",""24901""
","
","
","""event"",""trial"",""time""
""fullscreenenter"",""5"",""24901""
","
",NA,images/earth.jpg,NA,NA,NA,NA,NA,NA,NA,NA,NA,NA,NA,NA,NA,fixation,NA,NA,NA,NA,NA,NA,sub52
d3-animate-choice,115,511538,0.0-61.0-0.18,TRUE,TRUE,TRUE,TRUE,"""event"",""trial"",""time""
""fullscreenenter"",""5"",""24901""
","
","
","""event"",""trial"",""time""
""fullscreenenter"",""5"",""24901""
","
",592.9899999755435,NA,48,NA,NA,3000,1,"1542.0399999711663,1663.8199999579228",3939,images/earth.jpg,images/tutrocket2,images/tutrocket1,null,images/tutrocket2,NA,1,practice,null,2,NA,NA,NA,sub52
d3-animate-choice,116,514220,0.0-61.0-1.18,TRUE,TRUE,TRUE,TRUE,"""event"",""trial"",""time""
""fullscreenenter"",""5"",""24901""
","
","
","""event"",""trial"",""time""
""fullscreenenter"",""5"",""24901""
","
",676.3400000054389,NA,48,NA,NA,3000,1,NA,NA,images/tutyellowplanet.jpg,images/tutalien4,images/tutalien3,images/tutrocket2,images/tutalien4,images/nothing.png,2,practice,true,2,common,0,2020-06-15T17:57:26Z,sub52
two-step-fixation,117,515227,0.0-61.0-2.18,TRUE,TRUE,TRUE,TRUE,"""event"",""trial"",""time""
""fullscreenenter"",""5"",""24901""
","
","
","""event"",""trial"",""time""
""fullscreenenter"",""5"",""24901""
","
",NA,images/earth.jpg,NA,NA,NA,NA,NA,NA,NA,NA,NA,NA,NA,NA,NA,fixation,NA,NA,NA,NA,NA,NA,sub52
d3-animate-choice,118,517792,0.0-61.0-0.19,TRUE,TRUE,TRUE,TRUE,"""event"",""trial"",""time""
""fullscreenenter"",""5"",""24901""
","
","
","""event"",""trial"",""time""
""fullscreenenter"",""5"",""24901""
","
",557.0450000232086,NA,48,NA,NA,3000,1,1016.4949999889359,39,images/earth.jpg,images/tutrocket2,images/tutrocket1,null,images/tutrocket2,NA,1,practice,null,2,NA,NA,NA,sub52
d3-animate-choice,119,520170,0.0-61.0-1.19,TRUE,TRUE,TRUE,TRUE,"""event"",""trial"",""time""
""fullscreenenter"",""5"",""24901""
","
","
","""event"",""trial"",""time""
""fullscreenenter"",""5"",""24901""
","
",371.12000002525747,NA,48,NA,NA,3000,1,NA,NA,images/tutgreenplanet.jpg,images/tutalien2,images/tutalien1,images/tutrocket2,images/tutalien2,images/nothing.png,2,practice,false,2,rare,0,2020-06-15T17:57:32Z,sub52
two-step-fixation,120,521176,0.0-61.0-2.19,TRUE,TRUE,TRUE,TRUE,"""event"",""trial"",""time""
""fullscreenenter"",""5"",""24901""
","
","
","""event"",""trial"",""time""
""fullscreenenter"",""5"",""24901""
","
",NA,images/earth.jpg,NA,NA,NA,NA,NA,NA,NA,NA,NA,NA,NA,NA,NA,fixation,NA,NA,NA,NA,NA,NA,sub52
d3-instructions,121,528354,0.0-62.0,TRUE,TRUE,TRUE,TRUE,"""event"",""trial"",""time""
""fullscreenenter"",""5"",""24901""
","
","
","""event"",""trial"",""time""
""fullscreenenter"",""5"",""24901""
","
",NA,NA,NA,NA,NA,NA,NA,NA,NA,NA,NA,NA,NA,NA,NA,NA,NA,NA,NA,NA,NA,NA,sub52
audio-keyboard-response,122,533872,0.0-63.0,TRUE,TRUE,TRUE,TRUE,"""event"",""trial"",""time""
""fullscreenenter"",""5"",""24901""
","
","
","""event"",""trial"",""time""
""fullscreenenter"",""5"",""24901""
","
",5521,audio/instructions/treasure_feedback.wav,32,NA,NA,NA,NA,NA,NA,NA,NA,NA,NA,NA,NA,NA,NA,NA,NA,NA,NA,NA,sub52
d3-instructions,123,552448,0.0-64.0,TRUE,TRUE,TRUE,TRUE,"""event"",""trial"",""time""
""fullscreenenter"",""5"",""24901""
","
","
","""event"",""trial"",""time""
""fullscreenenter"",""5"",""24901""
","
",NA,NA,NA,NA,NA,NA,NA,NA,NA,NA,NA,NA,NA,NA,NA,NA,NA,NA,NA,NA,NA,NA,sub52
d3-instructions,124,569766,0.0-65.0,TRUE,TRUE,TRUE,TRUE,"""event"",""trial"",""time""
""fullscreenenter"",""5"",""24901""
","
","
","""event"",""trial"",""time""
""fullscreenenter"",""5"",""24901""
","
",NA,NA,NA,NA,NA,NA,NA,NA,NA,NA,NA,NA,NA,NA,NA,NA,NA,NA,NA,NA,NA,NA,sub52
d3-instructions,125,595011,0.0-66.0,TRUE,TRUE,TRUE,TRUE,"""event"",""trial"",""time""
""fullscreenenter"",""5"",""24901""
","
","
","""event"",""trial"",""time""
""fullscreenenter"",""5"",""24901""
","
",NA,NA,NA,NA,NA,NA,NA,NA,NA,NA,NA,NA,NA,NA,NA,NA,NA,NA,NA,NA,NA,NA,sub52
d3-instructions,126,610433,0.0-67.0,TRUE,TRUE,TRUE,TRUE,"""event"",""trial"",""time""
""fullscreenenter"",""5"",""24901""
","
","
","""event"",""trial"",""time""
""fullscreenenter"",""5"",""24901""
","
",NA,NA,NA,NA,NA,NA,NA,NA,NA,NA,NA,NA,NA,NA,NA,NA,NA,NA,NA,NA,NA,NA,sub52
d3-instructions,127,618443,0.0-68.0,TRUE,TRUE,TRUE,TRUE,"""event"",""trial"",""time""
""fullscreenenter"",""5"",""24901""
","
","
","""event"",""trial"",""time""
""fullscreenenter"",""5"",""24901""
","
",NA,NA,NA,NA,NA,NA,NA,NA,NA,NA,NA,NA,NA,NA,NA,NA,NA,NA,NA,NA,NA,NA,sub52
instructions-quiz,128,624063,0.0-69.0,TRUE,TRUE,TRUE,TRUE,"""event"",""trial"",""time""
""fullscreenenter"",""5"",""24901""
","
","
","""event"",""trial"",""time""
""fullscreenenter"",""5"",""24901""
","
",5619.030000001658,audio/quiz/Q1_Prompt.wav,NA,1,NA,NA,NA,NA,NA,NA,NA,NA,NA,NA,NA,NA,NA,NA,NA,NA,NA,NA,sub52
audio-keyboard-response,129,633237,0.0-70.0,TRUE,TRUE,TRUE,TRUE,"""event"",""trial"",""time""
""fullscreenenter"",""5"",""24901""
","
","
","""event"",""trial"",""time""
""fullscreenenter"",""5"",""24901""
","
",null,audio/quiz/Q1_Correct.wav,null,NA,NA,NA,NA,NA,NA,NA,NA,NA,NA,NA,NA,NA,NA,NA,NA,NA,NA,NA,sub52
instructions-quiz,130,638487,0.0-71.0,TRUE,TRUE,TRUE,TRUE,"""event"",""trial"",""time""
""fullscreenenter"",""5"",""24901""
","
","
","""event"",""trial"",""time""
""fullscreenenter"",""5"",""24901""
","
",5248.680000018794,audio/quiz/Q2_Prompt.wav,NA,0,NA,NA,NA,NA,NA,NA,NA,NA,NA,NA,NA,NA,NA,NA,NA,NA,NA,NA,sub52
audio-keyboard-response,131,651355,0.0-72.0,TRUE,TRUE,TRUE,TRUE,"""event"",""trial"",""time""
""fullscreenenter"",""5"",""24901""
","
","
","""event"",""trial"",""time""
""fullscreenenter"",""5"",""24901""
","
",null,audio/quiz/Q2_Correct.wav,null,NA,NA,NA,NA,NA,NA,NA,NA,NA,NA,NA,NA,NA,NA,NA,NA,NA,NA,NA,sub52
instructions-quiz,132,656503,0.0-73.0,TRUE,TRUE,TRUE,TRUE,"""event"",""trial"",""time""
""fullscreenenter"",""5"",""24901""
","
","
","""event"",""trial"",""time""
""fullscreenenter"",""5"",""24901""
","
",5146.869999996852,audio/quiz/Q3_Prompt.wav,NA,1,NA,NA,NA,NA,NA,NA,NA,NA,NA,NA,NA,NA,NA,NA,NA,NA,NA,NA,sub52
audio-keyboard-response,133,662303,0.0-74.0,TRUE,TRUE,TRUE,TRUE,"""event"",""trial"",""time""
""fullscreenenter"",""5"",""24901""
","
","
","""event"",""trial"",""time""
""fullscreenenter"",""5"",""24901""
","
",null,audio/quiz/Q3_Correct.wav,null,NA,NA,NA,NA,NA,NA,NA,NA,NA,NA,NA,NA,NA,NA,NA,NA,NA,NA,NA,sub52
d3-instructions,134,670090,0.0-75.0,TRUE,TRUE,TRUE,TRUE,"""event"",""trial"",""time""
""fullscreenenter"",""5"",""24901""
","
","
","""event"",""trial"",""time""
""fullscreenenter"",""5"",""24901""
","
",NA,NA,NA,NA,NA,NA,NA,NA,NA,NA,NA,NA,NA,NA,NA,NA,NA,NA,NA,NA,NA,NA,sub52
d3-animate-choice,135,674097,0.0-76.0-0.0,TRUE,TRUE,TRUE,TRUE,"""event"",""trial"",""time""
""fullscreenenter"",""5"",""24901""
","
","
","""event"",""trial"",""time""
""fullscreenenter"",""5"",""24901""
","
",2924.769999983255,NA,48,NA,NA,3000,1,NA,NA,images/earth.jpg,images/rocket2,images/rocket1,null,images/rocket2,NA,1,real,null,2,NA,NA,NA,sub52
d3-animate-choice,136,677522,0.0-76.0-1.0,TRUE,TRUE,TRUE,TRUE,"""event"",""trial"",""time""
""fullscreenenter"",""5"",""24901""
","
","
","""event"",""trial"",""time""
""fullscreenenter"",""5"",""24901""
","
",1420.4000000027008,NA,49,NA,NA,3000,1,NA,NA,images/purpleplanet.jpg,images/alien4,images/alien3,images/rocket2,images/alien3,images/t.png,2,real,true,1,common,1,2020-06-15T18:00:09Z,sub52
two-step-fixation,137,678527,0.0-76.0-2.0,TRUE,TRUE,TRUE,TRUE,"""event"",""trial"",""time""
""fullscreenenter"",""5"",""24901""
","
","
","""event"",""trial"",""time""
""fullscreenenter"",""5"",""24901""
","
",NA,images/earth.jpg,NA,NA,NA,NA,NA,NA,NA,NA,NA,NA,NA,NA,NA,fixation,NA,NA,NA,NA,NA,NA,sub52
d3-animate-choice,138,681429,0.0-76.0-0.1,TRUE,TRUE,TRUE,TRUE,"""event"",""trial"",""time""
""fullscreenenter"",""5"",""24901""
","
","
","""event"",""trial"",""time""
""fullscreenenter"",""5"",""24901""
","
",898.6949999816716,NA,49,NA,NA,3000,1,NA,NA,images/earth.jpg,images/rocket2,images/rocket1,null,images/rocket1,NA,1,real,null,1,NA,NA,NA,sub52
d3-animate-choice,139,683876,0.0-76.0-1.1,TRUE,TRUE,TRUE,TRUE,"""event"",""trial"",""time""
""fullscreenenter"",""5"",""24901""
","
","
","""event"",""trial"",""time""
""fullscreenenter"",""5"",""24901""
","
",441.35000003734604,NA,48,NA,NA,3000,1,NA,NA,images/purpleplanet.jpg,images/alien4,images/alien3,images/rocket1,images/alien4,images/nothing.png,2,real,false,2,rare,0,2020-06-15T18:00:15Z,sub52
two-step-fixation,140,684879,0.0-76.0-2.1,TRUE,TRUE,TRUE,TRUE,"""event"",""trial"",""time""
""fullscreenenter"",""5"",""24901""
","
","
","""event"",""trial"",""time""
""fullscreenenter"",""5"",""24901""
","
",NA,images/earth.jpg,NA,NA,NA,NA,NA,NA,NA,NA,NA,NA,NA,NA,NA,fixation,NA,NA,NA,NA,NA,NA,sub52
d3-animate-choice,141,687585,0.0-76.0-0.2,TRUE,TRUE,TRUE,TRUE,"""event"",""trial"",""time""
""fullscreenenter"",""5"",""24901""
","
","
","""event"",""trial"",""time""
""fullscreenenter"",""5"",""24901""
","
",703.1149999820627,NA,49,NA,NA,3000,1,NA,NA,images/earth.jpg,images/rocket2,images/rocket1,null,images/rocket1,NA,1,real,null,1,NA,NA,NA,sub52
d3-animate-choice,142,690132,0.0-76.0-1.2,TRUE,TRUE,TRUE,TRUE,"""event"",""trial"",""time""
""fullscreenenter"",""5"",""24901""
","
","
","""event"",""trial"",""time""
""fullscreenenter"",""5"",""24901""
","
",542.7999999956228,NA,49,NA,NA,3000,1,NA,NA,images/redplanet1.jpg,images/alien2,images/alien1,images/rocket1,images/alien1,images/nothing.png,2,real,true,1,common,0,2020-06-15T18:00:22Z,sub52
two-step-fixation,143,691137,0.0-76.0-2.2,TRUE,TRUE,TRUE,TRUE,"""event"",""trial"",""time""
""fullscreenenter"",""5"",""24901""
","
","
","""event"",""trial"",""time""
""fullscreenenter"",""5"",""24901""
","
",NA,images/earth.jpg,NA,NA,NA,NA,NA,NA,NA,NA,NA,NA,NA,NA,NA,fixation,NA,NA,NA,NA,NA,NA,sub52
d3-animate-choice,144,693643,0.0-76.0-0.3,TRUE,TRUE,TRUE,TRUE,"""event"",""trial"",""time""
""fullscreenenter"",""5"",""24901""
","
","
","""event"",""trial"",""time""
""fullscreenenter"",""5"",""24901""
","
",501.8900000141002,NA,48,NA,NA,3000,1,NA,NA,images/earth.jpg,images/rocket2,images/rocket1,null,images/rocket2,NA,1,real,null,2,NA,NA,NA,sub52
d3-animate-choice,145,696271,0.0-76.0-1.3,TRUE,TRUE,TRUE,TRUE,"""event"",""trial"",""time""
""fullscreenenter"",""5"",""24901""
","
","
","""event"",""trial"",""time""
""fullscreenenter"",""5"",""24901""
","
",623.7650000257418,NA,48,NA,NA,3000,1,NA,NA,images/redplanet1.jpg,images/alien2,images/alien1,images/rocket2,images/alien2,images/t.png,2,real,false,2,rare,1,2020-06-15T18:00:28Z,sub52
two-step-fixation,146,697273,0.0-76.0-2.3,TRUE,TRUE,TRUE,TRUE,"""event"",""trial"",""time""
""fullscreenenter"",""5"",""24901""
","
","
","""event"",""trial"",""time""
""fullscreenenter"",""5"",""24901""
","
",NA,images/earth.jpg,NA,NA,NA,NA,NA,NA,NA,NA,NA,NA,NA,NA,NA,fixation,NA,NA,NA,NA,NA,NA,sub52
d3-animate-choice,147,699634,0.0-76.0-0.4,TRUE,TRUE,TRUE,TRUE,"""event"",""trial"",""time""
""fullscreenenter"",""5"",""24901""
","
","
","""event"",""trial"",""time""
""fullscreenenter"",""5"",""24901""
","
",356.96499998448417,NA,48,NA,NA,3000,1,NA,NA,images/earth.jpg,images/rocket2,images/rocket1,null,images/rocket2,NA,1,real,null,2,NA,NA,NA,sub52
d3-animate-choice,148,702035,0.0-76.0-1.4,TRUE,TRUE,TRUE,TRUE,"""event"",""trial"",""time""
""fullscreenenter"",""5"",""24901""
","
","
","""event"",""trial"",""time""
""fullscreenenter"",""5"",""24901""
","
",397.690000012517,NA,48,NA,NA,3000,1,NA,NA,images/redplanet1.jpg,images/alien2,images/alien1,images/rocket2,images/alien2,images/t.png,2,real,false,2,rare,1,2020-06-15T18:00:33Z,sub52
two-step-fixation,149,703039,0.0-76.0-2.4,TRUE,TRUE,TRUE,TRUE,"""event"",""trial"",""time""
""fullscreenenter"",""5"",""24901""
","
","
","""event"",""trial"",""time""
""fullscreenenter"",""5"",""24901""
","
",NA,images/earth.jpg,NA,NA,NA,NA,NA,NA,NA,NA,NA,NA,NA,NA,NA,fixation,NA,NA,NA,NA,NA,NA,sub52
d3-animate-choice,150,705484,0.0-76.0-0.5,TRUE,TRUE,TRUE,TRUE,"""event"",""trial"",""time""
""fullscreenenter"",""5"",""24901""
","
","
","""event"",""trial"",""time""
""fullscreenenter"",""5"",""24901""
","
",439.7649999591522,NA,48,NA,NA,3000,1,NA,NA,images/earth.jpg,images/rocket2,images/rocket1,null,images/rocket2,NA,1,real,null,2,NA,NA,NA,sub52
d3-animate-choice,151,707859,0.0-76.0-1.5,TRUE,TRUE,TRUE,TRUE,"""event"",""trial"",""time""
""fullscreenenter"",""5"",""24901""
","
","
","""event"",""trial"",""time""
""fullscreenenter"",""5"",""24901""
","
",367.18000000109896,NA,48,NA,NA,3000,1,NA,NA,images/purpleplanet.jpg,images/alien4,images/alien3,images/rocket2,images/alien4,images/t.png,2,real,true,2,common,1,2020-06-15T18:00:39Z,sub52
two-step-fixation,152,708864,0.0-76.0-2.5,TRUE,TRUE,TRUE,TRUE,"""event"",""trial"",""time""
""fullscreenenter"",""5"",""24901""
","
","
","""event"",""trial"",""time""
""fullscreenenter"",""5"",""24901""
","
",NA,images/earth.jpg,NA,NA,NA,NA,NA,NA,NA,NA,NA,NA,NA,NA,NA,fixation,NA,NA,NA,NA,NA,NA,sub52
d3-animate-choice,153,711234,0.0-76.0-0.6,TRUE,TRUE,TRUE,TRUE,"""event"",""trial"",""time""
""fullscreenenter"",""5"",""24901""
","
","
","""event"",""trial"",""time""
""fullscreenenter"",""5"",""24901""
","
",365.14999996870756,NA,48,NA,NA,3000,1,NA,NA,images/earth.jpg,images/rocket2,images/rocket1,null,images/rocket2,NA,1,real,null,2,NA,NA,NA,sub52
d3-animate-choice,154,713832,0.0-76.0-1.6,TRUE,TRUE,TRUE,TRUE,"""event"",""trial"",""time""
""fullscreenenter"",""5"",""24901""
","
","
","""event"",""trial"",""time""
""fullscreenenter"",""5"",""24901""
","
",591.7450000415556,NA,48,NA,NA,3000,1,NA,NA,images/purpleplanet.jpg,images/alien4,images/alien3,images/rocket2,images/alien4,images/nothing.png,2,real,true,2,common,0,2020-06-15T18:00:45Z,sub52
two-step-fixation,155,714836,0.0-76.0-2.6,TRUE,TRUE,TRUE,TRUE,"""event"",""trial"",""time""
""fullscreenenter"",""5"",""24901""
","
","
","""event"",""trial"",""time""
""fullscreenenter"",""5"",""24901""
","
",NA,images/earth.jpg,NA,NA,NA,NA,NA,NA,NA,NA,NA,NA,NA,NA,NA,fixation,NA,NA,NA,NA,NA,NA,sub52
d3-animate-choice,156,718097,0.0-76.0-0.7,TRUE,TRUE,TRUE,TRUE,"""event"",""trial"",""time""
""fullscreenenter"",""5"",""24901""
","
","
","""event"",""trial"",""time""
""fullscreenenter"",""5"",""24901""
","
",1257.0050000213087,NA,49,NA,NA,3000,1,NA,NA,images/earth.jpg,images/rocket2,images/rocket1,null,images/rocket1,NA,1,real,null,1,NA,NA,NA,sub52
d3-animate-choice,157,720558,0.0-76.0-1.7,TRUE,TRUE,TRUE,TRUE,"""event"",""trial"",""time""
""fullscreenenter"",""5"",""24901""
","
","
","""event"",""trial"",""time""
""fullscreenenter"",""5"",""24901""
","
",454.059999960009,NA,49,NA,NA,3000,1,NA,NA,images/purpleplanet.jpg,images/alien4,images/alien3,images/rocket1,images/alien3,images/nothing.png,2,real,false,1,rare,0,2020-06-15T18:00:52Z,sub52
two-step-fixation,158,721564,0.0-76.0-2.7,TRUE,TRUE,TRUE,TRUE,"""event"",""trial"",""time""
""fullscreenenter"",""5"",""24901""
","
","
","""event"",""trial"",""time""
""fullscreenenter"",""5"",""24901""
","
",NA,images/earth.jpg,NA,NA,NA,NA,NA,NA,NA,NA,NA,NA,NA,NA,NA,fixation,NA,NA,NA,NA,NA,NA,sub52
d3-animate-choice,159,723684,0.0-76.0-0.8,TRUE,TRUE,TRUE,TRUE,"""event"",""trial"",""time""
""fullscreenenter"",""5"",""24901""
","
","
","""event"",""trial"",""time""
""fullscreenenter"",""5"",""24901""
","
",112.62999998871237,NA,48,NA,NA,3000,1,NA,NA,images/earth.jpg,images/rocket2,images/rocket1,null,images/rocket2,NA,1,real,null,2,NA,NA,NA,sub52
d3-animate-choice,160,726147,0.0-76.0-1.8,TRUE,TRUE,TRUE,TRUE,"""event"",""trial"",""time""
""fullscreenenter"",""5"",""24901""
","
","
","""event"",""trial"",""time""
""fullscreenenter"",""5"",""24901""
","
",455.5400000535883,NA,48,NA,NA,3000,1,NA,NA,images/purpleplanet.jpg,images/alien4,images/alien3,images/rocket2,images/alien4,images/nothing.png,2,real,true,2,common,0,2020-06-15T18:00:58Z,sub52
two-step-fixation,161,727152,0.0-76.0-2.8,TRUE,TRUE,TRUE,TRUE,"""event"",""trial"",""time""
""fullscreenenter"",""5"",""24901""
","
","
","""event"",""trial"",""time""
""fullscreenenter"",""5"",""24901""
","
",NA,images/earth.jpg,NA,NA,NA,NA,NA,NA,NA,NA,NA,NA,NA,NA,NA,fixation,NA,NA,NA,NA,NA,NA,sub52
d3-animate-choice,162,729804,0.0-76.0-0.9,TRUE,TRUE,TRUE,TRUE,"""event"",""trial"",""time""
""fullscreenenter"",""5"",""24901""
","
","
","""event"",""trial"",""time""
""fullscreenenter"",""5"",""24901""
","
",644.6500000311062,NA,49,NA,NA,3000,1,NA,NA,images/earth.jpg,images/rocket2,images/rocket1,null,images/rocket1,NA,1,real,null,1,NA,NA,NA,sub52
d3-animate-choice,163,732425,0.0-76.0-1.9,TRUE,TRUE,TRUE,TRUE,"""event"",""trial"",""time""
""fullscreenenter"",""5"",""24901""
","
","
","""event"",""trial"",""time""
""fullscreenenter"",""5"",""24901""
","
",617.3500000149943,NA,48,NA,NA,3000,1,NA,NA,images/redplanet1.jpg,images/alien2,images/alien1,images/rocket1,images/alien2,images/nothing.png,2,real,true,2,common,0,2020-06-15T18:01:04Z,sub52
two-step-fixation,164,733428,0.0-76.0-2.9,TRUE,TRUE,TRUE,TRUE,"""event"",""trial"",""time""
""fullscreenenter"",""5"",""24901""
","
","
","""event"",""trial"",""time""
""fullscreenenter"",""5"",""24901""
","
",NA,images/earth.jpg,NA,NA,NA,NA,NA,NA,NA,NA,NA,NA,NA,NA,NA,fixation,NA,NA,NA,NA,NA,NA,sub52
d3-animate-choice,165,736191,0.0-76.0-0.10,TRUE,TRUE,TRUE,TRUE,"""event"",""trial"",""time""
""fullscreenenter"",""5"",""24901""
","
","
","""event"",""trial"",""time""
""fullscreenenter"",""5"",""24901""
","
",758.9700000244193,NA,49,NA,NA,3000,1,NA,NA,images/earth.jpg,images/rocket2,images/rocket1,null,images/rocket1,NA,1,real,null,1,NA,NA,NA,sub52
d3-animate-choice,166,739660,0.0-76.0-1.10,TRUE,TRUE,TRUE,TRUE,"""event"",""trial"",""time""
""fullscreenenter"",""5"",""24901""
","
","
","""event"",""trial"",""time""
""fullscreenenter"",""5"",""24901""
","
",1463.3199999807402,NA,48,NA,NA,3000,1,NA,NA,images/purpleplanet.jpg,images/alien4,images/alien3,images/rocket1,images/alien4,images/t.png,2,real,false,2,rare,1,2020-06-15T18:01:11Z,sub52
two-step-fixation,167,740665,0.0-76.0-2.10,TRUE,TRUE,TRUE,TRUE,"""event"",""trial"",""time""
""fullscreenenter"",""5"",""24901""
","
","
","""event"",""trial"",""time""
""fullscreenenter"",""5"",""24901""
","
",NA,images/earth.jpg,NA,NA,NA,NA,NA,NA,NA,NA,NA,NA,NA,NA,NA,fixation,NA,NA,NA,NA,NA,NA,sub52
d3-animate-choice,168,744670,0.0-76.0-0.11,TRUE,TRUE,TRUE,TRUE,"""event"",""trial"",""time""
""fullscreenenter"",""5"",""24901""
","
","
","""event"",""trial"",""time""
""fullscreenenter"",""5"",""24901""
","
",2353.4749999525957,NA,48,NA,NA,3000,1,NA,NA,images/earth.jpg,images/rocket2,images/rocket1,null,images/rocket2,NA,1,real,null,2,NA,NA,NA,sub52
d3-animate-choice,169,748675,0.0-76.0-1.11,TRUE,TRUE,TRUE,TRUE,"""event"",""trial"",""time""
""fullscreenenter"",""5"",""24901""
","
","
","""event"",""trial"",""time""
""fullscreenenter"",""5"",""24901""
","
",2203.105000022333,NA,49,NA,NA,3000,1,NA,NA,images/purpleplanet.jpg,images/alien4,images/alien3,images/rocket2,images/alien3,images/nothing.png,2,real,true,1,common,0,2020-06-15T18:01:20Z,sub52
two-step-fixation,170,749678,0.0-76.0-2.11,TRUE,TRUE,TRUE,TRUE,"""event"",""trial"",""time""
""fullscreenenter"",""5"",""24901""
","
","
","""event"",""trial"",""time""
""fullscreenenter"",""5"",""24901""
","
",NA,images/earth.jpg,NA,NA,NA,NA,NA,NA,NA,NA,NA,NA,NA,NA,NA,fixation,NA,NA,NA,NA,NA,NA,sub52
d3-animate-choice,171,752963,0.0-76.0-0.12,TRUE,TRUE,TRUE,TRUE,"""event"",""trial"",""time""
""fullscreenenter"",""5"",""24901""
","
","
","""event"",""trial"",""time""
""fullscreenenter"",""5"",""24901""
","
",1277.4649999919347,NA,48,NA,NA,3000,1,NA,NA,images/earth.jpg,images/rocket2,images/rocket1,null,images/rocket2,NA,1,real,null,2,NA,NA,NA,sub52
d3-animate-choice,172,756972,0.0-76.0-1.12,TRUE,TRUE,TRUE,TRUE,"""event"",""trial"",""time""
""fullscreenenter"",""5"",""24901""
","
","
","""event"",""trial"",""time""
""fullscreenenter"",""5"",""24901""
","
",2185.005000035744,NA,49,NA,NA,3000,1,NA,NA,images/redplanet1.jpg,images/alien2,images/alien1,images/rocket2,images/alien1,images/nothing.png,2,real,false,1,rare,0,2020-06-15T18:01:28Z,sub52
two-step-fixation,173,757975,0.0-76.0-2.12,TRUE,TRUE,TRUE,TRUE,"""event"",""trial"",""time""
""fullscreenenter"",""5"",""24901""
","
","
","""event"",""trial"",""time""
""fullscreenenter"",""5"",""24901""
","
",NA,images/earth.jpg,NA,NA,NA,NA,NA,NA,NA,NA,NA,NA,NA,NA,NA,fixation,NA,NA,NA,NA,NA,NA,sub52
d3-animate-choice,174,761463,0.0-76.0-0.13,TRUE,TRUE,TRUE,TRUE,"""event"",""trial"",""time""
""fullscreenenter"",""5"",""24901""
","
","
","""event"",""trial"",""time""
""fullscreenenter"",""5"",""24901""
","
",1483.234999992419,NA,48,NA,NA,3000,1,NA,NA,images/earth.jpg,images/rocket2,images/rocket1,null,images/rocket2,NA,1,real,null,2,NA,NA,NA,sub52
d3-animate-choice,175,764747,0.0-76.0-1.13,TRUE,TRUE,TRUE,TRUE,"""event"",""trial"",""time""
""fullscreenenter"",""5"",""24901""
","
","
","""event"",""trial"",""time""
""fullscreenenter"",""5"",""24901""
","
",1276.9199999747798,NA,48,NA,NA,3000,1,NA,NA,images/redplanet1.jpg,images/alien2,images/alien1,images/rocket2,images/alien2,images/t.png,2,real,false,2,rare,1,2020-06-15T18:01:36Z,sub52
two-step-fixation,176,765750,0.0-76.0-2.13,TRUE,TRUE,TRUE,TRUE,"""event"",""trial"",""time""
""fullscreenenter"",""5"",""24901""
","
","
","""event"",""trial"",""time""
""fullscreenenter"",""5"",""24901""
","
",NA,images/earth.jpg,NA,NA,NA,NA,NA,NA,NA,NA,NA,NA,NA,NA,NA,fixation,NA,NA,NA,NA,NA,NA,sub52
d3-animate-choice,177,768967,0.0-76.0-0.14,TRUE,TRUE,TRUE,TRUE,"""event"",""trial"",""time""
""fullscreenenter"",""5"",""24901""
","
","
","""event"",""trial"",""time""
""fullscreenenter"",""5"",""24901""
","
",1207.0499999681488,NA,48,NA,NA,3000,1,NA,NA,images/earth.jpg,images/rocket2,images/rocket1,null,images/rocket2,NA,1,real,null,2,NA,NA,NA,sub52
d3-animate-choice,178,772428,0.0-76.0-1.14,TRUE,TRUE,TRUE,TRUE,"""event"",""trial"",""time""
""fullscreenenter"",""5"",""24901""
","
","
","""event"",""trial"",""time""
""fullscreenenter"",""5"",""24901""
","
",1452.9249999905005,NA,49,NA,NA,3000,1,NA,NA,images/purpleplanet.jpg,images/alien4,images/alien3,images/rocket2,images/alien3,images/nothing.png,2,real,true,1,common,0,2020-06-15T18:01:44Z,sub52
two-step-fixation,179,773431,0.0-76.0-2.14,TRUE,TRUE,TRUE,TRUE,"""event"",""trial"",""time""
""fullscreenenter"",""5"",""24901""
","
","
","""event"",""trial"",""time""
""fullscreenenter"",""5"",""24901""
","
",NA,images/earth.jpg,NA,NA,NA,NA,NA,NA,NA,NA,NA,NA,NA,NA,NA,fixation,NA,NA,NA,NA,NA,NA,sub52
d3-animate-choice,180,776125,0.0-76.0-0.15,TRUE,TRUE,TRUE,TRUE,"""event"",""trial"",""time""
""fullscreenenter"",""5"",""24901""
","
","
","""event"",""trial"",""time""
""fullscreenenter"",""5"",""24901""
","
",687.6350000384264,NA,48,NA,NA,3000,1,NA,NA,images/earth.jpg,images/rocket2,images/rocket1,null,images/rocket2,NA,1,real,null,2,NA,NA,NA,sub52
d3-animate-choice,181,779119,0.0-76.0-1.15,TRUE,TRUE,TRUE,TRUE,"""event"",""trial"",""time""
""fullscreenenter"",""5"",""24901""
","
","
","""event"",""trial"",""time""
""fullscreenenter"",""5"",""24901""
","
",986.5500000305474,NA,48,NA,NA,3000,1,NA,NA,images/purpleplanet.jpg,images/alien4,images/alien3,images/rocket2,images/alien4,images/t.png,2,real,true,2,common,1,2020-06-15T18:01:51Z,sub52
two-step-fixation,182,780123,0.0-76.0-2.15,TRUE,TRUE,TRUE,TRUE,"""event"",""trial"",""time""
""fullscreenenter"",""5"",""24901""
","
","
","""event"",""trial"",""time""
""fullscreenenter"",""5"",""24901""
","
",NA,images/earth.jpg,NA,NA,NA,NA,NA,NA,NA,NA,NA,NA,NA,NA,NA,fixation,NA,NA,NA,NA,NA,NA,sub52
d3-animate-choice,183,783270,0.0-76.0-0.16,TRUE,TRUE,TRUE,TRUE,"""event"",""trial"",""time""
""fullscreenenter"",""5"",""24901""
","
","
","""event"",""trial"",""time""
""fullscreenenter"",""5"",""24901""
","
",1141.7249999940395,NA,49,NA,NA,3000,1,NA,NA,images/earth.jpg,images/rocket2,images/rocket1,null,images/rocket1,NA,1,real,null,1,NA,NA,NA,sub52
d3-animate-choice,184,786423,0.0-76.0-1.16,TRUE,TRUE,TRUE,TRUE,"""event"",""trial"",""time""
""fullscreenenter"",""5"",""24901""
","
","
","""event"",""trial"",""time""
""fullscreenenter"",""5"",""24901""
","
",1146.0450000013225,NA,48,NA,NA,3000,1,NA,NA,images/redplanet1.jpg,images/alien2,images/alien1,images/rocket1,images/alien2,images/t.png,2,real,true,2,common,1,2020-06-15T18:01:58Z,sub52
two-step-fixation,185,787428,0.0-76.0-2.16,TRUE,TRUE,TRUE,TRUE,"""event"",""trial"",""time""
""fullscreenenter"",""5"",""24901""
","
","
","""event"",""trial"",""time""
""fullscreenenter"",""5"",""24901""
","
",NA,images/earth.jpg,NA,NA,NA,NA,NA,NA,NA,NA,NA,NA,NA,NA,NA,fixation,NA,NA,NA,NA,NA,NA,sub52
d3-animate-choice,186,790704,0.0-76.0-0.17,TRUE,TRUE,TRUE,TRUE,"""event"",""trial"",""time""
""fullscreenenter"",""5"",""24901""
","
","
","""event"",""trial"",""time""
""fullscreenenter"",""5"",""24901""
","
",1271.5600000228733,NA,48,NA,NA,3000,1,NA,NA,images/earth.jpg,images/rocket2,images/rocket1,null,images/rocket2,NA,1,real,null,2,NA,NA,NA,sub52
d3-animate-choice,187,793950,0.0-76.0-1.17,TRUE,TRUE,TRUE,TRUE,"""event"",""trial"",""time""
""fullscreenenter"",""5"",""24901""
","
","
","""event"",""trial"",""time""
""fullscreenenter"",""5"",""24901""
","
",1238.5549999889918,NA,49,NA,NA,3000,1,NA,NA,images/purpleplanet.jpg,images/alien4,images/alien3,images/rocket2,images/alien3,images/t.png,2,real,true,1,common,1,2020-06-15T18:02:05Z,sub52
two-step-fixation,188,794954,0.0-76.0-2.17,TRUE,TRUE,TRUE,TRUE,"""event"",""trial"",""time""
""fullscreenenter"",""5"",""24901""
","
","
","""event"",""trial"",""time""
""fullscreenenter"",""5"",""24901""
","
",NA,images/earth.jpg,NA,NA,NA,NA,NA,NA,NA,NA,NA,NA,NA,NA,NA,fixation,NA,NA,NA,NA,NA,NA,sub52
d3-animate-choice,189,797882,0.0-76.0-0.18,TRUE,TRUE,TRUE,TRUE,"""event"",""trial"",""time""
""fullscreenenter"",""5"",""24901""
","
","
","""event"",""trial"",""time""
""fullscreenenter"",""5"",""24901""
","
",920.5850000143982,NA,48,NA,NA,3000,1,NA,NA,images/earth.jpg,images/rocket2,images/rocket1,null,images/rocket2,NA,1,real,null,2,NA,NA,NA,sub52
d3-animate-choice,190,800542,0.0-76.0-1.18,TRUE,TRUE,TRUE,TRUE,"""event"",""trial"",""time""
""fullscreenenter"",""5"",""24901""
","
","
","""event"",""trial"",""time""
""fullscreenenter"",""5"",""24901""
","
",654.3950000195764,NA,49,NA,NA,3000,1,NA,NA,images/purpleplanet.jpg,images/alien4,images/alien3,images/rocket2,images/alien3,images/nothing.png,2,real,true,1,common,0,2020-06-15T18:02:12Z,sub52
two-step-fixation,191,801544,0.0-76.0-2.18,TRUE,TRUE,TRUE,TRUE,"""event"",""trial"",""time""
""fullscreenenter"",""5"",""24901""
","
","
","""event"",""trial"",""time""
""fullscreenenter"",""5"",""24901""
","
",NA,images/earth.jpg,NA,NA,NA,NA,NA,NA,NA,NA,NA,NA,NA,NA,NA,fixation,NA,NA,NA,NA,NA,NA,sub52
d3-animate-choice,192,804682,0.0-76.0-0.19,TRUE,TRUE,TRUE,TRUE,"""event"",""trial"",""time""
""fullscreenenter"",""5"",""24901""
","
","
","""event"",""trial"",""time""
""fullscreenenter"",""5"",""24901""
","
",1132.9949999926612,NA,49,NA,NA,3000,1,NA,NA,images/earth.jpg,images/rocket2,images/rocket1,null,images/rocket1,NA,1,real,null,1,NA,NA,NA,sub52
d3-animate-choice,193,807922,0.0-76.0-1.19,TRUE,TRUE,TRUE,TRUE,"""event"",""trial"",""time""
""fullscreenenter"",""5"",""24901""
","
","
","""event"",""trial"",""time""
""fullscreenenter"",""5"",""24901""
","
",1234.4550000270829,NA,49,NA,NA,3000,1,NA,NA,images/redplanet1.jpg,images/alien2,images/alien1,images/rocket1,images/alien1,images/nothing.png,2,real,true,1,common,0,2020-06-15T18:02:19Z,sub52
two-step-fixation,194,808927,0.0-76.0-2.19,TRUE,TRUE,TRUE,TRUE,"""event"",""trial"",""time""
""fullscreenenter"",""5"",""24901""
","
","
","""event"",""trial"",""time""
""fullscreenenter"",""5"",""24901""
","
",NA,images/earth.jpg,NA,NA,NA,NA,NA,NA,NA,NA,NA,NA,NA,NA,NA,fixation,NA,NA,NA,NA,NA,NA,sub52
d3-animate-choice,195,811962,0.0-76.0-0.20,TRUE,TRUE,TRUE,TRUE,"""event"",""trial"",""time""
""fullscreenenter"",""5"",""24901""
","
","
","""event"",""trial"",""time""
""fullscreenenter"",""5"",""24901""
","
",1029.050000011921,NA,48,NA,NA,3000,1,NA,NA,images/earth.jpg,images/rocket2,images/rocket1,null,images/rocket2,NA,1,real,null,2,NA,NA,NA,sub52
d3-animate-choice,196,814907,0.0-76.0-1.20,TRUE,TRUE,TRUE,TRUE,"""event"",""trial"",""time""
""fullscreenenter"",""5"",""24901""
","
","
","""event"",""trial"",""time""
""fullscreenenter"",""5"",""24901""
","
",940.4099999810569,NA,48,NA,NA,3000,1,NA,NA,images/redplanet1.jpg,images/alien2,images/alien1,images/rocket2,images/alien2,images/t.png,2,real,false,2,rare,1,2020-06-15T18:02:26Z,sub52
two-step-fixation,197,815910,0.0-76.0-2.20,TRUE,TRUE,TRUE,TRUE,"""event"",""trial"",""time""
""fullscreenenter"",""5"",""24901""
","
","
","""event"",""trial"",""time""
""fullscreenenter"",""5"",""24901""
","
",NA,images/earth.jpg,NA,NA,NA,NA,NA,NA,NA,NA,NA,NA,NA,NA,NA,fixation,NA,NA,NA,NA,NA,NA,sub52
d3-animate-choice,198,818589,0.0-76.0-0.21,TRUE,TRUE,TRUE,TRUE,"""event"",""trial"",""time""
""fullscreenenter"",""5"",""24901""
","
","
","""event"",""trial"",""time""
""fullscreenenter"",""5"",""24901""
","
",674.3699999642558,NA,48,NA,NA,3000,1,NA,NA,images/earth.jpg,images/rocket2,images/rocket1,null,images/rocket2,NA,1,real,null,2,NA,NA,NA,sub52
d3-animate-choice,199,821277,0.0-76.0-1.21,TRUE,TRUE,TRUE,TRUE,"""event"",""trial"",""time""
""fullscreenenter"",""5"",""24901""
","
","
","""event"",""trial"",""time""
""fullscreenenter"",""5"",""24901""
","
",680.5249999742955,NA,48,NA,NA,3000,1,NA,NA,images/purpleplanet.jpg,images/alien4,images/alien3,images/rocket2,images/alien4,images/nothing.png,2,real,true,2,common,0,2020-06-15T18:02:33Z,sub52
two-step-fixation,200,822280,0.0-76.0-2.21,TRUE,TRUE,TRUE,TRUE,"""event"",""trial"",""time""
""fullscreenenter"",""5"",""24901""
","
","
","""event"",""trial"",""time""
""fullscreenenter"",""5"",""24901""
","
",NA,images/earth.jpg,NA,NA,NA,NA,NA,NA,NA,NA,NA,NA,NA,NA,NA,fixation,NA,NA,NA,NA,NA,NA,sub52
d3-animate-choice,201,825258,0.0-76.0-0.22,TRUE,TRUE,TRUE,TRUE,"""event"",""trial"",""time""
""fullscreenenter"",""5"",""24901""
","
","
","""event"",""trial"",""time""
""fullscreenenter"",""5"",""24901""
","
",971.4699999894947,NA,49,NA,NA,3000,1,NA,NA,images/earth.jpg,images/rocket2,images/rocket1,null,images/rocket1,NA,1,real,null,1,NA,NA,NA,sub52
d3-animate-choice,202,828074,0.0-76.0-1.22,TRUE,TRUE,TRUE,TRUE,"""event"",""trial"",""time""
""fullscreenenter"",""5"",""24901""
","
","
","""event"",""trial"",""time""
""fullscreenenter"",""5"",""24901""
","
",809.9150000489317,NA,48,NA,NA,3000,1,NA,NA,images/redplanet1.jpg,images/alien2,images/alien1,images/rocket1,images/alien2,images/t.png,2,real,true,2,common,1,2020-06-15T18:02:40Z,sub52
two-step-fixation,203,829077,0.0-76.0-2.22,TRUE,TRUE,TRUE,TRUE,"""event"",""trial"",""time""
""fullscreenenter"",""5"",""24901""
","
","
","""event"",""trial"",""time""
""fullscreenenter"",""5"",""24901""
","
",NA,images/earth.jpg,NA,NA,NA,NA,NA,NA,NA,NA,NA,NA,NA,NA,NA,fixation,NA,NA,NA,NA,NA,NA,sub52
d3-animate-choice,204,833020,0.0-76.0-0.23,TRUE,TRUE,TRUE,TRUE,"""event"",""trial"",""time""
""fullscreenenter"",""5"",""24901""
","
","
","""event"",""trial"",""time""
""fullscreenenter"",""5"",""24901""
","
",1934.4550000387244,NA,49,NA,NA,3000,1,NA,NA,images/earth.jpg,images/rocket2,images/rocket1,null,images/rocket1,NA,1,real,null,1,NA,NA,NA,sub52
d3-animate-choice,205,836690,0.0-76.0-1.23,TRUE,TRUE,TRUE,TRUE,"""event"",""trial"",""time""
""fullscreenenter"",""5"",""24901""
","
","
","""event"",""trial"",""time""
""fullscreenenter"",""5"",""24901""
","
",1665.480000025127,NA,49,NA,NA,3000,1,NA,NA,images/purpleplanet.jpg,images/alien4,images/alien3,images/rocket1,images/alien3,images/nothing.png,2,real,false,1,rare,0,2020-06-15T18:02:48Z,sub52
two-step-fixation,206,837694,0.0-76.0-2.23,TRUE,TRUE,TRUE,TRUE,"""event"",""trial"",""time""
""fullscreenenter"",""5"",""24901""
","
","
","""event"",""trial"",""time""
""fullscreenenter"",""5"",""24901""
","
",NA,images/earth.jpg,NA,NA,NA,NA,NA,NA,NA,NA,NA,NA,NA,NA,NA,fixation,NA,NA,NA,NA,NA,NA,sub52
d3-animate-choice,207,841699,0.0-76.0-0.24,TRUE,TRUE,TRUE,TRUE,"""event"",""trial"",""time""
""fullscreenenter"",""5"",""24901""
","
","
","""event"",""trial"",""time""
""fullscreenenter"",""5"",""24901""
","
",2437.470000004396,NA,48,NA,NA,3000,1,NA,NA,images/earth.jpg,images/rocket2,images/rocket1,null,images/rocket2,NA,1,real,null,2,NA,NA,NA,sub52
d3-animate-choice,208,845162,0.0-76.0-1.24,TRUE,TRUE,TRUE,TRUE,"""event"",""trial"",""time""
""fullscreenenter"",""5"",""24901""
","
","
","""event"",""trial"",""time""
""fullscreenenter"",""5"",""24901""
","
",1454.2849999852479,NA,49,NA,NA,3000,1,NA,NA,images/purpleplanet.jpg,images/alien4,images/alien3,images/rocket2,images/alien3,images/t.png,2,real,true,1,common,1,2020-06-15T18:02:57Z,sub52
two-step-fixation,209,846170,0.0-76.0-2.24,TRUE,TRUE,TRUE,TRUE,"""event"",""trial"",""time""
""fullscreenenter"",""5"",""24901""
","
","
","""event"",""trial"",""time""
""fullscreenenter"",""5"",""24901""
","
",NA,images/earth.jpg,NA,NA,NA,NA,NA,NA,NA,NA,NA,NA,NA,NA,NA,fixation,NA,NA,NA,NA,NA,NA,sub52
d3-animate-choice,210,849492,0.0-76.0-0.25,TRUE,TRUE,TRUE,TRUE,"""event"",""trial"",""time""
""fullscreenenter"",""5"",""24901""
","
","
","""event"",""trial"",""time""
""fullscreenenter"",""5"",""24901""
","
",1316.3950000307523,NA,49,NA,NA,3000,1,NA,NA,images/earth.jpg,images/rocket2,images/rocket1,null,images/rocket1,NA,1,real,null,1,NA,NA,NA,sub52
d3-animate-choice,211,853497,0.0-76.0-1.25,TRUE,TRUE,TRUE,TRUE,"""event"",""trial"",""time""
""fullscreenenter"",""5"",""24901""
","
","
","""event"",""trial"",""time""
""fullscreenenter"",""5"",""24901""
","
",1510.0700000184588,NA,57,NA,NA,3000,1,2067.1849999926053,48,images/purpleplanet.jpg,images/alien4,images/alien3,images/rocket1,images/alien4,images/t.png,2,real,false,NA,rare,1,2020-06-15T18:03:05Z,sub52
two-step-fixation,212,854500,0.0-76.0-2.25,TRUE,TRUE,TRUE,TRUE,"""event"",""trial"",""time""
""fullscreenenter"",""5"",""24901""
","
","
","""event"",""trial"",""time""
""fullscreenenter"",""5"",""24901""
","
",NA,images/earth.jpg,NA,NA,NA,NA,NA,NA,NA,NA,NA,NA,NA,NA,NA,fixation,NA,NA,NA,NA,NA,NA,sub52
d3-animate-choice,213,857332,0.0-76.0-0.26,TRUE,TRUE,TRUE,TRUE,"""event"",""trial"",""time""
""fullscreenenter"",""5"",""24901""
","
","
","""event"",""trial"",""time""
""fullscreenenter"",""5"",""24901""
","
",825.5500000086613,NA,48,NA,NA,3000,1,NA,NA,images/earth.jpg,images/rocket2,images/rocket1,null,images/rocket2,NA,1,real,null,2,NA,NA,NA,sub52
d3-animate-choice,214,860291,0.0-76.0-1.26,TRUE,TRUE,TRUE,TRUE,"""event"",""trial"",""time""
""fullscreenenter"",""5"",""24901""
","
","
","""event"",""trial"",""time""
""fullscreenenter"",""5"",""24901""
","
",954.0700000361539,NA,48,NA,NA,3000,1,NA,NA,images/redplanet1.jpg,images/alien2,images/alien1,images/rocket2,images/alien2,images/t.png,2,real,false,2,rare,1,2020-06-15T18:03:12Z,sub52
two-step-fixation,215,861294,0.0-76.0-2.26,TRUE,TRUE,TRUE,TRUE,"""event"",""trial"",""time""
""fullscreenenter"",""5"",""24901""
","
","
","""event"",""trial"",""time""
""fullscreenenter"",""5"",""24901""
","
",NA,images/earth.jpg,NA,NA,NA,NA,NA,NA,NA,NA,NA,NA,NA,NA,NA,fixation,NA,NA,NA,NA,NA,NA,sub52
d3-animate-choice,216,864601,0.0-76.0-0.27,TRUE,TRUE,TRUE,TRUE,"""event"",""trial"",""time""
""fullscreenenter"",""5"",""24901""
","
","
","""event"",""trial"",""time""
""fullscreenenter"",""5"",""24901""
","
",1300.379999971483,NA,48,NA,NA,3000,1,NA,NA,images/earth.jpg,images/rocket2,images/rocket1,null,images/rocket2,NA,1,real,null,2,NA,NA,NA,sub52
d3-animate-choice,217,867968,0.0-76.0-1.27,TRUE,TRUE,TRUE,TRUE,"""event"",""trial"",""time""
""fullscreenenter"",""5"",""24901""
","
","
","""event"",""trial"",""time""
""fullscreenenter"",""5"",""24901""
","
",1360.7250000350177,NA,49,NA,NA,3000,1,NA,NA,images/purpleplanet.jpg,images/alien4,images/alien3,images/rocket2,images/alien3,images/nothing.png,2,real,true,1,common,0,2020-06-15T18:03:19Z,sub52
two-step-fixation,218,868971,0.0-76.0-2.27,TRUE,TRUE,TRUE,TRUE,"""event"",""trial"",""time""
""fullscreenenter"",""5"",""24901""
","
","
","""event"",""trial"",""time""
""fullscreenenter"",""5"",""24901""
","
",NA,images/earth.jpg,NA,NA,NA,NA,NA,NA,NA,NA,NA,NA,NA,NA,NA,fixation,NA,NA,NA,NA,NA,NA,sub52
d3-animate-choice,219,871880,0.0-76.0-0.28,TRUE,TRUE,TRUE,TRUE,"""event"",""trial"",""time""
""fullscreenenter"",""5"",""24901""
","
","
","""event"",""trial"",""time""
""fullscreenenter"",""5"",""24901""
","
",903.5450000083074,NA,48,NA,NA,3000,1,NA,NA,images/earth.jpg,images/rocket2,images/rocket1,null,images/rocket2,NA,1,real,null,2,NA,NA,NA,sub52
d3-animate-choice,220,875047,0.0-76.0-1.28,TRUE,TRUE,TRUE,TRUE,"""event"",""trial"",""time""
""fullscreenenter"",""5"",""24901""
","
","
","""event"",""trial"",""time""
""fullscreenenter"",""5"",""24901""
","
",1161.2500000046566,NA,48,NA,NA,3000,1,NA,NA,images/purpleplanet.jpg,images/alien4,images/alien3,images/rocket2,images/alien4,images/t.png,2,real,true,2,common,1,2020-06-15T18:03:26Z,sub52
two-step-fixation,221,876050,0.0-76.0-2.28,TRUE,TRUE,TRUE,TRUE,"""event"",""trial"",""time""
""fullscreenenter"",""5"",""24901""
","
","
","""event"",""trial"",""time""
""fullscreenenter"",""5"",""24901""
","
",NA,images/earth.jpg,NA,NA,NA,NA,NA,NA,NA,NA,NA,NA,NA,NA,NA,fixation,NA,NA,NA,NA,NA,NA,sub52
d3-animate-choice,222,878490,0.0-76.0-0.29,TRUE,TRUE,TRUE,TRUE,"""event"",""trial"",""time""
""fullscreenenter"",""5"",""24901""
","
","
","""event"",""trial"",""time""
""fullscreenenter"",""5"",""24901""
","
",435.28999999398366,NA,48,NA,NA,3000,1,NA,NA,images/earth.jpg,images/rocket2,images/rocket1,null,images/rocket2,NA,1,real,null,2,NA,NA,NA,sub52
d3-animate-choice,223,881136,0.0-76.0-1.29,TRUE,TRUE,TRUE,TRUE,"""event"",""trial"",""time""
""fullscreenenter"",""5"",""24901""
","
","
","""event"",""trial"",""time""
""fullscreenenter"",""5"",""24901""
","
",639.6050000330433,NA,48,NA,NA,3000,1,NA,NA,images/purpleplanet.jpg,images/alien4,images/alien3,images/rocket2,images/alien4,images/t.png,2,real,true,2,common,1,2020-06-15T18:03:33Z,sub52
two-step-fixation,224,882138,0.0-76.0-2.29,TRUE,TRUE,TRUE,TRUE,"""event"",""trial"",""time""
""fullscreenenter"",""5"",""24901""
","
","
","""event"",""trial"",""time""
""fullscreenenter"",""5"",""24901""
","
",NA,images/earth.jpg,NA,NA,NA,NA,NA,NA,NA,NA,NA,NA,NA,NA,NA,fixation,NA,NA,NA,NA,NA,NA,sub52
d3-animate-choice,225,884693,0.0-76.0-0.30,TRUE,TRUE,TRUE,TRUE,"""event"",""trial"",""time""
""fullscreenenter"",""5"",""24901""
","
","
","""event"",""trial"",""time""
""fullscreenenter"",""5"",""24901""
","
",548.209999979008,NA,48,NA,NA,3000,1,NA,NA,images/earth.jpg,images/rocket2,images/rocket1,null,images/rocket2,NA,1,real,null,2,NA,NA,NA,sub52
d3-animate-choice,226,887378,0.0-76.0-1.30,TRUE,TRUE,TRUE,TRUE,"""event"",""trial"",""time""
""fullscreenenter"",""5"",""24901""
","
","
","""event"",""trial"",""time""
""fullscreenenter"",""5"",""24901""
","
",677.6599999866448,NA,48,NA,NA,3000,1,NA,NA,images/purpleplanet.jpg,images/alien4,images/alien3,images/rocket2,images/alien4,images/t.png,2,real,true,2,common,1,2020-06-15T18:03:39Z,sub52
two-step-fixation,227,888381,0.0-76.0-2.30,TRUE,TRUE,TRUE,TRUE,"""event"",""trial"",""time""
""fullscreenenter"",""5"",""24901""
","
","
","""event"",""trial"",""time""
""fullscreenenter"",""5"",""24901""
","
",NA,images/earth.jpg,NA,NA,NA,NA,NA,NA,NA,NA,NA,NA,NA,NA,NA,fixation,NA,NA,NA,NA,NA,NA,sub52
d3-animate-choice,228,890849,0.0-76.0-0.31,TRUE,TRUE,TRUE,TRUE,"""event"",""trial"",""time""
""fullscreenenter"",""5"",""24901""
","
","
","""event"",""trial"",""time""
""fullscreenenter"",""5"",""24901""
","
",462.0100000174716,NA,48,NA,NA,3000,1,NA,NA,images/earth.jpg,images/rocket2,images/rocket1,null,images/rocket2,NA,1,real,null,2,NA,NA,NA,sub52
d3-animate-choice,229,893518,0.0-76.0-1.31,TRUE,TRUE,TRUE,TRUE,"""event"",""trial"",""time""
""fullscreenenter"",""5"",""24901""
","
","
","""event"",""trial"",""time""
""fullscreenenter"",""5"",""24901""
","
",663.8800000073388,NA,48,NA,NA,3000,1,NA,NA,images/purpleplanet.jpg,images/alien4,images/alien3,images/rocket2,images/alien4,images/t.png,2,real,true,2,common,1,2020-06-15T18:03:45Z,sub52
two-step-fixation,230,894521,0.0-76.0-2.31,TRUE,TRUE,TRUE,TRUE,"""event"",""trial"",""time""
""fullscreenenter"",""5"",""24901""
","
","
","""event"",""trial"",""time""
""fullscreenenter"",""5"",""24901""
","
",NA,images/earth.jpg,NA,NA,NA,NA,NA,NA,NA,NA,NA,NA,NA,NA,NA,fixation,NA,NA,NA,NA,NA,NA,sub52
d3-animate-choice,231,897074,0.0-76.0-0.32,TRUE,TRUE,TRUE,TRUE,"""event"",""trial"",""time""
""fullscreenenter"",""5"",""24901""
","
","
","""event"",""trial"",""time""
""fullscreenenter"",""5"",""24901""
","
",547.6800000178628,NA,48,NA,NA,3000,1,NA,NA,images/earth.jpg,images/rocket2,images/rocket1,null,images/rocket2,NA,1,real,null,2,NA,NA,NA,sub52
d3-animate-choice,232,899686,0.0-76.0-1.32,TRUE,TRUE,TRUE,TRUE,"""event"",""trial"",""time""
""fullscreenenter"",""5"",""24901""
","
","
","""event"",""trial"",""time""
""fullscreenenter"",""5"",""24901""
","
",605.5400000186637,NA,48,NA,NA,3000,1,NA,NA,images/purpleplanet.jpg,images/alien4,images/alien3,images/rocket2,images/alien4,images/t.png,2,real,true,2,common,1,2020-06-15T18:03:51Z,sub52
two-step-fixation,233,900688,0.0-76.0-2.32,TRUE,TRUE,TRUE,TRUE,"""event"",""trial"",""time""
""fullscreenenter"",""5"",""24901""
","
","
","""event"",""trial"",""time""
""fullscreenenter"",""5"",""24901""
","
",NA,images/earth.jpg,NA,NA,NA,NA,NA,NA,NA,NA,NA,NA,NA,NA,NA,fixation,NA,NA,NA,NA,NA,NA,sub52
d3-animate-choice,234,903292,0.0-76.0-0.33,TRUE,TRUE,TRUE,TRUE,"""event"",""trial"",""time""
""fullscreenenter"",""5"",""24901""
","
","
","""event"",""trial"",""time""
""fullscreenenter"",""5"",""24901""
","
",597.4500000011176,NA,48,NA,NA,3000,1,NA,NA,images/earth.jpg,images/rocket2,images/rocket1,null,images/rocket2,NA,1,real,null,2,NA,NA,NA,sub52
d3-animate-choice,235,905962,0.0-76.0-1.33,TRUE,TRUE,TRUE,TRUE,"""event"",""trial"",""time""
""fullscreenenter"",""5"",""24901""
","
","
","""event"",""trial"",""time""
""fullscreenenter"",""5"",""24901""
","
",662.5500000081956,NA,48,NA,NA,3000,1,NA,NA,images/purpleplanet.jpg,images/alien4,images/alien3,images/rocket2,images/alien4,images/t.png,2,real,true,2,common,1,2020-06-15T18:03:57Z,sub52
two-step-fixation,236,906965,0.0-76.0-2.33,TRUE,TRUE,TRUE,TRUE,"""event"",""trial"",""time""
""fullscreenenter"",""5"",""24901""
","
","
","""event"",""trial"",""time""
""fullscreenenter"",""5"",""24901""
","
",NA,images/earth.jpg,NA,NA,NA,NA,NA,NA,NA,NA,NA,NA,NA,NA,NA,fixation,NA,NA,NA,NA,NA,NA,sub52
d3-animate-choice,237,909432,0.0-76.0-0.34,TRUE,TRUE,TRUE,TRUE,"""event"",""trial"",""time""
""fullscreenenter"",""5"",""24901""
","
","
","""event"",""trial"",""time""
""fullscreenenter"",""5"",""24901""
","
",461.83000004384667,NA,48,NA,NA,3000,1,NA,NA,images/earth.jpg,images/rocket2,images/rocket1,null,images/rocket2,NA,1,real,null,2,NA,NA,NA,sub52
d3-animate-choice,238,912025,0.0-76.0-1.34,TRUE,TRUE,TRUE,TRUE,"""event"",""trial"",""time""
""fullscreenenter"",""5"",""24901""
","
","
","""event"",""trial"",""time""
""fullscreenenter"",""5"",""24901""
","
",588.3599999942817,NA,48,NA,NA,3000,1,NA,NA,images/purpleplanet.jpg,images/alien4,images/alien3,images/rocket2,images/alien4,images/t.png,2,real,true,2,common,1,2020-06-15T18:04:03Z,sub52
two-step-fixation,239,913030,0.0-76.0-2.34,TRUE,TRUE,TRUE,TRUE,"""event"",""trial"",""time""
""fullscreenenter"",""5"",""24901""
","
","
","""event"",""trial"",""time""
""fullscreenenter"",""5"",""24901""
","
",NA,images/earth.jpg,NA,NA,NA,NA,NA,NA,NA,NA,NA,NA,NA,NA,NA,fixation,NA,NA,NA,NA,NA,NA,sub52
d3-animate-choice,240,915580,0.0-76.0-0.35,TRUE,TRUE,TRUE,TRUE,"""event"",""trial"",""time""
""fullscreenenter"",""5"",""24901""
","
","
","""event"",""trial"",""time""
""fullscreenenter"",""5"",""24901""
","
",541.399999987334,NA,48,NA,NA,3000,1,NA,NA,images/earth.jpg,images/rocket2,images/rocket1,null,images/rocket2,NA,1,real,null,2,NA,NA,NA,sub52
d3-animate-choice,241,918059,0.0-76.0-1.35,TRUE,TRUE,TRUE,TRUE,"""event"",""trial"",""time""
""fullscreenenter"",""5"",""24901""
","
","
","""event"",""trial"",""time""
""fullscreenenter"",""5"",""24901""
","
",475.57000000961125,NA,48,NA,NA,3000,1,NA,NA,images/purpleplanet.jpg,images/alien4,images/alien3,images/rocket2,images/alien4,images/nothing.png,2,real,true,2,common,0,2020-06-15T18:04:09Z,sub52
two-step-fixation,242,919061,0.0-76.0-2.35,TRUE,TRUE,TRUE,TRUE,"""event"",""trial"",""time""
""fullscreenenter"",""5"",""24901""
","
","
","""event"",""trial"",""time""
""fullscreenenter"",""5"",""24901""
","
",NA,images/earth.jpg,NA,NA,NA,NA,NA,NA,NA,NA,NA,NA,NA,NA,NA,fixation,NA,NA,NA,NA,NA,NA,sub52
d3-animate-choice,243,921554,0.0-76.0-0.36,TRUE,TRUE,TRUE,TRUE,"""event"",""trial"",""time""
""fullscreenenter"",""5"",""24901""
","
","
","""event"",""trial"",""time""
""fullscreenenter"",""5"",""24901""
","
",489.6500000031665,NA,48,NA,NA,3000,1,NA,NA,images/earth.jpg,images/rocket2,images/rocket1,null,images/rocket2,NA,1,real,null,2,NA,NA,NA,sub52
d3-animate-choice,244,925564,0.0-76.0-1.36,TRUE,TRUE,TRUE,TRUE,"""event"",""trial"",""time""
""fullscreenenter"",""5"",""24901""
","
","
","""event"",""trial"",""time""
""fullscreenenter"",""5"",""24901""
","
",2186.3199999788776,NA,49,NA,NA,3000,1,NA,NA,images/redplanet1.jpg,images/alien2,images/alien1,images/rocket2,images/alien1,images/t.png,2,real,false,1,rare,1,2020-06-15T18:04:17Z,sub52
two-step-fixation,245,926569,0.0-76.0-2.36,TRUE,TRUE,TRUE,TRUE,"""event"",""trial"",""time""
""fullscreenenter"",""5"",""24901""
","
","
","""event"",""trial"",""time""
""fullscreenenter"",""5"",""24901""
","
",NA,images/earth.jpg,NA,NA,NA,NA,NA,NA,NA,NA,NA,NA,NA,NA,NA,fixation,NA,NA,NA,NA,NA,NA,sub52
d3-animate-choice,246,929007,0.0-76.0-0.37,TRUE,TRUE,TRUE,TRUE,"""event"",""trial"",""time""
""fullscreenenter"",""5"",""24901""
","
","
","""event"",""trial"",""time""
""fullscreenenter"",""5"",""24901""
","
",431.49999994784594,NA,48,NA,NA,3000,1,NA,NA,images/earth.jpg,images/rocket2,images/rocket1,null,images/rocket2,NA,1,real,null,2,NA,NA,NA,sub52
d3-animate-choice,247,931750,0.0-76.0-1.37,TRUE,TRUE,TRUE,TRUE,"""event"",""trial"",""time""
""fullscreenenter"",""5"",""24901""
","
","
","""event"",""trial"",""time""
""fullscreenenter"",""5"",""24901""
","
",737.2500000055879,NA,49,NA,NA,3000,1,NA,NA,images/redplanet1.jpg,images/alien2,images/alien1,images/rocket2,images/alien1,images/nothing.png,2,real,false,1,rare,0,2020-06-15T18:04:23Z,sub52
two-step-fixation,248,932752,0.0-76.0-2.37,TRUE,TRUE,TRUE,TRUE,"""event"",""trial"",""time""
""fullscreenenter"",""5"",""24901""
","
","
","""event"",""trial"",""time""
""fullscreenenter"",""5"",""24901""
","
",NA,images/earth.jpg,NA,NA,NA,NA,NA,NA,NA,NA,NA,NA,NA,NA,NA,fixation,NA,NA,NA,NA,NA,NA,sub52
d3-animate-choice,249,935371,0.0-76.0-0.38,TRUE,TRUE,TRUE,TRUE,"""event"",""trial"",""time""
""fullscreenenter"",""5"",""24901""
","
","
","""event"",""trial"",""time""
""fullscreenenter"",""5"",""24901""
","
",611.5999999456108,NA,48,NA,NA,3000,1,NA,NA,images/earth.jpg,images/rocket2,images/rocket1,null,images/rocket2,NA,1,real,null,2,NA,NA,NA,sub52
d3-animate-choice,250,937810,0.0-76.0-1.38,TRUE,TRUE,TRUE,TRUE,"""event"",""trial"",""time""
""fullscreenenter"",""5"",""24901""
","
","
","""event"",""trial"",""time""
""fullscreenenter"",""5"",""24901""
","
",432.4950000154786,NA,48,NA,NA,3000,1,NA,NA,images/redplanet1.jpg,images/alien2,images/alien1,images/rocket2,images/alien2,images/nothing.png,2,real,false,2,rare,0,2020-06-15T18:04:29Z,sub52
two-step-fixation,251,938812,0.0-76.0-2.38,TRUE,TRUE,TRUE,TRUE,"""event"",""trial"",""time""
""fullscreenenter"",""5"",""24901""
","
","
","""event"",""trial"",""time""
""fullscreenenter"",""5"",""24901""
","
",NA,images/earth.jpg,NA,NA,NA,NA,NA,NA,NA,NA,NA,NA,NA,NA,NA,fixation,NA,NA,NA,NA,NA,NA,sub52
d3-animate-choice,252,941630,0.0-76.0-0.39,TRUE,TRUE,TRUE,TRUE,"""event"",""trial"",""time""
""fullscreenenter"",""5"",""24901""
","
","
","""event"",""trial"",""time""
""fullscreenenter"",""5"",""24901""
","
",810.5849999701604,NA,49,NA,NA,3000,1,NA,NA,images/earth.jpg,images/rocket2,images/rocket1,null,images/rocket1,NA,1,real,null,1,NA,NA,NA,sub52
d3-animate-choice,253,944166,0.0-76.0-1.39,TRUE,TRUE,TRUE,TRUE,"""event"",""trial"",""time""
""fullscreenenter"",""5"",""24901""
","
","
","""event"",""trial"",""time""
""fullscreenenter"",""5"",""24901""
","
",527.7449999703094,NA,48,NA,NA,3000,1,NA,NA,images/redplanet1.jpg,images/alien2,images/alien1,images/rocket1,images/alien2,images/t.png,2,real,true,2,common,1,2020-06-15T18:04:36Z,sub52
two-step-fixation,254,945170,0.0-76.0-2.39,TRUE,TRUE,TRUE,TRUE,"""event"",""trial"",""time""
""fullscreenenter"",""5"",""24901""
","
","
","""event"",""trial"",""time""
""fullscreenenter"",""5"",""24901""
","
",NA,images/earth.jpg,NA,NA,NA,NA,NA,NA,NA,NA,NA,NA,NA,NA,NA,fixation,NA,NA,NA,NA,NA,NA,sub52
d3-animate-choice,255,947555,0.0-76.0-0.40,TRUE,TRUE,TRUE,TRUE,"""event"",""trial"",""time""
""fullscreenenter"",""5"",""24901""
","
","
","""event"",""trial"",""time""
""fullscreenenter"",""5"",""24901""
","
",380.4649999947287,NA,48,NA,NA,3000,1,NA,NA,images/earth.jpg,images/rocket2,images/rocket1,null,images/rocket2,NA,1,real,null,2,NA,NA,NA,sub52
d3-animate-choice,256,950249,0.0-76.0-1.40,TRUE,TRUE,TRUE,TRUE,"""event"",""trial"",""time""
""fullscreenenter"",""5"",""24901""
","
","
","""event"",""trial"",""time""
""fullscreenenter"",""5"",""24901""
","
",686.4749999949709,NA,49,NA,NA,3000,1,NA,NA,images/redplanet1.jpg,images/alien2,images/alien1,images/rocket2,images/alien1,images/t.png,2,real,false,1,rare,1,2020-06-15T18:04:42Z,sub52
two-step-fixation,257,951253,0.0-76.0-2.40,TRUE,TRUE,TRUE,TRUE,"""event"",""trial"",""time""
""fullscreenenter"",""5"",""24901""
","
","
","""event"",""trial"",""time""
""fullscreenenter"",""5"",""24901""
","
",NA,images/earth.jpg,NA,NA,NA,NA,NA,NA,NA,NA,NA,NA,NA,NA,NA,fixation,NA,NA,NA,NA,NA,NA,sub52
d3-animate-choice,258,953755,0.0-76.0-0.41,TRUE,TRUE,TRUE,TRUE,"""event"",""trial"",""time""
""fullscreenenter"",""5"",""24901""
","
","
","""event"",""trial"",""time""
""fullscreenenter"",""5"",""24901""
","
",495.03499997081235,NA,48,NA,NA,3000,1,NA,NA,images/earth.jpg,images/rocket2,images/rocket1,null,images/rocket2,NA,1,real,null,2,NA,NA,NA,sub52
d3-animate-choice,259,956605,0.0-76.0-1.41,TRUE,TRUE,TRUE,TRUE,"""event"",""trial"",""time""
""fullscreenenter"",""5"",""24901""
","
","
","""event"",""trial"",""time""
""fullscreenenter"",""5"",""24901""
","
",843.1449999916367,NA,49,NA,NA,3000,1,NA,NA,images/purpleplanet.jpg,images/alien4,images/alien3,images/rocket2,images/alien3,images/nothing.png,2,real,true,1,common,0,2020-06-15T18:04:48Z,sub52
two-step-fixation,260,957610,0.0-76.0-2.41,TRUE,TRUE,TRUE,TRUE,"""event"",""trial"",""time""
""fullscreenenter"",""5"",""24901""
","
","
","""event"",""trial"",""time""
""fullscreenenter"",""5"",""24901""
","
",NA,images/earth.jpg,NA,NA,NA,NA,NA,NA,NA,NA,NA,NA,NA,NA,NA,fixation,NA,NA,NA,NA,NA,NA,sub52
d3-animate-choice,261,960217,0.0-76.0-0.42,TRUE,TRUE,TRUE,TRUE,"""event"",""trial"",""time""
""fullscreenenter"",""5"",""24901""
","
","
","""event"",""trial"",""time""
""fullscreenenter"",""5"",""24901""
","
",601.2749999645166,NA,48,NA,NA,3000,1,NA,NA,images/earth.jpg,images/rocket2,images/rocket1,null,images/rocket2,NA,1,real,null,2,NA,NA,NA,sub52
d3-animate-choice,262,962779,0.0-76.0-1.42,TRUE,TRUE,TRUE,TRUE,"""event"",""trial"",""time""
""fullscreenenter"",""5"",""24901""
","
","
","""event"",""trial"",""time""
""fullscreenenter"",""5"",""24901""
","
",555.5649999878369,NA,48,NA,NA,3000,1,NA,NA,images/purpleplanet.jpg,images/alien4,images/alien3,images/rocket2,images/alien4,images/nothing.png,2,real,true,2,common,0,2020-06-15T18:04:54Z,sub52
two-step-fixation,263,963783,0.0-76.0-2.42,TRUE,TRUE,TRUE,TRUE,"""event"",""trial"",""time""
""fullscreenenter"",""5"",""24901""
","
","
","""event"",""trial"",""time""
""fullscreenenter"",""5"",""24901""
","
",NA,images/earth.jpg,NA,NA,NA,NA,NA,NA,NA,NA,NA,NA,NA,NA,NA,fixation,NA,NA,NA,NA,NA,NA,sub52
d3-animate-choice,264,966264,0.0-76.0-0.43,TRUE,TRUE,TRUE,TRUE,"""event"",""trial"",""time""
""fullscreenenter"",""5"",""24901""
","
","
","""event"",""trial"",""time""
""fullscreenenter"",""5"",""24901""
","
",473.86999998707324,NA,48,NA,NA,3000,1,NA,NA,images/earth.jpg,images/rocket2,images/rocket1,null,images/rocket2,NA,1,real,null,2,NA,NA,NA,sub52
d3-animate-choice,265,968863,0.0-76.0-1.43,TRUE,TRUE,TRUE,TRUE,"""event"",""trial"",""time""
""fullscreenenter"",""5"",""24901""
","
","
","""event"",""trial"",""time""
""fullscreenenter"",""5"",""24901""
","
",591.4900000207126,NA,48,NA,NA,3000,1,NA,NA,images/purpleplanet.jpg,images/alien4,images/alien3,images/rocket2,images/alien4,images/t.png,2,real,true,2,common,1,2020-06-15T18:05:00Z,sub52
two-step-fixation,266,969866,0.0-76.0-2.43,TRUE,TRUE,TRUE,TRUE,"""event"",""trial"",""time""
""fullscreenenter"",""5"",""24901""
","
","
","""event"",""trial"",""time""
""fullscreenenter"",""5"",""24901""
","
",NA,images/earth.jpg,NA,NA,NA,NA,NA,NA,NA,NA,NA,NA,NA,NA,NA,fixation,NA,NA,NA,NA,NA,NA,sub52
d3-animate-choice,267,972610,0.0-76.0-0.44,TRUE,TRUE,TRUE,TRUE,"""event"",""trial"",""time""
""fullscreenenter"",""5"",""24901""
","
","
","""event"",""trial"",""time""
""fullscreenenter"",""5"",""24901""
","
",736.719999986235,NA,48,NA,NA,3000,1,NA,NA,images/earth.jpg,images/rocket2,images/rocket1,null,images/rocket2,NA,1,real,null,2,NA,NA,NA,sub52
d3-animate-choice,268,975223,0.0-76.0-1.44,TRUE,TRUE,TRUE,TRUE,"""event"",""trial"",""time""
""fullscreenenter"",""5"",""24901""
","
","
","""event"",""trial"",""time""
""fullscreenenter"",""5"",""24901""
","
",607.9700000118464,NA,48,NA,NA,3000,1,NA,NA,images/purpleplanet.jpg,images/alien4,images/alien3,images/rocket2,images/alien4,images/t.png,2,real,true,2,common,1,2020-06-15T18:05:07Z,sub52
two-step-fixation,269,976227,0.0-76.0-2.44,TRUE,TRUE,TRUE,TRUE,"""event"",""trial"",""time""
""fullscreenenter"",""5"",""24901""
","
","
","""event"",""trial"",""time""
""fullscreenenter"",""5"",""24901""
","
",NA,images/earth.jpg,NA,NA,NA,NA,NA,NA,NA,NA,NA,NA,NA,NA,NA,fixation,NA,NA,NA,NA,NA,NA,sub52
d3-animate-choice,270,978865,0.0-76.0-0.45,TRUE,TRUE,TRUE,TRUE,"""event"",""trial"",""time""
""fullscreenenter"",""5"",""24901""
","
","
","""event"",""trial"",""time""
""fullscreenenter"",""5"",""24901""
","
",632.1900000330061,NA,48,NA,NA,3000,1,NA,NA,images/earth.jpg,images/rocket2,images/rocket1,null,images/rocket2,NA,1,real,null,2,NA,NA,NA,sub52
d3-animate-choice,271,981392,0.0-76.0-1.45,TRUE,TRUE,TRUE,TRUE,"""event"",""trial"",""time""
""fullscreenenter"",""5"",""24901""
","
","
","""event"",""trial"",""time""
""fullscreenenter"",""5"",""24901""
","
",521.2049999972805,NA,48,NA,NA,3000,1,NA,NA,images/purpleplanet.jpg,images/alien4,images/alien3,images/rocket2,images/alien4,images/t.png,2,real,true,2,common,1,2020-06-15T18:05:13Z,sub52
two-step-fixation,272,982395,0.0-76.0-2.45,TRUE,TRUE,TRUE,TRUE,"""event"",""trial"",""time""
""fullscreenenter"",""5"",""24901""
","
","
","""event"",""trial"",""time""
""fullscreenenter"",""5"",""24901""
","
",NA,images/earth.jpg,NA,NA,NA,NA,NA,NA,NA,NA,NA,NA,NA,NA,NA,fixation,NA,NA,NA,NA,NA,NA,sub52
d3-animate-choice,273,984989,0.0-76.0-0.46,TRUE,TRUE,TRUE,TRUE,"""event"",""trial"",""time""
""fullscreenenter"",""5"",""24901""
","
","
","""event"",""trial"",""time""
""fullscreenenter"",""5"",""24901""
","
",587.1449999976903,NA,48,NA,NA,3000,1,NA,NA,images/earth.jpg,images/rocket2,images/rocket1,null,images/rocket2,NA,1,real,null,2,NA,NA,NA,sub52
d3-animate-choice,274,987618,0.0-76.0-1.46,TRUE,TRUE,TRUE,TRUE,"""event"",""trial"",""time""
""fullscreenenter"",""5"",""24901""
","
","
","""event"",""trial"",""time""
""fullscreenenter"",""5"",""24901""
","
",623.8499999744818,NA,48,NA,NA,3000,1,NA,NA,images/purpleplanet.jpg,images/alien4,images/alien3,images/rocket2,images/alien4,images/t.png,2,real,true,2,common,1,2020-06-15T18:05:19Z,sub52
two-step-fixation,275,988623,0.0-76.0-2.46,TRUE,TRUE,TRUE,TRUE,"""event"",""trial"",""time""
""fullscreenenter"",""5"",""24901""
","
","
","""event"",""trial"",""time""
""fullscreenenter"",""5"",""24901""
","
",NA,images/earth.jpg,NA,NA,NA,NA,NA,NA,NA,NA,NA,NA,NA,NA,NA,fixation,NA,NA,NA,NA,NA,NA,sub52
d3-animate-choice,276,991067,0.0-76.0-0.47,TRUE,TRUE,TRUE,TRUE,"""event"",""trial"",""time""
""fullscreenenter"",""5"",""24901""
","
","
","""event"",""trial"",""time""
""fullscreenenter"",""5"",""24901""
","
",439.0650000423193,NA,48,NA,NA,3000,1,NA,NA,images/earth.jpg,images/rocket2,images/rocket1,null,images/rocket2,NA,1,real,null,2,NA,NA,NA,sub52
d3-animate-choice,277,993464,0.0-76.0-1.47,TRUE,TRUE,TRUE,TRUE,"""event"",""trial"",""time""
""fullscreenenter"",""5"",""24901""
","
","
","""event"",""trial"",""time""
""fullscreenenter"",""5"",""24901""
","
",390.2150000212714,NA,48,NA,NA,3000,1,NA,NA,images/purpleplanet.jpg,images/alien4,images/alien3,images/rocket2,images/alien4,images/t.png,2,real,true,2,common,1,2020-06-15T18:05:25Z,sub52
two-step-fixation,278,994466,0.0-76.0-2.47,TRUE,TRUE,TRUE,TRUE,"""event"",""trial"",""time""
""fullscreenenter"",""5"",""24901""
","
","
","""event"",""trial"",""time""
""fullscreenenter"",""5"",""24901""
","
",NA,images/earth.jpg,NA,NA,NA,NA,NA,NA,NA,NA,NA,NA,NA,NA,NA,fixation,NA,NA,NA,NA,NA,NA,sub52
d3-animate-choice,279,996852,0.0-76.0-0.48,TRUE,TRUE,TRUE,TRUE,"""event"",""trial"",""time""
""fullscreenenter"",""5"",""24901""
","
","
","""event"",""trial"",""time""
""fullscreenenter"",""5"",""24901""
","
",377.5150000001304,NA,48,NA,NA,3000,1,NA,NA,images/earth.jpg,images/rocket2,images/rocket1,null,images/rocket2,NA,1,real,null,2,NA,NA,NA,sub52
d3-animate-choice,280,999612,0.0-76.0-1.48,TRUE,TRUE,TRUE,TRUE,"""event"",""trial"",""time""
""fullscreenenter"",""5"",""24901""
","
","
","""event"",""trial"",""time""
""fullscreenenter"",""5"",""24901""
","
",753.33999999566,NA,48,NA,NA,3000,1,NA,NA,images/purpleplanet.jpg,images/alien4,images/alien3,images/rocket2,images/alien4,images/t.png,2,real,true,2,common,1,2020-06-15T18:05:31Z,sub52
two-step-fixation,281,1000616,0.0-76.0-2.48,TRUE,TRUE,TRUE,TRUE,"""event"",""trial"",""time""
""fullscreenenter"",""5"",""24901""
","
","
","""event"",""trial"",""time""
""fullscreenenter"",""5"",""24901""
","
",NA,images/earth.jpg,NA,NA,NA,NA,NA,NA,NA,NA,NA,NA,NA,NA,NA,fixation,NA,NA,NA,NA,NA,NA,sub52
d3-animate-choice,282,1003331,0.0-76.0-0.49,TRUE,TRUE,TRUE,TRUE,"""event"",""trial"",""time""
""fullscreenenter"",""5"",""24901""
","
","
","""event"",""trial"",""time""
""fullscreenenter"",""5"",""24901""
","
",707.204999984242,NA,48,NA,NA,3000,1,NA,NA,images/earth.jpg,images/rocket2,images/rocket1,null,images/rocket2,NA,1,real,null,2,NA,NA,NA,sub52
d3-animate-choice,283,1006721,0.0-76.0-1.49,TRUE,TRUE,TRUE,TRUE,"""event"",""trial"",""time""
""fullscreenenter"",""5"",""24901""
","
","
","""event"",""trial"",""time""
""fullscreenenter"",""5"",""24901""
","
",1379.2000000248663,NA,49,NA,NA,3000,1,NA,NA,images/redplanet1.jpg,images/alien2,images/alien1,images/rocket2,images/alien1,images/nothing.png,2,real,false,1,rare,0,2020-06-15T18:05:38Z,sub52
two-step-fixation,284,1007727,0.0-76.0-2.49,TRUE,TRUE,TRUE,TRUE,"""event"",""trial"",""time""
""fullscreenenter"",""5"",""24901""
","
","
","""event"",""trial"",""time""
