trial_type,trial_index,time_elapsed,internal_node_id,rocket_sides,red_planet_first_rocket,red_display_order,purple_display_order,interactions,blur_events,focus_events,fullscreenenter_events,fullscreenexit_events,rt,stimulus,key_press,button_pressed,success,duration,valid_pressed,rts,keys,planet_text,right_text,left_text,center_text,chosen_text,reward_text,trial_stage,practice_trial,transition_type,choice,transition,reward,timestamp,subject_id
pavlovia,0,11,0.0-0.0,FALSE,TRUE,TRUE,TRUE,"
","
","
","
","
",NA,NA,NA,NA,NA,NA,NA,NA,NA,NA,NA,NA,NA,NA,NA,NA,NA,NA,NA,NA,NA,NA,sub145
html-keyboard-response,1,1751,0.0-1.0,FALSE,TRUE,TRUE,TRUE,"
","
","
","
","
",1736.8349999887869,Welcome! Press the space bar to begin.,32,NA,NA,NA,NA,NA,NA,NA,NA,NA,NA,NA,NA,NA,NA,NA,NA,NA,NA,NA,sub145
audio-keyboard-response,2,5392,0.0-2.0,FALSE,TRUE,TRUE,TRUE,"
","
","
","
","
",3570,audio/beep_loop.wav,32,NA,NA,NA,NA,NA,NA,NA,NA,NA,NA,NA,NA,NA,NA,NA,NA,NA,NA,NA,sub145
audio-button-response,3,7966,0.0-3.0,FALSE,TRUE,TRUE,TRUE,"
","
","
","
","
",NaN,audio/fish.mp3,NA,1,NA,NA,NA,NA,NA,NA,NA,NA,NA,NA,NA,NA,NA,NA,NA,NA,NA,NA,sub145
audio-button-response,4,10675,0.0-4.0,FALSE,TRUE,TRUE,TRUE,"""event"",""trial"",""time""
""fullscreenenter"",""5"",""16810""
","
","
","""event"",""trial"",""time""
""fullscreenenter"",""5"",""16810""
","
",NaN,audio/tiger.mp3,NA,4,NA,NA,NA,NA,NA,NA,NA,NA,NA,NA,NA,NA,NA,NA,NA,NA,NA,NA,sub145
fullscreen,5,17719,0.0-5.0,FALSE,TRUE,TRUE,TRUE,"""event"",""trial"",""time""
""fullscreenenter"",""5"",""16810""
","
","
","""event"",""trial"",""time""
""fullscreenenter"",""5"",""16810""
","
",NA,NA,NA,NA,TRUE,NA,NA,NA,NA,NA,NA,NA,NA,NA,NA,NA,NA,NA,NA,NA,NA,NA,sub145
d3-instructions,6,31242,0.0-6.0,FALSE,TRUE,TRUE,TRUE,"""event"",""trial"",""time""
""fullscreenenter"",""5"",""16810""
","
","
","""event"",""trial"",""time""
""fullscreenenter"",""5"",""16810""
","
",NA,NA,NA,NA,NA,NA,NA,NA,NA,NA,NA,NA,NA,NA,NA,NA,NA,NA,NA,NA,NA,NA,sub145
d3-instructions,7,43391,0.0-7.0,FALSE,TRUE,TRUE,TRUE,"""event"",""trial"",""time""
""fullscreenenter"",""5"",""16810""
","
","
","""event"",""trial"",""time""
""fullscreenenter"",""5"",""16810""
","
",NA,NA,NA,NA,NA,NA,NA,NA,NA,NA,NA,NA,NA,NA,NA,NA,NA,NA,NA,NA,NA,NA,sub145
d3-instructions,8,58815,0.0-8.0,FALSE,TRUE,TRUE,TRUE,"""event"",""trial"",""time""
""fullscreenenter"",""5"",""16810""
","
","
","""event"",""trial"",""time""
""fullscreenenter"",""5"",""16810""
","
",NA,NA,NA,NA,NA,NA,NA,NA,NA,NA,NA,NA,NA,NA,NA,NA,NA,NA,NA,NA,NA,NA,sub145
d3-instructions,9,70945,0.0-9.0,FALSE,TRUE,TRUE,TRUE,"""event"",""trial"",""time""
""fullscreenenter"",""5"",""16810""
","
","
","""event"",""trial"",""time""
""fullscreenenter"",""5"",""16810""
","
",NA,NA,NA,NA,NA,NA,NA,NA,NA,NA,NA,NA,NA,NA,NA,NA,NA,NA,NA,NA,NA,NA,sub145
d3-instructions,10,91474,0.0-10.0,FALSE,TRUE,TRUE,TRUE,"""event"",""trial"",""time""
""fullscreenenter"",""5"",""16810""
","
","
","""event"",""trial"",""time""
""fullscreenenter"",""5"",""16810""
","
",NA,NA,NA,NA,NA,NA,NA,NA,NA,NA,NA,NA,NA,NA,NA,NA,NA,NA,NA,NA,NA,NA,sub145
d3-animate-choice,11,94497,0.0-11.0,FALSE,TRUE,TRUE,TRUE,"""event"",""trial"",""time""
""fullscreenenter"",""5"",""16810""
","
","
","""event"",""trial"",""time""
""fullscreenenter"",""5"",""16810""
","
",1012.7499999944121,NA,49,NA,NA,3000,1,NA,NA,images/tutgreenplanet.jpg,images/tutalien1,images/tutalien2,null,images/tutalien2,NA,NA,practice,null,NA,NA,NA,NA,sub145
d3-animate-choice,12,97206,0.0-12.0,FALSE,TRUE,TRUE,TRUE,"""event"",""trial"",""time""
""fullscreenenter"",""5"",""16810""
","
","
","""event"",""trial"",""time""
""fullscreenenter"",""5"",""16810""
","
",701.535000000149,NA,48,NA,NA,3000,1,NA,NA,images/tutgreenplanet.jpg,images/tutalien1,images/tutalien2,null,images/tutalien1,NA,NA,practice,null,NA,NA,NA,NA,sub145
d3-animate-choice,13,100019,0.0-13.0,FALSE,TRUE,TRUE,TRUE,"""event"",""trial"",""time""
""fullscreenenter"",""5"",""16810""
","
","
","""event"",""trial"",""time""
""fullscreenenter"",""5"",""16810""
","
",809.2399999732152,NA,49,NA,NA,3000,1,NA,NA,images/tutgreenplanet.jpg,images/tutalien1,images/tutalien2,null,images/tutalien2,NA,NA,practice,null,NA,NA,NA,NA,sub145
d3-animate-choice,14,102662,0.0-14.0,FALSE,TRUE,TRUE,TRUE,"""event"",""trial"",""time""
""fullscreenenter"",""5"",""16810""
","
","
","""event"",""trial"",""time""
""fullscreenenter"",""5"",""16810""
","
",637.1000000508502,NA,48,NA,NA,3000,1,NA,NA,images/tutgreenplanet.jpg,images/tutalien1,images/tutalien2,null,images/tutalien1,NA,NA,practice,null,NA,NA,NA,NA,sub145
d3-instructions,15,110783,0.0-15.0,FALSE,TRUE,TRUE,TRUE,"""event"",""trial"",""time""
""fullscreenenter"",""5"",""16810""
","
","
","""event"",""trial"",""time""
""fullscreenenter"",""5"",""16810""
","
",NA,NA,NA,NA,NA,NA,NA,NA,NA,NA,NA,NA,NA,NA,NA,NA,NA,NA,NA,NA,NA,NA,sub145
d3-instructions,16,118303,0.0-16.0,FALSE,TRUE,TRUE,TRUE,"""event"",""trial"",""time""
""fullscreenenter"",""5"",""16810""
","
","
","""event"",""trial"",""time""
""fullscreenenter"",""5"",""16810""
","
",NA,NA,NA,NA,NA,NA,NA,NA,NA,NA,NA,NA,NA,NA,NA,NA,NA,NA,NA,NA,NA,NA,sub145
d3-instructions,17,128131,0.0-17.0,FALSE,TRUE,TRUE,TRUE,"""event"",""trial"",""time""
""fullscreenenter"",""5"",""16810""
","
","
","""event"",""trial"",""time""
""fullscreenenter"",""5"",""16810""
","
",NA,NA,NA,NA,NA,NA,NA,NA,NA,NA,NA,NA,NA,NA,NA,NA,NA,NA,NA,NA,NA,NA,sub145
d3-instructions,18,141404,0.0-18.0,FALSE,TRUE,TRUE,TRUE,"""event"",""trial"",""time""
""fullscreenenter"",""5"",""16810""
","
","
","""event"",""trial"",""time""
""fullscreenenter"",""5"",""16810""
","
",NA,NA,NA,NA,NA,NA,NA,NA,NA,NA,NA,NA,NA,NA,NA,NA,NA,NA,NA,NA,NA,NA,sub145
d3-instructions,19,159880,0.0-19.0,FALSE,TRUE,TRUE,TRUE,"""event"",""trial"",""time""
""fullscreenenter"",""5"",""16810""
","
","
","""event"",""trial"",""time""
""fullscreenenter"",""5"",""16810""
","
",NA,NA,NA,NA,NA,NA,NA,NA,NA,NA,NA,NA,NA,NA,NA,NA,NA,NA,NA,NA,NA,NA,sub145
d3-animate-choice,20,164234,0.0-20.0,FALSE,TRUE,TRUE,TRUE,"""event"",""trial"",""time""
""fullscreenenter"",""5"",""16810""
","
","
","""event"",""trial"",""time""
""fullscreenenter"",""5"",""16810""
","
",2349.7849999694154,NA,49,NA,NA,3000,1,NA,NA,images/tutyellowplanet.jpg,null,images/tutalien3,null,images/tutalien3,images/nothing.png,NA,practice,null,NA,NA,NA,NA,sub145
d3-animate-choice,21,166709,0.0-21.0,FALSE,TRUE,TRUE,TRUE,"""event"",""trial"",""time""
""fullscreenenter"",""5"",""16810""
","
","
","""event"",""trial"",""time""
""fullscreenenter"",""5"",""16810""
","
",469.21500004827976,NA,49,NA,NA,3000,1,NA,NA,images/tutyellowplanet.jpg,null,images/tutalien3,null,images/tutalien3,images/nothing.png,NA,practice,null,NA,NA,NA,NA,sub145
d3-animate-choice,22,169179,0.0-22.0,FALSE,TRUE,TRUE,TRUE,"""event"",""trial"",""time""
""fullscreenenter"",""5"",""16810""
","
","
","""event"",""trial"",""time""
""fullscreenenter"",""5"",""16810""
","
",465.14500002376735,NA,49,NA,NA,3000,1,NA,NA,images/tutyellowplanet.jpg,null,images/tutalien3,null,images/tutalien3,images/t.png,NA,practice,null,NA,NA,NA,NA,sub145
d3-animate-choice,23,171549,0.0-23.0,FALSE,TRUE,TRUE,TRUE,"""event"",""trial"",""time""
""fullscreenenter"",""5"",""16810""
","
","
","""event"",""trial"",""time""
""fullscreenenter"",""5"",""16810""
","
",364.18499995488673,NA,49,NA,NA,3000,1,NA,NA,images/tutyellowplanet.jpg,null,images/tutalien3,null,images/tutalien3,images/t.png,NA,practice,null,NA,NA,NA,NA,sub145
d3-animate-choice,24,173954,0.0-24.0,FALSE,TRUE,TRUE,TRUE,"""event"",""trial"",""time""
""fullscreenenter"",""5"",""16810""
","
","
","""event"",""trial"",""time""
""fullscreenenter"",""5"",""16810""
","
",401.85999998357147,NA,49,NA,NA,3000,1,NA,NA,images/tutyellowplanet.jpg,null,images/tutalien3,null,images/tutalien3,images/t.png,NA,practice,null,NA,NA,NA,NA,sub145
d3-animate-choice,25,176427,0.0-25.0,FALSE,TRUE,TRUE,TRUE,"""event"",""trial"",""time""
""fullscreenenter"",""5"",""16810""
","
","
","""event"",""trial"",""time""
""fullscreenenter"",""5"",""16810""
","
",468.3149999473244,NA,49,NA,NA,3000,1,NA,NA,images/tutyellowplanet.jpg,null,images/tutalien3,null,images/tutalien3,images/t.png,NA,practice,null,NA,NA,NA,NA,sub145
d3-animate-choice,26,178854,0.0-26.0,FALSE,TRUE,TRUE,TRUE,"""event"",""trial"",""time""
""fullscreenenter"",""5"",""16810""
","
","
","""event"",""trial"",""time""
""fullscreenenter"",""5"",""16810""
","
",419.3450000602752,NA,49,NA,NA,3000,1,NA,NA,images/tutyellowplanet.jpg,null,images/tutalien3,null,images/tutalien3,images/t.png,NA,practice,null,NA,NA,NA,NA,sub145
d3-animate-choice,27,181234,0.0-27.0,FALSE,TRUE,TRUE,TRUE,"""event"",""trial"",""time""
""fullscreenenter"",""5"",""16810""
","
","
","""event"",""trial"",""time""
""fullscreenenter"",""5"",""16810""
","
",376.67000002693385,NA,49,NA,NA,3000,1,NA,NA,images/tutyellowplanet.jpg,null,images/tutalien3,null,images/tutalien3,images/t.png,NA,practice,null,NA,NA,NA,NA,sub145
d3-animate-choice,28,183637,0.0-28.0,FALSE,TRUE,TRUE,TRUE,"""event"",""trial"",""time""
""fullscreenenter"",""5"",""16810""
","
","
","""event"",""trial"",""time""
""fullscreenenter"",""5"",""16810""
","
",397.60499994736165,NA,49,NA,NA,3000,1,NA,NA,images/tutyellowplanet.jpg,null,images/tutalien3,null,images/tutalien3,images/t.png,NA,practice,null,NA,NA,NA,NA,sub145
d3-animate-choice,29,185980,0.0-29.0,FALSE,TRUE,TRUE,TRUE,"""event"",""trial"",""time""
""fullscreenenter"",""5"",""16810""
","
","
","""event"",""trial"",""time""
""fullscreenenter"",""5"",""16810""
","
",337.50500006135553,NA,49,NA,NA,3000,1,NA,NA,images/tutyellowplanet.jpg,null,images/tutalien3,null,images/tutalien3,images/t.png,NA,practice,null,NA,NA,NA,NA,sub145
d3-instructions,30,191281,0.0-30.0,FALSE,TRUE,TRUE,TRUE,"""event"",""trial"",""time""
""fullscreenenter"",""5"",""16810""
","
","
","""event"",""trial"",""time""
""fullscreenenter"",""5"",""16810""
","
",NA,NA,NA,NA,NA,NA,NA,NA,NA,NA,NA,NA,NA,NA,NA,NA,NA,NA,NA,NA,NA,NA,sub145
d3-instructions,31,200034,0.0-31.0,FALSE,TRUE,TRUE,TRUE,"""event"",""trial"",""time""
""fullscreenenter"",""5"",""16810""
","
","
","""event"",""trial"",""time""
""fullscreenenter"",""5"",""16810""
","
",NA,NA,NA,NA,NA,NA,NA,NA,NA,NA,NA,NA,NA,NA,NA,NA,NA,NA,NA,NA,NA,NA,sub145
d3-instructions,32,206371,0.0-32.0,FALSE,TRUE,TRUE,TRUE,"""event"",""trial"",""time""
""fullscreenenter"",""5"",""16810""
","
","
","""event"",""trial"",""time""
""fullscreenenter"",""5"",""16810""
","
",NA,NA,NA,NA,NA,NA,NA,NA,NA,NA,NA,NA,NA,NA,NA,NA,NA,NA,NA,NA,NA,NA,sub145
d3-instructions,33,211352,0.0-33.0,FALSE,TRUE,TRUE,TRUE,"""event"",""trial"",""time""
""fullscreenenter"",""5"",""16810""
","
","
","""event"",""trial"",""time""
""fullscreenenter"",""5"",""16810""
","
",NA,NA,NA,NA,NA,NA,NA,NA,NA,NA,NA,NA,NA,NA,NA,NA,NA,NA,NA,NA,NA,NA,sub145
d3-animate-choice,34,214362,0.0-34.0,FALSE,TRUE,TRUE,TRUE,"""event"",""trial"",""time""
""fullscreenenter"",""5"",""16810""
","
","
","""event"",""trial"",""time""
""fullscreenenter"",""5"",""16810""
","
",1006.070000003092,NA,49,NA,NA,3000,1,NA,NA,images/tutgreenplanet.jpg,images/tutalien1,images/tutalien2,null,images/tutalien2,images/t.png,NA,practice,null,NA,NA,NA,NA,sub145
d3-animate-choice,35,216902,0.0-35.0,FALSE,TRUE,TRUE,TRUE,"""event"",""trial"",""time""
""fullscreenenter"",""5"",""16810""
","
","
","""event"",""trial"",""time""
""fullscreenenter"",""5"",""16810""
","
",532.6650000642985,NA,49,NA,NA,3000,1,NA,NA,images/tutgreenplanet.jpg,images/tutalien1,images/tutalien2,null,images/tutalien2,images/t.png,NA,practice,null,NA,NA,NA,NA,sub145
d3-animate-choice,36,219261,0.0-36.0,FALSE,TRUE,TRUE,TRUE,"""event"",""trial"",""time""
""fullscreenenter"",""5"",""16810""
","
","
","""event"",""trial"",""time""
""fullscreenenter"",""5"",""16810""
","
",352.7499999618158,NA,49,NA,NA,3000,1,NA,NA,images/tutgreenplanet.jpg,images/tutalien1,images/tutalien2,null,images/tutalien2,images/t.png,NA,practice,null,NA,NA,NA,NA,sub145
d3-animate-choice,37,221589,0.0-37.0,FALSE,TRUE,TRUE,TRUE,"""event"",""trial"",""time""
""fullscreenenter"",""5"",""16810""
","
","
","""event"",""trial"",""time""
""fullscreenenter"",""5"",""16810""
","
",321.25499995891005,NA,49,NA,NA,3000,1,NA,NA,images/tutgreenplanet.jpg,images/tutalien1,images/tutalien2,null,images/tutalien2,images/t.png,NA,practice,null,NA,NA,NA,NA,sub145
d3-animate-choice,38,223885,0.0-38.0,FALSE,TRUE,TRUE,TRUE,"""event"",""trial"",""time""
""fullscreenenter"",""5"",""16810""
","
","
","""event"",""trial"",""time""
""fullscreenenter"",""5"",""16810""
","
",290.3849999420345,NA,49,NA,NA,3000,1,NA,NA,images/tutgreenplanet.jpg,images/tutalien1,images/tutalien2,null,images/tutalien2,images/t.png,NA,practice,null,NA,NA,NA,NA,sub145
d3-animate-choice,39,226163,0.0-39.0,FALSE,TRUE,TRUE,TRUE,"""event"",""trial"",""time""
""fullscreenenter"",""5"",""16810""
","
","
","""event"",""trial"",""time""
""fullscreenenter"",""5"",""16810""
","
",273.0750000337139,NA,49,NA,NA,3000,1,NA,NA,images/tutgreenplanet.jpg,images/tutalien1,images/tutalien2,null,images/tutalien2,images/t.png,NA,practice,null,NA,NA,NA,NA,sub145
d3-animate-choice,40,228491,0.0-40.0,FALSE,TRUE,TRUE,TRUE,"""event"",""trial"",""time""
""fullscreenenter"",""5"",""16810""
","
","
","""event"",""trial"",""time""
""fullscreenenter"",""5"",""16810""
","
",322.98500009346753,NA,49,NA,NA,3000,1,NA,NA,images/tutgreenplanet.jpg,images/tutalien1,images/tutalien2,null,images/tutalien2,images/t.png,NA,practice,null,NA,NA,NA,NA,sub145
d3-animate-choice,41,230761,0.0-41.0,FALSE,TRUE,TRUE,TRUE,"""event"",""trial"",""time""
""fullscreenenter"",""5"",""16810""
","
","
","""event"",""trial"",""time""
""fullscreenenter"",""5"",""16810""
","
",266.9049999676645,NA,49,NA,NA,3000,1,NA,NA,images/tutgreenplanet.jpg,images/tutalien1,images/tutalien2,null,images/tutalien2,images/t.png,NA,practice,null,NA,NA,NA,NA,sub145
d3-animate-choice,42,233074,0.0-42.0,FALSE,TRUE,TRUE,TRUE,"""event"",""trial"",""time""
""fullscreenenter"",""5"",""16810""
","
","
","""event"",""trial"",""time""
""fullscreenenter"",""5"",""16810""
","
",309.64999995194376,NA,49,NA,NA,3000,1,NA,NA,images/tutgreenplanet.jpg,images/tutalien1,images/tutalien2,null,images/tutalien2,images/t.png,NA,practice,null,NA,NA,NA,NA,sub145
d3-animate-choice,43,235387,0.0-43.0,FALSE,TRUE,TRUE,TRUE,"""event"",""trial"",""time""
""fullscreenenter"",""5"",""16810""
","
","
","""event"",""trial"",""time""
""fullscreenenter"",""5"",""16810""
","
",309.0249999659136,NA,49,NA,NA,3000,1,NA,NA,images/tutgreenplanet.jpg,images/tutalien1,images/tutalien2,null,images/tutalien2,images/t.png,NA,practice,null,NA,NA,NA,NA,sub145
d3-instructions,44,243827,0.0-44.0,FALSE,TRUE,TRUE,TRUE,"""event"",""trial"",""time""
""fullscreenenter"",""5"",""16810""
","
","
","""event"",""trial"",""time""
""fullscreenenter"",""5"",""16810""
","
",NA,NA,NA,NA,NA,NA,NA,NA,NA,NA,NA,NA,NA,NA,NA,NA,NA,NA,NA,NA,NA,NA,sub145
d3-instructions,45,249058,0.0-45.0,FALSE,TRUE,TRUE,TRUE,"""event"",""trial"",""time""
""fullscreenenter"",""5"",""16810""
","
","
","""event"",""trial"",""time""
""fullscreenenter"",""5"",""16810""
","
",NA,NA,NA,NA,NA,NA,NA,NA,NA,NA,NA,NA,NA,NA,NA,NA,NA,NA,NA,NA,NA,NA,sub145
d3-instructions,46,254554,0.0-46.0,FALSE,TRUE,TRUE,TRUE,"""event"",""trial"",""time""
""fullscreenenter"",""5"",""16810""
","
","
","""event"",""trial"",""time""
""fullscreenenter"",""5"",""16810""
","
",NA,NA,NA,NA,NA,NA,NA,NA,NA,NA,NA,NA,NA,NA,NA,NA,NA,NA,NA,NA,NA,NA,sub145
d3-instructions,47,273305,0.0-47.0,FALSE,TRUE,TRUE,TRUE,"""event"",""trial"",""time""
""fullscreenenter"",""5"",""16810""
","
","
","""event"",""trial"",""time""
""fullscreenenter"",""5"",""16810""
","
",NA,NA,NA,NA,NA,NA,NA,NA,NA,NA,NA,NA,NA,NA,NA,NA,NA,NA,NA,NA,NA,NA,sub145
d3-instructions,48,279843,0.0-48.0,FALSE,TRUE,TRUE,TRUE,"""event"",""trial"",""time""
""fullscreenenter"",""5"",""16810""
","
","
","""event"",""trial"",""time""
""fullscreenenter"",""5"",""16810""
","
",NA,NA,NA,NA,NA,NA,NA,NA,NA,NA,NA,NA,NA,NA,NA,NA,NA,NA,NA,NA,NA,NA,sub145
d3-instructions,49,285597,0.0-49.0,FALSE,TRUE,TRUE,TRUE,"""event"",""trial"",""time""
""fullscreenenter"",""5"",""16810""
","
","
","""event"",""trial"",""time""
""fullscreenenter"",""5"",""16810""
","
",NA,NA,NA,NA,NA,NA,NA,NA,NA,NA,NA,NA,NA,NA,NA,NA,NA,NA,NA,NA,NA,NA,sub145
d3-instructions,50,293502,0.0-50.0,FALSE,TRUE,TRUE,TRUE,"""event"",""trial"",""time""
""fullscreenenter"",""5"",""16810""
","
","
","""event"",""trial"",""time""
""fullscreenenter"",""5"",""16810""
","
",NA,NA,NA,NA,NA,NA,NA,NA,NA,NA,NA,NA,NA,NA,NA,NA,NA,NA,NA,NA,NA,NA,sub145
d3-instructions,51,296734,0.0-51.0,FALSE,TRUE,TRUE,TRUE,"""event"",""trial"",""time""
""fullscreenenter"",""5"",""16810""
","
","
","""event"",""trial"",""time""
""fullscreenenter"",""5"",""16810""
","
",NA,NA,NA,NA,NA,NA,NA,NA,NA,NA,NA,NA,NA,NA,NA,NA,NA,NA,NA,NA,NA,NA,sub145
d3-instructions,52,299462,0.0-52.0,FALSE,TRUE,TRUE,TRUE,"""event"",""trial"",""time""
""fullscreenenter"",""5"",""16810""
","
","
","""event"",""trial"",""time""
""fullscreenenter"",""5"",""16810""
","
",NA,NA,NA,NA,NA,NA,NA,NA,NA,NA,NA,NA,NA,NA,NA,NA,NA,NA,NA,NA,NA,NA,sub145
d3-instructions,53,310303,0.0-53.0,FALSE,TRUE,TRUE,TRUE,"""event"",""trial"",""time""
""fullscreenenter"",""5"",""16810""
","
","
","""event"",""trial"",""time""
""fullscreenenter"",""5"",""16810""
","
",NA,NA,NA,NA,NA,NA,NA,NA,NA,NA,NA,NA,NA,NA,NA,NA,NA,NA,NA,NA,NA,NA,sub145
d3-instructions,54,321617,0.0-54.0,FALSE,TRUE,TRUE,TRUE,"""event"",""trial"",""time""
""fullscreenenter"",""5"",""16810""
","
","
","""event"",""trial"",""time""
""fullscreenenter"",""5"",""16810""
","
",NA,NA,NA,NA,NA,NA,NA,NA,NA,NA,NA,NA,NA,NA,NA,NA,NA,NA,NA,NA,NA,NA,sub145
d3-instructions,55,333958,0.0-55.0,FALSE,TRUE,TRUE,TRUE,"""event"",""trial"",""time""
""fullscreenenter"",""5"",""16810""
","
","
","""event"",""trial"",""time""
""fullscreenenter"",""5"",""16810""
","
",NA,NA,NA,NA,NA,NA,NA,NA,NA,NA,NA,NA,NA,NA,NA,NA,NA,NA,NA,NA,NA,NA,sub145
d3-instructions,56,348526,0.0-56.0,FALSE,TRUE,TRUE,TRUE,"""event"",""trial"",""time""
""fullscreenenter"",""5"",""16810""
","
","
","""event"",""trial"",""time""
""fullscreenenter"",""5"",""16810""
","
",NA,NA,NA,NA,NA,NA,NA,NA,NA,NA,NA,NA,NA,NA,NA,NA,NA,NA,NA,NA,NA,NA,sub145
d3-instructions,57,361211,0.0-57.0,FALSE,TRUE,TRUE,TRUE,"""event"",""trial"",""time""
""fullscreenenter"",""5"",""16810""
","
","
","""event"",""trial"",""time""
""fullscreenenter"",""5"",""16810""
","
",NA,NA,NA,NA,NA,NA,NA,NA,NA,NA,NA,NA,NA,NA,NA,NA,NA,NA,NA,NA,NA,NA,sub145
d3-instructions,58,372172,0.0-58.0,FALSE,TRUE,TRUE,TRUE,"""event"",""trial"",""time""
""fullscreenenter"",""5"",""16810""
","
","
","""event"",""trial"",""time""
""fullscreenenter"",""5"",""16810""
","
",NA,NA,NA,NA,NA,NA,NA,NA,NA,NA,NA,NA,NA,NA,NA,NA,NA,NA,NA,NA,NA,NA,sub145
d3-instructions,59,377828,0.0-59.0,FALSE,TRUE,TRUE,TRUE,"""event"",""trial"",""time""
""fullscreenenter"",""5"",""16810""
","
","
","""event"",""trial"",""time""
""fullscreenenter"",""5"",""16810""
","
",NA,NA,NA,NA,NA,NA,NA,NA,NA,NA,NA,NA,NA,NA,NA,NA,NA,NA,NA,NA,NA,NA,sub145
d3-instructions,60,384317,0.0-60.0,FALSE,TRUE,TRUE,TRUE,"""event"",""trial"",""time""
""fullscreenenter"",""5"",""16810""
","
","
","""event"",""trial"",""time""
""fullscreenenter"",""5"",""16810""
","
",NA,NA,NA,NA,NA,NA,NA,NA,NA,NA,NA,NA,NA,NA,NA,NA,NA,NA,NA,NA,NA,NA,sub145
d3-animate-choice,61,387341,0.0-61.0-0.0,FALSE,TRUE,TRUE,TRUE,"""event"",""trial"",""time""
""fullscreenenter"",""5"",""16810""
","
","
","""event"",""trial"",""time""
""fullscreenenter"",""5"",""16810""
","
",1020.6899999175221,NA,49,NA,NA,3000,1,NA,NA,images/earth.jpg,images/tutrocket2,images/tutrocket1,null,images/tutrocket1,NA,1,practice,null,1,NA,NA,NA,sub145
d3-animate-choice,62,390511,0.0-61.0-1.0,FALSE,TRUE,TRUE,TRUE,"""event"",""trial"",""time""
""fullscreenenter"",""5"",""16810""
","
","
","""event"",""trial"",""time""
""fullscreenenter"",""5"",""16810""
","
",1163.0349999759346,NA,48,NA,NA,3000,1,NA,NA,images/tutgreenplanet.jpg,images/tutalien2,images/tutalien1,images/tutrocket1,images/tutalien2,images/nothing.png,2,practice,true,2,common,0,2020-06-24T22:08:24Z,sub145
two-step-fixation,63,391519,0.0-61.0-2.0,FALSE,TRUE,TRUE,TRUE,"""event"",""trial"",""time""
""fullscreenenter"",""5"",""16810""
","
","
","""event"",""trial"",""time""
""fullscreenenter"",""5"",""16810""
","
",NA,images/earth.jpg,NA,NA,NA,NA,NA,NA,NA,NA,NA,NA,NA,NA,NA,fixation,NA,NA,NA,NA,NA,NA,sub145
d3-animate-choice,64,394531,0.0-61.0-0.1,FALSE,TRUE,TRUE,TRUE,"""event"",""trial"",""time""
""fullscreenenter"",""5"",""16810""
","
","
","""event"",""trial"",""time""
""fullscreenenter"",""5"",""16810""
","
",1008.1500000087544,NA,48,NA,NA,3000,1,NA,NA,images/earth.jpg,images/tutrocket2,images/tutrocket1,null,images/tutrocket2,NA,1,practice,null,2,NA,NA,NA,sub145
d3-animate-choice,65,397605,0.0-61.0-1.1,FALSE,TRUE,TRUE,TRUE,"""event"",""trial"",""time""
""fullscreenenter"",""5"",""16810""
","
","
","""event"",""trial"",""time""
""fullscreenenter"",""5"",""16810""
","
",1067.9099999833852,NA,48,NA,NA,3000,1,NA,NA,images/tutyellowplanet.jpg,images/tutalien4,images/tutalien3,images/tutrocket2,images/tutalien4,images/t.png,2,practice,true,2,common,1,2020-06-24T22:08:31Z,sub145
two-step-fixation,66,398609,0.0-61.0-2.1,FALSE,TRUE,TRUE,TRUE,"""event"",""trial"",""time""
""fullscreenenter"",""5"",""16810""
","
","
","""event"",""trial"",""time""
""fullscreenenter"",""5"",""16810""
","
",NA,images/earth.jpg,NA,NA,NA,NA,NA,NA,NA,NA,NA,NA,NA,NA,NA,fixation,NA,NA,NA,NA,NA,NA,sub145
d3-animate-choice,67,401555,0.0-61.0-0.2,FALSE,TRUE,TRUE,TRUE,"""event"",""trial"",""time""
""fullscreenenter"",""5"",""16810""
","
","
","""event"",""trial"",""time""
""fullscreenenter"",""5"",""16810""
","
",942.3099999548867,NA,49,NA,NA,3000,1,NA,NA,images/earth.jpg,images/tutrocket2,images/tutrocket1,null,images/tutrocket1,NA,1,practice,null,1,NA,NA,NA,sub145
d3-animate-choice,68,404516,0.0-61.0-1.2,FALSE,TRUE,TRUE,TRUE,"""event"",""trial"",""time""
""fullscreenenter"",""5"",""16810""
","
","
","""event"",""trial"",""time""
""fullscreenenter"",""5"",""16810""
","
",954.9550000810996,NA,49,NA,NA,3000,1,NA,NA,images/tutyellowplanet.jpg,images/tutalien4,images/tutalien3,images/tutrocket1,images/tutalien3,images/nothing.png,2,practice,false,1,rare,0,2020-06-24T22:08:38Z,sub145
two-step-fixation,69,405523,0.0-61.0-2.2,FALSE,TRUE,TRUE,TRUE,"""event"",""trial"",""time""
""fullscreenenter"",""5"",""16810""
","
","
","""event"",""trial"",""time""
""fullscreenenter"",""5"",""16810""
","
",NA,images/earth.jpg,NA,NA,NA,NA,NA,NA,NA,NA,NA,NA,NA,NA,NA,fixation,NA,NA,NA,NA,NA,NA,sub145
d3-animate-choice,70,408759,0.0-61.0-0.3,FALSE,TRUE,TRUE,TRUE,"""event"",""trial"",""time""
""fullscreenenter"",""5"",""16810""
","
","
","""event"",""trial"",""time""
""fullscreenenter"",""5"",""16810""
","
",1231.0549999820068,NA,49,NA,NA,3000,1,NA,NA,images/earth.jpg,images/tutrocket2,images/tutrocket1,null,images/tutrocket1,NA,1,practice,null,1,NA,NA,NA,sub145
d3-animate-choice,71,412173,0.0-61.0-1.3,FALSE,TRUE,TRUE,TRUE,"""event"",""trial"",""time""
""fullscreenenter"",""5"",""16810""
","
","
","""event"",""trial"",""time""
""fullscreenenter"",""5"",""16810""
","
",1407.3949999874458,NA,49,NA,NA,3000,1,NA,NA,images/tutgreenplanet.jpg,images/tutalien2,images/tutalien1,images/tutrocket1,images/tutalien1,images/t.png,2,practice,true,1,common,1,2020-06-24T22:08:46Z,sub145
two-step-fixation,72,413179,0.0-61.0-2.3,FALSE,TRUE,TRUE,TRUE,"""event"",""trial"",""time""
""fullscreenenter"",""5"",""16810""
","
","
","""event"",""trial"",""time""
""fullscreenenter"",""5"",""16810""
","
",NA,images/earth.jpg,NA,NA,NA,NA,NA,NA,NA,NA,NA,NA,NA,NA,NA,fixation,NA,NA,NA,NA,NA,NA,sub145
d3-animate-choice,73,415874,0.0-61.0-0.4,FALSE,TRUE,TRUE,TRUE,"""event"",""trial"",""time""
""fullscreenenter"",""5"",""16810""
","
","
","""event"",""trial"",""time""
""fullscreenenter"",""5"",""16810""
","
",689.1900000628084,NA,49,NA,NA,3000,1,NA,NA,images/earth.jpg,images/tutrocket2,images/tutrocket1,null,images/tutrocket1,NA,1,practice,null,1,NA,NA,NA,sub145
d3-animate-choice,74,419453,0.0-61.0-1.4,FALSE,TRUE,TRUE,TRUE,"""event"",""trial"",""time""
""fullscreenenter"",""5"",""16810""
","
","
","""event"",""trial"",""time""
""fullscreenenter"",""5"",""16810""
","
",1571.4099999750033,NA,49,NA,NA,3000,1,NA,NA,images/tutyellowplanet.jpg,images/tutalien4,images/tutalien3,images/tutrocket1,images/tutalien3,images/nothing.png,2,practice,false,1,rare,0,2020-06-24T22:08:53Z,sub145
two-step-fixation,75,420459,0.0-61.0-2.4,FALSE,TRUE,TRUE,TRUE,"""event"",""trial"",""time""
""fullscreenenter"",""5"",""16810""
","
","
","""event"",""trial"",""time""
""fullscreenenter"",""5"",""16810""
","
",NA,images/earth.jpg,NA,NA,NA,NA,NA,NA,NA,NA,NA,NA,NA,NA,NA,fixation,NA,NA,NA,NA,NA,NA,sub145
d3-animate-choice,76,423135,0.0-61.0-0.5,FALSE,TRUE,TRUE,TRUE,"""event"",""trial"",""time""
""fullscreenenter"",""5"",""16810""
","
","
","""event"",""trial"",""time""
""fullscreenenter"",""5"",""16810""
","
",669.3449999438599,NA,49,NA,NA,3000,1,NA,NA,images/earth.jpg,images/tutrocket2,images/tutrocket1,null,images/tutrocket1,NA,1,practice,null,1,NA,NA,NA,sub145
d3-animate-choice,77,425869,0.0-61.0-1.5,FALSE,TRUE,TRUE,TRUE,"""event"",""trial"",""time""
""fullscreenenter"",""5"",""16810""
","
","
","""event"",""trial"",""time""
""fullscreenenter"",""5"",""16810""
","
",729.8150000860915,NA,48,NA,NA,3000,1,NA,NA,images/tutyellowplanet.jpg,images/tutalien4,images/tutalien3,images/tutrocket1,images/tutalien4,images/nothing.png,2,practice,false,2,rare,0,2020-06-24T22:09:00Z,sub145
two-step-fixation,78,426873,0.0-61.0-2.5,FALSE,TRUE,TRUE,TRUE,"""event"",""trial"",""time""
""fullscreenenter"",""5"",""16810""
","
","
","""event"",""trial"",""time""
""fullscreenenter"",""5"",""16810""
","
",NA,images/earth.jpg,NA,NA,NA,NA,NA,NA,NA,NA,NA,NA,NA,NA,NA,fixation,NA,NA,NA,NA,NA,NA,sub145
d3-animate-choice,79,429636,0.0-61.0-0.6,FALSE,TRUE,TRUE,TRUE,"""event"",""trial"",""time""
""fullscreenenter"",""5"",""16810""
","
","
","""event"",""trial"",""time""
""fullscreenenter"",""5"",""16810""
","
",754.6999999321997,NA,49,NA,NA,3000,1,NA,NA,images/earth.jpg,images/tutrocket2,images/tutrocket1,null,images/tutrocket1,NA,1,practice,null,1,NA,NA,NA,sub145
d3-animate-choice,80,432771,0.0-61.0-1.6,FALSE,TRUE,TRUE,TRUE,"""event"",""trial"",""time""
""fullscreenenter"",""5"",""16810""
","
","
","""event"",""trial"",""time""
""fullscreenenter"",""5"",""16810""
","
",1126.8750000745058,NA,49,NA,NA,3000,1,NA,NA,images/tutgreenplanet.jpg,images/tutalien2,images/tutalien1,images/tutrocket1,images/tutalien1,images/t.png,2,practice,true,1,common,1,2020-06-24T22:09:07Z,sub145
two-step-fixation,81,433778,0.0-61.0-2.6,FALSE,TRUE,TRUE,TRUE,"""event"",""trial"",""time""
""fullscreenenter"",""5"",""16810""
","
","
","""event"",""trial"",""time""
""fullscreenenter"",""5"",""16810""
","
",NA,images/earth.jpg,NA,NA,NA,NA,NA,NA,NA,NA,NA,NA,NA,NA,NA,fixation,NA,NA,NA,NA,NA,NA,sub145
d3-animate-choice,82,436468,0.0-61.0-0.7,FALSE,TRUE,TRUE,TRUE,"""event"",""trial"",""time""
""fullscreenenter"",""5"",""16810""
","
","
","""event"",""trial"",""time""
""fullscreenenter"",""5"",""16810""
","
",683.7999999988824,NA,48,NA,NA,3000,1,NA,NA,images/earth.jpg,images/tutrocket2,images/tutrocket1,null,images/tutrocket2,NA,1,practice,null,2,NA,NA,NA,sub145
d3-animate-choice,83,439630,0.0-61.0-1.7,FALSE,TRUE,TRUE,TRUE,"""event"",""trial"",""time""
""fullscreenenter"",""5"",""16810""
","
","
","""event"",""trial"",""time""
""fullscreenenter"",""5"",""16810""
","
",1153.344999998808,NA,48,NA,NA,3000,1,NA,NA,images/tutyellowplanet.jpg,images/tutalien4,images/tutalien3,images/tutrocket2,images/tutalien4,images/nothing.png,2,practice,true,2,common,0,2020-06-24T22:09:13Z,sub145
two-step-fixation,84,440637,0.0-61.0-2.7,FALSE,TRUE,TRUE,TRUE,"""event"",""trial"",""time""
""fullscreenenter"",""5"",""16810""
","
","
","""event"",""trial"",""time""
""fullscreenenter"",""5"",""16810""
","
",NA,images/earth.jpg,NA,NA,NA,NA,NA,NA,NA,NA,NA,NA,NA,NA,NA,fixation,NA,NA,NA,NA,NA,NA,sub145
d3-animate-choice,85,443060,0.0-61.0-0.8,FALSE,TRUE,TRUE,TRUE,"""event"",""trial"",""time""
""fullscreenenter"",""5"",""16810""
","
","
","""event"",""trial"",""time""
""fullscreenenter"",""5"",""16810""
","
",418.4100000420585,NA,48,NA,NA,3000,1,NA,NA,images/earth.jpg,images/tutrocket2,images/tutrocket1,null,images/tutrocket2,NA,1,practice,null,2,NA,NA,NA,sub145
d3-animate-choice,86,446199,0.0-61.0-1.8,FALSE,TRUE,TRUE,TRUE,"""event"",""trial"",""time""
""fullscreenenter"",""5"",""16810""
","
","
","""event"",""trial"",""time""
""fullscreenenter"",""5"",""16810""
","
",1131.4949999796227,NA,49,NA,NA,3000,1,NA,NA,images/tutgreenplanet.jpg,images/tutalien2,images/tutalien1,images/tutrocket2,images/tutalien1,images/nothing.png,2,practice,false,1,rare,0,2020-06-24T22:09:20Z,sub145
two-step-fixation,87,447203,0.0-61.0-2.8,FALSE,TRUE,TRUE,TRUE,"""event"",""trial"",""time""
""fullscreenenter"",""5"",""16810""
","
","
","""event"",""trial"",""time""
""fullscreenenter"",""5"",""16810""
","
",NA,images/earth.jpg,NA,NA,NA,NA,NA,NA,NA,NA,NA,NA,NA,NA,NA,fixation,NA,NA,NA,NA,NA,NA,sub145
d3-animate-choice,88,449622,0.0-61.0-0.9,FALSE,TRUE,TRUE,TRUE,"""event"",""trial"",""time""
""fullscreenenter"",""5"",""16810""
","
","
","""event"",""trial"",""time""
""fullscreenenter"",""5"",""16810""
","
",414.25999999046326,NA,48,NA,NA,3000,1,NA,NA,images/earth.jpg,images/tutrocket2,images/tutrocket1,null,images/tutrocket2,NA,1,practice,null,2,NA,NA,NA,sub145
d3-animate-choice,89,452574,0.0-61.0-1.9,FALSE,TRUE,TRUE,TRUE,"""event"",""trial"",""time""
""fullscreenenter"",""5"",""16810""
","
","
","""event"",""trial"",""time""
""fullscreenenter"",""5"",""16810""
","
",948.534999974072,NA,49,NA,NA,3000,1,NA,NA,images/tutyellowplanet.jpg,images/tutalien4,images/tutalien3,images/tutrocket2,images/tutalien3,images/t.png,2,practice,true,1,common,1,2020-06-24T22:09:26Z,sub145
two-step-fixation,90,453579,0.0-61.0-2.9,FALSE,TRUE,TRUE,TRUE,"""event"",""trial"",""time""
""fullscreenenter"",""5"",""16810""
","
","
","""event"",""trial"",""time""
""fullscreenenter"",""5"",""16810""
","
",NA,images/earth.jpg,NA,NA,NA,NA,NA,NA,NA,NA,NA,NA,NA,NA,NA,fixation,NA,NA,NA,NA,NA,NA,sub145
d3-animate-choice,91,456258,0.0-61.0-0.10,FALSE,TRUE,TRUE,TRUE,"""event"",""trial"",""time""
""fullscreenenter"",""5"",""16810""
","
","
","""event"",""trial"",""time""
""fullscreenenter"",""5"",""16810""
","
",676.5649999724701,NA,49,NA,NA,3000,1,NA,NA,images/earth.jpg,images/tutrocket2,images/tutrocket1,null,images/tutrocket1,NA,1,practice,null,1,NA,NA,NA,sub145
d3-animate-choice,92,458753,0.0-61.0-1.10,FALSE,TRUE,TRUE,TRUE,"""event"",""trial"",""time""
""fullscreenenter"",""5"",""16810""
","
","
","""event"",""trial"",""time""
""fullscreenenter"",""5"",""16810""
","
",490.9749999642372,NA,49,NA,NA,3000,1,NA,NA,images/tutgreenplanet.jpg,images/tutalien2,images/tutalien1,images/tutrocket1,images/tutalien1,images/nothing.png,2,practice,true,1,common,0,2020-06-24T22:09:33Z,sub145
two-step-fixation,93,459759,0.0-61.0-2.10,FALSE,TRUE,TRUE,TRUE,"""event"",""trial"",""time""
""fullscreenenter"",""5"",""16810""
","
","
","""event"",""trial"",""time""
""fullscreenenter"",""5"",""16810""
","
",NA,images/earth.jpg,NA,NA,NA,NA,NA,NA,NA,NA,NA,NA,NA,NA,NA,fixation,NA,NA,NA,NA,NA,NA,sub145
d3-animate-choice,94,462496,0.0-61.0-0.11,FALSE,TRUE,TRUE,TRUE,"""event"",""trial"",""time""
""fullscreenenter"",""5"",""16810""
","
","
","""event"",""trial"",""time""
""fullscreenenter"",""5"",""16810""
","
",733.3249999210238,NA,49,NA,NA,3000,1,NA,NA,images/earth.jpg,images/tutrocket2,images/tutrocket1,null,images/tutrocket1,NA,1,practice,null,1,NA,NA,NA,sub145
d3-animate-choice,95,465120,0.0-61.0-1.11,FALSE,TRUE,TRUE,TRUE,"""event"",""trial"",""time""
""fullscreenenter"",""5"",""16810""
","
","
","""event"",""trial"",""time""
""fullscreenenter"",""5"",""16810""
","
",620.5099999206141,NA,49,NA,NA,3000,1,NA,NA,images/tutgreenplanet.jpg,images/tutalien2,images/tutalien1,images/tutrocket1,images/tutalien1,images/nothing.png,2,practice,true,1,common,0,2020-06-24T22:09:39Z,sub145
two-step-fixation,96,466122,0.0-61.0-2.11,FALSE,TRUE,TRUE,TRUE,"""event"",""trial"",""time""
""fullscreenenter"",""5"",""16810""
","
","
","""event"",""trial"",""time""
""fullscreenenter"",""5"",""16810""
","
",NA,images/earth.jpg,NA,NA,NA,NA,NA,NA,NA,NA,NA,NA,NA,NA,NA,fixation,NA,NA,NA,NA,NA,NA,sub145
d3-animate-choice,97,468693,0.0-61.0-0.12,FALSE,TRUE,TRUE,TRUE,"""event"",""trial"",""time""
""fullscreenenter"",""5"",""16810""
","
","
","""event"",""trial"",""time""
""fullscreenenter"",""5"",""16810""
","
",568.0549999233335,NA,48,NA,NA,3000,1,NA,NA,images/earth.jpg,images/tutrocket2,images/tutrocket1,null,images/tutrocket2,NA,1,practice,null,2,NA,NA,NA,sub145
d3-animate-choice,98,471847,0.0-61.0-1.12,FALSE,TRUE,TRUE,TRUE,"""event"",""trial"",""time""
""fullscreenenter"",""5"",""16810""
","
","
","""event"",""trial"",""time""
""fullscreenenter"",""5"",""16810""
","
",1147.0099999569356,NA,49,NA,NA,3000,1,NA,NA,images/tutgreenplanet.jpg,images/tutalien2,images/tutalien1,images/tutrocket2,images/tutalien1,images/nothing.png,2,practice,false,1,rare,0,2020-06-24T22:09:46Z,sub145
two-step-fixation,99,472850,0.0-61.0-2.12,FALSE,TRUE,TRUE,TRUE,"""event"",""trial"",""time""
""fullscreenenter"",""5"",""16810""
","
","
","""event"",""trial"",""time""
""fullscreenenter"",""5"",""16810""
","
",NA,images/earth.jpg,NA,NA,NA,NA,NA,NA,NA,NA,NA,NA,NA,NA,NA,fixation,NA,NA,NA,NA,NA,NA,sub145
d3-animate-choice,100,475384,0.0-61.0-0.13,FALSE,TRUE,TRUE,TRUE,"""event"",""trial"",""time""
""fullscreenenter"",""5"",""16810""
","
","
","""event"",""trial"",""time""
""fullscreenenter"",""5"",""16810""
","
",527.1799999754876,NA,48,NA,NA,3000,1,NA,NA,images/earth.jpg,images/tutrocket2,images/tutrocket1,null,images/tutrocket2,NA,1,practice,null,2,NA,NA,NA,sub145
d3-animate-choice,101,479106,0.0-61.0-1.13,FALSE,TRUE,TRUE,TRUE,"""event"",""trial"",""time""
""fullscreenenter"",""5"",""16810""
","
","
","""event"",""trial"",""time""
""fullscreenenter"",""5"",""16810""
","
",1718.7200000043958,NA,49,NA,NA,3000,1,NA,NA,images/tutyellowplanet.jpg,images/tutalien4,images/tutalien3,images/tutrocket2,images/tutalien3,images/nothing.png,2,practice,true,1,common,0,2020-06-24T22:09:53Z,sub145
two-step-fixation,102,480112,0.0-61.0-2.13,FALSE,TRUE,TRUE,TRUE,"""event"",""trial"",""time""
""fullscreenenter"",""5"",""16810""
","
","
","""event"",""trial"",""time""
""fullscreenenter"",""5"",""16810""
","
",NA,images/earth.jpg,NA,NA,NA,NA,NA,NA,NA,NA,NA,NA,NA,NA,NA,fixation,NA,NA,NA,NA,NA,NA,sub145
d3-animate-choice,103,482783,0.0-61.0-0.14,FALSE,TRUE,TRUE,TRUE,"""event"",""trial"",""time""
""fullscreenenter"",""5"",""16810""
","
","
","""event"",""trial"",""time""
""fullscreenenter"",""5"",""16810""
","
",662.5099999364465,NA,48,NA,NA,3000,1,NA,NA,images/earth.jpg,images/tutrocket2,images/tutrocket1,null,images/tutrocket2,NA,1,practice,null,2,NA,NA,NA,sub145
d3-animate-choice,104,486440,0.0-61.0-1.14,FALSE,TRUE,TRUE,TRUE,"""event"",""trial"",""time""
""fullscreenenter"",""5"",""16810""
","
","
","""event"",""trial"",""time""
""fullscreenenter"",""5"",""16810""
","
",1651.9250000128523,NA,48,NA,NA,3000,1,NA,NA,images/tutyellowplanet.jpg,images/tutalien4,images/tutalien3,images/tutrocket2,images/tutalien4,images/t.png,2,practice,true,2,common,1,2020-06-24T22:10:00Z,sub145
two-step-fixation,105,487447,0.0-61.0-2.14,FALSE,TRUE,TRUE,TRUE,"""event"",""trial"",""time""
""fullscreenenter"",""5"",""16810""
","
","
","""event"",""trial"",""time""
""fullscreenenter"",""5"",""16810""
","
",NA,images/earth.jpg,NA,NA,NA,NA,NA,NA,NA,NA,NA,NA,NA,NA,NA,fixation,NA,NA,NA,NA,NA,NA,sub145
d3-animate-choice,106,489962,0.0-61.0-0.15,FALSE,TRUE,TRUE,TRUE,"""event"",""trial"",""time""
""fullscreenenter"",""5"",""16810""
","
","
","""event"",""trial"",""time""
""fullscreenenter"",""5"",""16810""
","
",510.7799998950213,NA,48,NA,NA,3000,1,NA,NA,images/earth.jpg,images/tutrocket2,images/tutrocket1,null,images/tutrocket2,NA,1,practice,null,2,NA,NA,NA,sub145
d3-animate-choice,107,492505,0.0-61.0-1.15,FALSE,TRUE,TRUE,TRUE,"""event"",""trial"",""time""
""fullscreenenter"",""5"",""16810""
","
","
","""event"",""trial"",""time""
""fullscreenenter"",""5"",""16810""
","
",538.5000000242144,NA,48,NA,NA,3000,1,NA,NA,images/tutyellowplanet.jpg,images/tutalien4,images/tutalien3,images/tutrocket2,images/tutalien4,images/t.png,2,practice,true,2,common,1,2020-06-24T22:10:06Z,sub145
two-step-fixation,108,493511,0.0-61.0-2.15,FALSE,TRUE,TRUE,TRUE,"""event"",""trial"",""time""
""fullscreenenter"",""5"",""16810""
","
","
","""event"",""trial"",""time""
""fullscreenenter"",""5"",""16810""
","
",NA,images/earth.jpg,NA,NA,NA,NA,NA,NA,NA,NA,NA,NA,NA,NA,NA,fixation,NA,NA,NA,NA,NA,NA,sub145
d3-animate-choice,109,495982,0.0-61.0-0.16,FALSE,TRUE,TRUE,TRUE,"""event"",""trial"",""time""
""fullscreenenter"",""5"",""16810""
","
","
","""event"",""trial"",""time""
""fullscreenenter"",""5"",""16810""
","
",467.0599999371916,NA,48,NA,NA,3000,1,NA,NA,images/earth.jpg,images/tutrocket2,images/tutrocket1,null,images/tutrocket2,NA,1,practice,null,2,NA,NA,NA,sub145
d3-animate-choice,110,498735,0.0-61.0-1.16,FALSE,TRUE,TRUE,TRUE,"""event"",""trial"",""time""
""fullscreenenter"",""5"",""16810""
","
","
","""event"",""trial"",""time""
""fullscreenenter"",""5"",""16810""
","
",748.3200000133365,NA,49,NA,NA,3000,1,NA,NA,images/tutgreenplanet.jpg,images/tutalien2,images/tutalien1,images/tutrocket2,images/tutalien1,images/nothing.png,2,practice,false,1,rare,0,2020-06-24T22:10:13Z,sub145
two-step-fixation,111,499739,0.0-61.0-2.16,FALSE,TRUE,TRUE,TRUE,"""event"",""trial"",""time""
""fullscreenenter"",""5"",""16810""
","
","
","""event"",""trial"",""time""
""fullscreenenter"",""5"",""16810""
","
",NA,images/earth.jpg,NA,NA,NA,NA,NA,NA,NA,NA,NA,NA,NA,NA,NA,fixation,NA,NA,NA,NA,NA,NA,sub145
d3-animate-choice,112,502073,0.0-61.0-0.17,FALSE,TRUE,TRUE,TRUE,"""event"",""trial"",""time""
""fullscreenenter"",""5"",""16810""
","
","
","""event"",""trial"",""time""
""fullscreenenter"",""5"",""16810""
","
",328.31499993335456,NA,48,NA,NA,3000,1,NA,NA,images/earth.jpg,images/tutrocket2,images/tutrocket1,null,images/tutrocket2,NA,1,practice,null,2,NA,NA,NA,sub145
d3-animate-choice,113,504687,0.0-61.0-1.17,FALSE,TRUE,TRUE,TRUE,"""event"",""trial"",""time""
""fullscreenenter"",""5"",""16810""
","
","
","""event"",""trial"",""time""
""fullscreenenter"",""5"",""16810""
","
",609.5750000094995,NA,48,NA,NA,3000,1,NA,NA,images/tutgreenplanet.jpg,images/tutalien2,images/tutalien1,images/tutrocket2,images/tutalien2,images/t.png,2,practice,false,2,rare,1,2020-06-24T22:10:19Z,sub145
two-step-fixation,114,505690,0.0-61.0-2.17,FALSE,TRUE,TRUE,TRUE,"""event"",""trial"",""time""
""fullscreenenter"",""5"",""16810""
","
","
","""event"",""trial"",""time""
""fullscreenenter"",""5"",""16810""
","
",NA,images/earth.jpg,NA,NA,NA,NA,NA,NA,NA,NA,NA,NA,NA,NA,NA,fixation,NA,NA,NA,NA,NA,NA,sub145
d3-animate-choice,115,508066,0.0-61.0-0.18,FALSE,TRUE,TRUE,TRUE,"""event"",""trial"",""time""
""fullscreenenter"",""5"",""16810""
","
","
","""event"",""trial"",""time""
""fullscreenenter"",""5"",""16810""
","
",371.98000005446374,NA,48,NA,NA,3000,1,NA,NA,images/earth.jpg,images/tutrocket2,images/tutrocket1,null,images/tutrocket2,NA,1,practice,null,2,NA,NA,NA,sub145
d3-animate-choice,116,510685,0.0-61.0-1.18,FALSE,TRUE,TRUE,TRUE,"""event"",""trial"",""time""
""fullscreenenter"",""5"",""16810""
","
","
","""event"",""trial"",""time""
""fullscreenenter"",""5"",""16810""
","
",611.7899999953806,NA,48,NA,NA,3000,1,NA,NA,images/tutyellowplanet.jpg,images/tutalien4,images/tutalien3,images/tutrocket2,images/tutalien4,images/nothing.png,2,practice,true,2,common,0,2020-06-24T22:10:25Z,sub145
two-step-fixation,117,511689,0.0-61.0-2.18,FALSE,TRUE,TRUE,TRUE,"""event"",""trial"",""time""
""fullscreenenter"",""5"",""16810""
","
","
","""event"",""trial"",""time""
""fullscreenenter"",""5"",""16810""
","
",NA,images/earth.jpg,NA,NA,NA,NA,NA,NA,NA,NA,NA,NA,NA,NA,NA,fixation,NA,NA,NA,NA,NA,NA,sub145
d3-animate-choice,118,514290,0.0-61.0-0.19,FALSE,TRUE,TRUE,TRUE,"""event"",""trial"",""time""
""fullscreenenter"",""5"",""16810""
","
","
","""event"",""trial"",""time""
""fullscreenenter"",""5"",""16810""
","
",597.0250000245869,NA,48,NA,NA,3000,1,NA,NA,images/earth.jpg,images/tutrocket2,images/tutrocket1,null,images/tutrocket2,NA,1,practice,null,2,NA,NA,NA,sub145
d3-animate-choice,119,517193,0.0-61.0-1.19,FALSE,TRUE,TRUE,TRUE,"""event"",""trial"",""time""
""fullscreenenter"",""5"",""16810""
","
","
","""event"",""trial"",""time""
""fullscreenenter"",""5"",""16810""
","
",899.5600000489503,NA,48,NA,NA,3000,1,NA,NA,images/tutgreenplanet.jpg,images/tutalien2,images/tutalien1,images/tutrocket2,images/tutalien2,images/t.png,2,practice,false,2,rare,1,2020-06-24T22:10:31Z,sub145
two-step-fixation,120,518198,0.0-61.0-2.19,FALSE,TRUE,TRUE,TRUE,"""event"",""trial"",""time""
""fullscreenenter"",""5"",""16810""
","
","
","""event"",""trial"",""time""
""fullscreenenter"",""5"",""16810""
","
",NA,images/earth.jpg,NA,NA,NA,NA,NA,NA,NA,NA,NA,NA,NA,NA,NA,fixation,NA,NA,NA,NA,NA,NA,sub145
d3-instructions,121,522513,0.0-62.0,FALSE,TRUE,TRUE,TRUE,"""event"",""trial"",""time""
""fullscreenenter"",""5"",""16810""
","
","
","""event"",""trial"",""time""
""fullscreenenter"",""5"",""16810""
","
",NA,NA,NA,NA,NA,NA,NA,NA,NA,NA,NA,NA,NA,NA,NA,NA,NA,NA,NA,NA,NA,NA,sub145
audio-keyboard-response,122,527312,0.0-63.0,FALSE,TRUE,TRUE,TRUE,"""event"",""trial"",""time""
""fullscreenenter"",""5"",""16810""
","
","
","""event"",""trial"",""time""
""fullscreenenter"",""5"",""16810""
","
",4795,audio/instructions/treasure_feedback.wav,32,NA,NA,NA,NA,NA,NA,NA,NA,NA,NA,NA,NA,NA,NA,NA,NA,NA,NA,NA,sub145
d3-instructions,123,538504,0.0-64.0,FALSE,TRUE,TRUE,TRUE,"""event"",""trial"",""time""
""fullscreenenter"",""5"",""16810""
","
","
","""event"",""trial"",""time""
""fullscreenenter"",""5"",""16810""
","
",NA,NA,NA,NA,NA,NA,NA,NA,NA,NA,NA,NA,NA,NA,NA,NA,NA,NA,NA,NA,NA,NA,sub145
d3-instructions,124,552707,0.0-65.0,FALSE,TRUE,TRUE,TRUE,"""event"",""trial"",""time""
""fullscreenenter"",""5"",""16810""
","
","
","""event"",""trial"",""time""
""fullscreenenter"",""5"",""16810""
","
",NA,NA,NA,NA,NA,NA,NA,NA,NA,NA,NA,NA,NA,NA,NA,NA,NA,NA,NA,NA,NA,NA,sub145
d3-instructions,125,580170,0.0-66.0,FALSE,TRUE,TRUE,TRUE,"""event"",""trial"",""time""
""fullscreenenter"",""5"",""16810""
","
","
","""event"",""trial"",""time""
""fullscreenenter"",""5"",""16810""
","
",NA,NA,NA,NA,NA,NA,NA,NA,NA,NA,NA,NA,NA,NA,NA,NA,NA,NA,NA,NA,NA,NA,sub145
d3-instructions,126,596023,0.0-67.0,FALSE,TRUE,TRUE,TRUE,"""event"",""trial"",""time""
""fullscreenenter"",""5"",""16810""
","
","
","""event"",""trial"",""time""
""fullscreenenter"",""5"",""16810""
","
",NA,NA,NA,NA,NA,NA,NA,NA,NA,NA,NA,NA,NA,NA,NA,NA,NA,NA,NA,NA,NA,NA,sub145
d3-instructions,127,603976,0.0-68.0,FALSE,TRUE,TRUE,TRUE,"""event"",""trial"",""time""
""fullscreenenter"",""5"",""16810""
","
","
","""event"",""trial"",""time""
""fullscreenenter"",""5"",""16810""
","
",NA,NA,NA,NA,NA,NA,NA,NA,NA,NA,NA,NA,NA,NA,NA,NA,NA,NA,NA,NA,NA,NA,sub145
instructions-quiz,128,608021,0.0-69.0,FALSE,TRUE,TRUE,TRUE,"""event"",""trial"",""time""
""fullscreenenter"",""5"",""16810""
","
","
","""event"",""trial"",""time""
""fullscreenenter"",""5"",""16810""
","
",4042.2750000143424,audio/quiz/Q1_Prompt.wav,NA,1,NA,NA,NA,NA,NA,NA,NA,NA,NA,NA,NA,NA,NA,NA,NA,NA,NA,NA,sub145
audio-keyboard-response,129,617192,0.0-70.0,FALSE,TRUE,TRUE,TRUE,"""event"",""trial"",""time""
""fullscreenenter"",""5"",""16810""
","
","
","""event"",""trial"",""time""
""fullscreenenter"",""5"",""16810""
","
",null,audio/quiz/Q1_Correct.wav,null,NA,NA,NA,NA,NA,NA,NA,NA,NA,NA,NA,NA,NA,NA,NA,NA,NA,NA,NA,sub145
instructions-quiz,130,621712,0.0-71.0,FALSE,TRUE,TRUE,TRUE,"""event"",""trial"",""time""
""fullscreenenter"",""5"",""16810""
","
","
","""event"",""trial"",""time""
""fullscreenenter"",""5"",""16810""
","
",4518.844999955036,audio/quiz/Q2_Prompt.wav,NA,0,NA,NA,NA,NA,NA,NA,NA,NA,NA,NA,NA,NA,NA,NA,NA,NA,NA,NA,sub145
audio-keyboard-response,131,634145,0.0-72.0,FALSE,TRUE,TRUE,TRUE,"""event"",""trial"",""time""
""fullscreenenter"",""5"",""16810""
","
","
","""event"",""trial"",""time""
""fullscreenenter"",""5"",""16810""
","
",12428,audio/quiz/Q2_Correct.wav,32,NA,NA,NA,NA,NA,NA,NA,NA,NA,NA,NA,NA,NA,NA,NA,NA,NA,NA,NA,sub145
instructions-quiz,132,637618,0.0-73.0,FALSE,TRUE,TRUE,TRUE,"""event"",""trial"",""time""
""fullscreenenter"",""5"",""16810""
","
","
","""event"",""trial"",""time""
""fullscreenenter"",""5"",""16810""
","
",3471.499999985099,audio/quiz/Q3_Prompt.wav,NA,1,NA,NA,NA,NA,NA,NA,NA,NA,NA,NA,NA,NA,NA,NA,NA,NA,NA,NA,sub145
audio-keyboard-response,133,638736,0.0-74.0,FALSE,TRUE,TRUE,TRUE,"""event"",""trial"",""time""
""fullscreenenter"",""5"",""16810""
","
","
","""event"",""trial"",""time""
""fullscreenenter"",""5"",""16810""
","
",1115,audio/quiz/Q3_Correct.wav,32,NA,NA,NA,NA,NA,NA,NA,NA,NA,NA,NA,NA,NA,NA,NA,NA,NA,NA,NA,sub145
d3-instructions,134,654096,0.0-75.0,FALSE,TRUE,TRUE,TRUE,"""event"",""trial"",""time""
""fullscreenenter"",""5"",""16810""
","
","
","""event"",""trial"",""time""
""fullscreenenter"",""5"",""16810""
","
",NA,NA,NA,NA,NA,NA,NA,NA,NA,NA,NA,NA,NA,NA,NA,NA,NA,NA,NA,NA,NA,NA,sub145
d3-animate-choice,135,656987,0.0-76.0-0.0,FALSE,TRUE,TRUE,TRUE,"""event"",""trial"",""time""
""fullscreenenter"",""5"",""16810""
","
","
","""event"",""trial"",""time""
""fullscreenenter"",""5"",""16810""
","
",885.855000000447,NA,49,NA,NA,3000,1,NA,NA,images/earth.jpg,images/rocket1,images/rocket2,null,images/rocket2,NA,1,real,null,1,NA,NA,NA,sub145
d3-animate-choice,136,659698,0.0-76.0-1.0,FALSE,TRUE,TRUE,TRUE,"""event"",""trial"",""time""
""fullscreenenter"",""5"",""16810""
","
","
","""event"",""trial"",""time""
""fullscreenenter"",""5"",""16810""
","
",706.3499999931082,NA,49,NA,NA,3000,1,NA,NA,images/redplanet1.jpg,images/alien2,images/alien1,images/rocket2,images/alien1,images/nothing.png,2,real,false,1,rare,0,2020-06-24T22:12:54Z,sub145
two-step-fixation,137,660703,0.0-76.0-2.0,FALSE,TRUE,TRUE,TRUE,"""event"",""trial"",""time""
""fullscreenenter"",""5"",""16810""
","
","
","""event"",""trial"",""time""
""fullscreenenter"",""5"",""16810""
","
",NA,images/earth.jpg,NA,NA,NA,NA,NA,NA,NA,NA,NA,NA,NA,NA,NA,fixation,NA,NA,NA,NA,NA,NA,sub145
d3-animate-choice,138,663360,0.0-76.0-0.1,FALSE,TRUE,TRUE,TRUE,"""event"",""trial"",""time""
""fullscreenenter"",""5"",""16810""
","
","
","""event"",""trial"",""time""
""fullscreenenter"",""5"",""16810""
","
",654.6899999957532,NA,49,NA,NA,3000,1,NA,NA,images/earth.jpg,images/rocket1,images/rocket2,null,images/rocket2,NA,1,real,null,1,NA,NA,NA,sub145
d3-animate-choice,139,666642,0.0-76.0-1.1,FALSE,TRUE,TRUE,TRUE,"""event"",""trial"",""time""
""fullscreenenter"",""5"",""16810""
","
","
","""event"",""trial"",""time""
""fullscreenenter"",""5"",""16810""
","
",1277.7449999703094,NA,49,NA,NA,3000,1,NA,NA,images/purpleplanet.jpg,images/alien4,images/alien3,images/rocket2,images/alien3,images/nothing.png,2,real,true,1,common,0,2020-06-24T22:13:00Z,sub145
two-step-fixation,140,667645,0.0-76.0-2.1,FALSE,TRUE,TRUE,TRUE,"""event"",""trial"",""time""
""fullscreenenter"",""5"",""16810""
","
","
","""event"",""trial"",""time""
""fullscreenenter"",""5"",""16810""
","
",NA,images/earth.jpg,NA,NA,NA,NA,NA,NA,NA,NA,NA,NA,NA,NA,NA,fixation,NA,NA,NA,NA,NA,NA,sub145
d3-animate-choice,141,670083,0.0-76.0-0.2,FALSE,TRUE,TRUE,TRUE,"""event"",""trial"",""time""
""fullscreenenter"",""5"",""16810""
","
","
","""event"",""trial"",""time""
""fullscreenenter"",""5"",""16810""
","
",432.09499993827194,NA,49,NA,NA,3000,1,NA,NA,images/earth.jpg,images/rocket1,images/rocket2,null,images/rocket2,NA,1,real,null,1,NA,NA,NA,sub145
d3-animate-choice,142,672937,0.0-76.0-1.2,FALSE,TRUE,TRUE,TRUE,"""event"",""trial"",""time""
""fullscreenenter"",""5"",""16810""
","
","
","""event"",""trial"",""time""
""fullscreenenter"",""5"",""16810""
","
",850.925000035204,NA,48,NA,NA,3000,1,NA,NA,images/redplanet1.jpg,images/alien2,images/alien1,images/rocket2,images/alien2,images/t.png,2,real,false,2,rare,1,2020-06-24T22:13:07Z,sub145
two-step-fixation,143,673940,0.0-76.0-2.2,FALSE,TRUE,TRUE,TRUE,"""event"",""trial"",""time""
""fullscreenenter"",""5"",""16810""
","
","
","""event"",""trial"",""time""
""fullscreenenter"",""5"",""16810""
","
",NA,images/earth.jpg,NA,NA,NA,NA,NA,NA,NA,NA,NA,NA,NA,NA,NA,fixation,NA,NA,NA,NA,NA,NA,sub145
d3-animate-choice,144,676361,0.0-76.0-0.3,FALSE,TRUE,TRUE,TRUE,"""event"",""trial"",""time""
""fullscreenenter"",""5"",""16810""
","
","
","""event"",""trial"",""time""
""fullscreenenter"",""5"",""16810""
","
",417.3050000099465,NA,49,NA,NA,3000,1,NA,NA,images/earth.jpg,images/rocket1,images/rocket2,null,images/rocket2,NA,1,real,null,1,NA,NA,NA,sub145
d3-animate-choice,145,679330,0.0-76.0-1.3,FALSE,TRUE,TRUE,TRUE,"""event"",""trial"",""time""
""fullscreenenter"",""5"",""16810""
","
","
","""event"",""trial"",""time""
""fullscreenenter"",""5"",""16810""
","
",965.265000006184,NA,48,NA,NA,3000,1,NA,NA,images/purpleplanet.jpg,images/alien4,images/alien3,images/rocket2,images/alien4,images/t.png,2,real,true,2,common,1,2020-06-24T22:13:13Z,sub145
two-step-fixation,146,680332,0.0-76.0-2.3,FALSE,TRUE,TRUE,TRUE,"""event"",""trial"",""time""
""fullscreenenter"",""5"",""16810""
","
","
","""event"",""trial"",""time""
""fullscreenenter"",""5"",""16810""
","
",NA,images/earth.jpg,NA,NA,NA,NA,NA,NA,NA,NA,NA,NA,NA,NA,NA,fixation,NA,NA,NA,NA,NA,NA,sub145
d3-animate-choice,147,682787,0.0-76.0-0.4,FALSE,TRUE,TRUE,TRUE,"""event"",""trial"",""time""
""fullscreenenter"",""5"",""16810""
","
","
","""event"",""trial"",""time""
""fullscreenenter"",""5"",""16810""
","
",449.4399999966845,NA,49,NA,NA,3000,1,NA,NA,images/earth.jpg,images/rocket1,images/rocket2,null,images/rocket2,NA,1,real,null,1,NA,NA,NA,sub145
d3-animate-choice,148,685737,0.0-76.0-1.4,FALSE,TRUE,TRUE,TRUE,"""event"",""trial"",""time""
""fullscreenenter"",""5"",""16810""
","
","
","""event"",""trial"",""time""
""fullscreenenter"",""5"",""16810""
","
",946.460000006482,NA,48,NA,NA,3000,1,NA,NA,images/redplanet1.jpg,images/alien2,images/alien1,images/rocket2,images/alien2,images/t.png,2,real,false,2,rare,1,2020-06-24T22:13:20Z,sub145
two-step-fixation,149,686740,0.0-76.0-2.4,FALSE,TRUE,TRUE,TRUE,"""event"",""trial"",""time""
""fullscreenenter"",""5"",""16810""
","
","
","""event"",""trial"",""time""
""fullscreenenter"",""5"",""16810""
","
",NA,images/earth.jpg,NA,NA,NA,NA,NA,NA,NA,NA,NA,NA,NA,NA,NA,fixation,NA,NA,NA,NA,NA,NA,sub145
d3-animate-choice,150,689689,0.0-76.0-0.5,FALSE,TRUE,TRUE,TRUE,"""event"",""trial"",""time""
""fullscreenenter"",""5"",""16810""
","
","
","""event"",""trial"",""time""
""fullscreenenter"",""5"",""16810""
","
",946.0100000724196,NA,48,NA,NA,3000,1,NA,NA,images/earth.jpg,images/rocket1,images/rocket2,null,images/rocket1,NA,1,real,null,2,NA,NA,NA,sub145
d3-animate-choice,151,692299,0.0-76.0-1.5,FALSE,TRUE,TRUE,TRUE,"""event"",""trial"",""time""
""fullscreenenter"",""5"",""16810""
","
","
","""event"",""trial"",""time""
""fullscreenenter"",""5"",""16810""
","
",603.9399999426678,NA,48,NA,NA,3000,1,NA,NA,images/redplanet1.jpg,images/alien2,images/alien1,images/rocket1,images/alien2,images/nothing.png,2,real,true,2,common,0,2020-06-24T22:13:26Z,sub145
two-step-fixation,152,693305,0.0-76.0-2.5,FALSE,TRUE,TRUE,TRUE,"""event"",""trial"",""time""
""fullscreenenter"",""5"",""16810""
","
","
","""event"",""trial"",""time""
""fullscreenenter"",""5"",""16810""
","
",NA,images/earth.jpg,NA,NA,NA,NA,NA,NA,NA,NA,NA,NA,NA,NA,NA,fixation,NA,NA,NA,NA,NA,NA,sub145
d3-animate-choice,153,695816,0.0-76.0-0.6,FALSE,TRUE,TRUE,TRUE,"""event"",""trial"",""time""
""fullscreenenter"",""5"",""16810""
","
","
","""event"",""trial"",""time""
""fullscreenenter"",""5"",""16810""
","
",508.5249999538064,NA,49,NA,NA,3000,1,NA,NA,images/earth.jpg,images/rocket1,images/rocket2,null,images/rocket2,NA,1,real,null,1,NA,NA,NA,sub145
d3-animate-choice,154,698664,0.0-76.0-1.6,FALSE,TRUE,TRUE,TRUE,"""event"",""trial"",""time""
""fullscreenenter"",""5"",""16810""
","
","
","""event"",""trial"",""time""
""fullscreenenter"",""5"",""16810""
","
",844.8799999896437,NA,48,NA,NA,3000,1,NA,NA,images/purpleplanet.jpg,images/alien4,images/alien3,images/rocket2,images/alien4,images/t.png,2,real,true,2,common,1,2020-06-24T22:13:33Z,sub145
two-step-fixation,155,699668,0.0-76.0-2.6,FALSE,TRUE,TRUE,TRUE,"""event"",""trial"",""time""
""fullscreenenter"",""5"",""16810""
","
","
","""event"",""trial"",""time""
""fullscreenenter"",""5"",""16810""
","
",NA,images/earth.jpg,NA,NA,NA,NA,NA,NA,NA,NA,NA,NA,NA,NA,NA,fixation,NA,NA,NA,NA,NA,NA,sub145
d3-animate-choice,156,702163,0.0-76.0-0.7,FALSE,TRUE,TRUE,TRUE,"""event"",""trial"",""time""
""fullscreenenter"",""5"",""16810""
","
","
","""event"",""trial"",""time""
""fullscreenenter"",""5"",""16810""
","
",489.25500002224,NA,48,NA,NA,3000,1,NA,NA,images/earth.jpg,images/rocket1,images/rocket2,null,images/rocket1,NA,1,real,null,2,NA,NA,NA,sub145
d3-animate-choice,157,705096,0.0-76.0-1.7,FALSE,TRUE,TRUE,TRUE,"""event"",""trial"",""time""
""fullscreenenter"",""5"",""16810""
","
","
","""event"",""trial"",""time""
""fullscreenenter"",""5"",""16810""
","
",929.134999983944,NA,48,NA,NA,3000,1,NA,NA,images/redplanet1.jpg,images/alien2,images/alien1,images/rocket1,images/alien2,images/t.png,2,real,true,2,common,1,2020-06-24T22:13:39Z,sub145
two-step-fixation,158,706100,0.0-76.0-2.7,FALSE,TRUE,TRUE,TRUE,"""event"",""trial"",""time""
""fullscreenenter"",""5"",""16810""
","
","
","""event"",""trial"",""time""
""fullscreenenter"",""5"",""16810""
","
",NA,images/earth.jpg,NA,NA,NA,NA,NA,NA,NA,NA,NA,NA,NA,NA,NA,fixation,NA,NA,NA,NA,NA,NA,sub145
d3-animate-choice,159,708435,0.0-76.0-0.8,FALSE,TRUE,TRUE,TRUE,"""event"",""trial"",""time""
""fullscreenenter"",""5"",""16810""
","
","
","""event"",""trial"",""time""
""fullscreenenter"",""5"",""16810""
","
",329.33500001672655,NA,48,NA,NA,3000,1,NA,NA,images/earth.jpg,images/rocket1,images/rocket2,null,images/rocket1,NA,1,real,null,2,NA,NA,NA,sub145
d3-animate-choice,160,711040,0.0-76.0-1.8,FALSE,TRUE,TRUE,TRUE,"""event"",""trial"",""time""
""fullscreenenter"",""5"",""16810""
","
","
","""event"",""trial"",""time""
""fullscreenenter"",""5"",""16810""
","
",600.9400000330061,NA,48,NA,NA,3000,1,NA,NA,images/redplanet1.jpg,images/alien2,images/alien1,images/rocket1,images/alien2,images/nothing.png,2,real,true,2,common,0,2020-06-24T22:13:45Z,sub145
two-step-fixation,161,712045,0.0-76.0-2.8,FALSE,TRUE,TRUE,TRUE,"""event"",""trial"",""time""
""fullscreenenter"",""5"",""16810""
","
","
","""event"",""trial"",""time""
""fullscreenenter"",""5"",""16810""
","
",NA,images/earth.jpg,NA,NA,NA,NA,NA,NA,NA,NA,NA,NA,NA,NA,NA,fixation,NA,NA,NA,NA,NA,NA,sub145
d3-animate-choice,162,714475,0.0-76.0-0.9,FALSE,TRUE,TRUE,TRUE,"""event"",""trial"",""time""
""fullscreenenter"",""5"",""16810""
","
","
","""event"",""trial"",""time""
""fullscreenenter"",""5"",""16810""
","
",424.3899999419227,NA,49,NA,NA,3000,1,NA,NA,images/earth.jpg,images/rocket1,images/rocket2,null,images/rocket2,NA,1,real,null,1,NA,NA,NA,sub145
d3-animate-choice,163,716888,0.0-76.0-1.9,FALSE,TRUE,TRUE,TRUE,"""event"",""trial"",""time""
""fullscreenenter"",""5"",""16810""
","
","
","""event"",""trial"",""time""
""fullscreenenter"",""5"",""16810""
","
",408.85000000707805,NA,48,NA,NA,3000,1,NA,NA,images/purpleplanet.jpg,images/alien4,images/alien3,images/rocket2,images/alien4,images/t.png,2,real,true,2,common,1,2020-06-24T22:13:51Z,sub145
two-step-fixation,164,717891,0.0-76.0-2.9,FALSE,TRUE,TRUE,TRUE,"""event"",""trial"",""time""
""fullscreenenter"",""5"",""16810""
","
","
","""event"",""trial"",""time""
""fullscreenenter"",""5"",""16810""
","
",NA,images/earth.jpg,NA,NA,NA,NA,NA,NA,NA,NA,NA,NA,NA,NA,NA,fixation,NA,NA,NA,NA,NA,NA,sub145
d3-animate-choice,165,720242,0.0-76.0-0.10,FALSE,TRUE,TRUE,TRUE,"""event"",""trial"",""time""
""fullscreenenter"",""5"",""16810""
","
","
","""event"",""trial"",""time""
""fullscreenenter"",""5"",""16810""
","
",345.4250000650063,NA,49,NA,NA,3000,1,NA,NA,images/earth.jpg,images/rocket1,images/rocket2,null,images/rocket2,NA,1,real,null,1,NA,NA,NA,sub145
d3-animate-choice,166,722786,0.0-76.0-1.10,FALSE,TRUE,TRUE,TRUE,"""event"",""trial"",""time""
""fullscreenenter"",""5"",""16810""
","
","
","""event"",""trial"",""time""
""fullscreenenter"",""5"",""16810""
","
",537.4000000301749,NA,48,NA,NA,3000,1,NA,NA,images/purpleplanet.jpg,images/alien4,images/alien3,images/rocket2,images/alien4,images/t.png,2,real,true,2,common,1,2020-06-24T22:13:57Z,sub145
two-step-fixation,167,723791,0.0-76.0-2.10,FALSE,TRUE,TRUE,TRUE,"""event"",""trial"",""time""
""fullscreenenter"",""5"",""16810""
","
","
","""event"",""trial"",""time""
""fullscreenenter"",""5"",""16810""
","
",NA,images/earth.jpg,NA,NA,NA,NA,NA,NA,NA,NA,NA,NA,NA,NA,NA,fixation,NA,NA,NA,NA,NA,NA,sub145
d3-animate-choice,168,726248,0.0-76.0-0.11,FALSE,TRUE,TRUE,TRUE,"""event"",""trial"",""time""
""fullscreenenter"",""5"",""16810""
","
","
","""event"",""trial"",""time""
""fullscreenenter"",""5"",""16810""
","
",454.2299999156967,NA,49,NA,NA,3000,1,NA,NA,images/earth.jpg,images/rocket1,images/rocket2,null,images/rocket2,NA,1,real,null,1,NA,NA,NA,sub145
d3-animate-choice,169,728626,0.0-76.0-1.11,FALSE,TRUE,TRUE,TRUE,"""event"",""trial"",""time""
""fullscreenenter"",""5"",""16810""
","
","
","""event"",""trial"",""time""
""fullscreenenter"",""5"",""16810""
","
",372.620000038296,NA,48,NA,NA,3000,1,NA,NA,images/redplanet1.jpg,images/alien2,images/alien1,images/rocket2,images/alien2,images/t.png,2,real,false,2,rare,1,2020-06-24T22:14:02Z,sub145
two-step-fixation,170,729632,0.0-76.0-2.11,FALSE,TRUE,TRUE,TRUE,"""event"",""trial"",""time""
""fullscreenenter"",""5"",""16810""
","
","
","""event"",""trial"",""time""
""fullscreenenter"",""5"",""16810""
","
",NA,images/earth.jpg,NA,NA,NA,NA,NA,NA,NA,NA,NA,NA,NA,NA,NA,fixation,NA,NA,NA,NA,NA,NA,sub145
d3-animate-choice,171,731940,0.0-76.0-0.12,FALSE,TRUE,TRUE,TRUE,"""event"",""trial"",""time""
""fullscreenenter"",""5"",""16810""
","
","
","""event"",""trial"",""time""
""fullscreenenter"",""5"",""16810""
","
",300.2149999374524,NA,49,NA,NA,3000,1,NA,NA,images/earth.jpg,images/rocket1,images/rocket2,null,images/rocket2,NA,1,real,null,1,NA,NA,NA,sub145
d3-animate-choice,172,734444,0.0-76.0-1.12,FALSE,TRUE,TRUE,TRUE,"""event"",""trial"",""time""
""fullscreenenter"",""5"",""16810""
","
","
","""event"",""trial"",""time""
""fullscreenenter"",""5"",""16810""
","
",495.62499998137355,NA,48,NA,NA,3000,1,NA,NA,images/purpleplanet.jpg,images/alien4,images/alien3,images/rocket2,images/alien4,images/t.png,2,real,true,2,common,1,2020-06-24T22:14:08Z,sub145
two-step-fixation,173,735450,0.0-76.0-2.12,FALSE,TRUE,TRUE,TRUE,"""event"",""trial"",""time""
""fullscreenenter"",""5"",""16810""
","
","
","""event"",""trial"",""time""
""fullscreenenter"",""5"",""16810""
","
",NA,images/earth.jpg,NA,NA,NA,NA,NA,NA,NA,NA,NA,NA,NA,NA,NA,fixation,NA,NA,NA,NA,NA,NA,sub145
d3-animate-choice,174,737780,0.0-76.0-0.13,FALSE,TRUE,TRUE,TRUE,"""event"",""trial"",""time""
""fullscreenenter"",""5"",""16810""
","
","
","""event"",""trial"",""time""
""fullscreenenter"",""5"",""16810""
","
",322.61000003200024,NA,49,NA,NA,3000,1,NA,NA,images/earth.jpg,images/rocket1,images/rocket2,null,images/rocket2,NA,1,real,null,1,NA,NA,NA,sub145
d3-animate-choice,175,740159,0.0-76.0-1.13,FALSE,TRUE,TRUE,TRUE,"""event"",""trial"",""time""
""fullscreenenter"",""5"",""16810""
","
","
","""event"",""trial"",""time""
""fullscreenenter"",""5"",""16810""
","
",374.7499999590218,NA,48,NA,NA,3000,1,NA,NA,images/purpleplanet.jpg,images/alien4,images/alien3,images/rocket2,images/alien4,images/t.png,2,real,true,2,common,1,2020-06-24T22:14:14Z,sub145
two-step-fixation,176,741162,0.0-76.0-2.13,FALSE,TRUE,TRUE,TRUE,"""event"",""trial"",""time""
""fullscreenenter"",""5"",""16810""
","
","
","""event"",""trial"",""time""
""fullscreenenter"",""5"",""16810""
","
",NA,images/earth.jpg,NA,NA,NA,NA,NA,NA,NA,NA,NA,NA,NA,NA,NA,fixation,NA,NA,NA,NA,NA,NA,sub145
d3-animate-choice,177,743444,0.0-76.0-0.14,FALSE,TRUE,TRUE,TRUE,"""event"",""trial"",""time""
""fullscreenenter"",""5"",""16810""
","
","
","""event"",""trial"",""time""
""fullscreenenter"",""5"",""16810""
","
",274.0800000028685,NA,49,NA,NA,3000,1,NA,NA,images/earth.jpg,images/rocket1,images/rocket2,null,images/rocket2,NA,1,real,null,1,NA,NA,NA,sub145
d3-animate-choice,178,745696,0.0-76.0-1.14,FALSE,TRUE,TRUE,TRUE,"""event"",""trial"",""time""
""fullscreenenter"",""5"",""16810""
","
","
","""event"",""trial"",""time""
""fullscreenenter"",""5"",""16810""
","
",248.54499998036772,NA,48,NA,NA,3000,1,NA,NA,images/purpleplanet.jpg,images/alien4,images/alien3,images/rocket2,images/alien4,images/t.png,2,real,true,2,common,1,2020-06-24T22:14:20Z,sub145
two-step-fixation,179,746699,0.0-76.0-2.14,FALSE,TRUE,TRUE,TRUE,"""event"",""trial"",""time""
""fullscreenenter"",""5"",""16810""
","
","
","""event"",""trial"",""time""
""fullscreenenter"",""5"",""16810""
","
",NA,images/earth.jpg,NA,NA,NA,NA,NA,NA,NA,NA,NA,NA,NA,NA,NA,fixation,NA,NA,NA,NA,NA,NA,sub145
d3-animate-choice,180,748943,0.0-76.0-0.15,FALSE,TRUE,TRUE,TRUE,"""event"",""trial"",""time""
""fullscreenenter"",""5"",""16810""
","
","
","""event"",""trial"",""time""
""fullscreenenter"",""5"",""16810""
","
",241.56499991659075,NA,49,NA,NA,3000,1,NA,NA,images/earth.jpg,images/rocket1,images/rocket2,null,images/rocket2,NA,1,real,null,1,NA,NA,NA,sub145
d3-animate-choice,181,751361,0.0-76.0-1.15,FALSE,TRUE,TRUE,TRUE,"""event"",""trial"",""time""
""fullscreenenter"",""5"",""16810""
","
","
","""event"",""trial"",""time""
""fullscreenenter"",""5"",""16810""
","
",412.1799999848008,NA,48,NA,NA,3000,1,NA,NA,images/redplanet1.jpg,images/alien2,images/alien1,images/rocket2,images/alien2,images/nothing.png,2,real,false,2,rare,0,2020-06-24T22:14:25Z,sub145
two-step-fixation,182,752366,0.0-76.0-2.15,FALSE,TRUE,TRUE,TRUE,"""event"",""trial"",""time""
""fullscreenenter"",""5"",""16810""
","
","
","""event"",""trial"",""time""
""fullscreenenter"",""5"",""16810""
","
",NA,images/earth.jpg,NA,NA,NA,NA,NA,NA,NA,NA,NA,NA,NA,NA,NA,fixation,NA,NA,NA,NA,NA,NA,sub145
d3-animate-choice,183,754649,0.0-76.0-0.16,FALSE,TRUE,TRUE,TRUE,"""event"",""trial"",""time""
""fullscreenenter"",""5"",""16810""
","
","
","""event"",""trial"",""time""
""fullscreenenter"",""5"",""16810""
","
",277.43500005453825,NA,49,NA,NA,3000,1,NA,NA,images/earth.jpg,images/rocket1,images/rocket2,null,images/rocket2,NA,1,real,null,1,NA,NA,NA,sub145
d3-animate-choice,184,757480,0.0-76.0-1.16,FALSE,TRUE,TRUE,TRUE,"""event"",""trial"",""time""
""fullscreenenter"",""5"",""16810""
","
","
","""event"",""trial"",""time""
""fullscreenenter"",""5"",""16810""
","
",826.8300000345334,NA,48,NA,NA,3000,1,NA,NA,images/purpleplanet.jpg,images/alien4,images/alien3,images/rocket2,images/alien4,images/nothing.png,2,real,true,2,common,0,2020-06-24T22:14:31Z,sub145
two-step-fixation,185,758485,0.0-76.0-2.16,FALSE,TRUE,TRUE,TRUE,"""event"",""trial"",""time""
""fullscreenenter"",""5"",""16810""
","
","
","""event"",""trial"",""time""
""fullscreenenter"",""5"",""16810""
","
",NA,images/earth.jpg,NA,NA,NA,NA,NA,NA,NA,NA,NA,NA,NA,NA,NA,fixation,NA,NA,NA,NA,NA,NA,sub145
d3-animate-choice,186,761153,0.0-76.0-0.17,FALSE,TRUE,TRUE,TRUE,"""event"",""trial"",""time""
""fullscreenenter"",""5"",""16810""
","
","
","""event"",""trial"",""time""
""fullscreenenter"",""5"",""16810""
","
",663.535000057891,NA,49,NA,NA,3000,1,NA,NA,images/earth.jpg,images/rocket1,images/rocket2,null,images/rocket2,NA,1,real,null,1,NA,NA,NA,sub145
d3-animate-choice,187,763745,0.0-76.0-1.17,FALSE,TRUE,TRUE,TRUE,"""event"",""trial"",""time""
""fullscreenenter"",""5"",""16810""
","
","
","""event"",""trial"",""time""
""fullscreenenter"",""5"",""16810""
","
",586.9850000599399,NA,49,NA,NA,3000,1,NA,NA,images/purpleplanet.jpg,images/alien4,images/alien3,images/rocket2,images/alien3,images/nothing.png,2,real,true,1,common,0,2020-06-24T22:14:38Z,sub145
two-step-fixation,188,764749,0.0-76.0-2.17,FALSE,TRUE,TRUE,TRUE,"""event"",""trial"",""time""
""fullscreenenter"",""5"",""16810""
","
","
","""event"",""trial"",""time""
""fullscreenenter"",""5"",""16810""
","
",NA,images/earth.jpg,NA,NA,NA,NA,NA,NA,NA,NA,NA,NA,NA,NA,NA,fixation,NA,NA,NA,NA,NA,NA,sub145
d3-animate-choice,189,767112,0.0-76.0-0.18,FALSE,TRUE,TRUE,TRUE,"""event"",""trial"",""time""
""fullscreenenter"",""5"",""16810""
","
","
","""event"",""trial"",""time""
""fullscreenenter"",""5"",""16810""
","
",358.03000000305474,NA,49,NA,NA,3000,1,NA,NA,images/earth.jpg,images/rocket1,images/rocket2,null,images/rocket2,NA,1,real,null,1,NA,NA,NA,sub145
d3-animate-choice,190,769505,0.0-76.0-1.18,FALSE,TRUE,TRUE,TRUE,"""event"",""trial"",""time""
""fullscreenenter"",""5"",""16810""
","
","
","""event"",""trial"",""time""
""fullscreenenter"",""5"",""16810""
","
",387.6449998933822,NA,48,NA,NA,3000,1,NA,NA,images/purpleplanet.jpg,images/alien4,images/alien3,images/rocket2,images/alien4,images/t.png,2,real,true,2,common,1,2020-06-24T22:14:43Z,sub145
two-step-fixation,191,770508,0.0-76.0-2.18,FALSE,TRUE,TRUE,TRUE,"""event"",""trial"",""time""
""fullscreenenter"",""5"",""16810""
","
","
","""event"",""trial"",""time""
""fullscreenenter"",""5"",""16810""
","
",NA,images/earth.jpg,NA,NA,NA,NA,NA,NA,NA,NA,NA,NA,NA,NA,NA,fixation,NA,NA,NA,NA,NA,NA,sub145
d3-animate-choice,192,772865,0.0-76.0-0.19,FALSE,TRUE,TRUE,TRUE,"""event"",""trial"",""time""
""fullscreenenter"",""5"",""16810""
","
","
","""event"",""trial"",""time""
""fullscreenenter"",""5"",""16810""
","
",352.2999999113381,NA,49,NA,NA,3000,1,NA,NA,images/earth.jpg,images/rocket1,images/rocket2,null,images/rocket2,NA,1,real,null,1,NA,NA,NA,sub145
d3-animate-choice,193,775250,0.0-76.0-1.19,FALSE,TRUE,TRUE,TRUE,"""event"",""trial"",""time""
""fullscreenenter"",""5"",""16810""
","
","
","""event"",""trial"",""time""
""fullscreenenter"",""5"",""16810""
","
",378.2300000311807,NA,48,NA,NA,3000,1,NA,NA,images/purpleplanet.jpg,images/alien4,images/alien3,images/rocket2,images/alien4,images/t.png,2,real,true,2,common,1,2020-06-24T22:14:49Z,sub145
two-step-fixation,194,776255,0.0-76.0-2.19,FALSE,TRUE,TRUE,TRUE,"""event"",""trial"",""time""
""fullscreenenter"",""5"",""16810""
","
","
","""event"",""trial"",""time""
""fullscreenenter"",""5"",""16810""
","
",NA,images/earth.jpg,NA,NA,NA,NA,NA,NA,NA,NA,NA,NA,NA,NA,NA,fixation,NA,NA,NA,NA,NA,NA,sub145
d3-animate-choice,195,778615,0.0-76.0-0.20,FALSE,TRUE,TRUE,TRUE,"""event"",""trial"",""time""
""fullscreenenter"",""5"",""16810""
","
","
","""event"",""trial"",""time""
""fullscreenenter"",""5"",""16810""
","
",355.7099999161437,NA,49,NA,NA,3000,1,NA,NA,images/earth.jpg,images/rocket1,images/rocket2,null,images/rocket2,NA,1,real,null,1,NA,NA,NA,sub145
d3-animate-choice,196,781000,0.0-76.0-1.20,FALSE,TRUE,TRUE,TRUE,"""event"",""trial"",""time""
""fullscreenenter"",""5"",""16810""
","
","
","""event"",""trial"",""time""
""fullscreenenter"",""5"",""16810""
","
",380.01000008080155,NA,48,NA,NA,3000,1,NA,NA,images/purpleplanet.jpg,images/alien4,images/alien3,images/rocket2,images/alien4,images/nothing.png,2,real,true,2,common,0,2020-06-24T22:14:55Z,sub145
two-step-fixation,197,782004,0.0-76.0-2.20,FALSE,TRUE,TRUE,TRUE,"""event"",""trial"",""time""
""fullscreenenter"",""5"",""16810""
","
","
","""event"",""trial"",""time""
""fullscreenenter"",""5"",""16810""
","
",NA,images/earth.jpg,NA,NA,NA,NA,NA,NA,NA,NA,NA,NA,NA,NA,NA,fixation,NA,NA,NA,NA,NA,NA,sub145
d3-animate-choice,198,784393,0.0-76.0-0.21,FALSE,TRUE,TRUE,TRUE,"""event"",""trial"",""time""
""fullscreenenter"",""5"",""16810""
","
","
","""event"",""trial"",""time""
""fullscreenenter"",""5"",""16810""
","
",383.960000006482,NA,49,NA,NA,3000,1,NA,NA,images/earth.jpg,images/rocket1,images/rocket2,null,images/rocket2,NA,1,real,null,1,NA,NA,NA,sub145
d3-animate-choice,199,786771,0.0-76.0-1.21,FALSE,TRUE,TRUE,TRUE,"""event"",""trial"",""time""
""fullscreenenter"",""5"",""16810""
","
","
","""event"",""trial"",""time""
""fullscreenenter"",""5"",""16810""
","
",370.1350000919774,NA,48,NA,NA,3000,1,NA,NA,images/redplanet1.jpg,images/alien2,images/alien1,images/rocket2,images/alien2,images/t.png,2,real,false,2,rare,1,2020-06-24T22:15:01Z,sub145
two-step-fixation,200,787777,0.0-76.0-2.21,FALSE,TRUE,TRUE,TRUE,"""event"",""trial"",""time""
""fullscreenenter"",""5"",""16810""
","
","
","""event"",""trial"",""time""
""fullscreenenter"",""5"",""16810""
","
",NA,images/earth.jpg,NA,NA,NA,NA,NA,NA,NA,NA,NA,NA,NA,NA,NA,fixation,NA,NA,NA,NA,NA,NA,sub145
d3-animate-choice,201,790088,0.0-76.0-0.22,FALSE,TRUE,TRUE,TRUE,"""event"",""trial"",""time""
""fullscreenenter"",""5"",""16810""
","
","
","""event"",""trial"",""time""
""fullscreenenter"",""5"",""16810""
","
",305.32000004313886,NA,49,NA,NA,3000,1,NA,NA,images/earth.jpg,images/rocket1,images/rocket2,null,images/rocket2,NA,1,real,null,1,NA,NA,NA,sub145
d3-animate-choice,202,792427,0.0-76.0-1.22,FALSE,TRUE,TRUE,TRUE,"""event"",""trial"",""time""
""fullscreenenter"",""5"",""16810""
","
","
","""event"",""trial"",""time""
""fullscreenenter"",""5"",""16810""
","
",331.6550001036376,NA,48,NA,NA,3000,1,NA,NA,images/purpleplanet.jpg,images/alien4,images/alien3,images/rocket2,images/alien4,images/t.png,2,real,true,2,common,1,2020-06-24T22:15:06Z,sub145
two-step-fixation,203,793434,0.0-76.0-2.22,FALSE,TRUE,TRUE,TRUE,"""event"",""trial"",""time""
""fullscreenenter"",""5"",""16810""
","
","
","""event"",""trial"",""time""
""fullscreenenter"",""5"",""16810""
","
",NA,images/earth.jpg,NA,NA,NA,NA,NA,NA,NA,NA,NA,NA,NA,NA,NA,fixation,NA,NA,NA,NA,NA,NA,sub145
d3-animate-choice,204,795711,0.0-76.0-0.23,FALSE,TRUE,TRUE,TRUE,"""event"",""trial"",""time""
""fullscreenenter"",""5"",""16810""
","
","
","""event"",""trial"",""time""
""fullscreenenter"",""5"",""16810""
","
",272.91499997954816,NA,49,NA,NA,3000,1,NA,NA,images/earth.jpg,images/rocket1,images/rocket2,null,images/rocket2,NA,1,real,null,1,NA,NA,NA,sub145
d3-animate-choice,205,798063,0.0-76.0-1.23,FALSE,TRUE,TRUE,TRUE,"""event"",""trial"",""time""
""fullscreenenter"",""5"",""16810""
","
","
","""event"",""trial"",""time""
""fullscreenenter"",""5"",""16810""
","
",348.60999998636544,NA,48,NA,NA,3000,1,NA,NA,images/purpleplanet.jpg,images/alien4,images/alien3,images/rocket2,images/alien4,images/nothing.png,2,real,true,2,common,0,2020-06-24T22:15:12Z,sub145
two-step-fixation,206,799066,0.0-76.0-2.23,FALSE,TRUE,TRUE,TRUE,"""event"",""trial"",""time""
""fullscreenenter"",""5"",""16810""
","
","
","""event"",""trial"",""time""
""fullscreenenter"",""5"",""16810""
","
",NA,images/earth.jpg,NA,NA,NA,NA,NA,NA,NA,NA,NA,NA,NA,NA,NA,fixation,NA,NA,NA,NA,NA,NA,sub145
d3-animate-choice,207,801394,0.0-76.0-0.24,FALSE,TRUE,TRUE,TRUE,"""event"",""trial"",""time""
""fullscreenenter"",""5"",""16810""
","
","
","""event"",""trial"",""time""
""fullscreenenter"",""5"",""16810""
","
",320.64499997068197,NA,49,NA,NA,3000,1,NA,NA,images/earth.jpg,images/rocket1,images/rocket2,null,images/rocket2,NA,1,real,null,1,NA,NA,NA,sub145
d3-animate-choice,208,803960,0.0-76.0-1.24,FALSE,TRUE,TRUE,TRUE,"""event"",""trial"",""time""
""fullscreenenter"",""5"",""16810""
","
","
","""event"",""trial"",""time""
""fullscreenenter"",""5"",""16810""
","
",561.1599999247119,NA,48,NA,NA,3000,1,NA,NA,images/purpleplanet.jpg,images/alien4,images/alien3,images/rocket2,images/alien4,images/t.png,2,real,true,2,common,1,2020-06-24T22:15:18Z,sub145
two-step-fixation,209,804963,0.0-76.0-2.24,FALSE,TRUE,TRUE,TRUE,"""event"",""trial"",""time""
""fullscreenenter"",""5"",""16810""
","
","
","""event"",""trial"",""time""
""fullscreenenter"",""5"",""16810""
","
",NA,images/earth.jpg,NA,NA,NA,NA,NA,NA,NA,NA,NA,NA,NA,NA,NA,fixation,NA,NA,NA,NA,NA,NA,sub145
d3-animate-choice,210,807257,0.0-76.0-0.25,FALSE,TRUE,TRUE,TRUE,"""event"",""trial"",""time""
""fullscreenenter"",""5"",""16810""
","
","
","""event"",""trial"",""time""
""fullscreenenter"",""5"",""16810""
","
",288.76499994657934,NA,49,NA,NA,3000,1,NA,NA,images/earth.jpg,images/rocket1,images/rocket2,null,images/rocket2,NA,1,real,null,1,NA,NA,NA,sub145
d3-animate-choice,211,809648,0.0-76.0-1.25,FALSE,TRUE,TRUE,TRUE,"""event"",""trial"",""time""
""fullscreenenter"",""5"",""16810""
","
","
","""event"",""trial"",""time""
""fullscreenenter"",""5"",""16810""
","
",385.89000003412366,NA,48,NA,NA,3000,1,NA,NA,images/purpleplanet.jpg,images/alien4,images/alien3,images/rocket2,images/alien4,images/t.png,2,real,true,2,common,1,2020-06-24T22:15:24Z,sub145
two-step-fixation,212,810653,0.0-76.0-2.25,FALSE,TRUE,TRUE,TRUE,"""event"",""trial"",""time""
""fullscreenenter"",""5"",""16810""
","
","
","""event"",""trial"",""time""
""fullscreenenter"",""5"",""16810""
","
",NA,images/earth.jpg,NA,NA,NA,NA,NA,NA,NA,NA,NA,NA,NA,NA,NA,fixation,NA,NA,NA,NA,NA,NA,sub145
d3-animate-choice,213,812998,0.0-76.0-0.26,FALSE,TRUE,TRUE,TRUE,"""event"",""trial"",""time""
""fullscreenenter"",""5"",""16810""
","
","
","""event"",""trial"",""time""
""fullscreenenter"",""5"",""16810""
","
",341.49499994236976,NA,49,NA,NA,3000,1,NA,NA,images/earth.jpg,images/rocket1,images/rocket2,null,images/rocket2,NA,1,real,null,1,NA,NA,NA,sub145
d3-animate-choice,214,815414,0.0-76.0-1.26,FALSE,TRUE,TRUE,TRUE,"""event"",""trial"",""time""
""fullscreenenter"",""5"",""16810""
","
","
","""event"",""trial"",""time""
""fullscreenenter"",""5"",""16810""
","
",413.35499996785074,NA,48,NA,NA,3000,1,NA,NA,images/redplanet1.jpg,images/alien2,images/alien1,images/rocket2,images/alien2,images/t.png,2,real,false,2,rare,1,2020-06-24T22:15:29Z,sub145
two-step-fixation,215,816422,0.0-76.0-2.26,FALSE,TRUE,TRUE,TRUE,"""event"",""trial"",""time""
""fullscreenenter"",""5"",""16810""
","
","
","""event"",""trial"",""time""
""fullscreenenter"",""5"",""16810""
","
",NA,images/earth.jpg,NA,NA,NA,NA,NA,NA,NA,NA,NA,NA,NA,NA,NA,fixation,NA,NA,NA,NA,NA,NA,sub145
d3-animate-choice,216,818688,0.0-76.0-0.27,FALSE,TRUE,TRUE,TRUE,"""event"",""trial"",""time""
""fullscreenenter"",""5"",""16810""
","
","
","""event"",""trial"",""time""
""fullscreenenter"",""5"",""16810""
","
",261.8050000164658,NA,49,NA,NA,3000,1,NA,NA,images/earth.jpg,images/rocket1,images/rocket2,null,images/rocket2,NA,1,real,null,1,NA,NA,NA,sub145
d3-animate-choice,217,821462,0.0-76.0-1.27,FALSE,TRUE,TRUE,TRUE,"""event"",""trial"",""time""
""fullscreenenter"",""5"",""16810""
","
","
","""event"",""trial"",""time""
""fullscreenenter"",""5"",""16810""
","
",770.6899999175221,NA,48,NA,NA,3000,1,NA,NA,images/redplanet1.jpg,images/alien2,images/alien1,images/rocket2,images/alien2,images/nothing.png,2,real,false,2,rare,0,2020-06-24T22:15:35Z,sub145
two-step-fixation,218,822464,0.0-76.0-2.27,FALSE,TRUE,TRUE,TRUE,"""event"",""trial"",""time""
""fullscreenenter"",""5"",""16810""
","
","
","""event"",""trial"",""time""
""fullscreenenter"",""5"",""16810""
","
",NA,images/earth.jpg,NA,NA,NA,NA,NA,NA,NA,NA,NA,NA,NA,NA,NA,fixation,NA,NA,NA,NA,NA,NA,sub145
d3-animate-choice,219,824839,0.0-76.0-0.28,FALSE,TRUE,TRUE,TRUE,"""event"",""trial"",""time""
""fullscreenenter"",""5"",""16810""
","
","
","""event"",""trial"",""time""
""fullscreenenter"",""5"",""16810""
","
",370.7449999637902,NA,49,NA,NA,3000,1,NA,NA,images/earth.jpg,images/rocket1,images/rocket2,null,images/rocket2,NA,1,real,null,1,NA,NA,NA,sub145
d3-animate-choice,220,827398,0.0-76.0-1.28,FALSE,TRUE,TRUE,TRUE,"""event"",""trial"",""time""
""fullscreenenter"",""5"",""16810""
","
","
","""event"",""trial"",""time""
""fullscreenenter"",""5"",""16810""
","
",554.3900000629947,NA,48,NA,NA,3000,1,NA,NA,images/purpleplanet.jpg,images/alien4,images/alien3,images/rocket2,images/alien4,images/t.png,2,real,true,2,common,1,2020-06-24T22:15:41Z,sub145
two-step-fixation,221,828402,0.0-76.0-2.28,FALSE,TRUE,TRUE,TRUE,"""event"",""trial"",""time""
""fullscreenenter"",""5"",""16810""
","
","
","""event"",""trial"",""time""
""fullscreenenter"",""5"",""16810""
","
",NA,images/earth.jpg,NA,NA,NA,NA,NA,NA,NA,NA,NA,NA,NA,NA,NA,fixation,NA,NA,NA,NA,NA,NA,sub145
d3-animate-choice,222,830768,0.0-76.0-0.29,FALSE,TRUE,TRUE,TRUE,"""event"",""trial"",""time""
""fullscreenenter"",""5"",""16810""
","
","
","""event"",""trial"",""time""
""fullscreenenter"",""5"",""16810""
","
",361.38999997638166,NA,49,NA,NA,3000,1,NA,NA,images/earth.jpg,images/rocket1,images/rocket2,null,images/rocket2,NA,1,real,null,1,NA,NA,NA,sub145
d3-animate-choice,223,833328,0.0-76.0-1.29,FALSE,TRUE,TRUE,TRUE,"""event"",""trial"",""time""
""fullscreenenter"",""5"",""16810""
","
","
","""event"",""trial"",""time""
""fullscreenenter"",""5"",""16810""
","
",555.104999919422,NA,48,NA,NA,3000,1,NA,NA,images/purpleplanet.jpg,images/alien4,images/alien3,images/rocket2,images/alien4,images/t.png,2,real,true,2,common,1,2020-06-24T22:15:47Z,sub145
two-step-fixation,224,834331,0.0-76.0-2.29,FALSE,TRUE,TRUE,TRUE,"""event"",""trial"",""time""
""fullscreenenter"",""5"",""16810""
","
","
","""event"",""trial"",""time""
""fullscreenenter"",""5"",""16810""
","
",NA,images/earth.jpg,NA,NA,NA,NA,NA,NA,NA,NA,NA,NA,NA,NA,NA,fixation,NA,NA,NA,NA,NA,NA,sub145
d3-animate-choice,225,836614,0.0-76.0-0.30,FALSE,TRUE,TRUE,TRUE,"""event"",""trial"",""time""
""fullscreenenter"",""5"",""16810""
","
","
","""event"",""trial"",""time""
""fullscreenenter"",""5"",""16810""
","
",279.2299999855459,NA,49,NA,NA,3000,1,NA,NA,images/earth.jpg,images/rocket1,images/rocket2,null,images/rocket2,NA,1,real,null,1,NA,NA,NA,sub145
d3-animate-choice,226,839022,0.0-76.0-1.30,FALSE,TRUE,TRUE,TRUE,"""event"",""trial"",""time""
""fullscreenenter"",""5"",""16810""
","
","
","""event"",""trial"",""time""
""fullscreenenter"",""5"",""16810""
","
",403.36500003468245,NA,48,NA,NA,3000,1,NA,NA,images/purpleplanet.jpg,images/alien4,images/alien3,images/rocket2,images/alien4,images/t.png,2,real,true,2,common,1,2020-06-24T22:15:53Z,sub145
two-step-fixation,227,840025,0.0-76.0-2.30,FALSE,TRUE,TRUE,TRUE,"""event"",""trial"",""time""
""fullscreenenter"",""5"",""16810""
","
","
","""event"",""trial"",""time""
""fullscreenenter"",""5"",""16810""
","
",NA,images/earth.jpg,NA,NA,NA,NA,NA,NA,NA,NA,NA,NA,NA,NA,NA,fixation,NA,NA,NA,NA,NA,NA,sub145
d3-animate-choice,228,842520,0.0-76.0-0.31,FALSE,TRUE,TRUE,TRUE,"""event"",""trial"",""time""
""fullscreenenter"",""5"",""16810""
","
","
","""event"",""trial"",""time""
""fullscreenenter"",""5"",""16810""
","
",489.67999999877065,NA,49,NA,NA,3000,1,NA,NA,images/earth.jpg,images/rocket1,images/rocket2,null,images/rocket2,NA,1,real,null,1,NA,NA,NA,sub145
d3-animate-choice,229,845454,0.0-76.0-1.31,FALSE,TRUE,TRUE,TRUE,"""event"",""trial"",""time""
""fullscreenenter"",""5"",""16810""
","
","
","""event"",""trial"",""time""
""fullscreenenter"",""5"",""16810""
","
",930.1650000270456,NA,49,NA,NA,3000,1,NA,NA,images/redplanet1.jpg,images/alien2,images/alien1,images/rocket2,images/alien1,images/t.png,2,real,false,1,rare,1,2020-06-24T22:15:59Z,sub145
two-step-fixation,230,846457,0.0-76.0-2.31,FALSE,TRUE,TRUE,TRUE,"""event"",""trial"",""time""
""fullscreenenter"",""5"",""16810""
","
","
","""event"",""trial"",""time""
""fullscreenenter"",""5"",""16810""
","
",NA,images/earth.jpg,NA,NA,NA,NA,NA,NA,NA,NA,NA,NA,NA,NA,NA,fixation,NA,NA,NA,NA,NA,NA,sub145
d3-animate-choice,231,848791,0.0-76.0-0.32,FALSE,TRUE,TRUE,TRUE,"""event"",""trial"",""time""
""fullscreenenter"",""5"",""16810""
","
","
","""event"",""trial"",""time""
""fullscreenenter"",""5"",""16810""
","
",329.4799999566749,NA,49,NA,NA,3000,1,NA,NA,images/earth.jpg,images/rocket1,images/rocket2,null,images/rocket2,NA,1,real,null,1,NA,NA,NA,sub145
d3-animate-choice,232,851298,0.0-76.0-1.32,FALSE,TRUE,TRUE,TRUE,"""event"",""trial"",""time""
""fullscreenenter"",""5"",""16810""
","
","
","""event"",""trial"",""time""
""fullscreenenter"",""5"",""16810""
","
",499.83500002417713,NA,49,NA,NA,3000,1,NA,NA,images/redplanet1.jpg,images/alien2,images/alien1,images/rocket2,images/alien1,images/t.png,2,real,false,1,rare,1,2020-06-24T22:16:05Z,sub145
two-step-fixation,233,852305,0.0-76.0-2.32,FALSE,TRUE,TRUE,TRUE,"""event"",""trial"",""time""
""fullscreenenter"",""5"",""16810""
","
","
","""event"",""trial"",""time""
""fullscreenenter"",""5"",""16810""
","
",NA,images/earth.jpg,NA,NA,NA,NA,NA,NA,NA,NA,NA,NA,NA,NA,NA,fixation,NA,NA,NA,NA,NA,NA,sub145
d3-animate-choice,234,854647,0.0-76.0-0.33,FALSE,TRUE,TRUE,TRUE,"""event"",""trial"",""time""
""fullscreenenter"",""5"",""16810""
","
","
","""event"",""trial"",""time""
""fullscreenenter"",""5"",""16810""
","
",338.2050000363961,NA,49,NA,NA,3000,1,NA,NA,images/earth.jpg,images/rocket1,images/rocket2,null,images/rocket2,NA,1,real,null,1,NA,NA,NA,sub145
d3-animate-choice,235,857150,0.0-76.0-1.33,FALSE,TRUE,TRUE,TRUE,"""event"",""trial"",""time""
""fullscreenenter"",""5"",""16810""
","
","
","""event"",""trial"",""time""
""fullscreenenter"",""5"",""16810""
","
",498.9099999656901,NA,49,NA,NA,3000,1,NA,NA,images/redplanet1.jpg,images/alien2,images/alien1,images/rocket2,images/alien1,images/nothing.png,2,real,false,1,rare,0,2020-06-24T22:16:11Z,sub145
two-step-fixation,236,858156,0.0-76.0-2.33,FALSE,TRUE,TRUE,TRUE,"""event"",""trial"",""time""
""fullscreenenter"",""5"",""16810""
","
","
","""event"",""trial"",""time""
""fullscreenenter"",""5"",""16810""
","
",NA,images/earth.jpg,NA,NA,NA,NA,NA,NA,NA,NA,NA,NA,NA,NA,NA,fixation,NA,NA,NA,NA,NA,NA,sub145
d3-animate-choice,237,860453,0.0-76.0-0.34,FALSE,TRUE,TRUE,TRUE,"""event"",""trial"",""time""
""fullscreenenter"",""5"",""16810""
","
","
","""event"",""trial"",""time""
""fullscreenenter"",""5"",""16810""
","
",293.9049999695271,NA,49,NA,NA,3000,1,NA,NA,images/earth.jpg,images/rocket1,images/rocket2,null,images/rocket2,NA,1,real,null,1,NA,NA,NA,sub145
d3-animate-choice,238,863229,0.0-76.0-1.34,FALSE,TRUE,TRUE,TRUE,"""event"",""trial"",""time""
""fullscreenenter"",""5"",""16810""
","
","
","""event"",""trial"",""time""
""fullscreenenter"",""5"",""16810""
","
",772.6750000147149,NA,48,NA,NA,3000,1,NA,NA,images/purpleplanet.jpg,images/alien4,images/alien3,images/rocket2,images/alien4,images/t.png,2,real,true,2,common,1,2020-06-24T22:16:17Z,sub145
two-step-fixation,239,864233,0.0-76.0-2.34,FALSE,TRUE,TRUE,TRUE,"""event"",""trial"",""time""
""fullscreenenter"",""5"",""16810""
","
","
","""event"",""trial"",""time""
""fullscreenenter"",""5"",""16810""
","
",NA,images/earth.jpg,NA,NA,NA,NA,NA,NA,NA,NA,NA,NA,NA,NA,NA,fixation,NA,NA,NA,NA,NA,NA,sub145
d3-animate-choice,240,866647,0.0-76.0-0.35,FALSE,TRUE,TRUE,TRUE,"""event"",""trial"",""time""
""fullscreenenter"",""5"",""16810""
","
","
","""event"",""trial"",""time""
""fullscreenenter"",""5"",""16810""
","
",409.2050000326708,NA,49,NA,NA,3000,1,NA,NA,images/earth.jpg,images/rocket1,images/rocket2,null,images/rocket2,NA,1,real,null,1,NA,NA,NA,sub145
d3-animate-choice,241,869007,0.0-76.0-1.35,FALSE,TRUE,TRUE,TRUE,"""event"",""trial"",""time""
""fullscreenenter"",""5"",""16810""
","
","
","""event"",""trial"",""time""
""fullscreenenter"",""5"",""16810""
","
",354.7299999045208,NA,48,NA,NA,3000,1,NA,NA,images/purpleplanet.jpg,images/alien4,images/alien3,images/rocket2,images/alien4,images/t.png,2,real,true,2,common,1,2020-06-24T22:16:23Z,sub145
two-step-fixation,242,870012,0.0-76.0-2.35,FALSE,TRUE,TRUE,TRUE,"""event"",""trial"",""time""
""fullscreenenter"",""5"",""16810""
","
","
","""event"",""trial"",""time""
""fullscreenenter"",""5"",""16810""
","
",NA,images/earth.jpg,NA,NA,NA,NA,NA,NA,NA,NA,NA,NA,NA,NA,NA,fixation,NA,NA,NA,NA,NA,NA,sub145
d3-animate-choice,243,872334,0.0-76.0-0.36,FALSE,TRUE,TRUE,TRUE,"""event"",""trial"",""time""
""fullscreenenter"",""5"",""16810""
","
","
","""event"",""trial"",""time""
""fullscreenenter"",""5"",""16810""
","
",317.39500002004206,NA,49,NA,NA,3000,1,NA,NA,images/earth.jpg,images/rocket1,images/rocket2,null,images/rocket2,NA,1,real,null,1,NA,NA,NA,sub145
d3-animate-choice,244,874685,0.0-76.0-1.36,FALSE,TRUE,TRUE,TRUE,"""event"",""trial"",""time""
""fullscreenenter"",""5"",""16810""
","
","
","""event"",""trial"",""time""
""fullscreenenter"",""5"",""16810""
","
",348.14000001642853,NA,48,NA,NA,3000,1,NA,NA,images/redplanet1.jpg,images/alien2,images/alien1,images/rocket2,images/alien2,images/nothing.png,2,real,false,2,rare,0,2020-06-24T22:16:29Z,sub145
two-step-fixation,245,875688,0.0-76.0-2.36,FALSE,TRUE,TRUE,TRUE,"""event"",""trial"",""time""
""fullscreenenter"",""5"",""16810""
","
","
","""event"",""trial"",""time""
""fullscreenenter"",""5"",""16810""
","
",NA,images/earth.jpg,NA,NA,NA,NA,NA,NA,NA,NA,NA,NA,NA,NA,NA,fixation,NA,NA,NA,NA,NA,NA,sub145
d3-animate-choice,246,878039,0.0-76.0-0.37,FALSE,TRUE,TRUE,TRUE,"""event"",""trial"",""time""
""fullscreenenter"",""5"",""16810""
","
","
","""event"",""trial"",""time""
""fullscreenenter"",""5"",""16810""
","
",345.86500003933907,NA,49,NA,NA,3000,1,NA,NA,images/earth.jpg,images/rocket1,images/rocket2,null,images/rocket2,NA,1,real,null,1,NA,NA,NA,sub145
d3-animate-choice,247,880509,0.0-76.0-1.37,FALSE,TRUE,TRUE,TRUE,"""event"",""trial"",""time""
""fullscreenenter"",""5"",""16810""
","
","
","""event"",""trial"",""time""
""fullscreenenter"",""5"",""16810""
","
",465.86500003468245,NA,49,NA,NA,3000,1,NA,NA,images/redplanet1.jpg,images/alien2,images/alien1,images/rocket2,images/alien1,images/t.png,2,real,false,1,rare,1,2020-06-24T22:16:34Z,sub145
two-step-fixation,248,881514,0.0-76.0-2.37,FALSE,TRUE,TRUE,TRUE,"""event"",""trial"",""time""
""fullscreenenter"",""5"",""16810""
","
","
","""event"",""trial"",""time""
""fullscreenenter"",""5"",""16810""
","
",NA,images/earth.jpg,NA,NA,NA,NA,NA,NA,NA,NA,NA,NA,NA,NA,NA,fixation,NA,NA,NA,NA,NA,NA,sub145
d3-animate-choice,249,883958,0.0-76.0-0.38,FALSE,TRUE,TRUE,TRUE,"""event"",""trial"",""time""
""fullscreenenter"",""5"",""16810""
","
","
","""event"",""trial"",""time""
""fullscreenenter"",""5"",""16810""
","
",439.5099999383092,NA,49,NA,NA,3000,1,NA,NA,images/earth.jpg,images/rocket1,images/rocket2,null,images/rocket2,NA,1,real,null,1,NA,NA,NA,sub145
d3-animate-choice,250,886684,0.0-76.0-1.38,FALSE,TRUE,TRUE,TRUE,"""event"",""trial"",""time""
""fullscreenenter"",""5"",""16810""
","
","
","""event"",""trial"",""time""
""fullscreenenter"",""5"",""16810""
","
",722.940000006929,NA,48,NA,NA,3000,1,NA,NA,images/purpleplanet.jpg,images/alien4,images/alien3,images/rocket2,images/alien4,images/t.png,2,real,true,2,common,1,2020-06-24T22:16:41Z,sub145
two-step-fixation,251,887687,0.0-76.0-2.38,FALSE,TRUE,TRUE,TRUE,"""event"",""trial"",""time""
""fullscreenenter"",""5"",""16810""
","
","
","""event"",""trial"",""time""
""fullscreenenter"",""5"",""16810""
","
",NA,images/earth.jpg,NA,NA,NA,NA,NA,NA,NA,NA,NA,NA,NA,NA,NA,fixation,NA,NA,NA,NA,NA,NA,sub145
d3-animate-choice,252,890214,0.0-76.0-0.39,FALSE,TRUE,TRUE,TRUE,"""event"",""trial"",""time""
""fullscreenenter"",""5"",""16810""
","
","
","""event"",""trial"",""time""
""fullscreenenter"",""5"",""16810""
","
",524.1300000343472,NA,49,NA,NA,3000,1,NA,NA,images/earth.jpg,images/rocket1,images/rocket2,null,images/rocket2,NA,1,real,null,1,NA,NA,NA,sub145
d3-animate-choice,253,892646,0.0-76.0-1.39,FALSE,TRUE,TRUE,TRUE,"""event"",""trial"",""time""
""fullscreenenter"",""5"",""16810""
","
","
","""event"",""trial"",""time""
""fullscreenenter"",""5"",""16810""
","
",426.7649999819696,NA,48,NA,NA,3000,1,NA,NA,images/purpleplanet.jpg,images/alien4,images/alien3,images/rocket2,images/alien4,images/t.png,2,real,true,2,common,1,2020-06-24T22:16:46Z,sub145
two-step-fixation,254,893648,0.0-76.0-2.39,FALSE,TRUE,TRUE,TRUE,"""event"",""trial"",""time""
""fullscreenenter"",""5"",""16810""
","
","
","""event"",""trial"",""time""
""fullscreenenter"",""5"",""16810""
","
",NA,images/earth.jpg,NA,NA,NA,NA,NA,NA,NA,NA,NA,NA,NA,NA,NA,fixation,NA,NA,NA,NA,NA,NA,sub145
d3-animate-choice,255,895958,0.0-76.0-0.40,FALSE,TRUE,TRUE,TRUE,"""event"",""trial"",""time""
""fullscreenenter"",""5"",""16810""
","
","
","""event"",""trial"",""time""
""fullscreenenter"",""5"",""16810""
","
",305.1549999509007,NA,49,NA,NA,3000,1,NA,NA,images/earth.jpg,images/rocket1,images/rocket2,null,images/rocket2,NA,1,real,null,1,NA,NA,NA,sub145
d3-animate-choice,256,898366,0.0-76.0-1.40,FALSE,TRUE,TRUE,TRUE,"""event"",""trial"",""time""
""fullscreenenter"",""5"",""16810""
","
","
","""event"",""trial"",""time""
""fullscreenenter"",""5"",""16810""
","
",403.42499990947545,NA,48,NA,NA,3000,1,NA,NA,images/purpleplanet.jpg,images/alien4,images/alien3,images/rocket2,images/alien4,images/t.png,2,real,true,2,common,1,2020-06-24T22:16:52Z,sub145
two-step-fixation,257,899370,0.0-76.0-2.40,FALSE,TRUE,TRUE,TRUE,"""event"",""trial"",""time""
""fullscreenenter"",""5"",""16810""
","
","
","""event"",""trial"",""time""
""fullscreenenter"",""5"",""16810""
","
",NA,images/earth.jpg,NA,NA,NA,NA,NA,NA,NA,NA,NA,NA,NA,NA,NA,fixation,NA,NA,NA,NA,NA,NA,sub145
d3-animate-choice,258,901710,0.0-76.0-0.41,FALSE,TRUE,TRUE,TRUE,"""event"",""trial"",""time""
""fullscreenenter"",""5"",""16810""
","
","
","""event"",""trial"",""time""
""fullscreenenter"",""5"",""16810""
","
",335.6449999846518,NA,49,NA,NA,3000,1,NA,NA,images/earth.jpg,images/rocket1,images/rocket2,null,images/rocket2,NA,1,real,null,1,NA,NA,NA,sub145
d3-animate-choice,259,904101,0.0-76.0-1.41,FALSE,TRUE,TRUE,TRUE,"""event"",""trial"",""time""
""fullscreenenter"",""5"",""16810""
","
","
","""event"",""trial"",""time""
""fullscreenenter"",""5"",""16810""
","
",387.68000004347414,NA,48,NA,NA,3000,1,NA,NA,images/purpleplanet.jpg,images/alien4,images/alien3,images/rocket2,images/alien4,images/t.png,2,real,true,2,common,1,2020-06-24T22:16:58Z,sub145
two-step-fixation,260,905104,0.0-76.0-2.41,FALSE,TRUE,TRUE,TRUE,"""event"",""trial"",""time""
""fullscreenenter"",""5"",""16810""
","
","
","""event"",""trial"",""time""
""fullscreenenter"",""5"",""16810""
","
",NA,images/earth.jpg,NA,NA,NA,NA,NA,NA,NA,NA,NA,NA,NA,NA,NA,fixation,NA,NA,NA,NA,NA,NA,sub145
d3-animate-choice,261,907425,0.0-76.0-0.42,FALSE,TRUE,TRUE,TRUE,"""event"",""trial"",""time""
""fullscreenenter"",""5"",""16810""
","
","
","""event"",""trial"",""time""
""fullscreenenter"",""5"",""16810""
","
",312.81499995384365,NA,49,NA,NA,3000,1,NA,NA,images/earth.jpg,images/rocket1,images/rocket2,null,images/rocket2,NA,1,real,null,1,NA,NA,NA,sub145
d3-animate-choice,262,910038,0.0-76.0-1.42,FALSE,TRUE,TRUE,TRUE,"""event"",""trial"",""time""
""fullscreenenter"",""5"",""16810""
","
","
","""event"",""trial"",""time""
""fullscreenenter"",""5"",""16810""
","
",607.7100000111386,NA,49,NA,NA,3000,1,NA,NA,images/redplanet1.jpg,images/alien2,images/alien1,images/rocket2,images/alien1,images/t.png,2,real,false,1,rare,1,2020-06-24T22:17:04Z,sub145
two-step-fixation,263,911043,0.0-76.0-2.42,FALSE,TRUE,TRUE,TRUE,"""event"",""trial"",""time""
""fullscreenenter"",""5"",""16810""
","
","
","""event"",""trial"",""time""
""fullscreenenter"",""5"",""16810""
","
",NA,images/earth.jpg,NA,NA,NA,NA,NA,NA,NA,NA,NA,NA,NA,NA,NA,fixation,NA,NA,NA,NA,NA,NA,sub145
d3-animate-choice,264,913342,0.0-76.0-0.43,FALSE,TRUE,TRUE,TRUE,"""event"",""trial"",""time""
""fullscreenenter"",""5"",""16810""
","
","
","""event"",""trial"",""time""
""fullscreenenter"",""5"",""16810""
","
",294.7849999181926,NA,49,NA,NA,3000,1,NA,NA,images/earth.jpg,images/rocket1,images/rocket2,null,images/rocket2,NA,1,real,null,1,NA,NA,NA,sub145
d3-animate-choice,265,915972,0.0-76.0-1.43,FALSE,TRUE,TRUE,TRUE,"""event"",""trial"",""time""
""fullscreenenter"",""5"",""16810""
","
","
","""event"",""trial"",""time""
""fullscreenenter"",""5"",""16810""
","
",627.3500000825152,NA,48,NA,NA,3000,1,NA,NA,images/purpleplanet.jpg,images/alien4,images/alien3,images/rocket2,images/alien4,images/t.png,2,real,true,2,common,1,2020-06-24T22:17:10Z,sub145
two-step-fixation,266,916975,0.0-76.0-2.43,FALSE,TRUE,TRUE,TRUE,"""event"",""trial"",""time""
""fullscreenenter"",""5"",""16810""
","
","
","""event"",""trial"",""time""
""fullscreenenter"",""5"",""16810""
","
",NA,images/earth.jpg,NA,NA,NA,NA,NA,NA,NA,NA,NA,NA,NA,NA,NA,fixation,NA,NA,NA,NA,NA,NA,sub145
d3-animate-choice,267,919389,0.0-76.0-0.44,FALSE,TRUE,TRUE,TRUE,"""event"",""trial"",""time""
""fullscreenenter"",""5"",""16810""
","
","
","""event"",""trial"",""time""
""fullscreenenter"",""5"",""16810""
","
",409.8099999828264,NA,49,NA,NA,3000,1,NA,NA,images/earth.jpg,images/rocket1,images/rocket2,null,images/rocket2,NA,1,real,null,1,NA,NA,NA,sub145
d3-animate-choice,268,922192,0.0-76.0-1.44,FALSE,TRUE,TRUE,TRUE,"""event"",""trial"",""time""
""fullscreenenter"",""5"",""16810""
","
","
","""event"",""trial"",""time""
""fullscreenenter"",""5"",""16810""
","
",795.8850000286475,NA,48,NA,NA,3000,1,NA,NA,images/purpleplanet.jpg,images/alien4,images/alien3,images/rocket2,images/alien4,images/t.png,2,real,true,2,common,1,2020-06-24T22:17:16Z,sub145
two-step-fixation,269,923198,0.0-76.0-2.44,FALSE,TRUE,TRUE,TRUE,"""event"",""trial"",""time""
""fullscreenenter"",""5"",""16810""
","
","
","""event"",""trial"",""time""
""fullscreenenter"",""5"",""16810""
","
",NA,images/earth.jpg,NA,NA,NA,NA,NA,NA,NA,NA,NA,NA,NA,NA,NA,fixation,NA,NA,NA,NA,NA,NA,sub145
d3-animate-choice,270,925469,0.0-76.0-0.45,FALSE,TRUE,TRUE,TRUE,"""event"",""trial"",""time""
""fullscreenenter"",""5"",""16810""
","
","
","""event"",""trial"",""time""
""fullscreenenter"",""5"",""16810""
","
",267.640000092797,NA,49,NA,NA,3000,1,NA,NA,images/earth.jpg,images/rocket1,images/rocket2,null,images/rocket2,NA,1,real,null,1,NA,NA,NA,sub145
d3-animate-choice,271,927901,0.0-76.0-1.45,FALSE,TRUE,TRUE,TRUE,"""event"",""trial"",""time""
""fullscreenenter"",""5"",""16810""
","
","
","""event"",""trial"",""time""
""fullscreenenter"",""5"",""16810""
","
",428.4650000045076,NA,48,NA,NA,3000,1,NA,NA,images/purpleplanet.jpg,images/alien4,images/alien3,images/rocket2,images/alien4,images/nothing.png,2,real,true,2,common,0,2020-06-24T22:17:22Z,sub145
two-step-fixation,272,928906,0.0-76.0-2.45,FALSE,TRUE,TRUE,TRUE,"""event"",""trial"",""time""
""fullscreenenter"",""5"",""16810""
","
","
","""event"",""trial"",""time""
""fullscreenenter"",""5"",""16810""
","
",NA,images/earth.jpg,NA,NA,NA,NA,NA,NA,NA,NA,NA,NA,NA,NA,NA,fixation,NA,NA,NA,NA,NA,NA,sub145
d3-animate-choice,273,931158,0.0-76.0-0.46,FALSE,TRUE,TRUE,TRUE,"""event"",""trial"",""time""
""fullscreenenter"",""5"",""16810""
","
","
","""event"",""trial"",""time""
""fullscreenenter"",""5"",""16810""
","
",246.5500000398606,NA,49,NA,NA,3000,1,NA,NA,images/earth.jpg,images/rocket1,images/rocket2,null,images/rocket2,NA,1,real,null,1,NA,NA,NA,sub145
d3-animate-choice,274,933565,0.0-76.0-1.46,FALSE,TRUE,TRUE,TRUE,"""event"",""trial"",""time""
""fullscreenenter"",""5"",""16810""
","
","
","""event"",""trial"",""time""
""fullscreenenter"",""5"",""16810""
","
",402.92999998200685,NA,48,NA,NA,3000,1,NA,NA,images/purpleplanet.jpg,images/alien4,images/alien3,images/rocket2,images/alien4,images/nothing.png,2,real,true,2,common,0,2020-06-24T22:17:27Z,sub145
two-step-fixation,275,934568,0.0-76.0-2.46,FALSE,TRUE,TRUE,TRUE,"""event"",""trial"",""time""
""fullscreenenter"",""5"",""16810""
","
","
","""event"",""trial"",""time""
""fullscreenenter"",""5"",""16810""
","
",NA,images/earth.jpg,NA,NA,NA,NA,NA,NA,NA,NA,NA,NA,NA,NA,NA,fixation,NA,NA,NA,NA,NA,NA,sub145
d3-animate-choice,276,936895,0.0-76.0-0.47,FALSE,TRUE,TRUE,TRUE,"""event"",""trial"",""time""
""fullscreenenter"",""5"",""16810""
","
","
","""event"",""trial"",""time""
""fullscreenenter"",""5"",""16810""
","
",321.76500000059605,NA,49,NA,NA,3000,1,NA,NA,images/earth.jpg,images/rocket1,images/rocket2,null,images/rocket2,NA,1,real,null,1,NA,NA,NA,sub145
d3-animate-choice,277,939508,0.0-76.0-1.47,FALSE,TRUE,TRUE,TRUE,"""event"",""trial"",""time""
""fullscreenenter"",""5"",""16810""
","
","
","""event"",""trial"",""time""
""fullscreenenter"",""5"",""16810""
","
",609.6299999626353,NA,49,NA,NA,3000,1,NA,NA,images/redplanet1.jpg,images/alien2,images/alien1,images/rocket2,images/alien1,images/nothing.png,2,real,false,1,rare,0,2020-06-24T22:17:33Z,sub145
two-step-fixation,278,940510,0.0-76.0-2.47,FALSE,TRUE,TRUE,TRUE,"""event"",""trial"",""time""
""fullscreenenter"",""5"",""16810""
","
","
","""event"",""trial"",""time""
""fullscreenenter"",""5"",""16810""
","
",NA,images/earth.jpg,NA,NA,NA,NA,NA,NA,NA,NA,NA,NA,NA,NA,NA,fixation,NA,NA,NA,NA,NA,NA,sub145
d3-animate-choice,279,942911,0.0-76.0-0.48,FALSE,TRUE,TRUE,TRUE,"""event"",""trial"",""time""
""fullscreenenter"",""5"",""16810""
","
","
","""event"",""trial"",""time""
""fullscreenenter"",""5"",""16810""
","
",393.6299999477342,NA,49,NA,NA,3000,1,NA,NA,images/earth.jpg,images/rocket1,images/rocket2,null,images/rocket2,NA,1,real,null,1,NA,NA,NA,sub145
d3-animate-choice,280,945524,0.0-76.0-1.48,FALSE,TRUE,TRUE,TRUE,"""event"",""trial"",""time""
""fullscreenenter"",""5"",""16810""
","
","
","""event"",""trial"",""time""
""fullscreenenter"",""5"",""16810""
","
",610.8249999815598,NA,49,NA,NA,3000,1,NA,NA,images/purpleplanet.jpg,images/alien4,images/alien3,images/rocket2,images/alien3,images/t.png,2,real,true,1,common,1,2020-06-24T22:17:39Z,sub145
two-step-fixation,281,946527,0.0-76.0-2.48,FALSE,TRUE,TRUE,TRUE,"""event"",""trial"",""time""
""fullscreenenter"",""5"",""16810""
","
","
","""event"",""trial"",""time""
""fullscreenenter"",""5"",""16810""
","
",NA,images/earth.jpg,NA,NA,NA,NA,NA,NA,NA,NA,NA,NA,NA,NA,NA,fixation,NA,NA,NA,NA,NA,NA,sub145
d3-animate-choice,282,949014,0.0-76.0-0.49,FALSE,TRUE,TRUE,TRUE,"""event"",""trial"",""time""
""fullscreenenter"",""5"",""16810""
","
","
","""event"",""trial"",""time""
""fullscreenenter"",""5"",""16810""
","
",484.19500002637506,NA,49,NA,NA,3000,1,NA,NA,images/earth.jpg,images/rocket1,images/rocket2,null,images/rocket2,NA,1,real,null,1,NA,NA,NA,sub145
d3-animate-choice,283,951502,0.0-76.0-1.49,FALSE,TRUE,TRUE,TRUE,"""event"",""trial"",""time""
""fullscreenenter"",""5"",""16810""
","
","
","""event"",""trial"",""time""
""fullscreenenter"",""5"",""16810""
","
",483.35999995470047,NA,49,NA,NA,3000,1,NA,NA,images/purpleplanet.jpg,images/alien4,images/alien3,images/rocket2,images/alien3,images/nothing.png,2,real,true,1,common,0,2020-06-24T22:17:45Z,sub145
