trial_type,trial_index,time_elapsed,internal_node_id,rocket_sides,red_planet_first_rocket,red_display_order,purple_display_order,interactions,blur_events,focus_events,fullscreenenter_events,fullscreenexit_events,rt,stimulus,key_press,button_pressed,success,duration,valid_pressed,rts,keys,planet_text,right_text,left_text,center_text,chosen_text,reward_text,trial_stage,practice_trial,transition_type,choice,transition,reward,timestamp,subject_id
pavlovia,0,16,0.0-0.0,TRUE,FALSE,FALSE,TRUE,"
","
","
","
","
",NA,NA,NA,NA,NA,NA,NA,NA,NA,NA,NA,NA,NA,NA,NA,NA,NA,NA,NA,NA,NA,NA,sub76
html-keyboard-response,1,1881,0.0-1.0,TRUE,FALSE,FALSE,TRUE,"
","
","
","
","
",1862.6349999999547,Welcome! Press the space bar to begin.,32,NA,NA,NA,NA,NA,NA,NA,NA,NA,NA,NA,NA,NA,NA,NA,NA,NA,NA,NA,sub76
audio-keyboard-response,2,7037,0.0-2.0,TRUE,FALSE,FALSE,TRUE,"
","
","
","
","
",5120,audio/beep_loop.wav,32,NA,NA,NA,NA,NA,NA,NA,NA,NA,NA,NA,NA,NA,NA,NA,NA,NA,NA,NA,sub76
audio-button-response,3,11482,0.0-3.0,TRUE,FALSE,FALSE,TRUE,"
","
","
","
","
",NaN,audio/fish.mp3,NA,1,NA,NA,NA,NA,NA,NA,NA,NA,NA,NA,NA,NA,NA,NA,NA,NA,NA,NA,sub76
audio-button-response,4,15067,0.0-4.0,TRUE,FALSE,FALSE,TRUE,"""event"",""trial"",""time""
""fullscreenenter"",""5"",""22150""
","
","
","""event"",""trial"",""time""
""fullscreenenter"",""5"",""22150""
","
",NaN,audio/tiger.mp3,NA,4,NA,NA,NA,NA,NA,NA,NA,NA,NA,NA,NA,NA,NA,NA,NA,NA,NA,NA,sub76
fullscreen,5,23127,0.0-5.0,TRUE,FALSE,FALSE,TRUE,"""event"",""trial"",""time""
""fullscreenenter"",""5"",""22150""
","
","
","""event"",""trial"",""time""
""fullscreenenter"",""5"",""22150""
","
",NA,NA,NA,NA,TRUE,NA,NA,NA,NA,NA,NA,NA,NA,NA,NA,NA,NA,NA,NA,NA,NA,NA,sub76
d3-instructions,6,37433,0.0-6.0,TRUE,FALSE,FALSE,TRUE,"""event"",""trial"",""time""
""fullscreenenter"",""5"",""22150""
","
","
","""event"",""trial"",""time""
""fullscreenenter"",""5"",""22150""
","
",NA,NA,NA,NA,NA,NA,NA,NA,NA,NA,NA,NA,NA,NA,NA,NA,NA,NA,NA,NA,NA,NA,sub76
d3-instructions,7,47666,0.0-7.0,TRUE,FALSE,FALSE,TRUE,"""event"",""trial"",""time""
""fullscreenenter"",""5"",""22150""
","
","
","""event"",""trial"",""time""
""fullscreenenter"",""5"",""22150""
","
",NA,NA,NA,NA,NA,NA,NA,NA,NA,NA,NA,NA,NA,NA,NA,NA,NA,NA,NA,NA,NA,NA,sub76
d3-instructions,8,55946,0.0-8.0,TRUE,FALSE,FALSE,TRUE,"""event"",""trial"",""time""
""fullscreenenter"",""5"",""22150""
","
","
","""event"",""trial"",""time""
""fullscreenenter"",""5"",""22150""
","
",NA,NA,NA,NA,NA,NA,NA,NA,NA,NA,NA,NA,NA,NA,NA,NA,NA,NA,NA,NA,NA,NA,sub76
d3-instructions,9,67696,0.0-9.0,TRUE,FALSE,FALSE,TRUE,"""event"",""trial"",""time""
""fullscreenenter"",""5"",""22150""
","
","
","""event"",""trial"",""time""
""fullscreenenter"",""5"",""22150""
","
",NA,NA,NA,NA,NA,NA,NA,NA,NA,NA,NA,NA,NA,NA,NA,NA,NA,NA,NA,NA,NA,NA,sub76
d3-instructions,10,100269,0.0-10.0,TRUE,FALSE,FALSE,TRUE,"""event"",""trial"",""time""
""fullscreenenter"",""5"",""22150""
","
","
","""event"",""trial"",""time""
""fullscreenenter"",""5"",""22150""
","
",NA,NA,NA,NA,NA,NA,NA,NA,NA,NA,NA,NA,NA,NA,NA,NA,NA,NA,NA,NA,NA,NA,sub76
d3-animate-choice,11,104197,0.0-11.0,TRUE,FALSE,FALSE,TRUE,"""event"",""trial"",""time""
""fullscreenenter"",""5"",""22150""
","
","
","""event"",""trial"",""time""
""fullscreenenter"",""5"",""22150""
","
",1908.6549999999406,NA,49,NA,NA,3000,1,3088.600000000035,48,images/tutgreenplanet.jpg,images/tutalien1,images/tutalien2,null,images/tutalien2,NA,NA,practice,null,NA,NA,NA,NA,sub76
d3-animate-choice,12,106841,0.0-12.0,TRUE,FALSE,FALSE,TRUE,"""event"",""trial"",""time""
""fullscreenenter"",""5"",""22150""
","
","
","""event"",""trial"",""time""
""fullscreenenter"",""5"",""22150""
","
",633.880000000092,NA,48,NA,NA,3000,1,1772.7750000001397,32,images/tutgreenplanet.jpg,images/tutalien1,images/tutalien2,null,images/tutalien1,NA,NA,practice,null,NA,NA,NA,NA,sub76
d3-animate-choice,13,111251,0.0-13.0,TRUE,FALSE,FALSE,TRUE,"""event"",""trial"",""time""
""fullscreenenter"",""5"",""22150""
","
","
","""event"",""trial"",""time""
""fullscreenenter"",""5"",""22150""
","
",2400.215000000113,NA,49,NA,NA,3000,1,"2638.779999999999,2734.7400000000926,2943.220000000103,3483.87999999999,4185.040000000066",4849483232,images/tutgreenplanet.jpg,images/tutalien1,images/tutalien2,null,images/tutalien2,NA,NA,practice,null,NA,NA,NA,NA,sub76
d3-animate-choice,14,113810,0.0-14.0,TRUE,FALSE,FALSE,TRUE,"""event"",""trial"",""time""
""fullscreenenter"",""5"",""22150""
","
","
","""event"",""trial"",""time""
""fullscreenenter"",""5"",""22150""
","
",551.3549999998213,NA,48,NA,NA,3000,1,"1252.375000000029,2108.7749999999214",3232,images/tutgreenplanet.jpg,images/tutalien1,images/tutalien2,null,images/tutalien1,NA,NA,practice,null,NA,NA,NA,NA,sub76
d3-instructions,15,122017,0.0-15.0,TRUE,FALSE,FALSE,TRUE,"""event"",""trial"",""time""
""fullscreenenter"",""5"",""22150""
","
","
","""event"",""trial"",""time""
""fullscreenenter"",""5"",""22150""
","
",NA,NA,NA,NA,NA,NA,NA,NA,NA,NA,NA,NA,NA,NA,NA,NA,NA,NA,NA,NA,NA,NA,sub76
d3-instructions,16,133322,0.0-16.0,TRUE,FALSE,FALSE,TRUE,"""event"",""trial"",""time""
""fullscreenenter"",""5"",""22150""
","
","
","""event"",""trial"",""time""
""fullscreenenter"",""5"",""22150""
","
",NA,NA,NA,NA,NA,NA,NA,NA,NA,NA,NA,NA,NA,NA,NA,NA,NA,NA,NA,NA,NA,NA,sub76
d3-instructions,17,145235,0.0-17.0,TRUE,FALSE,FALSE,TRUE,"""event"",""trial"",""time""
""fullscreenenter"",""5"",""22150""
","
","
","""event"",""trial"",""time""
""fullscreenenter"",""5"",""22150""
","
",NA,NA,NA,NA,NA,NA,NA,NA,NA,NA,NA,NA,NA,NA,NA,NA,NA,NA,NA,NA,NA,NA,sub76
d3-instructions,18,158100,0.0-18.0,TRUE,FALSE,FALSE,TRUE,"""event"",""trial"",""time""
""fullscreenenter"",""5"",""22150""
","
","
","""event"",""trial"",""time""
""fullscreenenter"",""5"",""22150""
","
",NA,NA,NA,NA,NA,NA,NA,NA,NA,NA,NA,NA,NA,NA,NA,NA,NA,NA,NA,NA,NA,NA,sub76
d3-instructions,19,173744,0.0-19.0,TRUE,FALSE,FALSE,TRUE,"""event"",""trial"",""time""
""fullscreenenter"",""5"",""22150""
","
","
","""event"",""trial"",""time""
""fullscreenenter"",""5"",""22150""
","
",NA,NA,NA,NA,NA,NA,NA,NA,NA,NA,NA,NA,NA,NA,NA,NA,NA,NA,NA,NA,NA,NA,sub76
d3-animate-choice,20,177055,0.0-20.0,TRUE,FALSE,FALSE,TRUE,"""event"",""trial"",""time""
""fullscreenenter"",""5"",""22150""
","
","
","""event"",""trial"",""time""
""fullscreenenter"",""5"",""22150""
","
",1302.9500000000116,NA,49,NA,NA,3000,1,2056.7350000001315,49,images/tutyellowplanet.jpg,null,images/tutalien3,null,images/tutalien3,images/t.png,NA,practice,null,NA,NA,NA,NA,sub76
d3-animate-choice,21,179847,0.0-21.0,TRUE,FALSE,FALSE,TRUE,"""event"",""trial"",""time""
""fullscreenenter"",""5"",""22150""
","
","
","""event"",""trial"",""time""
""fullscreenenter"",""5"",""22150""
","
",786.9499999999243,NA,49,NA,NA,3000,1,NA,NA,images/tutyellowplanet.jpg,null,images/tutalien3,null,images/tutalien3,images/t.png,NA,practice,null,NA,NA,NA,NA,sub76
d3-animate-choice,22,182253,0.0-22.0,TRUE,FALSE,FALSE,TRUE,"""event"",""trial"",""time""
""fullscreenenter"",""5"",""22150""
","
","
","""event"",""trial"",""time""
""fullscreenenter"",""5"",""22150""
","
",398.47999999983585,NA,49,NA,NA,3000,1,NA,NA,images/tutyellowplanet.jpg,null,images/tutalien3,null,images/tutalien3,images/nothing.png,NA,practice,null,NA,NA,NA,NA,sub76
d3-animate-choice,23,184817,0.0-23.0,TRUE,FALSE,FALSE,TRUE,"""event"",""trial"",""time""
""fullscreenenter"",""5"",""22150""
","
","
","""event"",""trial"",""time""
""fullscreenenter"",""5"",""22150""
","
",554.7049999997835,NA,49,NA,NA,3000,1,NA,NA,images/tutyellowplanet.jpg,null,images/tutalien3,null,images/tutalien3,images/t.png,NA,practice,null,NA,NA,NA,NA,sub76
d3-animate-choice,24,187860,0.0-24.0,TRUE,FALSE,FALSE,TRUE,"""event"",""trial"",""time""
""fullscreenenter"",""5"",""22150""
","
","
","""event"",""trial"",""time""
""fullscreenenter"",""5"",""22150""
","
",1035.5849999998463,NA,49,NA,NA,3000,1,NA,NA,images/tutyellowplanet.jpg,null,images/tutalien3,null,images/tutalien3,images/t.png,NA,practice,null,NA,NA,NA,NA,sub76
d3-animate-choice,25,190910,0.0-25.0,TRUE,FALSE,FALSE,TRUE,"""event"",""trial"",""time""
""fullscreenenter"",""5"",""22150""
","
","
","""event"",""trial"",""time""
""fullscreenenter"",""5"",""22150""
","
",1043.0599999999686,NA,49,NA,NA,3000,1,NA,NA,images/tutyellowplanet.jpg,null,images/tutalien3,null,images/tutalien3,images/t.png,NA,practice,null,NA,NA,NA,NA,sub76
d3-animate-choice,26,195971,0.0-26.0,TRUE,FALSE,FALSE,TRUE,"""event"",""trial"",""time""
""fullscreenenter"",""5"",""22150""
","
","
","""event"",""trial"",""time""
""fullscreenenter"",""5"",""22150""
","
",3053.324999999866,NA,49,NA,NA,3000,1,NA,NA,images/tutyellowplanet.jpg,null,images/tutalien3,null,images/tutalien3,images/t.png,NA,practice,null,NA,NA,NA,NA,sub76
d3-animate-choice,27,199020,0.0-27.0,TRUE,FALSE,FALSE,TRUE,"""event"",""trial"",""time""
""fullscreenenter"",""5"",""22150""
","
","
","""event"",""trial"",""time""
""fullscreenenter"",""5"",""22150""
","
",1036.0299999999697,NA,49,NA,NA,3000,1,NA,NA,images/tutyellowplanet.jpg,null,images/tutalien3,null,images/tutalien3,images/t.png,NA,practice,null,NA,NA,NA,NA,sub76
d3-animate-choice,28,201832,0.0-28.0,TRUE,FALSE,FALSE,TRUE,"""event"",""trial"",""time""
""fullscreenenter"",""5"",""22150""
","
","
","""event"",""trial"",""time""
""fullscreenenter"",""5"",""22150""
","
",806.2299999999232,NA,49,NA,NA,3000,1,NA,NA,images/tutyellowplanet.jpg,null,images/tutalien3,null,images/tutalien3,images/t.png,NA,practice,null,NA,NA,NA,NA,sub76
d3-animate-choice,29,204146,0.0-29.0,TRUE,FALSE,FALSE,TRUE,"""event"",""trial"",""time""
""fullscreenenter"",""5"",""22150""
","
","
","""event"",""trial"",""time""
""fullscreenenter"",""5"",""22150""
","
",307.04000000015367,NA,49,NA,NA,3000,1,NA,NA,images/tutyellowplanet.jpg,null,images/tutalien3,null,images/tutalien3,images/t.png,NA,practice,null,NA,NA,NA,NA,sub76
d3-instructions,30,213158,0.0-30.0,TRUE,FALSE,FALSE,TRUE,"""event"",""trial"",""time""
""fullscreenenter"",""5"",""22150""
","
","
","""event"",""trial"",""time""
""fullscreenenter"",""5"",""22150""
","
",NA,NA,NA,NA,NA,NA,NA,NA,NA,NA,NA,NA,NA,NA,NA,NA,NA,NA,NA,NA,NA,NA,sub76
d3-instructions,31,226840,0.0-31.0,TRUE,FALSE,FALSE,TRUE,"""event"",""trial"",""time""
""fullscreenenter"",""5"",""22150""
","
","
","""event"",""trial"",""time""
""fullscreenenter"",""5"",""22150""
","
",NA,NA,NA,NA,NA,NA,NA,NA,NA,NA,NA,NA,NA,NA,NA,NA,NA,NA,NA,NA,NA,NA,sub76
d3-instructions,32,239070,0.0-32.0,TRUE,FALSE,FALSE,TRUE,"""event"",""trial"",""time""
""fullscreenenter"",""5"",""22150""
","
","
","""event"",""trial"",""time""
""fullscreenenter"",""5"",""22150""
","
",NA,NA,NA,NA,NA,NA,NA,NA,NA,NA,NA,NA,NA,NA,NA,NA,NA,NA,NA,NA,NA,NA,sub76
d3-instructions,33,249432,0.0-33.0,TRUE,FALSE,FALSE,TRUE,"""event"",""trial"",""time""
""fullscreenenter"",""5"",""22150""
","
","
","""event"",""trial"",""time""
""fullscreenenter"",""5"",""22150""
","
",NA,NA,NA,NA,NA,NA,NA,NA,NA,NA,NA,NA,NA,NA,NA,NA,NA,NA,NA,NA,NA,NA,sub76
d3-animate-choice,34,253366,0.0-34.0,TRUE,FALSE,FALSE,TRUE,"""event"",""trial"",""time""
""fullscreenenter"",""5"",""22150""
","
","
","""event"",""trial"",""time""
""fullscreenenter"",""5"",""22150""
","
",1928.5999999999476,NA,49,NA,NA,3000,1,NA,NA,images/tutgreenplanet.jpg,images/tutalien1,images/tutalien2,null,images/tutalien2,images/nothing.png,NA,practice,null,NA,NA,NA,NA,sub76
d3-animate-choice,35,256955,0.0-35.0,TRUE,FALSE,FALSE,TRUE,"""event"",""trial"",""time""
""fullscreenenter"",""5"",""22150""
","
","
","""event"",""trial"",""time""
""fullscreenenter"",""5"",""22150""
","
",1580.8250000000116,NA,48,NA,NA,3000,1,NA,NA,images/tutgreenplanet.jpg,images/tutalien1,images/tutalien2,null,images/tutalien1,images/nothing.png,NA,practice,null,NA,NA,NA,NA,sub76
d3-animate-choice,36,259771,0.0-36.0,TRUE,FALSE,FALSE,TRUE,"""event"",""trial"",""time""
""fullscreenenter"",""5"",""22150""
","
","
","""event"",""trial"",""time""
""fullscreenenter"",""5"",""22150""
","
",807.4799999999232,NA,48,NA,NA,3000,1,NA,NA,images/tutgreenplanet.jpg,images/tutalien1,images/tutalien2,null,images/tutalien1,images/nothing.png,NA,practice,null,NA,NA,NA,NA,sub76
d3-animate-choice,37,262272,0.0-37.0,TRUE,FALSE,FALSE,TRUE,"""event"",""trial"",""time""
""fullscreenenter"",""5"",""22150""
","
","
","""event"",""trial"",""time""
""fullscreenenter"",""5"",""22150""
","
",493.33500000007916,NA,49,NA,NA,3000,1,NA,NA,images/tutgreenplanet.jpg,images/tutalien1,images/tutalien2,null,images/tutalien2,images/t.png,NA,practice,null,NA,NA,NA,NA,sub76
d3-animate-choice,38,265427,0.0-38.0,TRUE,FALSE,FALSE,TRUE,"""event"",""trial"",""time""
""fullscreenenter"",""5"",""22150""
","
","
","""event"",""trial"",""time""
""fullscreenenter"",""5"",""22150""
","
",1147.3999999997905,NA,49,NA,NA,3000,1,NA,NA,images/tutgreenplanet.jpg,images/tutalien1,images/tutalien2,null,images/tutalien2,images/nothing.png,NA,practice,null,NA,NA,NA,NA,sub76
d3-animate-choice,39,267897,0.0-39.0,TRUE,FALSE,FALSE,TRUE,"""event"",""trial"",""time""
""fullscreenenter"",""5"",""22150""
","
","
","""event"",""trial"",""time""
""fullscreenenter"",""5"",""22150""
","
",461.0350000000326,NA,48,NA,NA,3000,1,NA,NA,images/tutgreenplanet.jpg,images/tutalien1,images/tutalien2,null,images/tutalien1,images/nothing.png,NA,practice,null,NA,NA,NA,NA,sub76
d3-animate-choice,40,270457,0.0-40.0,TRUE,FALSE,FALSE,TRUE,"""event"",""trial"",""time""
""fullscreenenter"",""5"",""22150""
","
","
","""event"",""trial"",""time""
""fullscreenenter"",""5"",""22150""
","
",552.4249999998137,NA,48,NA,NA,3000,1,NA,NA,images/tutgreenplanet.jpg,images/tutalien1,images/tutalien2,null,images/tutalien1,images/nothing.png,NA,practice,null,NA,NA,NA,NA,sub76
d3-animate-choice,41,272710,0.0-41.0,TRUE,FALSE,FALSE,TRUE,"""event"",""trial"",""time""
""fullscreenenter"",""5"",""22150""
","
","
","""event"",""trial"",""time""
""fullscreenenter"",""5"",""22150""
","
",245.95000000001164,NA,49,NA,NA,3000,1,NA,NA,images/tutgreenplanet.jpg,images/tutalien1,images/tutalien2,null,images/tutalien2,images/t.png,NA,practice,null,NA,NA,NA,NA,sub76
d3-animate-choice,42,275332,0.0-42.0,TRUE,FALSE,FALSE,TRUE,"""event"",""trial"",""time""
""fullscreenenter"",""5"",""22150""
","
","
","""event"",""trial"",""time""
""fullscreenenter"",""5"",""22150""
","
",613.1450000000186,NA,49,NA,NA,3000,1,NA,NA,images/tutgreenplanet.jpg,images/tutalien1,images/tutalien2,null,images/tutalien2,images/t.png,NA,practice,null,NA,NA,NA,NA,sub76
d3-animate-choice,43,277950,0.0-43.0,TRUE,FALSE,FALSE,TRUE,"""event"",""trial"",""time""
""fullscreenenter"",""5"",""22150""
","
","
","""event"",""trial"",""time""
""fullscreenenter"",""5"",""22150""
","
",610.3000000000466,NA,49,NA,NA,3000,1,NA,NA,images/tutgreenplanet.jpg,images/tutalien1,images/tutalien2,null,images/tutalien2,images/t.png,NA,practice,null,NA,NA,NA,NA,sub76
d3-instructions,44,292538,0.0-44.0,TRUE,FALSE,FALSE,TRUE,"""event"",""trial"",""time""
""fullscreenenter"",""5"",""22150""
","
","
","""event"",""trial"",""time""
""fullscreenenter"",""5"",""22150""
","
",NA,NA,NA,NA,NA,NA,NA,NA,NA,NA,NA,NA,NA,NA,NA,NA,NA,NA,NA,NA,NA,NA,sub76
d3-instructions,45,302784,0.0-45.0,TRUE,FALSE,FALSE,TRUE,"""event"",""trial"",""time""
""fullscreenenter"",""5"",""22150""
","
","
","""event"",""trial"",""time""
""fullscreenenter"",""5"",""22150""
","
",NA,NA,NA,NA,NA,NA,NA,NA,NA,NA,NA,NA,NA,NA,NA,NA,NA,NA,NA,NA,NA,NA,sub76
d3-instructions,46,308712,0.0-46.0,TRUE,FALSE,FALSE,TRUE,"""event"",""trial"",""time""
""fullscreenenter"",""5"",""22150""
","
","
","""event"",""trial"",""time""
""fullscreenenter"",""5"",""22150""
","
",NA,NA,NA,NA,NA,NA,NA,NA,NA,NA,NA,NA,NA,NA,NA,NA,NA,NA,NA,NA,NA,NA,sub76
d3-instructions,47,326322,0.0-47.0,TRUE,FALSE,FALSE,TRUE,"""event"",""trial"",""time""
""fullscreenenter"",""5"",""22150""
","
","
","""event"",""trial"",""time""
""fullscreenenter"",""5"",""22150""
","
",NA,NA,NA,NA,NA,NA,NA,NA,NA,NA,NA,NA,NA,NA,NA,NA,NA,NA,NA,NA,NA,NA,sub76
d3-instructions,48,332795,0.0-48.0,TRUE,FALSE,FALSE,TRUE,"""event"",""trial"",""time""
""fullscreenenter"",""5"",""22150""
","
","
","""event"",""trial"",""time""
""fullscreenenter"",""5"",""22150""
","
",NA,NA,NA,NA,NA,NA,NA,NA,NA,NA,NA,NA,NA,NA,NA,NA,NA,NA,NA,NA,NA,NA,sub76
d3-instructions,49,344613,0.0-49.0,TRUE,FALSE,FALSE,TRUE,"""event"",""trial"",""time""
""fullscreenenter"",""5"",""22150""
","
","
","""event"",""trial"",""time""
""fullscreenenter"",""5"",""22150""
","
",NA,NA,NA,NA,NA,NA,NA,NA,NA,NA,NA,NA,NA,NA,NA,NA,NA,NA,NA,NA,NA,NA,sub76
d3-instructions,50,355818,0.0-50.0,TRUE,FALSE,FALSE,TRUE,"""event"",""trial"",""time""
""fullscreenenter"",""5"",""22150""
","
","
","""event"",""trial"",""time""
""fullscreenenter"",""5"",""22150""
","
",NA,NA,NA,NA,NA,NA,NA,NA,NA,NA,NA,NA,NA,NA,NA,NA,NA,NA,NA,NA,NA,NA,sub76
d3-instructions,51,359671,0.0-51.0,TRUE,FALSE,FALSE,TRUE,"""event"",""trial"",""time""
""fullscreenenter"",""5"",""22150""
","
","
","""event"",""trial"",""time""
""fullscreenenter"",""5"",""22150""
","
",NA,NA,NA,NA,NA,NA,NA,NA,NA,NA,NA,NA,NA,NA,NA,NA,NA,NA,NA,NA,NA,NA,sub76
d3-instructions,52,364177,0.0-52.0,TRUE,FALSE,FALSE,TRUE,"""event"",""trial"",""time""
""fullscreenenter"",""5"",""22150""
","
","
","""event"",""trial"",""time""
""fullscreenenter"",""5"",""22150""
","
",NA,NA,NA,NA,NA,NA,NA,NA,NA,NA,NA,NA,NA,NA,NA,NA,NA,NA,NA,NA,NA,NA,sub76
d3-instructions,53,376658,0.0-53.0,TRUE,FALSE,FALSE,TRUE,"""event"",""trial"",""time""
""fullscreenenter"",""5"",""22150""
","
","
","""event"",""trial"",""time""
""fullscreenenter"",""5"",""22150""
","
",NA,NA,NA,NA,NA,NA,NA,NA,NA,NA,NA,NA,NA,NA,NA,NA,NA,NA,NA,NA,NA,NA,sub76
d3-instructions,54,392677,0.0-54.0,TRUE,FALSE,FALSE,TRUE,"""event"",""trial"",""time""
""fullscreenenter"",""5"",""22150""
","
","
","""event"",""trial"",""time""
""fullscreenenter"",""5"",""22150""
","
",NA,NA,NA,NA,NA,NA,NA,NA,NA,NA,NA,NA,NA,NA,NA,NA,NA,NA,NA,NA,NA,NA,sub76
d3-instructions,55,405165,0.0-55.0,TRUE,FALSE,FALSE,TRUE,"""event"",""trial"",""time""
""fullscreenenter"",""5"",""22150""
","
","
","""event"",""trial"",""time""
""fullscreenenter"",""5"",""22150""
","
",NA,NA,NA,NA,NA,NA,NA,NA,NA,NA,NA,NA,NA,NA,NA,NA,NA,NA,NA,NA,NA,NA,sub76
d3-instructions,56,418800,0.0-56.0,TRUE,FALSE,FALSE,TRUE,"""event"",""trial"",""time""
""fullscreenenter"",""5"",""22150""
","
","
","""event"",""trial"",""time""
""fullscreenenter"",""5"",""22150""
","
",NA,NA,NA,NA,NA,NA,NA,NA,NA,NA,NA,NA,NA,NA,NA,NA,NA,NA,NA,NA,NA,NA,sub76
d3-instructions,57,431997,0.0-57.0,TRUE,FALSE,FALSE,TRUE,"""event"",""trial"",""time""
""fullscreenenter"",""5"",""22150""
","
","
","""event"",""trial"",""time""
""fullscreenenter"",""5"",""22150""
","
",NA,NA,NA,NA,NA,NA,NA,NA,NA,NA,NA,NA,NA,NA,NA,NA,NA,NA,NA,NA,NA,NA,sub76
d3-instructions,58,449080,0.0-58.0,TRUE,FALSE,FALSE,TRUE,"""event"",""trial"",""time""
""fullscreenenter"",""5"",""22150""
","
","
","""event"",""trial"",""time""
""fullscreenenter"",""5"",""22150""
","
",NA,NA,NA,NA,NA,NA,NA,NA,NA,NA,NA,NA,NA,NA,NA,NA,NA,NA,NA,NA,NA,NA,sub76
d3-instructions,59,456672,0.0-59.0,TRUE,FALSE,FALSE,TRUE,"""event"",""trial"",""time""
""fullscreenenter"",""5"",""22150""
","
","
","""event"",""trial"",""time""
""fullscreenenter"",""5"",""22150""
","
",NA,NA,NA,NA,NA,NA,NA,NA,NA,NA,NA,NA,NA,NA,NA,NA,NA,NA,NA,NA,NA,NA,sub76
d3-instructions,60,464314,0.0-60.0,TRUE,FALSE,FALSE,TRUE,"""event"",""trial"",""time""
""fullscreenenter"",""5"",""22150""
","
","
","""event"",""trial"",""time""
""fullscreenenter"",""5"",""22150""
","
",NA,NA,NA,NA,NA,NA,NA,NA,NA,NA,NA,NA,NA,NA,NA,NA,NA,NA,NA,NA,NA,NA,sub76
d3-animate-choice,61,468321,0.0-61.0-0.0,TRUE,FALSE,FALSE,TRUE,"""event"",""trial"",""time""
""fullscreenenter"",""5"",""22150""
","
","
","""event"",""trial"",""time""
""fullscreenenter"",""5"",""22150""
","
",2911.3100000002305,NA,48,NA,NA,3000,1,NA,NA,images/earth.jpg,images/tutrocket2,images/tutrocket1,null,images/tutrocket2,NA,1,practice,null,2,NA,NA,NA,sub76
d3-animate-choice,62,472338,0.0-61.0-1.0,TRUE,FALSE,FALSE,TRUE,"""event"",""trial"",""time""
""fullscreenenter"",""5"",""22150""
","
","
","""event"",""trial"",""time""
""fullscreenenter"",""5"",""22150""
","
",37.49500000005355,NA,32,NA,NA,3000,1,2186.0100000001257,49,images/tutgreenplanet.jpg,images/tutalien2,images/tutalien1,images/tutrocket2,images/tutalien1,images/nothing.png,2,practice,true,NA,common,0,2020-06-22T22:19:11Z,sub76
two-step-fixation,63,473354,0.0-61.0-2.0,TRUE,FALSE,FALSE,TRUE,"""event"",""trial"",""time""
""fullscreenenter"",""5"",""22150""
","
","
","""event"",""trial"",""time""
""fullscreenenter"",""5"",""22150""
","
",NA,images/earth.jpg,NA,NA,NA,NA,NA,NA,NA,NA,NA,NA,NA,NA,NA,fixation,NA,NA,NA,NA,NA,NA,sub76
d3-animate-choice,64,477361,0.0-61.0-0.1,TRUE,FALSE,FALSE,TRUE,"""event"",""trial"",""time""
""fullscreenenter"",""5"",""22150""
","
","
","""event"",""trial"",""time""
""fullscreenenter"",""5"",""22150""
","
",2690.5999999999185,NA,48,NA,NA,3000,1,NA,NA,images/earth.jpg,images/tutrocket2,images/tutrocket1,null,images/tutrocket2,NA,1,practice,null,2,NA,NA,NA,sub76
d3-animate-choice,65,481371,0.0-61.0-1.1,TRUE,FALSE,FALSE,TRUE,"""event"",""trial"",""time""
""fullscreenenter"",""5"",""22150""
","
","
","""event"",""trial"",""time""
""fullscreenenter"",""5"",""22150""
","
",764.5999999999767,NA,50,NA,NA,3000,1,2019.8399999999092,48,images/tutgreenplanet.jpg,images/tutalien2,images/tutalien1,images/tutrocket2,images/tutalien2,images/nothing.png,2,practice,true,NA,common,0,2020-06-22T22:19:20Z,sub76
two-step-fixation,66,482380,0.0-61.0-2.1,TRUE,FALSE,FALSE,TRUE,"""event"",""trial"",""time""
""fullscreenenter"",""5"",""22150""
","
","
","""event"",""trial"",""time""
""fullscreenenter"",""5"",""22150""
","
",NA,images/earth.jpg,NA,NA,NA,NA,NA,NA,NA,NA,NA,NA,NA,NA,NA,fixation,NA,NA,NA,NA,NA,NA,sub76
d3-animate-choice,67,485423,0.0-61.0-0.2,TRUE,FALSE,FALSE,TRUE,"""event"",""trial"",""time""
""fullscreenenter"",""5"",""22150""
","
","
","""event"",""trial"",""time""
""fullscreenenter"",""5"",""22150""
","
",1033.2499999999418,NA,49,NA,NA,3000,1,NA,NA,images/earth.jpg,images/tutrocket2,images/tutrocket1,null,images/tutrocket1,NA,1,practice,null,1,NA,NA,NA,sub76
d3-animate-choice,68,488747,0.0-61.0-1.2,TRUE,FALSE,FALSE,TRUE,"""event"",""trial"",""time""
""fullscreenenter"",""5"",""22150""
","
","
","""event"",""trial"",""time""
""fullscreenenter"",""5"",""22150""
","
",1310.960000000021,NA,49,NA,NA,3000,1,NA,NA,images/tutgreenplanet.jpg,images/tutalien2,images/tutalien1,images/tutrocket1,images/tutalien1,images/nothing.png,2,practice,false,1,rare,0,2020-06-22T22:19:28Z,sub76
two-step-fixation,69,489757,0.0-61.0-2.2,TRUE,FALSE,FALSE,TRUE,"""event"",""trial"",""time""
""fullscreenenter"",""5"",""22150""
","
","
","""event"",""trial"",""time""
""fullscreenenter"",""5"",""22150""
","
",NA,images/earth.jpg,NA,NA,NA,NA,NA,NA,NA,NA,NA,NA,NA,NA,NA,fixation,NA,NA,NA,NA,NA,NA,sub76
d3-animate-choice,70,492546,0.0-61.0-0.3,TRUE,FALSE,FALSE,TRUE,"""event"",""trial"",""time""
""fullscreenenter"",""5"",""22150""
","
","
","""event"",""trial"",""time""
""fullscreenenter"",""5"",""22150""
","
",777.7849999999744,NA,49,NA,NA,3000,1,NA,NA,images/earth.jpg,images/tutrocket2,images/tutrocket1,null,images/tutrocket1,NA,1,practice,null,1,NA,NA,NA,sub76
d3-animate-choice,71,494964,0.0-61.0-1.3,TRUE,FALSE,FALSE,TRUE,"""event"",""trial"",""time""
""fullscreenenter"",""5"",""22150""
","
","
","""event"",""trial"",""time""
""fullscreenenter"",""5"",""22150""
","
",403.54000000003725,NA,48,NA,NA,3000,1,NA,NA,images/tutyellowplanet.jpg,images/tutalien4,images/tutalien3,images/tutrocket1,images/tutalien4,images/t.png,2,practice,true,2,common,1,2020-06-22T22:19:34Z,sub76
two-step-fixation,72,495972,0.0-61.0-2.3,TRUE,FALSE,FALSE,TRUE,"""event"",""trial"",""time""
""fullscreenenter"",""5"",""22150""
","
","
","""event"",""trial"",""time""
""fullscreenenter"",""5"",""22150""
","
",NA,images/earth.jpg,NA,NA,NA,NA,NA,NA,NA,NA,NA,NA,NA,NA,NA,fixation,NA,NA,NA,NA,NA,NA,sub76
d3-animate-choice,73,499312,0.0-61.0-0.4,TRUE,FALSE,FALSE,TRUE,"""event"",""trial"",""time""
""fullscreenenter"",""5"",""22150""
","
","
","""event"",""trial"",""time""
""fullscreenenter"",""5"",""22150""
","
",1330.5500000001048,NA,49,NA,NA,3000,1,NA,NA,images/earth.jpg,images/tutrocket2,images/tutrocket1,null,images/tutrocket1,NA,1,practice,null,1,NA,NA,NA,sub76
d3-animate-choice,74,502210,0.0-61.0-1.4,TRUE,FALSE,FALSE,TRUE,"""event"",""trial"",""time""
""fullscreenenter"",""5"",""22150""
","
","
","""event"",""trial"",""time""
""fullscreenenter"",""5"",""22150""
","
",887.9200000001001,NA,48,NA,NA,3000,1,NA,NA,images/tutgreenplanet.jpg,images/tutalien2,images/tutalien1,images/tutrocket1,images/tutalien2,images/nothing.png,2,practice,false,2,rare,0,2020-06-22T22:19:41Z,sub76
two-step-fixation,75,503215,0.0-61.0-2.4,TRUE,FALSE,FALSE,TRUE,"""event"",""trial"",""time""
""fullscreenenter"",""5"",""22150""
","
","
","""event"",""trial"",""time""
""fullscreenenter"",""5"",""22150""
","
",NA,images/earth.jpg,NA,NA,NA,NA,NA,NA,NA,NA,NA,NA,NA,NA,NA,fixation,NA,NA,NA,NA,NA,NA,sub76
d3-animate-choice,76,506645,0.0-61.0-0.5,TRUE,FALSE,FALSE,TRUE,"""event"",""trial"",""time""
""fullscreenenter"",""5"",""22150""
","
","
","""event"",""trial"",""time""
""fullscreenenter"",""5"",""22150""
","
",1419.8549999999232,NA,48,NA,NA,3000,1,NA,NA,images/earth.jpg,images/tutrocket2,images/tutrocket1,null,images/tutrocket2,NA,1,practice,null,2,NA,NA,NA,sub76
d3-animate-choice,77,509607,0.0-61.0-1.5,TRUE,FALSE,FALSE,TRUE,"""event"",""trial"",""time""
""fullscreenenter"",""5"",""22150""
","
","
","""event"",""trial"",""time""
""fullscreenenter"",""5"",""22150""
","
",950.8900000000722,NA,49,NA,NA,3000,1,NA,NA,images/tutgreenplanet.jpg,images/tutalien2,images/tutalien1,images/tutrocket2,images/tutalien1,images/nothing.png,2,practice,true,1,common,0,2020-06-22T22:19:49Z,sub76
two-step-fixation,78,510617,0.0-61.0-2.5,TRUE,FALSE,FALSE,TRUE,"""event"",""trial"",""time""
""fullscreenenter"",""5"",""22150""
","
","
","""event"",""trial"",""time""
""fullscreenenter"",""5"",""22150""
","
",NA,images/earth.jpg,NA,NA,NA,NA,NA,NA,NA,NA,NA,NA,NA,NA,NA,fixation,NA,NA,NA,NA,NA,NA,sub76
d3-animate-choice,79,514627,0.0-61.0-0.6,TRUE,FALSE,FALSE,TRUE,"""event"",""trial"",""time""
""fullscreenenter"",""5"",""22150""
","
","
","""event"",""trial"",""time""
""fullscreenenter"",""5"",""22150""
","
",2150.0149999999558,NA,48,NA,NA,3000,1,NA,NA,images/earth.jpg,images/tutrocket2,images/tutrocket1,null,images/tutrocket2,NA,1,practice,null,2,NA,NA,NA,sub76
d3-animate-choice,80,518643,0.0-61.0-1.6,TRUE,FALSE,FALSE,TRUE,"""event"",""trial"",""time""
""fullscreenenter"",""5"",""22150""
","
","
","""event"",""trial"",""time""
""fullscreenenter"",""5"",""22150""
","
",3061.444999999949,NA,49,NA,NA,3000,0,NA,NA,images/tutgreenplanet.jpg,images/tutalien2,images/tutalien1,images/tutrocket2,NA,NA,2,practice,true,1,common,0,2020-06-22T22:19:58Z,sub76
two-step-fixation,81,519648,0.0-61.0-2.6,TRUE,FALSE,FALSE,TRUE,"""event"",""trial"",""time""
""fullscreenenter"",""5"",""22150""
","
","
","""event"",""trial"",""time""
""fullscreenenter"",""5"",""22150""
","
",NA,images/earth.jpg,NA,NA,NA,NA,NA,NA,NA,NA,NA,NA,NA,NA,NA,fixation,NA,NA,NA,NA,NA,NA,sub76
d3-animate-choice,82,521951,0.0-61.0-0.7,TRUE,FALSE,FALSE,TRUE,"""event"",""trial"",""time""
""fullscreenenter"",""5"",""22150""
","
","
","""event"",""trial"",""time""
""fullscreenenter"",""5"",""22150""
","
",293.95000000006985,NA,49,NA,NA,3000,1,NA,NA,images/earth.jpg,images/tutrocket2,images/tutrocket1,null,images/tutrocket1,NA,1,practice,null,1,NA,NA,NA,sub76
d3-animate-choice,83,525522,0.0-61.0-1.7,TRUE,FALSE,FALSE,TRUE,"""event"",""trial"",""time""
""fullscreenenter"",""5"",""22150""
","
","
","""event"",""trial"",""time""
""fullscreenenter"",""5"",""22150""
","
",1558.4250000000466,NA,48,NA,NA,3000,1,NA,NA,images/tutyellowplanet.jpg,images/tutalien4,images/tutalien3,images/tutrocket1,images/tutalien4,images/t.png,2,practice,true,2,common,1,2020-06-22T22:20:05Z,sub76
two-step-fixation,84,526530,0.0-61.0-2.7,TRUE,FALSE,FALSE,TRUE,"""event"",""trial"",""time""
""fullscreenenter"",""5"",""22150""
","
","
","""event"",""trial"",""time""
""fullscreenenter"",""5"",""22150""
","
",NA,images/earth.jpg,NA,NA,NA,NA,NA,NA,NA,NA,NA,NA,NA,NA,NA,fixation,NA,NA,NA,NA,NA,NA,sub76
d3-animate-choice,85,528968,0.0-61.0-0.8,TRUE,FALSE,FALSE,TRUE,"""event"",""trial"",""time""
""fullscreenenter"",""5"",""22150""
","
","
","""event"",""trial"",""time""
""fullscreenenter"",""5"",""22150""
","
",429.3849999998929,NA,49,NA,NA,3000,1,"998.7900000000373,1551.8400000000838",4832,images/earth.jpg,images/tutrocket2,images/tutrocket1,null,images/tutrocket1,NA,1,practice,null,1,NA,NA,NA,sub76
d3-animate-choice,86,531979,0.0-61.0-1.8,TRUE,FALSE,FALSE,TRUE,"""event"",""trial"",""time""
""fullscreenenter"",""5"",""22150""
","
","
","""event"",""trial"",""time""
""fullscreenenter"",""5"",""22150""
","
",1001.0549999999348,NA,49,NA,NA,3000,1,NA,NA,images/tutyellowplanet.jpg,images/tutalien4,images/tutalien3,images/tutrocket1,images/tutalien3,images/nothing.png,2,practice,true,1,common,0,2020-06-22T22:20:11Z,sub76
two-step-fixation,87,532987,0.0-61.0-2.8,TRUE,FALSE,FALSE,TRUE,"""event"",""trial"",""time""
""fullscreenenter"",""5"",""22150""
","
","
","""event"",""trial"",""time""
""fullscreenenter"",""5"",""22150""
","
",NA,images/earth.jpg,NA,NA,NA,NA,NA,NA,NA,NA,NA,NA,NA,NA,NA,fixation,NA,NA,NA,NA,NA,NA,sub76
d3-animate-choice,88,535928,0.0-61.0-0.9,TRUE,FALSE,FALSE,TRUE,"""event"",""trial"",""time""
""fullscreenenter"",""5"",""22150""
","
","
","""event"",""trial"",""time""
""fullscreenenter"",""5"",""22150""
","
",931.2749999999069,NA,49,NA,NA,3000,1,NA,NA,images/earth.jpg,images/tutrocket2,images/tutrocket1,null,images/tutrocket1,NA,1,practice,null,1,NA,NA,NA,sub76
d3-animate-choice,89,538406,0.0-61.0-1.9,TRUE,FALSE,FALSE,TRUE,"""event"",""trial"",""time""
""fullscreenenter"",""5"",""22150""
","
","
","""event"",""trial"",""time""
""fullscreenenter"",""5"",""22150""
","
",469.97999999974854,NA,48,NA,NA,3000,1,NA,NA,images/tutyellowplanet.jpg,images/tutalien4,images/tutalien3,images/tutrocket1,images/tutalien4,images/t.png,2,practice,true,2,common,1,2020-06-22T22:20:17Z,sub76
two-step-fixation,90,539414,0.0-61.0-2.9,TRUE,FALSE,FALSE,TRUE,"""event"",""trial"",""time""
""fullscreenenter"",""5"",""22150""
","
","
","""event"",""trial"",""time""
""fullscreenenter"",""5"",""22150""
","
",NA,images/earth.jpg,NA,NA,NA,NA,NA,NA,NA,NA,NA,NA,NA,NA,NA,fixation,NA,NA,NA,NA,NA,NA,sub76
d3-animate-choice,91,542799,0.0-61.0-0.10,TRUE,FALSE,FALSE,TRUE,"""event"",""trial"",""time""
""fullscreenenter"",""5"",""22150""
","
","
","""event"",""trial"",""time""
""fullscreenenter"",""5"",""22150""
","
",1375.469999999972,NA,49,NA,NA,3000,1,NA,NA,images/earth.jpg,images/tutrocket2,images/tutrocket1,null,images/tutrocket1,NA,1,practice,null,1,NA,NA,NA,sub76
d3-animate-choice,92,545199,0.0-61.0-1.10,TRUE,FALSE,FALSE,TRUE,"""event"",""trial"",""time""
""fullscreenenter"",""5"",""22150""
","
","
","""event"",""trial"",""time""
""fullscreenenter"",""5"",""22150""
","
",388.0700000001816,NA,48,NA,NA,3000,1,NA,NA,images/tutyellowplanet.jpg,images/tutalien4,images/tutalien3,images/tutrocket1,images/tutalien4,images/t.png,2,practice,true,2,common,1,2020-06-22T22:20:24Z,sub76
two-step-fixation,93,546209,0.0-61.0-2.10,TRUE,FALSE,FALSE,TRUE,"""event"",""trial"",""time""
""fullscreenenter"",""5"",""22150""
","
","
","""event"",""trial"",""time""
""fullscreenenter"",""5"",""22150""
","
",NA,images/earth.jpg,NA,NA,NA,NA,NA,NA,NA,NA,NA,NA,NA,NA,NA,fixation,NA,NA,NA,NA,NA,NA,sub76
d3-animate-choice,94,548587,0.0-61.0-0.11,TRUE,FALSE,FALSE,TRUE,"""event"",""trial"",""time""
""fullscreenenter"",""5"",""22150""
","
","
","""event"",""trial"",""time""
""fullscreenenter"",""5"",""22150""
","
",369.6300000001211,NA,49,NA,NA,3000,1,NA,NA,images/earth.jpg,images/tutrocket2,images/tutrocket1,null,images/tutrocket1,NA,1,practice,null,1,NA,NA,NA,sub76
d3-animate-choice,95,551066,0.0-61.0-1.11,TRUE,FALSE,FALSE,TRUE,"""event"",""trial"",""time""
""fullscreenenter"",""5"",""22150""
","
","
","""event"",""trial"",""time""
""fullscreenenter"",""5"",""22150""
","
",470.29000000015367,NA,48,NA,NA,3000,1,NA,NA,images/tutyellowplanet.jpg,images/tutalien4,images/tutalien3,images/tutrocket1,images/tutalien4,images/nothing.png,2,practice,true,2,common,0,2020-06-22T22:20:30Z,sub76
two-step-fixation,96,552075,0.0-61.0-2.11,TRUE,FALSE,FALSE,TRUE,"""event"",""trial"",""time""
""fullscreenenter"",""5"",""22150""
","
","
","""event"",""trial"",""time""
""fullscreenenter"",""5"",""22150""
","
",NA,images/earth.jpg,NA,NA,NA,NA,NA,NA,NA,NA,NA,NA,NA,NA,NA,fixation,NA,NA,NA,NA,NA,NA,sub76
d3-animate-choice,97,554577,0.0-61.0-0.12,TRUE,FALSE,FALSE,TRUE,"""event"",""trial"",""time""
""fullscreenenter"",""5"",""22150""
","
","
","""event"",""trial"",""time""
""fullscreenenter"",""5"",""22150""
","
",497.5549999999348,NA,49,NA,NA,3000,1,NA,NA,images/earth.jpg,images/tutrocket2,images/tutrocket1,null,images/tutrocket1,NA,1,practice,null,1,NA,NA,NA,sub76
d3-animate-choice,98,557019,0.0-61.0-1.12,TRUE,FALSE,FALSE,TRUE,"""event"",""trial"",""time""
""fullscreenenter"",""5"",""22150""
","
","
","""event"",""trial"",""time""
""fullscreenenter"",""5"",""22150""
","
",433.5900000000838,NA,49,NA,NA,3000,1,NA,NA,images/tutyellowplanet.jpg,images/tutalien4,images/tutalien3,images/tutrocket1,images/tutalien3,images/nothing.png,2,practice,true,1,common,0,2020-06-22T22:20:36Z,sub76
two-step-fixation,99,558027,0.0-61.0-2.12,TRUE,FALSE,FALSE,TRUE,"""event"",""trial"",""time""
""fullscreenenter"",""5"",""22150""
","
","
","""event"",""trial"",""time""
""fullscreenenter"",""5"",""22150""
","
",NA,images/earth.jpg,NA,NA,NA,NA,NA,NA,NA,NA,NA,NA,NA,NA,NA,fixation,NA,NA,NA,NA,NA,NA,sub76
d3-animate-choice,100,561100,0.0-61.0-0.13,TRUE,FALSE,FALSE,TRUE,"""event"",""trial"",""time""
""fullscreenenter"",""5"",""22150""
","
","
","""event"",""trial"",""time""
""fullscreenenter"",""5"",""22150""
","
",1064.6850000000559,NA,48,NA,NA,3000,1,NA,NA,images/earth.jpg,images/tutrocket2,images/tutrocket1,null,images/tutrocket2,NA,1,practice,null,2,NA,NA,NA,sub76
d3-animate-choice,101,563571,0.0-61.0-1.13,TRUE,FALSE,FALSE,TRUE,"""event"",""trial"",""time""
""fullscreenenter"",""5"",""22150""
","
","
","""event"",""trial"",""time""
""fullscreenenter"",""5"",""22150""
","
",460.50500000000466,NA,49,NA,NA,3000,1,NA,NA,images/tutgreenplanet.jpg,images/tutalien2,images/tutalien1,images/tutrocket2,images/tutalien1,images/t.png,2,practice,true,1,common,1,2020-06-22T22:20:43Z,sub76
two-step-fixation,102,564581,0.0-61.0-2.13,TRUE,FALSE,FALSE,TRUE,"""event"",""trial"",""time""
""fullscreenenter"",""5"",""22150""
","
","
","""event"",""trial"",""time""
""fullscreenenter"",""5"",""22150""
","
",NA,images/earth.jpg,NA,NA,NA,NA,NA,NA,NA,NA,NA,NA,NA,NA,NA,fixation,NA,NA,NA,NA,NA,NA,sub76
d3-animate-choice,103,566937,0.0-61.0-0.14,TRUE,FALSE,FALSE,TRUE,"""event"",""trial"",""time""
""fullscreenenter"",""5"",""22150""
","
","
","""event"",""trial"",""time""
""fullscreenenter"",""5"",""22150""
","
",346.7699999999022,NA,48,NA,NA,3000,1,NA,NA,images/earth.jpg,images/tutrocket2,images/tutrocket1,null,images/tutrocket2,NA,1,practice,null,2,NA,NA,NA,sub76
d3-animate-choice,104,570044,0.0-61.0-1.14,TRUE,FALSE,FALSE,TRUE,"""event"",""trial"",""time""
""fullscreenenter"",""5"",""22150""
","
","
","""event"",""trial"",""time""
""fullscreenenter"",""5"",""22150""
","
",1097.3850000000093,NA,49,NA,NA,3000,1,NA,NA,images/tutgreenplanet.jpg,images/tutalien2,images/tutalien1,images/tutrocket2,images/tutalien1,images/nothing.png,2,practice,true,1,common,0,2020-06-22T22:20:49Z,sub76
two-step-fixation,105,571052,0.0-61.0-2.14,TRUE,FALSE,FALSE,TRUE,"""event"",""trial"",""time""
""fullscreenenter"",""5"",""22150""
","
","
","""event"",""trial"",""time""
""fullscreenenter"",""5"",""22150""
","
",NA,images/earth.jpg,NA,NA,NA,NA,NA,NA,NA,NA,NA,NA,NA,NA,NA,fixation,NA,NA,NA,NA,NA,NA,sub76
d3-animate-choice,106,573551,0.0-61.0-0.15,TRUE,FALSE,FALSE,TRUE,"""event"",""trial"",""time""
""fullscreenenter"",""5"",""22150""
","
","
","""event"",""trial"",""time""
""fullscreenenter"",""5"",""22150""
","
",490.0700000000652,NA,48,NA,NA,3000,1,NA,NA,images/earth.jpg,images/tutrocket2,images/tutrocket1,null,images/tutrocket2,NA,1,practice,null,2,NA,NA,NA,sub76
d3-animate-choice,107,576059,0.0-61.0-1.15,TRUE,FALSE,FALSE,TRUE,"""event"",""trial"",""time""
""fullscreenenter"",""5"",""22150""
","
","
","""event"",""trial"",""time""
""fullscreenenter"",""5"",""22150""
","
",498.10499999986496,NA,48,NA,NA,3000,1,NA,NA,images/tutgreenplanet.jpg,images/tutalien2,images/tutalien1,images/tutrocket2,images/tutalien2,images/nothing.png,2,practice,true,2,common,0,2020-06-22T22:20:55Z,sub76
two-step-fixation,108,577068,0.0-61.0-2.15,TRUE,FALSE,FALSE,TRUE,"""event"",""trial"",""time""
""fullscreenenter"",""5"",""22150""
","
","
","""event"",""trial"",""time""
""fullscreenenter"",""5"",""22150""
","
",NA,images/earth.jpg,NA,NA,NA,NA,NA,NA,NA,NA,NA,NA,NA,NA,NA,fixation,NA,NA,NA,NA,NA,NA,sub76
d3-animate-choice,109,579460,0.0-61.0-0.16,TRUE,FALSE,FALSE,TRUE,"""event"",""trial"",""time""
""fullscreenenter"",""5"",""22150""
","
","
","""event"",""trial"",""time""
""fullscreenenter"",""5"",""22150""
","
",382.035000000149,NA,49,NA,NA,3000,1,NA,NA,images/earth.jpg,images/tutrocket2,images/tutrocket1,null,images/tutrocket1,NA,1,practice,null,1,NA,NA,NA,sub76
d3-animate-choice,110,581955,0.0-61.0-1.16,TRUE,FALSE,FALSE,TRUE,"""event"",""trial"",""time""
""fullscreenenter"",""5"",""22150""
","
","
","""event"",""trial"",""time""
""fullscreenenter"",""5"",""22150""
","
",484.24500000011176,NA,49,NA,NA,3000,1,NA,NA,images/tutyellowplanet.jpg,images/tutalien4,images/tutalien3,images/tutrocket1,images/tutalien3,images/t.png,2,practice,true,1,common,1,2020-06-22T22:21:01Z,sub76
two-step-fixation,111,582963,0.0-61.0-2.16,TRUE,FALSE,FALSE,TRUE,"""event"",""trial"",""time""
""fullscreenenter"",""5"",""22150""
","
","
","""event"",""trial"",""time""
""fullscreenenter"",""5"",""22150""
","
",NA,images/earth.jpg,NA,NA,NA,NA,NA,NA,NA,NA,NA,NA,NA,NA,NA,fixation,NA,NA,NA,NA,NA,NA,sub76
d3-animate-choice,112,586548,0.0-61.0-0.17,TRUE,FALSE,FALSE,TRUE,"""event"",""trial"",""time""
""fullscreenenter"",""5"",""22150""
","
","
","""event"",""trial"",""time""
""fullscreenenter"",""5"",""22150""
","
",1575.4899999998743,NA,48,NA,NA,3000,1,NA,NA,images/earth.jpg,images/tutrocket2,images/tutrocket1,null,images/tutrocket2,NA,1,practice,null,2,NA,NA,NA,sub76
d3-animate-choice,113,589270,0.0-61.0-1.17,TRUE,FALSE,FALSE,TRUE,"""event"",""trial"",""time""
""fullscreenenter"",""5"",""22150""
","
","
","""event"",""trial"",""time""
""fullscreenenter"",""5"",""22150""
","
",709.2249999998603,NA,49,NA,NA,3000,1,NA,NA,images/tutgreenplanet.jpg,images/tutalien2,images/tutalien1,images/tutrocket2,images/tutalien1,images/t.png,2,practice,true,1,common,1,2020-06-22T22:21:08Z,sub76
two-step-fixation,114,590279,0.0-61.0-2.17,TRUE,FALSE,FALSE,TRUE,"""event"",""trial"",""time""
""fullscreenenter"",""5"",""22150""
","
","
","""event"",""trial"",""time""
""fullscreenenter"",""5"",""22150""
","
",NA,images/earth.jpg,NA,NA,NA,NA,NA,NA,NA,NA,NA,NA,NA,NA,NA,fixation,NA,NA,NA,NA,NA,NA,sub76
d3-animate-choice,115,592807,0.0-61.0-0.18,TRUE,FALSE,FALSE,TRUE,"""event"",""trial"",""time""
""fullscreenenter"",""5"",""22150""
","
","
","""event"",""trial"",""time""
""fullscreenenter"",""5"",""22150""
","
",519.535000000149,NA,49,NA,NA,3000,1,NA,NA,images/earth.jpg,images/tutrocket2,images/tutrocket1,null,images/tutrocket1,NA,1,practice,null,1,NA,NA,NA,sub76
d3-animate-choice,116,595520,0.0-61.0-1.18,TRUE,FALSE,FALSE,TRUE,"""event"",""trial"",""time""
""fullscreenenter"",""5"",""22150""
","
","
","""event"",""trial"",""time""
""fullscreenenter"",""5"",""22150""
","
",701.9700000000885,NA,48,NA,NA,3000,1,NA,NA,images/tutyellowplanet.jpg,images/tutalien4,images/tutalien3,images/tutrocket1,images/tutalien4,images/nothing.png,2,practice,true,2,common,0,2020-06-22T22:21:15Z,sub76
two-step-fixation,117,596527,0.0-61.0-2.18,TRUE,FALSE,FALSE,TRUE,"""event"",""trial"",""time""
""fullscreenenter"",""5"",""22150""
","
","
","""event"",""trial"",""time""
""fullscreenenter"",""5"",""22150""
","
",NA,images/earth.jpg,NA,NA,NA,NA,NA,NA,NA,NA,NA,NA,NA,NA,NA,fixation,NA,NA,NA,NA,NA,NA,sub76
d3-animate-choice,118,599411,0.0-61.0-0.19,TRUE,FALSE,FALSE,TRUE,"""event"",""trial"",""time""
""fullscreenenter"",""5"",""22150""
","
","
","""event"",""trial"",""time""
""fullscreenenter"",""5"",""22150""
","
",875,NA,48,NA,NA,3000,1,NA,NA,images/earth.jpg,images/tutrocket2,images/tutrocket1,null,images/tutrocket2,NA,1,practice,null,2,NA,NA,NA,sub76
d3-animate-choice,119,602608,0.0-61.0-1.19,TRUE,FALSE,FALSE,TRUE,"""event"",""trial"",""time""
""fullscreenenter"",""5"",""22150""
","
","
","""event"",""trial"",""time""
""fullscreenenter"",""5"",""22150""
","
",1183.9349999999395,NA,49,NA,NA,3000,1,NA,NA,images/tutyellowplanet.jpg,images/tutalien4,images/tutalien3,images/tutrocket2,images/tutalien3,images/nothing.png,2,practice,false,1,rare,0,2020-06-22T22:21:22Z,sub76
two-step-fixation,120,603617,0.0-61.0-2.19,TRUE,FALSE,FALSE,TRUE,"""event"",""trial"",""time""
""fullscreenenter"",""5"",""22150""
","
","
","""event"",""trial"",""time""
""fullscreenenter"",""5"",""22150""
","
",NA,images/earth.jpg,NA,NA,NA,NA,NA,NA,NA,NA,NA,NA,NA,NA,NA,fixation,NA,NA,NA,NA,NA,NA,sub76
d3-instructions,121,610458,0.0-62.0,TRUE,FALSE,FALSE,TRUE,"""event"",""trial"",""time""
""fullscreenenter"",""5"",""22150""
","
","
","""event"",""trial"",""time""
""fullscreenenter"",""5"",""22150""
","
",NA,NA,NA,NA,NA,NA,NA,NA,NA,NA,NA,NA,NA,NA,NA,NA,NA,NA,NA,NA,NA,NA,sub76
audio-keyboard-response,122,614751,0.0-63.0,TRUE,FALSE,FALSE,TRUE,"""event"",""trial"",""time""
""fullscreenenter"",""5"",""22150""
","
","
","""event"",""trial"",""time""
""fullscreenenter"",""5"",""22150""
","
",4277,audio/instructions/treasure_feedback.wav,32,NA,NA,NA,NA,NA,NA,NA,NA,NA,NA,NA,NA,NA,NA,NA,NA,NA,NA,NA,sub76
d3-instructions,123,633500,0.0-64.0,TRUE,FALSE,FALSE,TRUE,"""event"",""trial"",""time""
""fullscreenenter"",""5"",""22150""
","
","
","""event"",""trial"",""time""
""fullscreenenter"",""5"",""22150""
","
",NA,NA,NA,NA,NA,NA,NA,NA,NA,NA,NA,NA,NA,NA,NA,NA,NA,NA,NA,NA,NA,NA,sub76
d3-instructions,124,648244,0.0-65.0,TRUE,FALSE,FALSE,TRUE,"""event"",""trial"",""time""
""fullscreenenter"",""5"",""22150""
","
","
","""event"",""trial"",""time""
""fullscreenenter"",""5"",""22150""
","
",NA,NA,NA,NA,NA,NA,NA,NA,NA,NA,NA,NA,NA,NA,NA,NA,NA,NA,NA,NA,NA,NA,sub76
d3-instructions,125,674005,0.0-66.0,TRUE,FALSE,FALSE,TRUE,"""event"",""trial"",""time""
""fullscreenenter"",""5"",""22150""
","
","
","""event"",""trial"",""time""
""fullscreenenter"",""5"",""22150""
","
",NA,NA,NA,NA,NA,NA,NA,NA,NA,NA,NA,NA,NA,NA,NA,NA,NA,NA,NA,NA,NA,NA,sub76
d3-instructions,126,693755,0.0-67.0,TRUE,FALSE,FALSE,TRUE,"""event"",""trial"",""time""
""fullscreenenter"",""5"",""22150""
","
","
","""event"",""trial"",""time""
""fullscreenenter"",""5"",""22150""
","
",NA,NA,NA,NA,NA,NA,NA,NA,NA,NA,NA,NA,NA,NA,NA,NA,NA,NA,NA,NA,NA,NA,sub76
d3-instructions,127,701746,0.0-68.0,TRUE,FALSE,FALSE,TRUE,"""event"",""trial"",""time""
""fullscreenenter"",""5"",""22150""
","
","
","""event"",""trial"",""time""
""fullscreenenter"",""5"",""22150""
","
",NA,NA,NA,NA,NA,NA,NA,NA,NA,NA,NA,NA,NA,NA,NA,NA,NA,NA,NA,NA,NA,NA,sub76
instructions-quiz,128,705825,0.0-69.0,TRUE,FALSE,FALSE,TRUE,"""event"",""trial"",""time""
""fullscreenenter"",""5"",""22150""
","
","
","""event"",""trial"",""time""
""fullscreenenter"",""5"",""22150""
","
",4073.350000000093,audio/quiz/Q1_Prompt.wav,NA,1,NA,NA,NA,NA,NA,NA,NA,NA,NA,NA,NA,NA,NA,NA,NA,NA,NA,NA,sub76
audio-keyboard-response,129,715003,0.0-70.0,TRUE,FALSE,FALSE,TRUE,"""event"",""trial"",""time""
""fullscreenenter"",""5"",""22150""
","
","
","""event"",""trial"",""time""
""fullscreenenter"",""5"",""22150""
","
",null,audio/quiz/Q1_Correct.wav,null,NA,NA,NA,NA,NA,NA,NA,NA,NA,NA,NA,NA,NA,NA,NA,NA,NA,NA,NA,sub76
instructions-quiz,130,721715,0.0-71.0,TRUE,FALSE,FALSE,TRUE,"""event"",""trial"",""time""
""fullscreenenter"",""5"",""22150""
","
","
","""event"",""trial"",""time""
""fullscreenenter"",""5"",""22150""
","
",6707.849999999977,audio/quiz/Q2_Prompt.wav,NA,0,NA,NA,NA,NA,NA,NA,NA,NA,NA,NA,NA,NA,NA,NA,NA,NA,NA,NA,sub76
audio-keyboard-response,131,724867,0.0-72.0,TRUE,FALSE,FALSE,TRUE,"""event"",""trial"",""time""
""fullscreenenter"",""5"",""22150""
","
","
","""event"",""trial"",""time""
""fullscreenenter"",""5"",""22150""
","
",3147,audio/quiz/Q2_Correct.wav,32,NA,NA,NA,NA,NA,NA,NA,NA,NA,NA,NA,NA,NA,NA,NA,NA,NA,NA,NA,sub76
instructions-quiz,132,729603,0.0-73.0,TRUE,FALSE,FALSE,TRUE,"""event"",""trial"",""time""
""fullscreenenter"",""5"",""22150""
","
","
","""event"",""trial"",""time""
""fullscreenenter"",""5"",""22150""
","
",4733.494999999995,audio/quiz/Q3_Prompt.wav,NA,1,NA,NA,NA,NA,NA,NA,NA,NA,NA,NA,NA,NA,NA,NA,NA,NA,NA,NA,sub76
audio-keyboard-response,133,735408,0.0-74.0,TRUE,FALSE,FALSE,TRUE,"""event"",""trial"",""time""
""fullscreenenter"",""5"",""22150""
","
","
","""event"",""trial"",""time""
""fullscreenenter"",""5"",""22150""
","
",null,audio/quiz/Q3_Correct.wav,null,NA,NA,NA,NA,NA,NA,NA,NA,NA,NA,NA,NA,NA,NA,NA,NA,NA,NA,NA,sub76
d3-instructions,134,749984,0.0-75.0,TRUE,FALSE,FALSE,TRUE,"""event"",""trial"",""time""
""fullscreenenter"",""5"",""22150""
","
","
","""event"",""trial"",""time""
""fullscreenenter"",""5"",""22150""
","
",NA,NA,NA,NA,NA,NA,NA,NA,NA,NA,NA,NA,NA,NA,NA,NA,NA,NA,NA,NA,NA,NA,sub76
d3-animate-choice,135,753856,0.0-76.0-0.0,TRUE,FALSE,FALSE,TRUE,"""event"",""trial"",""time""
""fullscreenenter"",""5"",""22150""
","
","
","""event"",""trial"",""time""
""fullscreenenter"",""5"",""22150""
","
",1866.1649999999208,NA,49,NA,NA,3000,1,NA,NA,images/earth.jpg,images/rocket2,images/rocket1,null,images/rocket1,NA,1,real,null,1,NA,NA,NA,sub76
d3-animate-choice,136,757350,0.0-76.0-1.0,TRUE,FALSE,FALSE,TRUE,"""event"",""trial"",""time""
""fullscreenenter"",""5"",""22150""
","
","
","""event"",""trial"",""time""
""fullscreenenter"",""5"",""22150""
","
",819.5849999999627,NA,50,NA,NA,3000,1,1483.8549999999814,48,images/redplanet1.jpg,images/alien2,images/alien1,images/rocket1,images/alien2,images/t.png,2,real,false,NA,rare,1,2020-06-22T22:23:56Z,sub76
two-step-fixation,137,758358,0.0-76.0-2.0,TRUE,FALSE,FALSE,TRUE,"""event"",""trial"",""time""
""fullscreenenter"",""5"",""22150""
","
","
","""event"",""trial"",""time""
""fullscreenenter"",""5"",""22150""
","
",NA,images/earth.jpg,NA,NA,NA,NA,NA,NA,NA,NA,NA,NA,NA,NA,NA,fixation,NA,NA,NA,NA,NA,NA,sub76
d3-animate-choice,138,760840,0.0-76.0-0.1,TRUE,FALSE,FALSE,TRUE,"""event"",""trial"",""time""
""fullscreenenter"",""5"",""22150""
","
","
","""event"",""trial"",""time""
""fullscreenenter"",""5"",""22150""
","
",471.7249999998603,NA,49,NA,NA,3000,1,NA,NA,images/earth.jpg,images/rocket2,images/rocket1,null,images/rocket1,NA,1,real,null,1,NA,NA,NA,sub76
d3-animate-choice,139,763341,0.0-76.0-1.1,TRUE,FALSE,FALSE,TRUE,"""event"",""trial"",""time""
""fullscreenenter"",""5"",""22150""
","
","
","""event"",""trial"",""time""
""fullscreenenter"",""5"",""22150""
","
",491.96000000007916,NA,48,NA,NA,3000,1,NA,NA,images/redplanet1.jpg,images/alien2,images/alien1,images/rocket1,images/alien2,images/nothing.png,2,real,false,2,rare,0,2020-06-22T22:24:02Z,sub76
two-step-fixation,140,764350,0.0-76.0-2.1,TRUE,FALSE,FALSE,TRUE,"""event"",""trial"",""time""
""fullscreenenter"",""5"",""22150""
","
","
","""event"",""trial"",""time""
""fullscreenenter"",""5"",""22150""
","
",NA,images/earth.jpg,NA,NA,NA,NA,NA,NA,NA,NA,NA,NA,NA,NA,NA,fixation,NA,NA,NA,NA,NA,NA,sub76
d3-animate-choice,141,766684,0.0-76.0-0.2,TRUE,FALSE,FALSE,TRUE,"""event"",""trial"",""time""
""fullscreenenter"",""5"",""22150""
","
","
","""event"",""trial"",""time""
""fullscreenenter"",""5"",""22150""
","
",324.8149999999441,NA,49,NA,NA,3000,1,NA,NA,images/earth.jpg,images/rocket2,images/rocket1,null,images/rocket1,NA,1,real,null,1,NA,NA,NA,sub76
d3-animate-choice,142,769257,0.0-76.0-1.2,TRUE,FALSE,FALSE,TRUE,"""event"",""trial"",""time""
""fullscreenenter"",""5"",""22150""
","
","
","""event"",""trial"",""time""
""fullscreenenter"",""5"",""22150""
","
",555.9550000000745,NA,49,NA,NA,3000,1,NA,NA,images/redplanet1.jpg,images/alien2,images/alien1,images/rocket1,images/alien1,images/nothing.png,2,real,false,1,rare,0,2020-06-22T22:24:08Z,sub76
two-step-fixation,143,770265,0.0-76.0-2.2,TRUE,FALSE,FALSE,TRUE,"""event"",""trial"",""time""
""fullscreenenter"",""5"",""22150""
","
","
","""event"",""trial"",""time""
""fullscreenenter"",""5"",""22150""
","
",NA,images/earth.jpg,NA,NA,NA,NA,NA,NA,NA,NA,NA,NA,NA,NA,NA,fixation,NA,NA,NA,NA,NA,NA,sub76
d3-animate-choice,144,773061,0.0-76.0-0.3,TRUE,FALSE,FALSE,TRUE,"""event"",""trial"",""time""
""fullscreenenter"",""5"",""22150""
","
","
","""event"",""trial"",""time""
""fullscreenenter"",""5"",""22150""
","
",783.7400000001071,NA,48,NA,NA,3000,1,NA,NA,images/earth.jpg,images/rocket2,images/rocket1,null,images/rocket2,NA,1,real,null,2,NA,NA,NA,sub76
d3-animate-choice,145,775925,0.0-76.0-1.3,TRUE,FALSE,FALSE,TRUE,"""event"",""trial"",""time""
""fullscreenenter"",""5"",""22150""
","
","
","""event"",""trial"",""time""
""fullscreenenter"",""5"",""22150""
","
",852.8449999999721,NA,49,NA,NA,3000,1,NA,NA,images/purpleplanet.jpg,images/alien4,images/alien3,images/rocket2,images/alien3,images/nothing.png,2,real,false,1,rare,0,2020-06-22T22:24:15Z,sub76
two-step-fixation,146,776934,0.0-76.0-2.3,TRUE,FALSE,FALSE,TRUE,"""event"",""trial"",""time""
""fullscreenenter"",""5"",""22150""
","
","
","""event"",""trial"",""time""
""fullscreenenter"",""5"",""22150""
","
",NA,images/earth.jpg,NA,NA,NA,NA,NA,NA,NA,NA,NA,NA,NA,NA,NA,fixation,NA,NA,NA,NA,NA,NA,sub76
d3-animate-choice,147,779312,0.0-76.0-0.4,TRUE,FALSE,FALSE,TRUE,"""event"",""trial"",""time""
""fullscreenenter"",""5"",""22150""
","
","
","""event"",""trial"",""time""
""fullscreenenter"",""5"",""22150""
","
",366.5349999999162,NA,48,NA,NA,3000,1,NA,NA,images/earth.jpg,images/rocket2,images/rocket1,null,images/rocket2,NA,1,real,null,2,NA,NA,NA,sub76
d3-animate-choice,148,781717,0.0-76.0-1.4,TRUE,FALSE,FALSE,TRUE,"""event"",""trial"",""time""
""fullscreenenter"",""5"",""22150""
","
","
","""event"",""trial"",""time""
""fullscreenenter"",""5"",""22150""
","
",395.21999999985565,NA,48,NA,NA,3000,1,NA,NA,images/purpleplanet.jpg,images/alien4,images/alien3,images/rocket2,images/alien4,images/t.png,2,real,false,2,rare,1,2020-06-22T22:24:21Z,sub76
two-step-fixation,149,782732,0.0-76.0-2.4,TRUE,FALSE,FALSE,TRUE,"""event"",""trial"",""time""
""fullscreenenter"",""5"",""22150""
","
","
","""event"",""trial"",""time""
""fullscreenenter"",""5"",""22150""
","
",NA,images/earth.jpg,NA,NA,NA,NA,NA,NA,NA,NA,NA,NA,NA,NA,NA,fixation,NA,NA,NA,NA,NA,NA,sub76
d3-animate-choice,150,785275,0.0-76.0-0.5,TRUE,FALSE,FALSE,TRUE,"""event"",""trial"",""time""
""fullscreenenter"",""5"",""22150""
","
","
","""event"",""trial"",""time""
""fullscreenenter"",""5"",""22150""
","
",533.4549999999581,NA,48,NA,NA,3000,1,NA,NA,images/earth.jpg,images/rocket2,images/rocket1,null,images/rocket2,NA,1,real,null,2,NA,NA,NA,sub76
d3-animate-choice,151,788937,0.0-76.0-1.5,TRUE,FALSE,FALSE,TRUE,"""event"",""trial"",""time""
""fullscreenenter"",""5"",""22150""
","
","
","""event"",""trial"",""time""
""fullscreenenter"",""5"",""22150""
","
",1652.5600000000559,NA,49,NA,NA,3000,1,NA,NA,images/redplanet1.jpg,images/alien2,images/alien1,images/rocket2,images/alien1,images/t.png,2,real,true,1,common,1,2020-06-22T22:24:28Z,sub76
two-step-fixation,152,789946,0.0-76.0-2.5,TRUE,FALSE,FALSE,TRUE,"""event"",""trial"",""time""
""fullscreenenter"",""5"",""22150""
","
","
","""event"",""trial"",""time""
""fullscreenenter"",""5"",""22150""
","
",NA,images/earth.jpg,NA,NA,NA,NA,NA,NA,NA,NA,NA,NA,NA,NA,NA,fixation,NA,NA,NA,NA,NA,NA,sub76
d3-animate-choice,153,792291,0.0-76.0-0.6,TRUE,FALSE,FALSE,TRUE,"""event"",""trial"",""time""
""fullscreenenter"",""5"",""22150""
","
","
","""event"",""trial"",""time""
""fullscreenenter"",""5"",""22150""
","
",333.61000000010245,NA,49,NA,NA,3000,1,NA,NA,images/earth.jpg,images/rocket2,images/rocket1,null,images/rocket1,NA,1,real,null,1,NA,NA,NA,sub76
d3-animate-choice,154,795402,0.0-76.0-1.6,TRUE,FALSE,FALSE,TRUE,"""event"",""trial"",""time""
""fullscreenenter"",""5"",""22150""
","
","
","""event"",""trial"",""time""
""fullscreenenter"",""5"",""22150""
","
",1096.9649999999674,NA,48,NA,NA,3000,1,NA,NA,images/purpleplanet.jpg,images/alien4,images/alien3,images/rocket1,images/alien4,images/t.png,2,real,true,2,common,1,2020-06-22T22:24:34Z,sub76
two-step-fixation,155,796410,0.0-76.0-2.6,TRUE,FALSE,FALSE,TRUE,"""event"",""trial"",""time""
""fullscreenenter"",""5"",""22150""
","
","
","""event"",""trial"",""time""
""fullscreenenter"",""5"",""22150""
","
",NA,images/earth.jpg,NA,NA,NA,NA,NA,NA,NA,NA,NA,NA,NA,NA,NA,fixation,NA,NA,NA,NA,NA,NA,sub76
d3-animate-choice,156,799025,0.0-76.0-0.7,TRUE,FALSE,FALSE,TRUE,"""event"",""trial"",""time""
""fullscreenenter"",""5"",""22150""
","
","
","""event"",""trial"",""time""
""fullscreenenter"",""5"",""22150""
","
",605.2150000000838,NA,49,NA,NA,3000,1,NA,NA,images/earth.jpg,images/rocket2,images/rocket1,null,images/rocket1,NA,1,real,null,1,NA,NA,NA,sub76
d3-animate-choice,157,802291,0.0-76.0-1.7,TRUE,FALSE,FALSE,TRUE,"""event"",""trial"",""time""
""fullscreenenter"",""5"",""22150""
","
","
","""event"",""trial"",""time""
""fullscreenenter"",""5"",""22150""
","
",1257.0250000001397,NA,48,NA,NA,3000,1,NA,NA,images/purpleplanet.jpg,images/alien4,images/alien3,images/rocket1,images/alien4,images/t.png,2,real,true,2,common,1,2020-06-22T22:24:41Z,sub76
two-step-fixation,158,803300,0.0-76.0-2.7,TRUE,FALSE,FALSE,TRUE,"""event"",""trial"",""time""
""fullscreenenter"",""5"",""22150""
","
","
","""event"",""trial"",""time""
""fullscreenenter"",""5"",""22150""
","
",NA,images/earth.jpg,NA,NA,NA,NA,NA,NA,NA,NA,NA,NA,NA,NA,NA,fixation,NA,NA,NA,NA,NA,NA,sub76
d3-animate-choice,159,806535,0.0-76.0-0.8,TRUE,FALSE,FALSE,TRUE,"""event"",""trial"",""time""
""fullscreenenter"",""5"",""22150""
","
","
","""event"",""trial"",""time""
""fullscreenenter"",""5"",""22150""
","
",1226.5949999998556,NA,49,NA,NA,3000,1,NA,NA,images/earth.jpg,images/rocket2,images/rocket1,null,images/rocket1,NA,1,real,null,1,NA,NA,NA,sub76
d3-animate-choice,160,809190,0.0-76.0-1.8,TRUE,FALSE,FALSE,TRUE,"""event"",""trial"",""time""
""fullscreenenter"",""5"",""22150""
","
","
","""event"",""trial"",""time""
""fullscreenenter"",""5"",""22150""
","
",643.4450000001816,NA,48,NA,NA,3000,1,NA,NA,images/purpleplanet.jpg,images/alien4,images/alien3,images/rocket1,images/alien4,images/nothing.png,2,real,true,2,common,0,2020-06-22T22:24:48Z,sub76
two-step-fixation,161,810199,0.0-76.0-2.8,TRUE,FALSE,FALSE,TRUE,"""event"",""trial"",""time""
""fullscreenenter"",""5"",""22150""
","
","
","""event"",""trial"",""time""
""fullscreenenter"",""5"",""22150""
","
",NA,images/earth.jpg,NA,NA,NA,NA,NA,NA,NA,NA,NA,NA,NA,NA,NA,fixation,NA,NA,NA,NA,NA,NA,sub76
d3-animate-choice,162,813880,0.0-76.0-0.9,TRUE,FALSE,FALSE,TRUE,"""event"",""trial"",""time""
""fullscreenenter"",""5"",""22150""
","
","
","""event"",""trial"",""time""
""fullscreenenter"",""5"",""22150""
","
",1671.5949999997392,NA,48,NA,NA,3000,1,NA,NA,images/earth.jpg,images/rocket2,images/rocket1,null,images/rocket2,NA,1,real,null,2,NA,NA,NA,sub76
d3-animate-choice,163,817068,0.0-76.0-1.9,TRUE,FALSE,FALSE,TRUE,"""event"",""trial"",""time""
""fullscreenenter"",""5"",""22150""
","
","
","""event"",""trial"",""time""
""fullscreenenter"",""5"",""22150""
","
",1178.3500000000931,NA,49,NA,NA,3000,1,NA,NA,images/redplanet1.jpg,images/alien2,images/alien1,images/rocket2,images/alien1,images/nothing.png,2,real,true,1,common,0,2020-06-22T22:24:56Z,sub76
two-step-fixation,164,818076,0.0-76.0-2.9,TRUE,FALSE,FALSE,TRUE,"""event"",""trial"",""time""
""fullscreenenter"",""5"",""22150""
","
","
","""event"",""trial"",""time""
""fullscreenenter"",""5"",""22150""
","
",NA,images/earth.jpg,NA,NA,NA,NA,NA,NA,NA,NA,NA,NA,NA,NA,NA,fixation,NA,NA,NA,NA,NA,NA,sub76
d3-animate-choice,165,820456,0.0-76.0-0.10,TRUE,FALSE,FALSE,TRUE,"""event"",""trial"",""time""
""fullscreenenter"",""5"",""22150""
","
","
","""event"",""trial"",""time""
""fullscreenenter"",""5"",""22150""
","
",369.45999999984633,NA,48,NA,NA,3000,1,NA,NA,images/earth.jpg,images/rocket2,images/rocket1,null,images/rocket2,NA,1,real,null,2,NA,NA,NA,sub76
d3-animate-choice,166,822870,0.0-76.0-1.10,TRUE,FALSE,FALSE,TRUE,"""event"",""trial"",""time""
""fullscreenenter"",""5"",""22150""
","
","
","""event"",""trial"",""time""
""fullscreenenter"",""5"",""22150""
","
",403.4450000001816,NA,48,NA,NA,3000,1,NA,NA,images/redplanet1.jpg,images/alien2,images/alien1,images/rocket2,images/alien2,images/t.png,2,real,true,2,common,1,2020-06-22T22:25:02Z,sub76
two-step-fixation,167,823878,0.0-76.0-2.10,TRUE,FALSE,FALSE,TRUE,"""event"",""trial"",""time""
""fullscreenenter"",""5"",""22150""
","
","
","""event"",""trial"",""time""
""fullscreenenter"",""5"",""22150""
","
",NA,images/earth.jpg,NA,NA,NA,NA,NA,NA,NA,NA,NA,NA,NA,NA,NA,fixation,NA,NA,NA,NA,NA,NA,sub76
d3-animate-choice,168,826220,0.0-76.0-0.11,TRUE,FALSE,FALSE,TRUE,"""event"",""trial"",""time""
""fullscreenenter"",""5"",""22150""
","
","
","""event"",""trial"",""time""
""fullscreenenter"",""5"",""22150""
","
",332.10000000009313,NA,48,NA,NA,3000,1,NA,NA,images/earth.jpg,images/rocket2,images/rocket1,null,images/rocket2,NA,1,real,null,2,NA,NA,NA,sub76
d3-animate-choice,169,828781,0.0-76.0-1.11,TRUE,FALSE,FALSE,TRUE,"""event"",""trial"",""time""
""fullscreenenter"",""5"",""22150""
","
","
","""event"",""trial"",""time""
""fullscreenenter"",""5"",""22150""
","
",551.1049999999814,NA,48,NA,NA,3000,1,NA,NA,images/redplanet1.jpg,images/alien2,images/alien1,images/rocket2,images/alien2,images/t.png,2,real,true,2,common,1,2020-06-22T22:25:08Z,sub76
two-step-fixation,170,829789,0.0-76.0-2.11,TRUE,FALSE,FALSE,TRUE,"""event"",""trial"",""time""
""fullscreenenter"",""5"",""22150""
","
","
","""event"",""trial"",""time""
""fullscreenenter"",""5"",""22150""
","
",NA,images/earth.jpg,NA,NA,NA,NA,NA,NA,NA,NA,NA,NA,NA,NA,NA,fixation,NA,NA,NA,NA,NA,NA,sub76
d3-animate-choice,171,832097,0.0-76.0-0.12,TRUE,FALSE,FALSE,TRUE,"""event"",""trial"",""time""
""fullscreenenter"",""5"",""22150""
","
","
","""event"",""trial"",""time""
""fullscreenenter"",""5"",""22150""
","
",299.1600000000326,NA,48,NA,NA,3000,1,NA,NA,images/earth.jpg,images/rocket2,images/rocket1,null,images/rocket2,NA,1,real,null,2,NA,NA,NA,sub76
d3-animate-choice,172,834524,0.0-76.0-1.12,TRUE,FALSE,FALSE,TRUE,"""event"",""trial"",""time""
""fullscreenenter"",""5"",""22150""
","
","
","""event"",""trial"",""time""
""fullscreenenter"",""5"",""22150""
","
",415.785000000149,NA,48,NA,NA,3000,1,NA,NA,images/purpleplanet.jpg,images/alien4,images/alien3,images/rocket2,images/alien4,images/t.png,2,real,false,2,rare,1,2020-06-22T22:25:14Z,sub76
two-step-fixation,173,835532,0.0-76.0-2.12,TRUE,FALSE,FALSE,TRUE,"""event"",""trial"",""time""
""fullscreenenter"",""5"",""22150""
","
","
","""event"",""trial"",""time""
""fullscreenenter"",""5"",""22150""
","
",NA,images/earth.jpg,NA,NA,NA,NA,NA,NA,NA,NA,NA,NA,NA,NA,NA,fixation,NA,NA,NA,NA,NA,NA,sub76
d3-animate-choice,174,837901,0.0-76.0-0.13,TRUE,FALSE,FALSE,TRUE,"""event"",""trial"",""time""
""fullscreenenter"",""5"",""22150""
","
","
","""event"",""trial"",""time""
""fullscreenenter"",""5"",""22150""
","
",360.9199999999255,NA,48,NA,NA,3000,1,NA,NA,images/earth.jpg,images/rocket2,images/rocket1,null,images/rocket2,NA,1,real,null,2,NA,NA,NA,sub76
d3-animate-choice,175,840520,0.0-76.0-1.13,TRUE,FALSE,FALSE,TRUE,"""event"",""trial"",""time""
""fullscreenenter"",""5"",""22150""
","
","
","""event"",""trial"",""time""
""fullscreenenter"",""5"",""22150""
","
",609.7800000000279,NA,48,NA,NA,3000,1,NA,NA,images/redplanet1.jpg,images/alien2,images/alien1,images/rocket2,images/alien2,images/t.png,2,real,true,2,common,1,2020-06-22T22:25:20Z,sub76
two-step-fixation,176,841528,0.0-76.0-2.13,TRUE,FALSE,FALSE,TRUE,"""event"",""trial"",""time""
""fullscreenenter"",""5"",""22150""
","
","
","""event"",""trial"",""time""
""fullscreenenter"",""5"",""22150""
","
",NA,images/earth.jpg,NA,NA,NA,NA,NA,NA,NA,NA,NA,NA,NA,NA,NA,fixation,NA,NA,NA,NA,NA,NA,sub76
d3-animate-choice,177,843879,0.0-76.0-0.14,TRUE,FALSE,FALSE,TRUE,"""event"",""trial"",""time""
""fullscreenenter"",""5"",""22150""
","
","
","""event"",""trial"",""time""
""fullscreenenter"",""5"",""22150""
","
",342.88999999989755,NA,48,NA,NA,3000,1,NA,NA,images/earth.jpg,images/rocket2,images/rocket1,null,images/rocket2,NA,1,real,null,2,NA,NA,NA,sub76
d3-animate-choice,178,846588,0.0-76.0-1.14,TRUE,FALSE,FALSE,TRUE,"""event"",""trial"",""time""
""fullscreenenter"",""5"",""22150""
","
","
","""event"",""trial"",""time""
""fullscreenenter"",""5"",""22150""
","
",700.1249999998836,NA,48,NA,NA,3000,1,NA,NA,images/redplanet1.jpg,images/alien2,images/alien1,images/rocket2,images/alien2,images/t.png,2,real,true,2,common,1,2020-06-22T22:25:26Z,sub76
two-step-fixation,179,847600,0.0-76.0-2.14,TRUE,FALSE,FALSE,TRUE,"""event"",""trial"",""time""
""fullscreenenter"",""5"",""22150""
","
","
","""event"",""trial"",""time""
""fullscreenenter"",""5"",""22150""
","
",NA,images/earth.jpg,NA,NA,NA,NA,NA,NA,NA,NA,NA,NA,NA,NA,NA,fixation,NA,NA,NA,NA,NA,NA,sub76
d3-animate-choice,180,850065,0.0-76.0-0.15,TRUE,FALSE,FALSE,TRUE,"""event"",""trial"",""time""
""fullscreenenter"",""5"",""22150""
","
","
","""event"",""trial"",""time""
""fullscreenenter"",""5"",""22150""
","
",455.54999999993015,NA,48,NA,NA,3000,1,NA,NA,images/earth.jpg,images/rocket2,images/rocket1,null,images/rocket2,NA,1,real,null,2,NA,NA,NA,sub76
d3-animate-choice,181,852448,0.0-76.0-1.15,TRUE,FALSE,FALSE,TRUE,"""event"",""trial"",""time""
""fullscreenenter"",""5"",""22150""
","
","
","""event"",""trial"",""time""
""fullscreenenter"",""5"",""22150""
","
",373.9550000000745,NA,48,NA,NA,3000,1,NA,NA,images/redplanet1.jpg,images/alien2,images/alien1,images/rocket2,images/alien2,images/nothing.png,2,real,true,2,common,0,2020-06-22T22:25:31Z,sub76
two-step-fixation,182,853456,0.0-76.0-2.15,TRUE,FALSE,FALSE,TRUE,"""event"",""trial"",""time""
""fullscreenenter"",""5"",""22150""
","
","
","""event"",""trial"",""time""
""fullscreenenter"",""5"",""22150""
","
",NA,images/earth.jpg,NA,NA,NA,NA,NA,NA,NA,NA,NA,NA,NA,NA,NA,fixation,NA,NA,NA,NA,NA,NA,sub76
d3-animate-choice,183,855842,0.0-76.0-0.16,TRUE,FALSE,FALSE,TRUE,"""event"",""trial"",""time""
""fullscreenenter"",""5"",""22150""
","
","
","""event"",""trial"",""time""
""fullscreenenter"",""5"",""22150""
","
",374.58499999996275,NA,49,NA,NA,3000,1,NA,NA,images/earth.jpg,images/rocket2,images/rocket1,null,images/rocket1,NA,1,real,null,1,NA,NA,NA,sub76
d3-animate-choice,184,858348,0.0-76.0-1.16,TRUE,FALSE,FALSE,TRUE,"""event"",""trial"",""time""
""fullscreenenter"",""5"",""22150""
","
","
","""event"",""trial"",""time""
""fullscreenenter"",""5"",""22150""
","
",497.4449999999488,NA,48,NA,NA,3000,1,NA,NA,images/purpleplanet.jpg,images/alien4,images/alien3,images/rocket1,images/alien4,images/t.png,2,real,true,2,common,1,2020-06-22T22:25:37Z,sub76
two-step-fixation,185,859357,0.0-76.0-2.16,TRUE,FALSE,FALSE,TRUE,"""event"",""trial"",""time""
""fullscreenenter"",""5"",""22150""
","
","
","""event"",""trial"",""time""
""fullscreenenter"",""5"",""22150""
","
",NA,images/earth.jpg,NA,NA,NA,NA,NA,NA,NA,NA,NA,NA,NA,NA,NA,fixation,NA,NA,NA,NA,NA,NA,sub76
d3-animate-choice,186,861611,0.0-76.0-0.17,TRUE,FALSE,FALSE,TRUE,"""event"",""trial"",""time""
""fullscreenenter"",""5"",""22150""
","
","
","""event"",""trial"",""time""
""fullscreenenter"",""5"",""22150""
","
",245.01500000013039,NA,49,NA,NA,3000,1,NA,NA,images/earth.jpg,images/rocket2,images/rocket1,null,images/rocket1,NA,1,real,null,1,NA,NA,NA,sub76
d3-animate-choice,187,864054,0.0-76.0-1.17,TRUE,FALSE,FALSE,TRUE,"""event"",""trial"",""time""
""fullscreenenter"",""5"",""22150""
","
","
","""event"",""trial"",""time""
""fullscreenenter"",""5"",""22150""
","
",431.75,NA,48,NA,NA,3000,1,NA,NA,images/purpleplanet.jpg,images/alien4,images/alien3,images/rocket1,images/alien4,images/nothing.png,2,real,true,2,common,0,2020-06-22T22:25:43Z,sub76
two-step-fixation,188,865062,0.0-76.0-2.17,TRUE,FALSE,FALSE,TRUE,"""event"",""trial"",""time""
""fullscreenenter"",""5"",""22150""
","
","
","""event"",""trial"",""time""
""fullscreenenter"",""5"",""22150""
","
",NA,images/earth.jpg,NA,NA,NA,NA,NA,NA,NA,NA,NA,NA,NA,NA,NA,fixation,NA,NA,NA,NA,NA,NA,sub76
d3-animate-choice,189,867332,0.0-76.0-0.18,TRUE,FALSE,FALSE,TRUE,"""event"",""trial"",""time""
""fullscreenenter"",""5"",""22150""
","
","
","""event"",""trial"",""time""
""fullscreenenter"",""5"",""22150""
","
",260.92499999981374,NA,49,NA,NA,3000,1,NA,NA,images/earth.jpg,images/rocket2,images/rocket1,null,images/rocket1,NA,1,real,null,1,NA,NA,NA,sub76
d3-animate-choice,190,869744,0.0-76.0-1.18,TRUE,FALSE,FALSE,TRUE,"""event"",""trial"",""time""
""fullscreenenter"",""5"",""22150""
","
","
","""event"",""trial"",""time""
""fullscreenenter"",""5"",""22150""
","
",399.7750000001397,NA,49,NA,NA,3000,1,NA,NA,images/redplanet1.jpg,images/alien2,images/alien1,images/rocket1,images/alien1,images/nothing.png,2,real,false,1,rare,0,2020-06-22T22:25:49Z,sub76
two-step-fixation,191,870752,0.0-76.0-2.18,TRUE,FALSE,FALSE,TRUE,"""event"",""trial"",""time""
""fullscreenenter"",""5"",""22150""
","
","
","""event"",""trial"",""time""
""fullscreenenter"",""5"",""22150""
","
",NA,images/earth.jpg,NA,NA,NA,NA,NA,NA,NA,NA,NA,NA,NA,NA,NA,fixation,NA,NA,NA,NA,NA,NA,sub76
d3-animate-choice,192,873190,0.0-76.0-0.19,TRUE,FALSE,FALSE,TRUE,"""event"",""trial"",""time""
""fullscreenenter"",""5"",""22150""
","
","
","""event"",""trial"",""time""
""fullscreenenter"",""5"",""22150""
","
",428.25000000023283,NA,49,NA,NA,3000,1,NA,NA,images/earth.jpg,images/rocket2,images/rocket1,null,images/rocket1,NA,1,real,null,1,NA,NA,NA,sub76
d3-animate-choice,193,876408,0.0-76.0-1.19,TRUE,FALSE,FALSE,TRUE,"""event"",""trial"",""time""
""fullscreenenter"",""5"",""22150""
","
","
","""event"",""trial"",""time""
""fullscreenenter"",""5"",""22150""
","
",1210.0200000000186,NA,48,NA,NA,3000,1,NA,NA,images/redplanet1.jpg,images/alien2,images/alien1,images/rocket1,images/alien2,images/t.png,2,real,false,2,rare,1,2020-06-22T22:25:55Z,sub76
two-step-fixation,194,877417,0.0-76.0-2.19,TRUE,FALSE,FALSE,TRUE,"""event"",""trial"",""time""
""fullscreenenter"",""5"",""22150""
","
","
","""event"",""trial"",""time""
""fullscreenenter"",""5"",""22150""
","
",NA,images/earth.jpg,NA,NA,NA,NA,NA,NA,NA,NA,NA,NA,NA,NA,NA,fixation,NA,NA,NA,NA,NA,NA,sub76
d3-animate-choice,195,879560,0.0-76.0-0.20,TRUE,FALSE,FALSE,TRUE,"""event"",""trial"",""time""
""fullscreenenter"",""5"",""22150""
","
","
","""event"",""trial"",""time""
""fullscreenenter"",""5"",""22150""
","
",134.1149999999907,NA,49,NA,NA,3000,1,NA,NA,images/earth.jpg,images/rocket2,images/rocket1,null,images/rocket1,NA,1,real,null,1,NA,NA,NA,sub76
d3-animate-choice,196,882092,0.0-76.0-1.20,TRUE,FALSE,FALSE,TRUE,"""event"",""trial"",""time""
""fullscreenenter"",""5"",""22150""
","
","
","""event"",""trial"",""time""
""fullscreenenter"",""5"",""22150""
","
",517.9599999998463,NA,49,NA,NA,3000,1,NA,NA,images/purpleplanet.jpg,images/alien4,images/alien3,images/rocket1,images/alien3,images/t.png,2,real,true,1,common,1,2020-06-22T22:26:01Z,sub76
two-step-fixation,197,883096,0.0-76.0-2.20,TRUE,FALSE,FALSE,TRUE,"""event"",""trial"",""time""
""fullscreenenter"",""5"",""22150""
","
","
","""event"",""trial"",""time""
""fullscreenenter"",""5"",""22150""
","
",NA,images/earth.jpg,NA,NA,NA,NA,NA,NA,NA,NA,NA,NA,NA,NA,NA,fixation,NA,NA,NA,NA,NA,NA,sub76
d3-animate-choice,198,885550,0.0-76.0-0.21,TRUE,FALSE,FALSE,TRUE,"""event"",""trial"",""time""
""fullscreenenter"",""5"",""22150""
","
","
","""event"",""trial"",""time""
""fullscreenenter"",""5"",""22150""
","
",445.09000000020023,NA,49,NA,NA,3000,1,NA,NA,images/earth.jpg,images/rocket2,images/rocket1,null,images/rocket1,NA,1,real,null,1,NA,NA,NA,sub76
d3-animate-choice,199,889535,0.0-76.0-1.21,TRUE,FALSE,FALSE,TRUE,"""event"",""trial"",""time""
""fullscreenenter"",""5"",""22150""
","
","
","""event"",""trial"",""time""
""fullscreenenter"",""5"",""22150""
","
",1973.2850000000326,NA,49,NA,NA,3000,1,NA,NA,images/redplanet1.jpg,images/alien2,images/alien1,images/rocket1,images/alien1,images/nothing.png,2,real,false,1,rare,0,2020-06-22T22:26:09Z,sub76
two-step-fixation,200,890543,0.0-76.0-2.21,TRUE,FALSE,FALSE,TRUE,"""event"",""trial"",""time""
""fullscreenenter"",""5"",""22150""
","
","
","""event"",""trial"",""time""
""fullscreenenter"",""5"",""22150""
","
",NA,images/earth.jpg,NA,NA,NA,NA,NA,NA,NA,NA,NA,NA,NA,NA,NA,fixation,NA,NA,NA,NA,NA,NA,sub76
d3-animate-choice,201,892937,0.0-76.0-0.22,TRUE,FALSE,FALSE,TRUE,"""event"",""trial"",""time""
""fullscreenenter"",""5"",""22150""
","
","
","""event"",""trial"",""time""
""fullscreenenter"",""5"",""22150""
","
",383.85000000020955,NA,49,NA,NA,3000,1,NA,NA,images/earth.jpg,images/rocket2,images/rocket1,null,images/rocket1,NA,1,real,null,1,NA,NA,NA,sub76
d3-animate-choice,202,895875,0.0-76.0-1.22,TRUE,FALSE,FALSE,TRUE,"""event"",""trial"",""time""
""fullscreenenter"",""5"",""22150""
","
","
","""event"",""trial"",""time""
""fullscreenenter"",""5"",""22150""
","
",927.0900000002002,NA,49,NA,NA,3000,1,NA,NA,images/purpleplanet.jpg,images/alien4,images/alien3,images/rocket1,images/alien3,images/nothing.png,2,real,true,1,common,0,2020-06-22T22:26:15Z,sub76
two-step-fixation,203,896883,0.0-76.0-2.22,TRUE,FALSE,FALSE,TRUE,"""event"",""trial"",""time""
""fullscreenenter"",""5"",""22150""
","
","
","""event"",""trial"",""time""
""fullscreenenter"",""5"",""22150""
","
",NA,images/earth.jpg,NA,NA,NA,NA,NA,NA,NA,NA,NA,NA,NA,NA,NA,fixation,NA,NA,NA,NA,NA,NA,sub76
d3-animate-choice,204,899211,0.0-76.0-0.23,TRUE,FALSE,FALSE,TRUE,"""event"",""trial"",""time""
""fullscreenenter"",""5"",""22150""
","
","
","""event"",""trial"",""time""
""fullscreenenter"",""5"",""22150""
","
",318.5100000000093,NA,48,NA,NA,3000,1,NA,NA,images/earth.jpg,images/rocket2,images/rocket1,null,images/rocket2,NA,1,real,null,2,NA,NA,NA,sub76
d3-animate-choice,205,902128,0.0-76.0-1.23,TRUE,FALSE,FALSE,TRUE,"""event"",""trial"",""time""
""fullscreenenter"",""5"",""22150""
","
","
","""event"",""trial"",""time""
""fullscreenenter"",""5"",""22150""
","
",907.9650000000838,NA,48,NA,NA,3000,1,NA,NA,images/redplanet1.jpg,images/alien2,images/alien1,images/rocket2,images/alien2,images/t.png,2,real,true,2,common,1,2020-06-22T22:26:21Z,sub76
two-step-fixation,206,903136,0.0-76.0-2.23,TRUE,FALSE,FALSE,TRUE,"""event"",""trial"",""time""
""fullscreenenter"",""5"",""22150""
","
","
","""event"",""trial"",""time""
""fullscreenenter"",""5"",""22150""
","
",NA,images/earth.jpg,NA,NA,NA,NA,NA,NA,NA,NA,NA,NA,NA,NA,NA,fixation,NA,NA,NA,NA,NA,NA,sub76
d3-animate-choice,207,906128,0.0-76.0-0.24,TRUE,FALSE,FALSE,TRUE,"""event"",""trial"",""time""
""fullscreenenter"",""5"",""22150""
","
","
","""event"",""trial"",""time""
""fullscreenenter"",""5"",""22150""
","
",981.890000000014,NA,48,NA,NA,3000,1,NA,NA,images/earth.jpg,images/rocket2,images/rocket1,null,images/rocket2,NA,1,real,null,2,NA,NA,NA,sub76
d3-animate-choice,208,908954,0.0-76.0-1.24,TRUE,FALSE,FALSE,TRUE,"""event"",""trial"",""time""
""fullscreenenter"",""5"",""22150""
","
","
","""event"",""trial"",""time""
""fullscreenenter"",""5"",""22150""
","
",814.809999999823,NA,48,NA,NA,3000,1,NA,NA,images/redplanet1.jpg,images/alien2,images/alien1,images/rocket2,images/alien2,images/t.png,2,real,true,2,common,1,2020-06-22T22:26:28Z,sub76
two-step-fixation,209,909963,0.0-76.0-2.24,TRUE,FALSE,FALSE,TRUE,"""event"",""trial"",""time""
""fullscreenenter"",""5"",""22150""
","
","
","""event"",""trial"",""time""
""fullscreenenter"",""5"",""22150""
","
",NA,images/earth.jpg,NA,NA,NA,NA,NA,NA,NA,NA,NA,NA,NA,NA,NA,fixation,NA,NA,NA,NA,NA,NA,sub76
d3-animate-choice,210,912335,0.0-76.0-0.25,TRUE,FALSE,FALSE,TRUE,"""event"",""trial"",""time""
""fullscreenenter"",""5"",""22150""
","
","
","""event"",""trial"",""time""
""fullscreenenter"",""5"",""22150""
","
",363.61000000010245,NA,48,NA,NA,3000,1,NA,NA,images/earth.jpg,images/rocket2,images/rocket1,null,images/rocket2,NA,1,real,null,2,NA,NA,NA,sub76
d3-animate-choice,211,915155,0.0-76.0-1.25,TRUE,FALSE,FALSE,TRUE,"""event"",""trial"",""time""
""fullscreenenter"",""5"",""22150""
","
","
","""event"",""trial"",""time""
""fullscreenenter"",""5"",""22150""
","
",807.109999999986,NA,48,NA,NA,3000,1,NA,NA,images/redplanet1.jpg,images/alien2,images/alien1,images/rocket2,images/alien2,images/t.png,2,real,true,2,common,1,2020-06-22T22:26:34Z,sub76
two-step-fixation,212,916163,0.0-76.0-2.25,TRUE,FALSE,FALSE,TRUE,"""event"",""trial"",""time""
""fullscreenenter"",""5"",""22150""
","
","
","""event"",""trial"",""time""
""fullscreenenter"",""5"",""22150""
","
",NA,images/earth.jpg,NA,NA,NA,NA,NA,NA,NA,NA,NA,NA,NA,NA,NA,fixation,NA,NA,NA,NA,NA,NA,sub76
d3-animate-choice,213,918577,0.0-76.0-0.26,TRUE,FALSE,FALSE,TRUE,"""event"",""trial"",""time""
""fullscreenenter"",""5"",""22150""
","
","
","""event"",""trial"",""time""
""fullscreenenter"",""5"",""22150""
","
",404.125,NA,48,NA,NA,3000,1,NA,NA,images/earth.jpg,images/rocket2,images/rocket1,null,images/rocket2,NA,1,real,null,2,NA,NA,NA,sub76
d3-animate-choice,214,921672,0.0-76.0-1.26,TRUE,FALSE,FALSE,TRUE,"""event"",""trial"",""time""
""fullscreenenter"",""5"",""22150""
","
","
","""event"",""trial"",""time""
""fullscreenenter"",""5"",""22150""
","
",1083.8999999999069,NA,48,NA,NA,3000,1,NA,NA,images/purpleplanet.jpg,images/alien4,images/alien3,images/rocket2,images/alien4,images/t.png,2,real,false,2,rare,1,2020-06-22T22:26:41Z,sub76
two-step-fixation,215,922680,0.0-76.0-2.26,TRUE,FALSE,FALSE,TRUE,"""event"",""trial"",""time""
""fullscreenenter"",""5"",""22150""
","
","
","""event"",""trial"",""time""
""fullscreenenter"",""5"",""22150""
","
",NA,images/earth.jpg,NA,NA,NA,NA,NA,NA,NA,NA,NA,NA,NA,NA,NA,fixation,NA,NA,NA,NA,NA,NA,sub76
d3-animate-choice,216,925017,0.0-76.0-0.27,TRUE,FALSE,FALSE,TRUE,"""event"",""trial"",""time""
""fullscreenenter"",""5"",""22150""
","
","
","""event"",""trial"",""time""
""fullscreenenter"",""5"",""22150""
","
",326.83500000007916,NA,48,NA,NA,3000,1,NA,NA,images/earth.jpg,images/rocket2,images/rocket1,null,images/rocket2,NA,1,real,null,2,NA,NA,NA,sub76
d3-animate-choice,217,927670,0.0-76.0-1.27,TRUE,FALSE,FALSE,TRUE,"""event"",""trial"",""time""
""fullscreenenter"",""5"",""22150""
","
","
","""event"",""trial"",""time""
""fullscreenenter"",""5"",""22150""
","
",642.0499999999302,NA,48,NA,NA,3000,1,NA,NA,images/purpleplanet.jpg,images/alien4,images/alien3,images/rocket2,images/alien4,images/t.png,2,real,false,2,rare,1,2020-06-22T22:26:47Z,sub76
two-step-fixation,218,928679,0.0-76.0-2.27,TRUE,FALSE,FALSE,TRUE,"""event"",""trial"",""time""
""fullscreenenter"",""5"",""22150""
","
","
","""event"",""trial"",""time""
""fullscreenenter"",""5"",""22150""
","
",NA,images/earth.jpg,NA,NA,NA,NA,NA,NA,NA,NA,NA,NA,NA,NA,NA,fixation,NA,NA,NA,NA,NA,NA,sub76
d3-animate-choice,219,931292,0.0-76.0-0.28,TRUE,FALSE,FALSE,TRUE,"""event"",""trial"",""time""
""fullscreenenter"",""5"",""22150""
","
","
","""event"",""trial"",""time""
""fullscreenenter"",""5"",""22150""
","
",602.7050000000745,NA,48,NA,NA,3000,1,NA,NA,images/earth.jpg,images/rocket2,images/rocket1,null,images/rocket2,NA,1,real,null,2,NA,NA,NA,sub76
d3-animate-choice,220,933853,0.0-76.0-1.28,TRUE,FALSE,FALSE,TRUE,"""event"",""trial"",""time""
""fullscreenenter"",""5"",""22150""
","
","
","""event"",""trial"",""time""
""fullscreenenter"",""5"",""22150""
","
",553.2550000000047,NA,48,NA,NA,3000,1,NA,NA,images/purpleplanet.jpg,images/alien4,images/alien3,images/rocket2,images/alien4,images/t.png,2,real,false,2,rare,1,2020-06-22T22:26:53Z,sub76
two-step-fixation,221,934862,0.0-76.0-2.28,TRUE,FALSE,FALSE,TRUE,"""event"",""trial"",""time""
""fullscreenenter"",""5"",""22150""
","
","
","""event"",""trial"",""time""
""fullscreenenter"",""5"",""22150""
","
",NA,images/earth.jpg,NA,NA,NA,NA,NA,NA,NA,NA,NA,NA,NA,NA,NA,fixation,NA,NA,NA,NA,NA,NA,sub76
d3-animate-choice,222,937221,0.0-76.0-0.29,TRUE,FALSE,FALSE,TRUE,"""event"",""trial"",""time""
""fullscreenenter"",""5"",""22150""
","
","
","""event"",""trial"",""time""
""fullscreenenter"",""5"",""22150""
","
",350.0549999998184,NA,48,NA,NA,3000,1,NA,NA,images/earth.jpg,images/rocket2,images/rocket1,null,images/rocket2,NA,1,real,null,2,NA,NA,NA,sub76
d3-animate-choice,223,939745,0.0-76.0-1.29,TRUE,FALSE,FALSE,TRUE,"""event"",""trial"",""time""
""fullscreenenter"",""5"",""22150""
","
","
","""event"",""trial"",""time""
""fullscreenenter"",""5"",""22150""
","
",513.7250000000931,NA,48,NA,NA,3000,1,NA,NA,images/purpleplanet.jpg,images/alien4,images/alien3,images/rocket2,images/alien4,images/nothing.png,2,real,false,2,rare,0,2020-06-22T22:26:59Z,sub76
two-step-fixation,224,940753,0.0-76.0-2.29,TRUE,FALSE,FALSE,TRUE,"""event"",""trial"",""time""
""fullscreenenter"",""5"",""22150""
","
","
","""event"",""trial"",""time""
""fullscreenenter"",""5"",""22150""
","
",NA,images/earth.jpg,NA,NA,NA,NA,NA,NA,NA,NA,NA,NA,NA,NA,NA,fixation,NA,NA,NA,NA,NA,NA,sub76
d3-animate-choice,225,943096,0.0-76.0-0.30,TRUE,FALSE,FALSE,TRUE,"""event"",""trial"",""time""
""fullscreenenter"",""5"",""22150""
","
","
","""event"",""trial"",""time""
""fullscreenenter"",""5"",""22150""
","
",332.9749999999767,NA,48,NA,NA,3000,1,NA,NA,images/earth.jpg,images/rocket2,images/rocket1,null,images/rocket2,NA,1,real,null,2,NA,NA,NA,sub76
d3-animate-choice,226,945532,0.0-76.0-1.30,TRUE,FALSE,FALSE,TRUE,"""event"",""trial"",""time""
""fullscreenenter"",""5"",""22150""
","
","
","""event"",""trial"",""time""
""fullscreenenter"",""5"",""22150""
","
",427.17500000004657,NA,49,NA,NA,3000,1,1179.5,48,images/purpleplanet.jpg,images/alien4,images/alien3,images/rocket2,images/alien3,images/nothing.png,2,real,false,1,rare,0,2020-06-22T22:27:05Z,sub76
two-step-fixation,227,946540,0.0-76.0-2.30,TRUE,FALSE,FALSE,TRUE,"""event"",""trial"",""time""
""fullscreenenter"",""5"",""22150""
","
","
","""event"",""trial"",""time""
""fullscreenenter"",""5"",""22150""
","
",NA,images/earth.jpg,NA,NA,NA,NA,NA,NA,NA,NA,NA,NA,NA,NA,NA,fixation,NA,NA,NA,NA,NA,NA,sub76
d3-animate-choice,228,948889,0.0-76.0-0.31,TRUE,FALSE,FALSE,TRUE,"""event"",""trial"",""time""
""fullscreenenter"",""5"",""22150""
","
","
","""event"",""trial"",""time""
""fullscreenenter"",""5"",""22150""
","
",338.96000000007916,NA,49,NA,NA,3000,1,NA,NA,images/earth.jpg,images/rocket2,images/rocket1,null,images/rocket1,NA,1,real,null,1,NA,NA,NA,sub76
d3-animate-choice,229,952300,0.0-76.0-1.31,TRUE,FALSE,FALSE,TRUE,"""event"",""trial"",""time""
""fullscreenenter"",""5"",""22150""
","
","
","""event"",""trial"",""time""
""fullscreenenter"",""5"",""22150""
","
",1401.5849999998463,NA,49,NA,NA,3000,1,NA,NA,images/redplanet1.jpg,images/alien2,images/alien1,images/rocket1,images/alien1,images/t.png,2,real,false,1,rare,1,2020-06-22T22:27:11Z,sub76
two-step-fixation,230,953309,0.0-76.0-2.31,TRUE,FALSE,FALSE,TRUE,"""event"",""trial"",""time""
""fullscreenenter"",""5"",""22150""
","
","
","""event"",""trial"",""time""
""fullscreenenter"",""5"",""22150""
","
",NA,images/earth.jpg,NA,NA,NA,NA,NA,NA,NA,NA,NA,NA,NA,NA,NA,fixation,NA,NA,NA,NA,NA,NA,sub76
d3-animate-choice,231,955687,0.0-76.0-0.32,TRUE,FALSE,FALSE,TRUE,"""event"",""trial"",""time""
""fullscreenenter"",""5"",""22150""
","
","
","""event"",""trial"",""time""
""fullscreenenter"",""5"",""22150""
","
",369.7450000002282,NA,49,NA,NA,3000,1,NA,NA,images/earth.jpg,images/rocket2,images/rocket1,null,images/rocket1,NA,1,real,null,1,NA,NA,NA,sub76
d3-animate-choice,232,958336,0.0-76.0-1.32,TRUE,FALSE,FALSE,TRUE,"""event"",""trial"",""time""
""fullscreenenter"",""5"",""22150""
","
","
","""event"",""trial"",""time""
""fullscreenenter"",""5"",""22150""
","
",637.7900000000373,NA,49,NA,NA,3000,1,NA,NA,images/redplanet1.jpg,images/alien2,images/alien1,images/rocket1,images/alien1,images/t.png,2,real,false,1,rare,1,2020-06-22T22:27:17Z,sub76
two-step-fixation,233,959345,0.0-76.0-2.32,TRUE,FALSE,FALSE,TRUE,"""event"",""trial"",""time""
""fullscreenenter"",""5"",""22150""
","
","
","""event"",""trial"",""time""
""fullscreenenter"",""5"",""22150""
","
",NA,images/earth.jpg,NA,NA,NA,NA,NA,NA,NA,NA,NA,NA,NA,NA,NA,fixation,NA,NA,NA,NA,NA,NA,sub76
d3-animate-choice,234,961702,0.0-76.0-0.33,TRUE,FALSE,FALSE,TRUE,"""event"",""trial"",""time""
""fullscreenenter"",""5"",""22150""
","
","
","""event"",""trial"",""time""
""fullscreenenter"",""5"",""22150""
","
",348.95999999996275,NA,49,NA,NA,3000,1,NA,NA,images/earth.jpg,images/rocket2,images/rocket1,null,images/rocket1,NA,1,real,null,1,NA,NA,NA,sub76
d3-animate-choice,235,965398,0.0-76.0-1.33,TRUE,FALSE,FALSE,TRUE,"""event"",""trial"",""time""
""fullscreenenter"",""5"",""22150""
","
","
","""event"",""trial"",""time""
""fullscreenenter"",""5"",""22150""
","
",1687.7600000000093,NA,49,NA,NA,3000,1,NA,NA,images/purpleplanet.jpg,images/alien4,images/alien3,images/rocket1,images/alien3,images/nothing.png,2,real,true,1,common,0,2020-06-22T22:27:24Z,sub76
two-step-fixation,236,966416,0.0-76.0-2.33,TRUE,FALSE,FALSE,TRUE,"""event"",""trial"",""time""
""fullscreenenter"",""5"",""22150""
","
","
","""event"",""trial"",""time""
""fullscreenenter"",""5"",""22150""
","
",NA,images/earth.jpg,NA,NA,NA,NA,NA,NA,NA,NA,NA,NA,NA,NA,NA,fixation,NA,NA,NA,NA,NA,NA,sub76
d3-animate-choice,237,968788,0.0-76.0-0.34,TRUE,FALSE,FALSE,TRUE,"""event"",""trial"",""time""
""fullscreenenter"",""5"",""22150""
","
","
","""event"",""trial"",""time""
""fullscreenenter"",""5"",""22150""
","
",358.1349999998929,NA,49,NA,NA,3000,1,NA,NA,images/earth.jpg,images/rocket2,images/rocket1,null,images/rocket1,NA,1,real,null,1,NA,NA,NA,sub76
d3-animate-choice,238,971713,0.0-76.0-1.34,TRUE,FALSE,FALSE,TRUE,"""event"",""trial"",""time""
""fullscreenenter"",""5"",""22150""
","
","
","""event"",""trial"",""time""
""fullscreenenter"",""5"",""22150""
","
",915.2099999998463,NA,48,NA,NA,3000,1,NA,NA,images/purpleplanet.jpg,images/alien4,images/alien3,images/rocket1,images/alien4,images/t.png,2,real,true,2,common,1,2020-06-22T22:27:31Z,sub76
two-step-fixation,239,972721,0.0-76.0-2.34,TRUE,FALSE,FALSE,TRUE,"""event"",""trial"",""time""
""fullscreenenter"",""5"",""22150""
","
","
","""event"",""trial"",""time""
""fullscreenenter"",""5"",""22150""
","
",NA,images/earth.jpg,NA,NA,NA,NA,NA,NA,NA,NA,NA,NA,NA,NA,NA,fixation,NA,NA,NA,NA,NA,NA,sub76
d3-animate-choice,240,975146,0.0-76.0-0.35,TRUE,FALSE,FALSE,TRUE,"""event"",""trial"",""time""
""fullscreenenter"",""5"",""22150""
","
","
","""event"",""trial"",""time""
""fullscreenenter"",""5"",""22150""
","
",414.6549999997951,NA,49,NA,NA,3000,1,NA,NA,images/earth.jpg,images/rocket2,images/rocket1,null,images/rocket1,NA,1,real,null,1,NA,NA,NA,sub76
d3-animate-choice,241,977881,0.0-76.0-1.35,TRUE,FALSE,FALSE,TRUE,"""event"",""trial"",""time""
""fullscreenenter"",""5"",""22150""
","
","
","""event"",""trial"",""time""
""fullscreenenter"",""5"",""22150""
","
",724.7700000000186,NA,49,NA,NA,3000,1,NA,NA,images/redplanet1.jpg,images/alien2,images/alien1,images/rocket1,images/alien1,images/t.png,2,real,false,1,rare,1,2020-06-22T22:27:37Z,sub76
two-step-fixation,242,978889,0.0-76.0-2.35,TRUE,FALSE,FALSE,TRUE,"""event"",""trial"",""time""
""fullscreenenter"",""5"",""22150""
","
","
","""event"",""trial"",""time""
""fullscreenenter"",""5"",""22150""
","
",NA,images/earth.jpg,NA,NA,NA,NA,NA,NA,NA,NA,NA,NA,NA,NA,NA,fixation,NA,NA,NA,NA,NA,NA,sub76
d3-animate-choice,243,981244,0.0-76.0-0.36,TRUE,FALSE,FALSE,TRUE,"""event"",""trial"",""time""
""fullscreenenter"",""5"",""22150""
","
","
","""event"",""trial"",""time""
""fullscreenenter"",""5"",""22150""
","
",345.34499999997206,NA,48,NA,NA,3000,1,NA,NA,images/earth.jpg,images/rocket2,images/rocket1,null,images/rocket2,NA,1,real,null,2,NA,NA,NA,sub76
d3-animate-choice,244,984035,0.0-76.0-1.36,TRUE,FALSE,FALSE,TRUE,"""event"",""trial"",""time""
""fullscreenenter"",""5"",""22150""
","
","
","""event"",""trial"",""time""
""fullscreenenter"",""5"",""22150""
","
",782.2799999999115,NA,49,NA,NA,3000,1,NA,NA,images/redplanet1.jpg,images/alien2,images/alien1,images/rocket2,images/alien1,images/t.png,2,real,true,1,common,1,2020-06-22T22:27:43Z,sub76
two-step-fixation,245,985044,0.0-76.0-2.36,TRUE,FALSE,FALSE,TRUE,"""event"",""trial"",""time""
""fullscreenenter"",""5"",""22150""
","
","
","""event"",""trial"",""time""
""fullscreenenter"",""5"",""22150""
","
",NA,images/earth.jpg,NA,NA,NA,NA,NA,NA,NA,NA,NA,NA,NA,NA,NA,fixation,NA,NA,NA,NA,NA,NA,sub76
d3-animate-choice,246,987692,0.0-76.0-0.37,TRUE,FALSE,FALSE,TRUE,"""event"",""trial"",""time""
""fullscreenenter"",""5"",""22150""
","
","
","""event"",""trial"",""time""
""fullscreenenter"",""5"",""22150""
","
",638.3800000001211,NA,49,NA,NA,3000,1,NA,NA,images/earth.jpg,images/rocket2,images/rocket1,null,images/rocket1,NA,1,real,null,1,NA,NA,NA,sub76
d3-animate-choice,247,990297,0.0-76.0-1.37,TRUE,FALSE,FALSE,TRUE,"""event"",""trial"",""time""
""fullscreenenter"",""5"",""22150""
","
","
","""event"",""trial"",""time""
""fullscreenenter"",""5"",""22150""
","
",595.0450000000419,NA,49,NA,NA,3000,1,NA,NA,images/redplanet1.jpg,images/alien2,images/alien1,images/rocket1,images/alien1,images/t.png,2,real,false,1,rare,1,2020-06-22T22:27:49Z,sub76
two-step-fixation,248,991305,0.0-76.0-2.37,TRUE,FALSE,FALSE,TRUE,"""event"",""trial"",""time""
""fullscreenenter"",""5"",""22150""
","
","
","""event"",""trial"",""time""
""fullscreenenter"",""5"",""22150""
","
",NA,images/earth.jpg,NA,NA,NA,NA,NA,NA,NA,NA,NA,NA,NA,NA,NA,fixation,NA,NA,NA,NA,NA,NA,sub76
d3-animate-choice,249,994070,0.0-76.0-0.38,TRUE,FALSE,FALSE,TRUE,"""event"",""trial"",""time""
""fullscreenenter"",""5"",""22150""
","
","
","""event"",""trial"",""time""
""fullscreenenter"",""5"",""22150""
","
",756.6099999998696,NA,49,NA,NA,3000,1,NA,NA,images/earth.jpg,images/rocket2,images/rocket1,null,images/rocket1,NA,1,real,null,1,NA,NA,NA,sub76
d3-animate-choice,250,997582,0.0-76.0-1.38,TRUE,FALSE,FALSE,TRUE,"""event"",""trial"",""time""
""fullscreenenter"",""5"",""22150""
","
","
","""event"",""trial"",""time""
""fullscreenenter"",""5"",""22150""
","
",1498.0000000001164,NA,48,NA,NA,3000,1,NA,NA,images/purpleplanet.jpg,images/alien4,images/alien3,images/rocket1,images/alien4,images/t.png,2,real,true,2,common,1,2020-06-22T22:27:57Z,sub76
two-step-fixation,251,998591,0.0-76.0-2.38,TRUE,FALSE,FALSE,TRUE,"""event"",""trial"",""time""
""fullscreenenter"",""5"",""22150""
","
","
","""event"",""trial"",""time""
""fullscreenenter"",""5"",""22150""
","
",NA,images/earth.jpg,NA,NA,NA,NA,NA,NA,NA,NA,NA,NA,NA,NA,NA,fixation,NA,NA,NA,NA,NA,NA,sub76
d3-animate-choice,252,1000952,0.0-76.0-0.39,TRUE,FALSE,FALSE,TRUE,"""event"",""trial"",""time""
""fullscreenenter"",""5"",""22150""
","
","
","""event"",""trial"",""time""
""fullscreenenter"",""5"",""22150""
","
",351.59499999985565,NA,49,NA,NA,3000,1,NA,NA,images/earth.jpg,images/rocket2,images/rocket1,null,images/rocket1,NA,1,real,null,1,NA,NA,NA,sub76
d3-animate-choice,253,1003511,0.0-76.0-1.39,TRUE,FALSE,FALSE,TRUE,"""event"",""trial"",""time""
""fullscreenenter"",""5"",""22150""
","
","
","""event"",""trial"",""time""
""fullscreenenter"",""5"",""22150""
","
",549.8549999999814,NA,48,NA,NA,3000,1,NA,NA,images/purpleplanet.jpg,images/alien4,images/alien3,images/rocket1,images/alien4,images/nothing.png,2,real,true,2,common,0,2020-06-22T22:28:03Z,sub76
two-step-fixation,254,1004519,0.0-76.0-2.39,TRUE,FALSE,FALSE,TRUE,"""event"",""trial"",""time""
""fullscreenenter"",""5"",""22150""
","
","
","""event"",""trial"",""time""
""fullscreenenter"",""5"",""22150""
","
",NA,images/earth.jpg,NA,NA,NA,NA,NA,NA,NA,NA,NA,NA,NA,NA,NA,fixation,NA,NA,NA,NA,NA,NA,sub76
d3-animate-choice,255,1006938,0.0-76.0-0.40,TRUE,FALSE,FALSE,TRUE,"""event"",""trial"",""time""
""fullscreenenter"",""5"",""22150""
","
","
","""event"",""trial"",""time""
""fullscreenenter"",""5"",""22150""
","
",410.7149999999674,NA,49,NA,NA,3000,1,NA,NA,images/earth.jpg,images/rocket2,images/rocket1,null,images/rocket1,NA,1,real,null,1,NA,NA,NA,sub76
d3-animate-choice,256,1009956,0.0-76.0-1.40,TRUE,FALSE,FALSE,TRUE,"""event"",""trial"",""time""
""fullscreenenter"",""5"",""22150""
","
","
","""event"",""trial"",""time""
""fullscreenenter"",""5"",""22150""
","
",1007.8049999999348,NA,49,NA,NA,3000,1,NA,NA,images/purpleplanet.jpg,images/alien4,images/alien3,images/rocket1,images/alien3,images/t.png,2,real,true,1,common,1,2020-06-22T22:28:09Z,sub76
two-step-fixation,257,1010965,0.0-76.0-2.40,TRUE,FALSE,FALSE,TRUE,"""event"",""trial"",""time""
""fullscreenenter"",""5"",""22150""
","
","
","""event"",""trial"",""time""
""fullscreenenter"",""5"",""22150""
","
",NA,images/earth.jpg,NA,NA,NA,NA,NA,NA,NA,NA,NA,NA,NA,NA,NA,fixation,NA,NA,NA,NA,NA,NA,sub76
d3-animate-choice,258,1013396,0.0-76.0-0.41,TRUE,FALSE,FALSE,TRUE,"""event"",""trial"",""time""
""fullscreenenter"",""5"",""22150""
","
","
","""event"",""trial"",""time""
""fullscreenenter"",""5"",""22150""
","
",421.7799999999115,NA,49,NA,NA,3000,1,NA,NA,images/earth.jpg,images/rocket2,images/rocket1,null,images/rocket1,NA,1,real,null,1,NA,NA,NA,sub76
d3-animate-choice,259,1015959,0.0-76.0-1.41,TRUE,FALSE,FALSE,TRUE,"""event"",""trial"",""time""
""fullscreenenter"",""5"",""22150""
","
","
","""event"",""trial"",""time""
""fullscreenenter"",""5"",""22150""
","
",554.3700000003446,NA,49,NA,NA,3000,1,NA,NA,images/purpleplanet.jpg,images/alien4,images/alien3,images/rocket1,images/alien3,images/nothing.png,2,real,true,1,common,0,2020-06-22T22:28:15Z,sub76
two-step-fixation,260,1016968,0.0-76.0-2.41,TRUE,FALSE,FALSE,TRUE,"""event"",""trial"",""time""
""fullscreenenter"",""5"",""22150""
","
","
","""event"",""trial"",""time""
""fullscreenenter"",""5"",""22150""
","
",NA,images/earth.jpg,NA,NA,NA,NA,NA,NA,NA,NA,NA,NA,NA,NA,NA,fixation,NA,NA,NA,NA,NA,NA,sub76
d3-animate-choice,261,1019384,0.0-76.0-0.42,TRUE,FALSE,FALSE,TRUE,"""event"",""trial"",""time""
""fullscreenenter"",""5"",""22150""
","
","
","""event"",""trial"",""time""
""fullscreenenter"",""5"",""22150""
","
",407.1549999999115,NA,49,NA,NA,3000,1,NA,NA,images/earth.jpg,images/rocket2,images/rocket1,null,images/rocket1,NA,1,real,null,1,NA,NA,NA,sub76
d3-animate-choice,262,1022347,0.0-76.0-1.42,TRUE,FALSE,FALSE,TRUE,"""event"",""trial"",""time""
""fullscreenenter"",""5"",""22150""
","
","
","""event"",""trial"",""time""
""fullscreenenter"",""5"",""22150""
","
",952.9950000001118,NA,48,NA,NA,3000,1,NA,NA,images/purpleplanet.jpg,images/alien4,images/alien3,images/rocket1,images/alien4,images/t.png,2,real,true,2,common,1,2020-06-22T22:28:21Z,sub76
two-step-fixation,263,1023357,0.0-76.0-2.42,TRUE,FALSE,FALSE,TRUE,"""event"",""trial"",""time""
""fullscreenenter"",""5"",""22150""
","
","
","""event"",""trial"",""time""
""fullscreenenter"",""5"",""22150""
","
",NA,images/earth.jpg,NA,NA,NA,NA,NA,NA,NA,NA,NA,NA,NA,NA,NA,fixation,NA,NA,NA,NA,NA,NA,sub76
d3-animate-choice,264,1026533,0.0-76.0-0.43,TRUE,FALSE,FALSE,TRUE,"""event"",""trial"",""time""
""fullscreenenter"",""5"",""22150""
","
","
","""event"",""trial"",""time""
""fullscreenenter"",""5"",""22150""
","
",1166.8800000002375,NA,48,NA,NA,3000,1,NA,NA,images/earth.jpg,images/rocket2,images/rocket1,null,images/rocket2,NA,1,real,null,2,NA,NA,NA,sub76
d3-animate-choice,265,1028918,0.0-76.0-1.43,TRUE,FALSE,FALSE,TRUE,"""event"",""trial"",""time""
""fullscreenenter"",""5"",""22150""
","
","
","""event"",""trial"",""time""
""fullscreenenter"",""5"",""22150""
","
",373.23999999987427,NA,49,NA,NA,3000,1,NA,NA,images/redplanet1.jpg,images/alien2,images/alien1,images/rocket2,images/alien1,images/t.png,2,real,true,1,common,1,2020-06-22T22:28:28Z,sub76
two-step-fixation,266,1029927,0.0-76.0-2.43,TRUE,FALSE,FALSE,TRUE,"""event"",""trial"",""time""
""fullscreenenter"",""5"",""22150""
","
","
","""event"",""trial"",""time""
""fullscreenenter"",""5"",""22150""
","
",NA,images/earth.jpg,NA,NA,NA,NA,NA,NA,NA,NA,NA,NA,NA,NA,NA,fixation,NA,NA,NA,NA,NA,NA,sub76
d3-animate-choice,267,1032436,0.0-76.0-0.44,TRUE,FALSE,FALSE,TRUE,"""event"",""trial"",""time""
""fullscreenenter"",""5"",""22150""
","
","
","""event"",""trial"",""time""
""fullscreenenter"",""5"",""22150""
","
",500.7300000002142,NA,49,NA,NA,3000,1,NA,NA,images/earth.jpg,images/rocket2,images/rocket1,null,images/rocket1,NA,1,real,null,1,NA,NA,NA,sub76
d3-animate-choice,268,1035247,0.0-76.0-1.44,TRUE,FALSE,FALSE,TRUE,"""event"",""trial"",""time""
""fullscreenenter"",""5"",""22150""
","
","
","""event"",""trial"",""time""
""fullscreenenter"",""5"",""22150""
","
",801.6999999999534,NA,49,NA,NA,3000,1,NA,NA,images/redplanet1.jpg,images/alien2,images/alien1,images/rocket1,images/alien1,images/t.png,2,real,false,1,rare,1,2020-06-22T22:28:34Z,sub76
two-step-fixation,269,1036255,0.0-76.0-2.44,TRUE,FALSE,FALSE,TRUE,"""event"",""trial"",""time""
""fullscreenenter"",""5"",""22150""
","
","
","""event"",""trial"",""time""
""fullscreenenter"",""5"",""22150""
","
",NA,images/earth.jpg,NA,NA,NA,NA,NA,NA,NA,NA,NA,NA,NA,NA,NA,fixation,NA,NA,NA,NA,NA,NA,sub76
d3-animate-choice,270,1038643,0.0-76.0-0.45,TRUE,FALSE,FALSE,TRUE,"""event"",""trial"",""time""
""fullscreenenter"",""5"",""22150""
","
","
","""event"",""trial"",""time""
""fullscreenenter"",""5"",""22150""
","
",377.7450000002282,NA,49,NA,NA,3000,1,NA,NA,images/earth.jpg,images/rocket2,images/rocket1,null,images/rocket1,NA,1,real,null,1,NA,NA,NA,sub76
d3-animate-choice,271,1041612,0.0-76.0-1.45,TRUE,FALSE,FALSE,TRUE,"""event"",""trial"",""time""
""fullscreenenter"",""5"",""22150""
","
","
","""event"",""trial"",""time""
""fullscreenenter"",""5"",""22150""
","
",958.3199999995995,NA,48,NA,NA,3000,1,NA,NA,images/purpleplanet.jpg,images/alien4,images/alien3,images/rocket1,images/alien4,images/t.png,2,real,true,2,common,1,2020-06-22T22:28:41Z,sub76
two-step-fixation,272,1042621,0.0-76.0-2.45,TRUE,FALSE,FALSE,TRUE,"""event"",""trial"",""time""
""fullscreenenter"",""5"",""22150""
","
","
","""event"",""trial"",""time""
""fullscreenenter"",""5"",""22150""
","
",NA,images/earth.jpg,NA,NA,NA,NA,NA,NA,NA,NA,NA,NA,NA,NA,NA,fixation,NA,NA,NA,NA,NA,NA,sub76
d3-animate-choice,273,1044998,0.0-76.0-0.46,TRUE,FALSE,FALSE,TRUE,"""event"",""trial"",""time""
""fullscreenenter"",""5"",""22150""
","
","
","""event"",""trial"",""time""
""fullscreenenter"",""5"",""22150""
","
",368.19999999995343,NA,49,NA,NA,3000,1,NA,NA,images/earth.jpg,images/rocket2,images/rocket1,null,images/rocket1,NA,1,real,null,1,NA,NA,NA,sub76
d3-animate-choice,274,1047969,0.0-76.0-1.46,TRUE,FALSE,FALSE,TRUE,"""event"",""trial"",""time""
""fullscreenenter"",""5"",""22150""
","
","
","""event"",""trial"",""time""
""fullscreenenter"",""5"",""22150""
","
",959.7299999999814,NA,48,NA,NA,3000,1,NA,NA,images/purpleplanet.jpg,images/alien4,images/alien3,images/rocket1,images/alien4,images/t.png,2,real,true,2,common,1,2020-06-22T22:28:47Z,sub76
two-step-fixation,275,1048978,0.0-76.0-2.46,TRUE,FALSE,FALSE,TRUE,"""event"",""trial"",""time""
""fullscreenenter"",""5"",""22150""
","
","
","""event"",""trial"",""time""
""fullscreenenter"",""5"",""22150""
","
",NA,images/earth.jpg,NA,NA,NA,NA,NA,NA,NA,NA,NA,NA,NA,NA,NA,fixation,NA,NA,NA,NA,NA,NA,sub76
d3-animate-choice,276,1051615,0.0-76.0-0.47,TRUE,FALSE,FALSE,TRUE,"""event"",""trial"",""time""
""fullscreenenter"",""5"",""22150""
","
","
","""event"",""trial"",""time""
""fullscreenenter"",""5"",""22150""
","
",627.1999999999534,NA,48,NA,NA,3000,1,NA,NA,images/earth.jpg,images/rocket2,images/rocket1,null,images/rocket2,NA,1,real,null,2,NA,NA,NA,sub76
d3-animate-choice,277,1054515,0.0-76.0-1.47,TRUE,FALSE,FALSE,TRUE,"""event"",""trial"",""time""
""fullscreenenter"",""5"",""22150""
","
","
","""event"",""trial"",""time""
""fullscreenenter"",""5"",""22150""
","
",892.6700000001583,NA,49,NA,NA,3000,1,NA,NA,images/redplanet1.jpg,images/alien2,images/alien1,images/rocket2,images/alien1,images/nothing.png,2,real,true,1,common,0,2020-06-22T22:28:54Z,sub76
two-step-fixation,278,1055524,0.0-76.0-2.47,TRUE,FALSE,FALSE,TRUE,"""event"",""trial"",""time""
""fullscreenenter"",""5"",""22150""
","
","
","""event"",""trial"",""time""
""fullscreenenter"",""5"",""22150""
","
",NA,images/earth.jpg,NA,NA,NA,NA,NA,NA,NA,NA,NA,NA,NA,NA,NA,fixation,NA,NA,NA,NA,NA,NA,sub76
d3-animate-choice,279,1058112,0.0-76.0-0.48,TRUE,FALSE,FALSE,TRUE,"""event"",""trial"",""time""
""fullscreenenter"",""5"",""22150""
","
","
","""event"",""trial"",""time""
""fullscreenenter"",""5"",""22150""
","
",577.5800000000745,NA,49,NA,NA,3000,1,NA,NA,images/earth.jpg,images/rocket2,images/rocket1,null,images/rocket1,NA,1,real,null,1,NA,NA,NA,sub76
d3-animate-choice,280,1060888,0.0-76.0-1.48,TRUE,FALSE,FALSE,TRUE,"""event"",""trial"",""time""
""fullscreenenter"",""5"",""22150""
","
","
","""event"",""trial"",""time""
""fullscreenenter"",""5"",""22150""
","
",767.2300000002142,NA,48,NA,NA,3000,1,NA,NA,images/redplanet1.jpg,images/alien2,images/alien1,images/rocket1,images/alien2,images/t.png,2,real,false,2,rare,1,2020-06-22T22:29:00Z,sub76
two-step-fixation,281,1061897,0.0-76.0-2.48,TRUE,FALSE,FALSE,TRUE,"""event"",""trial"",""time""
""fullscreenenter"",""5"",""22150""
","
","
","""event"",""trial"",""time""
""fullscreenenter"",""5"",""22150""
","
",NA,images/earth.jpg,NA,NA,NA,NA,NA,NA,NA,NA,NA,NA,NA,NA,NA,fixation,NA,NA,NA,NA,NA,NA,sub76
d3-animate-choice,282,1064806,0.0-76.0-0.49,TRUE,FALSE,FALSE,TRUE,"""event"",""trial"",""time""
""fullscreenenter"",""5"",""22150""
","
","
","""event"",""trial"",""time""
""fullscreenenter"",""5"",""22150""
","
",900.6050000002142,NA,48,NA,NA,3000,1,NA,NA,images/earth.jpg,images/rocket2,images/rocket1,null,images/rocket2,NA,1,real,null,2,NA,NA,NA,sub76
d3-animate-choice,283,1067296,0.0-76.0-1.49,TRUE,FALSE,FALSE,TRUE,"""event"",""trial"",""time""
""fullscreenenter"",""5"",""22150""
","
","
