trial_type,trial_index,time_elapsed,internal_node_id,rocket_sides,red_planet_first_rocket,red_display_order,purple_display_order,interactions,blur_events,focus_events,fullscreenenter_events,fullscreenexit_events,rt,stimulus,key_press,button_pressed,success,duration,valid_pressed,rts,keys,planet_text,right_text,left_text,center_text,chosen_text,reward_text,trial_stage,practice_trial,transition_type,choice,transition,reward,timestamp,subject_id
pavlovia,0,50,0.0-0.0,FALSE,TRUE,FALSE,TRUE,"
","
","
","
","
",NA,NA,NA,NA,NA,NA,NA,NA,NA,NA,NA,NA,NA,NA,NA,NA,NA,NA,NA,NA,NA,NA,sub146
html-keyboard-response,1,2940,0.0-1.0,FALSE,TRUE,FALSE,TRUE,"
","
","
","
","
",2885,Welcome! Press the space bar to begin.,32,NA,NA,NA,NA,NA,NA,NA,NA,NA,NA,NA,NA,NA,NA,NA,NA,NA,NA,NA,sub146
audio-keyboard-response,2,5829,0.0-2.0,FALSE,TRUE,FALSE,TRUE,"
","
","
","
","
",2734,audio/beep_loop.wav,32,NA,NA,NA,NA,NA,NA,NA,NA,NA,NA,NA,NA,NA,NA,NA,NA,NA,NA,NA,sub146
audio-button-response,3,11823,0.0-3.0,FALSE,TRUE,FALSE,TRUE,"
","
","
","
","
",NaN,audio/fish.mp3,NA,1,NA,NA,NA,NA,NA,NA,NA,NA,NA,NA,NA,NA,NA,NA,NA,NA,NA,NA,sub146
audio-button-response,4,15229,0.0-4.0,FALSE,TRUE,FALSE,TRUE,"""event"",""trial"",""time""
""fullscreenenter"",""5"",""22341""
","
","
","""event"",""trial"",""time""
""fullscreenenter"",""5"",""22341""
","
",NaN,audio/tiger.mp3,NA,4,NA,NA,NA,NA,NA,NA,NA,NA,NA,NA,NA,NA,NA,NA,NA,NA,NA,NA,sub146
fullscreen,5,23253,0.0-5.0,FALSE,TRUE,FALSE,TRUE,"""event"",""trial"",""time""
""fullscreenenter"",""5"",""22341""
","
","
","""event"",""trial"",""time""
""fullscreenenter"",""5"",""22341""
","
",NA,NA,NA,NA,TRUE,NA,NA,NA,NA,NA,NA,NA,NA,NA,NA,NA,NA,NA,NA,NA,NA,NA,sub146
d3-instructions,6,37213,0.0-6.0,FALSE,TRUE,FALSE,TRUE,"""event"",""trial"",""time""
""fullscreenenter"",""5"",""22341""
","
","
","""event"",""trial"",""time""
""fullscreenenter"",""5"",""22341""
","
",NA,NA,NA,NA,NA,NA,NA,NA,NA,NA,NA,NA,NA,NA,NA,NA,NA,NA,NA,NA,NA,NA,sub146
d3-instructions,7,52446,0.0-7.0,FALSE,TRUE,FALSE,TRUE,"""event"",""trial"",""time""
""fullscreenenter"",""5"",""22341""
","
","
","""event"",""trial"",""time""
""fullscreenenter"",""5"",""22341""
","
",NA,NA,NA,NA,NA,NA,NA,NA,NA,NA,NA,NA,NA,NA,NA,NA,NA,NA,NA,NA,NA,NA,sub146
d3-instructions,8,60143,0.0-8.0,FALSE,TRUE,FALSE,TRUE,"""event"",""trial"",""time""
""fullscreenenter"",""5"",""22341""
","
","
","""event"",""trial"",""time""
""fullscreenenter"",""5"",""22341""
","
",NA,NA,NA,NA,NA,NA,NA,NA,NA,NA,NA,NA,NA,NA,NA,NA,NA,NA,NA,NA,NA,NA,sub146
d3-instructions,9,72633,0.0-9.0,FALSE,TRUE,FALSE,TRUE,"""event"",""trial"",""time""
""fullscreenenter"",""5"",""22341""
","
","
","""event"",""trial"",""time""
""fullscreenenter"",""5"",""22341""
","
",NA,NA,NA,NA,NA,NA,NA,NA,NA,NA,NA,NA,NA,NA,NA,NA,NA,NA,NA,NA,NA,NA,sub146
d3-instructions,10,94091,0.0-10.0,FALSE,TRUE,FALSE,TRUE,"""event"",""trial"",""time""
""fullscreenenter"",""5"",""22341""
","
","
","""event"",""trial"",""time""
""fullscreenenter"",""5"",""22341""
","
",NA,NA,NA,NA,NA,NA,NA,NA,NA,NA,NA,NA,NA,NA,NA,NA,NA,NA,NA,NA,NA,NA,sub146
d3-animate-choice,11,97357,0.0-11.0,FALSE,TRUE,FALSE,TRUE,"""event"",""trial"",""time""
""fullscreenenter"",""5"",""22341""
","
","
","""event"",""trial"",""time""
""fullscreenenter"",""5"",""22341""
","
",1261,NA,49,NA,NA,3000,1,2460,49,images/tutgreenplanet.jpg,images/tutalien1,images/tutalien2,null,images/tutalien2,NA,NA,practice,null,NA,NA,NA,NA,sub146
d3-animate-choice,12,99463,0.0-12.0,FALSE,TRUE,FALSE,TRUE,"""event"",""trial"",""time""
""fullscreenenter"",""5"",""22341""
","
","
","""event"",""trial"",""time""
""fullscreenenter"",""5"",""22341""
","
",102,NA,48,NA,NA,3000,1,NA,NA,images/tutgreenplanet.jpg,images/tutalien1,images/tutalien2,null,images/tutalien1,NA,NA,practice,null,NA,NA,NA,NA,sub146
d3-animate-choice,13,101562,0.0-13.0,FALSE,TRUE,FALSE,TRUE,"""event"",""trial"",""time""
""fullscreenenter"",""5"",""22341""
","
","
","""event"",""trial"",""time""
""fullscreenenter"",""5"",""22341""
","
",95,NA,49,NA,NA,3000,1,NA,NA,images/tutgreenplanet.jpg,images/tutalien1,images/tutalien2,null,images/tutalien2,NA,NA,practice,null,NA,NA,NA,NA,sub146
d3-animate-choice,14,103689,0.0-14.0,FALSE,TRUE,FALSE,TRUE,"""event"",""trial"",""time""
""fullscreenenter"",""5"",""22341""
","
","
","""event"",""trial"",""time""
""fullscreenenter"",""5"",""22341""
","
",124,NA,48,NA,NA,3000,1,NA,NA,images/tutgreenplanet.jpg,images/tutalien1,images/tutalien2,null,images/tutalien1,NA,NA,practice,null,NA,NA,NA,NA,sub146
d3-instructions,15,110997,0.0-15.0,FALSE,TRUE,FALSE,TRUE,"""event"",""trial"",""time""
""fullscreenenter"",""5"",""22341""
","
","
","""event"",""trial"",""time""
""fullscreenenter"",""5"",""22341""
","
",NA,NA,NA,NA,NA,NA,NA,NA,NA,NA,NA,NA,NA,NA,NA,NA,NA,NA,NA,NA,NA,NA,sub146
d3-instructions,16,119001,0.0-16.0,FALSE,TRUE,FALSE,TRUE,"""event"",""trial"",""time""
""fullscreenenter"",""5"",""22341""
","
","
","""event"",""trial"",""time""
""fullscreenenter"",""5"",""22341""
","
",NA,NA,NA,NA,NA,NA,NA,NA,NA,NA,NA,NA,NA,NA,NA,NA,NA,NA,NA,NA,NA,NA,sub146
d3-instructions,17,128161,0.0-17.0,FALSE,TRUE,FALSE,TRUE,"""event"",""trial"",""time""
""fullscreenenter"",""5"",""22341""
","
","
","""event"",""trial"",""time""
""fullscreenenter"",""5"",""22341""
","
",NA,NA,NA,NA,NA,NA,NA,NA,NA,NA,NA,NA,NA,NA,NA,NA,NA,NA,NA,NA,NA,NA,sub146
d3-instructions,18,140983,0.0-18.0,FALSE,TRUE,FALSE,TRUE,"""event"",""trial"",""time""
""fullscreenenter"",""5"",""22341""
","
","
","""event"",""trial"",""time""
""fullscreenenter"",""5"",""22341""
","
",NA,NA,NA,NA,NA,NA,NA,NA,NA,NA,NA,NA,NA,NA,NA,NA,NA,NA,NA,NA,NA,NA,sub146
d3-instructions,19,156474,0.0-19.0,FALSE,TRUE,FALSE,TRUE,"""event"",""trial"",""time""
""fullscreenenter"",""5"",""22341""
","
","
","""event"",""trial"",""time""
""fullscreenenter"",""5"",""22341""
","
",NA,NA,NA,NA,NA,NA,NA,NA,NA,NA,NA,NA,NA,NA,NA,NA,NA,NA,NA,NA,NA,NA,sub146
d3-animate-choice,20,159217,0.0-20.0,FALSE,TRUE,FALSE,TRUE,"""event"",""trial"",""time""
""fullscreenenter"",""5"",""22341""
","
","
","""event"",""trial"",""time""
""fullscreenenter"",""5"",""22341""
","
",740,NA,49,NA,NA,3000,1,NA,NA,images/tutyellowplanet.jpg,null,images/tutalien3,null,images/tutalien3,images/t.png,NA,practice,null,NA,NA,NA,NA,sub146
d3-animate-choice,21,162832,0.0-21.0,FALSE,TRUE,FALSE,TRUE,"""event"",""trial"",""time""
""fullscreenenter"",""5"",""22341""
","
","
","""event"",""trial"",""time""
""fullscreenenter"",""5"",""22341""
","
",1611,NA,49,NA,NA,3000,1,NA,NA,images/tutyellowplanet.jpg,null,images/tutalien3,null,images/tutalien3,images/t.png,NA,practice,null,NA,NA,NA,NA,sub146
d3-animate-choice,22,165212,0.0-22.0,FALSE,TRUE,FALSE,TRUE,"""event"",""trial"",""time""
""fullscreenenter"",""5"",""22341""
","
","
","""event"",""trial"",""time""
""fullscreenenter"",""5"",""22341""
","
",377.0000000000291,NA,49,NA,NA,3000,1,NA,NA,images/tutyellowplanet.jpg,null,images/tutalien3,null,images/tutalien3,images/nothing.png,NA,practice,null,NA,NA,NA,NA,sub146
d3-animate-choice,23,167748,0.0-23.0,FALSE,TRUE,FALSE,TRUE,"""event"",""trial"",""time""
""fullscreenenter"",""5"",""22341""
","
","
","""event"",""trial"",""time""
""fullscreenenter"",""5"",""22341""
","
",534,NA,49,NA,NA,3000,1,NA,NA,images/tutyellowplanet.jpg,null,images/tutalien3,null,images/tutalien3,images/t.png,NA,practice,null,NA,NA,NA,NA,sub146
d3-animate-choice,24,170148,0.0-24.0,FALSE,TRUE,FALSE,TRUE,"""event"",""trial"",""time""
""fullscreenenter"",""5"",""22341""
","
","
","""event"",""trial"",""time""
""fullscreenenter"",""5"",""22341""
","
",397,NA,49,NA,NA,3000,1,NA,NA,images/tutyellowplanet.jpg,null,images/tutalien3,null,images/tutalien3,images/t.png,NA,practice,null,NA,NA,NA,NA,sub146
d3-animate-choice,25,172644,0.0-25.0,FALSE,TRUE,FALSE,TRUE,"""event"",""trial"",""time""
""fullscreenenter"",""5"",""22341""
","
","
","""event"",""trial"",""time""
""fullscreenenter"",""5"",""22341""
","
",493,NA,49,NA,NA,3000,1,NA,NA,images/tutyellowplanet.jpg,null,images/tutalien3,null,images/tutalien3,images/t.png,NA,practice,null,NA,NA,NA,NA,sub146
d3-animate-choice,26,174963,0.0-26.0,FALSE,TRUE,FALSE,TRUE,"""event"",""trial"",""time""
""fullscreenenter"",""5"",""22341""
","
","
","""event"",""trial"",""time""
""fullscreenenter"",""5"",""22341""
","
",315.9999999999709,NA,49,NA,NA,3000,1,NA,NA,images/tutyellowplanet.jpg,null,images/tutalien3,null,images/tutalien3,images/t.png,NA,practice,null,NA,NA,NA,NA,sub146
d3-animate-choice,27,177243,0.0-27.0,FALSE,TRUE,FALSE,TRUE,"""event"",""trial"",""time""
""fullscreenenter"",""5"",""22341""
","
","
","""event"",""trial"",""time""
""fullscreenenter"",""5"",""22341""
","
",277,NA,49,NA,NA,3000,1,NA,NA,images/tutyellowplanet.jpg,null,images/tutalien3,null,images/tutalien3,images/t.png,NA,practice,null,NA,NA,NA,NA,sub146
d3-animate-choice,28,179527,0.0-28.0,FALSE,TRUE,FALSE,TRUE,"""event"",""trial"",""time""
""fullscreenenter"",""5"",""22341""
","
","
","""event"",""trial"",""time""
""fullscreenenter"",""5"",""22341""
","
",282.0000000000291,NA,49,NA,NA,3000,1,NA,NA,images/tutyellowplanet.jpg,null,images/tutalien3,null,images/tutalien3,images/t.png,NA,practice,null,NA,NA,NA,NA,sub146
d3-animate-choice,29,181979,0.0-29.0,FALSE,TRUE,FALSE,TRUE,"""event"",""trial"",""time""
""fullscreenenter"",""5"",""22341""
","
","
","""event"",""trial"",""time""
""fullscreenenter"",""5"",""22341""
","
",450.0000000000291,NA,49,NA,NA,3000,1,NA,NA,images/tutyellowplanet.jpg,null,images/tutalien3,null,images/tutalien3,images/t.png,NA,practice,null,NA,NA,NA,NA,sub146
d3-instructions,30,188470,0.0-30.0,FALSE,TRUE,FALSE,TRUE,"""event"",""trial"",""time""
""fullscreenenter"",""5"",""22341""
","
","
","""event"",""trial"",""time""
""fullscreenenter"",""5"",""22341""
","
",NA,NA,NA,NA,NA,NA,NA,NA,NA,NA,NA,NA,NA,NA,NA,NA,NA,NA,NA,NA,NA,NA,sub146
d3-instructions,31,198661,0.0-31.0,FALSE,TRUE,FALSE,TRUE,"""event"",""trial"",""time""
""fullscreenenter"",""5"",""22341""
","
","
","""event"",""trial"",""time""
""fullscreenenter"",""5"",""22341""
","
",NA,NA,NA,NA,NA,NA,NA,NA,NA,NA,NA,NA,NA,NA,NA,NA,NA,NA,NA,NA,NA,NA,sub146
d3-instructions,32,205596,0.0-32.0,FALSE,TRUE,FALSE,TRUE,"""event"",""trial"",""time""
""fullscreenenter"",""5"",""22341""
","
","
","""event"",""trial"",""time""
""fullscreenenter"",""5"",""22341""
","
",NA,NA,NA,NA,NA,NA,NA,NA,NA,NA,NA,NA,NA,NA,NA,NA,NA,NA,NA,NA,NA,NA,sub146
d3-instructions,33,216736,0.0-33.0,FALSE,TRUE,FALSE,TRUE,"""event"",""trial"",""time""
""fullscreenenter"",""5"",""22341""
","
","
","""event"",""trial"",""time""
""fullscreenenter"",""5"",""22341""
","
",NA,NA,NA,NA,NA,NA,NA,NA,NA,NA,NA,NA,NA,NA,NA,NA,NA,NA,NA,NA,NA,NA,sub146
d3-animate-choice,34,220445,0.0-34.0,FALSE,TRUE,FALSE,TRUE,"""event"",""trial"",""time""
""fullscreenenter"",""5"",""22341""
","
","
","""event"",""trial"",""time""
""fullscreenenter"",""5"",""22341""
","
",1706,NA,49,NA,NA,3000,1,NA,NA,images/tutgreenplanet.jpg,images/tutalien1,images/tutalien2,null,images/tutalien2,images/nothing.png,NA,practice,null,NA,NA,NA,NA,sub146
d3-animate-choice,35,223677,0.0-35.0,FALSE,TRUE,FALSE,TRUE,"""event"",""trial"",""time""
""fullscreenenter"",""5"",""22341""
","
","
","""event"",""trial"",""time""
""fullscreenenter"",""5"",""22341""
","
",1230,NA,49,NA,NA,3000,1,NA,NA,images/tutgreenplanet.jpg,images/tutalien1,images/tutalien2,null,images/tutalien2,images/t.png,NA,practice,null,NA,NA,NA,NA,sub146
d3-animate-choice,36,226361,0.0-36.0,FALSE,TRUE,FALSE,TRUE,"""event"",""trial"",""time""
""fullscreenenter"",""5"",""22341""
","
","
","""event"",""trial"",""time""
""fullscreenenter"",""5"",""22341""
","
",681.0000000000291,NA,48,NA,NA,3000,1,NA,NA,images/tutgreenplanet.jpg,images/tutalien1,images/tutalien2,null,images/tutalien1,images/nothing.png,NA,practice,null,NA,NA,NA,NA,sub146
d3-animate-choice,37,228892,0.0-37.0,FALSE,TRUE,FALSE,TRUE,"""event"",""trial"",""time""
""fullscreenenter"",""5"",""22341""
","
","
","""event"",""trial"",""time""
""fullscreenenter"",""5"",""22341""
","
",528,NA,48,NA,NA,3000,1,NA,NA,images/tutgreenplanet.jpg,images/tutalien1,images/tutalien2,null,images/tutalien1,images/nothing.png,NA,practice,null,NA,NA,NA,NA,sub146
d3-animate-choice,38,230996,0.0-38.0,FALSE,TRUE,FALSE,TRUE,"""event"",""trial"",""time""
""fullscreenenter"",""5"",""22341""
","
","
","""event"",""trial"",""time""
""fullscreenenter"",""5"",""22341""
","
",102,NA,49,NA,NA,3000,1,NA,NA,images/tutgreenplanet.jpg,images/tutalien1,images/tutalien2,null,images/tutalien2,images/t.png,NA,practice,null,NA,NA,NA,NA,sub146
d3-animate-choice,39,233304,0.0-39.0,FALSE,TRUE,FALSE,TRUE,"""event"",""trial"",""time""
""fullscreenenter"",""5"",""22341""
","
","
","""event"",""trial"",""time""
""fullscreenenter"",""5"",""22341""
","
",304,NA,48,NA,NA,3000,1,NA,NA,images/tutgreenplanet.jpg,images/tutalien1,images/tutalien2,null,images/tutalien1,images/t.png,NA,practice,null,NA,NA,NA,NA,sub146
d3-animate-choice,40,235566,0.0-40.0,FALSE,TRUE,FALSE,TRUE,"""event"",""trial"",""time""
""fullscreenenter"",""5"",""22341""
","
","
","""event"",""trial"",""time""
""fullscreenenter"",""5"",""22341""
","
",260,NA,49,NA,NA,3000,1,NA,NA,images/tutgreenplanet.jpg,images/tutalien1,images/tutalien2,null,images/tutalien2,images/t.png,NA,practice,null,NA,NA,NA,NA,sub146
d3-animate-choice,41,237821,0.0-41.0,FALSE,TRUE,FALSE,TRUE,"""event"",""trial"",""time""
""fullscreenenter"",""5"",""22341""
","
","
","""event"",""trial"",""time""
""fullscreenenter"",""5"",""22341""
","
",253,NA,48,NA,NA,3000,1,NA,NA,images/tutgreenplanet.jpg,images/tutalien1,images/tutalien2,null,images/tutalien1,images/nothing.png,NA,practice,null,NA,NA,NA,NA,sub146
d3-animate-choice,42,240137,0.0-42.0,FALSE,TRUE,FALSE,TRUE,"""event"",""trial"",""time""
""fullscreenenter"",""5"",""22341""
","
","
","""event"",""trial"",""time""
""fullscreenenter"",""5"",""22341""
","
",310.9999999999709,NA,48,NA,NA,3000,1,NA,NA,images/tutgreenplanet.jpg,images/tutalien1,images/tutalien2,null,images/tutalien1,images/nothing.png,NA,practice,null,NA,NA,NA,NA,sub146
d3-animate-choice,43,242359,0.0-43.0,FALSE,TRUE,FALSE,TRUE,"""event"",""trial"",""time""
""fullscreenenter"",""5"",""22341""
","
","
","""event"",""trial"",""time""
""fullscreenenter"",""5"",""22341""
","
",218.9999999999709,NA,49,NA,NA,3000,1,NA,NA,images/tutgreenplanet.jpg,images/tutalien1,images/tutalien2,null,images/tutalien2,images/t.png,NA,practice,null,NA,NA,NA,NA,sub146
d3-instructions,44,256646,0.0-44.0,FALSE,TRUE,FALSE,TRUE,"""event"",""trial"",""time""
""fullscreenenter"",""5"",""22341""
","
","
","""event"",""trial"",""time""
""fullscreenenter"",""5"",""22341""
","
",NA,NA,NA,NA,NA,NA,NA,NA,NA,NA,NA,NA,NA,NA,NA,NA,NA,NA,NA,NA,NA,NA,sub146
d3-instructions,45,264660,0.0-45.0,FALSE,TRUE,FALSE,TRUE,"""event"",""trial"",""time""
""fullscreenenter"",""5"",""22341""
","
","
","""event"",""trial"",""time""
""fullscreenenter"",""5"",""22341""
","
",NA,NA,NA,NA,NA,NA,NA,NA,NA,NA,NA,NA,NA,NA,NA,NA,NA,NA,NA,NA,NA,NA,sub146
d3-instructions,46,271692,0.0-46.0,FALSE,TRUE,FALSE,TRUE,"""event"",""trial"",""time""
""fullscreenenter"",""5"",""22341""
","
","
","""event"",""trial"",""time""
""fullscreenenter"",""5"",""22341""
","
",NA,NA,NA,NA,NA,NA,NA,NA,NA,NA,NA,NA,NA,NA,NA,NA,NA,NA,NA,NA,NA,NA,sub146
d3-instructions,47,289395,0.0-47.0,FALSE,TRUE,FALSE,TRUE,"""event"",""trial"",""time""
""fullscreenenter"",""5"",""22341""
","
","
","""event"",""trial"",""time""
""fullscreenenter"",""5"",""22341""
","
",NA,NA,NA,NA,NA,NA,NA,NA,NA,NA,NA,NA,NA,NA,NA,NA,NA,NA,NA,NA,NA,NA,sub146
d3-instructions,48,298562,0.0-48.0,FALSE,TRUE,FALSE,TRUE,"""event"",""trial"",""time""
""fullscreenenter"",""5"",""22341""
","
","
","""event"",""trial"",""time""
""fullscreenenter"",""5"",""22341""
","
",NA,NA,NA,NA,NA,NA,NA,NA,NA,NA,NA,NA,NA,NA,NA,NA,NA,NA,NA,NA,NA,NA,sub146
d3-instructions,49,310322,0.0-49.0,FALSE,TRUE,FALSE,TRUE,"""event"",""trial"",""time""
""fullscreenenter"",""5"",""22341""
","
","
","""event"",""trial"",""time""
""fullscreenenter"",""5"",""22341""
","
",NA,NA,NA,NA,NA,NA,NA,NA,NA,NA,NA,NA,NA,NA,NA,NA,NA,NA,NA,NA,NA,NA,sub146
d3-instructions,50,320957,0.0-50.0,FALSE,TRUE,FALSE,TRUE,"""event"",""trial"",""time""
""fullscreenenter"",""5"",""22341""
","
","
","""event"",""trial"",""time""
""fullscreenenter"",""5"",""22341""
","
",NA,NA,NA,NA,NA,NA,NA,NA,NA,NA,NA,NA,NA,NA,NA,NA,NA,NA,NA,NA,NA,NA,sub146
d3-instructions,51,324523,0.0-51.0,FALSE,TRUE,FALSE,TRUE,"""event"",""trial"",""time""
""fullscreenenter"",""5"",""22341""
","
","
","""event"",""trial"",""time""
""fullscreenenter"",""5"",""22341""
","
",NA,NA,NA,NA,NA,NA,NA,NA,NA,NA,NA,NA,NA,NA,NA,NA,NA,NA,NA,NA,NA,NA,sub146
d3-instructions,52,328363,0.0-52.0,FALSE,TRUE,FALSE,TRUE,"""event"",""trial"",""time""
""fullscreenenter"",""5"",""22341""
","
","
","""event"",""trial"",""time""
""fullscreenenter"",""5"",""22341""
","
",NA,NA,NA,NA,NA,NA,NA,NA,NA,NA,NA,NA,NA,NA,NA,NA,NA,NA,NA,NA,NA,NA,sub146
d3-instructions,53,340543,0.0-53.0,FALSE,TRUE,FALSE,TRUE,"""event"",""trial"",""time""
""fullscreenenter"",""5"",""22341""
","
","
","""event"",""trial"",""time""
""fullscreenenter"",""5"",""22341""
","
",NA,NA,NA,NA,NA,NA,NA,NA,NA,NA,NA,NA,NA,NA,NA,NA,NA,NA,NA,NA,NA,NA,sub146
d3-instructions,54,355123,0.0-54.0,FALSE,TRUE,FALSE,TRUE,"""event"",""trial"",""time""
""fullscreenenter"",""5"",""22341""
","
","
","""event"",""trial"",""time""
""fullscreenenter"",""5"",""22341""
","
",NA,NA,NA,NA,NA,NA,NA,NA,NA,NA,NA,NA,NA,NA,NA,NA,NA,NA,NA,NA,NA,NA,sub146
d3-instructions,55,396399,0.0-55.0,FALSE,TRUE,FALSE,TRUE,"""event"",""trial"",""time""
""fullscreenenter"",""5"",""22341""
","
","
","""event"",""trial"",""time""
""fullscreenenter"",""5"",""22341""
","
",NA,NA,NA,NA,NA,NA,NA,NA,NA,NA,NA,NA,NA,NA,NA,NA,NA,NA,NA,NA,NA,NA,sub146
d3-instructions,56,408472,0.0-56.0,FALSE,TRUE,FALSE,TRUE,"""event"",""trial"",""time""
""fullscreenenter"",""5"",""22341""
","
","
","""event"",""trial"",""time""
""fullscreenenter"",""5"",""22341""
","
",NA,NA,NA,NA,NA,NA,NA,NA,NA,NA,NA,NA,NA,NA,NA,NA,NA,NA,NA,NA,NA,NA,sub146
d3-instructions,57,420993,0.0-57.0,FALSE,TRUE,FALSE,TRUE,"""event"",""trial"",""time""
""fullscreenenter"",""5"",""22341""
","
","
","""event"",""trial"",""time""
""fullscreenenter"",""5"",""22341""
","
",NA,NA,NA,NA,NA,NA,NA,NA,NA,NA,NA,NA,NA,NA,NA,NA,NA,NA,NA,NA,NA,NA,sub146
d3-instructions,58,434562,0.0-58.0,FALSE,TRUE,FALSE,TRUE,"""event"",""trial"",""time""
""fullscreenenter"",""5"",""22341""
","
","
","""event"",""trial"",""time""
""fullscreenenter"",""5"",""22341""
","
",NA,NA,NA,NA,NA,NA,NA,NA,NA,NA,NA,NA,NA,NA,NA,NA,NA,NA,NA,NA,NA,NA,sub146
d3-instructions,59,439700,0.0-59.0,FALSE,TRUE,FALSE,TRUE,"""event"",""trial"",""time""
""fullscreenenter"",""5"",""22341""
","
","
","""event"",""trial"",""time""
""fullscreenenter"",""5"",""22341""
","
",NA,NA,NA,NA,NA,NA,NA,NA,NA,NA,NA,NA,NA,NA,NA,NA,NA,NA,NA,NA,NA,NA,sub146
d3-instructions,60,448444,0.0-60.0,FALSE,TRUE,FALSE,TRUE,"""event"",""trial"",""time""
""fullscreenenter"",""5"",""22341""
","
","
","""event"",""trial"",""time""
""fullscreenenter"",""5"",""22341""
","
",NA,NA,NA,NA,NA,NA,NA,NA,NA,NA,NA,NA,NA,NA,NA,NA,NA,NA,NA,NA,NA,NA,sub146
d3-animate-choice,61,451865,0.0-61.0-0.0,FALSE,TRUE,FALSE,TRUE,"""event"",""trial"",""time""
""fullscreenenter"",""5"",""22341""
","
","
","""event"",""trial"",""time""
""fullscreenenter"",""5"",""22341""
","
",1418.0000000000582,NA,48,NA,NA,3000,1,NA,NA,images/earth.jpg,images/tutrocket2,images/tutrocket1,null,images/tutrocket2,NA,1,practice,null,2,NA,NA,NA,sub146
d3-animate-choice,62,455870,0.0-61.0-1.0,FALSE,TRUE,FALSE,TRUE,"""event"",""trial"",""time""
""fullscreenenter"",""5"",""22341""
","
","
","""event"",""trial"",""time""
""fullscreenenter"",""5"",""22341""
","
",2099,NA,49,NA,NA,3000,1,NA,NA,images/tutgreenplanet.jpg,images/tutalien2,images/tutalien1,images/tutrocket2,images/tutalien1,images/nothing.png,2,practice,false,1,rare,0,2020-06-29T03:06:14Z,sub146
two-step-fixation,63,456873,0.0-61.0-2.0,FALSE,TRUE,FALSE,TRUE,"""event"",""trial"",""time""
""fullscreenenter"",""5"",""22341""
","
","
","""event"",""trial"",""time""
""fullscreenenter"",""5"",""22341""
","
",NA,images/earth.jpg,NA,NA,NA,NA,NA,NA,NA,NA,NA,NA,NA,NA,NA,fixation,NA,NA,NA,NA,NA,NA,sub146
d3-animate-choice,64,460266,0.0-61.0-0.1,FALSE,TRUE,FALSE,TRUE,"""event"",""trial"",""time""
""fullscreenenter"",""5"",""22341""
","
","
","""event"",""trial"",""time""
""fullscreenenter"",""5"",""22341""
","
",1389,NA,49,NA,NA,3000,1,NA,NA,images/earth.jpg,images/tutrocket2,images/tutrocket1,null,images/tutrocket1,NA,1,practice,null,1,NA,NA,NA,sub146
d3-animate-choice,65,463928,0.0-61.0-1.1,FALSE,TRUE,FALSE,TRUE,"""event"",""trial"",""time""
""fullscreenenter"",""5"",""22341""
","
","
","""event"",""trial"",""time""
""fullscreenenter"",""5"",""22341""
","
",1660,NA,48,NA,NA,3000,1,NA,NA,images/tutyellowplanet.jpg,images/tutalien4,images/tutalien3,images/tutrocket1,images/tutalien4,images/nothing.png,2,practice,false,2,rare,0,2020-06-29T03:06:22Z,sub146
two-step-fixation,66,464930,0.0-61.0-2.1,FALSE,TRUE,FALSE,TRUE,"""event"",""trial"",""time""
""fullscreenenter"",""5"",""22341""
","
","
","""event"",""trial"",""time""
""fullscreenenter"",""5"",""22341""
","
",NA,images/earth.jpg,NA,NA,NA,NA,NA,NA,NA,NA,NA,NA,NA,NA,NA,fixation,NA,NA,NA,NA,NA,NA,sub146
d3-animate-choice,67,467331,0.0-61.0-0.2,FALSE,TRUE,FALSE,TRUE,"""event"",""trial"",""time""
""fullscreenenter"",""5"",""22341""
","
","
","""event"",""trial"",""time""
""fullscreenenter"",""5"",""22341""
","
",398,NA,49,NA,NA,3000,1,NA,NA,images/earth.jpg,images/tutrocket2,images/tutrocket1,null,images/tutrocket1,NA,1,practice,null,1,NA,NA,NA,sub146
d3-animate-choice,68,469909,0.0-61.0-1.2,FALSE,TRUE,FALSE,TRUE,"""event"",""trial"",""time""
""fullscreenenter"",""5"",""22341""
","
","
","""event"",""trial"",""time""
""fullscreenenter"",""5"",""22341""
","
",575,NA,48,NA,NA,3000,1,NA,NA,images/tutyellowplanet.jpg,images/tutalien4,images/tutalien3,images/tutrocket1,images/tutalien4,images/t.png,2,practice,false,2,rare,1,2020-06-29T03:06:28Z,sub146
two-step-fixation,69,470911,0.0-61.0-2.2,FALSE,TRUE,FALSE,TRUE,"""event"",""trial"",""time""
""fullscreenenter"",""5"",""22341""
","
","
","""event"",""trial"",""time""
""fullscreenenter"",""5"",""22341""
","
",NA,images/earth.jpg,NA,NA,NA,NA,NA,NA,NA,NA,NA,NA,NA,NA,NA,fixation,NA,NA,NA,NA,NA,NA,sub146
d3-animate-choice,70,473360,0.0-61.0-0.3,FALSE,TRUE,FALSE,TRUE,"""event"",""trial"",""time""
""fullscreenenter"",""5"",""22341""
","
","
","""event"",""trial"",""time""
""fullscreenenter"",""5"",""22341""
","
",445,NA,49,NA,NA,3000,1,NA,NA,images/earth.jpg,images/tutrocket2,images/tutrocket1,null,images/tutrocket1,NA,1,practice,null,1,NA,NA,NA,sub146
d3-animate-choice,71,476782,0.0-61.0-1.3,FALSE,TRUE,FALSE,TRUE,"""event"",""trial"",""time""
""fullscreenenter"",""5"",""22341""
","
","
","""event"",""trial"",""time""
""fullscreenenter"",""5"",""22341""
","
",1418,NA,48,NA,NA,3000,1,NA,NA,images/tutgreenplanet.jpg,images/tutalien2,images/tutalien1,images/tutrocket1,images/tutalien2,images/nothing.png,2,practice,true,2,common,0,2020-06-29T03:06:35Z,sub146
two-step-fixation,72,477785,0.0-61.0-2.3,FALSE,TRUE,FALSE,TRUE,"""event"",""trial"",""time""
""fullscreenenter"",""5"",""22341""
","
","
","""event"",""trial"",""time""
""fullscreenenter"",""5"",""22341""
","
",NA,images/earth.jpg,NA,NA,NA,NA,NA,NA,NA,NA,NA,NA,NA,NA,NA,fixation,NA,NA,NA,NA,NA,NA,sub146
d3-animate-choice,73,480166,0.0-61.0-0.4,FALSE,TRUE,FALSE,TRUE,"""event"",""trial"",""time""
""fullscreenenter"",""5"",""22341""
","
","
","""event"",""trial"",""time""
""fullscreenenter"",""5"",""22341""
","
",378,NA,49,NA,NA,3000,1,NA,NA,images/earth.jpg,images/tutrocket2,images/tutrocket1,null,images/tutrocket1,NA,1,practice,null,1,NA,NA,NA,sub146
d3-animate-choice,74,482632,0.0-61.0-1.4,FALSE,TRUE,FALSE,TRUE,"""event"",""trial"",""time""
""fullscreenenter"",""5"",""22341""
","
","
","""event"",""trial"",""time""
""fullscreenenter"",""5"",""22341""
","
",462,NA,49,NA,NA,3000,1,NA,NA,images/tutyellowplanet.jpg,images/tutalien4,images/tutalien3,images/tutrocket1,images/tutalien3,images/t.png,2,practice,false,1,rare,1,2020-06-29T03:06:41Z,sub146
two-step-fixation,75,483634,0.0-61.0-2.4,FALSE,TRUE,FALSE,TRUE,"""event"",""trial"",""time""
""fullscreenenter"",""5"",""22341""
","
","
","""event"",""trial"",""time""
""fullscreenenter"",""5"",""22341""
","
",NA,images/earth.jpg,NA,NA,NA,NA,NA,NA,NA,NA,NA,NA,NA,NA,NA,fixation,NA,NA,NA,NA,NA,NA,sub146
d3-animate-choice,76,485935,0.0-61.0-0.5,FALSE,TRUE,FALSE,TRUE,"""event"",""trial"",""time""
""fullscreenenter"",""5"",""22341""
","
","
","""event"",""trial"",""time""
""fullscreenenter"",""5"",""22341""
","
",297,NA,48,NA,NA,3000,1,NA,NA,images/earth.jpg,images/tutrocket2,images/tutrocket1,null,images/tutrocket2,NA,1,practice,null,2,NA,NA,NA,sub146
d3-animate-choice,77,488238,0.0-61.0-1.5,FALSE,TRUE,FALSE,TRUE,"""event"",""trial"",""time""
""fullscreenenter"",""5"",""22341""
","
","
","""event"",""trial"",""time""
""fullscreenenter"",""5"",""22341""
","
",299,NA,48,NA,NA,3000,1,NA,NA,images/tutyellowplanet.jpg,images/tutalien4,images/tutalien3,images/tutrocket2,images/tutalien4,images/t.png,2,practice,true,2,common,1,2020-06-29T03:06:46Z,sub146
two-step-fixation,78,489240,0.0-61.0-2.5,FALSE,TRUE,FALSE,TRUE,"""event"",""trial"",""time""
""fullscreenenter"",""5"",""22341""
","
","
","""event"",""trial"",""time""
""fullscreenenter"",""5"",""22341""
","
",NA,images/earth.jpg,NA,NA,NA,NA,NA,NA,NA,NA,NA,NA,NA,NA,NA,fixation,NA,NA,NA,NA,NA,NA,sub146
d3-animate-choice,79,492692,0.0-61.0-0.6,FALSE,TRUE,FALSE,TRUE,"""event"",""trial"",""time""
""fullscreenenter"",""5"",""22341""
","
","
","""event"",""trial"",""time""
""fullscreenenter"",""5"",""22341""
","
",1449,NA,48,NA,NA,3000,1,NA,NA,images/earth.jpg,images/tutrocket2,images/tutrocket1,null,images/tutrocket2,NA,1,practice,null,2,NA,NA,NA,sub146
d3-animate-choice,80,495143,0.0-61.0-1.6,FALSE,TRUE,FALSE,TRUE,"""event"",""trial"",""time""
""fullscreenenter"",""5"",""22341""
","
","
","""event"",""trial"",""time""
""fullscreenenter"",""5"",""22341""
","
",448.9999999999418,NA,48,NA,NA,3000,1,NA,NA,images/tutyellowplanet.jpg,images/tutalien4,images/tutalien3,images/tutrocket2,images/tutalien4,images/t.png,2,practice,true,2,common,1,2020-06-29T03:06:53Z,sub146
two-step-fixation,81,496145,0.0-61.0-2.6,FALSE,TRUE,FALSE,TRUE,"""event"",""trial"",""time""
""fullscreenenter"",""5"",""22341""
","
","
","""event"",""trial"",""time""
""fullscreenenter"",""5"",""22341""
","
",NA,images/earth.jpg,NA,NA,NA,NA,NA,NA,NA,NA,NA,NA,NA,NA,NA,fixation,NA,NA,NA,NA,NA,NA,sub146
d3-animate-choice,82,498693,0.0-61.0-0.7,FALSE,TRUE,FALSE,TRUE,"""event"",""trial"",""time""
""fullscreenenter"",""5"",""22341""
","
","
","""event"",""trial"",""time""
""fullscreenenter"",""5"",""22341""
","
",546,NA,49,NA,NA,3000,1,NA,NA,images/earth.jpg,images/tutrocket2,images/tutrocket1,null,images/tutrocket1,NA,1,practice,null,1,NA,NA,NA,sub146
d3-animate-choice,83,501197,0.0-61.0-1.7,FALSE,TRUE,FALSE,TRUE,"""event"",""trial"",""time""
""fullscreenenter"",""5"",""22341""
","
","
","""event"",""trial"",""time""
""fullscreenenter"",""5"",""22341""
","
",500,NA,49,NA,NA,3000,1,NA,NA,images/tutgreenplanet.jpg,images/tutalien2,images/tutalien1,images/tutrocket1,images/tutalien1,images/t.png,2,practice,true,1,common,1,2020-06-29T03:06:59Z,sub146
two-step-fixation,84,502199,0.0-61.0-2.7,FALSE,TRUE,FALSE,TRUE,"""event"",""trial"",""time""
""fullscreenenter"",""5"",""22341""
","
","
","""event"",""trial"",""time""
""fullscreenenter"",""5"",""22341""
","
",NA,images/earth.jpg,NA,NA,NA,NA,NA,NA,NA,NA,NA,NA,NA,NA,NA,fixation,NA,NA,NA,NA,NA,NA,sub146
d3-animate-choice,85,505156,0.0-61.0-0.8,FALSE,TRUE,FALSE,TRUE,"""event"",""trial"",""time""
""fullscreenenter"",""5"",""22341""
","
","
","""event"",""trial"",""time""
""fullscreenenter"",""5"",""22341""
","
",953.9999999999418,NA,49,NA,NA,3000,1,NA,NA,images/earth.jpg,images/tutrocket2,images/tutrocket1,null,images/tutrocket1,NA,1,practice,null,1,NA,NA,NA,sub146
d3-animate-choice,86,507647,0.0-61.0-1.8,FALSE,TRUE,FALSE,TRUE,"""event"",""trial"",""time""
""fullscreenenter"",""5"",""22341""
","
","
","""event"",""trial"",""time""
""fullscreenenter"",""5"",""22341""
","
",487.9999999999418,NA,49,NA,NA,3000,1,NA,NA,images/tutgreenplanet.jpg,images/tutalien2,images/tutalien1,images/tutrocket1,images/tutalien1,images/t.png,2,practice,true,1,common,1,2020-06-29T03:07:06Z,sub146
two-step-fixation,87,508650,0.0-61.0-2.8,FALSE,TRUE,FALSE,TRUE,"""event"",""trial"",""time""
""fullscreenenter"",""5"",""22341""
","
","
","""event"",""trial"",""time""
""fullscreenenter"",""5"",""22341""
","
",NA,images/earth.jpg,NA,NA,NA,NA,NA,NA,NA,NA,NA,NA,NA,NA,NA,fixation,NA,NA,NA,NA,NA,NA,sub146
d3-animate-choice,88,511144,0.0-61.0-0.9,FALSE,TRUE,FALSE,TRUE,"""event"",""trial"",""time""
""fullscreenenter"",""5"",""22341""
","
","
","""event"",""trial"",""time""
""fullscreenenter"",""5"",""22341""
","
",490.9999999998836,NA,48,NA,NA,3000,1,NA,NA,images/earth.jpg,images/tutrocket2,images/tutrocket1,null,images/tutrocket2,NA,1,practice,null,2,NA,NA,NA,sub146
d3-animate-choice,89,513672,0.0-61.0-1.9,FALSE,TRUE,FALSE,TRUE,"""event"",""trial"",""time""
""fullscreenenter"",""5"",""22341""
","
","
","""event"",""trial"",""time""
""fullscreenenter"",""5"",""22341""
","
",525,NA,48,NA,NA,3000,1,NA,NA,images/tutyellowplanet.jpg,images/tutalien4,images/tutalien3,images/tutrocket2,images/tutalien4,images/nothing.png,2,practice,true,2,common,0,2020-06-29T03:07:12Z,sub146
two-step-fixation,90,514674,0.0-61.0-2.9,FALSE,TRUE,FALSE,TRUE,"""event"",""trial"",""time""
""fullscreenenter"",""5"",""22341""
","
","
","""event"",""trial"",""time""
""fullscreenenter"",""5"",""22341""
","
",NA,images/earth.jpg,NA,NA,NA,NA,NA,NA,NA,NA,NA,NA,NA,NA,NA,fixation,NA,NA,NA,NA,NA,NA,sub146
d3-animate-choice,91,517025,0.0-61.0-0.10,FALSE,TRUE,FALSE,TRUE,"""event"",""trial"",""time""
""fullscreenenter"",""5"",""22341""
","
","
","""event"",""trial"",""time""
""fullscreenenter"",""5"",""22341""
","
",347.9999999998836,NA,48,NA,NA,3000,1,NA,NA,images/earth.jpg,images/tutrocket2,images/tutrocket1,null,images/tutrocket2,NA,1,practice,null,2,NA,NA,NA,sub146
d3-animate-choice,92,519365,0.0-61.0-1.10,FALSE,TRUE,FALSE,TRUE,"""event"",""trial"",""time""
""fullscreenenter"",""5"",""22341""
","
","
","""event"",""trial"",""time""
""fullscreenenter"",""5"",""22341""
","
",337.9999999998836,NA,48,NA,NA,3000,1,NA,NA,images/tutyellowplanet.jpg,images/tutalien4,images/tutalien3,images/tutrocket2,images/tutalien4,images/t.png,2,practice,true,2,common,1,2020-06-29T03:07:17Z,sub146
two-step-fixation,93,520368,0.0-61.0-2.10,FALSE,TRUE,FALSE,TRUE,"""event"",""trial"",""time""
""fullscreenenter"",""5"",""22341""
","
","
","""event"",""trial"",""time""
""fullscreenenter"",""5"",""22341""
","
",NA,images/earth.jpg,NA,NA,NA,NA,NA,NA,NA,NA,NA,NA,NA,NA,NA,fixation,NA,NA,NA,NA,NA,NA,sub146
d3-animate-choice,94,522911,0.0-61.0-0.11,FALSE,TRUE,FALSE,TRUE,"""event"",""trial"",""time""
""fullscreenenter"",""5"",""22341""
","
","
","""event"",""trial"",""time""
""fullscreenenter"",""5"",""22341""
","
",540,NA,49,NA,NA,3000,1,NA,NA,images/earth.jpg,images/tutrocket2,images/tutrocket1,null,images/tutrocket1,NA,1,practice,null,1,NA,NA,NA,sub146
d3-animate-choice,95,525396,0.0-61.0-1.11,FALSE,TRUE,FALSE,TRUE,"""event"",""trial"",""time""
""fullscreenenter"",""5"",""22341""
","
","
","""event"",""trial"",""time""
""fullscreenenter"",""5"",""22341""
","
",482,NA,49,NA,NA,3000,1,NA,NA,images/tutyellowplanet.jpg,images/tutalien4,images/tutalien3,images/tutrocket1,images/tutalien3,images/nothing.png,2,practice,false,1,rare,0,2020-06-29T03:07:23Z,sub146
two-step-fixation,96,526399,0.0-61.0-2.11,FALSE,TRUE,FALSE,TRUE,"""event"",""trial"",""time""
""fullscreenenter"",""5"",""22341""
","
","
","""event"",""trial"",""time""
""fullscreenenter"",""5"",""22341""
","
",NA,images/earth.jpg,NA,NA,NA,NA,NA,NA,NA,NA,NA,NA,NA,NA,NA,fixation,NA,NA,NA,NA,NA,NA,sub146
d3-animate-choice,97,528853,0.0-61.0-0.12,FALSE,TRUE,FALSE,TRUE,"""event"",""trial"",""time""
""fullscreenenter"",""5"",""22341""
","
","
","""event"",""trial"",""time""
""fullscreenenter"",""5"",""22341""
","
",451,NA,49,NA,NA,3000,1,NA,NA,images/earth.jpg,images/tutrocket2,images/tutrocket1,null,images/tutrocket1,NA,1,practice,null,1,NA,NA,NA,sub146
d3-animate-choice,98,531529,0.0-61.0-1.12,FALSE,TRUE,FALSE,TRUE,"""event"",""trial"",""time""
""fullscreenenter"",""5"",""22341""
","
","
","""event"",""trial"",""time""
""fullscreenenter"",""5"",""22341""
","
",673,NA,49,NA,NA,3000,1,NA,NA,images/tutgreenplanet.jpg,images/tutalien2,images/tutalien1,images/tutrocket1,images/tutalien1,images/t.png,2,practice,true,1,common,1,2020-06-29T03:07:30Z,sub146
two-step-fixation,99,532532,0.0-61.0-2.12,FALSE,TRUE,FALSE,TRUE,"""event"",""trial"",""time""
""fullscreenenter"",""5"",""22341""
","
","
","""event"",""trial"",""time""
""fullscreenenter"",""5"",""22341""
","
",NA,images/earth.jpg,NA,NA,NA,NA,NA,NA,NA,NA,NA,NA,NA,NA,NA,fixation,NA,NA,NA,NA,NA,NA,sub146
d3-animate-choice,100,534753,0.0-61.0-0.13,FALSE,TRUE,FALSE,TRUE,"""event"",""trial"",""time""
""fullscreenenter"",""5"",""22341""
","
","
","""event"",""trial"",""time""
""fullscreenenter"",""5"",""22341""
","
",217,NA,49,NA,NA,3000,1,NA,NA,images/earth.jpg,images/tutrocket2,images/tutrocket1,null,images/tutrocket1,NA,1,practice,null,1,NA,NA,NA,sub146
d3-animate-choice,101,537281,0.0-61.0-1.13,FALSE,TRUE,FALSE,TRUE,"""event"",""trial"",""time""
""fullscreenenter"",""5"",""22341""
","
","
","""event"",""trial"",""time""
""fullscreenenter"",""5"",""22341""
","
",526,NA,48,NA,NA,3000,1,NA,NA,images/tutgreenplanet.jpg,images/tutalien2,images/tutalien1,images/tutrocket1,images/tutalien2,images/t.png,2,practice,true,2,common,1,2020-06-29T03:07:35Z,sub146
two-step-fixation,102,538284,0.0-61.0-2.13,FALSE,TRUE,FALSE,TRUE,"""event"",""trial"",""time""
""fullscreenenter"",""5"",""22341""
","
","
","""event"",""trial"",""time""
""fullscreenenter"",""5"",""22341""
","
",NA,images/earth.jpg,NA,NA,NA,NA,NA,NA,NA,NA,NA,NA,NA,NA,NA,fixation,NA,NA,NA,NA,NA,NA,sub146
d3-animate-choice,103,540570,0.0-61.0-0.14,FALSE,TRUE,FALSE,TRUE,"""event"",""trial"",""time""
""fullscreenenter"",""5"",""22341""
","
","
","""event"",""trial"",""time""
""fullscreenenter"",""5"",""22341""
","
",283,NA,48,NA,NA,3000,1,NA,NA,images/earth.jpg,images/tutrocket2,images/tutrocket1,null,images/tutrocket2,NA,1,practice,null,2,NA,NA,NA,sub146
d3-animate-choice,104,543092,0.0-61.0-1.14,FALSE,TRUE,FALSE,TRUE,"""event"",""trial"",""time""
""fullscreenenter"",""5"",""22341""
","
","
","""event"",""trial"",""time""
""fullscreenenter"",""5"",""22341""
","
",519,NA,49,NA,NA,3000,1,NA,NA,images/tutgreenplanet.jpg,images/tutalien2,images/tutalien1,images/tutrocket2,images/tutalien1,images/nothing.png,2,practice,false,1,rare,0,2020-06-29T03:07:41Z,sub146
two-step-fixation,105,544094,0.0-61.0-2.14,FALSE,TRUE,FALSE,TRUE,"""event"",""trial"",""time""
""fullscreenenter"",""5"",""22341""
","
","
","""event"",""trial"",""time""
""fullscreenenter"",""5"",""22341""
","
",NA,images/earth.jpg,NA,NA,NA,NA,NA,NA,NA,NA,NA,NA,NA,NA,NA,fixation,NA,NA,NA,NA,NA,NA,sub146
d3-animate-choice,106,546210,0.0-61.0-0.15,FALSE,TRUE,FALSE,TRUE,"""event"",""trial"",""time""
""fullscreenenter"",""5"",""22341""
","
","
","""event"",""trial"",""time""
""fullscreenenter"",""5"",""22341""
","
",112,NA,48,NA,NA,3000,1,NA,NA,images/earth.jpg,images/tutrocket2,images/tutrocket1,null,images/tutrocket2,NA,1,practice,null,2,NA,NA,NA,sub146
d3-animate-choice,107,548663,0.0-61.0-1.15,FALSE,TRUE,FALSE,TRUE,"""event"",""trial"",""time""
""fullscreenenter"",""5"",""22341""
","
","
","""event"",""trial"",""time""
""fullscreenenter"",""5"",""22341""
","
",449,NA,48,NA,NA,3000,1,NA,NA,images/tutyellowplanet.jpg,images/tutalien4,images/tutalien3,images/tutrocket2,images/tutalien4,images/nothing.png,2,practice,true,2,common,0,2020-06-29T03:07:47Z,sub146
two-step-fixation,108,549665,0.0-61.0-2.15,FALSE,TRUE,FALSE,TRUE,"""event"",""trial"",""time""
""fullscreenenter"",""5"",""22341""
","
","
","""event"",""trial"",""time""
""fullscreenenter"",""5"",""22341""
","
",NA,images/earth.jpg,NA,NA,NA,NA,NA,NA,NA,NA,NA,NA,NA,NA,NA,fixation,NA,NA,NA,NA,NA,NA,sub146
d3-animate-choice,109,551777,0.0-61.0-0.16,FALSE,TRUE,FALSE,TRUE,"""event"",""trial"",""time""
""fullscreenenter"",""5"",""22341""
","
","
","""event"",""trial"",""time""
""fullscreenenter"",""5"",""22341""
","
",110,NA,48,NA,NA,3000,1,NA,NA,images/earth.jpg,images/tutrocket2,images/tutrocket1,null,images/tutrocket2,NA,1,practice,null,2,NA,NA,NA,sub146
d3-animate-choice,110,554215,0.0-61.0-1.16,FALSE,TRUE,FALSE,TRUE,"""event"",""trial"",""time""
""fullscreenenter"",""5"",""22341""
","
","
","""event"",""trial"",""time""
""fullscreenenter"",""5"",""22341""
","
",436,NA,49,NA,NA,3000,1,NA,NA,images/tutgreenplanet.jpg,images/tutalien2,images/tutalien1,images/tutrocket2,images/tutalien1,images/nothing.png,2,practice,false,1,rare,0,2020-06-29T03:07:52Z,sub146
two-step-fixation,111,555217,0.0-61.0-2.16,FALSE,TRUE,FALSE,TRUE,"""event"",""trial"",""time""
""fullscreenenter"",""5"",""22341""
","
","
","""event"",""trial"",""time""
""fullscreenenter"",""5"",""22341""
","
",NA,images/earth.jpg,NA,NA,NA,NA,NA,NA,NA,NA,NA,NA,NA,NA,NA,fixation,NA,NA,NA,NA,NA,NA,sub146
d3-animate-choice,112,557442,0.0-61.0-0.17,FALSE,TRUE,FALSE,TRUE,"""event"",""trial"",""time""
""fullscreenenter"",""5"",""22341""
","
","
","""event"",""trial"",""time""
""fullscreenenter"",""5"",""22341""
","
",222,NA,48,NA,NA,3000,1,558,48,images/earth.jpg,images/tutrocket2,images/tutrocket1,null,images/tutrocket2,NA,1,practice,null,2,NA,NA,NA,sub146
d3-animate-choice,113,560037,0.0-61.0-1.17,FALSE,TRUE,FALSE,TRUE,"""event"",""trial"",""time""
""fullscreenenter"",""5"",""22341""
","
","
","""event"",""trial"",""time""
""fullscreenenter"",""5"",""22341""
","
",592,NA,48,NA,NA,3000,1,NA,NA,images/tutyellowplanet.jpg,images/tutalien4,images/tutalien3,images/tutrocket2,images/tutalien4,images/t.png,2,practice,true,2,common,1,2020-06-29T03:07:58Z,sub146
two-step-fixation,114,561039,0.0-61.0-2.17,FALSE,TRUE,FALSE,TRUE,"""event"",""trial"",""time""
""fullscreenenter"",""5"",""22341""
","
","
","""event"",""trial"",""time""
""fullscreenenter"",""5"",""22341""
","
",NA,images/earth.jpg,NA,NA,NA,NA,NA,NA,NA,NA,NA,NA,NA,NA,NA,fixation,NA,NA,NA,NA,NA,NA,sub146
d3-animate-choice,115,563270,0.0-61.0-0.18,FALSE,TRUE,FALSE,TRUE,"""event"",""trial"",""time""
""fullscreenenter"",""5"",""22341""
","
","
","""event"",""trial"",""time""
""fullscreenenter"",""5"",""22341""
","
",227,NA,48,NA,NA,3000,1,NA,NA,images/earth.jpg,images/tutrocket2,images/tutrocket1,null,images/tutrocket2,NA,1,practice,null,2,NA,NA,NA,sub146
d3-animate-choice,116,565811,0.0-61.0-1.18,FALSE,TRUE,FALSE,TRUE,"""event"",""trial"",""time""
""fullscreenenter"",""5"",""22341""
","
","
","""event"",""trial"",""time""
""fullscreenenter"",""5"",""22341""
","
",537,NA,48,NA,NA,3000,1,NA,NA,images/tutyellowplanet.jpg,images/tutalien4,images/tutalien3,images/tutrocket2,images/tutalien4,images/t.png,2,practice,true,2,common,1,2020-06-29T03:08:04Z,sub146
two-step-fixation,117,566812,0.0-61.0-2.18,FALSE,TRUE,FALSE,TRUE,"""event"",""trial"",""time""
""fullscreenenter"",""5"",""22341""
","
","
","""event"",""trial"",""time""
""fullscreenenter"",""5"",""22341""
","
",NA,images/earth.jpg,NA,NA,NA,NA,NA,NA,NA,NA,NA,NA,NA,NA,NA,fixation,NA,NA,NA,NA,NA,NA,sub146
d3-animate-choice,118,570431,0.0-61.0-0.19,FALSE,TRUE,FALSE,TRUE,"""event"",""trial"",""time""
""fullscreenenter"",""5"",""22341""
","
","
","""event"",""trial"",""time""
""fullscreenenter"",""5"",""22341""
","
",1615,NA,48,NA,NA,3000,1,NA,NA,images/earth.jpg,images/tutrocket2,images/tutrocket1,null,images/tutrocket2,NA,1,practice,null,2,NA,NA,NA,sub146
d3-animate-choice,119,573024,0.0-61.0-1.19,FALSE,TRUE,FALSE,TRUE,"""event"",""trial"",""time""
""fullscreenenter"",""5"",""22341""
","
","
","""event"",""trial"",""time""
""fullscreenenter"",""5"",""22341""
","
",590,NA,48,NA,NA,3000,1,NA,NA,images/tutyellowplanet.jpg,images/tutalien4,images/tutalien3,images/tutrocket2,images/tutalien4,images/nothing.png,2,practice,true,2,common,0,2020-06-29T03:08:11Z,sub146
two-step-fixation,120,574027,0.0-61.0-2.19,FALSE,TRUE,FALSE,TRUE,"""event"",""trial"",""time""
""fullscreenenter"",""5"",""22341""
","
","
","""event"",""trial"",""time""
""fullscreenenter"",""5"",""22341""
","
",NA,images/earth.jpg,NA,NA,NA,NA,NA,NA,NA,NA,NA,NA,NA,NA,NA,fixation,NA,NA,NA,NA,NA,NA,sub146
d3-instructions,121,579766,0.0-62.0,FALSE,TRUE,FALSE,TRUE,"""event"",""trial"",""time""
""fullscreenenter"",""5"",""22341""
","
","
","""event"",""trial"",""time""
""fullscreenenter"",""5"",""22341""
","
",NA,NA,NA,NA,NA,NA,NA,NA,NA,NA,NA,NA,NA,NA,NA,NA,NA,NA,NA,NA,NA,NA,sub146
audio-keyboard-response,122,584651,0.0-63.0,FALSE,TRUE,FALSE,TRUE,"""event"",""trial"",""time""
""fullscreenenter"",""5"",""22341""
","
","
","""event"",""trial"",""time""
""fullscreenenter"",""5"",""22341""
","
",4882,audio/instructions/treasure_feedback.wav,32,NA,NA,NA,NA,NA,NA,NA,NA,NA,NA,NA,NA,NA,NA,NA,NA,NA,NA,NA,sub146
d3-instructions,123,605622,0.0-64.0,FALSE,TRUE,FALSE,TRUE,"""event"",""trial"",""time""
""fullscreenenter"",""5"",""22341""
","
","
","""event"",""trial"",""time""
""fullscreenenter"",""5"",""22341""
","
",NA,NA,NA,NA,NA,NA,NA,NA,NA,NA,NA,NA,NA,NA,NA,NA,NA,NA,NA,NA,NA,NA,sub146
d3-instructions,124,625681,0.0-65.0,FALSE,TRUE,FALSE,TRUE,"""event"",""trial"",""time""
""fullscreenenter"",""5"",""22341""
","
","
","""event"",""trial"",""time""
""fullscreenenter"",""5"",""22341""
","
",NA,NA,NA,NA,NA,NA,NA,NA,NA,NA,NA,NA,NA,NA,NA,NA,NA,NA,NA,NA,NA,NA,sub146
d3-instructions,125,651117,0.0-66.0,FALSE,TRUE,FALSE,TRUE,"""event"",""trial"",""time""
""fullscreenenter"",""5"",""22341""
","
","
","""event"",""trial"",""time""
""fullscreenenter"",""5"",""22341""
","
",NA,NA,NA,NA,NA,NA,NA,NA,NA,NA,NA,NA,NA,NA,NA,NA,NA,NA,NA,NA,NA,NA,sub146
d3-instructions,126,668997,0.0-67.0,FALSE,TRUE,FALSE,TRUE,"""event"",""trial"",""time""
""fullscreenenter"",""5"",""22341""
","
","
","""event"",""trial"",""time""
""fullscreenenter"",""5"",""22341""
","
",NA,NA,NA,NA,NA,NA,NA,NA,NA,NA,NA,NA,NA,NA,NA,NA,NA,NA,NA,NA,NA,NA,sub146
d3-instructions,127,678439,0.0-68.0,FALSE,TRUE,FALSE,TRUE,"""event"",""trial"",""time""
""fullscreenenter"",""5"",""22341""
","
","
","""event"",""trial"",""time""
""fullscreenenter"",""5"",""22341""
","
",NA,NA,NA,NA,NA,NA,NA,NA,NA,NA,NA,NA,NA,NA,NA,NA,NA,NA,NA,NA,NA,NA,sub146
instructions-quiz,128,684884,0.0-69.0,FALSE,TRUE,FALSE,TRUE,"""event"",""trial"",""time""
""fullscreenenter"",""5"",""22341""
","
","
","""event"",""trial"",""time""
""fullscreenenter"",""5"",""22341""
","
",6444.000000000116,audio/quiz/Q1_Prompt.wav,NA,1,NA,NA,NA,NA,NA,NA,NA,NA,NA,NA,NA,NA,NA,NA,NA,NA,NA,NA,sub146
audio-keyboard-response,129,694053,0.0-70.0,FALSE,TRUE,FALSE,TRUE,"""event"",""trial"",""time""
""fullscreenenter"",""5"",""22341""
","
","
","""event"",""trial"",""time""
""fullscreenenter"",""5"",""22341""
","
",null,audio/quiz/Q1_Correct.wav,null,NA,NA,NA,NA,NA,NA,NA,NA,NA,NA,NA,NA,NA,NA,NA,NA,NA,NA,NA,sub146
instructions-quiz,130,703554,0.0-71.0,FALSE,TRUE,FALSE,TRUE,"""event"",""trial"",""time""
""fullscreenenter"",""5"",""22341""
","
","
","""event"",""trial"",""time""
""fullscreenenter"",""5"",""22341""
","
",9500,audio/quiz/Q2_Prompt.wav,NA,0,NA,NA,NA,NA,NA,NA,NA,NA,NA,NA,NA,NA,NA,NA,NA,NA,NA,NA,sub146
audio-keyboard-response,131,716423,0.0-72.0,FALSE,TRUE,FALSE,TRUE,"""event"",""trial"",""time""
""fullscreenenter"",""5"",""22341""
","
","
","""event"",""trial"",""time""
""fullscreenenter"",""5"",""22341""
","
",null,audio/quiz/Q2_Correct.wav,null,NA,NA,NA,NA,NA,NA,NA,NA,NA,NA,NA,NA,NA,NA,NA,NA,NA,NA,NA,sub146
instructions-quiz,132,722219,0.0-73.0,FALSE,TRUE,FALSE,TRUE,"""event"",""trial"",""time""
""fullscreenenter"",""5"",""22341""
","
","
","""event"",""trial"",""time""
""fullscreenenter"",""5"",""22341""
","
",5794,audio/quiz/Q3_Prompt.wav,NA,1,NA,NA,NA,NA,NA,NA,NA,NA,NA,NA,NA,NA,NA,NA,NA,NA,NA,NA,sub146
audio-keyboard-response,133,728018,0.0-74.0,FALSE,TRUE,FALSE,TRUE,"""event"",""trial"",""time""
""fullscreenenter"",""5"",""22341""
","
","
","""event"",""trial"",""time""
""fullscreenenter"",""5"",""22341""
","
",null,audio/quiz/Q3_Correct.wav,null,NA,NA,NA,NA,NA,NA,NA,NA,NA,NA,NA,NA,NA,NA,NA,NA,NA,NA,NA,sub146
d3-instructions,134,741373,0.0-75.0,FALSE,TRUE,FALSE,TRUE,"""event"",""trial"",""time""
""fullscreenenter"",""5"",""22341""
","
","
","""event"",""trial"",""time""
""fullscreenenter"",""5"",""22341""
","
",NA,NA,NA,NA,NA,NA,NA,NA,NA,NA,NA,NA,NA,NA,NA,NA,NA,NA,NA,NA,NA,NA,sub146
d3-animate-choice,135,744925,0.0-76.0-0.0,FALSE,TRUE,FALSE,TRUE,"""event"",""trial"",""time""
""fullscreenenter"",""5"",""22341""
","
","
","""event"",""trial"",""time""
""fullscreenenter"",""5"",""22341""
","
",1547.0000000001164,NA,49,NA,NA,3000,1,NA,NA,images/earth.jpg,images/rocket1,images/rocket2,null,images/rocket2,NA,1,real,null,1,NA,NA,NA,sub146
d3-animate-choice,136,747941,0.0-76.0-1.0,FALSE,TRUE,FALSE,TRUE,"""event"",""trial"",""time""
""fullscreenenter"",""5"",""22341""
","
","
","""event"",""trial"",""time""
""fullscreenenter"",""5"",""22341""
","
",1013,NA,48,NA,NA,3000,1,NA,NA,images/purpleplanet.jpg,images/alien4,images/alien3,images/rocket2,images/alien4,images/t.png,2,real,true,2,common,1,2020-06-29T03:11:06Z,sub146
two-step-fixation,137,748943,0.0-76.0-2.0,FALSE,TRUE,FALSE,TRUE,"""event"",""trial"",""time""
""fullscreenenter"",""5"",""22341""
","
","
","""event"",""trial"",""time""
""fullscreenenter"",""5"",""22341""
","
",NA,images/earth.jpg,NA,NA,NA,NA,NA,NA,NA,NA,NA,NA,NA,NA,NA,fixation,NA,NA,NA,NA,NA,NA,sub146
d3-animate-choice,138,752073,0.0-76.0-0.1,FALSE,TRUE,FALSE,TRUE,"""event"",""trial"",""time""
""fullscreenenter"",""5"",""22341""
","
","
","""event"",""trial"",""time""
""fullscreenenter"",""5"",""22341""
","
",1127.0000000001164,NA,49,NA,NA,3000,1,NA,NA,images/earth.jpg,images/rocket1,images/rocket2,null,images/rocket2,NA,1,real,null,1,NA,NA,NA,sub146
d3-animate-choice,139,754520,0.0-76.0-1.1,FALSE,TRUE,FALSE,TRUE,"""event"",""trial"",""time""
""fullscreenenter"",""5"",""22341""
","
","
","""event"",""trial"",""time""
""fullscreenenter"",""5"",""22341""
","
",444,NA,48,NA,NA,3000,1,NA,NA,images/purpleplanet.jpg,images/alien4,images/alien3,images/rocket2,images/alien4,images/t.png,2,real,true,2,common,1,2020-06-29T03:11:13Z,sub146
two-step-fixation,140,755522,0.0-76.0-2.1,FALSE,TRUE,FALSE,TRUE,"""event"",""trial"",""time""
""fullscreenenter"",""5"",""22341""
","
","
","""event"",""trial"",""time""
""fullscreenenter"",""5"",""22341""
","
",NA,images/earth.jpg,NA,NA,NA,NA,NA,NA,NA,NA,NA,NA,NA,NA,NA,fixation,NA,NA,NA,NA,NA,NA,sub146
d3-animate-choice,141,758265,0.0-76.0-0.2,FALSE,TRUE,FALSE,TRUE,"""event"",""trial"",""time""
""fullscreenenter"",""5"",""22341""
","
","
","""event"",""trial"",""time""
""fullscreenenter"",""5"",""22341""
","
",739,NA,48,NA,NA,3000,1,NA,NA,images/earth.jpg,images/rocket1,images/rocket2,null,images/rocket1,NA,1,real,null,2,NA,NA,NA,sub146
d3-animate-choice,142,760862,0.0-76.0-1.2,FALSE,TRUE,FALSE,TRUE,"""event"",""trial"",""time""
""fullscreenenter"",""5"",""22341""
","
","
","""event"",""trial"",""time""
""fullscreenenter"",""5"",""22341""
","
",595,NA,49,NA,NA,3000,1,NA,NA,images/redplanet1.jpg,images/alien2,images/alien1,images/rocket1,images/alien1,images/nothing.png,2,real,true,1,common,0,2020-06-29T03:11:19Z,sub146
two-step-fixation,143,761864,0.0-76.0-2.2,FALSE,TRUE,FALSE,TRUE,"""event"",""trial"",""time""
""fullscreenenter"",""5"",""22341""
","
","
","""event"",""trial"",""time""
""fullscreenenter"",""5"",""22341""
","
",NA,images/earth.jpg,NA,NA,NA,NA,NA,NA,NA,NA,NA,NA,NA,NA,NA,fixation,NA,NA,NA,NA,NA,NA,sub146
d3-animate-choice,144,764079,0.0-76.0-0.3,FALSE,TRUE,FALSE,TRUE,"""event"",""trial"",""time""
""fullscreenenter"",""5"",""22341""
","
","
","""event"",""trial"",""time""
""fullscreenenter"",""5"",""22341""
","
",213,NA,48,NA,NA,3000,1,NA,NA,images/earth.jpg,images/rocket1,images/rocket2,null,images/rocket1,NA,1,real,null,2,NA,NA,NA,sub146
d3-animate-choice,145,766491,0.0-76.0-1.3,FALSE,TRUE,FALSE,TRUE,"""event"",""trial"",""time""
""fullscreenenter"",""5"",""22341""
","
","
","""event"",""trial"",""time""
""fullscreenenter"",""5"",""22341""
","
",408,NA,48,NA,NA,3000,1,NA,NA,images/redplanet1.jpg,images/alien2,images/alien1,images/rocket1,images/alien2,images/t.png,2,real,true,2,common,1,2020-06-29T03:11:25Z,sub146
two-step-fixation,146,767492,0.0-76.0-2.3,FALSE,TRUE,FALSE,TRUE,"""event"",""trial"",""time""
""fullscreenenter"",""5"",""22341""
","
","
","""event"",""trial"",""time""
""fullscreenenter"",""5"",""22341""
","
",NA,images/earth.jpg,NA,NA,NA,NA,NA,NA,NA,NA,NA,NA,NA,NA,NA,fixation,NA,NA,NA,NA,NA,NA,sub146
d3-animate-choice,147,770935,0.0-76.0-0.4,FALSE,TRUE,FALSE,TRUE,"""event"",""trial"",""time""
""fullscreenenter"",""5"",""22341""
","
","
","""event"",""trial"",""time""
""fullscreenenter"",""5"",""22341""
","
",1440,NA,48,NA,NA,3000,1,NA,NA,images/earth.jpg,images/rocket1,images/rocket2,null,images/rocket1,NA,1,real,null,2,NA,NA,NA,sub146
d3-animate-choice,148,773309,0.0-76.0-1.4,FALSE,TRUE,FALSE,TRUE,"""event"",""trial"",""time""
""fullscreenenter"",""5"",""22341""
","
","
","""event"",""trial"",""time""
""fullscreenenter"",""5"",""22341""
","
",372.0000000001164,NA,48,NA,NA,3000,1,NA,NA,images/redplanet1.jpg,images/alien2,images/alien1,images/rocket1,images/alien2,images/nothing.png,2,real,true,2,common,0,2020-06-29T03:11:31Z,sub146
two-step-fixation,149,774310,0.0-76.0-2.4,FALSE,TRUE,FALSE,TRUE,"""event"",""trial"",""time""
""fullscreenenter"",""5"",""22341""
","
","
","""event"",""trial"",""time""
""fullscreenenter"",""5"",""22341""
","
",NA,images/earth.jpg,NA,NA,NA,NA,NA,NA,NA,NA,NA,NA,NA,NA,NA,fixation,NA,NA,NA,NA,NA,NA,sub146
d3-animate-choice,150,776722,0.0-76.0-0.5,FALSE,TRUE,FALSE,TRUE,"""event"",""trial"",""time""
""fullscreenenter"",""5"",""22341""
","
","
","""event"",""trial"",""time""
""fullscreenenter"",""5"",""22341""
","
",408,NA,49,NA,NA,3000,1,NA,NA,images/earth.jpg,images/rocket1,images/rocket2,null,images/rocket2,NA,1,real,null,1,NA,NA,NA,sub146
d3-animate-choice,151,779201,0.0-76.0-1.5,FALSE,TRUE,FALSE,TRUE,"""event"",""trial"",""time""
""fullscreenenter"",""5"",""22341""
","
","
","""event"",""trial"",""time""
""fullscreenenter"",""5"",""22341""
","
",477,NA,48,NA,NA,3000,1,NA,NA,images/purpleplanet.jpg,images/alien4,images/alien3,images/rocket2,images/alien4,images/t.png,2,real,true,2,common,1,2020-06-29T03:11:37Z,sub146
two-step-fixation,152,780204,0.0-76.0-2.5,FALSE,TRUE,FALSE,TRUE,"""event"",""trial"",""time""
""fullscreenenter"",""5"",""22341""
","
","
","""event"",""trial"",""time""
""fullscreenenter"",""5"",""22341""
","
",NA,images/earth.jpg,NA,NA,NA,NA,NA,NA,NA,NA,NA,NA,NA,NA,NA,fixation,NA,NA,NA,NA,NA,NA,sub146
d3-animate-choice,153,783659,0.0-76.0-0.6,FALSE,TRUE,FALSE,TRUE,"""event"",""trial"",""time""
""fullscreenenter"",""5"",""22341""
","
","
","""event"",""trial"",""time""
""fullscreenenter"",""5"",""22341""
","
",1451,NA,49,NA,NA,3000,1,NA,NA,images/earth.jpg,images/rocket1,images/rocket2,null,images/rocket2,NA,1,real,null,1,NA,NA,NA,sub146
d3-animate-choice,154,786198,0.0-76.0-1.6,FALSE,TRUE,FALSE,TRUE,"""event"",""trial"",""time""
""fullscreenenter"",""5"",""22341""
","
","
","""event"",""trial"",""time""
""fullscreenenter"",""5"",""22341""
","
",535.0000000001164,NA,48,NA,NA,3000,1,NA,NA,images/redplanet1.jpg,images/alien2,images/alien1,images/rocket2,images/alien2,images/nothing.png,2,real,false,2,rare,0,2020-06-29T03:11:44Z,sub146
two-step-fixation,155,787358,0.0-76.0-2.6,FALSE,TRUE,FALSE,TRUE,"""event"",""trial"",""time""
""fullscreenenter"",""5"",""22341""
","
","
","""event"",""trial"",""time""
""fullscreenenter"",""5"",""22341""
","
",NA,images/earth.jpg,NA,NA,NA,NA,NA,NA,NA,NA,NA,NA,NA,NA,NA,fixation,NA,NA,NA,NA,NA,NA,sub146
d3-animate-choice,156,789722,0.0-76.0-0.7,FALSE,TRUE,FALSE,TRUE,"""event"",""trial"",""time""
""fullscreenenter"",""5"",""22341""
","
","
","""event"",""trial"",""time""
""fullscreenenter"",""5"",""22341""
","
",362,NA,48,NA,NA,3000,1,NA,NA,images/earth.jpg,images/rocket1,images/rocket2,null,images/rocket1,NA,1,real,null,2,NA,NA,NA,sub146
d3-animate-choice,157,792935,0.0-76.0-1.7,FALSE,TRUE,FALSE,TRUE,"""event"",""trial"",""time""
""fullscreenenter"",""5"",""22341""
","
","
","""event"",""trial"",""time""
""fullscreenenter"",""5"",""22341""
","
",1210,NA,49,NA,NA,3000,1,NA,NA,images/purpleplanet.jpg,images/alien4,images/alien3,images/rocket1,images/alien3,images/t.png,2,real,false,1,rare,1,2020-06-29T03:11:51Z,sub146
two-step-fixation,158,793937,0.0-76.0-2.7,FALSE,TRUE,FALSE,TRUE,"""event"",""trial"",""time""
""fullscreenenter"",""5"",""22341""
","
","
","""event"",""trial"",""time""
""fullscreenenter"",""5"",""22341""
","
",NA,images/earth.jpg,NA,NA,NA,NA,NA,NA,NA,NA,NA,NA,NA,NA,NA,fixation,NA,NA,NA,NA,NA,NA,sub146
d3-animate-choice,159,797940,0.0-76.0-0.8,FALSE,TRUE,FALSE,TRUE,"""event"",""trial"",""time""
""fullscreenenter"",""5"",""22341""
","
","
","""event"",""trial"",""time""
""fullscreenenter"",""5"",""22341""
","
",null,NA,null,NA,NA,3000,0,NA,NA,images/earth.jpg,images/rocket1,images/rocket2,null,NA,NA,1,real,null,NA,NA,NA,NA,sub146
d3-animate-choice,160,798945,0.0-76.0-1.8,FALSE,TRUE,FALSE,TRUE,"""event"",""trial"",""time""
""fullscreenenter"",""5"",""22341""
","
","
","""event"",""trial"",""time""
""fullscreenenter"",""5"",""22341""
","
",123,NA,48,NA,NA,0,0,NA,NA,images/earth.jpg,images/rocket1,images/rocket2,null,NA,NA,2,real,null,2,NA,0,2020-06-29T03:11:57Z,sub146
two-step-fixation,161,799948,0.0-76.0-2.8,FALSE,TRUE,FALSE,TRUE,"""event"",""trial"",""time""
""fullscreenenter"",""5"",""22341""
","
","
","""event"",""trial"",""time""
""fullscreenenter"",""5"",""22341""
","
",NA,images/earth.jpg,NA,NA,NA,NA,NA,NA,NA,NA,NA,NA,NA,NA,NA,fixation,NA,NA,NA,NA,NA,NA,sub146
d3-animate-choice,162,802414,0.0-76.0-0.9,FALSE,TRUE,FALSE,TRUE,"""event"",""trial"",""time""
""fullscreenenter"",""5"",""22341""
","
","
","""event"",""trial"",""time""
""fullscreenenter"",""5"",""22341""
","
",463,NA,48,NA,NA,3000,1,NA,NA,images/earth.jpg,images/rocket1,images/rocket2,null,images/rocket1,NA,1,real,null,2,NA,NA,NA,sub146
d3-animate-choice,163,804757,0.0-76.0-1.9,FALSE,TRUE,FALSE,TRUE,"""event"",""trial"",""time""
""fullscreenenter"",""5"",""22341""
","
","
","""event"",""trial"",""time""
""fullscreenenter"",""5"",""22341""
","
",338.9999999998836,NA,49,NA,NA,3000,1,NA,NA,images/redplanet1.jpg,images/alien2,images/alien1,images/rocket1,images/alien1,images/t.png,2,real,true,1,common,1,2020-06-29T03:12:03Z,sub146
two-step-fixation,164,805759,0.0-76.0-2.9,FALSE,TRUE,FALSE,TRUE,"""event"",""trial"",""time""
""fullscreenenter"",""5"",""22341""
","
","
","""event"",""trial"",""time""
""fullscreenenter"",""5"",""22341""
","
",NA,images/earth.jpg,NA,NA,NA,NA,NA,NA,NA,NA,NA,NA,NA,NA,NA,fixation,NA,NA,NA,NA,NA,NA,sub146
d3-animate-choice,165,808391,0.0-76.0-0.10,FALSE,TRUE,FALSE,TRUE,"""event"",""trial"",""time""
""fullscreenenter"",""5"",""22341""
","
","
","""event"",""trial"",""time""
""fullscreenenter"",""5"",""22341""
","
",627,NA,49,NA,NA,3000,1,NA,NA,images/earth.jpg,images/rocket1,images/rocket2,null,images/rocket2,NA,1,real,null,1,NA,NA,NA,sub146
d3-animate-choice,166,810845,0.0-76.0-1.10,FALSE,TRUE,FALSE,TRUE,"""event"",""trial"",""time""
""fullscreenenter"",""5"",""22341""
","
","
","""event"",""trial"",""time""
""fullscreenenter"",""5"",""22341""
","
",451,NA,48,NA,NA,3000,1,NA,NA,images/purpleplanet.jpg,images/alien4,images/alien3,images/rocket2,images/alien4,images/t.png,2,real,true,2,common,1,2020-06-29T03:12:09Z,sub146
two-step-fixation,167,811847,0.0-76.0-2.10,FALSE,TRUE,FALSE,TRUE,"""event"",""trial"",""time""
""fullscreenenter"",""5"",""22341""
","
","
","""event"",""trial"",""time""
""fullscreenenter"",""5"",""22341""
","
",NA,images/earth.jpg,NA,NA,NA,NA,NA,NA,NA,NA,NA,NA,NA,NA,NA,fixation,NA,NA,NA,NA,NA,NA,sub146
d3-animate-choice,168,814218,0.0-76.0-0.11,FALSE,TRUE,FALSE,TRUE,"""event"",""trial"",""time""
""fullscreenenter"",""5"",""22341""
","
","
","""event"",""trial"",""time""
""fullscreenenter"",""5"",""22341""
","
",368,NA,49,NA,NA,3000,1,NA,NA,images/earth.jpg,images/rocket1,images/rocket2,null,images/rocket2,NA,1,real,null,1,NA,NA,NA,sub146
d3-animate-choice,169,817095,0.0-76.0-1.11,FALSE,TRUE,FALSE,TRUE,"""event"",""trial"",""time""
""fullscreenenter"",""5"",""22341""
","
","
","""event"",""trial"",""time""
""fullscreenenter"",""5"",""22341""
","
",874,NA,48,NA,NA,3000,1,NA,NA,images/redplanet1.jpg,images/alien2,images/alien1,images/rocket2,images/alien2,images/t.png,2,real,false,2,rare,1,2020-06-29T03:12:15Z,sub146
two-step-fixation,170,818097,0.0-76.0-2.11,FALSE,TRUE,FALSE,TRUE,"""event"",""trial"",""time""
""fullscreenenter"",""5"",""22341""
","
","
","""event"",""trial"",""time""
""fullscreenenter"",""5"",""22341""
","
",NA,images/earth.jpg,NA,NA,NA,NA,NA,NA,NA,NA,NA,NA,NA,NA,NA,fixation,NA,NA,NA,NA,NA,NA,sub146
d3-animate-choice,171,820713,0.0-76.0-0.12,FALSE,TRUE,FALSE,TRUE,"""event"",""trial"",""time""
""fullscreenenter"",""5"",""22341""
","
","
","""event"",""trial"",""time""
""fullscreenenter"",""5"",""22341""
","
",612,NA,48,NA,NA,3000,1,NA,NA,images/earth.jpg,images/rocket1,images/rocket2,null,images/rocket1,NA,1,real,null,2,NA,NA,NA,sub146
d3-animate-choice,172,823149,0.0-76.0-1.12,FALSE,TRUE,FALSE,TRUE,"""event"",""trial"",""time""
""fullscreenenter"",""5"",""22341""
","
","
","""event"",""trial"",""time""
""fullscreenenter"",""5"",""22341""
","
",432.9999999998836,NA,49,NA,NA,3000,1,NA,NA,images/purpleplanet.jpg,images/alien4,images/alien3,images/rocket1,images/alien3,images/t.png,2,real,false,1,rare,1,2020-06-29T03:12:21Z,sub146
two-step-fixation,173,824152,0.0-76.0-2.12,FALSE,TRUE,FALSE,TRUE,"""event"",""trial"",""time""
""fullscreenenter"",""5"",""22341""
","
","
","""event"",""trial"",""time""
""fullscreenenter"",""5"",""22341""
","
",NA,images/earth.jpg,NA,NA,NA,NA,NA,NA,NA,NA,NA,NA,NA,NA,NA,fixation,NA,NA,NA,NA,NA,NA,sub146
d3-animate-choice,174,826490,0.0-76.0-0.13,FALSE,TRUE,FALSE,TRUE,"""event"",""trial"",""time""
""fullscreenenter"",""5"",""22341""
","
","
","""event"",""trial"",""time""
""fullscreenenter"",""5"",""22341""
","
",335.0000000001164,NA,49,NA,NA,3000,1,NA,NA,images/earth.jpg,images/rocket1,images/rocket2,null,images/rocket2,NA,1,real,null,1,NA,NA,NA,sub146
d3-animate-choice,175,828833,0.0-76.0-1.13,FALSE,TRUE,FALSE,TRUE,"""event"",""trial"",""time""
""fullscreenenter"",""5"",""22341""
","
","
","""event"",""trial"",""time""
""fullscreenenter"",""5"",""22341""
","
",340,NA,48,NA,NA,3000,1,NA,NA,images/purpleplanet.jpg,images/alien4,images/alien3,images/rocket2,images/alien4,images/t.png,2,real,true,2,common,1,2020-06-29T03:12:27Z,sub146
two-step-fixation,176,829835,0.0-76.0-2.13,FALSE,TRUE,FALSE,TRUE,"""event"",""trial"",""time""
""fullscreenenter"",""5"",""22341""
","
","
","""event"",""trial"",""time""
""fullscreenenter"",""5"",""22341""
","
",NA,images/earth.jpg,NA,NA,NA,NA,NA,NA,NA,NA,NA,NA,NA,NA,NA,fixation,NA,NA,NA,NA,NA,NA,sub146
d3-animate-choice,177,832305,0.0-76.0-0.14,FALSE,TRUE,FALSE,TRUE,"""event"",""trial"",""time""
""fullscreenenter"",""5"",""22341""
","
","
","""event"",""trial"",""time""
""fullscreenenter"",""5"",""22341""
","
",468,NA,48,NA,NA,3000,1,NA,NA,images/earth.jpg,images/rocket1,images/rocket2,null,images/rocket1,NA,1,real,null,2,NA,NA,NA,sub146
d3-animate-choice,178,834703,0.0-76.0-1.14,FALSE,TRUE,FALSE,TRUE,"""event"",""trial"",""time""
""fullscreenenter"",""5"",""22341""
","
","
","""event"",""trial"",""time""
""fullscreenenter"",""5"",""22341""
","
",395,NA,49,NA,NA,3000,1,NA,NA,images/redplanet1.jpg,images/alien2,images/alien1,images/rocket1,images/alien1,images/nothing.png,2,real,true,1,common,0,2020-06-29T03:12:33Z,sub146
two-step-fixation,179,835704,0.0-76.0-2.14,FALSE,TRUE,FALSE,TRUE,"""event"",""trial"",""time""
""fullscreenenter"",""5"",""22341""
","
","
","""event"",""trial"",""time""
""fullscreenenter"",""5"",""22341""
","
",NA,images/earth.jpg,NA,NA,NA,NA,NA,NA,NA,NA,NA,NA,NA,NA,NA,fixation,NA,NA,NA,NA,NA,NA,sub146
d3-animate-choice,180,838102,0.0-76.0-0.15,FALSE,TRUE,FALSE,TRUE,"""event"",""trial"",""time""
""fullscreenenter"",""5"",""22341""
","
","
","""event"",""trial"",""time""
""fullscreenenter"",""5"",""22341""
","
",394,NA,49,NA,NA,3000,1,NA,NA,images/earth.jpg,images/rocket1,images/rocket2,null,images/rocket2,NA,1,real,null,1,NA,NA,NA,sub146
d3-animate-choice,181,840559,0.0-76.0-1.15,FALSE,TRUE,FALSE,TRUE,"""event"",""trial"",""time""
""fullscreenenter"",""5"",""22341""
","
","
","""event"",""trial"",""time""
""fullscreenenter"",""5"",""22341""
","
",454,NA,48,NA,NA,3000,1,NA,NA,images/purpleplanet.jpg,images/alien4,images/alien3,images/rocket2,images/alien4,images/t.png,2,real,true,2,common,1,2020-06-29T03:12:39Z,sub146
two-step-fixation,182,841561,0.0-76.0-2.15,FALSE,TRUE,FALSE,TRUE,"""event"",""trial"",""time""
""fullscreenenter"",""5"",""22341""
","
","
","""event"",""trial"",""time""
""fullscreenenter"",""5"",""22341""
","
",NA,images/earth.jpg,NA,NA,NA,NA,NA,NA,NA,NA,NA,NA,NA,NA,NA,fixation,NA,NA,NA,NA,NA,NA,sub146
d3-animate-choice,183,844069,0.0-76.0-0.16,FALSE,TRUE,FALSE,TRUE,"""event"",""trial"",""time""
""fullscreenenter"",""5"",""22341""
","
","
","""event"",""trial"",""time""
""fullscreenenter"",""5"",""22341""
","
",505,NA,48,NA,NA,3000,1,NA,NA,images/earth.jpg,images/rocket1,images/rocket2,null,images/rocket1,NA,1,real,null,2,NA,NA,NA,sub146
d3-animate-choice,184,846454,0.0-76.0-1.16,FALSE,TRUE,FALSE,TRUE,"""event"",""trial"",""time""
""fullscreenenter"",""5"",""22341""
","
","
","""event"",""trial"",""time""
""fullscreenenter"",""5"",""22341""
","
",383,NA,49,NA,NA,3000,1,NA,NA,images/redplanet1.jpg,images/alien2,images/alien1,images/rocket1,images/alien1,images/t.png,2,real,true,1,common,1,2020-06-29T03:12:45Z,sub146
two-step-fixation,185,847456,0.0-76.0-2.16,FALSE,TRUE,FALSE,TRUE,"""event"",""trial"",""time""
""fullscreenenter"",""5"",""22341""
","
","
","""event"",""trial"",""time""
""fullscreenenter"",""5"",""22341""
","
",NA,images/earth.jpg,NA,NA,NA,NA,NA,NA,NA,NA,NA,NA,NA,NA,NA,fixation,NA,NA,NA,NA,NA,NA,sub146
d3-animate-choice,186,849841,0.0-76.0-0.17,FALSE,TRUE,FALSE,TRUE,"""event"",""trial"",""time""
""fullscreenenter"",""5"",""22341""
","
","
","""event"",""trial"",""time""
""fullscreenenter"",""5"",""22341""
","
",382.0000000001164,NA,49,NA,NA,3000,1,NA,NA,images/earth.jpg,images/rocket1,images/rocket2,null,images/rocket2,NA,1,real,null,1,NA,NA,NA,sub146
d3-animate-choice,187,852199,0.0-76.0-1.17,FALSE,TRUE,FALSE,TRUE,"""event"",""trial"",""time""
""fullscreenenter"",""5"",""22341""
","
","
","""event"",""trial"",""time""
""fullscreenenter"",""5"",""22341""
","
",355,NA,48,NA,NA,3000,1,NA,NA,images/purpleplanet.jpg,images/alien4,images/alien3,images/rocket2,images/alien4,images/t.png,2,real,true,2,common,1,2020-06-29T03:12:50Z,sub146
two-step-fixation,188,853203,0.0-76.0-2.17,FALSE,TRUE,FALSE,TRUE,"""event"",""trial"",""time""
""fullscreenenter"",""5"",""22341""
","
","
","""event"",""trial"",""time""
""fullscreenenter"",""5"",""22341""
","
",NA,images/earth.jpg,NA,NA,NA,NA,NA,NA,NA,NA,NA,NA,NA,NA,NA,fixation,NA,NA,NA,NA,NA,NA,sub146
d3-animate-choice,189,855458,0.0-76.0-0.18,FALSE,TRUE,FALSE,TRUE,"""event"",""trial"",""time""
""fullscreenenter"",""5"",""22341""
","
","
","""event"",""trial"",""time""
""fullscreenenter"",""5"",""22341""
","
",250.99999999988358,NA,48,NA,NA,3000,1,NA,NA,images/earth.jpg,images/rocket1,images/rocket2,null,images/rocket1,NA,1,real,null,2,NA,NA,NA,sub146
d3-animate-choice,190,857845,0.0-76.0-1.18,FALSE,TRUE,FALSE,TRUE,"""event"",""trial"",""time""
""fullscreenenter"",""5"",""22341""
","
","
","""event"",""trial"",""time""
""fullscreenenter"",""5"",""22341""
","
",383.9999999998836,NA,49,NA,NA,3000,1,NA,NA,images/purpleplanet.jpg,images/alien4,images/alien3,images/rocket1,images/alien3,images/nothing.png,2,real,false,1,rare,0,2020-06-29T03:12:56Z,sub146
two-step-fixation,191,858847,0.0-76.0-2.18,FALSE,TRUE,FALSE,TRUE,"""event"",""trial"",""time""
""fullscreenenter"",""5"",""22341""
","
","
","""event"",""trial"",""time""
""fullscreenenter"",""5"",""22341""
","
",NA,images/earth.jpg,NA,NA,NA,NA,NA,NA,NA,NA,NA,NA,NA,NA,NA,fixation,NA,NA,NA,NA,NA,NA,sub146
d3-animate-choice,192,861081,0.0-76.0-0.19,FALSE,TRUE,FALSE,TRUE,"""event"",""trial"",""time""
""fullscreenenter"",""5"",""22341""
","
","
","""event"",""trial"",""time""
""fullscreenenter"",""5"",""22341""
","
",231.00000000011642,NA,49,NA,NA,3000,1,NA,NA,images/earth.jpg,images/rocket1,images/rocket2,null,images/rocket2,NA,1,real,null,1,NA,NA,NA,sub146
d3-animate-choice,193,863684,0.0-76.0-1.19,FALSE,TRUE,FALSE,TRUE,"""event"",""trial"",""time""
""fullscreenenter"",""5"",""22341""
","
","
","""event"",""trial"",""time""
""fullscreenenter"",""5"",""22341""
","
",601,NA,48,NA,NA,3000,1,NA,NA,images/purpleplanet.jpg,images/alien4,images/alien3,images/rocket2,images/alien4,images/t.png,2,real,true,2,common,1,2020-06-29T03:13:02Z,sub146
two-step-fixation,194,864686,0.0-76.0-2.19,FALSE,TRUE,FALSE,TRUE,"""event"",""trial"",""time""
""fullscreenenter"",""5"",""22341""
","
","
","""event"",""trial"",""time""
""fullscreenenter"",""5"",""22341""
","
",NA,images/earth.jpg,NA,NA,NA,NA,NA,NA,NA,NA,NA,NA,NA,NA,NA,fixation,NA,NA,NA,NA,NA,NA,sub146
d3-animate-choice,195,867785,0.0-76.0-0.20,FALSE,TRUE,FALSE,TRUE,"""event"",""trial"",""time""
""fullscreenenter"",""5"",""22341""
","
","
","""event"",""trial"",""time""
""fullscreenenter"",""5"",""22341""
","
",1095,NA,49,NA,NA,3000,1,NA,NA,images/earth.jpg,images/rocket1,images/rocket2,null,images/rocket2,NA,1,real,null,1,NA,NA,NA,sub146
d3-animate-choice,196,870154,0.0-76.0-1.20,FALSE,TRUE,FALSE,TRUE,"""event"",""trial"",""time""
""fullscreenenter"",""5"",""22341""
","
","
","""event"",""trial"",""time""
""fullscreenenter"",""5"",""22341""
","
",368,NA,48,NA,NA,3000,1,NA,NA,images/purpleplanet.jpg,images/alien4,images/alien3,images/rocket2,images/alien4,images/nothing.png,2,real,true,2,common,0,2020-06-29T03:13:08Z,sub146
two-step-fixation,197,871156,0.0-76.0-2.20,FALSE,TRUE,FALSE,TRUE,"""event"",""trial"",""time""
""fullscreenenter"",""5"",""22341""
","
","
","""event"",""trial"",""time""
""fullscreenenter"",""5"",""22341""
","
",NA,images/earth.jpg,NA,NA,NA,NA,NA,NA,NA,NA,NA,NA,NA,NA,NA,fixation,NA,NA,NA,NA,NA,NA,sub146
d3-animate-choice,198,873332,0.0-76.0-0.21,FALSE,TRUE,FALSE,TRUE,"""event"",""trial"",""time""
""fullscreenenter"",""5"",""22341""
","
","
","""event"",""trial"",""time""
""fullscreenenter"",""5"",""22341""
","
",173.99999999988358,NA,48,NA,NA,3000,1,2003.9999999998836,49,images/earth.jpg,images/rocket1,images/rocket2,null,images/rocket1,NA,1,real,null,2,NA,NA,NA,sub146
d3-animate-choice,199,875863,0.0-76.0-1.21,FALSE,TRUE,FALSE,TRUE,"""event"",""trial"",""time""
""fullscreenenter"",""5"",""22341""
","
","
","""event"",""trial"",""time""
""fullscreenenter"",""5"",""22341""
","
",528,NA,49,NA,NA,3000,1,NA,NA,images/purpleplanet.jpg,images/alien4,images/alien3,images/rocket1,images/alien3,images/nothing.png,2,real,false,1,rare,0,2020-06-29T03:13:14Z,sub146
two-step-fixation,200,876868,0.0-76.0-2.21,FALSE,TRUE,FALSE,TRUE,"""event"",""trial"",""time""
""fullscreenenter"",""5"",""22341""
","
","
","""event"",""trial"",""time""
""fullscreenenter"",""5"",""22341""
","
",NA,images/earth.jpg,NA,NA,NA,NA,NA,NA,NA,NA,NA,NA,NA,NA,NA,fixation,NA,NA,NA,NA,NA,NA,sub146
d3-animate-choice,201,879692,0.0-76.0-0.22,FALSE,TRUE,FALSE,TRUE,"""event"",""trial"",""time""
""fullscreenenter"",""5"",""22341""
","
","
","""event"",""trial"",""time""
""fullscreenenter"",""5"",""22341""
","
",820,NA,49,NA,NA,3000,1,NA,NA,images/earth.jpg,images/rocket1,images/rocket2,null,images/rocket2,NA,1,real,null,1,NA,NA,NA,sub146
d3-animate-choice,202,881969,0.0-76.0-1.22,FALSE,TRUE,FALSE,TRUE,"""event"",""trial"",""time""
""fullscreenenter"",""5"",""22341""
","
","
","""event"",""trial"",""time""
""fullscreenenter"",""5"",""22341""
","
",275,NA,48,NA,NA,3000,1,NA,NA,images/purpleplanet.jpg,images/alien4,images/alien3,images/rocket2,images/alien4,images/nothing.png,2,real,true,2,common,0,2020-06-29T03:13:20Z,sub146
two-step-fixation,203,882972,0.0-76.0-2.22,FALSE,TRUE,FALSE,TRUE,"""event"",""trial"",""time""
""fullscreenenter"",""5"",""22341""
","
","
","""event"",""trial"",""time""
""fullscreenenter"",""5"",""22341""
","
",NA,images/earth.jpg,NA,NA,NA,NA,NA,NA,NA,NA,NA,NA,NA,NA,NA,fixation,NA,NA,NA,NA,NA,NA,sub146
d3-animate-choice,204,886076,0.0-76.0-0.23,FALSE,TRUE,FALSE,TRUE,"""event"",""trial"",""time""
""fullscreenenter"",""5"",""22341""
","
","
","""event"",""trial"",""time""
""fullscreenenter"",""5"",""22341""
","
",1102.0000000001164,NA,49,NA,NA,3000,1,NA,NA,images/earth.jpg,images/rocket1,images/rocket2,null,images/rocket2,NA,1,real,null,1,NA,NA,NA,sub146
d3-animate-choice,205,888440,0.0-76.0-1.23,FALSE,TRUE,FALSE,TRUE,"""event"",""trial"",""time""
""fullscreenenter"",""5"",""22341""
","
","
","""event"",""trial"",""time""
""fullscreenenter"",""5"",""22341""
","
",361,NA,49,NA,NA,3000,1,NA,NA,images/purpleplanet.jpg,images/alien4,images/alien3,images/rocket2,images/alien3,images/t.png,2,real,true,1,common,1,2020-06-29T03:13:26Z,sub146
two-step-fixation,206,889442,0.0-76.0-2.23,FALSE,TRUE,FALSE,TRUE,"""event"",""trial"",""time""
""fullscreenenter"",""5"",""22341""
","
","
","""event"",""trial"",""time""
""fullscreenenter"",""5"",""22341""
","
",NA,images/earth.jpg,NA,NA,NA,NA,NA,NA,NA,NA,NA,NA,NA,NA,NA,fixation,NA,NA,NA,NA,NA,NA,sub146
d3-animate-choice,207,891788,0.0-76.0-0.24,FALSE,TRUE,FALSE,TRUE,"""event"",""trial"",""time""
""fullscreenenter"",""5"",""22341""
","
","
","""event"",""trial"",""time""
""fullscreenenter"",""5"",""22341""
","
",343.0000000001164,NA,48,NA,NA,3000,1,NA,NA,images/earth.jpg,images/rocket1,images/rocket2,null,images/rocket1,NA,1,real,null,2,NA,NA,NA,sub146
d3-animate-choice,208,894236,0.0-76.0-1.24,FALSE,TRUE,FALSE,TRUE,"""event"",""trial"",""time""
""fullscreenenter"",""5"",""22341""
","
","
","""event"",""trial"",""time""
""fullscreenenter"",""5"",""22341""
","
",445,NA,48,NA,NA,3000,1,NA,NA,images/redplanet1.jpg,images/alien2,images/alien1,images/rocket1,images/alien2,images/t.png,2,real,true,2,common,1,2020-06-29T03:13:32Z,sub146
two-step-fixation,209,895239,0.0-76.0-2.24,FALSE,TRUE,FALSE,TRUE,"""event"",""trial"",""time""
""fullscreenenter"",""5"",""22341""
","
","
","""event"",""trial"",""time""
""fullscreenenter"",""5"",""22341""
","
",NA,images/earth.jpg,NA,NA,NA,NA,NA,NA,NA,NA,NA,NA,NA,NA,NA,fixation,NA,NA,NA,NA,NA,NA,sub146
d3-animate-choice,210,898224,0.0-76.0-0.25,FALSE,TRUE,FALSE,TRUE,"""event"",""trial"",""time""
""fullscreenenter"",""5"",""22341""
","
","
","""event"",""trial"",""time""
""fullscreenenter"",""5"",""22341""
","
",982,NA,48,NA,NA,3000,1,NA,NA,images/earth.jpg,images/rocket1,images/rocket2,null,images/rocket1,NA,1,real,null,2,NA,NA,NA,sub146
d3-animate-choice,211,900619,0.0-76.0-1.25,FALSE,TRUE,FALSE,TRUE,"""event"",""trial"",""time""
""fullscreenenter"",""5"",""22341""
","
","
","""event"",""trial"",""time""
""fullscreenenter"",""5"",""22341""
","
",392,NA,49,NA,NA,3000,1,NA,NA,images/purpleplanet.jpg,images/alien4,images/alien3,images/rocket1,images/alien3,images/nothing.png,2,real,false,1,rare,0,2020-06-29T03:13:39Z,sub146
two-step-fixation,212,901622,0.0-76.0-2.25,FALSE,TRUE,FALSE,TRUE,"""event"",""trial"",""time""
""fullscreenenter"",""5"",""22341""
","
","
","""event"",""trial"",""time""
""fullscreenenter"",""5"",""22341""
","
",NA,images/earth.jpg,NA,NA,NA,NA,NA,NA,NA,NA,NA,NA,NA,NA,NA,fixation,NA,NA,NA,NA,NA,NA,sub146
d3-animate-choice,213,903950,0.0-76.0-0.26,FALSE,TRUE,FALSE,TRUE,"""event"",""trial"",""time""
""fullscreenenter"",""5"",""22341""
","
","
","""event"",""trial"",""time""
""fullscreenenter"",""5"",""22341""
","
",325,NA,49,NA,NA,3000,1,NA,NA,images/earth.jpg,images/rocket1,images/rocket2,null,images/rocket2,NA,1,real,null,1,NA,NA,NA,sub146
d3-animate-choice,214,906793,0.0-76.0-1.26,FALSE,TRUE,FALSE,TRUE,"""event"",""trial"",""time""
""fullscreenenter"",""5"",""22341""
","
","
","""event"",""trial"",""time""
""fullscreenenter"",""5"",""22341""
","
",839,NA,48,NA,NA,3000,1,NA,NA,images/purpleplanet.jpg,images/alien4,images/alien3,images/rocket2,images/alien4,images/t.png,2,real,true,2,common,1,2020-06-29T03:13:45Z,sub146
two-step-fixation,215,907794,0.0-76.0-2.26,FALSE,TRUE,FALSE,TRUE,"""event"",""trial"",""time""
""fullscreenenter"",""5"",""22341""
","
","
","""event"",""trial"",""time""
""fullscreenenter"",""5"",""22341""
","
",NA,images/earth.jpg,NA,NA,NA,NA,NA,NA,NA,NA,NA,NA,NA,NA,NA,fixation,NA,NA,NA,NA,NA,NA,sub146
d3-animate-choice,216,910596,0.0-76.0-0.27,FALSE,TRUE,FALSE,TRUE,"""event"",""trial"",""time""
""fullscreenenter"",""5"",""22341""
","
","
","""event"",""trial"",""time""
""fullscreenenter"",""5"",""22341""
","
",799,NA,49,NA,NA,3000,1,NA,NA,images/earth.jpg,images/rocket1,images/rocket2,null,images/rocket2,NA,1,real,null,1,NA,NA,NA,sub146
d3-animate-choice,217,913085,0.0-76.0-1.27,FALSE,TRUE,FALSE,TRUE,"""event"",""trial"",""time""
""fullscreenenter"",""5"",""22341""
","
","
","""event"",""trial"",""time""
""fullscreenenter"",""5"",""22341""
","
",486,NA,48,NA,NA,3000,1,NA,NA,images/purpleplanet.jpg,images/alien4,images/alien3,images/rocket2,images/alien4,images/nothing.png,2,real,true,2,common,0,2020-06-29T03:13:51Z,sub146
two-step-fixation,218,914087,0.0-76.0-2.27,FALSE,TRUE,FALSE,TRUE,"""event"",""trial"",""time""
""fullscreenenter"",""5"",""22341""
","
","
","""event"",""trial"",""time""
""fullscreenenter"",""5"",""22341""
","
",NA,images/earth.jpg,NA,NA,NA,NA,NA,NA,NA,NA,NA,NA,NA,NA,NA,fixation,NA,NA,NA,NA,NA,NA,sub146
d3-animate-choice,219,916506,0.0-76.0-0.28,FALSE,TRUE,FALSE,TRUE,"""event"",""trial"",""time""
""fullscreenenter"",""5"",""22341""
","
","
","""event"",""trial"",""time""
""fullscreenenter"",""5"",""22341""
","
",416,NA,49,NA,NA,3000,1,NA,NA,images/earth.jpg,images/rocket1,images/rocket2,null,images/rocket2,NA,1,real,null,1,NA,NA,NA,sub146
d3-animate-choice,220,918902,0.0-76.0-1.28,FALSE,TRUE,FALSE,TRUE,"""event"",""trial"",""time""
""fullscreenenter"",""5"",""22341""
","
","
","""event"",""trial"",""time""
""fullscreenenter"",""5"",""22341""
","
",392.9999999998836,NA,49,NA,NA,3000,1,NA,NA,images/purpleplanet.jpg,images/alien4,images/alien3,images/rocket2,images/alien3,images/nothing.png,2,real,true,1,common,0,2020-06-29T03:13:57Z,sub146
two-step-fixation,221,919903,0.0-76.0-2.28,FALSE,TRUE,FALSE,TRUE,"""event"",""trial"",""time""
""fullscreenenter"",""5"",""22341""
","
","
","""event"",""trial"",""time""
""fullscreenenter"",""5"",""22341""
","
",NA,images/earth.jpg,NA,NA,NA,NA,NA,NA,NA,NA,NA,NA,NA,NA,NA,fixation,NA,NA,NA,NA,NA,NA,sub146
d3-animate-choice,222,922828,0.0-76.0-0.29,FALSE,TRUE,FALSE,TRUE,"""event"",""trial"",""time""
""fullscreenenter"",""5"",""22341""
","
","
","""event"",""trial"",""time""
""fullscreenenter"",""5"",""22341""
","
",922,NA,48,NA,NA,3000,1,NA,NA,images/earth.jpg,images/rocket1,images/rocket2,null,images/rocket1,NA,1,real,null,2,NA,NA,NA,sub146
d3-animate-choice,223,926251,0.0-76.0-1.29,FALSE,TRUE,FALSE,TRUE,"""event"",""trial"",""time""
""fullscreenenter"",""5"",""22341""
","
","
","""event"",""trial"",""time""
""fullscreenenter"",""5"",""22341""
","
",1421,NA,49,NA,NA,3000,1,NA,NA,images/purpleplanet.jpg,images/alien4,images/alien3,images/rocket1,images/alien3,images/nothing.png,2,real,false,1,rare,0,2020-06-29T03:14:04Z,sub146
two-step-fixation,224,927254,0.0-76.0-2.29,FALSE,TRUE,FALSE,TRUE,"""event"",""trial"",""time""
""fullscreenenter"",""5"",""22341""
","
","
","""event"",""trial"",""time""
""fullscreenenter"",""5"",""22341""
","
",NA,images/earth.jpg,NA,NA,NA,NA,NA,NA,NA,NA,NA,NA,NA,NA,NA,fixation,NA,NA,NA,NA,NA,NA,sub146
d3-animate-choice,225,930508,0.0-76.0-0.30,FALSE,TRUE,FALSE,TRUE,"""event"",""trial"",""time""
""fullscreenenter"",""5"",""22341""
","
","
","""event"",""trial"",""time""
""fullscreenenter"",""5"",""22341""
","
",1251,NA,48,NA,NA,3000,1,NA,NA,images/earth.jpg,images/rocket1,images/rocket2,null,images/rocket1,NA,1,real,null,2,NA,NA,NA,sub146
d3-animate-choice,226,933119,0.0-76.0-1.30,FALSE,TRUE,FALSE,TRUE,"""event"",""trial"",""time""
""fullscreenenter"",""5"",""22341""
","
","
","""event"",""trial"",""time""
""fullscreenenter"",""5"",""22341""
","
",608,NA,48,NA,NA,3000,1,NA,NA,images/redplanet1.jpg,images/alien2,images/alien1,images/rocket1,images/alien2,images/nothing.png,2,real,true,2,common,0,2020-06-29T03:14:11Z,sub146
two-step-fixation,227,934121,0.0-76.0-2.30,FALSE,TRUE,FALSE,TRUE,"""event"",""trial"",""time""
""fullscreenenter"",""5"",""22341""
","
","
","""event"",""trial"",""time""
""fullscreenenter"",""5"",""22341""
","
",NA,images/earth.jpg,NA,NA,NA,NA,NA,NA,NA,NA,NA,NA,NA,NA,NA,fixation,NA,NA,NA,NA,NA,NA,sub146
d3-animate-choice,228,936947,0.0-76.0-0.31,FALSE,TRUE,FALSE,TRUE,"""event"",""trial"",""time""
""fullscreenenter"",""5"",""22341""
","
","
","""event"",""trial"",""time""
""fullscreenenter"",""5"",""22341""
","
",822,NA,48,NA,NA,3000,1,NA,NA,images/earth.jpg,images/rocket1,images/rocket2,null,images/rocket1,NA,1,real,null,2,NA,NA,NA,sub146
d3-animate-choice,229,939318,0.0-76.0-1.31,FALSE,TRUE,FALSE,TRUE,"""event"",""trial"",""time""
""fullscreenenter"",""5"",""22341""
","
","
","""event"",""trial"",""time""
""fullscreenenter"",""5"",""22341""
","
",369,NA,49,NA,NA,3000,1,NA,NA,images/redplanet1.jpg,images/alien2,images/alien1,images/rocket1,images/alien1,images/nothing.png,2,real,true,1,common,0,2020-06-29T03:14:17Z,sub146
two-step-fixation,230,940319,0.0-76.0-2.31,FALSE,TRUE,FALSE,TRUE,"""event"",""trial"",""time""
""fullscreenenter"",""5"",""22341""
","
","
","""event"",""trial"",""time""
""fullscreenenter"",""5"",""22341""
","
",NA,images/earth.jpg,NA,NA,NA,NA,NA,NA,NA,NA,NA,NA,NA,NA,NA,fixation,NA,NA,NA,NA,NA,NA,sub146
d3-animate-choice,231,942813,0.0-76.0-0.32,FALSE,TRUE,FALSE,TRUE,"""event"",""trial"",""time""
""fullscreenenter"",""5"",""22341""
","
","
","""event"",""trial"",""time""
""fullscreenenter"",""5"",""22341""
","
",492,NA,49,NA,NA,3000,1,2056,48,images/earth.jpg,images/rocket1,images/rocket2,null,images/rocket2,NA,1,real,null,1,NA,NA,NA,sub146
d3-animate-choice,232,945814,0.0-76.0-1.32,FALSE,TRUE,FALSE,TRUE,"""event"",""trial"",""time""
""fullscreenenter"",""5"",""22341""
","
","
","""event"",""trial"",""time""
""fullscreenenter"",""5"",""22341""
","
",998,NA,48,NA,NA,3000,1,NA,NA,images/purpleplanet.jpg,images/alien4,images/alien3,images/rocket2,images/alien4,images/nothing.png,2,real,true,2,common,0,2020-06-29T03:14:24Z,sub146
two-step-fixation,233,946816,0.0-76.0-2.32,FALSE,TRUE,FALSE,TRUE,"""event"",""trial"",""time""
""fullscreenenter"",""5"",""22341""
","
","
","""event"",""trial"",""time""
""fullscreenenter"",""5"",""22341""
","
",NA,images/earth.jpg,NA,NA,NA,NA,NA,NA,NA,NA,NA,NA,NA,NA,NA,fixation,NA,NA,NA,NA,NA,NA,sub146
d3-animate-choice,234,949889,0.0-76.0-0.33,FALSE,TRUE,FALSE,TRUE,"""event"",""trial"",""time""
""fullscreenenter"",""5"",""22341""
","
","
","""event"",""trial"",""time""
""fullscreenenter"",""5"",""22341""
","
",1071.0000000001164,NA,49,NA,NA,3000,1,NA,NA,images/earth.jpg,images/rocket1,images/rocket2,null,images/rocket2,NA,1,real,null,1,NA,NA,NA,sub146
d3-animate-choice,235,953271,0.0-76.0-1.33,FALSE,TRUE,FALSE,TRUE,"""event"",""trial"",""time""
""fullscreenenter"",""5"",""22341""
","
","
","""event"",""trial"",""time""
""fullscreenenter"",""5"",""22341""
","
",1379,NA,49,NA,NA,3000,1,NA,NA,images/redplanet1.jpg,images/alien2,images/alien1,images/rocket2,images/alien1,images/t.png,2,real,false,1,rare,1,2020-06-29T03:14:31Z,sub146
two-step-fixation,236,954275,0.0-76.0-2.33,FALSE,TRUE,FALSE,TRUE,"""event"",""trial"",""time""
""fullscreenenter"",""5"",""22341""
","
","
","""event"",""trial"",""time""
""fullscreenenter"",""5"",""22341""
","
",NA,images/earth.jpg,NA,NA,NA,NA,NA,NA,NA,NA,NA,NA,NA,NA,NA,fixation,NA,NA,NA,NA,NA,NA,sub146
d3-animate-choice,237,957304,0.0-76.0-0.34,FALSE,TRUE,FALSE,TRUE,"""event"",""trial"",""time""
""fullscreenenter"",""5"",""22341""
","
","
","""event"",""trial"",""time""
""fullscreenenter"",""5"",""22341""
","
",1024.9999999998836,NA,49,NA,NA,3000,1,NA,NA,images/earth.jpg,images/rocket1,images/rocket2,null,images/rocket2,NA,1,real,null,1,NA,NA,NA,sub146
d3-animate-choice,238,960019,0.0-76.0-1.34,FALSE,TRUE,FALSE,TRUE,"""event"",""trial"",""time""
""fullscreenenter"",""5"",""22341""
","
","
","""event"",""trial"",""time""
""fullscreenenter"",""5"",""22341""
","
",713.0000000001164,NA,48,NA,NA,3000,1,NA,NA,images/purpleplanet.jpg,images/alien4,images/alien3,images/rocket2,images/alien4,images/nothing.png,2,real,true,2,common,0,2020-06-29T03:14:38Z,sub146
two-step-fixation,239,961022,0.0-76.0-2.34,FALSE,TRUE,FALSE,TRUE,"""event"",""trial"",""time""
""fullscreenenter"",""5"",""22341""
","
","
","""event"",""trial"",""time""
""fullscreenenter"",""5"",""22341""
","
",NA,images/earth.jpg,NA,NA,NA,NA,NA,NA,NA,NA,NA,NA,NA,NA,NA,fixation,NA,NA,NA,NA,NA,NA,sub146
d3-animate-choice,240,963939,0.0-76.0-0.35,FALSE,TRUE,FALSE,TRUE,"""event"",""trial"",""time""
""fullscreenenter"",""5"",""22341""
","
","
","""event"",""trial"",""time""
""fullscreenenter"",""5"",""22341""
","
",914,NA,49,NA,NA,3000,1,NA,NA,images/earth.jpg,images/rocket1,images/rocket2,null,images/rocket2,NA,1,real,null,1,NA,NA,NA,sub146
d3-animate-choice,241,967472,0.0-76.0-1.35,FALSE,TRUE,FALSE,TRUE,"""event"",""trial"",""time""
""fullscreenenter"",""5"",""22341""
","
","
","""event"",""trial"",""time""
""fullscreenenter"",""5"",""22341""
","
",1530,NA,48,NA,NA,3000,1,NA,NA,images/redplanet1.jpg,images/alien2,images/alien1,images/rocket2,images/alien2,images/nothing.png,2,real,false,2,rare,0,2020-06-29T03:14:46Z,sub146
two-step-fixation,242,968474,0.0-76.0-2.35,FALSE,TRUE,FALSE,TRUE,"""event"",""trial"",""time""
""fullscreenenter"",""5"",""22341""
","
","
","""event"",""trial"",""time""
""fullscreenenter"",""5"",""22341""
","
",NA,images/earth.jpg,NA,NA,NA,NA,NA,NA,NA,NA,NA,NA,NA,NA,NA,fixation,NA,NA,NA,NA,NA,NA,sub146
d3-animate-choice,243,970785,0.0-76.0-0.36,FALSE,TRUE,FALSE,TRUE,"""event"",""trial"",""time""
""fullscreenenter"",""5"",""22341""
","
","
","""event"",""trial"",""time""
""fullscreenenter"",""5"",""22341""
","
",309,NA,49,NA,NA,3000,1,NA,NA,images/earth.jpg,images/rocket1,images/rocket2,null,images/rocket2,NA,1,real,null,1,NA,NA,NA,sub146
d3-animate-choice,244,973329,0.0-76.0-1.36,FALSE,TRUE,FALSE,TRUE,"""event"",""trial"",""time""
""fullscreenenter"",""5"",""22341""
","
","
","""event"",""trial"",""time""
""fullscreenenter"",""5"",""22341""
","
",540,NA,49,NA,NA,3000,1,NA,NA,images/purpleplanet.jpg,images/alien4,images/alien3,images/rocket2,images/alien3,images/t.png,2,real,true,1,common,1,2020-06-29T03:14:51Z,sub146
two-step-fixation,245,974331,0.0-76.0-2.36,FALSE,TRUE,FALSE,TRUE,"""event"",""trial"",""time""
""fullscreenenter"",""5"",""22341""
","
","
","""event"",""trial"",""time""
""fullscreenenter"",""5"",""22341""
","
",NA,images/earth.jpg,NA,NA,NA,NA,NA,NA,NA,NA,NA,NA,NA,NA,NA,fixation,NA,NA,NA,NA,NA,NA,sub146
d3-animate-choice,246,977909,0.0-76.0-0.37,FALSE,TRUE,FALSE,TRUE,"""event"",""trial"",""time""
""fullscreenenter"",""5"",""22341""
","
","
","""event"",""trial"",""time""
""fullscreenenter"",""5"",""22341""
","
",1575.0000000001164,NA,48,NA,NA,3000,1,NA,NA,images/earth.jpg,images/rocket1,images/rocket2,null,images/rocket1,NA,1,real,null,2,NA,NA,NA,sub146
d3-animate-choice,247,981916,0.0-76.0-1.37,FALSE,TRUE,FALSE,TRUE,"""event"",""trial"",""time""
""fullscreenenter"",""5"",""22341""
","
","
","""event"",""trial"",""time""
""fullscreenenter"",""5"",""22341""
","
",2861,NA,48,NA,NA,3000,1,NA,NA,images/redplanet1.jpg,images/alien2,images/alien1,images/rocket1,images/alien2,NA,2,real,true,2,common,0,2020-06-29T03:15:00Z,sub146
two-step-fixation,248,982919,0.0-76.0-2.37,FALSE,TRUE,FALSE,TRUE,"""event"",""trial"",""time""
""fullscreenenter"",""5"",""22341""
","
","
","""event"",""trial"",""time""
""fullscreenenter"",""5"",""22341""
","
",NA,images/earth.jpg,NA,NA,NA,NA,NA,NA,NA,NA,NA,NA,NA,NA,NA,fixation,NA,NA,NA,NA,NA,NA,sub146
d3-animate-choice,249,985863,0.0-76.0-0.38,FALSE,TRUE,FALSE,TRUE,"""event"",""trial"",""time""
""fullscreenenter"",""5"",""22341""
","
","
","""event"",""trial"",""time""
""fullscreenenter"",""5"",""22341""
","
",941,NA,49,NA,NA,3000,1,NA,NA,images/earth.jpg,images/rocket1,images/rocket2,null,images/rocket2,NA,1,real,null,1,NA,NA,NA,sub146
d3-animate-choice,250,989867,0.0-76.0-1.38,FALSE,TRUE,FALSE,TRUE,"""event"",""trial"",""time""
""fullscreenenter"",""5"",""22341""
","
","
","""event"",""trial"",""time""
""fullscreenenter"",""5"",""22341""
","
",2956.9999999998836,NA,48,NA,NA,3000,1,NA,NA,images/purpleplanet.jpg,images/alien4,images/alien3,images/rocket2,images/alien4,NA,2,real,true,2,common,0,2020-06-29T03:15:08Z,sub146
two-step-fixation,251,990870,0.0-76.0-2.38,FALSE,TRUE,FALSE,TRUE,"""event"",""trial"",""time""
""fullscreenenter"",""5"",""22341""
","
","
","""event"",""trial"",""time""
""fullscreenenter"",""5"",""22341""
","
",NA,images/earth.jpg,NA,NA,NA,NA,NA,NA,NA,NA,NA,NA,NA,NA,NA,fixation,NA,NA,NA,NA,NA,NA,sub146
d3-animate-choice,252,993624,0.0-76.0-0.39,FALSE,TRUE,FALSE,TRUE,"""event"",""trial"",""time""
""fullscreenenter"",""5"",""22341""
","
","
","""event"",""trial"",""time""
""fullscreenenter"",""5"",""22341""
","
",751,NA,49,NA,NA,3000,1,NA,NA,images/earth.jpg,images/rocket1,images/rocket2,null,images/rocket2,NA,1,real,null,1,NA,NA,NA,sub146
d3-animate-choice,253,996668,0.0-76.0-1.39,FALSE,TRUE,FALSE,TRUE,"""event"",""trial"",""time""
""fullscreenenter"",""5"",""22341""
","
","
","""event"",""trial"",""time""
""fullscreenenter"",""5"",""22341""
","
",1041,NA,49,NA,NA,3000,1,NA,NA,images/redplanet1.jpg,images/alien2,images/alien1,images/rocket2,images/alien1,images/t.png,2,real,false,1,rare,1,2020-06-29T03:15:15Z,sub146
two-step-fixation,254,997670,0.0-76.0-2.39,FALSE,TRUE,FALSE,TRUE,"""event"",""trial"",""time""
""fullscreenenter"",""5"",""22341""
","
","
","""event"",""trial"",""time""
""fullscreenenter"",""5"",""22341""
","
",NA,images/earth.jpg,NA,NA,NA,NA,NA,NA,NA,NA,NA,NA,NA,NA,NA,fixation,NA,NA,NA,NA,NA,NA,sub146
d3-animate-choice,255,1000199,0.0-76.0-0.40,FALSE,TRUE,FALSE,TRUE,"""event"",""trial"",""time""
""fullscreenenter"",""5"",""22341""
","
","
","""event"",""trial"",""time""
""fullscreenenter"",""5"",""22341""
","
",527,NA,49,NA,NA,3000,1,1470,49,images/earth.jpg,images/rocket1,images/rocket2,null,images/rocket2,NA,1,real,null,1,NA,NA,NA,sub146
d3-animate-choice,256,1002827,0.0-76.0-1.40,FALSE,TRUE,FALSE,TRUE,"""event"",""trial"",""time""
""fullscreenenter"",""5"",""22341""
","
","
","""event"",""trial"",""time""
""fullscreenenter"",""5"",""22341""
","
",625,NA,49,NA,NA,3000,1,NA,NA,images/redplanet1.jpg,images/alien2,images/alien1,images/rocket2,images/alien1,images/nothing.png,2,real,false,1,rare,0,2020-06-29T03:15:21Z,sub146
two-step-fixation,257,1003830,0.0-76.0-2.40,FALSE,TRUE,FALSE,TRUE,"""event"",""trial"",""time""
""fullscreenenter"",""5"",""22341""
","
","
","""event"",""trial"",""time""
""fullscreenenter"",""5"",""22341""
","
",NA,images/earth.jpg,NA,NA,NA,NA,NA,NA,NA,NA,NA,NA,NA,NA,NA,fixation,NA,NA,NA,NA,NA,NA,sub146
d3-animate-choice,258,1006406,0.0-76.0-0.41,FALSE,TRUE,FALSE,TRUE,"""event"",""trial"",""time""
""fullscreenenter"",""5"",""22341""
","
","
","""event"",""trial"",""time""
""fullscreenenter"",""5"",""22341""
","
",570.0000000001164,NA,49,NA,NA,3000,1,NA,NA,images/earth.jpg,images/rocket1,images/rocket2,null,images/rocket2,NA,1,real,null,1,NA,NA,NA,sub146
d3-animate-choice,259,1009407,0.0-76.0-1.41,FALSE,TRUE,FALSE,TRUE,"""event"",""trial"",""time""
""fullscreenenter"",""5"",""22341""
","
","
","""event"",""trial"",""time""
""fullscreenenter"",""5"",""22341""
","
",996.9999999998836,NA,48,NA,NA,3000,1,NA,NA,images/purpleplanet.jpg,images/alien4,images/alien3,images/rocket2,images/alien4,images/t.png,2,real,true,2,common,1,2020-06-29T03:15:27Z,sub146
two-step-fixation,260,1010410,0.0-76.0-2.41,FALSE,TRUE,FALSE,TRUE,"""event"",""trial"",""time""
""fullscreenenter"",""5"",""22341""
","
","
","""event"",""trial"",""time""
""fullscreenenter"",""5"",""22341""
","
",NA,images/earth.jpg,NA,NA,NA,NA,NA,NA,NA,NA,NA,NA,NA,NA,NA,fixation,NA,NA,NA,NA,NA,NA,sub146
d3-animate-choice,261,1013010,0.0-76.0-0.42,FALSE,TRUE,FALSE,TRUE,"""event"",""trial"",""time""
""fullscreenenter"",""5"",""22341""
","
","
","""event"",""trial"",""time""
""fullscreenenter"",""5"",""22341""
","
",598,NA,49,NA,NA,3000,1,NA,NA,images/earth.jpg,images/rocket1,images/rocket2,null,images/rocket2,NA,1,real,null,1,NA,NA,NA,sub146
d3-animate-choice,262,1015432,0.0-76.0-1.42,FALSE,TRUE,FALSE,TRUE,"""event"",""trial"",""time""
""fullscreenenter"",""5"",""22341""
","
","
","""event"",""trial"",""time""
""fullscreenenter"",""5"",""22341""
","
",418.9999999998836,NA,48,NA,NA,3000,1,NA,NA,images/purpleplanet.jpg,images/alien4,images/alien3,images/rocket2,images/alien4,images/t.png,2,real,true,2,common,1,2020-06-29T03:15:33Z,sub146
two-step-fixation,263,1016435,0.0-76.0-2.42,FALSE,TRUE,FALSE,TRUE,"""event"",""trial"",""time""
""fullscreenenter"",""5"",""22341""
","
","
","""event"",""trial"",""time""
""fullscreenenter"",""5"",""22341""
","
",NA,images/earth.jpg,NA,NA,NA,NA,NA,NA,NA,NA,NA,NA,NA,NA,NA,fixation,NA,NA,NA,NA,NA,NA,sub146
d3-animate-choice,264,1018957,0.0-76.0-0.43,FALSE,TRUE,FALSE,TRUE,"""event"",""trial"",""time""
""fullscreenenter"",""5"",""22341""
","
","
","""event"",""trial"",""time""
""fullscreenenter"",""5"",""22341""
","
",518,NA,48,NA,NA,3000,1,NA,NA,images/earth.jpg,images/rocket1,images/rocket2,null,images/rocket1,NA,1,real,null,2,NA,NA,NA,sub146
d3-animate-choice,265,1021961,0.0-76.0-1.43,FALSE,TRUE,FALSE,TRUE,"""event"",""trial"",""time""
""fullscreenenter"",""5"",""22341""
","
","
","""event"",""trial"",""time""
""fullscreenenter"",""5"",""22341""
","
",1001,NA,49,NA,NA,3000,1,NA,NA,images/redplanet1.jpg,images/alien2,images/alien1,images/rocket1,images/alien1,images/t.png,2,real,true,1,common,1,2020-06-29T03:15:40Z,sub146
two-step-fixation,266,1022963,0.0-76.0-2.43,FALSE,TRUE,FALSE,TRUE,"""event"",""trial"",""time""
""fullscreenenter"",""5"",""22341""
","
","
","""event"",""trial"",""time""
""fullscreenenter"",""5"",""22341""
","
",NA,images/earth.jpg,NA,NA,NA,NA,NA,NA,NA,NA,NA,NA,NA,NA,NA,fixation,NA,NA,NA,NA,NA,NA,sub146
d3-animate-choice,267,1025493,0.0-76.0-0.44,FALSE,TRUE,FALSE,TRUE,"""event"",""trial"",""time""
""fullscreenenter"",""5"",""22341""
","
","
","""event"",""trial"",""time""
""fullscreenenter"",""5"",""22341""
","
",526.9999999997672,NA,48,NA,NA,3000,1,NA,NA,images/earth.jpg,images/rocket1,images/rocket2,null,images/rocket1,NA,1,real,null,2,NA,NA,NA,sub146
d3-animate-choice,268,1028257,0.0-76.0-1.44,FALSE,TRUE,FALSE,TRUE,"""event"",""trial"",""time""
""fullscreenenter"",""5"",""22341""
","
","
","""event"",""trial"",""time""
""fullscreenenter"",""5"",""22341""
","
",759,NA,49,NA,NA,3000,1,NA,NA,images/redplanet1.jpg,images/alien2,images/alien1,images/rocket1,images/alien1,images/t.png,2,real,true,1,common,1,2020-06-29T03:15:46Z,sub146
two-step-fixation,269,1029261,0.0-76.0-2.44,FALSE,TRUE,FALSE,TRUE,"""event"",""trial"",""time""
""fullscreenenter"",""5"",""22341""
","
","
","""event"",""trial"",""time""
""fullscreenenter"",""5"",""22341""
","
",NA,images/earth.jpg,NA,NA,NA,NA,NA,NA,NA,NA,NA,NA,NA,NA,NA,fixation,NA,NA,NA,NA,NA,NA,sub146
d3-animate-choice,270,1031603,0.0-76.0-0.45,FALSE,TRUE,FALSE,TRUE,"""event"",""trial"",""time""
""fullscreenenter"",""5"",""22341""
","
","
","""event"",""trial"",""time""
""fullscreenenter"",""5"",""22341""
","
",338.9999999998836,NA,48,NA,NA,3000,1,NA,NA,images/earth.jpg,images/rocket1,images/rocket2,null,images/rocket1,NA,1,real,null,2,NA,NA,NA,sub146
d3-animate-choice,271,1034515,0.0-76.0-1.45,FALSE,TRUE,FALSE,TRUE,"""event"",""trial"",""time""
""fullscreenenter"",""5"",""22341""
","
","
","""event"",""trial"",""time""
""fullscreenenter"",""5"",""22341""
","
",910.0000000001164,NA,48,NA,NA,3000,1,1010,79,images/purpleplanet.jpg,images/alien4,images/alien3,images/rocket1,images/alien4,images/t.png,2,real,false,2,rare,1,2020-06-29T03:15:53Z,sub146
two-step-fixation,272,1035517,0.0-76.0-2.45,FALSE,TRUE,FALSE,TRUE,"""event"",""trial"",""time""
""fullscreenenter"",""5"",""22341""
","
","
","""event"",""trial"",""time""
""fullscreenenter"",""5"",""22341""
","
",NA,images/earth.jpg,NA,NA,NA,NA,NA,NA,NA,NA,NA,NA,NA,NA,NA,fixation,NA,NA,NA,NA,NA,NA,sub146
d3-animate-choice,273,1037967,0.0-76.0-0.46,FALSE,TRUE,FALSE,TRUE,"""event"",""trial"",""time""
""fullscreenenter"",""5"",""22341""
","
","
","""event"",""trial"",""time""
""fullscreenenter"",""5"",""22341""
","
",448,NA,48,NA,NA,3000,1,NA,NA,images/earth.jpg,images/rocket1,images/rocket2,null,images/rocket1,NA,1,real,null,2,NA,NA,NA,sub146
d3-animate-choice,274,1040680,0.0-76.0-1.46,FALSE,TRUE,FALSE,TRUE,"""event"",""trial"",""time""
""fullscreenenter"",""5"",""22341""
","
","
","""event"",""trial"",""time""
""fullscreenenter"",""5"",""22341""
","
",710,NA,48,NA,NA,3000,1,NA,NA,images/purpleplanet.jpg,images/alien4,images/alien3,images/rocket1,images/alien4,images/nothing.png,2,real,false,2,rare,0,2020-06-29T03:15:59Z,sub146
two-step-fixation,275,1041681,0.0-76.0-2.46,FALSE,TRUE,FALSE,TRUE,"""event"",""trial"",""time""
""fullscreenenter"",""5"",""22341""
","
","
","""event"",""trial"",""time""
""fullscreenenter"",""5"",""22341""
","
",NA,images/earth.jpg,NA,NA,NA,NA,NA,NA,NA,NA,NA,NA,NA,NA,NA,fixation,NA,NA,NA,NA,NA,NA,sub146
d3-animate-choice,276,1043706,0.0-76.0-0.47,FALSE,TRUE,FALSE,TRUE,"""event"",""trial"",""time""
""fullscreenenter"",""5"",""22341""
","
","
","""event"",""trial"",""time""
""fullscreenenter"",""5"",""22341""
","
",21.00000000023283,NA,48,NA,NA,3000,1,NA,NA,images/earth.jpg,images/rocket1,images/rocket2,null,images/rocket1,NA,1,real,null,2,NA,NA,NA,sub146
d3-animate-choice,277,1046169,0.0-76.0-1.47,FALSE,TRUE,FALSE,TRUE,"""event"",""trial"",""time""
""fullscreenenter"",""5"",""22341""
","
","
","""event"",""trial"",""time""
""fullscreenenter"",""5"",""22341""
","
",459,NA,49,NA,NA,3000,1,NA,NA,images/redplanet1.jpg,images/alien2,images/alien1,images/rocket1,images/alien1,images/t.png,2,real,true,1,common,1,2020-06-29T03:16:04Z,sub146
two-step-fixation,278,1047170,0.0-76.0-2.47,FALSE,TRUE,FALSE,TRUE,"""event"",""trial"",""time""
""fullscreenenter"",""5"",""22341""
","
","
","""event"",""trial"",""time""
""fullscreenenter"",""5"",""22341""
","
",NA,images/earth.jpg,NA,NA,NA,NA,NA,NA,NA,NA,NA,NA,NA,NA,NA,fixation,NA,NA,NA,NA,NA,NA,sub146
d3-animate-choice,279,1049842,0.0-76.0-0.48,FALSE,TRUE,FALSE,TRUE,"""event"",""trial"",""time""
""fullscreenenter"",""5"",""22341""
","
","
","""event"",""trial"",""time""
""fullscreenenter"",""5"",""22341""
","
",669,NA,48,NA,NA,3000,1,NA,NA,images/earth.jpg,images/rocket1,images/rocket2,null,images/rocket1,NA,1,real,null,2,NA,NA,NA,sub146
d3-animate-choice,280,1053474,0.0-76.0-1.48,FALSE,TRUE,FALSE,TRUE,"""event"",""trial"",""time""
""fullscreenenter"",""5"",""22341""
","
","
","""event"",""trial"",""time""
""fullscreenenter"",""5"",""22341""
","
",1308,NA,50,NA,NA,3000,1,1629,49,images/purpleplanet.jpg,images/alien4,images/alien3,images/rocket1,images/alien3,images/nothing.png,2,real,false,NA,rare,0,2020-06-29T03:16:12Z,sub146
two-step-fixation,281,1054477,0.0-76.0-2.48,FALSE,TRUE,FALSE,TRUE,"""event"",""trial"",""time""
""fullscreenenter"",""5"",""22341""
","
","
","""event"",""trial"",""time""
""fullscreenenter"",""5"",""22341""
","
",NA,images/earth.jpg,NA,NA,NA,NA,NA,NA,NA,NA,NA,NA,NA,NA,NA,fixation,NA,NA,NA,NA,NA,NA,sub146
d3-animate-choice,282,1057003,0.0-76.0-0.49,FALSE,TRUE,FALSE,TRUE,"""event"",""trial"",""time""
""fullscreenenter"",""5"",""22341""
","
","
","""event"",""trial"",""time""
""fullscreenenter"",""5"",""22341""
","
",522,NA,48,NA,NA,3000,1,NA,NA,images/earth.jpg,images/rocket1,images/rocket2,null,images/rocket1,NA,1,real,null,2,NA,NA,NA,sub146
d3-animate-choice,283,1059501,0.0-76.0-1.49,FALSE,TRUE,FALSE,TRUE,"""event"",""trial"",""time""
""fullscreenenter"",""5"",""22341""
","
","
","""event"",""trial"",""time""
""fullscreenenter"",""5"",""22341""
","
",495,NA,48,NA,NA,3000,1,NA,NA,images/redplanet1.jpg,images/alien2,images/alien1,images/rocket1,images/alien2,images/nothing.png,2,real,true,2,common,0,2020-06-29T03:16:18Z,sub146
two-step-fixation,284,1060504,0.0-76.0-2.49,FALSE,TRUE,FALSE,TRUE,"""event"",""trial"",""time""
""fullscreenenter"",""5"",""22341""
","
","
","""event"",""trial"",""time""
""fullscreenenter"",""5"",""22341""
","
",NA,images/earth.jpg,NA,NA,NA,NA,NA,NA,NA,NA,NA,NA,NA,NA,NA,fixation,NA,NA,NA,NA,NA,NA,sub146
audio-button-response-2,285,1070417,0.0-77.0,FALSE,TRUE,FALSE,TRUE,"""event"",""trial"",""time""
""fullscreenenter"",""5"",""22341""
","
","
","""event"",""trial"",""time""
""fullscreenenter"",""5"",""22341""
","
",9912,audio/instructions/break_1.wav,NA,0,NA,NA,NA,NA,NA,NA,NA,NA,NA,NA,NA,NA,NA,NA,NA,NA,NA,NA,sub146
d3-animate-choice,286,1074422,0.0-78.0-0.0,FALSE,TRUE,FALSE,TRUE,"""event"",""trial"",""time""
""fullscreenenter"",""5"",""22341""
","
","
","""event"",""trial"",""time""
""fullscreenenter"",""5"",""22341""
","
",2388,NA,48,NA,NA,3000,1,NA,NA,images/earth.jpg,images/rocket1,images/rocket2,null,images/rocket1,NA,1,real,null,2,NA,NA,NA,sub146
d3-animate-choice,287,1076779,0.0-78.0-1.0,FALSE,TRUE,FALSE,TRUE,"""event"",""trial"",""time""
""fullscreenenter"",""5"",""22341""
","
","
","""event"",""trial"",""time""
""fullscreenenter"",""5"",""22341""
","
",355,NA,49,NA,NA,3000,1,NA,NA,images/redplanet1.jpg,images/alien2,images/alien1,images/rocket1,images/alien1,images/nothing.png,2,real,true,1,common,0,2020-06-29T03:16:35Z,sub146
two-step-fixation,288,1077781,0.0-78.0-2.0,FALSE,TRUE,FALSE,TRUE,"""event"",""trial"",""time""
