trial_type,trial_index,time_elapsed,internal_node_id,rocket_sides,red_planet_first_rocket,red_display_order,purple_display_order,interactions,blur_events,focus_events,fullscreenenter_events,fullscreenexit_events,rt,stimulus,key_press,button_pressed,success,duration,valid_pressed,rts,keys,planet_text,right_text,left_text,center_text,chosen_text,reward_text,trial_stage,practice_trial,transition_type,choice,transition,reward,timestamp,subject_id
pavlovia,0,14,0.0-0.0,TRUE,TRUE,FALSE,TRUE,"
","
","
","
","
",NA,NA,NA,NA,NA,NA,NA,NA,NA,NA,NA,NA,NA,NA,NA,NA,NA,NA,NA,NA,NA,NA,sub45
html-keyboard-response,1,2956,0.0-1.0,TRUE,TRUE,FALSE,TRUE,"
","
","
","
","
",2935.7249999884516,Welcome! Press the space bar to begin.,32,NA,NA,NA,NA,NA,NA,NA,NA,NA,NA,NA,NA,NA,NA,NA,NA,NA,NA,NA,sub45
audio-keyboard-response,2,4463,0.0-2.0,TRUE,TRUE,FALSE,TRUE,"
","
","
","
","
",0,audio/beep_loop.wav,32,NA,NA,NA,NA,NA,NA,NA,NA,NA,NA,NA,NA,NA,NA,NA,NA,NA,NA,NA,sub45
audio-button-response,3,6197,0.0-3.0,TRUE,TRUE,FALSE,TRUE,"
","
","
","
","
",NaN,audio/fish.mp3,NA,1,NA,NA,NA,NA,NA,NA,NA,NA,NA,NA,NA,NA,NA,NA,NA,NA,NA,NA,sub45
audio-button-response,4,8623,0.0-4.0,TRUE,TRUE,FALSE,TRUE,"""event"",""trial"",""time""
""fullscreenenter"",""5"",""14932""
","
","
","""event"",""trial"",""time""
""fullscreenenter"",""5"",""14932""
","
",NaN,audio/tiger.mp3,NA,4,NA,NA,NA,NA,NA,NA,NA,NA,NA,NA,NA,NA,NA,NA,NA,NA,NA,NA,sub45
fullscreen,5,15759,0.0-5.0,TRUE,TRUE,FALSE,TRUE,"""event"",""trial"",""time""
""fullscreenenter"",""5"",""14932""
","
","
","""event"",""trial"",""time""
""fullscreenenter"",""5"",""14932""
","
",NA,NA,NA,NA,TRUE,NA,NA,NA,NA,NA,NA,NA,NA,NA,NA,NA,NA,NA,NA,NA,NA,NA,sub45
d3-instructions,6,29081,0.0-6.0,TRUE,TRUE,FALSE,TRUE,"""event"",""trial"",""time""
""fullscreenenter"",""5"",""14932""
","
","
","""event"",""trial"",""time""
""fullscreenenter"",""5"",""14932""
","
",NA,NA,NA,NA,NA,NA,NA,NA,NA,NA,NA,NA,NA,NA,NA,NA,NA,NA,NA,NA,NA,NA,sub45
d3-instructions,7,36564,0.0-7.0,TRUE,TRUE,FALSE,TRUE,"""event"",""trial"",""time""
""fullscreenenter"",""5"",""14932""
","
","
","""event"",""trial"",""time""
""fullscreenenter"",""5"",""14932""
","
",NA,NA,NA,NA,NA,NA,NA,NA,NA,NA,NA,NA,NA,NA,NA,NA,NA,NA,NA,NA,NA,NA,sub45
d3-instructions,8,44224,0.0-8.0,TRUE,TRUE,FALSE,TRUE,"""event"",""trial"",""time""
""fullscreenenter"",""5"",""14932""
","
","
","""event"",""trial"",""time""
""fullscreenenter"",""5"",""14932""
","
",NA,NA,NA,NA,NA,NA,NA,NA,NA,NA,NA,NA,NA,NA,NA,NA,NA,NA,NA,NA,NA,NA,sub45
d3-instructions,9,57605,0.0-9.0,TRUE,TRUE,FALSE,TRUE,"""event"",""trial"",""time""
""fullscreenenter"",""5"",""14932""
","
","
","""event"",""trial"",""time""
""fullscreenenter"",""5"",""14932""
","
",NA,NA,NA,NA,NA,NA,NA,NA,NA,NA,NA,NA,NA,NA,NA,NA,NA,NA,NA,NA,NA,NA,sub45
d3-instructions,10,77912,0.0-10.0,TRUE,TRUE,FALSE,TRUE,"""event"",""trial"",""time""
""fullscreenenter"",""5"",""14932""
","
","
","""event"",""trial"",""time""
""fullscreenenter"",""5"",""14932""
","
",NA,NA,NA,NA,NA,NA,NA,NA,NA,NA,NA,NA,NA,NA,NA,NA,NA,NA,NA,NA,NA,NA,sub45
d3-animate-choice,11,81671,0.0-11.0,TRUE,TRUE,FALSE,TRUE,"""event"",""trial"",""time""
""fullscreenenter"",""5"",""14932""
","
","
","""event"",""trial"",""time""
""fullscreenenter"",""5"",""14932""
","
",1728.174999996554,NA,49,NA,NA,3000,1,3333.9400000404567,48,images/tutgreenplanet.jpg,images/tutalien1,images/tutalien2,null,images/tutalien2,NA,NA,practice,null,NA,NA,NA,NA,sub45
d3-animate-choice,12,84759,0.0-12.0,TRUE,TRUE,FALSE,TRUE,"""event"",""trial"",""time""
""fullscreenenter"",""5"",""14932""
","
","
","""event"",""trial"",""time""
""fullscreenenter"",""5"",""14932""
","
",1062.8699999651872,NA,48,NA,NA,3000,1,NA,NA,images/tutgreenplanet.jpg,images/tutalien1,images/tutalien2,null,images/tutalien1,NA,NA,practice,null,NA,NA,NA,NA,sub45
d3-animate-choice,13,88639,0.0-13.0,TRUE,TRUE,FALSE,TRUE,"""event"",""trial"",""time""
""fullscreenenter"",""5"",""14932""
","
","
","""event"",""trial"",""time""
""fullscreenenter"",""5"",""14932""
","
",313.72500001452863,NA,81,NA,NA,3000,1,1869.1550000221469,49,images/tutgreenplanet.jpg,images/tutalien1,images/tutalien2,null,images/tutalien2,NA,NA,practice,null,NA,NA,NA,NA,sub45
d3-animate-choice,14,91919,0.0-14.0,TRUE,TRUE,FALSE,TRUE,"""event"",""trial"",""time""
""fullscreenenter"",""5"",""14932""
","
","
","""event"",""trial"",""time""
""fullscreenenter"",""5"",""14932""
","
",1266.3349999929778,NA,48,NA,NA,3000,1,NA,NA,images/tutgreenplanet.jpg,images/tutalien1,images/tutalien2,null,images/tutalien1,NA,NA,practice,null,NA,NA,NA,NA,sub45
d3-instructions,15,99878,0.0-15.0,TRUE,TRUE,FALSE,TRUE,"""event"",""trial"",""time""
""fullscreenenter"",""5"",""14932""
","
","
","""event"",""trial"",""time""
""fullscreenenter"",""5"",""14932""
","
",NA,NA,NA,NA,NA,NA,NA,NA,NA,NA,NA,NA,NA,NA,NA,NA,NA,NA,NA,NA,NA,NA,sub45
d3-instructions,16,107481,0.0-16.0,TRUE,TRUE,FALSE,TRUE,"""event"",""trial"",""time""
""fullscreenenter"",""5"",""14932""
","
","
","""event"",""trial"",""time""
""fullscreenenter"",""5"",""14932""
","
",NA,NA,NA,NA,NA,NA,NA,NA,NA,NA,NA,NA,NA,NA,NA,NA,NA,NA,NA,NA,NA,NA,sub45
d3-instructions,17,117156,0.0-17.0,TRUE,TRUE,FALSE,TRUE,"""event"",""trial"",""time""
""fullscreenenter"",""5"",""14932""
","
","
","""event"",""trial"",""time""
""fullscreenenter"",""5"",""14932""
","
",NA,NA,NA,NA,NA,NA,NA,NA,NA,NA,NA,NA,NA,NA,NA,NA,NA,NA,NA,NA,NA,NA,sub45
d3-instructions,18,132514,0.0-18.0,TRUE,TRUE,FALSE,TRUE,"""event"",""trial"",""time""
""fullscreenenter"",""5"",""14932""
","
","
","""event"",""trial"",""time""
""fullscreenenter"",""5"",""14932""
","
",NA,NA,NA,NA,NA,NA,NA,NA,NA,NA,NA,NA,NA,NA,NA,NA,NA,NA,NA,NA,NA,NA,sub45
d3-instructions,19,148552,0.0-19.0,TRUE,TRUE,FALSE,TRUE,"""event"",""trial"",""time""
""fullscreenenter"",""5"",""14932""
","
","
","""event"",""trial"",""time""
""fullscreenenter"",""5"",""14932""
","
",NA,NA,NA,NA,NA,NA,NA,NA,NA,NA,NA,NA,NA,NA,NA,NA,NA,NA,NA,NA,NA,NA,sub45
d3-animate-choice,20,151426,0.0-20.0,TRUE,TRUE,FALSE,TRUE,"""event"",""trial"",""time""
""fullscreenenter"",""5"",""14932""
","
","
","""event"",""trial"",""time""
""fullscreenenter"",""5"",""14932""
","
",862.8899999894202,NA,49,NA,NA,3000,1,2341.6100000031292,49,images/tutyellowplanet.jpg,null,images/tutalien3,null,images/tutalien3,images/t.png,NA,practice,null,NA,NA,NA,NA,sub45
d3-animate-choice,21,154085,0.0-21.0,TRUE,TRUE,FALSE,TRUE,"""event"",""trial"",""time""
""fullscreenenter"",""5"",""14932""
","
","
","""event"",""trial"",""time""
""fullscreenenter"",""5"",""14932""
","
",645.4350000130944,NA,49,NA,NA,3000,1,NA,NA,images/tutyellowplanet.jpg,null,images/tutalien3,null,images/tutalien3,images/t.png,NA,practice,null,NA,NA,NA,NA,sub45
d3-animate-choice,22,156408,0.0-22.0,TRUE,TRUE,FALSE,TRUE,"""event"",""trial"",""time""
""fullscreenenter"",""5"",""14932""
","
","
","""event"",""trial"",""time""
""fullscreenenter"",""5"",""14932""
","
",305.9050000156276,NA,49,NA,NA,3000,1,NA,NA,images/tutyellowplanet.jpg,null,images/tutalien3,null,images/tutalien3,images/t.png,NA,practice,null,NA,NA,NA,NA,sub45
d3-animate-choice,23,158715,0.0-23.0,TRUE,TRUE,FALSE,TRUE,"""event"",""trial"",""time""
""fullscreenenter"",""5"",""14932""
","
","
","""event"",""trial"",""time""
""fullscreenenter"",""5"",""14932""
","
",296.1749999667518,NA,49,NA,NA,3000,1,NA,NA,images/tutyellowplanet.jpg,null,images/tutalien3,null,images/tutalien3,images/t.png,NA,practice,null,NA,NA,NA,NA,sub45
d3-animate-choice,24,161036,0.0-24.0,TRUE,TRUE,FALSE,TRUE,"""event"",""trial"",""time""
""fullscreenenter"",""5"",""14932""
","
","
","""event"",""trial"",""time""
""fullscreenenter"",""5"",""14932""
","
",311.06500001624227,NA,49,NA,NA,3000,1,NA,NA,images/tutyellowplanet.jpg,null,images/tutalien3,null,images/tutalien3,images/t.png,NA,practice,null,NA,NA,NA,NA,sub45
d3-animate-choice,25,163466,0.0-25.0,TRUE,TRUE,FALSE,TRUE,"""event"",""trial"",""time""
""fullscreenenter"",""5"",""14932""
","
","
","""event"",""trial"",""time""
""fullscreenenter"",""5"",""14932""
","
",423.5899999621324,NA,49,NA,NA,3000,1,1910.9549999702722,49,images/tutyellowplanet.jpg,null,images/tutalien3,null,images/tutalien3,images/t.png,NA,practice,null,NA,NA,NA,NA,sub45
d3-animate-choice,26,166097,0.0-26.0,TRUE,TRUE,FALSE,TRUE,"""event"",""trial"",""time""
""fullscreenenter"",""5"",""14932""
","
","
","""event"",""trial"",""time""
""fullscreenenter"",""5"",""14932""
","
",605.8099999791011,NA,49,NA,NA,3000,1,NA,NA,images/tutyellowplanet.jpg,null,images/tutalien3,null,images/tutalien3,images/t.png,NA,practice,null,NA,NA,NA,NA,sub45
d3-animate-choice,27,168696,0.0-27.0,TRUE,TRUE,FALSE,TRUE,"""event"",""trial"",""time""
""fullscreenenter"",""5"",""14932""
","
","
","""event"",""trial"",""time""
""fullscreenenter"",""5"",""14932""
","
",574.689999979455,NA,49,NA,NA,3000,1,NA,NA,images/tutyellowplanet.jpg,null,images/tutalien3,null,images/tutalien3,images/t.png,NA,practice,null,NA,NA,NA,NA,sub45
d3-animate-choice,28,171106,0.0-28.0,TRUE,TRUE,FALSE,TRUE,"""event"",""trial"",""time""
""fullscreenenter"",""5"",""14932""
","
","
","""event"",""trial"",""time""
""fullscreenenter"",""5"",""14932""
","
",401.22499997960404,NA,49,NA,NA,3000,1,NA,NA,images/tutyellowplanet.jpg,null,images/tutalien3,null,images/tutalien3,images/t.png,NA,practice,null,NA,NA,NA,NA,sub45
d3-animate-choice,29,173457,0.0-29.0,TRUE,TRUE,FALSE,TRUE,"""event"",""trial"",""time""
""fullscreenenter"",""5"",""14932""
","
","
","""event"",""trial"",""time""
""fullscreenenter"",""5"",""14932""
","
",333.7900000042282,NA,49,NA,NA,3000,1,NA,NA,images/tutyellowplanet.jpg,null,images/tutalien3,null,images/tutalien3,images/t.png,NA,practice,null,NA,NA,NA,NA,sub45
d3-instructions,30,182171,0.0-30.0,TRUE,TRUE,FALSE,TRUE,"""event"",""trial"",""time""
""fullscreenenter"",""5"",""14932""
","
","
","""event"",""trial"",""time""
""fullscreenenter"",""5"",""14932""
","
",NA,NA,NA,NA,NA,NA,NA,NA,NA,NA,NA,NA,NA,NA,NA,NA,NA,NA,NA,NA,NA,NA,sub45
d3-instructions,31,193988,0.0-31.0,TRUE,TRUE,FALSE,TRUE,"""event"",""trial"",""time""
""fullscreenenter"",""5"",""14932""
","
","
","""event"",""trial"",""time""
""fullscreenenter"",""5"",""14932""
","
",NA,NA,NA,NA,NA,NA,NA,NA,NA,NA,NA,NA,NA,NA,NA,NA,NA,NA,NA,NA,NA,NA,sub45
d3-instructions,32,202031,0.0-32.0,TRUE,TRUE,FALSE,TRUE,"""event"",""trial"",""time""
""fullscreenenter"",""5"",""14932""
","
","
","""event"",""trial"",""time""
""fullscreenenter"",""5"",""14932""
","
",NA,NA,NA,NA,NA,NA,NA,NA,NA,NA,NA,NA,NA,NA,NA,NA,NA,NA,NA,NA,NA,NA,sub45
d3-instructions,33,213230,0.0-33.0,TRUE,TRUE,FALSE,TRUE,"""event"",""trial"",""time""
""fullscreenenter"",""5"",""14932""
","
","
","""event"",""trial"",""time""
""fullscreenenter"",""5"",""14932""
","
",NA,NA,NA,NA,NA,NA,NA,NA,NA,NA,NA,NA,NA,NA,NA,NA,NA,NA,NA,NA,NA,NA,sub45
d3-animate-choice,34,216510,0.0-34.0,TRUE,TRUE,FALSE,TRUE,"""event"",""trial"",""time""
""fullscreenenter"",""5"",""14932""
","
","
","""event"",""trial"",""time""
""fullscreenenter"",""5"",""14932""
","
",1267.935000010766,NA,49,NA,NA,3000,1,NA,NA,images/tutgreenplanet.jpg,images/tutalien1,images/tutalien2,null,images/tutalien2,images/t.png,NA,practice,null,NA,NA,NA,NA,sub45
d3-animate-choice,35,218929,0.0-35.0,TRUE,TRUE,FALSE,TRUE,"""event"",""trial"",""time""
""fullscreenenter"",""5"",""14932""
","
","
","""event"",""trial"",""time""
""fullscreenenter"",""5"",""14932""
","
",405.23999999277294,NA,49,NA,NA,3000,1,NA,NA,images/tutgreenplanet.jpg,images/tutalien1,images/tutalien2,null,images/tutalien2,images/t.png,NA,practice,null,NA,NA,NA,NA,sub45
d3-animate-choice,36,221280,0.0-36.0,TRUE,TRUE,FALSE,TRUE,"""event"",""trial"",""time""
""fullscreenenter"",""5"",""14932""
","
","
","""event"",""trial"",""time""
""fullscreenenter"",""5"",""14932""
","
",330.3600000217557,NA,49,NA,NA,3000,1,NA,NA,images/tutgreenplanet.jpg,images/tutalien1,images/tutalien2,null,images/tutalien2,images/t.png,NA,practice,null,NA,NA,NA,NA,sub45
d3-animate-choice,37,223809,0.0-37.0,TRUE,TRUE,FALSE,TRUE,"""event"",""trial"",""time""
""fullscreenenter"",""5"",""14932""
","
","
","""event"",""trial"",""time""
""fullscreenenter"",""5"",""14932""
","
",515.6100000021979,NA,49,NA,NA,3000,1,NA,NA,images/tutgreenplanet.jpg,images/tutalien1,images/tutalien2,null,images/tutalien2,images/t.png,NA,practice,null,NA,NA,NA,NA,sub45
d3-animate-choice,38,226109,0.0-38.0,TRUE,TRUE,FALSE,TRUE,"""event"",""trial"",""time""
""fullscreenenter"",""5"",""14932""
","
","
","""event"",""trial"",""time""
""fullscreenenter"",""5"",""14932""
","
",276.2549999752082,NA,48,NA,NA,3000,1,NA,NA,images/tutgreenplanet.jpg,images/tutalien1,images/tutalien2,null,images/tutalien1,images/nothing.png,NA,practice,null,NA,NA,NA,NA,sub45
d3-animate-choice,39,228439,0.0-39.0,TRUE,TRUE,FALSE,TRUE,"""event"",""trial"",""time""
""fullscreenenter"",""5"",""14932""
","
","
","""event"",""trial"",""time""
""fullscreenenter"",""5"",""14932""
","
",307.26999999023974,NA,48,NA,NA,3000,1,NA,NA,images/tutgreenplanet.jpg,images/tutalien1,images/tutalien2,null,images/tutalien1,images/t.png,NA,practice,null,NA,NA,NA,NA,sub45
d3-animate-choice,40,230799,0.0-40.0,TRUE,TRUE,FALSE,TRUE,"""event"",""trial"",""time""
""fullscreenenter"",""5"",""14932""
","
","
","""event"",""trial"",""time""
""fullscreenenter"",""5"",""14932""
","
",342.8800000110641,NA,48,NA,NA,3000,1,NA,NA,images/tutgreenplanet.jpg,images/tutalien1,images/tutalien2,null,images/tutalien1,images/nothing.png,NA,practice,null,NA,NA,NA,NA,sub45
d3-animate-choice,41,233135,0.0-41.0,TRUE,TRUE,FALSE,TRUE,"""event"",""trial"",""time""
""fullscreenenter"",""5"",""14932""
","
","
","""event"",""trial"",""time""
""fullscreenenter"",""5"",""14932""
","
",326.10500004375353,NA,48,NA,NA,3000,1,NA,NA,images/tutgreenplanet.jpg,images/tutalien1,images/tutalien2,null,images/tutalien1,images/nothing.png,NA,practice,null,NA,NA,NA,NA,sub45
d3-animate-choice,42,235399,0.0-42.0,TRUE,TRUE,FALSE,TRUE,"""event"",""trial"",""time""
""fullscreenenter"",""5"",""14932""
","
","
","""event"",""trial"",""time""
""fullscreenenter"",""5"",""14932""
","
",247.9099999764003,NA,48,NA,NA,3000,1,NA,NA,images/tutgreenplanet.jpg,images/tutalien1,images/tutalien2,null,images/tutalien1,images/nothing.png,NA,practice,null,NA,NA,NA,NA,sub45
d3-animate-choice,43,237698,0.0-43.0,TRUE,TRUE,FALSE,TRUE,"""event"",""trial"",""time""
""fullscreenenter"",""5"",""14932""
","
","
","""event"",""trial"",""time""
""fullscreenenter"",""5"",""14932""
","
",290.0200000149198,NA,48,NA,NA,3000,1,NA,NA,images/tutgreenplanet.jpg,images/tutalien1,images/tutalien2,null,images/tutalien1,images/nothing.png,NA,practice,null,NA,NA,NA,NA,sub45
d3-instructions,44,252804,0.0-44.0,TRUE,TRUE,FALSE,TRUE,"""event"",""trial"",""time""
""fullscreenenter"",""5"",""14932""
","
","
","""event"",""trial"",""time""
""fullscreenenter"",""5"",""14932""
","
",NA,NA,NA,NA,NA,NA,NA,NA,NA,NA,NA,NA,NA,NA,NA,NA,NA,NA,NA,NA,NA,NA,sub45
d3-instructions,45,260963,0.0-45.0,TRUE,TRUE,FALSE,TRUE,"""event"",""trial"",""time""
""fullscreenenter"",""5"",""14932""
","
","
","""event"",""trial"",""time""
""fullscreenenter"",""5"",""14932""
","
",NA,NA,NA,NA,NA,NA,NA,NA,NA,NA,NA,NA,NA,NA,NA,NA,NA,NA,NA,NA,NA,NA,sub45
d3-instructions,46,268048,0.0-46.0,TRUE,TRUE,FALSE,TRUE,"""event"",""trial"",""time""
""fullscreenenter"",""5"",""14932""
","
","
","""event"",""trial"",""time""
""fullscreenenter"",""5"",""14932""
","
",NA,NA,NA,NA,NA,NA,NA,NA,NA,NA,NA,NA,NA,NA,NA,NA,NA,NA,NA,NA,NA,NA,sub45
d3-instructions,47,285993,0.0-47.0,TRUE,TRUE,FALSE,TRUE,"""event"",""trial"",""time""
""fullscreenenter"",""5"",""14932""
","
","
","""event"",""trial"",""time""
""fullscreenenter"",""5"",""14932""
","
",NA,NA,NA,NA,NA,NA,NA,NA,NA,NA,NA,NA,NA,NA,NA,NA,NA,NA,NA,NA,NA,NA,sub45
d3-instructions,48,293270,0.0-48.0,TRUE,TRUE,FALSE,TRUE,"""event"",""trial"",""time""
""fullscreenenter"",""5"",""14932""
","
","
","""event"",""trial"",""time""
""fullscreenenter"",""5"",""14932""
","
",NA,NA,NA,NA,NA,NA,NA,NA,NA,NA,NA,NA,NA,NA,NA,NA,NA,NA,NA,NA,NA,NA,sub45
d3-instructions,49,308906,0.0-49.0,TRUE,TRUE,FALSE,TRUE,"""event"",""trial"",""time""
""fullscreenenter"",""5"",""14932""
","
","
","""event"",""trial"",""time""
""fullscreenenter"",""5"",""14932""
","
",NA,NA,NA,NA,NA,NA,NA,NA,NA,NA,NA,NA,NA,NA,NA,NA,NA,NA,NA,NA,NA,NA,sub45
d3-instructions,50,318731,0.0-50.0,TRUE,TRUE,FALSE,TRUE,"""event"",""trial"",""time""
""fullscreenenter"",""5"",""14932""
","
","
","""event"",""trial"",""time""
""fullscreenenter"",""5"",""14932""
","
",NA,NA,NA,NA,NA,NA,NA,NA,NA,NA,NA,NA,NA,NA,NA,NA,NA,NA,NA,NA,NA,NA,sub45
d3-instructions,51,322387,0.0-51.0,TRUE,TRUE,FALSE,TRUE,"""event"",""trial"",""time""
""fullscreenenter"",""5"",""14932""
","
","
","""event"",""trial"",""time""
""fullscreenenter"",""5"",""14932""
","
",NA,NA,NA,NA,NA,NA,NA,NA,NA,NA,NA,NA,NA,NA,NA,NA,NA,NA,NA,NA,NA,NA,sub45
d3-instructions,52,329360,0.0-52.0,TRUE,TRUE,FALSE,TRUE,"""event"",""trial"",""time""
""fullscreenenter"",""5"",""14932""
","
","
","""event"",""trial"",""time""
""fullscreenenter"",""5"",""14932""
","
",NA,NA,NA,NA,NA,NA,NA,NA,NA,NA,NA,NA,NA,NA,NA,NA,NA,NA,NA,NA,NA,NA,sub45
d3-instructions,53,397322,0.0-53.0,TRUE,TRUE,FALSE,TRUE,"""event"",""trial"",""time""
""fullscreenenter"",""5"",""14932""
","
","
","""event"",""trial"",""time""
""fullscreenenter"",""5"",""14932""
","
",NA,NA,NA,NA,NA,NA,NA,NA,NA,NA,NA,NA,NA,NA,NA,NA,NA,NA,NA,NA,NA,NA,sub45
d3-instructions,54,410121,0.0-54.0,TRUE,TRUE,FALSE,TRUE,"""event"",""trial"",""time""
""fullscreenenter"",""5"",""14932""
","
","
","""event"",""trial"",""time""
""fullscreenenter"",""5"",""14932""
","
",NA,NA,NA,NA,NA,NA,NA,NA,NA,NA,NA,NA,NA,NA,NA,NA,NA,NA,NA,NA,NA,NA,sub45
d3-instructions,55,420519,0.0-55.0,TRUE,TRUE,FALSE,TRUE,"""event"",""trial"",""time""
""fullscreenenter"",""5"",""14932""
","
","
","""event"",""trial"",""time""
""fullscreenenter"",""5"",""14932""
","
",NA,NA,NA,NA,NA,NA,NA,NA,NA,NA,NA,NA,NA,NA,NA,NA,NA,NA,NA,NA,NA,NA,sub45
d3-instructions,56,429261,0.0-56.0,TRUE,TRUE,FALSE,TRUE,"""event"",""trial"",""time""
""fullscreenenter"",""5"",""14932""
","
","
","""event"",""trial"",""time""
""fullscreenenter"",""5"",""14932""
","
",NA,NA,NA,NA,NA,NA,NA,NA,NA,NA,NA,NA,NA,NA,NA,NA,NA,NA,NA,NA,NA,NA,sub45
d3-instructions,57,440048,0.0-57.0,TRUE,TRUE,FALSE,TRUE,"""event"",""trial"",""time""
""fullscreenenter"",""5"",""14932""
","
","
","""event"",""trial"",""time""
""fullscreenenter"",""5"",""14932""
","
",NA,NA,NA,NA,NA,NA,NA,NA,NA,NA,NA,NA,NA,NA,NA,NA,NA,NA,NA,NA,NA,NA,sub45
d3-instructions,58,451528,0.0-58.0,TRUE,TRUE,FALSE,TRUE,"""event"",""trial"",""time""
""fullscreenenter"",""5"",""14932""
","
","
","""event"",""trial"",""time""
""fullscreenenter"",""5"",""14932""
","
",NA,NA,NA,NA,NA,NA,NA,NA,NA,NA,NA,NA,NA,NA,NA,NA,NA,NA,NA,NA,NA,NA,sub45
d3-instructions,59,456798,0.0-59.0,TRUE,TRUE,FALSE,TRUE,"""event"",""trial"",""time""
""fullscreenenter"",""5"",""14932""
","
","
","""event"",""trial"",""time""
""fullscreenenter"",""5"",""14932""
","
",NA,NA,NA,NA,NA,NA,NA,NA,NA,NA,NA,NA,NA,NA,NA,NA,NA,NA,NA,NA,NA,NA,sub45
d3-instructions,60,465002,0.0-60.0,TRUE,TRUE,FALSE,TRUE,"""event"",""trial"",""time""
""fullscreenenter"",""5"",""14932""
","
","
","""event"",""trial"",""time""
""fullscreenenter"",""5"",""14932""
","
",NA,NA,NA,NA,NA,NA,NA,NA,NA,NA,NA,NA,NA,NA,NA,NA,NA,NA,NA,NA,NA,NA,sub45
d3-animate-choice,61,468137,0.0-61.0-0.0,TRUE,TRUE,FALSE,TRUE,"""event"",""trial"",""time""
""fullscreenenter"",""5"",""14932""
","
","
","""event"",""trial"",""time""
""fullscreenenter"",""5"",""14932""
","
",1112.0750000118278,NA,49,NA,NA,3000,1,NA,NA,images/earth.jpg,images/tutrocket1,images/tutrocket2,null,images/tutrocket2,NA,1,practice,null,1,NA,NA,NA,sub45
d3-animate-choice,62,470672,0.0-61.0-1.0,TRUE,TRUE,FALSE,TRUE,"""event"",""trial"",""time""
""fullscreenenter"",""5"",""14932""
","
","
","""event"",""trial"",""time""
""fullscreenenter"",""5"",""14932""
","
",509.25000000279397,NA,48,NA,NA,3000,1,NA,NA,images/tutgreenplanet.jpg,images/tutalien2,images/tutalien1,images/tutrocket2,images/tutalien2,images/nothing.png,2,practice,false,2,rare,0,2020-06-12T16:51:21Z,sub45
two-step-fixation,63,471692,0.0-61.0-2.0,TRUE,TRUE,FALSE,TRUE,"""event"",""trial"",""time""
""fullscreenenter"",""5"",""14932""
","
","
","""event"",""trial"",""time""
""fullscreenenter"",""5"",""14932""
","
",NA,images/earth.jpg,NA,NA,NA,NA,NA,NA,NA,NA,NA,NA,NA,NA,NA,fixation,NA,NA,NA,NA,NA,NA,sub45
d3-animate-choice,64,474852,0.0-61.0-0.1,TRUE,TRUE,FALSE,TRUE,"""event"",""trial"",""time""
""fullscreenenter"",""5"",""14932""
","
","
","""event"",""trial"",""time""
""fullscreenenter"",""5"",""14932""
","
",1148.9099999889731,NA,49,NA,NA,3000,1,NA,NA,images/earth.jpg,images/tutrocket1,images/tutrocket2,null,images/tutrocket2,NA,1,practice,null,1,NA,NA,NA,sub45
d3-animate-choice,65,477534,0.0-61.0-1.1,TRUE,TRUE,FALSE,TRUE,"""event"",""trial"",""time""
""fullscreenenter"",""5"",""14932""
","
","
","""event"",""trial"",""time""
""fullscreenenter"",""5"",""14932""
","
",666.2800000049174,NA,48,NA,NA,3000,1,NA,NA,images/tutyellowplanet.jpg,images/tutalien4,images/tutalien3,images/tutrocket2,images/tutalien4,images/t.png,2,practice,true,2,common,1,2020-06-12T16:51:28Z,sub45
two-step-fixation,66,478545,0.0-61.0-2.1,TRUE,TRUE,FALSE,TRUE,"""event"",""trial"",""time""
""fullscreenenter"",""5"",""14932""
","
","
","""event"",""trial"",""time""
""fullscreenenter"",""5"",""14932""
","
",NA,images/earth.jpg,NA,NA,NA,NA,NA,NA,NA,NA,NA,NA,NA,NA,NA,fixation,NA,NA,NA,NA,NA,NA,sub45
d3-animate-choice,67,481265,0.0-61.0-0.2,TRUE,TRUE,FALSE,TRUE,"""event"",""trial"",""time""
""fullscreenenter"",""5"",""14932""
","
","
","""event"",""trial"",""time""
""fullscreenenter"",""5"",""14932""
","
",703.5700000124052,NA,49,NA,NA,3000,1,NA,NA,images/earth.jpg,images/tutrocket1,images/tutrocket2,null,images/tutrocket2,NA,1,practice,null,1,NA,NA,NA,sub45
d3-animate-choice,68,484025,0.0-61.0-1.2,TRUE,TRUE,FALSE,TRUE,"""event"",""trial"",""time""
""fullscreenenter"",""5"",""14932""
","
","
","""event"",""trial"",""time""
""fullscreenenter"",""5"",""14932""
","
",748.1399999815039,NA,48,NA,NA,3000,1,NA,NA,images/tutyellowplanet.jpg,images/tutalien4,images/tutalien3,images/tutrocket2,images/tutalien4,images/t.png,2,practice,true,2,common,1,2020-06-12T16:51:35Z,sub45
two-step-fixation,69,485035,0.0-61.0-2.2,TRUE,TRUE,FALSE,TRUE,"""event"",""trial"",""time""
""fullscreenenter"",""5"",""14932""
","
","
","""event"",""trial"",""time""
""fullscreenenter"",""5"",""14932""
","
",NA,images/earth.jpg,NA,NA,NA,NA,NA,NA,NA,NA,NA,NA,NA,NA,NA,fixation,NA,NA,NA,NA,NA,NA,sub45
d3-animate-choice,70,487556,0.0-61.0-0.3,TRUE,TRUE,FALSE,TRUE,"""event"",""trial"",""time""
""fullscreenenter"",""5"",""14932""
","
","
","""event"",""trial"",""time""
""fullscreenenter"",""5"",""14932""
","
",512.3700000112876,NA,49,NA,NA,3000,1,NA,NA,images/earth.jpg,images/tutrocket1,images/tutrocket2,null,images/tutrocket2,NA,1,practice,null,1,NA,NA,NA,sub45
d3-animate-choice,71,489897,0.0-61.0-1.3,TRUE,TRUE,FALSE,TRUE,"""event"",""trial"",""time""
""fullscreenenter"",""5"",""14932""
","
","
","""event"",""trial"",""time""
""fullscreenenter"",""5"",""14932""
","
",331.5500000026077,NA,48,NA,NA,3000,1,NA,NA,images/tutyellowplanet.jpg,images/tutalien4,images/tutalien3,images/tutrocket2,images/tutalien4,images/nothing.png,2,practice,true,2,common,0,2020-06-12T16:51:40Z,sub45
two-step-fixation,72,490906,0.0-61.0-2.3,TRUE,TRUE,FALSE,TRUE,"""event"",""trial"",""time""
""fullscreenenter"",""5"",""14932""
","
","
","""event"",""trial"",""time""
""fullscreenenter"",""5"",""14932""
","
",NA,images/earth.jpg,NA,NA,NA,NA,NA,NA,NA,NA,NA,NA,NA,NA,NA,fixation,NA,NA,NA,NA,NA,NA,sub45
d3-animate-choice,73,493569,0.0-61.0-0.4,TRUE,TRUE,FALSE,TRUE,"""event"",""trial"",""time""
""fullscreenenter"",""5"",""14932""
","
","
","""event"",""trial"",""time""
""fullscreenenter"",""5"",""14932""
","
",648.3299999963492,NA,49,NA,NA,3000,1,NA,NA,images/earth.jpg,images/tutrocket1,images/tutrocket2,null,images/tutrocket2,NA,1,practice,null,1,NA,NA,NA,sub45
d3-animate-choice,74,495984,0.0-61.0-1.4,TRUE,TRUE,FALSE,TRUE,"""event"",""trial"",""time""
""fullscreenenter"",""5"",""14932""
","
","
","""event"",""trial"",""time""
""fullscreenenter"",""5"",""14932""
","
",383.30499996664,NA,48,NA,NA,3000,1,NA,NA,images/tutyellowplanet.jpg,images/tutalien4,images/tutalien3,images/tutrocket2,images/tutalien4,images/t.png,2,practice,true,2,common,1,2020-06-12T16:51:47Z,sub45
two-step-fixation,75,497007,0.0-61.0-2.4,TRUE,TRUE,FALSE,TRUE,"""event"",""trial"",""time""
""fullscreenenter"",""5"",""14932""
","
","
","""event"",""trial"",""time""
""fullscreenenter"",""5"",""14932""
","
",NA,images/earth.jpg,NA,NA,NA,NA,NA,NA,NA,NA,NA,NA,NA,NA,NA,fixation,NA,NA,NA,NA,NA,NA,sub45
d3-animate-choice,76,500064,0.0-61.0-0.5,TRUE,TRUE,FALSE,TRUE,"""event"",""trial"",""time""
""fullscreenenter"",""5"",""14932""
","
","
","""event"",""trial"",""time""
""fullscreenenter"",""5"",""14932""
","
",1028.2799999695271,NA,49,NA,NA,3000,1,NA,NA,images/earth.jpg,images/tutrocket1,images/tutrocket2,null,images/tutrocket2,NA,1,practice,null,1,NA,NA,NA,sub45
d3-animate-choice,77,502457,0.0-61.0-1.5,TRUE,TRUE,FALSE,TRUE,"""event"",""trial"",""time""
""fullscreenenter"",""5"",""14932""
","
","
","""event"",""trial"",""time""
""fullscreenenter"",""5"",""14932""
","
",364.8950000060722,NA,48,NA,NA,3000,1,NA,NA,images/tutgreenplanet.jpg,images/tutalien2,images/tutalien1,images/tutrocket2,images/tutalien2,images/nothing.png,2,practice,false,2,rare,0,2020-06-12T16:51:53Z,sub45
two-step-fixation,78,503483,0.0-61.0-2.5,TRUE,TRUE,FALSE,TRUE,"""event"",""trial"",""time""
""fullscreenenter"",""5"",""14932""
","
","
","""event"",""trial"",""time""
""fullscreenenter"",""5"",""14932""
","
",NA,images/earth.jpg,NA,NA,NA,NA,NA,NA,NA,NA,NA,NA,NA,NA,NA,fixation,NA,NA,NA,NA,NA,NA,sub45
d3-animate-choice,79,506113,0.0-61.0-0.6,TRUE,TRUE,FALSE,TRUE,"""event"",""trial"",""time""
""fullscreenenter"",""5"",""14932""
","
","
","""event"",""trial"",""time""
""fullscreenenter"",""5"",""14932""
","
",603.3849999657832,NA,49,NA,NA,3000,1,NA,NA,images/earth.jpg,images/tutrocket1,images/tutrocket2,null,images/tutrocket2,NA,1,practice,null,1,NA,NA,NA,sub45
d3-animate-choice,80,508573,0.0-61.0-1.6,TRUE,TRUE,FALSE,TRUE,"""event"",""trial"",""time""
""fullscreenenter"",""5"",""14932""
","
","
","""event"",""trial"",""time""
""fullscreenenter"",""5"",""14932""
","
",435.4350000503473,NA,48,NA,NA,3000,1,NA,NA,images/tutgreenplanet.jpg,images/tutalien2,images/tutalien1,images/tutrocket2,images/tutalien2,images/nothing.png,2,practice,false,2,rare,0,2020-06-12T16:51:59Z,sub45
two-step-fixation,81,509597,0.0-61.0-2.6,TRUE,TRUE,FALSE,TRUE,"""event"",""trial"",""time""
""fullscreenenter"",""5"",""14932""
","
","
","""event"",""trial"",""time""
""fullscreenenter"",""5"",""14932""
","
",NA,images/earth.jpg,NA,NA,NA,NA,NA,NA,NA,NA,NA,NA,NA,NA,NA,fixation,NA,NA,NA,NA,NA,NA,sub45
d3-animate-choice,82,511985,0.0-61.0-0.7,TRUE,TRUE,FALSE,TRUE,"""event"",""trial"",""time""
""fullscreenenter"",""5"",""14932""
","
","
","""event"",""trial"",""time""
""fullscreenenter"",""5"",""14932""
","
",376.0199999669567,NA,49,NA,NA,3000,1,1438.7700000079349,48,images/earth.jpg,images/tutrocket1,images/tutrocket2,null,images/tutrocket2,NA,1,practice,null,1,NA,NA,NA,sub45
d3-animate-choice,83,514501,0.0-61.0-1.7,TRUE,TRUE,FALSE,TRUE,"""event"",""trial"",""time""
""fullscreenenter"",""5"",""14932""
","
","
","""event"",""trial"",""time""
""fullscreenenter"",""5"",""14932""
","
",498.32499999320135,NA,48,NA,NA,3000,1,NA,NA,images/tutyellowplanet.jpg,images/tutalien4,images/tutalien3,images/tutrocket2,images/tutalien4,images/t.png,2,practice,true,2,common,1,2020-06-12T16:52:05Z,sub45
two-step-fixation,84,515511,0.0-61.0-2.7,TRUE,TRUE,FALSE,TRUE,"""event"",""trial"",""time""
""fullscreenenter"",""5"",""14932""
","
","
","""event"",""trial"",""time""
""fullscreenenter"",""5"",""14932""
","
",NA,images/earth.jpg,NA,NA,NA,NA,NA,NA,NA,NA,NA,NA,NA,NA,NA,fixation,NA,NA,NA,NA,NA,NA,sub45
d3-animate-choice,85,519534,0.0-61.0-0.8,TRUE,TRUE,FALSE,TRUE,"""event"",""trial"",""time""
""fullscreenenter"",""5"",""14932""
","
","
","""event"",""trial"",""time""
""fullscreenenter"",""5"",""14932""
","
",924.349999986589,NA,81,NA,NA,3000,1,2509.7599999862723,49,images/earth.jpg,images/tutrocket1,images/tutrocket2,null,images/tutrocket2,NA,1,practice,null,NA,NA,NA,NA,sub45
d3-animate-choice,86,522211,0.0-61.0-1.8,TRUE,TRUE,FALSE,TRUE,"""event"",""trial"",""time""
""fullscreenenter"",""5"",""14932""
","
","
","""event"",""trial"",""time""
""fullscreenenter"",""5"",""14932""
","
",656.0749999480322,NA,49,NA,NA,3000,1,NA,NA,images/tutgreenplanet.jpg,images/tutalien2,images/tutalien1,images/tutrocket2,images/tutalien1,images/t.png,2,practice,false,1,rare,1,2020-06-12T16:52:13Z,sub45
two-step-fixation,87,523227,0.0-61.0-2.8,TRUE,TRUE,FALSE,TRUE,"""event"",""trial"",""time""
""fullscreenenter"",""5"",""14932""
","
","
","""event"",""trial"",""time""
""fullscreenenter"",""5"",""14932""
","
",NA,images/earth.jpg,NA,NA,NA,NA,NA,NA,NA,NA,NA,NA,NA,NA,NA,fixation,NA,NA,NA,NA,NA,NA,sub45
d3-animate-choice,88,525571,0.0-61.0-0.9,TRUE,TRUE,FALSE,TRUE,"""event"",""trial"",""time""
""fullscreenenter"",""5"",""14932""
","
","
","""event"",""trial"",""time""
""fullscreenenter"",""5"",""14932""
","
",320.3900000080466,NA,49,NA,NA,3000,1,NA,NA,images/earth.jpg,images/tutrocket1,images/tutrocket2,null,images/tutrocket2,NA,1,practice,null,1,NA,NA,NA,sub45
d3-animate-choice,89,527949,0.0-61.0-1.9,TRUE,TRUE,FALSE,TRUE,"""event"",""trial"",""time""
""fullscreenenter"",""5"",""14932""
","
","
","""event"",""trial"",""time""
""fullscreenenter"",""5"",""14932""
","
",359.34999998426065,NA,49,NA,NA,3000,1,NA,NA,images/tutyellowplanet.jpg,images/tutalien4,images/tutalien3,images/tutrocket2,images/tutalien3,images/nothing.png,2,practice,true,1,common,0,2020-06-12T16:52:18Z,sub45
two-step-fixation,90,528975,0.0-61.0-2.9,TRUE,TRUE,FALSE,TRUE,"""event"",""trial"",""time""
""fullscreenenter"",""5"",""14932""
","
","
","""event"",""trial"",""time""
""fullscreenenter"",""5"",""14932""
","
",NA,images/earth.jpg,NA,NA,NA,NA,NA,NA,NA,NA,NA,NA,NA,NA,NA,fixation,NA,NA,NA,NA,NA,NA,sub45
d3-animate-choice,91,531733,0.0-61.0-0.10,TRUE,TRUE,FALSE,TRUE,"""event"",""trial"",""time""
""fullscreenenter"",""5"",""14932""
","
","
","""event"",""trial"",""time""
""fullscreenenter"",""5"",""14932""
","
",736.9650000473484,NA,49,NA,NA,3000,1,NA,NA,images/earth.jpg,images/tutrocket1,images/tutrocket2,null,images/tutrocket2,NA,1,practice,null,1,NA,NA,NA,sub45
d3-animate-choice,92,534153,0.0-61.0-1.10,TRUE,TRUE,FALSE,TRUE,"""event"",""trial"",""time""
""fullscreenenter"",""5"",""14932""
","
","
","""event"",""trial"",""time""
""fullscreenenter"",""5"",""14932""
","
",406.7899999790825,NA,49,NA,NA,3000,1,NA,NA,images/tutyellowplanet.jpg,images/tutalien4,images/tutalien3,images/tutrocket2,images/tutalien3,images/t.png,2,practice,true,1,common,1,2020-06-12T16:52:25Z,sub45
two-step-fixation,93,535179,0.0-61.0-2.10,TRUE,TRUE,FALSE,TRUE,"""event"",""trial"",""time""
""fullscreenenter"",""5"",""14932""
","
","
","""event"",""trial"",""time""
""fullscreenenter"",""5"",""14932""
","
",NA,images/earth.jpg,NA,NA,NA,NA,NA,NA,NA,NA,NA,NA,NA,NA,NA,fixation,NA,NA,NA,NA,NA,NA,sub45
d3-animate-choice,94,537812,0.0-61.0-0.11,TRUE,TRUE,FALSE,TRUE,"""event"",""trial"",""time""
""fullscreenenter"",""5"",""14932""
","
","
","""event"",""trial"",""time""
""fullscreenenter"",""5"",""14932""
","
",606.8550000200048,NA,48,NA,NA,3000,1,NA,NA,images/earth.jpg,images/tutrocket1,images/tutrocket2,null,images/tutrocket1,NA,1,practice,null,2,NA,NA,NA,sub45
d3-animate-choice,95,540458,0.0-61.0-1.11,TRUE,TRUE,FALSE,TRUE,"""event"",""trial"",""time""
""fullscreenenter"",""5"",""14932""
","
","
","""event"",""trial"",""time""
""fullscreenenter"",""5"",""14932""
","
",626.6049999976531,NA,49,NA,NA,3000,1,NA,NA,images/tutgreenplanet.jpg,images/tutalien2,images/tutalien1,images/tutrocket1,images/tutalien1,images/nothing.png,2,practice,true,1,common,0,2020-06-12T16:52:31Z,sub45
two-step-fixation,96,541483,0.0-61.0-2.11,TRUE,TRUE,FALSE,TRUE,"""event"",""trial"",""time""
""fullscreenenter"",""5"",""14932""
","
","
","""event"",""trial"",""time""
""fullscreenenter"",""5"",""14932""
","
",NA,images/earth.jpg,NA,NA,NA,NA,NA,NA,NA,NA,NA,NA,NA,NA,NA,fixation,NA,NA,NA,NA,NA,NA,sub45
d3-animate-choice,97,543945,0.0-61.0-0.12,TRUE,TRUE,FALSE,TRUE,"""event"",""trial"",""time""
""fullscreenenter"",""5"",""14932""
","
","
","""event"",""trial"",""time""
""fullscreenenter"",""5"",""14932""
","
",450.79999999143183,NA,48,NA,NA,3000,1,NA,NA,images/earth.jpg,images/tutrocket1,images/tutrocket2,null,images/tutrocket1,NA,1,practice,null,2,NA,NA,NA,sub45
d3-animate-choice,98,546714,0.0-61.0-1.12,TRUE,TRUE,FALSE,TRUE,"""event"",""trial"",""time""
""fullscreenenter"",""5"",""14932""
","
","
","""event"",""trial"",""time""
""fullscreenenter"",""5"",""14932""
","
",741.9099999824539,NA,49,NA,NA,3000,1,NA,NA,images/tutyellowplanet.jpg,images/tutalien4,images/tutalien3,images/tutrocket1,images/tutalien3,images/nothing.png,2,practice,false,1,rare,0,2020-06-12T16:52:37Z,sub45
two-step-fixation,99,547720,0.0-61.0-2.12,TRUE,TRUE,FALSE,TRUE,"""event"",""trial"",""time""
""fullscreenenter"",""5"",""14932""
","
","
","""event"",""trial"",""time""
""fullscreenenter"",""5"",""14932""
","
",NA,images/earth.jpg,NA,NA,NA,NA,NA,NA,NA,NA,NA,NA,NA,NA,NA,fixation,NA,NA,NA,NA,NA,NA,sub45
d3-animate-choice,100,550397,0.0-61.0-0.13,TRUE,TRUE,FALSE,TRUE,"""event"",""trial"",""time""
""fullscreenenter"",""5"",""14932""
","
","
","""event"",""trial"",""time""
""fullscreenenter"",""5"",""14932""
","
",650.8800000301562,NA,48,NA,NA,3000,1,NA,NA,images/earth.jpg,images/tutrocket1,images/tutrocket2,null,images/tutrocket1,NA,1,practice,null,2,NA,NA,NA,sub45
d3-animate-choice,101,552816,0.0-61.0-1.13,TRUE,TRUE,FALSE,TRUE,"""event"",""trial"",""time""
""fullscreenenter"",""5"",""14932""
","
","
","""event"",""trial"",""time""
""fullscreenenter"",""5"",""14932""
","
",395.47499996842816,NA,48,NA,NA,3000,1,NA,NA,images/tutyellowplanet.jpg,images/tutalien4,images/tutalien3,images/tutrocket1,images/tutalien4,images/t.png,2,practice,false,2,rare,1,2020-06-12T16:52:43Z,sub45
two-step-fixation,102,553835,0.0-61.0-2.13,TRUE,TRUE,FALSE,TRUE,"""event"",""trial"",""time""
""fullscreenenter"",""5"",""14932""
","
","
","""event"",""trial"",""time""
""fullscreenenter"",""5"",""14932""
","
",NA,images/earth.jpg,NA,NA,NA,NA,NA,NA,NA,NA,NA,NA,NA,NA,NA,fixation,NA,NA,NA,NA,NA,NA,sub45
d3-animate-choice,103,557181,0.0-61.0-0.14,TRUE,TRUE,FALSE,TRUE,"""event"",""trial"",""time""
""fullscreenenter"",""5"",""14932""
","
","
","""event"",""trial"",""time""
""fullscreenenter"",""5"",""14932""
","
",1322.039999999106,NA,48,NA,NA,3000,1,NA,NA,images/earth.jpg,images/tutrocket1,images/tutrocket2,null,images/tutrocket1,NA,1,practice,null,2,NA,NA,NA,sub45
d3-animate-choice,104,561025,0.0-61.0-1.14,TRUE,TRUE,FALSE,TRUE,"""event"",""trial"",""time""
""fullscreenenter"",""5"",""14932""
","
","
","""event"",""trial"",""time""
""fullscreenenter"",""5"",""14932""
","
",1813.8850000104867,NA,48,NA,NA,3000,1,NA,NA,images/tutgreenplanet.jpg,images/tutalien2,images/tutalien1,images/tutrocket1,images/tutalien2,images/nothing.png,2,practice,true,2,common,0,2020-06-12T16:52:52Z,sub45
two-step-fixation,105,562048,0.0-61.0-2.14,TRUE,TRUE,FALSE,TRUE,"""event"",""trial"",""time""
""fullscreenenter"",""5"",""14932""
","
","
","""event"",""trial"",""time""
""fullscreenenter"",""5"",""14932""
","
",NA,images/earth.jpg,NA,NA,NA,NA,NA,NA,NA,NA,NA,NA,NA,NA,NA,fixation,NA,NA,NA,NA,NA,NA,sub45
d3-animate-choice,106,565042,0.0-61.0-0.15,TRUE,TRUE,FALSE,TRUE,"""event"",""trial"",""time""
""fullscreenenter"",""5"",""14932""
","
","
","""event"",""trial"",""time""
""fullscreenenter"",""5"",""14932""
","
",965.94499994535,NA,48,NA,NA,3000,1,NA,NA,images/earth.jpg,images/tutrocket1,images/tutrocket2,null,images/tutrocket1,NA,1,practice,null,2,NA,NA,NA,sub45
d3-animate-choice,107,567859,0.0-61.0-1.15,TRUE,TRUE,FALSE,TRUE,"""event"",""trial"",""time""
""fullscreenenter"",""5"",""14932""
","
","
","""event"",""trial"",""time""
""fullscreenenter"",""5"",""14932""
","
",790.8700000261888,NA,48,NA,NA,3000,1,NA,NA,images/tutgreenplanet.jpg,images/tutalien2,images/tutalien1,images/tutrocket1,images/tutalien2,images/nothing.png,2,practice,true,2,common,0,2020-06-12T16:52:58Z,sub45
two-step-fixation,108,568880,0.0-61.0-2.15,TRUE,TRUE,FALSE,TRUE,"""event"",""trial"",""time""
""fullscreenenter"",""5"",""14932""
","
","
","""event"",""trial"",""time""
""fullscreenenter"",""5"",""14932""
","
",NA,images/earth.jpg,NA,NA,NA,NA,NA,NA,NA,NA,NA,NA,NA,NA,NA,fixation,NA,NA,NA,NA,NA,NA,sub45
d3-animate-choice,109,572120,0.0-61.0-0.16,TRUE,TRUE,FALSE,TRUE,"""event"",""trial"",""time""
""fullscreenenter"",""5"",""14932""
","
","
","""event"",""trial"",""time""
""fullscreenenter"",""5"",""14932""
","
",1220.8649999811314,NA,48,NA,NA,3000,1,NA,NA,images/earth.jpg,images/tutrocket1,images/tutrocket2,null,images/tutrocket1,NA,1,practice,null,2,NA,NA,NA,sub45
d3-animate-choice,110,575181,0.0-61.0-1.16,TRUE,TRUE,FALSE,TRUE,"""event"",""trial"",""time""
""fullscreenenter"",""5"",""14932""
","
","
","""event"",""trial"",""time""
""fullscreenenter"",""5"",""14932""
","
",1032.4200000031851,NA,48,NA,NA,3000,1,NA,NA,images/tutyellowplanet.jpg,images/tutalien4,images/tutalien3,images/tutrocket1,images/tutalien4,images/t.png,2,practice,false,2,rare,1,2020-06-12T16:53:06Z,sub45
two-step-fixation,111,576193,0.0-61.0-2.16,TRUE,TRUE,FALSE,TRUE,"""event"",""trial"",""time""
""fullscreenenter"",""5"",""14932""
","
","
","""event"",""trial"",""time""
""fullscreenenter"",""5"",""14932""
","
",NA,images/earth.jpg,NA,NA,NA,NA,NA,NA,NA,NA,NA,NA,NA,NA,NA,fixation,NA,NA,NA,NA,NA,NA,sub45
d3-animate-choice,112,578642,0.0-61.0-0.17,TRUE,TRUE,FALSE,TRUE,"""event"",""trial"",""time""
""fullscreenenter"",""5"",""14932""
","
","
","""event"",""trial"",""time""
""fullscreenenter"",""5"",""14932""
","
",437.65500001609325,NA,48,NA,NA,3000,1,NA,NA,images/earth.jpg,images/tutrocket1,images/tutrocket2,null,images/tutrocket1,NA,1,practice,null,2,NA,NA,NA,sub45
d3-animate-choice,113,581624,0.0-61.0-1.17,TRUE,TRUE,FALSE,TRUE,"""event"",""trial"",""time""
""fullscreenenter"",""5"",""14932""
","
","
","""event"",""trial"",""time""
""fullscreenenter"",""5"",""14932""
","
",968.1299999938346,NA,48,NA,NA,3000,1,NA,NA,images/tutyellowplanet.jpg,images/tutalien4,images/tutalien3,images/tutrocket1,images/tutalien4,images/t.png,2,practice,false,2,rare,1,2020-06-12T16:53:12Z,sub45
two-step-fixation,114,582634,0.0-61.0-2.17,TRUE,TRUE,FALSE,TRUE,"""event"",""trial"",""time""
""fullscreenenter"",""5"",""14932""
","
","
","""event"",""trial"",""time""
""fullscreenenter"",""5"",""14932""
","
",NA,images/earth.jpg,NA,NA,NA,NA,NA,NA,NA,NA,NA,NA,NA,NA,NA,fixation,NA,NA,NA,NA,NA,NA,sub45
d3-animate-choice,115,585538,0.0-61.0-0.18,TRUE,TRUE,FALSE,TRUE,"""event"",""trial"",""time""
""fullscreenenter"",""5"",""14932""
","
","
","""event"",""trial"",""time""
""fullscreenenter"",""5"",""14932""
","
",890.17500000773,NA,48,NA,NA,3000,1,2535.0800000014715,48,images/earth.jpg,images/tutrocket1,images/tutrocket2,null,images/tutrocket1,NA,1,practice,null,2,NA,NA,NA,sub45
d3-animate-choice,116,588662,0.0-61.0-1.18,TRUE,TRUE,FALSE,TRUE,"""event"",""trial"",""time""
""fullscreenenter"",""5"",""14932""
","
","
","""event"",""trial"",""time""
""fullscreenenter"",""5"",""14932""
","
",1097.36499999417,NA,48,NA,NA,3000,1,NA,NA,images/tutyellowplanet.jpg,images/tutalien4,images/tutalien3,images/tutrocket1,images/tutalien4,images/t.png,2,practice,false,2,rare,1,2020-06-12T16:53:19Z,sub45
two-step-fixation,117,589679,0.0-61.0-2.18,TRUE,TRUE,FALSE,TRUE,"""event"",""trial"",""time""
""fullscreenenter"",""5"",""14932""
","
","
","""event"",""trial"",""time""
""fullscreenenter"",""5"",""14932""
","
",NA,images/earth.jpg,NA,NA,NA,NA,NA,NA,NA,NA,NA,NA,NA,NA,NA,fixation,NA,NA,NA,NA,NA,NA,sub45
d3-animate-choice,118,593034,0.0-61.0-0.19,TRUE,TRUE,FALSE,TRUE,"""event"",""trial"",""time""
""fullscreenenter"",""5"",""14932""
","
","
","""event"",""trial"",""time""
""fullscreenenter"",""5"",""14932""
","
",1329.6700000064448,NA,48,NA,NA,3000,1,NA,NA,images/earth.jpg,images/tutrocket1,images/tutrocket2,null,images/tutrocket1,NA,1,practice,null,2,NA,NA,NA,sub45
d3-animate-choice,119,596071,0.0-61.0-1.19,TRUE,TRUE,FALSE,TRUE,"""event"",""trial"",""time""
""fullscreenenter"",""5"",""14932""
","
","
","""event"",""trial"",""time""
""fullscreenenter"",""5"",""14932""
","
",1014.0100000426173,NA,49,NA,NA,3000,1,NA,NA,images/tutgreenplanet.jpg,images/tutalien2,images/tutalien1,images/tutrocket1,images/tutalien1,images/t.png,2,practice,true,1,common,1,2020-06-12T16:53:27Z,sub45
two-step-fixation,120,597079,0.0-61.0-2.19,TRUE,TRUE,FALSE,TRUE,"""event"",""trial"",""time""
""fullscreenenter"",""5"",""14932""
","
","
","""event"",""trial"",""time""
""fullscreenenter"",""5"",""14932""
","
",NA,images/earth.jpg,NA,NA,NA,NA,NA,NA,NA,NA,NA,NA,NA,NA,NA,fixation,NA,NA,NA,NA,NA,NA,sub45
d3-instructions,121,610508,0.0-62.0,TRUE,TRUE,FALSE,TRUE,"""event"",""trial"",""time""
""fullscreenenter"",""5"",""14932""
","
","
","""event"",""trial"",""time""
""fullscreenenter"",""5"",""14932""
","
",NA,NA,NA,NA,NA,NA,NA,NA,NA,NA,NA,NA,NA,NA,NA,NA,NA,NA,NA,NA,NA,NA,sub45
audio-keyboard-response,122,617299,0.0-63.0,TRUE,TRUE,FALSE,TRUE,"""event"",""trial"",""time""
""fullscreenenter"",""5"",""14932""
","
","
","""event"",""trial"",""time""
""fullscreenenter"",""5"",""14932""
","
",6789,audio/instructions/treasure_feedback.wav,32,NA,NA,NA,NA,NA,NA,NA,NA,NA,NA,NA,NA,NA,NA,NA,NA,NA,NA,NA,sub45
d3-instructions,123,643038,0.0-64.0,TRUE,TRUE,FALSE,TRUE,"""event"",""trial"",""time""
""fullscreenenter"",""5"",""14932""
","
","
","""event"",""trial"",""time""
""fullscreenenter"",""5"",""14932""
","
",NA,NA,NA,NA,NA,NA,NA,NA,NA,NA,NA,NA,NA,NA,NA,NA,NA,NA,NA,NA,NA,NA,sub45
d3-instructions,124,662110,0.0-65.0,TRUE,TRUE,FALSE,TRUE,"""event"",""trial"",""time""
""fullscreenenter"",""5"",""14932""
","
","
","""event"",""trial"",""time""
""fullscreenenter"",""5"",""14932""
","
",NA,NA,NA,NA,NA,NA,NA,NA,NA,NA,NA,NA,NA,NA,NA,NA,NA,NA,NA,NA,NA,NA,sub45
d3-instructions,125,689871,0.0-66.0,TRUE,TRUE,FALSE,TRUE,"""event"",""trial"",""time""
""fullscreenenter"",""5"",""14932""
","
","
","""event"",""trial"",""time""
""fullscreenenter"",""5"",""14932""
","
",NA,NA,NA,NA,NA,NA,NA,NA,NA,NA,NA,NA,NA,NA,NA,NA,NA,NA,NA,NA,NA,NA,sub45
d3-instructions,126,788988,0.0-67.0,TRUE,TRUE,FALSE,TRUE,"""event"",""trial"",""time""
""fullscreenenter"",""5"",""14932""
","
","
","""event"",""trial"",""time""
""fullscreenenter"",""5"",""14932""
","
",NA,NA,NA,NA,NA,NA,NA,NA,NA,NA,NA,NA,NA,NA,NA,NA,NA,NA,NA,NA,NA,NA,sub45
d3-instructions,127,799824,0.0-68.0,TRUE,TRUE,FALSE,TRUE,"""event"",""trial"",""time""
""fullscreenenter"",""5"",""14932""
","
","
","""event"",""trial"",""time""
""fullscreenenter"",""5"",""14932""
","
",NA,NA,NA,NA,NA,NA,NA,NA,NA,NA,NA,NA,NA,NA,NA,NA,NA,NA,NA,NA,NA,NA,sub45
instructions-quiz,128,804887,0.0-69.0,TRUE,TRUE,FALSE,TRUE,"""event"",""trial"",""time""
""fullscreenenter"",""5"",""14932""
","
","
","""event"",""trial"",""time""
""fullscreenenter"",""5"",""14932""
","
",5057.9649999854155,audio/quiz/Q1_Prompt.wav,NA,1,NA,NA,NA,NA,NA,NA,NA,NA,NA,NA,NA,NA,NA,NA,NA,NA,NA,NA,sub45
audio-keyboard-response,129,814062,0.0-70.0,TRUE,TRUE,FALSE,TRUE,"""event"",""trial"",""time""
""fullscreenenter"",""5"",""14932""
","
","
","""event"",""trial"",""time""
""fullscreenenter"",""5"",""14932""
","
",null,audio/quiz/Q1_Correct.wav,null,NA,NA,NA,NA,NA,NA,NA,NA,NA,NA,NA,NA,NA,NA,NA,NA,NA,NA,NA,sub45
instructions-quiz,130,823780,0.0-71.0,TRUE,TRUE,FALSE,TRUE,"""event"",""trial"",""time""
""fullscreenenter"",""5"",""14932""
","
","
","""event"",""trial"",""time""
""fullscreenenter"",""5"",""14932""
","
",9713.06999999797,audio/quiz/Q2_Prompt.wav,NA,0,NA,NA,NA,NA,NA,NA,NA,NA,NA,NA,NA,NA,NA,NA,NA,NA,NA,NA,sub45
audio-keyboard-response,131,836652,0.0-72.0,TRUE,TRUE,FALSE,TRUE,"""event"",""trial"",""time""
""fullscreenenter"",""5"",""14932""
","
","
","""event"",""trial"",""time""
""fullscreenenter"",""5"",""14932""
","
",null,audio/quiz/Q2_Correct.wav,null,NA,NA,NA,NA,NA,NA,NA,NA,NA,NA,NA,NA,NA,NA,NA,NA,NA,NA,NA,sub45
instructions-quiz,132,841963,0.0-73.0,TRUE,TRUE,FALSE,TRUE,"""event"",""trial"",""time""
""fullscreenenter"",""5"",""14932""
","
","
","""event"",""trial"",""time""
""fullscreenenter"",""5"",""14932""
","
",5303.55499999132,audio/quiz/Q3_Prompt.wav,NA,1,NA,NA,NA,NA,NA,NA,NA,NA,NA,NA,NA,NA,NA,NA,NA,NA,NA,NA,sub45
audio-keyboard-response,133,847767,0.0-74.0,TRUE,TRUE,FALSE,TRUE,"""event"",""trial"",""time""
""fullscreenenter"",""5"",""14932""
","
","
","""event"",""trial"",""time""
""fullscreenenter"",""5"",""14932""
","
",null,audio/quiz/Q3_Correct.wav,null,NA,NA,NA,NA,NA,NA,NA,NA,NA,NA,NA,NA,NA,NA,NA,NA,NA,NA,NA,sub45
d3-instructions,134,862502,0.0-75.0,TRUE,TRUE,FALSE,TRUE,"""event"",""trial"",""time""
""fullscreenenter"",""5"",""14932""
","
","
","""event"",""trial"",""time""
""fullscreenenter"",""5"",""14932""
","
",NA,NA,NA,NA,NA,NA,NA,NA,NA,NA,NA,NA,NA,NA,NA,NA,NA,NA,NA,NA,NA,NA,sub45
d3-animate-choice,135,866044,0.0-76.0-0.0,TRUE,TRUE,FALSE,TRUE,"""event"",""trial"",""time""
""fullscreenenter"",""5"",""14932""
","
","
","""event"",""trial"",""time""
""fullscreenenter"",""5"",""14932""
","
",1525.7299999939278,NA,48,NA,NA,3000,1,NA,NA,images/earth.jpg,images/rocket2,images/rocket1,null,images/rocket2,NA,1,real,null,2,NA,NA,NA,sub45
d3-animate-choice,136,869584,0.0-76.0-1.0,TRUE,TRUE,FALSE,TRUE,"""event"",""trial"",""time""
""fullscreenenter"",""5"",""14932""
","
","
","""event"",""trial"",""time""
""fullscreenenter"",""5"",""14932""
","
",1528.920000011567,NA,48,NA,NA,3000,1,NA,NA,images/purpleplanet.jpg,images/alien4,images/alien3,images/rocket2,images/alien4,images/t.png,2,real,true,2,common,1,2020-06-12T16:58:00Z,sub45
two-step-fixation,137,870595,0.0-76.0-2.0,TRUE,TRUE,FALSE,TRUE,"""event"",""trial"",""time""
""fullscreenenter"",""5"",""14932""
","
","
","""event"",""trial"",""time""
""fullscreenenter"",""5"",""14932""
","
",NA,images/earth.jpg,NA,NA,NA,NA,NA,NA,NA,NA,NA,NA,NA,NA,NA,fixation,NA,NA,NA,NA,NA,NA,sub45
d3-animate-choice,138,873372,0.0-76.0-0.1,TRUE,TRUE,FALSE,TRUE,"""event"",""trial"",""time""
""fullscreenenter"",""5"",""14932""
","
","
","""event"",""trial"",""time""
""fullscreenenter"",""5"",""14932""
","
",766.9950000126846,NA,48,NA,NA,3000,1,NA,NA,images/earth.jpg,images/rocket2,images/rocket1,null,images/rocket2,NA,1,real,null,2,NA,NA,NA,sub45
d3-animate-choice,139,875835,0.0-76.0-1.1,TRUE,TRUE,FALSE,TRUE,"""event"",""trial"",""time""
""fullscreenenter"",""5"",""14932""
","
","
","""event"",""trial"",""time""
""fullscreenenter"",""5"",""14932""
","
",450.52000001305714,NA,48,NA,NA,3000,1,NA,NA,images/purpleplanet.jpg,images/alien4,images/alien3,images/rocket2,images/alien4,images/t.png,2,real,true,2,common,1,2020-06-12T16:58:06Z,sub45
two-step-fixation,140,876844,0.0-76.0-2.1,TRUE,TRUE,FALSE,TRUE,"""event"",""trial"",""time""
""fullscreenenter"",""5"",""14932""
","
","
","""event"",""trial"",""time""
""fullscreenenter"",""5"",""14932""
","
",NA,images/earth.jpg,NA,NA,NA,NA,NA,NA,NA,NA,NA,NA,NA,NA,NA,fixation,NA,NA,NA,NA,NA,NA,sub45
d3-animate-choice,141,879545,0.0-76.0-0.2,TRUE,TRUE,FALSE,TRUE,"""event"",""trial"",""time""
""fullscreenenter"",""5"",""14932""
","
","
","""event"",""trial"",""time""
""fullscreenenter"",""5"",""14932""
","
",682.9000000143424,NA,48,NA,NA,3000,1,NA,NA,images/earth.jpg,images/rocket2,images/rocket1,null,images/rocket2,NA,1,real,null,2,NA,NA,NA,sub45
d3-animate-choice,142,882055,0.0-76.0-1.2,TRUE,TRUE,FALSE,TRUE,"""event"",""trial"",""time""
""fullscreenenter"",""5"",""14932""
","
","
","""event"",""trial"",""time""
""fullscreenenter"",""5"",""14932""
","
",493.8850000035018,NA,48,NA,NA,3000,1,NA,NA,images/purpleplanet.jpg,images/alien4,images/alien3,images/rocket2,images/alien4,images/nothing.png,2,real,true,2,common,0,2020-06-12T16:58:13Z,sub45
two-step-fixation,143,883065,0.0-76.0-2.2,TRUE,TRUE,FALSE,TRUE,"""event"",""trial"",""time""
""fullscreenenter"",""5"",""14932""
","
","
","""event"",""trial"",""time""
""fullscreenenter"",""5"",""14932""
","
",NA,images/earth.jpg,NA,NA,NA,NA,NA,NA,NA,NA,NA,NA,NA,NA,NA,fixation,NA,NA,NA,NA,NA,NA,sub45
d3-animate-choice,144,885902,0.0-76.0-0.3,TRUE,TRUE,FALSE,TRUE,"""event"",""trial"",""time""
""fullscreenenter"",""5"",""14932""
","
","
","""event"",""trial"",""time""
""fullscreenenter"",""5"",""14932""
","
",827.095000015106,NA,48,NA,NA,3000,1,NA,NA,images/earth.jpg,images/rocket2,images/rocket1,null,images/rocket2,NA,1,real,null,2,NA,NA,NA,sub45
d3-animate-choice,145,888355,0.0-76.0-1.3,TRUE,TRUE,FALSE,TRUE,"""event"",""trial"",""time""
""fullscreenenter"",""5"",""14932""
","
","
","""event"",""trial"",""time""
""fullscreenenter"",""5"",""14932""
","
",441.0550000029616,NA,48,NA,NA,3000,1,NA,NA,images/purpleplanet.jpg,images/alien4,images/alien3,images/rocket2,images/alien4,images/nothing.png,2,real,true,2,common,0,2020-06-12T16:58:19Z,sub45
two-step-fixation,146,889364,0.0-76.0-2.3,TRUE,TRUE,FALSE,TRUE,"""event"",""trial"",""time""
""fullscreenenter"",""5"",""14932""
","
","
","""event"",""trial"",""time""
""fullscreenenter"",""5"",""14932""
","
",NA,images/earth.jpg,NA,NA,NA,NA,NA,NA,NA,NA,NA,NA,NA,NA,NA,fixation,NA,NA,NA,NA,NA,NA,sub45
d3-animate-choice,147,892975,0.0-76.0-0.4,TRUE,TRUE,FALSE,TRUE,"""event"",""trial"",""time""
""fullscreenenter"",""5"",""14932""
","
","
","""event"",""trial"",""time""
""fullscreenenter"",""5"",""14932""
","
",1595.8200000459328,NA,49,NA,NA,3000,1,NA,NA,images/earth.jpg,images/rocket2,images/rocket1,null,images/rocket1,NA,1,real,null,1,NA,NA,NA,sub45
d3-animate-choice,148,895736,0.0-76.0-1.4,TRUE,TRUE,FALSE,TRUE,"""event"",""trial"",""time""
""fullscreenenter"",""5"",""14932""
","
","
","""event"",""trial"",""time""
""fullscreenenter"",""5"",""14932""
","
",431.58500001300126,NA,16,NA,NA,3000,1,741.1800000118092,49,images/purpleplanet.jpg,images/alien4,images/alien3,images/rocket1,images/alien3,images/t.png,2,real,false,NA,rare,1,2020-06-12T16:58:26Z,sub45
two-step-fixation,149,896743,0.0-76.0-2.4,TRUE,TRUE,FALSE,TRUE,"""event"",""trial"",""time""
""fullscreenenter"",""5"",""14932""
","
","
","""event"",""trial"",""time""
""fullscreenenter"",""5"",""14932""
","
",NA,images/earth.jpg,NA,NA,NA,NA,NA,NA,NA,NA,NA,NA,NA,NA,NA,fixation,NA,NA,NA,NA,NA,NA,sub45
d3-animate-choice,150,899351,0.0-76.0-0.5,TRUE,TRUE,FALSE,TRUE,"""event"",""trial"",""time""
""fullscreenenter"",""5"",""14932""
","
","
","""event"",""trial"",""time""
""fullscreenenter"",""5"",""14932""
","
",590.6449999893084,NA,49,NA,NA,3000,1,NA,NA,images/earth.jpg,images/rocket2,images/rocket1,null,images/rocket1,NA,1,real,null,1,NA,NA,NA,sub45
d3-animate-choice,151,902297,0.0-76.0-1.5,TRUE,TRUE,FALSE,TRUE,"""event"",""trial"",""time""
""fullscreenenter"",""5"",""14932""
","
","
","""event"",""trial"",""time""
""fullscreenenter"",""5"",""14932""
","
",937.6650000340305,NA,49,NA,NA,3000,1,NA,NA,images/redplanet1.jpg,images/alien2,images/alien1,images/rocket1,images/alien1,images/nothing.png,2,real,true,1,common,0,2020-06-12T16:58:33Z,sub45
two-step-fixation,152,903312,0.0-76.0-2.5,TRUE,TRUE,FALSE,TRUE,"""event"",""trial"",""time""
""fullscreenenter"",""5"",""14932""
","
","
","""event"",""trial"",""time""
""fullscreenenter"",""5"",""14932""
","
",NA,images/earth.jpg,NA,NA,NA,NA,NA,NA,NA,NA,NA,NA,NA,NA,NA,fixation,NA,NA,NA,NA,NA,NA,sub45
d3-animate-choice,153,905776,0.0-76.0-0.6,TRUE,TRUE,FALSE,TRUE,"""event"",""trial"",""time""
""fullscreenenter"",""5"",""14932""
","
","
","""event"",""trial"",""time""
""fullscreenenter"",""5"",""14932""
","
",439.684999990277,NA,49,NA,NA,3000,1,NA,NA,images/earth.jpg,images/rocket2,images/rocket1,null,images/rocket1,NA,1,real,null,1,NA,NA,NA,sub45
d3-animate-choice,154,908567,0.0-76.0-1.6,TRUE,TRUE,FALSE,TRUE,"""event"",""trial"",""time""
""fullscreenenter"",""5"",""14932""
","
","
","""event"",""trial"",""time""
""fullscreenenter"",""5"",""14932""
","
",770.4299999750219,NA,49,NA,NA,3000,1,NA,NA,images/purpleplanet.jpg,images/alien4,images/alien3,images/rocket1,images/alien3,images/nothing.png,2,real,false,1,rare,0,2020-06-12T16:58:39Z,sub45
two-step-fixation,155,909582,0.0-76.0-2.6,TRUE,TRUE,FALSE,TRUE,"""event"",""trial"",""time""
""fullscreenenter"",""5"",""14932""
","
","
","""event"",""trial"",""time""
""fullscreenenter"",""5"",""14932""
","
",NA,images/earth.jpg,NA,NA,NA,NA,NA,NA,NA,NA,NA,NA,NA,NA,NA,fixation,NA,NA,NA,NA,NA,NA,sub45
d3-animate-choice,156,912292,0.0-76.0-0.7,TRUE,TRUE,FALSE,TRUE,"""event"",""trial"",""time""
""fullscreenenter"",""5"",""14932""
","
","
","""event"",""trial"",""time""
""fullscreenenter"",""5"",""14932""
","
",690.8999999868684,NA,49,NA,NA,3000,1,NA,NA,images/earth.jpg,images/rocket2,images/rocket1,null,images/rocket1,NA,1,real,null,1,NA,NA,NA,sub45
d3-animate-choice,157,914908,0.0-76.0-1.7,TRUE,TRUE,FALSE,TRUE,"""event"",""trial"",""time""
""fullscreenenter"",""5"",""14932""
","
","
","""event"",""trial"",""time""
""fullscreenenter"",""5"",""14932""
","
",596.8149999971502,NA,49,NA,NA,3000,1,NA,NA,images/purpleplanet.jpg,images/alien4,images/alien3,images/rocket1,images/alien3,images/t.png,2,real,false,1,rare,1,2020-06-12T16:58:45Z,sub45
two-step-fixation,158,915929,0.0-76.0-2.7,TRUE,TRUE,FALSE,TRUE,"""event"",""trial"",""time""
""fullscreenenter"",""5"",""14932""
","
","
","""event"",""trial"",""time""
""fullscreenenter"",""5"",""14932""
","
",NA,images/earth.jpg,NA,NA,NA,NA,NA,NA,NA,NA,NA,NA,NA,NA,NA,fixation,NA,NA,NA,NA,NA,NA,sub45
d3-animate-choice,159,918792,0.0-76.0-0.8,TRUE,TRUE,FALSE,TRUE,"""event"",""trial"",""time""
""fullscreenenter"",""5"",""14932""
","
","
","""event"",""trial"",""time""
""fullscreenenter"",""5"",""14932""
","
",831.9250000058673,NA,49,NA,NA,3000,1,NA,NA,images/earth.jpg,images/rocket2,images/rocket1,null,images/rocket1,NA,1,real,null,1,NA,NA,NA,sub45
d3-animate-choice,160,921388,0.0-76.0-1.8,TRUE,TRUE,FALSE,TRUE,"""event"",""trial"",""time""
""fullscreenenter"",""5"",""14932""
","
","
","""event"",""trial"",""time""
""fullscreenenter"",""5"",""14932""
","
",573.0699999839999,NA,49,NA,NA,3000,1,NA,NA,images/redplanet1.jpg,images/alien2,images/alien1,images/rocket1,images/alien1,images/nothing.png,2,real,true,1,common,0,2020-06-12T16:58:52Z,sub45
two-step-fixation,161,922406,0.0-76.0-2.8,TRUE,TRUE,FALSE,TRUE,"""event"",""trial"",""time""
""fullscreenenter"",""5"",""14932""
","
","
","""event"",""trial"",""time""
""fullscreenenter"",""5"",""14932""
","
",NA,images/earth.jpg,NA,NA,NA,NA,NA,NA,NA,NA,NA,NA,NA,NA,NA,fixation,NA,NA,NA,NA,NA,NA,sub45
d3-animate-choice,162,925243,0.0-76.0-0.9,TRUE,TRUE,FALSE,TRUE,"""event"",""trial"",""time""
""fullscreenenter"",""5"",""14932""
","
","
","""event"",""trial"",""time""
""fullscreenenter"",""5"",""14932""
","
",826.6299999668263,NA,49,NA,NA,3000,1,2505.9049999690615,49,images/earth.jpg,images/rocket2,images/rocket1,null,images/rocket1,NA,1,real,null,1,NA,NA,NA,sub45
d3-animate-choice,163,928238,0.0-76.0-1.9,TRUE,TRUE,FALSE,TRUE,"""event"",""trial"",""time""
""fullscreenenter"",""5"",""14932""
","
","
","""event"",""trial"",""time""
""fullscreenenter"",""5"",""14932""
","
",966.5849999873899,NA,49,NA,NA,3000,1,NA,NA,images/purpleplanet.jpg,images/alien4,images/alien3,images/rocket1,images/alien3,images/nothing.png,2,real,false,1,rare,0,2020-06-12T16:58:59Z,sub45
two-step-fixation,164,929263,0.0-76.0-2.9,TRUE,TRUE,FALSE,TRUE,"""event"",""trial"",""time""
""fullscreenenter"",""5"",""14932""
","
","
","""event"",""trial"",""time""
""fullscreenenter"",""5"",""14932""
","
",NA,images/earth.jpg,NA,NA,NA,NA,NA,NA,NA,NA,NA,NA,NA,NA,NA,fixation,NA,NA,NA,NA,NA,NA,sub45
d3-animate-choice,165,931988,0.0-76.0-0.10,TRUE,TRUE,FALSE,TRUE,"""event"",""trial"",""time""
""fullscreenenter"",""5"",""14932""
","
","
","""event"",""trial"",""time""
""fullscreenenter"",""5"",""14932""
","
",703.5500000347383,NA,48,NA,NA,3000,1,NA,NA,images/earth.jpg,images/rocket2,images/rocket1,null,images/rocket2,NA,1,real,null,2,NA,NA,NA,sub45
d3-animate-choice,166,934785,0.0-76.0-1.10,TRUE,TRUE,FALSE,TRUE,"""event"",""trial"",""time""
""fullscreenenter"",""5"",""14932""
","
","
","""event"",""trial"",""time""
""fullscreenenter"",""5"",""14932""
","
",775.6999999983236,NA,49,NA,NA,3000,1,NA,NA,images/purpleplanet.jpg,images/alien4,images/alien3,images/rocket2,images/alien3,images/nothing.png,2,real,true,1,common,0,2020-06-12T16:59:05Z,sub45
two-step-fixation,167,935799,0.0-76.0-2.10,TRUE,TRUE,FALSE,TRUE,"""event"",""trial"",""time""
""fullscreenenter"",""5"",""14932""
","
","
","""event"",""trial"",""time""
""fullscreenenter"",""5"",""14932""
","
",NA,images/earth.jpg,NA,NA,NA,NA,NA,NA,NA,NA,NA,NA,NA,NA,NA,fixation,NA,NA,NA,NA,NA,NA,sub45
d3-animate-choice,168,938366,0.0-76.0-0.11,TRUE,TRUE,FALSE,TRUE,"""event"",""trial"",""time""
""fullscreenenter"",""5"",""14932""
","
","
","""event"",""trial"",""time""
""fullscreenenter"",""5"",""14932""
","
",543.4000000241213,NA,48,NA,NA,3000,1,NA,NA,images/earth.jpg,images/rocket2,images/rocket1,null,images/rocket2,NA,1,real,null,2,NA,NA,NA,sub45
d3-animate-choice,169,941268,0.0-76.0-1.11,TRUE,TRUE,FALSE,TRUE,"""event"",""trial"",""time""
""fullscreenenter"",""5"",""14932""
","
","
","""event"",""trial"",""time""
""fullscreenenter"",""5"",""14932""
","
",877.0999999833293,NA,49,NA,NA,3000,1,NA,NA,images/purpleplanet.jpg,images/alien4,images/alien3,images/rocket2,images/alien3,images/nothing.png,2,real,true,1,common,0,2020-06-12T16:59:12Z,sub45
two-step-fixation,170,942284,0.0-76.0-2.11,TRUE,TRUE,FALSE,TRUE,"""event"",""trial"",""time""
""fullscreenenter"",""5"",""14932""
","
","
","""event"",""trial"",""time""
""fullscreenenter"",""5"",""14932""
","
",NA,images/earth.jpg,NA,NA,NA,NA,NA,NA,NA,NA,NA,NA,NA,NA,NA,fixation,NA,NA,NA,NA,NA,NA,sub45
d3-animate-choice,171,944639,0.0-76.0-0.12,TRUE,TRUE,FALSE,TRUE,"""event"",""trial"",""time""
""fullscreenenter"",""5"",""14932""
","
","
","""event"",""trial"",""time""
""fullscreenenter"",""5"",""14932""
","
",333.76999996835366,NA,48,NA,NA,3000,1,NA,NA,images/earth.jpg,images/rocket2,images/rocket1,null,images/rocket2,NA,1,real,null,2,NA,NA,NA,sub45
d3-animate-choice,172,948058,0.0-76.0-1.12,TRUE,TRUE,FALSE,TRUE,"""event"",""trial"",""time""
""fullscreenenter"",""5"",""14932""
","
","
","""event"",""trial"",""time""
""fullscreenenter"",""5"",""14932""
","
",1388.7600000016391,NA,48,NA,NA,3000,1,NA,NA,images/purpleplanet.jpg,images/alien4,images/alien3,images/rocket2,images/alien4,images/t.png,2,real,true,2,common,1,2020-06-12T16:59:19Z,sub45
two-step-fixation,173,949082,0.0-76.0-2.12,TRUE,TRUE,FALSE,TRUE,"""event"",""trial"",""time""
""fullscreenenter"",""5"",""14932""
","
","
","""event"",""trial"",""time""
""fullscreenenter"",""5"",""14932""
","
",NA,images/earth.jpg,NA,NA,NA,NA,NA,NA,NA,NA,NA,NA,NA,NA,NA,fixation,NA,NA,NA,NA,NA,NA,sub45
d3-animate-choice,174,951789,0.0-76.0-0.13,TRUE,TRUE,FALSE,TRUE,"""event"",""trial"",""time""
""fullscreenenter"",""5"",""14932""
","
","
","""event"",""trial"",""time""
""fullscreenenter"",""5"",""14932""
","
",685.3049999917857,NA,49,NA,NA,3000,1,NA,NA,images/earth.jpg,images/rocket2,images/rocket1,null,images/rocket1,NA,1,real,null,1,NA,NA,NA,sub45
d3-animate-choice,175,954631,0.0-76.0-1.13,TRUE,TRUE,FALSE,TRUE,"""event"",""trial"",""time""
""fullscreenenter"",""5"",""14932""
","
","
","""event"",""trial"",""time""
""fullscreenenter"",""5"",""14932""
","
",831.1450000037439,NA,49,NA,NA,3000,1,NA,NA,images/purpleplanet.jpg,images/alien4,images/alien3,images/rocket1,images/alien3,images/nothing.png,2,real,false,1,rare,0,2020-06-12T16:59:25Z,sub45
two-step-fixation,176,955651,0.0-76.0-2.13,TRUE,TRUE,FALSE,TRUE,"""event"",""trial"",""time""
""fullscreenenter"",""5"",""14932""
","
","
","""event"",""trial"",""time""
""fullscreenenter"",""5"",""14932""
","
",NA,images/earth.jpg,NA,NA,NA,NA,NA,NA,NA,NA,NA,NA,NA,NA,NA,fixation,NA,NA,NA,NA,NA,NA,sub45
d3-animate-choice,177,958248,0.0-76.0-0.14,TRUE,TRUE,FALSE,TRUE,"""event"",""trial"",""time""
""fullscreenenter"",""5"",""14932""
","
","
","""event"",""trial"",""time""
""fullscreenenter"",""5"",""14932""
","
",574.460000032559,NA,48,NA,NA,3000,1,NA,NA,images/earth.jpg,images/rocket2,images/rocket1,null,images/rocket2,NA,1,real,null,2,NA,NA,NA,sub45
d3-animate-choice,178,961518,0.0-76.0-1.14,TRUE,TRUE,FALSE,TRUE,"""event"",""trial"",""time""
""fullscreenenter"",""5"",""14932""
","
","
","""event"",""trial"",""time""
""fullscreenenter"",""5"",""14932""
","
",1244.1749999998137,NA,48,NA,NA,3000,1,NA,NA,images/redplanet1.jpg,images/alien2,images/alien1,images/rocket2,images/alien2,images/t.png,2,real,false,2,rare,1,2020-06-12T16:59:32Z,sub45
two-step-fixation,179,962532,0.0-76.0-2.14,TRUE,TRUE,FALSE,TRUE,"""event"",""trial"",""time""
""fullscreenenter"",""5"",""14932""
","
","
","""event"",""trial"",""time""
""fullscreenenter"",""5"",""14932""
","
",NA,images/earth.jpg,NA,NA,NA,NA,NA,NA,NA,NA,NA,NA,NA,NA,NA,fixation,NA,NA,NA,NA,NA,NA,sub45
d3-animate-choice,180,965307,0.0-76.0-0.15,TRUE,TRUE,FALSE,TRUE,"""event"",""trial"",""time""
""fullscreenenter"",""5"",""14932""
","
","
","""event"",""trial"",""time""
""fullscreenenter"",""5"",""14932""
","
",751.4499999815598,NA,48,NA,NA,3000,1,NA,NA,images/earth.jpg,images/rocket2,images/rocket1,null,images/rocket2,NA,1,real,null,2,NA,NA,NA,sub45
d3-animate-choice,181,968237,0.0-76.0-1.15,TRUE,TRUE,FALSE,TRUE,"""event"",""trial"",""time""
""fullscreenenter"",""5"",""14932""
","
","
","""event"",""trial"",""time""
""fullscreenenter"",""5"",""14932""
","
",904.8750000074506,NA,48,NA,NA,3000,1,NA,NA,images/redplanet1.jpg,images/alien2,images/alien1,images/rocket2,images/alien2,images/t.png,2,real,false,2,rare,1,2020-06-12T16:59:39Z,sub45
two-step-fixation,182,969256,0.0-76.0-2.15,TRUE,TRUE,FALSE,TRUE,"""event"",""trial"",""time""
""fullscreenenter"",""5"",""14932""
","
","
","""event"",""trial"",""time""
""fullscreenenter"",""5"",""14932""
","
",NA,images/earth.jpg,NA,NA,NA,NA,NA,NA,NA,NA,NA,NA,NA,NA,NA,fixation,NA,NA,NA,NA,NA,NA,sub45
d3-animate-choice,183,972268,0.0-76.0-0.16,TRUE,TRUE,FALSE,TRUE,"""event"",""trial"",""time""
""fullscreenenter"",""5"",""14932""
","
","
","""event"",""trial"",""time""
""fullscreenenter"",""5"",""14932""
","
",990.9850000403821,NA,49,NA,NA,3000,1,NA,NA,images/earth.jpg,images/rocket2,images/rocket1,null,images/rocket1,NA,1,real,null,1,NA,NA,NA,sub45
d3-animate-choice,184,975140,0.0-76.0-1.16,TRUE,TRUE,FALSE,TRUE,"""event"",""trial"",""time""
""fullscreenenter"",""5"",""14932""
","
","
","""event"",""trial"",""time""
""fullscreenenter"",""5"",""14932""
","
",844.3850000039674,NA,49,NA,NA,3000,1,NA,NA,images/redplanet1.jpg,images/alien2,images/alien1,images/rocket1,images/alien1,images/t.png,2,real,true,1,common,1,2020-06-12T16:59:46Z,sub45
two-step-fixation,185,976156,0.0-76.0-2.16,TRUE,TRUE,FALSE,TRUE,"""event"",""trial"",""time""
""fullscreenenter"",""5"",""14932""
","
","
","""event"",""trial"",""time""
""fullscreenenter"",""5"",""14932""
","
",NA,images/earth.jpg,NA,NA,NA,NA,NA,NA,NA,NA,NA,NA,NA,NA,NA,fixation,NA,NA,NA,NA,NA,NA,sub45
d3-animate-choice,186,978709,0.0-76.0-0.17,TRUE,TRUE,FALSE,TRUE,"""event"",""trial"",""time""
""fullscreenenter"",""5"",""14932""
","
","
","""event"",""trial"",""time""
""fullscreenenter"",""5"",""14932""
","
",530.2950000041164,NA,49,NA,NA,3000,1,NA,NA,images/earth.jpg,images/rocket2,images/rocket1,null,images/rocket1,NA,1,real,null,1,NA,NA,NA,sub45
d3-animate-choice,187,981446,0.0-76.0-1.17,TRUE,TRUE,FALSE,TRUE,"""event"",""trial"",""time""
""fullscreenenter"",""5"",""14932""
","
","
","""event"",""trial"",""time""
""fullscreenenter"",""5"",""14932""
","
",714.8600000073202,NA,49,NA,NA,3000,1,NA,NA,images/purpleplanet.jpg,images/alien4,images/alien3,images/rocket1,images/alien3,images/nothing.png,2,real,false,1,rare,0,2020-06-12T16:59:52Z,sub45
two-step-fixation,188,982471,0.0-76.0-2.17,TRUE,TRUE,FALSE,TRUE,"""event"",""trial"",""time""
""fullscreenenter"",""5"",""14932""
","
","
","""event"",""trial"",""time""
""fullscreenenter"",""5"",""14932""
","
",NA,images/earth.jpg,NA,NA,NA,NA,NA,NA,NA,NA,NA,NA,NA,NA,NA,fixation,NA,NA,NA,NA,NA,NA,sub45
d3-animate-choice,189,984998,0.0-76.0-0.18,TRUE,TRUE,FALSE,TRUE,"""event"",""trial"",""time""
""fullscreenenter"",""5"",""14932""
","
","
","""event"",""trial"",""time""
""fullscreenenter"",""5"",""14932""
","
",501.1600000434555,NA,48,NA,NA,3000,1,NA,NA,images/earth.jpg,images/rocket2,images/rocket1,null,images/rocket2,NA,1,real,null,2,NA,NA,NA,sub45
d3-animate-choice,190,987710,0.0-76.0-1.18,TRUE,TRUE,FALSE,TRUE,"""event"",""trial"",""time""
""fullscreenenter"",""5"",""14932""
","
","
","""event"",""trial"",""time""
""fullscreenenter"",""5"",""14932""
","
",681.864999991376,NA,49,NA,NA,3000,1,NA,NA,images/purpleplanet.jpg,images/alien4,images/alien3,images/rocket2,images/alien3,images/nothing.png,2,real,true,1,common,0,2020-06-12T16:59:58Z,sub45
two-step-fixation,191,988725,0.0-76.0-2.18,TRUE,TRUE,FALSE,TRUE,"""event"",""trial"",""time""
""fullscreenenter"",""5"",""14932""
","
","
","""event"",""trial"",""time""
""fullscreenenter"",""5"",""14932""
","
",NA,images/earth.jpg,NA,NA,NA,NA,NA,NA,NA,NA,NA,NA,NA,NA,NA,fixation,NA,NA,NA,NA,NA,NA,sub45
d3-animate-choice,192,991916,0.0-76.0-0.19,TRUE,TRUE,FALSE,TRUE,"""event"",""trial"",""time""
""fullscreenenter"",""5"",""14932""
","
","
","""event"",""trial"",""time""
""fullscreenenter"",""5"",""14932""
","
",1178.9299999945797,NA,48,NA,NA,3000,1,NA,NA,images/earth.jpg,images/rocket2,images/rocket1,null,images/rocket2,NA,1,real,null,2,NA,NA,NA,sub45
d3-animate-choice,193,994668,0.0-76.0-1.19,TRUE,TRUE,FALSE,TRUE,"""event"",""trial"",""time""
""fullscreenenter"",""5"",""14932""
","
","
","""event"",""trial"",""time""
""fullscreenenter"",""5"",""14932""
","
",721.140000037849,NA,49,NA,NA,3000,1,NA,NA,images/redplanet1.jpg,images/alien2,images/alien1,images/rocket2,images/alien1,images/nothing.png,2,real,false,1,rare,0,2020-06-12T17:00:05Z,sub45
two-step-fixation,194,995694,0.0-76.0-2.19,TRUE,TRUE,FALSE,TRUE,"""event"",""trial"",""time""
""fullscreenenter"",""5"",""14932""
","
","
","""event"",""trial"",""time""
""fullscreenenter"",""5"",""14932""
","
",NA,images/earth.jpg,NA,NA,NA,NA,NA,NA,NA,NA,NA,NA,NA,NA,NA,fixation,NA,NA,NA,NA,NA,NA,sub45
d3-animate-choice,195,999036,0.0-76.0-0.20,TRUE,TRUE,FALSE,TRUE,"""event"",""trial"",""time""
""fullscreenenter"",""5"",""14932""
","
","
","""event"",""trial"",""time""
""fullscreenenter"",""5"",""14932""
","
",1316.0250000073574,NA,48,NA,NA,3000,1,NA,NA,images/earth.jpg,images/rocket2,images/rocket1,null,images/rocket2,NA,1,real,null,2,NA,NA,NA,sub45
d3-animate-choice,196,1001517,0.0-76.0-1.20,TRUE,TRUE,FALSE,TRUE,"""event"",""trial"",""time""
""fullscreenenter"",""5"",""14932""
","
","
","""event"",""trial"",""time""
""fullscreenenter"",""5"",""14932""
","
",456.97500003734604,NA,48,NA,NA,3000,1,NA,NA,images/purpleplanet.jpg,images/alien4,images/alien3,images/rocket2,images/alien4,images/nothing.png,2,real,true,2,common,0,2020-06-12T17:00:12Z,sub45
two-step-fixation,197,1002537,0.0-76.0-2.20,TRUE,TRUE,FALSE,TRUE,"""event"",""trial"",""time""
""fullscreenenter"",""5"",""14932""
","
","
","""event"",""trial"",""time""
""fullscreenenter"",""5"",""14932""
","
",NA,images/earth.jpg,NA,NA,NA,NA,NA,NA,NA,NA,NA,NA,NA,NA,NA,fixation,NA,NA,NA,NA,NA,NA,sub45
d3-animate-choice,198,1005139,0.0-76.0-0.21,TRUE,TRUE,FALSE,TRUE,"""event"",""trial"",""time""
""fullscreenenter"",""5"",""14932""
","
","
","""event"",""trial"",""time""
""fullscreenenter"",""5"",""14932""
","
",586.5299999713898,NA,48,NA,NA,3000,1,NA,NA,images/earth.jpg,images/rocket2,images/rocket1,null,images/rocket2,NA,1,real,null,2,NA,NA,NA,sub45
d3-animate-choice,199,1007472,0.0-76.0-1.21,TRUE,TRUE,FALSE,TRUE,"""event"",""trial"",""time""
""fullscreenenter"",""5"",""14932""
","
","
","""event"",""trial"",""time""
""fullscreenenter"",""5"",""14932""
","
",316.7200000025332,NA,48,NA,NA,3000,1,NA,NA,images/purpleplanet.jpg,images/alien4,images/alien3,images/rocket2,images/alien4,images/nothing.png,2,real,true,2,common,0,2020-06-12T17:00:18Z,sub45
two-step-fixation,200,1008494,0.0-76.0-2.21,TRUE,TRUE,FALSE,TRUE,"""event"",""trial"",""time""
""fullscreenenter"",""5"",""14932""
","
","
","""event"",""trial"",""time""
""fullscreenenter"",""5"",""14932""
","
",NA,images/earth.jpg,NA,NA,NA,NA,NA,NA,NA,NA,NA,NA,NA,NA,NA,fixation,NA,NA,NA,NA,NA,NA,sub45
d3-animate-choice,201,1011092,0.0-76.0-0.22,TRUE,TRUE,FALSE,TRUE,"""event"",""trial"",""time""
""fullscreenenter"",""5"",""14932""
","
","
","""event"",""trial"",""time""
""fullscreenenter"",""5"",""14932""
","
",578.1950000091456,NA,48,NA,NA,3000,1,NA,NA,images/earth.jpg,images/rocket2,images/rocket1,null,images/rocket2,NA,1,real,null,2,NA,NA,NA,sub45
d3-animate-choice,202,1013496,0.0-76.0-1.22,TRUE,TRUE,FALSE,TRUE,"""event"",""trial"",""time""
""fullscreenenter"",""5"",""14932""
","
","
","""event"",""trial"",""time""
""fullscreenenter"",""5"",""14932""
","
",376.700000022538,NA,48,NA,NA,3000,1,NA,NA,images/purpleplanet.jpg,images/alien4,images/alien3,images/rocket2,images/alien4,images/t.png,2,real,true,2,common,1,2020-06-12T17:00:24Z,sub45
two-step-fixation,203,1014516,0.0-76.0-2.22,TRUE,TRUE,FALSE,TRUE,"""event"",""trial"",""time""
""fullscreenenter"",""5"",""14932""
","
","
","""event"",""trial"",""time""
""fullscreenenter"",""5"",""14932""
","
",NA,images/earth.jpg,NA,NA,NA,NA,NA,NA,NA,NA,NA,NA,NA,NA,NA,fixation,NA,NA,NA,NA,NA,NA,sub45
d3-animate-choice,204,1018552,0.0-76.0-0.23,TRUE,TRUE,FALSE,TRUE,"""event"",""trial"",""time""
""fullscreenenter"",""5"",""14932""
","
","
","""event"",""trial"",""time""
""fullscreenenter"",""5"",""14932""
","
",2504.25500003621,NA,48,NA,NA,3000,1,NA,NA,images/earth.jpg,images/rocket2,images/rocket1,null,images/rocket2,NA,1,real,null,2,NA,NA,NA,sub45
d3-animate-choice,205,1021498,0.0-76.0-1.23,TRUE,TRUE,FALSE,TRUE,"""event"",""trial"",""time""
""fullscreenenter"",""5"",""14932""
","
","
","""event"",""trial"",""time""
""fullscreenenter"",""5"",""14932""
","
",924.8699999880046,NA,48,NA,NA,3000,1,NA,NA,images/redplanet1.jpg,images/alien2,images/alien1,images/rocket2,images/alien2,images/nothing.png,2,real,false,2,rare,0,2020-06-12T17:00:32Z,sub45
two-step-fixation,206,1022522,0.0-76.0-2.23,TRUE,TRUE,FALSE,TRUE,"""event"",""trial"",""time""
""fullscreenenter"",""5"",""14932""
","
","
","""event"",""trial"",""time""
""fullscreenenter"",""5"",""14932""
","
",NA,images/earth.jpg,NA,NA,NA,NA,NA,NA,NA,NA,NA,NA,NA,NA,NA,fixation,NA,NA,NA,NA,NA,NA,sub45
d3-animate-choice,207,1025445,0.0-76.0-0.24,TRUE,TRUE,FALSE,TRUE,"""event"",""trial"",""time""
""fullscreenenter"",""5"",""14932""
","
","
","""event"",""trial"",""time""
""fullscreenenter"",""5"",""14932""
","
",899.8000000137836,NA,48,NA,NA,3000,1,NA,NA,images/earth.jpg,images/rocket2,images/rocket1,null,images/rocket2,NA,1,real,null,2,NA,NA,NA,sub45
d3-animate-choice,208,1028942,0.0-76.0-1.24,TRUE,TRUE,FALSE,TRUE,"""event"",""trial"",""time""
""fullscreenenter"",""5"",""14932""
","
","
","""event"",""trial"",""time""
""fullscreenenter"",""5"",""14932""
","
",1478.76999998698,NA,48,NA,NA,3000,1,NA,NA,images/purpleplanet.jpg,images/alien4,images/alien3,images/rocket2,images/alien4,images/t.png,2,real,true,2,common,1,2020-06-12T17:00:39Z,sub45
two-step-fixation,209,1029960,0.0-76.0-2.24,TRUE,TRUE,FALSE,TRUE,"""event"",""trial"",""time""
""fullscreenenter"",""5"",""14932""
","
","
","""event"",""trial"",""time""
""fullscreenenter"",""5"",""14932""
","
",NA,images/earth.jpg,NA,NA,NA,NA,NA,NA,NA,NA,NA,NA,NA,NA,NA,fixation,NA,NA,NA,NA,NA,NA,sub45
d3-animate-choice,210,1033077,0.0-76.0-0.25,TRUE,TRUE,FALSE,TRUE,"""event"",""trial"",""time""
""fullscreenenter"",""5"",""14932""
","
","
","""event"",""trial"",""time""
""fullscreenenter"",""5"",""14932""
","
",1088.3649999741465,NA,48,NA,NA,3000,1,NA,NA,images/earth.jpg,images/rocket2,images/rocket1,null,images/rocket2,NA,1,real,null,2,NA,NA,NA,sub45
d3-animate-choice,211,1035878,0.0-76.0-1.25,TRUE,TRUE,FALSE,TRUE,"""event"",""trial"",""time""
""fullscreenenter"",""5"",""14932""
","
","
","""event"",""trial"",""time""
""fullscreenenter"",""5"",""14932""
","
",785.7349999831058,NA,48,NA,NA,3000,1,NA,NA,images/purpleplanet.jpg,images/alien4,images/alien3,images/rocket2,images/alien4,images/t.png,2,real,true,2,common,1,2020-06-12T17:00:46Z,sub45
two-step-fixation,212,1036894,0.0-76.0-2.25,TRUE,TRUE,FALSE,TRUE,"""event"",""trial"",""time""
""fullscreenenter"",""5"",""14932""
","
","
","""event"",""trial"",""time""
""fullscreenenter"",""5"",""14932""
","
",NA,images/earth.jpg,NA,NA,NA,NA,NA,NA,NA,NA,NA,NA,NA,NA,NA,fixation,NA,NA,NA,NA,NA,NA,sub45
d3-animate-choice,213,1039770,0.0-76.0-0.26,TRUE,TRUE,FALSE,TRUE,"""event"",""trial"",""time""
""fullscreenenter"",""5"",""14932""
","
","
","""event"",""trial"",""time""
""fullscreenenter"",""5"",""14932""
","
",849.3200000375509,NA,48,NA,NA,3000,1,NA,NA,images/earth.jpg,images/rocket2,images/rocket1,null,images/rocket2,NA,1,real,null,2,NA,NA,NA,sub45
d3-animate-choice,214,1042660,0.0-76.0-1.26,TRUE,TRUE,FALSE,TRUE,"""event"",""trial"",""time""
""fullscreenenter"",""5"",""14932""
","
","
","""event"",""trial"",""time""
""fullscreenenter"",""5"",""14932""
","
",873.4800000092946,NA,48,NA,NA,3000,1,NA,NA,images/purpleplanet.jpg,images/alien4,images/alien3,images/rocket2,images/alien4,images/nothing.png,2,real,true,2,common,0,2020-06-12T17:00:53Z,sub45
two-step-fixation,215,1043680,0.0-76.0-2.26,TRUE,TRUE,FALSE,TRUE,"""event"",""trial"",""time""
""fullscreenenter"",""5"",""14932""
","
","
","""event"",""trial"",""time""
""fullscreenenter"",""5"",""14932""
","
",NA,images/earth.jpg,NA,NA,NA,NA,NA,NA,NA,NA,NA,NA,NA,NA,NA,fixation,NA,NA,NA,NA,NA,NA,sub45
d3-animate-choice,216,1046432,0.0-76.0-0.27,TRUE,TRUE,FALSE,TRUE,"""event"",""trial"",""time""
""fullscreenenter"",""5"",""14932""
","
","
","""event"",""trial"",""time""
""fullscreenenter"",""5"",""14932""
","
",727.2100000409409,NA,48,NA,NA,3000,1,NA,NA,images/earth.jpg,images/rocket2,images/rocket1,null,images/rocket2,NA,1,real,null,2,NA,NA,NA,sub45
d3-animate-choice,217,1048984,0.0-76.0-1.27,TRUE,TRUE,FALSE,TRUE,"""event"",""trial"",""time""
""fullscreenenter"",""5"",""14932""
","
","
","""event"",""trial"",""time""
""fullscreenenter"",""5"",""14932""
","
",525.4649999551475,NA,49,NA,NA,3000,1,NA,NA,images/purpleplanet.jpg,images/alien4,images/alien3,images/rocket2,images/alien3,images/t.png,2,real,true,1,common,1,2020-06-12T17:01:00Z,sub45
two-step-fixation,218,1049996,0.0-76.0-2.27,TRUE,TRUE,FALSE,TRUE,"""event"",""trial"",""time""
""fullscreenenter"",""5"",""14932""
","
","
","""event"",""trial"",""time""
""fullscreenenter"",""5"",""14932""
","
",NA,images/earth.jpg,NA,NA,NA,NA,NA,NA,NA,NA,NA,NA,NA,NA,NA,fixation,NA,NA,NA,NA,NA,NA,sub45
d3-animate-choice,219,1053701,0.0-76.0-0.28,TRUE,TRUE,FALSE,TRUE,"""event"",""trial"",""time""
""fullscreenenter"",""5"",""14932""
","
","
","""event"",""trial"",""time""
""fullscreenenter"",""5"",""14932""
","
",1673.720000020694,NA,48,NA,NA,3000,1,NA,NA,images/earth.jpg,images/rocket2,images/rocket1,null,images/rocket2,NA,1,real,null,2,NA,NA,NA,sub45
d3-animate-choice,220,1056295,0.0-76.0-1.28,TRUE,TRUE,FALSE,TRUE,"""event"",""trial"",""time""
""fullscreenenter"",""5"",""14932""
","
","
","""event"",""trial"",""time""
""fullscreenenter"",""5"",""14932""
","
",574.0799999912269,NA,49,NA,NA,3000,1,NA,NA,images/purpleplanet.jpg,images/alien4,images/alien3,images/rocket2,images/alien3,images/nothing.png,2,real,true,1,common,0,2020-06-12T17:01:07Z,sub45
two-step-fixation,221,1057317,0.0-76.0-2.28,TRUE,TRUE,FALSE,TRUE,"""event"",""trial"",""time""
""fullscreenenter"",""5"",""14932""
","
","
","""event"",""trial"",""time""
""fullscreenenter"",""5"",""14932""
","
",NA,images/earth.jpg,NA,NA,NA,NA,NA,NA,NA,NA,NA,NA,NA,NA,NA,fixation,NA,NA,NA,NA,NA,NA,sub45
d3-animate-choice,222,1059996,0.0-76.0-0.29,TRUE,TRUE,FALSE,TRUE,"""event"",""trial"",""time""
""fullscreenenter"",""5"",""14932""
","
","
","""event"",""trial"",""time""
""fullscreenenter"",""5"",""14932""
","
",663.8749999692664,NA,48,NA,NA,3000,1,NA,NA,images/earth.jpg,images/rocket2,images/rocket1,null,images/rocket2,NA,1,real,null,2,NA,NA,NA,sub45
d3-animate-choice,223,1062660,0.0-76.0-1.29,TRUE,TRUE,FALSE,TRUE,"""event"",""trial"",""time""
""fullscreenenter"",""5"",""14932""
","
","
","""event"",""trial"",""time""
""fullscreenenter"",""5"",""14932""
","
",637.589999998454,NA,49,NA,NA,3000,1,NA,NA,images/purpleplanet.jpg,images/alien4,images/alien3,images/rocket2,images/alien3,images/nothing.png,2,real,true,1,common,0,2020-06-12T17:01:13Z,sub45
two-step-fixation,224,1063673,0.0-76.0-2.29,TRUE,TRUE,FALSE,TRUE,"""event"",""trial"",""time""
""fullscreenenter"",""5"",""14932""
","
","
","""event"",""trial"",""time""
""fullscreenenter"",""5"",""14932""
","
",NA,images/earth.jpg,NA,NA,NA,NA,NA,NA,NA,NA,NA,NA,NA,NA,NA,fixation,NA,NA,NA,NA,NA,NA,sub45
d3-animate-choice,225,1066525,0.0-76.0-0.30,TRUE,TRUE,FALSE,TRUE,"""event"",""trial"",""time""
""fullscreenenter"",""5"",""14932""
","
","
","""event"",""trial"",""time""
""fullscreenenter"",""5"",""14932""
","
",832.5649999896996,NA,48,NA,NA,3000,1,NA,NA,images/earth.jpg,images/rocket2,images/rocket1,null,images/rocket2,NA,1,real,null,2,NA,NA,NA,sub45
d3-animate-choice,226,1069245,0.0-76.0-1.30,TRUE,TRUE,FALSE,TRUE,"""event"",""trial"",""time""
""fullscreenenter"",""5"",""14932""
","
","
","""event"",""trial"",""time""
""fullscreenenter"",""5"",""14932""
","
",702.835000003688,NA,48,NA,NA,3000,1,NA,NA,images/redplanet1.jpg,images/alien2,images/alien1,images/rocket2,images/alien2,images/nothing.png,2,real,false,2,rare,0,2020-06-12T17:01:20Z,sub45
two-step-fixation,227,1070267,0.0-76.0-2.30,TRUE,TRUE,FALSE,TRUE,"""event"",""trial"",""time""
""fullscreenenter"",""5"",""14932""
","
","
","""event"",""trial"",""time""
""fullscreenenter"",""5"",""14932""
","
",NA,images/earth.jpg,NA,NA,NA,NA,NA,NA,NA,NA,NA,NA,NA,NA,NA,fixation,NA,NA,NA,NA,NA,NA,sub45
d3-animate-choice,228,1072887,0.0-76.0-0.31,TRUE,TRUE,FALSE,TRUE,"""event"",""trial"",""time""
""fullscreenenter"",""5"",""14932""
","
","
","""event"",""trial"",""time""
""fullscreenenter"",""5"",""14932""
","
",597.9650000226684,NA,49,NA,NA,3000,1,NA,NA,images/earth.jpg,images/rocket2,images/rocket1,null,images/rocket1,NA,1,real,null,1,NA,NA,NA,sub45
d3-animate-choice,229,1075676,0.0-76.0-1.31,TRUE,TRUE,FALSE,TRUE,"""event"",""trial"",""time""
""fullscreenenter"",""5"",""14932""
","
","
","""event"",""trial"",""time""
""fullscreenenter"",""5"",""14932""
","
",773.0599999777041,NA,49,NA,NA,3000,1,NA,NA,images/redplanet1.jpg,images/alien2,images/alien1,images/rocket1,images/alien1,images/t.png,2,real,true,1,common,1,2020-06-12T17:01:26Z,sub45
two-step-fixation,230,1076695,0.0-76.0-2.31,TRUE,TRUE,FALSE,TRUE,"""event"",""trial"",""time""
""fullscreenenter"",""5"",""14932""
","
","
","""event"",""trial"",""time""
""fullscreenenter"",""5"",""14932""
","
",NA,images/earth.jpg,NA,NA,NA,NA,NA,NA,NA,NA,NA,NA,NA,NA,NA,fixation,NA,NA,NA,NA,NA,NA,sub45
d3-animate-choice,231,1079203,0.0-76.0-0.32,TRUE,TRUE,FALSE,TRUE,"""event"",""trial"",""time""
""fullscreenenter"",""5"",""14932""
","
","
","""event"",""trial"",""time""
""fullscreenenter"",""5"",""14932""
","
",486.1500000115484,NA,48,NA,NA,3000,1,NA,NA,images/earth.jpg,images/rocket2,images/rocket1,null,images/rocket2,NA,1,real,null,2,NA,NA,NA,sub45
d3-animate-choice,232,1082718,0.0-76.0-1.32,TRUE,TRUE,FALSE,TRUE,"""event"",""trial"",""time""
""fullscreenenter"",""5"",""14932""
","
","
","""event"",""trial"",""time""
""fullscreenenter"",""5"",""14932""
","
",1493.3299999684095,NA,49,NA,NA,3000,1,NA,NA,images/redplanet1.jpg,images/alien2,images/alien1,images/rocket2,images/alien1,images/t.png,2,real,false,1,rare,1,2020-06-12T17:01:33Z,sub45
two-step-fixation,233,1083731,0.0-76.0-2.32,TRUE,TRUE,FALSE,TRUE,"""event"",""trial"",""time""
""fullscreenenter"",""5"",""14932""
","
","
","""event"",""trial"",""time""
""fullscreenenter"",""5"",""14932""
","
",NA,images/earth.jpg,NA,NA,NA,NA,NA,NA,NA,NA,NA,NA,NA,NA,NA,fixation,NA,NA,NA,NA,NA,NA,sub45
d3-animate-choice,234,1086675,0.0-76.0-0.33,TRUE,TRUE,FALSE,TRUE,"""event"",""trial"",""time""
""fullscreenenter"",""5"",""14932""
","
","
","""event"",""trial"",""time""
""fullscreenenter"",""5"",""14932""
","
",921.6599999926984,NA,48,NA,NA,3000,1,NA,NA,images/earth.jpg,images/rocket2,images/rocket1,null,images/rocket2,NA,1,real,null,2,NA,NA,NA,sub45
d3-animate-choice,235,1089613,0.0-76.0-1.33,TRUE,TRUE,FALSE,TRUE,"""event"",""trial"",""time""
""fullscreenenter"",""5"",""14932""
","
","
","""event"",""trial"",""time""
""fullscreenenter"",""5"",""14932""
","
",922.0250000362284,NA,49,NA,NA,3000,1,NA,NA,images/purpleplanet.jpg,images/alien4,images/alien3,images/rocket2,images/alien3,images/nothing.png,2,real,true,1,common,0,2020-06-12T17:01:40Z,sub45
two-step-fixation,236,1090632,0.0-76.0-2.33,TRUE,TRUE,FALSE,TRUE,"""event"",""trial"",""time""
""fullscreenenter"",""5"",""14932""
","
","
","""event"",""trial"",""time""
""fullscreenenter"",""5"",""14932""
","
",NA,images/earth.jpg,NA,NA,NA,NA,NA,NA,NA,NA,NA,NA,NA,NA,NA,fixation,NA,NA,NA,NA,NA,NA,sub45
d3-animate-choice,237,1093178,0.0-76.0-0.34,TRUE,TRUE,FALSE,TRUE,"""event"",""trial"",""time""
""fullscreenenter"",""5"",""14932""
","
","
","""event"",""trial"",""time""
""fullscreenenter"",""5"",""14932""
","
",519.205000018701,NA,48,NA,NA,3000,1,NA,NA,images/earth.jpg,images/rocket2,images/rocket1,null,images/rocket2,NA,1,real,null,2,NA,NA,NA,sub45
d3-animate-choice,238,1095858,0.0-76.0-1.34,TRUE,TRUE,FALSE,TRUE,"""event"",""trial"",""time""
""fullscreenenter"",""5"",""14932""
","
","
","""event"",""trial"",""time""
""fullscreenenter"",""5"",""14932""
","
",653.7349999998696,NA,49,NA,NA,3000,1,NA,NA,images/redplanet1.jpg,images/alien2,images/alien1,images/rocket2,images/alien1,images/nothing.png,2,real,false,1,rare,0,2020-06-12T17:01:46Z,sub45
two-step-fixation,239,1096876,0.0-76.0-2.34,TRUE,TRUE,FALSE,TRUE,"""event"",""trial"",""time""
""fullscreenenter"",""5"",""14932""
","
","
","""event"",""trial"",""time""
""fullscreenenter"",""5"",""14932""
","
",NA,images/earth.jpg,NA,NA,NA,NA,NA,NA,NA,NA,NA,NA,NA,NA,NA,fixation,NA,NA,NA,NA,NA,NA,sub45
d3-animate-choice,240,1099642,0.0-76.0-0.35,TRUE,TRUE,FALSE,TRUE,"""event"",""trial"",""time""
""fullscreenenter"",""5"",""14932""
","
","
","""event"",""trial"",""time""
""fullscreenenter"",""5"",""14932""
","
",740.9450000268407,NA,48,NA,NA,3000,1,NA,NA,images/earth.jpg,images/rocket2,images/rocket1,null,images/rocket2,NA,1,real,null,2,NA,NA,NA,sub45
d3-animate-choice,241,1102211,0.0-76.0-1.35,TRUE,TRUE,FALSE,TRUE,"""event"",""trial"",""time""
""fullscreenenter"",""5"",""14932""
","
","
","""event"",""trial"",""time""
""fullscreenenter"",""5"",""14932""
","
",543.3549999725074,NA,49,NA,NA,3000,1,NA,NA,images/redplanet1.jpg,images/alien2,images/alien1,images/rocket2,images/alien1,images/t.png,2,real,false,1,rare,1,2020-06-12T17:01:53Z,sub45
two-step-fixation,242,1103229,0.0-76.0-2.35,TRUE,TRUE,FALSE,TRUE,"""event"",""trial"",""time""
""fullscreenenter"",""5"",""14932""
","
","
","""event"",""trial"",""time""
""fullscreenenter"",""5"",""14932""
","
",NA,images/earth.jpg,NA,NA,NA,NA,NA,NA,NA,NA,NA,NA,NA,NA,NA,fixation,NA,NA,NA,NA,NA,NA,sub45
d3-animate-choice,243,1106158,0.0-76.0-0.36,TRUE,TRUE,FALSE,TRUE,"""event"",""trial"",""time""
""fullscreenenter"",""5"",""14932""
","
","
","""event"",""trial"",""time""
""fullscreenenter"",""5"",""14932""
","
",909.029999980703,NA,48,NA,NA,3000,1,NA,NA,images/earth.jpg,images/rocket2,images/rocket1,null,images/rocket2,NA,1,real,null,2,NA,NA,NA,sub45
d3-animate-choice,244,1108706,0.0-76.0-1.36,TRUE,TRUE,FALSE,TRUE,"""event"",""trial"",""time""
""fullscreenenter"",""5"",""14932""
","
","
","""event"",""trial"",""time""
""fullscreenenter"",""5"",""14932""
","
",519.6849999483675,NA,48,NA,NA,3000,1,NA,NA,images/redplanet1.jpg,images/alien2,images/alien1,images/rocket2,images/alien2,images/nothing.png,2,real,false,2,rare,0,2020-06-12T17:01:59Z,sub45
two-step-fixation,245,1109729,0.0-76.0-2.36,TRUE,TRUE,FALSE,TRUE,"""event"",""trial"",""time""
""fullscreenenter"",""5"",""14932""
","
","
","""event"",""trial"",""time""
""fullscreenenter"",""5"",""14932""
","
",NA,images/earth.jpg,NA,NA,NA,NA,NA,NA,NA,NA,NA,NA,NA,NA,NA,fixation,NA,NA,NA,NA,NA,NA,sub45
d3-animate-choice,246,1112357,0.0-76.0-0.37,TRUE,TRUE,FALSE,TRUE,"""event"",""trial"",""time""
""fullscreenenter"",""5"",""14932""
","
","
","""event"",""trial"",""time""
""fullscreenenter"",""5"",""14932""
","
",619.0649999771267,NA,48,NA,NA,3000,1,NA,NA,images/earth.jpg,images/rocket2,images/rocket1,null,images/rocket2,NA,1,real,null,2,NA,NA,NA,sub45
d3-animate-choice,247,1115515,0.0-76.0-1.37,TRUE,TRUE,FALSE,TRUE,"""event"",""trial"",""time""
""fullscreenenter"",""5"",""14932""
","
","
","""event"",""trial"",""time""
""fullscreenenter"",""5"",""14932""
","
",1130.2949999808334,NA,48,NA,NA,3000,1,NA,NA,images/redplanet1.jpg,images/alien2,images/alien1,images/rocket2,images/alien2,images/t.png,2,real,false,2,rare,1,2020-06-12T17:02:06Z,sub45
two-step-fixation,248,1116534,0.0-76.0-2.37,TRUE,TRUE,FALSE,TRUE,"""event"",""trial"",""time""
""fullscreenenter"",""5"",""14932""
","
","
","""event"",""trial"",""time""
""fullscreenenter"",""5"",""14932""
","
",NA,images/earth.jpg,NA,NA,NA,NA,NA,NA,NA,NA,NA,NA,NA,NA,NA,fixation,NA,NA,NA,NA,NA,NA,sub45
d3-animate-choice,249,1118976,0.0-76.0-0.38,TRUE,TRUE,FALSE,TRUE,"""event"",""trial"",""time""
""fullscreenenter"",""5"",""14932""
","
","
","""event"",""trial"",""time""
""fullscreenenter"",""5"",""14932""
","
",413.39000000152737,NA,48,NA,NA,3000,1,NA,NA,images/earth.jpg,images/rocket2,images/rocket1,null,images/rocket2,NA,1,real,null,2,NA,NA,NA,sub45
d3-animate-choice,250,1121726,0.0-76.0-1.38,TRUE,TRUE,FALSE,TRUE,"""event"",""trial"",""time""
""fullscreenenter"",""5"",""14932""
","
","
","""event"",""trial"",""time""
""fullscreenenter"",""5"",""14932""
","
",727.3699999786913,NA,48,NA,NA,3000,1,NA,NA,images/purpleplanet.jpg,images/alien4,images/alien3,images/rocket2,images/alien4,images/t.png,2,real,true,2,common,1,2020-06-12T17:02:12Z,sub45
two-step-fixation,251,1122751,0.0-76.0-2.38,TRUE,TRUE,FALSE,TRUE,"""event"",""trial"",""time""
""fullscreenenter"",""5"",""14932""
","
","
","""event"",""trial"",""time""
""fullscreenenter"",""5"",""14932""
","
",NA,images/earth.jpg,NA,NA,NA,NA,NA,NA,NA,NA,NA,NA,NA,NA,NA,fixation,NA,NA,NA,NA,NA,NA,sub45
d3-animate-choice,252,1126117,0.0-76.0-0.39,TRUE,TRUE,FALSE,TRUE,"""event"",""trial"",""time""
""fullscreenenter"",""5"",""14932""
","
","
","""event"",""trial"",""time""
""fullscreenenter"",""5"",""14932""
","
",1341.004999994766,NA,48,NA,NA,3000,1,NA,NA,images/earth.jpg,images/rocket2,images/rocket1,null,images/rocket2,NA,1,real,null,2,NA,NA,NA,sub45
d3-animate-choice,253,1129293,0.0-76.0-1.39,TRUE,TRUE,FALSE,TRUE,"""event"",""trial"",""time""
""fullscreenenter"",""5"",""14932""
","
","
","""event"",""trial"",""time""
""fullscreenenter"",""5"",""14932""
","
",1164.9800000013784,NA,48,NA,NA,3000,1,NA,NA,images/purpleplanet.jpg,images/alien4,images/alien3,images/rocket2,images/alien4,images/t.png,2,real,true,2,common,1,2020-06-12T17:02:20Z,sub45
two-step-fixation,254,1130311,0.0-76.0-2.39,TRUE,TRUE,FALSE,TRUE,"""event"",""trial"",""time""
""fullscreenenter"",""5"",""14932""
","
","
","""event"",""trial"",""time""
""fullscreenenter"",""5"",""14932""
","
",NA,images/earth.jpg,NA,NA,NA,NA,NA,NA,NA,NA,NA,NA,NA,NA,NA,fixation,NA,NA,NA,NA,NA,NA,sub45
d3-animate-choice,255,1133324,0.0-76.0-0.40,TRUE,TRUE,FALSE,TRUE,"""event"",""trial"",""time""
""fullscreenenter"",""5"",""14932""
","
","
","""event"",""trial"",""time""
""fullscreenenter"",""5"",""14932""
","
",984.6499999985099,NA,48,NA,NA,3000,1,NA,NA,images/earth.jpg,images/rocket2,images/rocket1,null,images/rocket2,NA,1,real,null,2,NA,NA,NA,sub45
d3-animate-choice,256,1135900,0.0-76.0-1.40,TRUE,TRUE,FALSE,TRUE,"""event"",""trial"",""time""
""fullscreenenter"",""5"",""14932""
","
","
","""event"",""trial"",""time""
""fullscreenenter"",""5"",""14932""
","
",546.3899999740534,NA,49,NA,NA,3000,1,NA,NA,images/purpleplanet.jpg,images/alien4,images/alien3,images/rocket2,images/alien3,images/nothing.png,2,real,true,1,common,0,2020-06-12T17:02:26Z,sub45
two-step-fixation,257,1136920,0.0-76.0-2.40,TRUE,TRUE,FALSE,TRUE,"""event"",""trial"",""time""
""fullscreenenter"",""5"",""14932""
","
","
","""event"",""trial"",""time""
""fullscreenenter"",""5"",""14932""
","
",NA,images/earth.jpg,NA,NA,NA,NA,NA,NA,NA,NA,NA,NA,NA,NA,NA,fixation,NA,NA,NA,NA,NA,NA,sub45
d3-animate-choice,258,1139862,0.0-76.0-0.41,TRUE,TRUE,FALSE,TRUE,"""event"",""trial"",""time""
""fullscreenenter"",""5"",""14932""
","
","
","""event"",""trial"",""time""
""fullscreenenter"",""5"",""14932""
","
",926.7849999596365,NA,48,NA,NA,3000,1,NA,NA,images/earth.jpg,images/rocket2,images/rocket1,null,images/rocket2,NA,1,real,null,2,NA,NA,NA,sub45
d3-animate-choice,259,1142423,0.0-76.0-1.41,TRUE,TRUE,FALSE,TRUE,"""event"",""trial"",""time""
""fullscreenenter"",""5"",""14932""
","
","
","""event"",""trial"",""time""
""fullscreenenter"",""5"",""14932""
","
",533.1550000119023,NA,48,NA,NA,3000,1,NA,NA,images/purpleplanet.jpg,images/alien4,images/alien3,images/rocket2,images/alien4,images/nothing.png,2,real,true,2,common,0,2020-06-12T17:02:33Z,sub45
two-step-fixation,260,1143440,0.0-76.0-2.41,TRUE,TRUE,FALSE,TRUE,"""event"",""trial"",""time""
""fullscreenenter"",""5"",""14932""
","
","
","""event"",""trial"",""time""
""fullscreenenter"",""5"",""14932""
","
",NA,images/earth.jpg,NA,NA,NA,NA,NA,NA,NA,NA,NA,NA,NA,NA,NA,fixation,NA,NA,NA,NA,NA,NA,sub45
d3-animate-choice,261,1145955,0.0-76.0-0.42,TRUE,TRUE,FALSE,TRUE,"""event"",""trial"",""time""
""fullscreenenter"",""5"",""14932""
","
","
","""event"",""trial"",""time""
""fullscreenenter"",""5"",""14932""
","
",488.82500000763685,NA,49,NA,NA,3000,1,NA,NA,images/earth.jpg,images/rocket2,images/rocket1,null,images/rocket1,NA,1,real,null,1,NA,NA,NA,sub45
d3-animate-choice,262,1148455,0.0-76.0-1.42,TRUE,TRUE,FALSE,TRUE,"""event"",""trial"",""time""
""fullscreenenter"",""5"",""14932""
","
","
","""event"",""trial"",""time""
""fullscreenenter"",""5"",""14932""
","
",480.19500001100823,NA,48,NA,NA,3000,1,NA,NA,images/purpleplanet.jpg,images/alien4,images/alien3,images/rocket1,images/alien4,images/nothing.png,2,real,false,2,rare,0,2020-06-12T17:02:39Z,sub45
two-step-fixation,263,1149480,0.0-76.0-2.42,TRUE,TRUE,FALSE,TRUE,"""event"",""trial"",""time""
""fullscreenenter"",""5"",""14932""
","
","
","""event"",""trial"",""time""
""fullscreenenter"",""5"",""14932""
","
",NA,images/earth.jpg,NA,NA,NA,NA,NA,NA,NA,NA,NA,NA,NA,NA,NA,fixation,NA,NA,NA,NA,NA,NA,sub45
d3-animate-choice,264,1152133,0.0-76.0-0.43,TRUE,TRUE,FALSE,TRUE,"""event"",""trial"",""time""
""fullscreenenter"",""5"",""14932""
","
","
","""event"",""trial"",""time""
""fullscreenenter"",""5"",""14932""
","
",628.5300000454299,NA,49,NA,NA,3000,1,NA,NA,images/earth.jpg,images/rocket2,images/rocket1,null,images/rocket1,NA,1,real,null,1,NA,NA,NA,sub45
d3-animate-choice,265,1154925,0.0-76.0-1.43,TRUE,TRUE,FALSE,TRUE,"""event"",""trial"",""time""
""fullscreenenter"",""5"",""14932""
","
","
","""event"",""trial"",""time""
""fullscreenenter"",""5"",""14932""
","
",773.2650000252761,NA,49,NA,NA,3000,1,NA,NA,images/redplanet1.jpg,images/alien2,images/alien1,images/rocket1,images/alien1,images/t.png,2,real,true,1,common,1,2020-06-12T17:02:45Z,sub45
two-step-fixation,266,1155935,0.0-76.0-2.43,TRUE,TRUE,FALSE,TRUE,"""event"",""trial"",""time""
""fullscreenenter"",""5"",""14932""
","
","
","""event"",""trial"",""time""
""fullscreenenter"",""5"",""14932""
","
",NA,images/earth.jpg,NA,NA,NA,NA,NA,NA,NA,NA,NA,NA,NA,NA,NA,fixation,NA,NA,NA,NA,NA,NA,sub45
d3-animate-choice,267,1159052,0.0-76.0-0.44,TRUE,TRUE,FALSE,TRUE,"""event"",""trial"",""time""
""fullscreenenter"",""5"",""14932""
","
","
","""event"",""trial"",""time""
""fullscreenenter"",""5"",""14932""
","
",1093.845000024885,NA,48,NA,NA,3000,1,NA,NA,images/earth.jpg,images/rocket2,images/rocket1,null,images/rocket2,NA,1,real,null,2,NA,NA,NA,sub45
d3-animate-choice,268,1162197,0.0-76.0-1.44,TRUE,TRUE,FALSE,TRUE,"""event"",""trial"",""time""
""fullscreenenter"",""5"",""14932""
","
","
","""event"",""trial"",""time""
""fullscreenenter"",""5"",""14932""
","
",1117.725000018254,NA,48,NA,NA,3000,1,NA,NA,images/purpleplanet.jpg,images/alien4,images/alien3,images/rocket2,images/alien4,images/t.png,2,real,true,2,common,1,2020-06-12T17:02:53Z,sub45
two-step-fixation,269,1163221,0.0-76.0-2.44,TRUE,TRUE,FALSE,TRUE,"""event"",""trial"",""time""
""fullscreenenter"",""5"",""14932""
","
","
","""event"",""trial"",""time""
""fullscreenenter"",""5"",""14932""
","
",NA,images/earth.jpg,NA,NA,NA,NA,NA,NA,NA,NA,NA,NA,NA,NA,NA,fixation,NA,NA,NA,NA,NA,NA,sub45
d3-animate-choice,270,1166058,0.0-76.0-0.45,TRUE,TRUE,FALSE,TRUE,"""event"",""trial"",""time""
""fullscreenenter"",""5"",""14932""
","
","
","""event"",""trial"",""time""
""fullscreenenter"",""5"",""14932""
","
",811.7799999890849,NA,49,NA,NA,3000,1,NA,NA,images/earth.jpg,images/rocket2,images/rocket1,null,images/rocket1,NA,1,real,null,1,NA,NA,NA,sub45
d3-animate-choice,271,1168883,0.0-76.0-1.45,TRUE,TRUE,FALSE,TRUE,"""event"",""trial"",""time""
""fullscreenenter"",""5"",""14932""
","
","
","""event"",""trial"",""time""
""fullscreenenter"",""5"",""14932""
","
",807.6149999978952,NA,49,NA,NA,3000,1,NA,NA,images/redplanet1.jpg,images/alien2,images/alien1,images/rocket1,images/alien1,images/t.png,2,real,true,1,common,1,2020-06-12T17:02:59Z,sub45
two-step-fixation,272,1169891,0.0-76.0-2.45,TRUE,TRUE,FALSE,TRUE,"""event"",""trial"",""time""
""fullscreenenter"",""5"",""14932""
","
","
","""event"",""trial"",""time""
""fullscreenenter"",""5"",""14932""
","
",NA,images/earth.jpg,NA,NA,NA,NA,NA,NA,NA,NA,NA,NA,NA,NA,NA,fixation,NA,NA,NA,NA,NA,NA,sub45
d3-animate-choice,273,1173926,0.0-76.0-0.46,TRUE,TRUE,FALSE,TRUE,"""event"",""trial"",""time""
""fullscreenenter"",""5"",""14932""
","
","
","""event"",""trial"",""time""
""fullscreenenter"",""5"",""14932""
","
",null,NA,null,NA,NA,3000,0,NA,NA,images/earth.jpg,images/rocket2,images/rocket1,null,NA,NA,1,real,null,NA,NA,NA,NA,sub45
d3-animate-choice,274,1174941,0.0-76.0-1.46,TRUE,TRUE,FALSE,TRUE,"""event"",""trial"",""time""
""fullscreenenter"",""5"",""14932""
","
","
","""event"",""trial"",""time""
""fullscreenenter"",""5"",""14932""
","
",null,NA,null,NA,NA,0,0,NA,NA,images/earth.jpg,images/rocket2,images/rocket1,null,NA,NA,2,real,null,NA,NA,0,2020-06-12T17:03:05Z,sub45
two-step-fixation,275,1175951,0.0-76.0-2.46,TRUE,TRUE,FALSE,TRUE,"""event"",""trial"",""time""
""fullscreenenter"",""5"",""14932""
","
","
","""event"",""trial"",""time""
""fullscreenenter"",""5"",""14932""
","
",NA,images/earth.jpg,NA,NA,NA,NA,NA,NA,NA,NA,NA,NA,NA,NA,NA,fixation,NA,NA,NA,NA,NA,NA,sub45
d3-animate-choice,276,1178589,0.0-76.0-0.47,TRUE,TRUE,FALSE,TRUE,"""event"",""trial"",""time""
""fullscreenenter"",""5"",""14932""
","
","
","""event"",""trial"",""time""
""fullscreenenter"",""5"",""14932""
","
",618.6800000141375,NA,49,NA,NA,3000,1,NA,NA,images/earth.jpg,images/rocket2,images/rocket1,null,images/rocket1,NA,1,real,null,1,NA,NA,NA,sub45
d3-animate-choice,277,1181984,0.0-76.0-1.47,TRUE,TRUE,FALSE,TRUE,"""event"",""trial"",""time""
""fullscreenenter"",""5"",""14932""
","
","
","""event"",""trial"",""time""
""fullscreenenter"",""5"",""14932""
","
",1385.840000002645,NA,48,NA,NA,3000,1,NA,NA,images/redplanet1.jpg,images/alien2,images/alien1,images/rocket1,images/alien2,images/t.png,2,real,true,2,common,1,2020-06-12T17:03:13Z,sub45
two-step-fixation,278,1183007,0.0-76.0-2.47,TRUE,TRUE,FALSE,TRUE,"""event"",""trial"",""time""
""fullscreenenter"",""5"",""14932""
","
","
","""event"",""trial"",""time""
""fullscreenenter"",""5"",""14932""
","
",NA,images/earth.jpg,NA,NA,NA,NA,NA,NA,NA,NA,NA,NA,NA,NA,NA,fixation,NA,NA,NA,NA,NA,NA,sub45
d3-animate-choice,279,1185596,0.0-76.0-0.48,TRUE,TRUE,FALSE,TRUE,"""event"",""trial"",""time""
""fullscreenenter"",""5"",""14932""
","
","
","""event"",""trial"",""time""
""fullscreenenter"",""5"",""14932""
","
",571.0250000120141,NA,48,NA,NA,3000,1,NA,NA,images/earth.jpg,images/rocket2,images/rocket1,null,images/rocket2,NA,1,real,null,2,NA,NA,NA,sub45
d3-animate-choice,280,1189035,0.0-76.0-1.48,TRUE,TRUE,FALSE,TRUE,"""event"",""trial"",""time""
""fullscreenenter"",""5"",""14932""
","
","
","""event"",""trial"",""time""
""fullscreenenter"",""5"",""14932""
","
",1418.6149999732152,NA,48,NA,NA,3000,1,NA,NA,images/purpleplanet.jpg,images/alien4,images/alien3,images/rocket2,images/alien4,images/t.png,2,real,true,2,common,1,2020-06-12T17:03:20Z,sub45
two-step-fixation,281,1190043,0.0-76.0-2.48,TRUE,TRUE,FALSE,TRUE,"""event"",""trial"",""time""
""fullscreenenter"",""5"",""14932""
","
","
","""event"",""trial"",""time""
""fullscreenenter"",""5"",""14932""
","
",NA,images/earth.jpg,NA,NA,NA,NA,NA,NA,NA,NA,NA,NA,NA,NA,NA,fixation,NA,NA,NA,NA,NA,NA,sub45
d3-animate-choice,282,1194053,0.0-76.0-0.49,TRUE,TRUE,FALSE,TRUE,"""event"",""trial"",""time""
""fullscreenenter"",""5"",""14932""
","
","
","""event"",""trial"",""time""
""fullscreenenter"",""5"",""14932""
","
",2881.355000019539,NA,49,NA,NA,3000,1,NA,NA,images/earth.jpg,images/rocket2,images/rocket1,null,images/rocket1,NA,1,real,null,1,NA,NA,NA,sub45
d3-animate-choice,283,1198079,0.0-76.0-1.49,TRUE,TRUE,FALSE,TRUE,"""event"",""trial"",""time""
""fullscreenenter"",""5"",""14932""
","
","
","""event"",""trial"",""time""
""fullscreenenter"",""5"",""14932""
","
",null,NA,null,NA,NA,3000,0,NA,NA,images/redplanet1.jpg,images/alien2,images/alien1,images/rocket1,NA,NA,2,real,true,NA,common,0,2020-06-12T17:03:29Z,sub45
two-step-fixation,284,1199086,0.0-76.0-2.49,TRUE,TRUE,FALSE,TRUE,"""event"",""trial"",""time""
""fullscreenenter"",""5"",""14932""
","
","
","""event"",""trial"",""time""
