success,trial_type,trial_index,time_elapsed,internal_node_id,interactions,blur_events,focus_events,fullscreenenter_events,fullscreenexit_events,rt,stimulus,button_pressed,key_press,part,timestamp,unshuffled_button,correct_response,correct_button,correct,value,subject_id
TRUE,fullscreen,0,8793,0.0-0.0,"""event"",""trial"",""time""
""focus"",""0"",""5605""
""fullscreenenter"",""0"",""7843""
","
","""event"",""trial"",""time""
""focus"",""0"",""5605""
","""event"",""trial"",""time""
""fullscreenenter"",""0"",""7843""
","
",NA,NA,NA,NA,NA,NA,NA,NA,NA,NA,NA,sub73
NA,pavlovia,1,8799,0.0-1.0,"""event"",""trial"",""time""
""focus"",""0"",""5605""
""fullscreenenter"",""0"",""7843""
","
","""event"",""trial"",""time""
""focus"",""0"",""5605""
","""event"",""trial"",""time""
""fullscreenenter"",""0"",""7843""
","
",NA,NA,NA,NA,NA,NA,NA,NA,NA,NA,NA,sub73
NA,html-button-response,2,9920,0.0-2.0,"""event"",""trial"",""time""
""focus"",""0"",""5605""
""fullscreenenter"",""0"",""7843""
","
","""event"",""trial"",""time""
""focus"",""0"",""5605""
","""event"",""trial"",""time""
""fullscreenenter"",""0"",""7843""
","
",1119,<p>Welcome! Press START to begin.</p><br>,0,NA,NA,NA,NA,NA,NA,NA,NA,sub73
NA,audio-button-response,3,23121,0.0-3.0,"""event"",""trial"",""time""
""focus"",""0"",""5605""
""fullscreenenter"",""0"",""7843""
","
","""event"",""trial"",""time""
""focus"",""0"",""5605""
","""event"",""trial"",""time""
""fullscreenenter"",""0"",""7843""
","
",13190,audio/mars_instructions_slide2.wav,0,NA,NA,NA,NA,NA,NA,NA,NA,sub73
NA,audio-button-response,4,32089,0.0-4.0,"""event"",""trial"",""time""
""focus"",""0"",""5605""
""fullscreenenter"",""0"",""7843""
","
","""event"",""trial"",""time""
""focus"",""0"",""5605""
","""event"",""trial"",""time""
""fullscreenenter"",""0"",""7843""
","
",8966,audio/mars_instructions_slide3.wav,0,NA,NA,NA,NA,NA,NA,NA,NA,sub73
NA,html-keyboard-response,5,32590,0.0-5.0-0.0,"""event"",""trial"",""time""
""focus"",""0"",""5605""
""fullscreenenter"",""0"",""7843""
","
","""event"",""trial"",""time""
""focus"",""0"",""5605""
","""event"",""trial"",""time""
""fullscreenenter"",""0"",""7843""
","
",null,"<div style=""font-size:60px;"">+</div>",NA,null,fixation,2020-06-17T00:01:28Z,NA,NA,NA,NA,NA,sub73
NA,mars-trial,6,40038,0.0-5.0-1.0,"""event"",""trial"",""time""
""focus"",""0"",""5605""
""fullscreenenter"",""0"",""7843""
","
","""event"",""trial"",""time""
""focus"",""0"",""5605""
","""event"",""trial"",""time""
""fullscreenenter"",""0"",""7843""
","
",5341.999999999993,<img style='border: 4px solid darkgrey;' src='practice/pt1_M1.png'></img>,1,NA,practice,NA,0,<img src='practice/pt1_T1.png'></img>,0,TRUE,NA,sub73
NA,html-keyboard-response,7,40540,0.0-6.0-0.0,"""event"",""trial"",""time""
""focus"",""0"",""5605""
""fullscreenenter"",""0"",""7843""
","
","""event"",""trial"",""time""
""focus"",""0"",""5605""
","""event"",""trial"",""time""
""fullscreenenter"",""0"",""7843""
","
",null,"<div style=""font-size:60px;"">+</div>",NA,null,fixation,2020-06-17T00:01:36Z,NA,NA,NA,NA,NA,sub73
NA,mars-trial,8,45193,0.0-6.0-1.0,"""event"",""trial"",""time""
""focus"",""0"",""5605""
""fullscreenenter"",""0"",""7843""
","
","""event"",""trial"",""time""
""focus"",""0"",""5605""
","""event"",""trial"",""time""
""fullscreenenter"",""0"",""7843""
","
",2548.0000000000073,<img style='border: 4px solid darkgrey;' src='practice/pt2_M1.png'></img>,0,NA,practice,NA,0,<img src='practice/pt2_T1.png'></img>,0,TRUE,NA,sub73
NA,html-keyboard-response,9,45695,0.0-7.0-0.0,"""event"",""trial"",""time""
""focus"",""0"",""5605""
""fullscreenenter"",""0"",""7843""
","
","""event"",""trial"",""time""
""focus"",""0"",""5605""
","""event"",""trial"",""time""
""fullscreenenter"",""0"",""7843""
","
",null,"<div style=""font-size:60px;"">+</div>",NA,null,fixation,2020-06-17T00:01:41Z,NA,NA,NA,NA,NA,sub73
NA,mars-trial,10,49196,0.0-7.0-1.0,"""event"",""trial"",""time""
""focus"",""0"",""5605""
""fullscreenenter"",""0"",""7843""
","
","""event"",""trial"",""time""
""focus"",""0"",""5605""
","""event"",""trial"",""time""
""fullscreenenter"",""0"",""7843""
","
",1395,<img style='border: 4px solid darkgrey;' src='practice/pt3_M1.png'></img>,1,NA,practice,NA,0,<img src='practice/pt3_T1.png'></img>,0,TRUE,NA,sub73
NA,audio-button-response,11,53061,0.0-8.0,"""event"",""trial"",""time""
""focus"",""0"",""5605""
""fullscreenenter"",""0"",""7843""
","
","""event"",""trial"",""time""
""focus"",""0"",""5605""
","""event"",""trial"",""time""
""fullscreenenter"",""0"",""7843""
","
",3862,audio/mars_instructions_slide4.wav,0,NA,NA,NA,NA,NA,NA,NA,NA,sub73
NA,call-function,12,53062,0.0-9.0,"""event"",""trial"",""time""
""focus"",""0"",""5605""
""fullscreenenter"",""0"",""7843""
","
","""event"",""trial"",""time""
""focus"",""0"",""5605""
","""event"",""trial"",""time""
""fullscreenenter"",""0"",""7843""
","
",NA,NA,NA,NA,NA,NA,NA,NA,NA,NA,NA,sub73
NA,html-keyboard-response,13,53564,0.0-10.0-0.0,"""event"",""trial"",""time""
""focus"",""0"",""5605""
""fullscreenenter"",""0"",""7843""
","
","""event"",""trial"",""time""
""focus"",""0"",""5605""
","""event"",""trial"",""time""
""fullscreenenter"",""0"",""7843""
","
",null,"<div style=""font-size:60px;"">+</div>",NA,null,fixation,2020-06-17T00:01:49Z,NA,NA,NA,NA,NA,sub73
NA,mars-trial,14,55667,0.0-10.0-1.0,"""event"",""trial"",""time""
""focus"",""0"",""5605""
""fullscreenenter"",""0"",""7843""
","
","""event"",""trial"",""time""
""focus"",""0"",""5605""
","""event"",""trial"",""time""
""fullscreenenter"",""0"",""7843""
","
",1499,<img style='border: 4px solid darkgrey;' src='img/tf1_1_M_ss3.jpeg'></img>,2,NA,exp,NA,0,<img src='img/tf1_1_T1_ss3_md.jpeg'></img>,0,TRUE,NA,sub73
NA,html-keyboard-response,15,56170,0.0-10.0-0.1,"""event"",""trial"",""time""
""focus"",""0"",""5605""
""fullscreenenter"",""0"",""7843""
","
","""event"",""trial"",""time""
""focus"",""0"",""5605""
","""event"",""trial"",""time""
""fullscreenenter"",""0"",""7843""
","
",null,"<div style=""font-size:60px;"">+</div>",NA,null,fixation,2020-06-17T00:01:52Z,NA,NA,NA,NA,NA,sub73
NA,mars-trial,16,59680,0.0-10.0-1.1,"""event"",""trial"",""time""
""focus"",""0"",""5605""
""fullscreenenter"",""0"",""7843""
","
","""event"",""trial"",""time""
""focus"",""0"",""5605""
","""event"",""trial"",""time""
""fullscreenenter"",""0"",""7843""
","
",2906,<img style='border: 4px solid darkgrey;' src='img/tf1_2_M_ss1.jpeg'></img>,0,NA,exp,NA,0,<img src='img/tf1_2_T1_ss1_md.jpeg'></img>,0,TRUE,NA,sub73
NA,html-keyboard-response,17,60182,0.0-10.0-0.2,"""event"",""trial"",""time""
""focus"",""0"",""5605""
""fullscreenenter"",""0"",""7843""
","
","""event"",""trial"",""time""
""focus"",""0"",""5605""
","""event"",""trial"",""time""
""fullscreenenter"",""0"",""7843""
","
",null,"<div style=""font-size:60px;"">+</div>",NA,null,fixation,2020-06-17T00:01:56Z,NA,NA,NA,NA,NA,sub73
NA,mars-trial,18,62629,0.0-10.0-1.2,"""event"",""trial"",""time""
""focus"",""0"",""5605""
""fullscreenenter"",""0"",""7843""
","
","""event"",""trial"",""time""
""focus"",""0"",""5605""
","""event"",""trial"",""time""
""fullscreenenter"",""0"",""7843""
","
",1842,<img style='border: 4px solid darkgrey;' src='img/tf1_3_M_ss2.jpeg'></img>,0,NA,exp,NA,0,<img src='img/tf1_3_T1_ss2_md.jpeg'></img>,0,TRUE,NA,sub73
NA,html-keyboard-response,19,63131,0.0-10.0-0.3,"""event"",""trial"",""time""
""focus"",""0"",""5605""
""fullscreenenter"",""0"",""7843""
","
","""event"",""trial"",""time""
""focus"",""0"",""5605""
","""event"",""trial"",""time""
""fullscreenenter"",""0"",""7843""
","
",null,"<div style=""font-size:60px;"">+</div>",NA,null,fixation,2020-06-17T00:01:59Z,NA,NA,NA,NA,NA,sub73
NA,mars-trial,20,69282,0.0-10.0-1.3,"""event"",""trial"",""time""
""focus"",""0"",""5605""
""fullscreenenter"",""0"",""7843""
","
","""event"",""trial"",""time""
""focus"",""0"",""5605""
","""event"",""trial"",""time""
""fullscreenenter"",""0"",""7843""
","
",5546,<img style='border: 4px solid darkgrey;' src='img/tf1_4_M_ss3.jpeg'></img>,3,NA,exp,NA,0,<img src='img/tf1_4_T1_ss3_md.jpeg'></img>,0,TRUE,NA,sub73
NA,html-keyboard-response,21,69784,0.0-10.0-0.4,"""event"",""trial"",""time""
""focus"",""0"",""5605""
""fullscreenenter"",""0"",""7843""
","
","""event"",""trial"",""time""
""focus"",""0"",""5605""
","""event"",""trial"",""time""
""fullscreenenter"",""0"",""7843""
","
",null,"<div style=""font-size:60px;"">+</div>",NA,null,fixation,2020-06-17T00:02:05Z,NA,NA,NA,NA,NA,sub73
NA,mars-trial,22,71960,0.0-10.0-1.4,"""event"",""trial"",""time""
""focus"",""0"",""5605""
""fullscreenenter"",""0"",""7843""
","
","""event"",""trial"",""time""
""focus"",""0"",""5605""
","""event"",""trial"",""time""
""fullscreenenter"",""0"",""7843""
","
",1571,<img style='border: 4px solid darkgrey;' src='img/tf1_5_M_ss1.jpeg'></img>,0,NA,exp,NA,0,<img src='img/tf1_5_T1_ss1_md.jpeg'></img>,0,TRUE,NA,sub73
NA,html-keyboard-response,23,72462,0.0-10.0-0.5,"""event"",""trial"",""time""
""focus"",""0"",""5605""
""fullscreenenter"",""0"",""7843""
","
","""event"",""trial"",""time""
""focus"",""0"",""5605""
","""event"",""trial"",""time""
""fullscreenenter"",""0"",""7843""
","
",null,"<div style=""font-size:60px;"">+</div>",NA,null,fixation,2020-06-17T00:02:08Z,NA,NA,NA,NA,NA,sub73
NA,mars-trial,24,80962,0.0-10.0-1.5,"""event"",""trial"",""time""
""focus"",""0"",""5605""
""fullscreenenter"",""0"",""7843""
","
","""event"",""trial"",""time""
""focus"",""0"",""5605""
","""event"",""trial"",""time""
""fullscreenenter"",""0"",""7843""
","
",7894,<img style='border: 4px solid darkgrey;' src='img/tf1_6_M_ss2.jpeg'></img>,2,NA,exp,NA,0,<img src='img/tf1_6_T1_ss2_md.jpeg'></img>,0,TRUE,NA,sub73
NA,html-keyboard-response,25,81464,0.0-10.0-0.6,"""event"",""trial"",""time""
""focus"",""0"",""5605""
""fullscreenenter"",""0"",""7843""
","
","""event"",""trial"",""time""
""focus"",""0"",""5605""
","""event"",""trial"",""time""
""fullscreenenter"",""0"",""7843""
","
",null,"<div style=""font-size:60px;"">+</div>",NA,null,fixation,2020-06-17T00:02:17Z,NA,NA,NA,NA,NA,sub73
NA,mars-trial,26,86039,0.0-10.0-1.6,"""event"",""trial"",""time""
""focus"",""0"",""5605""
""fullscreenenter"",""0"",""7843""
","
","""event"",""trial"",""time""
""focus"",""0"",""5605""
","""event"",""trial"",""time""
""fullscreenenter"",""0"",""7843""
","
",3971,<img style='border: 4px solid darkgrey;' src='img/tf1_7_M_ss3.jpeg'></img>,1,NA,exp,NA,0,<img src='img/tf1_7_T1_ss3_md.jpeg'></img>,0,TRUE,NA,sub73
NA,html-keyboard-response,27,86540,0.0-10.0-0.7,"""event"",""trial"",""time""
""focus"",""0"",""5605""
""fullscreenenter"",""0"",""7843""
","
","""event"",""trial"",""time""
""focus"",""0"",""5605""
","""event"",""trial"",""time""
""fullscreenenter"",""0"",""7843""
","
",null,"<div style=""font-size:60px;"">+</div>",NA,null,fixation,2020-06-17T00:02:22Z,NA,NA,NA,NA,NA,sub73
NA,mars-trial,28,93426,0.0-10.0-1.7,"""event"",""trial"",""time""
""focus"",""0"",""5605""
""fullscreenenter"",""0"",""7843""
","
","""event"",""trial"",""time""
""focus"",""0"",""5605""
","""event"",""trial"",""time""
""fullscreenenter"",""0"",""7843""
","
",6282,<img style='border: 4px solid darkgrey;' src='img/tf1_8_M_ss1.jpeg'></img>,2,NA,exp,NA,1,<img src='img/tf1_8_T1_ss1_md.jpeg'></img>,0,FALSE,NA,sub73
NA,html-keyboard-response,29,93928,0.0-10.0-0.8,"""event"",""trial"",""time""
""focus"",""0"",""5605""
""fullscreenenter"",""0"",""7843""
","
","""event"",""trial"",""time""
""focus"",""0"",""5605""
","""event"",""trial"",""time""
""fullscreenenter"",""0"",""7843""
","
",null,"<div style=""font-size:60px;"">+</div>",NA,null,fixation,2020-06-17T00:02:29Z,NA,NA,NA,NA,NA,sub73
NA,mars-trial,30,106388,0.0-10.0-1.8,"""event"",""trial"",""time""
""focus"",""0"",""5605""
""fullscreenenter"",""0"",""7843""
","
","""event"",""trial"",""time""
""focus"",""0"",""5605""
","""event"",""trial"",""time""
""fullscreenenter"",""0"",""7843""
","
",11856,<img style='border: 4px solid darkgrey;' src='img/tf1_9_M_ss2.jpeg'></img>,3,NA,exp,NA,0,<img src='img/tf1_9_T1_ss2_md.jpeg'></img>,0,TRUE,NA,sub73
NA,html-keyboard-response,31,106890,0.0-10.0-0.9,"""event"",""trial"",""time""
""focus"",""0"",""5605""
""fullscreenenter"",""0"",""7843""
","
","""event"",""trial"",""time""
""focus"",""0"",""5605""
","""event"",""trial"",""time""
""fullscreenenter"",""0"",""7843""
","
",null,"<div style=""font-size:60px;"">+</div>",NA,null,fixation,2020-06-17T00:02:42Z,NA,NA,NA,NA,NA,sub73
NA,mars-trial,32,122785,0.0-10.0-1.9,"""event"",""trial"",""time""
""focus"",""0"",""5605""
""fullscreenenter"",""0"",""7843""
","
","""event"",""trial"",""time""
""focus"",""0"",""5605""
","""event"",""trial"",""time""
""fullscreenenter"",""0"",""7843""
","
",15289.999999999985,<img style='border: 4px solid darkgrey;' src='img/tf1_10_M_ss3.jpeg'></img>,0,NA,exp,NA,0,<img src='img/tf1_10_T1_ss3_md.jpeg'></img>,0,TRUE,NA,sub73
NA,html-keyboard-response,33,123287,0.0-10.0-0.10,"""event"",""trial"",""time""
""focus"",""0"",""5605""
""fullscreenenter"",""0"",""7843""
","
","""event"",""trial"",""time""
""focus"",""0"",""5605""
","""event"",""trial"",""time""
""fullscreenenter"",""0"",""7843""
","
",null,"<div style=""font-size:60px;"">+</div>",NA,null,fixation,2020-06-17T00:02:59Z,NA,NA,NA,NA,NA,sub73
NA,mars-trial,34,135704,0.0-10.0-1.10,"""event"",""trial"",""time""
""focus"",""0"",""5605""
""fullscreenenter"",""0"",""7843""
","
","""event"",""trial"",""time""
""focus"",""0"",""5605""
","""event"",""trial"",""time""
""fullscreenenter"",""0"",""7843""
","
",11812.999999999985,<img style='border: 4px solid darkgrey;' src='img/tf1_11_M_ss1.jpeg'></img>,2,NA,exp,NA,2,<img src='img/tf1_11_T1_ss1_md.jpeg'></img>,0,FALSE,NA,sub73
NA,html-keyboard-response,35,136206,0.0-10.0-0.11,"""event"",""trial"",""time""
""focus"",""0"",""5605""
""fullscreenenter"",""0"",""7843""
","
","""event"",""trial"",""time""
""focus"",""0"",""5605""
","""event"",""trial"",""time""
""fullscreenenter"",""0"",""7843""
","
",null,"<div style=""font-size:60px;"">+</div>",NA,null,fixation,2020-06-17T00:03:12Z,NA,NA,NA,NA,NA,sub73
NA,mars-trial,36,141219,0.0-10.0-1.11,"""event"",""trial"",""time""
""focus"",""0"",""5605""
""fullscreenenter"",""0"",""7843""
","
","""event"",""trial"",""time""
""focus"",""0"",""5605""
","""event"",""trial"",""time""
""fullscreenenter"",""0"",""7843""
","
",4408,<img style='border: 4px solid darkgrey;' src='img/tf1_12_M_ss2.jpeg'></img>,2,NA,exp,NA,1,<img src='img/tf1_12_T1_ss2_md.jpeg'></img>,0,FALSE,NA,sub73
NA,html-keyboard-response,37,141721,0.0-10.0-0.12,"""event"",""trial"",""time""
""focus"",""0"",""5605""
""fullscreenenter"",""0"",""7843""
","
","""event"",""trial"",""time""
""focus"",""0"",""5605""
","""event"",""trial"",""time""
""fullscreenenter"",""0"",""7843""
","
",null,"<div style=""font-size:60px;"">+</div>",NA,null,fixation,2020-06-17T00:03:17Z,NA,NA,NA,NA,NA,sub73
NA,mars-trial,38,159499,0.0-10.0-1.12,"""event"",""trial"",""time""
""focus"",""0"",""5605""
""fullscreenenter"",""0"",""7843""
","
","""event"",""trial"",""time""
""focus"",""0"",""5605""
","""event"",""trial"",""time""
""fullscreenenter"",""0"",""7843""
","
",17172,<img style='border: 4px solid darkgrey;' src='img/tf1_13_M_ss3.jpeg'></img>,1,NA,exp,NA,2,<img src='img/tf1_13_T1_ss3_md.jpeg'></img>,0,FALSE,NA,sub73
NA,html-keyboard-response,39,160002,0.0-10.0-0.13,"""event"",""trial"",""time""
""focus"",""0"",""5605""
""fullscreenenter"",""0"",""7843""
","
","""event"",""trial"",""time""
""focus"",""0"",""5605""
","""event"",""trial"",""time""
""fullscreenenter"",""0"",""7843""
","
",null,"<div style=""font-size:60px;"">+</div>",NA,null,fixation,2020-06-17T00:03:36Z,NA,NA,NA,NA,NA,sub73
NA,mars-trial,40,184901,0.0-10.0-1.13,"""event"",""trial"",""time""
""focus"",""0"",""5605""
""fullscreenenter"",""0"",""7843""
","
","""event"",""trial"",""time""
""focus"",""0"",""5605""
","""event"",""trial"",""time""
""fullscreenenter"",""0"",""7843""
","
",24295,<img style='border: 4px solid darkgrey;' src='img/tf1_14_M_ss1.jpeg'></img>,1,NA,exp,NA,3,<img src='img/tf1_14_T1_ss1_md.jpeg'></img>,0,FALSE,NA,sub73
NA,html-keyboard-response,41,185404,0.0-10.0-0.14,"""event"",""trial"",""time""
""focus"",""0"",""5605""
""fullscreenenter"",""0"",""7843""
","
","""event"",""trial"",""time""
""focus"",""0"",""5605""
","""event"",""trial"",""time""
""fullscreenenter"",""0"",""7843""
","
",null,"<div style=""font-size:60px;"">+</div>",NA,null,fixation,2020-06-17T00:04:01Z,NA,NA,NA,NA,NA,sub73
NA,mars-trial,42,196650,0.0-10.0-1.14,"""event"",""trial"",""time""
""focus"",""0"",""5605""
""fullscreenenter"",""0"",""7843""
","
","""event"",""trial"",""time""
""focus"",""0"",""5605""
","""event"",""trial"",""time""
""fullscreenenter"",""0"",""7843""
","
",10641.99999999997,<img style='border: 4px solid darkgrey;' src='img/tf1_15_M_ss2.jpeg'></img>,0,NA,exp,NA,0,<img src='img/tf1_15_T1_ss2_md.jpeg'></img>,0,TRUE,NA,sub73
NA,html-keyboard-response,43,197152,0.0-10.0-0.15,"""event"",""trial"",""time""
""focus"",""0"",""5605""
""fullscreenenter"",""0"",""7843""
","
","""event"",""trial"",""time""
""focus"",""0"",""5605""
","""event"",""trial"",""time""
""fullscreenenter"",""0"",""7843""
","
",null,"<div style=""font-size:60px;"">+</div>",NA,null,fixation,2020-06-17T00:04:13Z,NA,NA,NA,NA,NA,sub73
NA,mars-trial,44,213815,0.0-10.0-1.15,"""event"",""trial"",""time""
""focus"",""0"",""5605""
""fullscreenenter"",""0"",""7843""
","
","""event"",""trial"",""time""
""focus"",""0"",""5605""
","""event"",""trial"",""time""
""fullscreenenter"",""0"",""7843""
","
",16058,<img style='border: 4px solid darkgrey;' src='img/tf1_16_M_ss3.jpeg'></img>,0,NA,exp,NA,0,<img src='img/tf1_16_T1_ss3_md.jpeg'></img>,0,TRUE,NA,sub73
NA,html-keyboard-response,45,214317,0.0-10.0-0.16,"""event"",""trial"",""time""
""focus"",""0"",""5605""
""fullscreenenter"",""0"",""7843""
","
","""event"",""trial"",""time""
""focus"",""0"",""5605""
","""event"",""trial"",""time""
""fullscreenenter"",""0"",""7843""
","
",null,"<div style=""font-size:60px;"">+</div>",NA,null,fixation,2020-06-17T00:04:30Z,NA,NA,NA,NA,NA,sub73
NA,mars-trial,46,232766,0.0-10.0-1.16,"""event"",""trial"",""time""
""focus"",""0"",""5605""
""fullscreenenter"",""0"",""7843""
","
","""event"",""trial"",""time""
""focus"",""0"",""5605""
","""event"",""trial"",""time""
""fullscreenenter"",""0"",""7843""
","
",17844,<img style='border: 4px solid darkgrey;' src='img/tf1_17_M_ss1.jpeg'></img>,0,NA,exp,NA,0,<img src='img/tf1_17_T1_ss1_md.jpeg'></img>,0,TRUE,NA,sub73
NA,html-keyboard-response,47,233268,0.0-10.0-0.17,"""event"",""trial"",""time""
""focus"",""0"",""5605""
""fullscreenenter"",""0"",""7843""
","
","""event"",""trial"",""time""
""focus"",""0"",""5605""
","""event"",""trial"",""time""
""fullscreenenter"",""0"",""7843""
","
",null,"<div style=""font-size:60px;"">+</div>",NA,null,fixation,2020-06-17T00:04:49Z,NA,NA,NA,NA,NA,sub73
NA,mars-trial,48,256501,0.0-10.0-1.17,"""event"",""trial"",""time""
""focus"",""0"",""5605""
""fullscreenenter"",""0"",""7843""
","
","""event"",""trial"",""time""
""focus"",""0"",""5605""
","""event"",""trial"",""time""
""fullscreenenter"",""0"",""7843""
","
",22624,<img style='border: 4px solid darkgrey;' src='img/tf1_18_M_ss2.jpeg'></img>,3,NA,exp,NA,0,<img src='img/tf1_18_T1_ss2_md.jpeg'></img>,0,TRUE,NA,sub73
NA,html-keyboard-response,49,257005,0.0-10.0-0.18,"""event"",""trial"",""time""
""focus"",""0"",""5605""
""fullscreenenter"",""0"",""7843""
","
","""event"",""trial"",""time""
""focus"",""0"",""5605""
","""event"",""trial"",""time""
""fullscreenenter"",""0"",""7843""
","
",null,"<div style=""font-size:60px;"">+</div>",NA,null,fixation,2020-06-17T00:05:13Z,NA,NA,NA,NA,NA,sub73
NA,mars-trial,50,265150,0.0-10.0-1.18,"""event"",""trial"",""time""
""focus"",""0"",""5605""
""fullscreenenter"",""0"",""7843""
","
","""event"",""trial"",""time""
""focus"",""0"",""5605""
","""event"",""trial"",""time""
""fullscreenenter"",""0"",""7843""
","
",7540.000000000058,<img style='border: 4px solid darkgrey;' src='img/tf1_19_M_ss3.jpeg'></img>,0,NA,exp,NA,0,<img src='img/tf1_19_T1_ss3_md.jpeg'></img>,0,TRUE,NA,sub73
NA,html-keyboard-response,51,265653,0.0-10.0-0.19,"""event"",""trial"",""time""
""focus"",""0"",""5605""
""fullscreenenter"",""0"",""7843""
","
","""event"",""trial"",""time""
""focus"",""0"",""5605""
","""event"",""trial"",""time""
""fullscreenenter"",""0"",""7843""
","
",null,"<div style=""font-size:60px;"">+</div>",NA,null,fixation,2020-06-17T00:05:21Z,NA,NA,NA,NA,NA,sub73
NA,mars-trial,52,273121,0.0-10.0-1.19,"""event"",""trial"",""time""
""focus"",""0"",""5605""
""fullscreenenter"",""0"",""7843""
","
","""event"",""trial"",""time""
""focus"",""0"",""5605""
","""event"",""trial"",""time""
""fullscreenenter"",""0"",""7843""
","
",6864,<img style='border: 4px solid darkgrey;' src='img/tf1_20_M_ss1.jpeg'></img>,0,NA,exp,NA,0,<img src='img/tf1_20_T1_ss1_md.jpeg'></img>,0,TRUE,NA,sub73
NA,html-keyboard-response,53,273623,0.0-10.0-0.20,"""event"",""trial"",""time""
""focus"",""0"",""5605""
""fullscreenenter"",""0"",""7843""
","
","""event"",""trial"",""time""
""focus"",""0"",""5605""
","""event"",""trial"",""time""
""fullscreenenter"",""0"",""7843""
","
",null,"<div style=""font-size:60px;"">+</div>",NA,null,fixation,2020-06-17T00:05:29Z,NA,NA,NA,NA,NA,sub73
NA,mars-trial,54,286826,0.0-10.0-1.20,"""event"",""trial"",""time""
""focus"",""0"",""5605""
""fullscreenenter"",""0"",""7843""
","
","""event"",""trial"",""time""
""focus"",""0"",""5605""
","""event"",""trial"",""time""
""fullscreenenter"",""0"",""7843""
","
",12597,<img style='border: 4px solid darkgrey;' src='img/tf1_21_M_ss2.jpeg'></img>,2,NA,exp,NA,3,<img src='img/tf1_21_T1_ss2_md.jpeg'></img>,0,FALSE,NA,sub73
NA,html-keyboard-response,55,287329,0.0-10.0-0.21,"""event"",""trial"",""time""
""focus"",""0"",""5605""
""fullscreenenter"",""0"",""7843""
","
","""event"",""trial"",""time""
""focus"",""0"",""5605""
","""event"",""trial"",""time""
""fullscreenenter"",""0"",""7843""
","
",null,"<div style=""font-size:60px;"">+</div>",NA,null,fixation,2020-06-17T00:05:43Z,NA,NA,NA,NA,NA,sub73
NA,mars-trial,56,303656,0.0-10.0-1.21,"""event"",""trial"",""time""
""focus"",""0"",""5605""
""fullscreenenter"",""0"",""7843""
","
","""event"",""trial"",""time""
""focus"",""0"",""5605""
","""event"",""trial"",""time""
""fullscreenenter"",""0"",""7843""
","
",15722,<img style='border: 4px solid darkgrey;' src='img/tf1_22_M_ss3.jpeg'></img>,0,NA,exp,NA,0,<img src='img/tf1_22_T1_ss3_md.jpeg'></img>,0,TRUE,NA,sub73
NA,html-keyboard-response,57,304158,0.0-10.0-0.22,"""event"",""trial"",""time""
""focus"",""0"",""5605""
""fullscreenenter"",""0"",""7843""
","
","""event"",""trial"",""time""
""focus"",""0"",""5605""
","""event"",""trial"",""time""
""fullscreenenter"",""0"",""7843""
","
",null,"<div style=""font-size:60px;"">+</div>",NA,null,fixation,2020-06-17T00:06:00Z,NA,NA,NA,NA,NA,sub73
NA,mars-trial,58,310588,0.0-10.0-1.22,"""event"",""trial"",""time""
""focus"",""0"",""5605""
""fullscreenenter"",""0"",""7843""
","
","""event"",""trial"",""time""
""focus"",""0"",""5605""
","""event"",""trial"",""time""
""fullscreenenter"",""0"",""7843""
","
",5825,<img style='border: 4px solid darkgrey;' src='img/tf1_23_M_ss1.jpeg'></img>,0,NA,exp,NA,1,<img src='img/tf1_23_T1_ss1_md.jpeg'></img>,0,FALSE,NA,sub73
NA,html-keyboard-response,59,311090,0.0-10.0-0.23,"""event"",""trial"",""time""
""focus"",""0"",""5605""
""fullscreenenter"",""0"",""7843""
","
","""event"",""trial"",""time""
""focus"",""0"",""5605""
","""event"",""trial"",""time""
""fullscreenenter"",""0"",""7843""
","
",null,"<div style=""font-size:60px;"">+</div>",NA,null,fixation,2020-06-17T00:06:07Z,NA,NA,NA,NA,NA,sub73
NA,mars-trial,60,318740,0.0-10.0-1.23,"""event"",""trial"",""time""
""focus"",""0"",""5605""
""fullscreenenter"",""0"",""7843""
","
","""event"",""trial"",""time""
""focus"",""0"",""5605""
","""event"",""trial"",""time""
""fullscreenenter"",""0"",""7843""
","
",7046.000000000058,<img style='border: 4px solid darkgrey;' src='img/tf1_24_M_ss2.jpeg'></img>,2,NA,exp,NA,2,<img src='img/tf1_24_T1_ss2_md.jpeg'></img>,0,FALSE,NA,sub73
NA,html-keyboard-response,61,319242,0.0-10.0-0.24,"""event"",""trial"",""time""
""focus"",""0"",""5605""
""fullscreenenter"",""0"",""7843""
","
","""event"",""trial"",""time""
""focus"",""0"",""5605""
","""event"",""trial"",""time""
""fullscreenenter"",""0"",""7843""
","
",null,"<div style=""font-size:60px;"">+</div>",NA,null,fixation,2020-06-17T00:06:15Z,NA,NA,NA,NA,NA,sub73
NA,mars-trial,62,336467,0.0-10.0-1.24,"""event"",""trial"",""time""
""focus"",""0"",""5605""
""fullscreenenter"",""0"",""7843""
","
","""event"",""trial"",""time""
""focus"",""0"",""5605""
","""event"",""trial"",""time""
""fullscreenenter"",""0"",""7843""
","
",16618,<img style='border: 4px solid darkgrey;' src='img/tf1_25_M_ss3.jpeg'></img>,2,NA,exp,NA,0,<img src='img/tf1_25_T1_ss3_md.jpeg'></img>,0,TRUE,NA,sub73
NA,html-keyboard-response,63,336969,0.0-10.0-0.25,"""event"",""trial"",""time""
""focus"",""0"",""5605""
""fullscreenenter"",""0"",""7843""
","
","""event"",""trial"",""time""
""focus"",""0"",""5605""
","""event"",""trial"",""time""
""fullscreenenter"",""0"",""7843""
","
",null,"<div style=""font-size:60px;"">+</div>",NA,null,fixation,2020-06-17T00:06:33Z,NA,NA,NA,NA,NA,sub73
NA,mars-trial,64,344684,0.0-10.0-1.25,"""event"",""trial"",""time""
""focus"",""0"",""5605""
""fullscreenenter"",""0"",""7843""
","
","""event"",""trial"",""time""
""focus"",""0"",""5605""
","""event"",""trial"",""time""
""fullscreenenter"",""0"",""7843""
","
",7110,<img style='border: 4px solid darkgrey;' src='img/tf1_26_M_ss1.jpeg'></img>,3,NA,exp,NA,2,<img src='img/tf1_26_T1_ss1_md.jpeg'></img>,0,FALSE,NA,sub73
NA,html-keyboard-response,65,345186,0.0-10.0-0.26,"""event"",""trial"",""time""
""focus"",""0"",""5605""
""fullscreenenter"",""0"",""7843""
","
","""event"",""trial"",""time""
""focus"",""0"",""5605""
","""event"",""trial"",""time""
""fullscreenenter"",""0"",""7843""
","
",null,"<div style=""font-size:60px;"">+</div>",NA,null,fixation,2020-06-17T00:06:41Z,NA,NA,NA,NA,NA,sub73
NA,mars-trial,66,354401,0.0-10.0-1.26,"""event"",""trial"",""time""
""focus"",""0"",""5605""
""fullscreenenter"",""0"",""7843""
","
","""event"",""trial"",""time""
""focus"",""0"",""5605""
","""event"",""trial"",""time""
""fullscreenenter"",""0"",""7843""
","
",8610,<img style='border: 4px solid darkgrey;' src='img/tf1_27_M_ss2.jpeg'></img>,3,NA,exp,NA,2,<img src='img/tf1_27_T1_ss2_md.jpeg'></img>,0,FALSE,NA,sub73
NA,html-keyboard-response,67,354903,0.0-10.0-0.27,"""event"",""trial"",""time""
""focus"",""0"",""5605""
""fullscreenenter"",""0"",""7843""
","
","""event"",""trial"",""time""
""focus"",""0"",""5605""
","""event"",""trial"",""time""
""fullscreenenter"",""0"",""7843""
","
",null,"<div style=""font-size:60px;"">+</div>",NA,null,fixation,2020-06-17T00:06:50Z,NA,NA,NA,NA,NA,sub73
NA,mars-trial,68,371555,0.0-10.0-1.27,"""event"",""trial"",""time""
""focus"",""0"",""5605""
""fullscreenenter"",""0"",""7843""
","
","""event"",""trial"",""time""
""focus"",""0"",""5605""
","""event"",""trial"",""time""
""fullscreenenter"",""0"",""7843""
","
",16045,<img style='border: 4px solid darkgrey;' src='img/tf1_28_M_ss3.jpeg'></img>,2,NA,exp,NA,0,<img src='img/tf1_28_T1_ss3_md.jpeg'></img>,0,TRUE,NA,sub73
NA,html-keyboard-response,69,372058,0.0-10.0-0.28,"""event"",""trial"",""time""
""focus"",""0"",""5605""
""fullscreenenter"",""0"",""7843""
","
","""event"",""trial"",""time""
""focus"",""0"",""5605""
","""event"",""trial"",""time""
""fullscreenenter"",""0"",""7843""
","
",null,"<div style=""font-size:60px;"">+</div>",NA,null,fixation,2020-06-17T00:07:08Z,NA,NA,NA,NA,NA,sub73
NA,mars-trial,70,383779,0.0-10.0-1.28,"""event"",""trial"",""time""
""focus"",""0"",""5605""
""fullscreenenter"",""0"",""7843""
","
","""event"",""trial"",""time""
""focus"",""0"",""5605""
","""event"",""trial"",""time""
""fullscreenenter"",""0"",""7843""
","
",11115.000000000058,<img style='border: 4px solid darkgrey;' src='img/tf1_29_M_ss1.jpeg'></img>,3,NA,exp,NA,2,<img src='img/tf1_29_T1_ss1_md.jpeg'></img>,0,FALSE,NA,sub73
NA,html-keyboard-response,71,384281,0.0-10.0-0.29,"""event"",""trial"",""time""
""focus"",""0"",""5605""
""fullscreenenter"",""0"",""7843""
","
","""event"",""trial"",""time""
""focus"",""0"",""5605""
","""event"",""trial"",""time""
""fullscreenenter"",""0"",""7843""
","
",null,"<div style=""font-size:60px;"">+</div>",NA,null,fixation,2020-06-17T00:07:20Z,NA,NA,NA,NA,NA,sub73
NA,mars-trial,72,393526,0.0-10.0-1.29,"""event"",""trial"",""time""
""focus"",""0"",""5605""
""fullscreenenter"",""0"",""7843""
","
","""event"",""trial"",""time""
""focus"",""0"",""5605""
","""event"",""trial"",""time""
""fullscreenenter"",""0"",""7843""
","
",8641,<img style='border: 4px solid darkgrey;' src='img/tf1_30_M_ss2.jpeg'></img>,0,NA,exp,NA,2,<img src='img/tf1_30_T1_ss2_md.jpeg'></img>,0,FALSE,NA,sub73
NA,html-keyboard-response,73,394028,0.0-10.0-0.30,"""event"",""trial"",""time""
""focus"",""0"",""5605""
""fullscreenenter"",""0"",""7843""
","
","""event"",""trial"",""time""
""focus"",""0"",""5605""
","""event"",""trial"",""time""
""fullscreenenter"",""0"",""7843""
","
",null,"<div style=""font-size:60px;"">+</div>",NA,null,fixation,2020-06-17T00:07:30Z,NA,NA,NA,NA,NA,sub73
NA,mars-trial,74,404354,0.0-10.0-1.30,"""event"",""trial"",""time""
""focus"",""0"",""5605""
""fullscreenenter"",""0"",""7843""
","
","""event"",""trial"",""time""
""focus"",""0"",""5605""
","""event"",""trial"",""time""
""fullscreenenter"",""0"",""7843""
","
",9720,<img style='border: 4px solid darkgrey;' src='img/tf1_31_M_ss3.jpeg'></img>,2,NA,exp,NA,1,<img src='img/tf1_31_T1_ss3_md.jpeg'></img>,0,FALSE,NA,sub73
NA,html-keyboard-response,75,404856,0.0-10.0-0.31,"""event"",""trial"",""time""
""focus"",""0"",""5605""
""fullscreenenter"",""0"",""7843""
","
","""event"",""trial"",""time""
""focus"",""0"",""5605""
","""event"",""trial"",""time""
""fullscreenenter"",""0"",""7843""
","
",null,"<div style=""font-size:60px;"">+</div>",NA,null,fixation,2020-06-17T00:07:40Z,NA,NA,NA,NA,NA,sub73
NA,mars-trial,76,412634,0.0-10.0-1.31,"""event"",""trial"",""time""
""focus"",""0"",""5605""
""fullscreenenter"",""0"",""7843""
","
","""event"",""trial"",""time""
""focus"",""0"",""5605""
","""event"",""trial"",""time""
""fullscreenenter"",""0"",""7843""
","
",7172,<img style='border: 4px solid darkgrey;' src='img/tf1_32_M_ss1.jpeg'></img>,2,NA,exp,NA,0,<img src='img/tf1_32_T1_ss1_md.jpeg'></img>,0,TRUE,NA,sub73
NA,html-keyboard-response,77,413136,0.0-10.0-0.32,"""event"",""trial"",""time""
""focus"",""0"",""5605""
""fullscreenenter"",""0"",""7843""
","
","""event"",""trial"",""time""
""focus"",""0"",""5605""
","""event"",""trial"",""time""
""fullscreenenter"",""0"",""7843""
","
",null,"<div style=""font-size:60px;"">+</div>",NA,null,fixation,2020-06-17T00:07:49Z,NA,NA,NA,NA,NA,sub73
NA,mars-trial,78,425375,0.0-10.0-1.32,"""event"",""trial"",""time""
""focus"",""0"",""5605""
""fullscreenenter"",""0"",""7843""
","
","""event"",""trial"",""time""
""focus"",""0"",""5605""
","""event"",""trial"",""time""
""fullscreenenter"",""0"",""7843""
","
",11634,<img style='border: 4px solid darkgrey;' src='img/tf1_33_M_ss2.jpeg'></img>,3,NA,exp,NA,0,<img src='img/tf1_33_T1_ss2_md.jpeg'></img>,0,TRUE,NA,sub73
NA,html-keyboard-response,79,425878,0.0-10.0-0.33,"""event"",""trial"",""time""
""focus"",""0"",""5605""
""fullscreenenter"",""0"",""7843""
","
","""event"",""trial"",""time""
""focus"",""0"",""5605""
","""event"",""trial"",""time""
""fullscreenenter"",""0"",""7843""
","
",null,"<div style=""font-size:60px;"">+</div>",NA,null,fixation,2020-06-17T00:08:01Z,NA,NA,NA,NA,NA,sub73
NA,mars-trial,80,439718,0.0-10.0-1.33,"""event"",""trial"",""time""
""focus"",""0"",""5605""
""fullscreenenter"",""0"",""7843""
","
","""event"",""trial"",""time""
""focus"",""0"",""5605""
","""event"",""trial"",""time""
""fullscreenenter"",""0"",""7843""
","
",13234.999999999942,<img style='border: 4px solid darkgrey;' src='img/tf1_34_M_ss3.jpeg'></img>,1,NA,exp,NA,0,<img src='img/tf1_34_T1_ss3_md.jpeg'></img>,0,TRUE,NA,sub73
NA,html-keyboard-response,81,440220,0.0-10.0-0.34,"""event"",""trial"",""time""
""focus"",""0"",""5605""
""fullscreenenter"",""0"",""7843""
","
","""event"",""trial"",""time""
""focus"",""0"",""5605""
","""event"",""trial"",""time""
""fullscreenenter"",""0"",""7843""
","
",null,"<div style=""font-size:60px;"">+</div>",NA,null,fixation,2020-06-17T00:08:16Z,NA,NA,NA,NA,NA,sub73
NA,mars-trial,82,444446,0.0-10.0-1.34,"""event"",""trial"",""time""
""focus"",""0"",""5605""
""fullscreenenter"",""0"",""7843""
","
","""event"",""trial"",""time""
""focus"",""0"",""5605""
","""event"",""trial"",""time""
""fullscreenenter"",""0"",""7843""
","
",3621,<img style='border: 4px solid darkgrey;' src='img/tf1_35_M_ss1.jpeg'></img>,1,NA,exp,NA,1,<img src='img/tf1_35_T1_ss1_md.jpeg'></img>,0,FALSE,NA,sub73
NA,html-keyboard-response,83,444948,0.0-10.0-0.35,"""event"",""trial"",""time""
""focus"",""0"",""5605""
""fullscreenenter"",""0"",""7843""
","
","""event"",""trial"",""time""
""focus"",""0"",""5605""
","""event"",""trial"",""time""
""fullscreenenter"",""0"",""7843""
","
",null,"<div style=""font-size:60px;"">+</div>",NA,null,fixation,2020-06-17T00:08:21Z,NA,NA,NA,NA,NA,sub73
NA,mars-trial,84,457006,0.0-10.0-1.35,"""event"",""trial"",""time""
""focus"",""0"",""5605""
""fullscreenenter"",""0"",""7843""
","
","""event"",""trial"",""time""
""focus"",""0"",""5605""
","""event"",""trial"",""time""
""fullscreenenter"",""0"",""7843""
","
",11452,<img style='border: 4px solid darkgrey;' src='img/tf1_36_M_ss2.jpeg'></img>,3,NA,exp,NA,1,<img src='img/tf1_36_T1_ss2_md.jpeg'></img>,0,FALSE,NA,sub73
NA,html-keyboard-response,85,457508,0.0-10.0-0.36,"""event"",""trial"",""time""
""focus"",""0"",""5605""
""fullscreenenter"",""0"",""7843""
","
","""event"",""trial"",""time""
""focus"",""0"",""5605""
","""event"",""trial"",""time""
""fullscreenenter"",""0"",""7843""
","
",null,"<div style=""font-size:60px;"">+</div>",NA,null,fixation,2020-06-17T00:08:33Z,NA,NA,NA,NA,NA,sub73
NA,mars-trial,86,467815,0.0-10.0-1.36,"""event"",""trial"",""time""
""focus"",""0"",""5605""
""fullscreenenter"",""0"",""7843""
","
","""event"",""trial"",""time""
""focus"",""0"",""5605""
","""event"",""trial"",""time""
""fullscreenenter"",""0"",""7843""
","
",9702,<img style='border: 4px solid darkgrey;' src='img/tf1_37_M_ss3.jpeg'></img>,2,NA,exp,NA,1,<img src='img/tf1_37_T1_ss3_md.jpeg'></img>,0,FALSE,NA,sub73
NA,html-keyboard-response,87,468317,0.0-10.0-0.37,"""event"",""trial"",""time""
""focus"",""0"",""5605""
""fullscreenenter"",""0"",""7843""
","
","""event"",""trial"",""time""
""focus"",""0"",""5605""
","""event"",""trial"",""time""
""fullscreenenter"",""0"",""7843""
","
",null,"<div style=""font-size:60px;"">+</div>",NA,null,fixation,2020-06-17T00:08:44Z,NA,NA,NA,NA,NA,sub73
NA,mars-trial,88,471945,0.0-10.0-1.37,"""event"",""trial"",""time""
""focus"",""0"",""5605""
""fullscreenenter"",""0"",""7843""
","
","""event"",""trial"",""time""
""focus"",""0"",""5605""
","""event"",""trial"",""time""
""fullscreenenter"",""0"",""7843""
","
",3024,<img style='border: 4px solid darkgrey;' src='img/tf1_38_M_ss1.jpeg'></img>,3,NA,exp,NA,0,<img src='img/tf1_38_T1_ss1_md.jpeg'></img>,0,TRUE,NA,sub73
NA,html-keyboard-response,89,472447,0.0-10.0-0.38,"""event"",""trial"",""time""
""focus"",""0"",""5605""
""fullscreenenter"",""0"",""7843""
","
","""event"",""trial"",""time""
""focus"",""0"",""5605""
","""event"",""trial"",""time""
""fullscreenenter"",""0"",""7843""
","
",null,"<div style=""font-size:60px;"">+</div>",NA,null,fixation,2020-06-17T00:08:48Z,NA,NA,NA,NA,NA,sub73
NA,mars-trial,90,480934,0.0-10.0-1.38,"""event"",""trial"",""time""
""focus"",""0"",""5605""
""fullscreenenter"",""0"",""7843""
","
","""event"",""trial"",""time""
""focus"",""0"",""5605""
","""event"",""trial"",""time""
""fullscreenenter"",""0"",""7843""
","
",7882,<img style='border: 4px solid darkgrey;' src='img/tf1_39_M_ss2.jpeg'></img>,1,NA,exp,NA,1,<img src='img/tf1_39_T1_ss2_md.jpeg'></img>,0,FALSE,NA,sub73
NA,html-keyboard-response,91,481436,0.0-10.0-0.39,"""event"",""trial"",""time""
""focus"",""0"",""5605""
""fullscreenenter"",""0"",""7843""
","
","""event"",""trial"",""time""
""focus"",""0"",""5605""
","""event"",""trial"",""time""
""fullscreenenter"",""0"",""7843""
","
",null,"<div style=""font-size:60px;"">+</div>",NA,null,fixation,2020-06-17T00:08:57Z,NA,NA,NA,NA,NA,sub73
NA,mars-trial,92,489760,0.0-10.0-1.39,"""event"",""trial"",""time""
""focus"",""0"",""5605""
""fullscreenenter"",""0"",""7843""
","
","""event"",""trial"",""time""
""focus"",""0"",""5605""
","""event"",""trial"",""time""
""fullscreenenter"",""0"",""7843""
","
",7719,<img style='border: 4px solid darkgrey;' src='img/tf1_40_M_ss3.jpeg'></img>,0,NA,exp,NA,3,<img src='img/tf1_40_T1_ss3_md.jpeg'></img>,0,FALSE,NA,sub73
NA,html-keyboard-response,93,490263,0.0-10.0-0.40,"""event"",""trial"",""time""
""focus"",""0"",""5605""
""fullscreenenter"",""0"",""7843""
","
","""event"",""trial"",""time""
""focus"",""0"",""5605""
","""event"",""trial"",""time""
""fullscreenenter"",""0"",""7843""
","
",null,"<div style=""font-size:60px;"">+</div>",NA,null,fixation,2020-06-17T00:09:06Z,NA,NA,NA,NA,NA,sub73
NA,mars-trial,94,493745,0.0-10.0-1.40,"""event"",""trial"",""time""
""focus"",""0"",""5605""
""fullscreenenter"",""0"",""7843""
","
","""event"",""trial"",""time""
""focus"",""0"",""5605""
","""event"",""trial"",""time""
""fullscreenenter"",""0"",""7843""
","
",2878,<img style='border: 4px solid darkgrey;' src='img/tf1_41_M_ss1.jpeg'></img>,2,NA,exp,NA,0,<img src='img/tf1_41_T1_ss1_md.jpeg'></img>,0,TRUE,NA,sub73
NA,html-keyboard-response,95,494247,0.0-10.0-0.41,"""event"",""trial"",""time""
""focus"",""0"",""5605""
""fullscreenenter"",""0"",""7843""
","
","""event"",""trial"",""time""
""focus"",""0"",""5605""
","""event"",""trial"",""time""
""fullscreenenter"",""0"",""7843""
","
",null,"<div style=""font-size:60px;"">+</div>",NA,null,fixation,2020-06-17T00:09:10Z,NA,NA,NA,NA,NA,sub73
NA,mars-trial,96,501932,0.0-10.0-1.41,"""event"",""trial"",""time""
""focus"",""0"",""5605""
""fullscreenenter"",""0"",""7843""
","
","""event"",""trial"",""time""
""focus"",""0"",""5605""
","""event"",""trial"",""time""
""fullscreenenter"",""0"",""7843""
","
",7079.000000000058,<img style='border: 4px solid darkgrey;' src='img/tf1_42_M_ss2.jpeg'></img>,1,NA,exp,NA,1,<img src='img/tf1_42_T1_ss2_md.jpeg'></img>,0,FALSE,NA,sub73
NA,html-keyboard-response,97,502434,0.0-10.0-0.42,"""event"",""trial"",""time""
""focus"",""0"",""5605""
""fullscreenenter"",""0"",""7843""
","
","""event"",""trial"",""time""
""focus"",""0"",""5605""
","""event"",""trial"",""time""
""fullscreenenter"",""0"",""7843""
","
",null,"<div style=""font-size:60px;"">+</div>",NA,null,fixation,2020-06-17T00:09:18Z,NA,NA,NA,NA,NA,sub73
NA,mars-trial,98,513107,0.0-10.0-1.42,"""event"",""trial"",""time""
""focus"",""0"",""5605""
""fullscreenenter"",""0"",""7843""
","
","""event"",""trial"",""time""
""focus"",""0"",""5605""
","""event"",""trial"",""time""
""fullscreenenter"",""0"",""7843""
","
",10068,<img style='border: 4px solid darkgrey;' src='img/tf1_43_M_ss3.jpeg'></img>,1,NA,exp,NA,1,<img src='img/tf1_43_T1_ss3_md.jpeg'></img>,0,FALSE,NA,sub73
NA,html-keyboard-response,99,513609,0.0-10.0-0.43,"""event"",""trial"",""time""
""focus"",""0"",""5605""
""fullscreenenter"",""0"",""7843""
","
","""event"",""trial"",""time""
""focus"",""0"",""5605""
","""event"",""trial"",""time""
""fullscreenenter"",""0"",""7843""
","
",null,"<div style=""font-size:60px;"">+</div>",NA,null,fixation,2020-06-17T00:09:29Z,NA,NA,NA,NA,NA,sub73
NA,mars-trial,100,522102,0.0-10.0-1.43,"""event"",""trial"",""time""
""focus"",""0"",""5605""
""fullscreenenter"",""0"",""7843""
","
","""event"",""trial"",""time""
""focus"",""0"",""5605""
","""event"",""trial"",""time""
""fullscreenenter"",""0"",""7843""
","
",7889,<img style='border: 4px solid darkgrey;' src='img/tf1_44_M_ss1.jpeg'></img>,1,NA,exp,NA,0,<img src='img/tf1_44_T1_ss1_md.jpeg'></img>,0,TRUE,NA,sub73
NA,html-keyboard-response,101,522604,0.0-10.0-0.44,"""event"",""trial"",""time""
""focus"",""0"",""5605""
""fullscreenenter"",""0"",""7843""
","
","""event"",""trial"",""time""
""focus"",""0"",""5605""
","""event"",""trial"",""time""
""fullscreenenter"",""0"",""7843""
","
",null,"<div style=""font-size:60px;"">+</div>",NA,null,fixation,2020-06-17T00:09:38Z,NA,NA,NA,NA,NA,sub73
NA,mars-trial,102,530871,0.0-10.0-1.44,"""event"",""trial"",""time""
""focus"",""0"",""5605""
""fullscreenenter"",""0"",""7843""
","
","""event"",""trial"",""time""
""focus"",""0"",""5605""
","""event"",""trial"",""time""
""fullscreenenter"",""0"",""7843""
","
",7662,<img style='border: 4px solid darkgrey;' src='img/tf1_45_M_ss2.jpeg'></img>,0,NA,exp,NA,1,<img src='img/tf1_45_T1_ss2_md.jpeg'></img>,0,FALSE,NA,sub73
NA,html-keyboard-response,103,531372,0.0-10.0-0.45,"""event"",""trial"",""time""
""focus"",""0"",""5605""
""fullscreenenter"",""0"",""7843""
","
","""event"",""trial"",""time""
""focus"",""0"",""5605""
","""event"",""trial"",""time""
""fullscreenenter"",""0"",""7843""
","
",null,"<div style=""font-size:60px;"">+</div>",NA,null,fixation,2020-06-17T00:09:47Z,NA,NA,NA,NA,NA,sub73
NA,mars-trial,104,533077,0.0-10.0-1.45,"""event"",""trial"",""time""
""focus"",""0"",""5605""
""fullscreenenter"",""0"",""7843""
","
","""event"",""trial"",""time""
""focus"",""0"",""5605""
","""event"",""trial"",""time""
""fullscreenenter"",""0"",""7843""
","
",NA,NA,NA,NA,exp,NA,NA,<img src='img/tf1_46_T1_ss3_md.jpeg'></img>,0,FALSE,NA,sub73
NA,html-keyboard-response,105,533578,0.0-10.0-0.46,"""event"",""trial"",""time""
""focus"",""0"",""5605""
""fullscreenenter"",""0"",""7843""
","
","""event"",""trial"",""time""
""focus"",""0"",""5605""
","""event"",""trial"",""time""
""fullscreenenter"",""0"",""7843""
","
",null,"<div style=""font-size:60px;"">+</div>",NA,null,fixation,2020-06-17T00:09:49Z,NA,NA,NA,NA,NA,sub73
NA,audio-button-response,106,538049,0.0-11.0,"""event"",""trial"",""time""
""focus"",""0"",""5605""
""fullscreenenter"",""0"",""7843""
","
","""event"",""trial"",""time""
""focus"",""0"",""5605""
","""event"",""trial"",""time""
""fullscreenenter"",""0"",""7843""
","
",4368,audio/mars_instructions_slide5.wav,0,NA,NA,NA,NA,NA,NA,NA,NA,sub73
