success,trial_type,trial_index,time_elapsed,internal_node_id,interactions,blur_events,focus_events,fullscreenenter_events,fullscreenexit_events,rt,stimulus,button_pressed,key_press,part,timestamp,unshuffled_button,correct_response,correct_button,correct,value,subject_id
TRUE,fullscreen,0,7080,0.0-0.0,"""event"",""trial"",""time""
""focus"",""0"",""3504""
""fullscreenenter"",""0"",""6205""
","
","""event"",""trial"",""time""
""focus"",""0"",""3504""
","""event"",""trial"",""time""
""fullscreenenter"",""0"",""6205""
","
",NA,NA,NA,NA,NA,NA,NA,NA,NA,NA,NA,sub52
NA,pavlovia,1,7085,0.0-1.0,"""event"",""trial"",""time""
""focus"",""0"",""3504""
""fullscreenenter"",""0"",""6205""
","
","""event"",""trial"",""time""
""focus"",""0"",""3504""
","""event"",""trial"",""time""
""fullscreenenter"",""0"",""6205""
","
",NA,NA,NA,NA,NA,NA,NA,NA,NA,NA,NA,sub52
NA,html-button-response,2,8406,0.0-2.0,"""event"",""trial"",""time""
""focus"",""0"",""3504""
""fullscreenenter"",""0"",""6205""
","
","""event"",""trial"",""time""
""focus"",""0"",""3504""
","""event"",""trial"",""time""
""fullscreenenter"",""0"",""6205""
","
",1319.2549999803305,<p>Welcome! Press START to begin.</p><br>,0,NA,NA,NA,NA,NA,NA,NA,NA,sub52
NA,audio-button-response,3,25087,0.0-3.0,"""event"",""trial"",""time""
""focus"",""0"",""3504""
""fullscreenenter"",""0"",""6205""
","
","""event"",""trial"",""time""
""focus"",""0"",""3504""
","""event"",""trial"",""time""
""fullscreenenter"",""0"",""6205""
","
",16678.24500001734,audio/mars_instructions_slide2.wav,0,NA,NA,NA,NA,NA,NA,NA,NA,sub52
NA,audio-button-response,4,31531,0.0-4.0,"""event"",""trial"",""time""
""focus"",""0"",""3504""
""fullscreenenter"",""0"",""6205""
","
","""event"",""trial"",""time""
""focus"",""0"",""3504""
","""event"",""trial"",""time""
""fullscreenenter"",""0"",""6205""
","
",6442.8149999585,audio/mars_instructions_slide3.wav,0,NA,NA,NA,NA,NA,NA,NA,NA,sub52
NA,html-keyboard-response,5,32035,0.0-5.0-0.0,"""event"",""trial"",""time""
""focus"",""0"",""3504""
""fullscreenenter"",""0"",""6205""
","
","""event"",""trial"",""time""
""focus"",""0"",""3504""
","""event"",""trial"",""time""
""fullscreenenter"",""0"",""6205""
","
",null,"<div style=""font-size:60px;"">+</div>",NA,null,fixation,2020-06-15T18:24:38Z,NA,NA,NA,NA,NA,sub52
NA,mars-trial,6,39016,0.0-5.0-1.0,"""event"",""trial"",""time""
""focus"",""0"",""3504""
""fullscreenenter"",""0"",""6205""
","
","""event"",""trial"",""time""
""focus"",""0"",""3504""
","""event"",""trial"",""time""
""fullscreenenter"",""0"",""6205""
","
",4869.315000018105,<img style='border: 4px solid darkgrey;' src='practice/pt1_M1.png'></img>,2,NA,practice,NA,0,<img src='practice/pt1_T1.png'></img>,0,TRUE,NA,sub52
NA,html-keyboard-response,7,39519,0.0-6.0-0.0,"""event"",""trial"",""time""
""focus"",""0"",""3504""
""fullscreenenter"",""0"",""6205""
","
","""event"",""trial"",""time""
""focus"",""0"",""3504""
","""event"",""trial"",""time""
""fullscreenenter"",""0"",""6205""
","
",null,"<div style=""font-size:60px;"">+</div>",NA,null,fixation,2020-06-15T18:24:46Z,NA,NA,NA,NA,NA,sub52
NA,mars-trial,8,44660,0.0-6.0-1.0,"""event"",""trial"",""time""
""focus"",""0"",""3504""
""fullscreenenter"",""0"",""6205""
","
","""event"",""trial"",""time""
""focus"",""0"",""3504""
","""event"",""trial"",""time""
""fullscreenenter"",""0"",""6205""
","
",3037.1699999668635,<img style='border: 4px solid darkgrey;' src='practice/pt2_M1.png'></img>,0,NA,practice,NA,0,<img src='practice/pt2_T1.png'></img>,0,TRUE,NA,sub52
NA,html-keyboard-response,9,45162,0.0-7.0-0.0,"""event"",""trial"",""time""
""focus"",""0"",""3504""
""fullscreenenter"",""0"",""6205""
","
","""event"",""trial"",""time""
""focus"",""0"",""3504""
","""event"",""trial"",""time""
""fullscreenenter"",""0"",""6205""
","
",null,"<div style=""font-size:60px;"">+</div>",NA,null,fixation,2020-06-15T18:24:51Z,NA,NA,NA,NA,NA,sub52
NA,mars-trial,10,50008,0.0-7.0-1.0,"""event"",""trial"",""time""
""focus"",""0"",""3504""
""fullscreenenter"",""0"",""6205""
","
","""event"",""trial"",""time""
""focus"",""0"",""3504""
","""event"",""trial"",""time""
""fullscreenenter"",""0"",""6205""
","
",2740.300000004936,<img style='border: 4px solid darkgrey;' src='practice/pt3_M1.png'></img>,2,NA,practice,NA,0,<img src='practice/pt3_T1.png'></img>,0,TRUE,NA,sub52
NA,audio-button-response,11,51658,0.0-8.0,"""event"",""trial"",""time""
""focus"",""0"",""3504""
""fullscreenenter"",""0"",""6205""
","
","""event"",""trial"",""time""
""focus"",""0"",""3504""
","""event"",""trial"",""time""
""fullscreenenter"",""0"",""6205""
","
",1647.789999959059,audio/mars_instructions_slide4.wav,0,NA,NA,NA,NA,NA,NA,NA,NA,sub52
NA,call-function,12,51659,0.0-9.0,"""event"",""trial"",""time""
""focus"",""0"",""3504""
""fullscreenenter"",""0"",""6205""
","
","""event"",""trial"",""time""
""focus"",""0"",""3504""
","""event"",""trial"",""time""
""fullscreenenter"",""0"",""6205""
","
",NA,NA,NA,NA,NA,NA,NA,NA,NA,NA,NA,sub52
NA,html-keyboard-response,13,52162,0.0-10.0-0.0,"""event"",""trial"",""time""
""focus"",""0"",""3504""
""fullscreenenter"",""0"",""6205""
","
","""event"",""trial"",""time""
""focus"",""0"",""3504""
","""event"",""trial"",""time""
""fullscreenenter"",""0"",""6205""
","
",null,"<div style=""font-size:60px;"">+</div>",NA,null,fixation,2020-06-15T18:24:58Z,NA,NA,NA,NA,NA,sub52
NA,mars-trial,14,54722,0.0-10.0-1.0,"""event"",""trial"",""time""
""focus"",""0"",""3504""
""fullscreenenter"",""0"",""6205""
","
","""event"",""trial"",""time""
""focus"",""0"",""3504""
","""event"",""trial"",""time""
""fullscreenenter"",""0"",""6205""
","
",1953.1799999531358,<img style='border: 4px solid darkgrey;' src='img/tf1_1_M_ss3.jpeg'></img>,1,NA,exp,NA,0,<img src='img/tf1_1_T1_ss3_md.jpeg'></img>,0,TRUE,NA,sub52
NA,html-keyboard-response,15,55225,0.0-10.0-0.1,"""event"",""trial"",""time""
""focus"",""0"",""3504""
""fullscreenenter"",""0"",""6205""
","
","""event"",""trial"",""time""
""focus"",""0"",""3504""
","""event"",""trial"",""time""
""fullscreenenter"",""0"",""6205""
","
",null,"<div style=""font-size:60px;"">+</div>",NA,null,fixation,2020-06-15T18:25:01Z,NA,NA,NA,NA,NA,sub52
NA,mars-trial,16,58579,0.0-10.0-1.1,"""event"",""trial"",""time""
""focus"",""0"",""3504""
""fullscreenenter"",""0"",""6205""
","
","""event"",""trial"",""time""
""focus"",""0"",""3504""
","""event"",""trial"",""time""
""fullscreenenter"",""0"",""6205""
","
",2747.960000007879,<img style='border: 4px solid darkgrey;' src='img/tf1_2_M_ss1.jpeg'></img>,3,NA,exp,NA,0,<img src='img/tf1_2_T1_ss1_md.jpeg'></img>,0,TRUE,NA,sub52
NA,html-keyboard-response,17,59081,0.0-10.0-0.2,"""event"",""trial"",""time""
""focus"",""0"",""3504""
""fullscreenenter"",""0"",""6205""
","
","""event"",""trial"",""time""
""focus"",""0"",""3504""
","""event"",""trial"",""time""
""fullscreenenter"",""0"",""6205""
","
",null,"<div style=""font-size:60px;"">+</div>",NA,null,fixation,2020-06-15T18:25:05Z,NA,NA,NA,NA,NA,sub52
NA,mars-trial,18,63696,0.0-10.0-1.2,"""event"",""trial"",""time""
""focus"",""0"",""3504""
""fullscreenenter"",""0"",""6205""
","
","""event"",""trial"",""time""
""focus"",""0"",""3504""
","""event"",""trial"",""time""
""fullscreenenter"",""0"",""6205""
","
",4005.5649999994785,<img style='border: 4px solid darkgrey;' src='img/tf1_3_M_ss2.jpeg'></img>,3,NA,exp,NA,0,<img src='img/tf1_3_T1_ss2_md.jpeg'></img>,0,TRUE,NA,sub52
NA,html-keyboard-response,19,64198,0.0-10.0-0.3,"""event"",""trial"",""time""
""focus"",""0"",""3504""
""fullscreenenter"",""0"",""6205""
","
","""event"",""trial"",""time""
""focus"",""0"",""3504""
","""event"",""trial"",""time""
""fullscreenenter"",""0"",""6205""
","
",null,"<div style=""font-size:60px;"">+</div>",NA,null,fixation,2020-06-15T18:25:10Z,NA,NA,NA,NA,NA,sub52
NA,mars-trial,20,69704,0.0-10.0-1.3,"""event"",""trial"",""time""
""focus"",""0"",""3504""
""fullscreenenter"",""0"",""6205""
","
","""event"",""trial"",""time""
""focus"",""0"",""3504""
","""event"",""trial"",""time""
""fullscreenenter"",""0"",""6205""
","
",4897.569999971893,<img style='border: 4px solid darkgrey;' src='img/tf1_4_M_ss3.jpeg'></img>,3,NA,exp,NA,0,<img src='img/tf1_4_T1_ss3_md.jpeg'></img>,0,TRUE,NA,sub52
NA,html-keyboard-response,21,70206,0.0-10.0-0.4,"""event"",""trial"",""time""
""focus"",""0"",""3504""
""fullscreenenter"",""0"",""6205""
","
","""event"",""trial"",""time""
""focus"",""0"",""3504""
","""event"",""trial"",""time""
""fullscreenenter"",""0"",""6205""
","
",null,"<div style=""font-size:60px;"">+</div>",NA,null,fixation,2020-06-15T18:25:16Z,NA,NA,NA,NA,NA,sub52
NA,mars-trial,22,74721,0.0-10.0-1.4,"""event"",""trial"",""time""
""focus"",""0"",""3504""
""fullscreenenter"",""0"",""6205""
","
","""event"",""trial"",""time""
""focus"",""0"",""3504""
","""event"",""trial"",""time""
""fullscreenenter"",""0"",""6205""
","
",3901.114999956917,<img style='border: 4px solid darkgrey;' src='img/tf1_5_M_ss1.jpeg'></img>,1,NA,exp,NA,0,<img src='img/tf1_5_T1_ss1_md.jpeg'></img>,0,TRUE,NA,sub52
NA,html-keyboard-response,23,75225,0.0-10.0-0.5,"""event"",""trial"",""time""
""focus"",""0"",""3504""
""fullscreenenter"",""0"",""6205""
","
","""event"",""trial"",""time""
""focus"",""0"",""3504""
","""event"",""trial"",""time""
""fullscreenenter"",""0"",""6205""
","
",null,"<div style=""font-size:60px;"">+</div>",NA,null,fixation,2020-06-15T18:25:21Z,NA,NA,NA,NA,NA,sub52
NA,mars-trial,24,80825,0.0-10.0-1.5,"""event"",""trial"",""time""
""focus"",""0"",""3504""
""fullscreenenter"",""0"",""6205""
","
","""event"",""trial"",""time""
""focus"",""0"",""3504""
","""event"",""trial"",""time""
""fullscreenenter"",""0"",""6205""
","
",4993.049999990035,<img style='border: 4px solid darkgrey;' src='img/tf1_6_M_ss2.jpeg'></img>,2,NA,exp,NA,1,<img src='img/tf1_6_T1_ss2_md.jpeg'></img>,0,FALSE,NA,sub52
NA,html-keyboard-response,25,81332,0.0-10.0-0.6,"""event"",""trial"",""time""
""focus"",""0"",""3504""
""fullscreenenter"",""0"",""6205""
","
","""event"",""trial"",""time""
""focus"",""0"",""3504""
","""event"",""trial"",""time""
""fullscreenenter"",""0"",""6205""
","
",null,"<div style=""font-size:60px;"">+</div>",NA,null,fixation,2020-06-15T18:25:27Z,NA,NA,NA,NA,NA,sub52
NA,mars-trial,26,88329,0.0-10.0-1.6,"""event"",""trial"",""time""
""focus"",""0"",""3504""
""fullscreenenter"",""0"",""6205""
","
","""event"",""trial"",""time""
""focus"",""0"",""3504""
","""event"",""trial"",""time""
""fullscreenenter"",""0"",""6205""
","
",6388.784999959171,<img style='border: 4px solid darkgrey;' src='img/tf1_7_M_ss3.jpeg'></img>,2,NA,exp,NA,0,<img src='img/tf1_7_T1_ss3_md.jpeg'></img>,0,TRUE,NA,sub52
NA,html-keyboard-response,27,88835,0.0-10.0-0.7,"""event"",""trial"",""time""
""focus"",""0"",""3504""
""fullscreenenter"",""0"",""6205""
","
","""event"",""trial"",""time""
""focus"",""0"",""3504""
","""event"",""trial"",""time""
""fullscreenenter"",""0"",""6205""
","
",null,"<div style=""font-size:60px;"">+</div>",NA,null,fixation,2020-06-15T18:25:35Z,NA,NA,NA,NA,NA,sub52
NA,mars-trial,28,95713,0.0-10.0-1.7,"""event"",""trial"",""time""
""focus"",""0"",""3504""
""fullscreenenter"",""0"",""6205""
","
","""event"",""trial"",""time""
""focus"",""0"",""3504""
","""event"",""trial"",""time""
""fullscreenenter"",""0"",""6205""
","
",6267.025000008289,<img style='border: 4px solid darkgrey;' src='img/tf1_8_M_ss1.jpeg'></img>,3,NA,exp,NA,1,<img src='img/tf1_8_T1_ss1_md.jpeg'></img>,0,FALSE,NA,sub52
NA,html-keyboard-response,29,96220,0.0-10.0-0.8,"""event"",""trial"",""time""
""focus"",""0"",""3504""
""fullscreenenter"",""0"",""6205""
","
","""event"",""trial"",""time""
""focus"",""0"",""3504""
","""event"",""trial"",""time""
""fullscreenenter"",""0"",""6205""
","
",null,"<div style=""font-size:60px;"">+</div>",NA,null,fixation,2020-06-15T18:25:42Z,NA,NA,NA,NA,NA,sub52
NA,mars-trial,30,104033,0.0-10.0-1.8,"""event"",""trial"",""time""
""focus"",""0"",""3504""
""fullscreenenter"",""0"",""6205""
","
","""event"",""trial"",""time""
""focus"",""0"",""3504""
","""event"",""trial"",""time""
""fullscreenenter"",""0"",""6205""
","
",7198.050000006333,<img style='border: 4px solid darkgrey;' src='img/tf1_9_M_ss2.jpeg'></img>,3,NA,exp,NA,2,<img src='img/tf1_9_T1_ss2_md.jpeg'></img>,0,FALSE,NA,sub52
NA,html-keyboard-response,31,104540,0.0-10.0-0.9,"""event"",""trial"",""time""
""focus"",""0"",""3504""
""fullscreenenter"",""0"",""6205""
","
","""event"",""trial"",""time""
""focus"",""0"",""3504""
","""event"",""trial"",""time""
""fullscreenenter"",""0"",""6205""
","
",null,"<div style=""font-size:60px;"">+</div>",NA,null,fixation,2020-06-15T18:25:51Z,NA,NA,NA,NA,NA,sub52
NA,mars-trial,32,112623,0.0-10.0-1.9,"""event"",""trial"",""time""
""focus"",""0"",""3504""
""fullscreenenter"",""0"",""6205""
","
","""event"",""trial"",""time""
""focus"",""0"",""3504""
","""event"",""trial"",""time""
""fullscreenenter"",""0"",""6205""
","
",7466.7999999946915,<img style='border: 4px solid darkgrey;' src='img/tf1_10_M_ss3.jpeg'></img>,1,NA,exp,NA,3,<img src='img/tf1_10_T1_ss3_md.jpeg'></img>,0,FALSE,NA,sub52
NA,html-keyboard-response,33,113129,0.0-10.0-0.10,"""event"",""trial"",""time""
""focus"",""0"",""3504""
""fullscreenenter"",""0"",""6205""
","
","""event"",""trial"",""time""
""focus"",""0"",""3504""
","""event"",""trial"",""time""
""fullscreenenter"",""0"",""6205""
","
",null,"<div style=""font-size:60px;"">+</div>",NA,null,fixation,2020-06-15T18:25:59Z,NA,NA,NA,NA,NA,sub52
NA,mars-trial,34,121998,0.0-10.0-1.10,"""event"",""trial"",""time""
""focus"",""0"",""3504""
""fullscreenenter"",""0"",""6205""
","
","""event"",""trial"",""time""
""focus"",""0"",""3504""
","""event"",""trial"",""time""
""fullscreenenter"",""0"",""6205""
","
",8254.829999990761,<img style='border: 4px solid darkgrey;' src='img/tf1_11_M_ss1.jpeg'></img>,1,NA,exp,NA,3,<img src='img/tf1_11_T1_ss1_md.jpeg'></img>,0,FALSE,NA,sub52
NA,html-keyboard-response,35,122500,0.0-10.0-0.11,"""event"",""trial"",""time""
""focus"",""0"",""3504""
""fullscreenenter"",""0"",""6205""
","
","""event"",""trial"",""time""
""focus"",""0"",""3504""
","""event"",""trial"",""time""
""fullscreenenter"",""0"",""6205""
","
",null,"<div style=""font-size:60px;"">+</div>",NA,null,fixation,2020-06-15T18:26:09Z,NA,NA,NA,NA,NA,sub52
NA,mars-trial,36,135511,0.0-10.0-1.11,"""event"",""trial"",""time""
""focus"",""0"",""3504""
""fullscreenenter"",""0"",""6205""
","
","""event"",""trial"",""time""
""focus"",""0"",""3504""
","""event"",""trial"",""time""
""fullscreenenter"",""0"",""6205""
","
",12396.970000001602,<img style='border: 4px solid darkgrey;' src='img/tf1_12_M_ss2.jpeg'></img>,3,NA,exp,NA,2,<img src='img/tf1_12_T1_ss2_md.jpeg'></img>,0,FALSE,NA,sub52
NA,html-keyboard-response,37,136013,0.0-10.0-0.12,"""event"",""trial"",""time""
""focus"",""0"",""3504""
""fullscreenenter"",""0"",""6205""
","
","""event"",""trial"",""time""
""focus"",""0"",""3504""
","""event"",""trial"",""time""
""fullscreenenter"",""0"",""6205""
","
",null,"<div style=""font-size:60px;"">+</div>",NA,null,fixation,2020-06-15T18:26:22Z,NA,NA,NA,NA,NA,sub52
NA,mars-trial,38,144702,0.0-10.0-1.12,"""event"",""trial"",""time""
""focus"",""0"",""3504""
""fullscreenenter"",""0"",""6205""
","
","""event"",""trial"",""time""
""focus"",""0"",""3504""
","""event"",""trial"",""time""
""fullscreenenter"",""0"",""6205""
","
",8079.989999998361,<img style='border: 4px solid darkgrey;' src='img/tf1_13_M_ss3.jpeg'></img>,3,NA,exp,NA,1,<img src='img/tf1_13_T1_ss3_md.jpeg'></img>,0,FALSE,NA,sub52
NA,html-keyboard-response,39,145206,0.0-10.0-0.13,"""event"",""trial"",""time""
""focus"",""0"",""3504""
""fullscreenenter"",""0"",""6205""
","
","""event"",""trial"",""time""
""focus"",""0"",""3504""
","""event"",""trial"",""time""
""fullscreenenter"",""0"",""6205""
","
",null,"<div style=""font-size:60px;"">+</div>",NA,null,fixation,2020-06-15T18:26:31Z,NA,NA,NA,NA,NA,sub52
NA,mars-trial,40,149553,0.0-10.0-1.13,"""event"",""trial"",""time""
""focus"",""0"",""3504""
""fullscreenenter"",""0"",""6205""
","
","""event"",""trial"",""time""
""focus"",""0"",""3504""
","""event"",""trial"",""time""
""fullscreenenter"",""0"",""6205""
","
",3731.8999999552034,<img style='border: 4px solid darkgrey;' src='img/tf1_14_M_ss1.jpeg'></img>,2,NA,exp,NA,3,<img src='img/tf1_14_T1_ss1_md.jpeg'></img>,0,FALSE,NA,sub52
NA,html-keyboard-response,41,150055,0.0-10.0-0.14,"""event"",""trial"",""time""
""focus"",""0"",""3504""
""fullscreenenter"",""0"",""6205""
","
","""event"",""trial"",""time""
""focus"",""0"",""3504""
","""event"",""trial"",""time""
""fullscreenenter"",""0"",""6205""
","
",null,"<div style=""font-size:60px;"">+</div>",NA,null,fixation,2020-06-15T18:26:36Z,NA,NA,NA,NA,NA,sub52
NA,mars-trial,42,151564,0.0-10.0-1.14,"""event"",""trial"",""time""
""focus"",""0"",""3504""
""fullscreenenter"",""0"",""6205""
","
","""event"",""trial"",""time""
""focus"",""0"",""3504""
","""event"",""trial"",""time""
""fullscreenenter"",""0"",""6205""
","
",899.3449999834411,<img style='border: 4px solid darkgrey;' src='img/tf1_15_M_ss2.jpeg'></img>,3,NA,exp,NA,0,<img src='img/tf1_15_T1_ss2_md.jpeg'></img>,0,TRUE,NA,sub52
NA,html-keyboard-response,43,152069,0.0-10.0-0.15,"""event"",""trial"",""time""
""focus"",""0"",""3504""
""fullscreenenter"",""0"",""6205""
","
","""event"",""trial"",""time""
""focus"",""0"",""3504""
","""event"",""trial"",""time""
""fullscreenenter"",""0"",""6205""
","
",null,"<div style=""font-size:60px;"">+</div>",NA,null,fixation,2020-06-15T18:26:38Z,NA,NA,NA,NA,NA,sub52
NA,mars-trial,44,153606,0.0-10.0-1.15,"""event"",""trial"",""time""
""focus"",""0"",""3504""
""fullscreenenter"",""0"",""6205""
","
","""event"",""trial"",""time""
""focus"",""0"",""3504""
","""event"",""trial"",""time""
""fullscreenenter"",""0"",""6205""
","
",922.9099999647588,<img style='border: 4px solid darkgrey;' src='img/tf1_16_M_ss3.jpeg'></img>,3,NA,exp,NA,1,<img src='img/tf1_16_T1_ss3_md.jpeg'></img>,0,FALSE,NA,sub52
NA,html-keyboard-response,45,154109,0.0-10.0-0.16,"""event"",""trial"",""time""
""focus"",""0"",""3504""
""fullscreenenter"",""0"",""6205""
","
","""event"",""trial"",""time""
""focus"",""0"",""3504""
","""event"",""trial"",""time""
""fullscreenenter"",""0"",""6205""
","
",null,"<div style=""font-size:60px;"">+</div>",NA,null,fixation,2020-06-15T18:26:40Z,NA,NA,NA,NA,NA,sub52
NA,mars-trial,46,155814,0.0-10.0-1.16,"""event"",""trial"",""time""
""focus"",""0"",""3504""
""fullscreenenter"",""0"",""6205""
","
","""event"",""trial"",""time""
""focus"",""0"",""3504""
","""event"",""trial"",""time""
""fullscreenenter"",""0"",""6205""
","
",1090.1099999900907,<img style='border: 4px solid darkgrey;' src='img/tf1_17_M_ss1.jpeg'></img>,1,NA,exp,NA,1,<img src='img/tf1_17_T1_ss1_md.jpeg'></img>,0,FALSE,NA,sub52
NA,html-keyboard-response,47,156317,0.0-10.0-0.17,"""event"",""trial"",""time""
""focus"",""0"",""3504""
""fullscreenenter"",""0"",""6205""
","
","""event"",""trial"",""time""
""focus"",""0"",""3504""
","""event"",""trial"",""time""
""fullscreenenter"",""0"",""6205""
","
",null,"<div style=""font-size:60px;"">+</div>",NA,null,fixation,2020-06-15T18:26:42Z,NA,NA,NA,NA,NA,sub52
NA,mars-trial,48,157676,0.0-10.0-1.17,"""event"",""trial"",""time""
""focus"",""0"",""3504""
""fullscreenenter"",""0"",""6205""
","
","""event"",""trial"",""time""
""focus"",""0"",""3504""
","""event"",""trial"",""time""
""fullscreenenter"",""0"",""6205""
","
",748.8749999902211,<img style='border: 4px solid darkgrey;' src='img/tf1_18_M_ss2.jpeg'></img>,2,NA,exp,NA,2,<img src='img/tf1_18_T1_ss2_md.jpeg'></img>,0,FALSE,NA,sub52
NA,html-keyboard-response,49,158178,0.0-10.0-0.18,"""event"",""trial"",""time""
""focus"",""0"",""3504""
""fullscreenenter"",""0"",""6205""
","
","""event"",""trial"",""time""
""focus"",""0"",""3504""
","""event"",""trial"",""time""
""fullscreenenter"",""0"",""6205""
","
",null,"<div style=""font-size:60px;"">+</div>",NA,null,fixation,2020-06-15T18:26:44Z,NA,NA,NA,NA,NA,sub52
NA,mars-trial,50,160347,0.0-10.0-1.18,"""event"",""trial"",""time""
""focus"",""0"",""3504""
""fullscreenenter"",""0"",""6205""
","
","""event"",""trial"",""time""
""focus"",""0"",""3504""
","""event"",""trial"",""time""
""fullscreenenter"",""0"",""6205""
","
",1559.789999970235,<img style='border: 4px solid darkgrey;' src='img/tf1_19_M_ss3.jpeg'></img>,2,NA,exp,NA,2,<img src='img/tf1_19_T1_ss3_md.jpeg'></img>,0,FALSE,NA,sub52
NA,html-keyboard-response,51,160850,0.0-10.0-0.19,"""event"",""trial"",""time""
""focus"",""0"",""3504""
""fullscreenenter"",""0"",""6205""
","
","""event"",""trial"",""time""
""focus"",""0"",""3504""
","""event"",""trial"",""time""
""fullscreenenter"",""0"",""6205""
","
",null,"<div style=""font-size:60px;"">+</div>",NA,null,fixation,2020-06-15T18:26:47Z,NA,NA,NA,NA,NA,sub52
NA,mars-trial,52,162162,0.0-10.0-1.19,"""event"",""trial"",""time""
""focus"",""0"",""3504""
""fullscreenenter"",""0"",""6205""
","
","""event"",""trial"",""time""
""focus"",""0"",""3504""
","""event"",""trial"",""time""
""fullscreenenter"",""0"",""6205""
","
",701.7700000433251,<img style='border: 4px solid darkgrey;' src='img/tf1_20_M_ss1.jpeg'></img>,2,NA,exp,NA,0,<img src='img/tf1_20_T1_ss1_md.jpeg'></img>,0,TRUE,NA,sub52
NA,html-keyboard-response,53,162664,0.0-10.0-0.20,"""event"",""trial"",""time""
""focus"",""0"",""3504""
""fullscreenenter"",""0"",""6205""
","
","""event"",""trial"",""time""
""focus"",""0"",""3504""
","""event"",""trial"",""time""
""fullscreenenter"",""0"",""6205""
","
",null,"<div style=""font-size:60px;"">+</div>",NA,null,fixation,2020-06-15T18:26:49Z,NA,NA,NA,NA,NA,sub52
NA,mars-trial,54,166136,0.0-10.0-1.20,"""event"",""trial"",""time""
""focus"",""0"",""3504""
""fullscreenenter"",""0"",""6205""
","
","""event"",""trial"",""time""
""focus"",""0"",""3504""
","""event"",""trial"",""time""
""fullscreenenter"",""0"",""6205""
","
",2862.635000026785,<img style='border: 4px solid darkgrey;' src='img/tf1_21_M_ss2.jpeg'></img>,1,NA,exp,NA,1,<img src='img/tf1_21_T1_ss2_md.jpeg'></img>,0,FALSE,NA,sub52
NA,html-keyboard-response,55,166640,0.0-10.0-0.21,"""event"",""trial"",""time""
""focus"",""0"",""3504""
""fullscreenenter"",""0"",""6205""
","
","""event"",""trial"",""time""
""focus"",""0"",""3504""
","""event"",""trial"",""time""
""fullscreenenter"",""0"",""6205""
","
",null,"<div style=""font-size:60px;"">+</div>",NA,null,fixation,2020-06-15T18:26:53Z,NA,NA,NA,NA,NA,sub52
NA,mars-trial,56,169188,0.0-10.0-1.21,"""event"",""trial"",""time""
""focus"",""0"",""3504""
""fullscreenenter"",""0"",""6205""
","
","""event"",""trial"",""time""
""focus"",""0"",""3504""
","""event"",""trial"",""time""
""fullscreenenter"",""0"",""6205""
","
",1937.1549999923445,<img style='border: 4px solid darkgrey;' src='img/tf1_22_M_ss3.jpeg'></img>,0,NA,exp,NA,1,<img src='img/tf1_22_T1_ss3_md.jpeg'></img>,0,FALSE,NA,sub52
NA,html-keyboard-response,57,169689,0.0-10.0-0.22,"""event"",""trial"",""time""
""focus"",""0"",""3504""
""fullscreenenter"",""0"",""6205""
","
","""event"",""trial"",""time""
""focus"",""0"",""3504""
","""event"",""trial"",""time""
""fullscreenenter"",""0"",""6205""
","
",null,"<div style=""font-size:60px;"">+</div>",NA,null,fixation,2020-06-15T18:26:56Z,NA,NA,NA,NA,NA,sub52
NA,mars-trial,58,171259,0.0-10.0-1.22,"""event"",""trial"",""time""
""focus"",""0"",""3504""
""fullscreenenter"",""0"",""6205""
","
","""event"",""trial"",""time""
""focus"",""0"",""3504""
","""event"",""trial"",""time""
""fullscreenenter"",""0"",""6205""
","
",958.1400000024587,<img style='border: 4px solid darkgrey;' src='img/tf1_23_M_ss1.jpeg'></img>,0,NA,exp,NA,1,<img src='img/tf1_23_T1_ss1_md.jpeg'></img>,0,FALSE,NA,sub52
NA,html-keyboard-response,59,171764,0.0-10.0-0.23,"""event"",""trial"",""time""
""focus"",""0"",""3504""
""fullscreenenter"",""0"",""6205""
","
","""event"",""trial"",""time""
""focus"",""0"",""3504""
","""event"",""trial"",""time""
""fullscreenenter"",""0"",""6205""
","
",null,"<div style=""font-size:60px;"">+</div>",NA,null,fixation,2020-06-15T18:26:58Z,NA,NA,NA,NA,NA,sub52
NA,mars-trial,60,175893,0.0-10.0-1.23,"""event"",""trial"",""time""
""focus"",""0"",""3504""
""fullscreenenter"",""0"",""6205""
","
","""event"",""trial"",""time""
""focus"",""0"",""3504""
","""event"",""trial"",""time""
""fullscreenenter"",""0"",""6205""
","
",3519.2650000099093,<img style='border: 4px solid darkgrey;' src='img/tf1_24_M_ss2.jpeg'></img>,1,NA,exp,NA,3,<img src='img/tf1_24_T1_ss2_md.jpeg'></img>,0,FALSE,NA,sub52
NA,html-keyboard-response,61,176454,0.0-10.0-0.24,"""event"",""trial"",""time""
""focus"",""0"",""3504""
""fullscreenenter"",""0"",""6205""
","
","""event"",""trial"",""time""
""focus"",""0"",""3504""
","""event"",""trial"",""time""
""fullscreenenter"",""0"",""6205""
","
",null,"<div style=""font-size:60px;"">+</div>",NA,null,fixation,2020-06-15T18:27:03Z,NA,NA,NA,NA,NA,sub52
NA,mars-trial,62,177938,0.0-10.0-1.24,"""event"",""trial"",""time""
""focus"",""0"",""3504""
""fullscreenenter"",""0"",""6205""
","
","""event"",""trial"",""time""
""focus"",""0"",""3504""
","""event"",""trial"",""time""
""fullscreenenter"",""0"",""6205""
","
",812.8549999673851,<img style='border: 4px solid darkgrey;' src='img/tf1_25_M_ss3.jpeg'></img>,1,NA,exp,NA,1,<img src='img/tf1_25_T1_ss3_md.jpeg'></img>,0,FALSE,NA,sub52
NA,html-keyboard-response,63,178444,0.0-10.0-0.25,"""event"",""trial"",""time""
""focus"",""0"",""3504""
""fullscreenenter"",""0"",""6205""
","
","""event"",""trial"",""time""
""focus"",""0"",""3504""
","""event"",""trial"",""time""
""fullscreenenter"",""0"",""6205""
","
",null,"<div style=""font-size:60px;"">+</div>",NA,null,fixation,2020-06-15T18:27:05Z,NA,NA,NA,NA,NA,sub52
NA,mars-trial,64,179562,0.0-10.0-1.25,"""event"",""trial"",""time""
""focus"",""0"",""3504""
""fullscreenenter"",""0"",""6205""
","
","""event"",""trial"",""time""
""focus"",""0"",""3504""
","""event"",""trial"",""time""
""fullscreenenter"",""0"",""6205""
","
",510.7900000293739,<img style='border: 4px solid darkgrey;' src='img/tf1_26_M_ss1.jpeg'></img>,1,NA,exp,NA,0,<img src='img/tf1_26_T1_ss1_md.jpeg'></img>,0,TRUE,NA,sub52
NA,html-keyboard-response,65,180065,0.0-10.0-0.26,"""event"",""trial"",""time""
""focus"",""0"",""3504""
""fullscreenenter"",""0"",""6205""
","
","""event"",""trial"",""time""
""focus"",""0"",""3504""
","""event"",""trial"",""time""
""fullscreenenter"",""0"",""6205""
","
",null,"<div style=""font-size:60px;"">+</div>",NA,null,fixation,2020-06-15T18:27:06Z,NA,NA,NA,NA,NA,sub52
NA,mars-trial,66,181265,0.0-10.0-1.26,"""event"",""trial"",""time""
""focus"",""0"",""3504""
""fullscreenenter"",""0"",""6205""
","
","""event"",""trial"",""time""
""focus"",""0"",""3504""
","""event"",""trial"",""time""
""fullscreenenter"",""0"",""6205""
","
",591.30999998888,<img style='border: 4px solid darkgrey;' src='img/tf1_27_M_ss2.jpeg'></img>,1,NA,exp,NA,2,<img src='img/tf1_27_T1_ss2_md.jpeg'></img>,0,FALSE,NA,sub52
NA,html-keyboard-response,67,181771,0.0-10.0-0.27,"""event"",""trial"",""time""
""focus"",""0"",""3504""
""fullscreenenter"",""0"",""6205""
","
","""event"",""trial"",""time""
""focus"",""0"",""3504""
","""event"",""trial"",""time""
""fullscreenenter"",""0"",""6205""
","
",null,"<div style=""font-size:60px;"">+</div>",NA,null,fixation,2020-06-15T18:27:08Z,NA,NA,NA,NA,NA,sub52
NA,mars-trial,68,182833,0.0-10.0-1.27,"""event"",""trial"",""time""
""focus"",""0"",""3504""
""fullscreenenter"",""0"",""6205""
","
","""event"",""trial"",""time""
""focus"",""0"",""3504""
","""event"",""trial"",""time""
""fullscreenenter"",""0"",""6205""
","
",455.6400000001304,<img style='border: 4px solid darkgrey;' src='img/tf1_28_M_ss3.jpeg'></img>,1,NA,exp,NA,2,<img src='img/tf1_28_T1_ss3_md.jpeg'></img>,0,FALSE,NA,sub52
NA,html-keyboard-response,69,183335,0.0-10.0-0.28,"""event"",""trial"",""time""
""focus"",""0"",""3504""
""fullscreenenter"",""0"",""6205""
","
","""event"",""trial"",""time""
""focus"",""0"",""3504""
","""event"",""trial"",""time""
""fullscreenenter"",""0"",""6205""
","
",null,"<div style=""font-size:60px;"">+</div>",NA,null,fixation,2020-06-15T18:27:09Z,NA,NA,NA,NA,NA,sub52
NA,mars-trial,70,185782,0.0-10.0-1.28,"""event"",""trial"",""time""
""focus"",""0"",""3504""
""fullscreenenter"",""0"",""6205""
","
","""event"",""trial"",""time""
""focus"",""0"",""3504""
","""event"",""trial"",""time""
""fullscreenenter"",""0"",""6205""
","
",1837.984999991022,<img style='border: 4px solid darkgrey;' src='img/tf1_29_M_ss1.jpeg'></img>,2,NA,exp,NA,2,<img src='img/tf1_29_T1_ss1_md.jpeg'></img>,0,FALSE,NA,sub52
NA,html-keyboard-response,71,186286,0.0-10.0-0.29,"""event"",""trial"",""time""
""focus"",""0"",""3504""
""fullscreenenter"",""0"",""6205""
","
","""event"",""trial"",""time""
""focus"",""0"",""3504""
","""event"",""trial"",""time""
""fullscreenenter"",""0"",""6205""
","
",null,"<div style=""font-size:60px;"">+</div>",NA,null,fixation,2020-06-15T18:27:12Z,NA,NA,NA,NA,NA,sub52
NA,mars-trial,72,187523,0.0-10.0-1.29,"""event"",""trial"",""time""
""focus"",""0"",""3504""
""fullscreenenter"",""0"",""6205""
","
","""event"",""trial"",""time""
""focus"",""0"",""3504""
","""event"",""trial"",""time""
""fullscreenenter"",""0"",""6205""
","
",625.7199999527074,<img style='border: 4px solid darkgrey;' src='img/tf1_30_M_ss2.jpeg'></img>,2,NA,exp,NA,2,<img src='img/tf1_30_T1_ss2_md.jpeg'></img>,0,FALSE,NA,sub52
NA,html-keyboard-response,73,188027,0.0-10.0-0.30,"""event"",""trial"",""time""
""focus"",""0"",""3504""
""fullscreenenter"",""0"",""6205""
","
","""event"",""trial"",""time""
""focus"",""0"",""3504""
","""event"",""trial"",""time""
""fullscreenenter"",""0"",""6205""
","
",null,"<div style=""font-size:60px;"">+</div>",NA,null,fixation,2020-06-15T18:27:14Z,NA,NA,NA,NA,NA,sub52
NA,mars-trial,74,189555,0.0-10.0-1.30,"""event"",""trial"",""time""
""focus"",""0"",""3504""
""fullscreenenter"",""0"",""6205""
","
","""event"",""trial"",""time""
""focus"",""0"",""3504""
","""event"",""trial"",""time""
""fullscreenenter"",""0"",""6205""
","
",920.4850000096485,<img style='border: 4px solid darkgrey;' src='img/tf1_31_M_ss3.jpeg'></img>,1,NA,exp,NA,3,<img src='img/tf1_31_T1_ss3_md.jpeg'></img>,0,FALSE,NA,sub52
NA,html-keyboard-response,75,190058,0.0-10.0-0.31,"""event"",""trial"",""time""
""focus"",""0"",""3504""
""fullscreenenter"",""0"",""6205""
","
","""event"",""trial"",""time""
""focus"",""0"",""3504""
","""event"",""trial"",""time""
""fullscreenenter"",""0"",""6205""
","
",null,"<div style=""font-size:60px;"">+</div>",NA,null,fixation,2020-06-15T18:27:16Z,NA,NA,NA,NA,NA,sub52
NA,mars-trial,76,191411,0.0-10.0-1.31,"""event"",""trial"",""time""
""focus"",""0"",""3504""
""fullscreenenter"",""0"",""6205""
","
","""event"",""trial"",""time""
""focus"",""0"",""3504""
","""event"",""trial"",""time""
""fullscreenenter"",""0"",""6205""
","
",746.3850000058301,<img style='border: 4px solid darkgrey;' src='img/tf1_32_M_ss1.jpeg'></img>,1,NA,exp,NA,2,<img src='img/tf1_32_T1_ss1_md.jpeg'></img>,0,FALSE,NA,sub52
NA,html-keyboard-response,77,191916,0.0-10.0-0.32,"""event"",""trial"",""time""
""focus"",""0"",""3504""
""fullscreenenter"",""0"",""6205""
","
","""event"",""trial"",""time""
""focus"",""0"",""3504""
","""event"",""trial"",""time""
""fullscreenenter"",""0"",""6205""
","
",null,"<div style=""font-size:60px;"">+</div>",NA,null,fixation,2020-06-15T18:27:18Z,NA,NA,NA,NA,NA,sub52
NA,mars-trial,78,192915,0.0-10.0-1.32,"""event"",""trial"",""time""
""focus"",""0"",""3504""
""fullscreenenter"",""0"",""6205""
","
","""event"",""trial"",""time""
""focus"",""0"",""3504""
","""event"",""trial"",""time""
""fullscreenenter"",""0"",""6205""
","
",389.5049999700859,<img style='border: 4px solid darkgrey;' src='img/tf1_33_M_ss2.jpeg'></img>,1,NA,exp,NA,2,<img src='img/tf1_33_T1_ss2_md.jpeg'></img>,0,FALSE,NA,sub52
NA,html-keyboard-response,79,193418,0.0-10.0-0.33,"""event"",""trial"",""time""
""focus"",""0"",""3504""
""fullscreenenter"",""0"",""6205""
","
","""event"",""trial"",""time""
""focus"",""0"",""3504""
","""event"",""trial"",""time""
""fullscreenenter"",""0"",""6205""
","
",null,"<div style=""font-size:60px;"">+</div>",NA,null,fixation,2020-06-15T18:27:20Z,NA,NA,NA,NA,NA,sub52
NA,mars-trial,80,194771,0.0-10.0-1.33,"""event"",""trial"",""time""
""focus"",""0"",""3504""
""fullscreenenter"",""0"",""6205""
","
","""event"",""trial"",""time""
""focus"",""0"",""3504""
","""event"",""trial"",""time""
""fullscreenenter"",""0"",""6205""
","
",740.4249999672174,<img style='border: 4px solid darkgrey;' src='img/tf1_34_M_ss3.jpeg'></img>,1,NA,exp,NA,0,<img src='img/tf1_34_T1_ss3_md.jpeg'></img>,0,TRUE,NA,sub52
NA,html-keyboard-response,81,195276,0.0-10.0-0.34,"""event"",""trial"",""time""
""focus"",""0"",""3504""
""fullscreenenter"",""0"",""6205""
","
","""event"",""trial"",""time""
""focus"",""0"",""3504""
","""event"",""trial"",""time""
""fullscreenenter"",""0"",""6205""
","
",null,"<div style=""font-size:60px;"">+</div>",NA,null,fixation,2020-06-15T18:27:21Z,NA,NA,NA,NA,NA,sub52
NA,mars-trial,82,196427,0.0-10.0-1.34,"""event"",""trial"",""time""
""focus"",""0"",""3504""
""fullscreenenter"",""0"",""6205""
","
","""event"",""trial"",""time""
""focus"",""0"",""3504""
","""event"",""trial"",""time""
""fullscreenenter"",""0"",""6205""
","
",539.7700000321493,<img style='border: 4px solid darkgrey;' src='img/tf1_35_M_ss1.jpeg'></img>,1,NA,exp,NA,3,<img src='img/tf1_35_T1_ss1_md.jpeg'></img>,0,FALSE,NA,sub52
NA,html-keyboard-response,83,196932,0.0-10.0-0.35,"""event"",""trial"",""time""
""focus"",""0"",""3504""
""fullscreenenter"",""0"",""6205""
","
","""event"",""trial"",""time""
""focus"",""0"",""3504""
","""event"",""trial"",""time""
""fullscreenenter"",""0"",""6205""
","
",null,"<div style=""font-size:60px;"">+</div>",NA,null,fixation,2020-06-15T18:27:23Z,NA,NA,NA,NA,NA,sub52
NA,mars-trial,84,198937,0.0-10.0-1.35,"""event"",""trial"",""time""
""focus"",""0"",""3504""
""fullscreenenter"",""0"",""6205""
","
","""event"",""trial"",""time""
""focus"",""0"",""3504""
","""event"",""trial"",""time""
""fullscreenenter"",""0"",""6205""
","
",1395.7299999892712,<img style='border: 4px solid darkgrey;' src='img/tf1_36_M_ss2.jpeg'></img>,1,NA,exp,NA,2,<img src='img/tf1_36_T1_ss2_md.jpeg'></img>,0,FALSE,NA,sub52
NA,html-keyboard-response,85,199441,0.0-10.0-0.36,"""event"",""trial"",""time""
""focus"",""0"",""3504""
""fullscreenenter"",""0"",""6205""
","
","""event"",""trial"",""time""
""focus"",""0"",""3504""
","""event"",""trial"",""time""
""fullscreenenter"",""0"",""6205""
","
",null,"<div style=""font-size:60px;"">+</div>",NA,null,fixation,2020-06-15T18:27:26Z,NA,NA,NA,NA,NA,sub52
NA,mars-trial,86,200591,0.0-10.0-1.36,"""event"",""trial"",""time""
""focus"",""0"",""3504""
""fullscreenenter"",""0"",""6205""
","
","""event"",""trial"",""time""
""focus"",""0"",""3504""
","""event"",""trial"",""time""
""fullscreenenter"",""0"",""6205""
","
",541.7899999883957,<img style='border: 4px solid darkgrey;' src='img/tf1_37_M_ss3.jpeg'></img>,1,NA,exp,NA,2,<img src='img/tf1_37_T1_ss3_md.jpeg'></img>,0,FALSE,NA,sub52
NA,html-keyboard-response,87,201093,0.0-10.0-0.37,"""event"",""trial"",""time""
""focus"",""0"",""3504""
""fullscreenenter"",""0"",""6205""
","
","""event"",""trial"",""time""
""focus"",""0"",""3504""
","""event"",""trial"",""time""
""fullscreenenter"",""0"",""6205""
","
",null,"<div style=""font-size:60px;"">+</div>",NA,null,fixation,2020-06-15T18:27:27Z,NA,NA,NA,NA,NA,sub52
NA,mars-trial,88,202633,0.0-10.0-1.37,"""event"",""trial"",""time""
""focus"",""0"",""3504""
""fullscreenenter"",""0"",""6205""
","
","""event"",""trial"",""time""
""focus"",""0"",""3504""
","""event"",""trial"",""time""
""fullscreenenter"",""0"",""6205""
","
",934.5549999852665,<img style='border: 4px solid darkgrey;' src='img/tf1_38_M_ss1.jpeg'></img>,0,NA,exp,NA,3,<img src='img/tf1_38_T1_ss1_md.jpeg'></img>,0,FALSE,NA,sub52
NA,html-keyboard-response,89,203135,0.0-10.0-0.38,"""event"",""trial"",""time""
""focus"",""0"",""3504""
""fullscreenenter"",""0"",""6205""
","
","""event"",""trial"",""time""
""focus"",""0"",""3504""
","""event"",""trial"",""time""
""fullscreenenter"",""0"",""6205""
","
",null,"<div style=""font-size:60px;"">+</div>",NA,null,fixation,2020-06-15T18:27:29Z,NA,NA,NA,NA,NA,sub52
NA,mars-trial,90,204253,0.0-10.0-1.38,"""event"",""trial"",""time""
""focus"",""0"",""3504""
""fullscreenenter"",""0"",""6205""
","
","""event"",""trial"",""time""
""focus"",""0"",""3504""
","""event"",""trial"",""time""
""fullscreenenter"",""0"",""6205""
","
",511.50000002235174,<img style='border: 4px solid darkgrey;' src='img/tf1_39_M_ss2.jpeg'></img>,2,NA,exp,NA,3,<img src='img/tf1_39_T1_ss2_md.jpeg'></img>,0,FALSE,NA,sub52
NA,html-keyboard-response,91,204755,0.0-10.0-0.39,"""event"",""trial"",""time""
""focus"",""0"",""3504""
""fullscreenenter"",""0"",""6205""
","
","""event"",""trial"",""time""
""focus"",""0"",""3504""
","""event"",""trial"",""time""
""fullscreenenter"",""0"",""6205""
","
",null,"<div style=""font-size:60px;"">+</div>",NA,null,fixation,2020-06-15T18:27:31Z,NA,NA,NA,NA,NA,sub52
NA,mars-trial,92,205945,0.0-10.0-1.39,"""event"",""trial"",""time""
""focus"",""0"",""3504""
""fullscreenenter"",""0"",""6205""
","
","""event"",""trial"",""time""
""focus"",""0"",""3504""
","""event"",""trial"",""time""
""fullscreenenter"",""0"",""6205""
","
",585.7400000095367,<img style='border: 4px solid darkgrey;' src='img/tf1_40_M_ss3.jpeg'></img>,1,NA,exp,NA,0,<img src='img/tf1_40_T1_ss3_md.jpeg'></img>,0,TRUE,NA,sub52
NA,html-keyboard-response,93,206447,0.0-10.0-0.40,"""event"",""trial"",""time""
""focus"",""0"",""3504""
""fullscreenenter"",""0"",""6205""
","
","""event"",""trial"",""time""
""focus"",""0"",""3504""
","""event"",""trial"",""time""
""fullscreenenter"",""0"",""6205""
","
",null,"<div style=""font-size:60px;"">+</div>",NA,null,fixation,2020-06-15T18:27:33Z,NA,NA,NA,NA,NA,sub52
NA,mars-trial,94,207636,0.0-10.0-1.40,"""event"",""trial"",""time""
""focus"",""0"",""3504""
""fullscreenenter"",""0"",""6205""
","
","""event"",""trial"",""time""
""focus"",""0"",""3504""
","""event"",""trial"",""time""
""fullscreenenter"",""0"",""6205""
","
",577.8999999747612,<img style='border: 4px solid darkgrey;' src='img/tf1_41_M_ss1.jpeg'></img>,2,NA,exp,NA,2,<img src='img/tf1_41_T1_ss1_md.jpeg'></img>,0,FALSE,NA,sub52
NA,html-keyboard-response,95,208138,0.0-10.0-0.41,"""event"",""trial"",""time""
""focus"",""0"",""3504""
""fullscreenenter"",""0"",""6205""
","
","""event"",""trial"",""time""
""focus"",""0"",""3504""
","""event"",""trial"",""time""
""fullscreenenter"",""0"",""6205""
","
",null,"<div style=""font-size:60px;"">+</div>",NA,null,fixation,2020-06-15T18:27:34Z,NA,NA,NA,NA,NA,sub52
NA,mars-trial,96,211363,0.0-10.0-1.41,"""event"",""trial"",""time""
""focus"",""0"",""3504""
""fullscreenenter"",""0"",""6205""
","
","""event"",""trial"",""time""
""focus"",""0"",""3504""
","""event"",""trial"",""time""
""fullscreenenter"",""0"",""6205""
","
",2619.120000046678,<img style='border: 4px solid darkgrey;' src='img/tf1_42_M_ss2.jpeg'></img>,1,NA,exp,NA,2,<img src='img/tf1_42_T1_ss2_md.jpeg'></img>,0,FALSE,NA,sub52
NA,html-keyboard-response,97,211864,0.0-10.0-0.42,"""event"",""trial"",""time""
""focus"",""0"",""3504""
""fullscreenenter"",""0"",""6205""
","
","""event"",""trial"",""time""
""focus"",""0"",""3504""
","""event"",""trial"",""time""
""fullscreenenter"",""0"",""6205""
","
",null,"<div style=""font-size:60px;"">+</div>",NA,null,fixation,2020-06-15T18:27:38Z,NA,NA,NA,NA,NA,sub52
NA,mars-trial,98,213094,0.0-10.0-1.42,"""event"",""trial"",""time""
""focus"",""0"",""3504""
""fullscreenenter"",""0"",""6205""
","
","""event"",""trial"",""time""
""focus"",""0"",""3504""
","""event"",""trial"",""time""
""fullscreenenter"",""0"",""6205""
","
",619.7299999766983,<img style='border: 4px solid darkgrey;' src='img/tf1_43_M_ss3.jpeg'></img>,1,NA,exp,NA,1,<img src='img/tf1_43_T1_ss3_md.jpeg'></img>,0,FALSE,NA,sub52
NA,html-keyboard-response,99,213596,0.0-10.0-0.43,"""event"",""trial"",""time""
""focus"",""0"",""3504""
""fullscreenenter"",""0"",""6205""
","
","""event"",""trial"",""time""
""focus"",""0"",""3504""
","""event"",""trial"",""time""
""fullscreenenter"",""0"",""6205""
","
",null,"<div style=""font-size:60px;"">+</div>",NA,null,fixation,2020-06-15T18:27:40Z,NA,NA,NA,NA,NA,sub52
NA,mars-trial,100,215374,0.0-10.0-1.43,"""event"",""trial"",""time""
""focus"",""0"",""3504""
""fullscreenenter"",""0"",""6205""
","
","""event"",""trial"",""time""
""focus"",""0"",""3504""
","""event"",""trial"",""time""
""fullscreenenter"",""0"",""6205""
","
",1171.9549999688752,<img style='border: 4px solid darkgrey;' src='img/tf1_44_M_ss1.jpeg'></img>,3,NA,exp,NA,2,<img src='img/tf1_44_T1_ss1_md.jpeg'></img>,0,FALSE,NA,sub52
NA,html-keyboard-response,101,215874,0.0-10.0-0.44,"""event"",""trial"",""time""
""focus"",""0"",""3504""
""fullscreenenter"",""0"",""6205""
","
","""event"",""trial"",""time""
""focus"",""0"",""3504""
","""event"",""trial"",""time""
""fullscreenenter"",""0"",""6205""
","
",null,"<div style=""font-size:60px;"">+</div>",NA,null,fixation,2020-06-15T18:27:42Z,NA,NA,NA,NA,NA,sub52
NA,mars-trial,102,217354,0.0-10.0-1.44,"""event"",""trial"",""time""
""focus"",""0"",""3504""
""fullscreenenter"",""0"",""6205""
","
","""event"",""trial"",""time""
""focus"",""0"",""3504""
","""event"",""trial"",""time""
""fullscreenenter"",""0"",""6205""
","
",875.5699999746867,<img style='border: 4px solid darkgrey;' src='img/tf1_45_M_ss2.jpeg'></img>,2,NA,exp,NA,1,<img src='img/tf1_45_T1_ss2_md.jpeg'></img>,0,FALSE,NA,sub52
NA,html-keyboard-response,103,217855,0.0-10.0-0.45,"""event"",""trial"",""time""
""focus"",""0"",""3504""
""fullscreenenter"",""0"",""6205""
","
","""event"",""trial"",""time""
""focus"",""0"",""3504""
","""event"",""trial"",""time""
""fullscreenenter"",""0"",""6205""
","
",null,"<div style=""font-size:60px;"">+</div>",NA,null,fixation,2020-06-15T18:27:44Z,NA,NA,NA,NA,NA,sub52
NA,mars-trial,104,219449,0.0-10.0-1.45,"""event"",""trial"",""time""
""focus"",""0"",""3504""
""fullscreenenter"",""0"",""6205""
","
","""event"",""trial"",""time""
""focus"",""0"",""3504""
","""event"",""trial"",""time""
""fullscreenenter"",""0"",""6205""
","
",986.8699999642558,<img style='border: 4px solid darkgrey;' src='img/tf1_46_M_ss3.jpeg'></img>,1,NA,exp,NA,2,<img src='img/tf1_46_T1_ss3_md.jpeg'></img>,0,FALSE,NA,sub52
NA,html-keyboard-response,105,219953,0.0-10.0-0.46,"""event"",""trial"",""time""
""focus"",""0"",""3504""
""fullscreenenter"",""0"",""6205""
","
","""event"",""trial"",""time""
""focus"",""0"",""3504""
","""event"",""trial"",""time""
""fullscreenenter"",""0"",""6205""
","
",null,"<div style=""font-size:60px;"">+</div>",NA,null,fixation,2020-06-15T18:27:46Z,NA,NA,NA,NA,NA,sub52
NA,mars-trial,106,221239,0.0-10.0-1.46,"""event"",""trial"",""time""
""focus"",""0"",""3504""
""fullscreenenter"",""0"",""6205""
","
","""event"",""trial"",""time""
""focus"",""0"",""3504""
","""event"",""trial"",""time""
""fullscreenenter"",""0"",""6205""
","
",679.0400000172667,<img style='border: 4px solid darkgrey;' src='img/tf1_47_M_ss1.jpeg'></img>,0,NA,exp,NA,1,<img src='img/tf1_47_T1_ss1_md.jpeg'></img>,0,FALSE,NA,sub52
NA,html-keyboard-response,107,221741,0.0-10.0-0.47,"""event"",""trial"",""time""
""focus"",""0"",""3504""
""fullscreenenter"",""0"",""6205""
","
","""event"",""trial"",""time""
""focus"",""0"",""3504""
","""event"",""trial"",""time""
""fullscreenenter"",""0"",""6205""
","
",null,"<div style=""font-size:60px;"">+</div>",NA,null,fixation,2020-06-15T18:27:48Z,NA,NA,NA,NA,NA,sub52
NA,mars-trial,108,223176,0.0-10.0-1.47,"""event"",""trial"",""time""
""focus"",""0"",""3504""
""fullscreenenter"",""0"",""6205""
","
","""event"",""trial"",""time""
""focus"",""0"",""3504""
","""event"",""trial"",""time""
""fullscreenenter"",""0"",""6205""
","
",824.6149999904446,<img style='border: 4px solid darkgrey;' src='img/tf1_48_M_ss2.jpeg'></img>,2,NA,exp,NA,0,<img src='img/tf1_48_T1_ss2_md.jpeg'></img>,0,TRUE,NA,sub52
NA,html-keyboard-response,109,223681,0.0-10.0-0.48,"""event"",""trial"",""time""
""focus"",""0"",""3504""
""fullscreenenter"",""0"",""6205""
","
","""event"",""trial"",""time""
""focus"",""0"",""3504""
","""event"",""trial"",""time""
""fullscreenenter"",""0"",""6205""
","
",null,"<div style=""font-size:60px;"">+</div>",NA,null,fixation,2020-06-15T18:27:50Z,NA,NA,NA,NA,NA,sub52
NA,mars-trial,110,236324,0.0-10.0-1.48,"""event"",""trial"",""time""
""focus"",""0"",""3504""
""fullscreenenter"",""0"",""6205""
","
","""event"",""trial"",""time""
""focus"",""0"",""3504""
","""event"",""trial"",""time""
""fullscreenenter"",""0"",""6205""
","
",12027.19499997329,<img style='border: 4px solid darkgrey;' src='img/tf1_49_M_ss3.jpeg'></img>,2,NA,exp,NA,1,<img src='img/tf1_49_T1_ss3_md.jpeg'></img>,0,FALSE,NA,sub52
NA,html-keyboard-response,111,236829,0.0-10.0-0.49,"""event"",""trial"",""time""
""focus"",""0"",""3504""
""fullscreenenter"",""0"",""6205""
","
","""event"",""trial"",""time""
""focus"",""0"",""3504""
","""event"",""trial"",""time""
""fullscreenenter"",""0"",""6205""
","
",null,"<div style=""font-size:60px;"">+</div>",NA,null,fixation,2020-06-15T18:28:03Z,NA,NA,NA,NA,NA,sub52
NA,mars-trial,112,238352,0.0-10.0-1.49,"""event"",""trial"",""time""
""focus"",""0"",""3504""
""fullscreenenter"",""0"",""6205""
","
","""event"",""trial"",""time""
""focus"",""0"",""3504""
","""event"",""trial"",""time""
""fullscreenenter"",""0"",""6205""
","
",910.1599999703467,<img style='border: 4px solid darkgrey;' src='img/tf1_50_M_ss1.jpeg'></img>,2,NA,exp,NA,1,<img src='img/tf1_50_T1_ss1_md.jpeg'></img>,0,FALSE,NA,sub52
NA,html-keyboard-response,113,238857,0.0-10.0-0.50,"""event"",""trial"",""time""
""focus"",""0"",""3504""
""fullscreenenter"",""0"",""6205""
","
","""event"",""trial"",""time""
""focus"",""0"",""3504""
","""event"",""trial"",""time""
""fullscreenenter"",""0"",""6205""
","
",null,"<div style=""font-size:60px;"">+</div>",NA,null,fixation,2020-06-15T18:28:05Z,NA,NA,NA,NA,NA,sub52
NA,mars-trial,114,239929,0.0-10.0-1.50,"""event"",""trial"",""time""
""focus"",""0"",""3504""
""fullscreenenter"",""0"",""6205""
","
","""event"",""trial"",""time""
""focus"",""0"",""3504""
","""event"",""trial"",""time""
""fullscreenenter"",""0"",""6205""
","
",452.7949999901466,<img style='border: 4px solid darkgrey;' src='img/tf1_51_M_ss2.jpeg'></img>,2,NA,exp,NA,1,<img src='img/tf1_51_T1_ss2_md.jpeg'></img>,0,FALSE,NA,sub52
NA,html-keyboard-response,115,240434,0.0-10.0-0.51,"""event"",""trial"",""time""
""focus"",""0"",""3504""
""fullscreenenter"",""0"",""6205""
","
","""event"",""trial"",""time""
""focus"",""0"",""3504""
","""event"",""trial"",""time""
""fullscreenenter"",""0"",""6205""
","
",null,"<div style=""font-size:60px;"">+</div>",NA,null,fixation,2020-06-15T18:28:07Z,NA,NA,NA,NA,NA,sub52
NA,mars-trial,116,243633,0.0-10.0-1.51,"""event"",""trial"",""time""
""focus"",""0"",""3504""
""fullscreenenter"",""0"",""6205""
","
","""event"",""trial"",""time""
""focus"",""0"",""3504""
","""event"",""trial"",""time""
""fullscreenenter"",""0"",""6205""
","
",2587.954999995418,<img style='border: 4px solid darkgrey;' src='img/tf1_52_M_ss3.jpeg'></img>,2,NA,exp,NA,2,<img src='img/tf1_52_T1_ss3_md.jpeg'></img>,0,FALSE,NA,sub52
NA,html-keyboard-response,117,244137,0.0-10.0-0.52,"""event"",""trial"",""time""
""focus"",""0"",""3504""
""fullscreenenter"",""0"",""6205""
","
","""event"",""trial"",""time""
""focus"",""0"",""3504""
","""event"",""trial"",""time""
""fullscreenenter"",""0"",""6205""
","
",null,"<div style=""font-size:60px;"">+</div>",NA,null,fixation,2020-06-15T18:28:10Z,NA,NA,NA,NA,NA,sub52
NA,mars-trial,118,245290,0.0-10.0-1.52,"""event"",""trial"",""time""
""focus"",""0"",""3504""
""fullscreenenter"",""0"",""6205""
","
","""event"",""trial"",""time""
""focus"",""0"",""3504""
","""event"",""trial"",""time""
""fullscreenenter"",""0"",""6205""
","
",544.8949999990873,<img style='border: 4px solid darkgrey;' src='img/tf1_53_M_ss1.jpeg'></img>,2,NA,exp,NA,1,<img src='img/tf1_53_T1_ss1_md.jpeg'></img>,0,FALSE,NA,sub52
NA,html-keyboard-response,119,245795,0.0-10.0-0.53,"""event"",""trial"",""time""
""focus"",""0"",""3504""
""fullscreenenter"",""0"",""6205""
","
","""event"",""trial"",""time""
""focus"",""0"",""3504""
","""event"",""trial"",""time""
""fullscreenenter"",""0"",""6205""
","
",null,"<div style=""font-size:60px;"">+</div>",NA,null,fixation,2020-06-15T18:28:12Z,NA,NA,NA,NA,NA,sub52
NA,mars-trial,120,246627,0.0-10.0-1.53,"""event"",""trial"",""time""
""focus"",""0"",""3504""
""fullscreenenter"",""0"",""6205""
","
","""event"",""trial"",""time""
""focus"",""0"",""3504""
","""event"",""trial"",""time""
""fullscreenenter"",""0"",""6205""
","
",216.28499997314066,<img style='border: 4px solid darkgrey;' src='img/tf1_54_M_ss2.jpeg'></img>,2,NA,exp,NA,2,<img src='img/tf1_54_T1_ss2_md.jpeg'></img>,0,FALSE,NA,sub52
NA,html-keyboard-response,121,247129,0.0-10.0-0.54,"""event"",""trial"",""time""
""focus"",""0"",""3504""
""fullscreenenter"",""0"",""6205""
","
","""event"",""trial"",""time""
""focus"",""0"",""3504""
","""event"",""trial"",""time""
""fullscreenenter"",""0"",""6205""
","
",null,"<div style=""font-size:60px;"">+</div>",NA,null,fixation,2020-06-15T18:28:13Z,NA,NA,NA,NA,NA,sub52
NA,mars-trial,122,247942,0.0-10.0-1.54,"""event"",""trial"",""time""
""focus"",""0"",""3504""
""fullscreenenter"",""0"",""6205""
","
","""event"",""trial"",""time""
""focus"",""0"",""3504""
","""event"",""trial"",""time""
""fullscreenenter"",""0"",""6205""
","
",204.7700000111945,<img style='border: 4px solid darkgrey;' src='img/tf1_55_M_ss3.jpeg'></img>,2,NA,exp,NA,1,<img src='img/tf1_55_T1_ss3_md.jpeg'></img>,0,FALSE,NA,sub52
NA,html-keyboard-response,123,248447,0.0-10.0-0.55,"""event"",""trial"",""time""
""focus"",""0"",""3504""
""fullscreenenter"",""0"",""6205""
","
","""event"",""trial"",""time""
""focus"",""0"",""3504""
","""event"",""trial"",""time""
""fullscreenenter"",""0"",""6205""
","
",null,"<div style=""font-size:60px;"">+</div>",NA,null,fixation,2020-06-15T18:28:15Z,NA,NA,NA,NA,NA,sub52
NA,mars-trial,124,249600,0.0-10.0-1.55,"""event"",""trial"",""time""
""focus"",""0"",""3504""
""fullscreenenter"",""0"",""6205""
","
","""event"",""trial"",""time""
""focus"",""0"",""3504""
","""event"",""trial"",""time""
""fullscreenenter"",""0"",""6205""
","
",541.0249999840744,<img style='border: 4px solid darkgrey;' src='img/tf1_56_M_ss1.jpeg'></img>,2,NA,exp,NA,3,<img src='img/tf1_56_T1_ss1_md.jpeg'></img>,0,FALSE,NA,sub52
NA,html-keyboard-response,125,250106,0.0-10.0-0.56,"""event"",""trial"",""time""
""focus"",""0"",""3504""
""fullscreenenter"",""0"",""6205""
","
","""event"",""trial"",""time""
""focus"",""0"",""3504""
","""event"",""trial"",""time""
""fullscreenenter"",""0"",""6205""
","
",null,"<div style=""font-size:60px;"">+</div>",NA,null,fixation,2020-06-15T18:28:16Z,NA,NA,NA,NA,NA,sub52
NA,mars-trial,126,251351,0.0-10.0-1.56,"""event"",""trial"",""time""
""focus"",""0"",""3504""
""fullscreenenter"",""0"",""6205""
","
","""event"",""trial"",""time""
""focus"",""0"",""3504""
","""event"",""trial"",""time""
""fullscreenenter"",""0"",""6205""
","
",632.1350000216626,<img style='border: 4px solid darkgrey;' src='img/tf1_57_M_ss2.jpeg'></img>,2,NA,exp,NA,3,<img src='img/tf1_57_T1_ss2_md.jpeg'></img>,0,FALSE,NA,sub52
NA,html-keyboard-response,127,251853,0.0-10.0-0.57,"""event"",""trial"",""time""
""focus"",""0"",""3504""
""fullscreenenter"",""0"",""6205""
","
","""event"",""trial"",""time""
""focus"",""0"",""3504""
","""event"",""trial"",""time""
""fullscreenenter"",""0"",""6205""
","
",null,"<div style=""font-size:60px;"">+</div>",NA,null,fixation,2020-06-15T18:28:18Z,NA,NA,NA,NA,NA,sub52
NA,mars-trial,128,252913,0.0-10.0-1.57,"""event"",""trial"",""time""
""focus"",""0"",""3504""
""fullscreenenter"",""0"",""6205""
","
","""event"",""trial"",""time""
""focus"",""0"",""3504""
","""event"",""trial"",""time""
""fullscreenenter"",""0"",""6205""
","
",450.539999990724,<img style='border: 4px solid darkgrey;' src='img/tf1_58_M_ss3.jpeg'></img>,2,NA,exp,NA,3,<img src='img/tf1_58_T1_ss3_md.jpeg'></img>,0,FALSE,NA,sub52
NA,html-keyboard-response,129,253425,0.0-10.0-0.58,"""event"",""trial"",""time""
""focus"",""0"",""3504""
""fullscreenenter"",""0"",""6205""
","
","""event"",""trial"",""time""
""focus"",""0"",""3504""
","""event"",""trial"",""time""
""fullscreenenter"",""0"",""6205""
","
",null,"<div style=""font-size:60px;"">+</div>",NA,null,fixation,2020-06-15T18:28:20Z,NA,NA,NA,NA,NA,sub52
NA,mars-trial,130,254448,0.0-10.0-1.58,"""event"",""trial"",""time""
""focus"",""0"",""3504""
""fullscreenenter"",""0"",""6205""
","
","""event"",""trial"",""time""
""focus"",""0"",""3504""
","""event"",""trial"",""time""
""fullscreenenter"",""0"",""6205""
","
",415.9349999972619,<img style='border: 4px solid darkgrey;' src='img/tf1_59_M_ss1.jpeg'></img>,2,NA,exp,NA,3,<img src='img/tf1_59_T1_ss1_md.jpeg'></img>,0,FALSE,NA,sub52
NA,html-keyboard-response,131,254950,0.0-10.0-0.59,"""event"",""trial"",""time""
""focus"",""0"",""3504""
""fullscreenenter"",""0"",""6205""
","
","""event"",""trial"",""time""
""focus"",""0"",""3504""
","""event"",""trial"",""time""
""fullscreenenter"",""0"",""6205""
","
",null,"<div style=""font-size:60px;"">+</div>",NA,null,fixation,2020-06-15T18:28:21Z,NA,NA,NA,NA,NA,sub52
NA,mars-trial,132,256099,0.0-10.0-1.59,"""event"",""trial"",""time""
""focus"",""0"",""3504""
""fullscreenenter"",""0"",""6205""
","
","""event"",""trial"",""time""
""focus"",""0"",""3504""
","""event"",""trial"",""time""
""fullscreenenter"",""0"",""6205""
","
",538.1049999850802,<img style='border: 4px solid darkgrey;' src='img/tf1_60_M_ss2.jpeg'></img>,2,NA,exp,NA,0,<img src='img/tf1_60_T1_ss2_md.jpeg'></img>,0,TRUE,NA,sub52
NA,html-keyboard-response,133,256605,0.0-10.0-0.60,"""event"",""trial"",""time""
""focus"",""0"",""3504""
""fullscreenenter"",""0"",""6205""
","
","""event"",""trial"",""time""
""focus"",""0"",""3504""
","""event"",""trial"",""time""
""fullscreenenter"",""0"",""6205""
","
",null,"<div style=""font-size:60px;"">+</div>",NA,null,fixation,2020-06-15T18:28:23Z,NA,NA,NA,NA,NA,sub52
NA,mars-trial,134,260303,0.0-10.0-1.60,"""event"",""trial"",""time""
""focus"",""0"",""3504""
""fullscreenenter"",""0"",""6205""
","
","""event"",""trial"",""time""
""focus"",""0"",""3504""
","""event"",""trial"",""time""
""fullscreenenter"",""0"",""6205""
","
",3088.8250000425614,<img style='border: 4px solid darkgrey;' src='img/tf1_61_M_ss3.jpeg'></img>,3,NA,exp,NA,1,<img src='img/tf1_61_T1_ss3_md.jpeg'></img>,0,FALSE,NA,sub52
NA,html-keyboard-response,135,260810,0.0-10.0-0.61,"""event"",""trial"",""time""
""focus"",""0"",""3504""
""fullscreenenter"",""0"",""6205""
","
","""event"",""trial"",""time""
""focus"",""0"",""3504""
","""event"",""trial"",""time""
""fullscreenenter"",""0"",""6205""
","
",null,"<div style=""font-size:60px;"">+</div>",NA,null,fixation,2020-06-15T18:28:27Z,NA,NA,NA,NA,NA,sub52
NA,mars-trial,136,262708,0.0-10.0-1.61,"""event"",""trial"",""time""
""focus"",""0"",""3504""
""fullscreenenter"",""0"",""6205""
","
","""event"",""trial"",""time""
""focus"",""0"",""3504""
","""event"",""trial"",""time""
""fullscreenenter"",""0"",""6205""
","
",1292.9850000073202,<img style='border: 4px solid darkgrey;' src='img/tf1_62_M_ss1.jpeg'></img>,3,NA,exp,NA,1,<img src='img/tf1_62_T1_ss1_md.jpeg'></img>,0,FALSE,NA,sub52
NA,html-keyboard-response,137,263210,0.0-10.0-0.62,"""event"",""trial"",""time""
""focus"",""0"",""3504""
""fullscreenenter"",""0"",""6205""
","
","""event"",""trial"",""time""
""focus"",""0"",""3504""
","""event"",""trial"",""time""
""fullscreenenter"",""0"",""6205""
","
",null,"<div style=""font-size:60px;"">+</div>",NA,null,fixation,2020-06-15T18:28:29Z,NA,NA,NA,NA,NA,sub52
NA,mars-trial,138,264462,0.0-10.0-1.62,"""event"",""trial"",""time""
""focus"",""0"",""3504""
""fullscreenenter"",""0"",""6205""
","
","""event"",""trial"",""time""
""focus"",""0"",""3504""
","""event"",""trial"",""time""
""fullscreenenter"",""0"",""6205""
","
",640.1199999963865,<img style='border: 4px solid darkgrey;' src='img/tf1_63_M_ss2.jpeg'></img>,1,NA,exp,NA,2,<img src='img/tf1_63_T1_ss2_md.jpeg'></img>,0,FALSE,NA,sub52
NA,html-keyboard-response,139,264964,0.0-10.0-0.63,"""event"",""trial"",""time""
""focus"",""0"",""3504""
""fullscreenenter"",""0"",""6205""
","
","""event"",""trial"",""time""
""focus"",""0"",""3504""
","""event"",""trial"",""time""
""fullscreenenter"",""0"",""6205""
","
",null,"<div style=""font-size:60px;"">+</div>",NA,null,fixation,2020-06-15T18:28:31Z,NA,NA,NA,NA,NA,sub52
NA,mars-trial,140,266333,0.0-10.0-1.63,"""event"",""trial"",""time""
""focus"",""0"",""3504""
""fullscreenenter"",""0"",""6205""
","
","""event"",""trial"",""time""
""focus"",""0"",""3504""
","""event"",""trial"",""time""
""fullscreenenter"",""0"",""6205""
","
",759.6899999771267,<img style='border: 4px solid darkgrey;' src='img/tf1_64_M_ss3.jpeg'></img>,1,NA,exp,NA,2,<img src='img/tf1_64_T1_ss3_md.jpeg'></img>,0,FALSE,NA,sub52
NA,html-keyboard-response,141,266839,0.0-10.0-0.64,"""event"",""trial"",""time""
""focus"",""0"",""3504""
""fullscreenenter"",""0"",""6205""
","
","""event"",""trial"",""time""
""focus"",""0"",""3504""
","""event"",""trial"",""time""
""fullscreenenter"",""0"",""6205""
","
",null,"<div style=""font-size:60px;"">+</div>",NA,null,fixation,2020-06-15T18:28:33Z,NA,NA,NA,NA,NA,sub52
NA,mars-trial,142,268048,0.0-10.0-1.64,"""event"",""trial"",""time""
""focus"",""0"",""3504""
""fullscreenenter"",""0"",""6205""
","
","""event"",""trial"",""time""
""focus"",""0"",""3504""
","""event"",""trial"",""time""
""fullscreenenter"",""0"",""6205""
","
",603.7149999756366,<img style='border: 4px solid darkgrey;' src='img/tf1_65_M_ss1.jpeg'></img>,0,NA,exp,NA,0,<img src='img/tf1_65_T1_ss1_md.jpeg'></img>,0,TRUE,NA,sub52
NA,html-keyboard-response,143,268555,0.0-10.0-0.65,"""event"",""trial"",""time""
""focus"",""0"",""3504""
""fullscreenenter"",""0"",""6205""
","
","""event"",""trial"",""time""
""focus"",""0"",""3504""
","""event"",""trial"",""time""
""fullscreenenter"",""0"",""6205""
","
",null,"<div style=""font-size:60px;"">+</div>",NA,null,fixation,2020-06-15T18:28:35Z,NA,NA,NA,NA,NA,sub52
NA,mars-trial,144,269686,0.0-10.0-1.65,"""event"",""trial"",""time""
""focus"",""0"",""3504""
""fullscreenenter"",""0"",""6205""
","
","""event"",""trial"",""time""
""focus"",""0"",""3504""
","""event"",""trial"",""time""
""fullscreenenter"",""0"",""6205""
","
",523.8900000113063,<img style='border: 4px solid darkgrey;' src='img/tf1_66_M_ss2.jpeg'></img>,1,NA,exp,NA,1,<img src='img/tf1_66_T1_ss2_md.jpeg'></img>,0,FALSE,NA,sub52
NA,html-keyboard-response,145,270187,0.0-10.0-0.66,"""event"",""trial"",""time""
""focus"",""0"",""3504""
""fullscreenenter"",""0"",""6205""
","
","""event"",""trial"",""time""
""focus"",""0"",""3504""
","""event"",""trial"",""time""
""fullscreenenter"",""0"",""6205""
","
",null,"<div style=""font-size:60px;"">+</div>",NA,null,fixation,2020-06-15T18:28:36Z,NA,NA,NA,NA,NA,sub52
NA,mars-trial,146,271353,0.0-10.0-1.66,"""event"",""trial"",""time""
""focus"",""0"",""3504""
""fullscreenenter"",""0"",""6205""
","
","""event"",""trial"",""time""
""focus"",""0"",""3504""
","""event"",""trial"",""time""
""fullscreenenter"",""0"",""6205""
","
",555.6199999991804,<img style='border: 4px solid darkgrey;' src='img/tf1_67_M_ss3.jpeg'></img>,2,NA,exp,NA,1,<img src='img/tf1_67_T1_ss3_md.jpeg'></img>,0,FALSE,NA,sub52
NA,html-keyboard-response,147,271855,0.0-10.0-0.67,"""event"",""trial"",""time""
""focus"",""0"",""3504""
""fullscreenenter"",""0"",""6205""
","
","""event"",""trial"",""time""
""focus"",""0"",""3504""
","""event"",""trial"",""time""
""fullscreenenter"",""0"",""6205""
","
",null,"<div style=""font-size:60px;"">+</div>",NA,null,fixation,2020-06-15T18:28:38Z,NA,NA,NA,NA,NA,sub52
NA,mars-trial,148,273144,0.0-10.0-1.67,"""event"",""trial"",""time""
""focus"",""0"",""3504""
""fullscreenenter"",""0"",""6205""
","
","""event"",""trial"",""time""
""focus"",""0"",""3504""
","""event"",""trial"",""time""
""fullscreenenter"",""0"",""6205""
","
",678.444999968633,<img style='border: 4px solid darkgrey;' src='img/tf1_68_M_ss1.jpeg'></img>,3,NA,exp,NA,3,<img src='img/tf1_68_T1_ss1_md.jpeg'></img>,0,FALSE,NA,sub52
NA,html-keyboard-response,149,273646,0.0-10.0-0.68,"""event"",""trial"",""time""
""focus"",""0"",""3504""
""fullscreenenter"",""0"",""6205""
","
","""event"",""trial"",""time""
""focus"",""0"",""3504""
","""event"",""trial"",""time""
""fullscreenenter"",""0"",""6205""
","
",null,"<div style=""font-size:60px;"">+</div>",NA,null,fixation,2020-06-15T18:28:40Z,NA,NA,NA,NA,NA,sub52
NA,mars-trial,150,275391,0.0-10.0-1.68,"""event"",""trial"",""time""
""focus"",""0"",""3504""
""fullscreenenter"",""0"",""6205""
","
","""event"",""trial"",""time""
""focus"",""0"",""3504""
","""event"",""trial"",""time""
""fullscreenenter"",""0"",""6205""
","
",1138.4700000053272,<img style='border: 4px solid darkgrey;' src='img/tf1_69_M_ss2.jpeg'></img>,0,NA,exp,NA,3,<img src='img/tf1_69_T1_ss2_md.jpeg'></img>,0,FALSE,NA,sub52
NA,html-keyboard-response,151,275893,0.0-10.0-0.69,"""event"",""trial"",""time""
""focus"",""0"",""3504""
""fullscreenenter"",""0"",""6205""
","
","""event"",""trial"",""time""
""focus"",""0"",""3504""
","""event"",""trial"",""time""
""fullscreenenter"",""0"",""6205""
","
",null,"<div style=""font-size:60px;"">+</div>",NA,null,fixation,2020-06-15T18:28:42Z,NA,NA,NA,NA,NA,sub52
NA,mars-trial,152,277757,0.0-10.0-1.69,"""event"",""trial"",""time""
""focus"",""0"",""3504""
""fullscreenenter"",""0"",""6205""
","
","""event"",""trial"",""time""
""focus"",""0"",""3504""
","""event"",""trial"",""time""
""fullscreenenter"",""0"",""6205""
","
",1254.3349999468774,<img style='border: 4px solid darkgrey;' src='img/tf1_70_M_ss3.jpeg'></img>,1,NA,exp,NA,1,<img src='img/tf1_70_T1_ss3_md.jpeg'></img>,0,FALSE,NA,sub52
NA,html-keyboard-response,153,278260,0.0-10.0-0.70,"""event"",""trial"",""time""
""focus"",""0"",""3504""
""fullscreenenter"",""0"",""6205""
","
","""event"",""trial"",""time""
""focus"",""0"",""3504""
","""event"",""trial"",""time""
""fullscreenenter"",""0"",""6205""
","
",null,"<div style=""font-size:60px;"">+</div>",NA,null,fixation,2020-06-15T18:28:44Z,NA,NA,NA,NA,NA,sub52
NA,mars-trial,154,279369,0.0-10.0-1.70,"""event"",""trial"",""time""
""focus"",""0"",""3504""
""fullscreenenter"",""0"",""6205""
","
","""event"",""trial"",""time""
""focus"",""0"",""3504""
","""event"",""trial"",""time""
""fullscreenenter"",""0"",""6205""
","
",501.9699999829754,<img style='border: 4px solid darkgrey;' src='img/tf1_71_M_ss1.jpeg'></img>,2,NA,exp,NA,0,<img src='img/tf1_71_T1_ss1_md.jpeg'></img>,0,TRUE,NA,sub52
NA,html-keyboard-response,155,279871,0.0-10.0-0.71,"""event"",""trial"",""time""
""focus"",""0"",""3504""
""fullscreenenter"",""0"",""6205""
","
","""event"",""trial"",""time""
""focus"",""0"",""3504""
","""event"",""trial"",""time""
""fullscreenenter"",""0"",""6205""
","
",null,"<div style=""font-size:60px;"">+</div>",NA,null,fixation,2020-06-15T18:28:46Z,NA,NA,NA,NA,NA,sub52
NA,mars-trial,156,281079,0.0-10.0-1.71,"""event"",""trial"",""time""
""focus"",""0"",""3504""
""fullscreenenter"",""0"",""6205""
","
","""event"",""trial"",""time""
""focus"",""0"",""3504""
","""event"",""trial"",""time""
""fullscreenenter"",""0"",""6205""
","
",603.0049999826588,<img style='border: 4px solid darkgrey;' src='img/tf1_72_M_ss2.jpeg'></img>,3,NA,exp,NA,3,<img src='img/tf1_72_T1_ss2_md.jpeg'></img>,0,FALSE,NA,sub52
NA,html-keyboard-response,157,281580,0.0-10.0-0.72,"""event"",""trial"",""time""
""focus"",""0"",""3504""
""fullscreenenter"",""0"",""6205""
","
","""event"",""trial"",""time""
""focus"",""0"",""3504""
","""event"",""trial"",""time""
""fullscreenenter"",""0"",""6205""
","
",null,"<div style=""font-size:60px;"">+</div>",NA,null,fixation,2020-06-15T18:28:48Z,NA,NA,NA,NA,NA,sub52
NA,mars-trial,158,282722,0.0-10.0-1.72,"""event"",""trial"",""time""
""focus"",""0"",""3504""
""fullscreenenter"",""0"",""6205""
","
","""event"",""trial"",""time""
""focus"",""0"",""3504""
","""event"",""trial"",""time""
""fullscreenenter"",""0"",""6205""
","
",531.0850000241771,<img style='border: 4px solid darkgrey;' src='img/tf1_73_M_ss3.jpeg'></img>,0,NA,exp,NA,3,<img src='img/tf1_73_T1_ss3_md.jpeg'></img>,0,FALSE,NA,sub52
NA,html-keyboard-response,159,283224,0.0-10.0-0.73,"""event"",""trial"",""time""
""focus"",""0"",""3504""
""fullscreenenter"",""0"",""6205""
","
","""event"",""trial"",""time""
""focus"",""0"",""3504""
","""event"",""trial"",""time""
""fullscreenenter"",""0"",""6205""
","
",null,"<div style=""font-size:60px;"">+</div>",NA,null,fixation,2020-06-15T18:28:49Z,NA,NA,NA,NA,NA,sub52
NA,mars-trial,160,284409,0.0-10.0-1.73,"""event"",""trial"",""time""
""focus"",""0"",""3504""
""fullscreenenter"",""0"",""6205""
","
","""event"",""trial"",""time""
""focus"",""0"",""3504""
","""event"",""trial"",""time""
""fullscreenenter"",""0"",""6205""
","
",580.7950000162236,<img style='border: 4px solid darkgrey;' src='img/tf1_74_M_ss1.jpeg'></img>,1,NA,exp,NA,2,<img src='img/tf1_74_T1_ss1_md.jpeg'></img>,0,FALSE,NA,sub52
NA,html-keyboard-response,161,284910,0.0-10.0-0.74,"""event"",""trial"",""time""
""focus"",""0"",""3504""
""fullscreenenter"",""0"",""6205""
","
","""event"",""trial"",""time""
""focus"",""0"",""3504""
","""event"",""trial"",""time""
""fullscreenenter"",""0"",""6205""
","
",null,"<div style=""font-size:60px;"">+</div>",NA,null,fixation,2020-06-15T18:28:51Z,NA,NA,NA,NA,NA,sub52
NA,mars-trial,162,286190,0.0-10.0-1.74,"""event"",""trial"",""time""
""focus"",""0"",""3504""
""fullscreenenter"",""0"",""6205""
","
","""event"",""trial"",""time""
""focus"",""0"",""3504""
","""event"",""trial"",""time""
""fullscreenenter"",""0"",""6205""
","
",666.6449999902397,<img style='border: 4px solid darkgrey;' src='img/tf1_75_M_ss2.jpeg'></img>,2,NA,exp,NA,1,<img src='img/tf1_75_T1_ss2_md.jpeg'></img>,0,FALSE,NA,sub52
NA,html-keyboard-response,163,286696,0.0-10.0-0.75,"""event"",""trial"",""time""
""focus"",""0"",""3504""
""fullscreenenter"",""0"",""6205""
","
","""event"",""trial"",""time""
""focus"",""0"",""3504""
","""event"",""trial"",""time""
""fullscreenenter"",""0"",""6205""
","
",null,"<div style=""font-size:60px;"">+</div>",NA,null,fixation,2020-06-15T18:28:53Z,NA,NA,NA,NA,NA,sub52
NA,mars-trial,164,288065,0.0-10.0-1.75,"""event"",""trial"",""time""
""focus"",""0"",""3504""
""fullscreenenter"",""0"",""6205""
","
","""event"",""trial"",""time""
""focus"",""0"",""3504""
","""event"",""trial"",""time""
""fullscreenenter"",""0"",""6205""
","
",761.4199999952689,<img style='border: 4px solid darkgrey;' src='img/tf1_76_M_ss3.jpeg'></img>,3,NA,exp,NA,0,<img src='img/tf1_76_T1_ss3_md.jpeg'></img>,0,TRUE,NA,sub52
NA,html-keyboard-response,165,288569,0.0-10.0-0.76,"""event"",""trial"",""time""
""focus"",""0"",""3504""
""fullscreenenter"",""0"",""6205""
","
","""event"",""trial"",""time""
""focus"",""0"",""3504""
","""event"",""trial"",""time""
""fullscreenenter"",""0"",""6205""
","
",null,"<div style=""font-size:60px;"">+</div>",NA,null,fixation,2020-06-15T18:28:55Z,NA,NA,NA,NA,NA,sub52
NA,mars-trial,166,290219,0.0-10.0-1.76,"""event"",""trial"",""time""
""focus"",""0"",""3504""
""fullscreenenter"",""0"",""6205""
","
","""event"",""trial"",""time""
""focus"",""0"",""3504""
","""event"",""trial"",""time""
""fullscreenenter"",""0"",""6205""
","
",1041.5899999788962,<img style='border: 4px solid darkgrey;' src='img/tf1_77_M_ss1.jpeg'></img>,0,NA,exp,NA,0,<img src='img/tf1_77_T1_ss1_md.jpeg'></img>,0,TRUE,NA,sub52
NA,html-keyboard-response,167,290720,0.0-10.0-0.77,"""event"",""trial"",""time""
""focus"",""0"",""3504""
""fullscreenenter"",""0"",""6205""
","
","""event"",""trial"",""time""
""focus"",""0"",""3504""
","""event"",""trial"",""time""
""fullscreenenter"",""0"",""6205""
","
",null,"<div style=""font-size:60px;"">+</div>",NA,null,fixation,2020-06-15T18:28:57Z,NA,NA,NA,NA,NA,sub52
NA,mars-trial,168,291810,0.0-10.0-1.77,"""event"",""trial"",""time""
""focus"",""0"",""3504""
""fullscreenenter"",""0"",""6205""
","
","""event"",""trial"",""time""
""focus"",""0"",""3504""
","""event"",""trial"",""time""
""fullscreenenter"",""0"",""6205""
","
",484.4900000025518,<img style='border: 4px solid darkgrey;' src='img/tf1_78_M_ss2.jpeg'></img>,1,NA,exp,NA,3,<img src='img/tf1_78_T1_ss2_md.jpeg'></img>,0,FALSE,NA,sub52
NA,html-keyboard-response,169,292314,0.0-10.0-0.78,"""event"",""trial"",""time""
""focus"",""0"",""3504""
""fullscreenenter"",""0"",""6205""
","
","""event"",""trial"",""time""
""focus"",""0"",""3504""
","""event"",""trial"",""time""
""fullscreenenter"",""0"",""6205""
","
",null,"<div style=""font-size:60px;"">+</div>",NA,null,fixation,2020-06-15T18:28:58Z,NA,NA,NA,NA,NA,sub52
NA,mars-trial,170,293433,0.0-10.0-1.78,"""event"",""trial"",""time""
""focus"",""0"",""3504""
""fullscreenenter"",""0"",""6205""
","
","""event"",""trial"",""time""
""focus"",""0"",""3504""
","""event"",""trial"",""time""
""fullscreenenter"",""0"",""6205""
","
",509.20500000938773,<img style='border: 4px solid darkgrey;' src='img/tf1_79_M_ss3.jpeg'></img>,2,NA,exp,NA,2,<img src='img/tf1_79_T1_ss3_md.jpeg'></img>,0,FALSE,NA,sub52
NA,html-keyboard-response,171,293934,0.0-10.0-0.79,"""event"",""trial"",""time""
""focus"",""0"",""3504""
""fullscreenenter"",""0"",""6205""
","
","""event"",""trial"",""time""
""focus"",""0"",""3504""
","""event"",""trial"",""time""
""fullscreenenter"",""0"",""6205""
","
",null,"<div style=""font-size:60px;"">+</div>",NA,null,fixation,2020-06-15T18:29:00Z,NA,NA,NA,NA,NA,sub52
NA,mars-trial,172,295279,0.0-10.0-1.79,"""event"",""trial"",""time""
""focus"",""0"",""3504""
""fullscreenenter"",""0"",""6205""
","
","""event"",""trial"",""time""
""focus"",""0"",""3504""
","""event"",""trial"",""time""
""fullscreenenter"",""0"",""6205""
","
",734.5750000094995,<img style='border: 4px solid darkgrey;' src='img/tf1_80_M_ss1.jpeg'></img>,3,NA,exp,NA,0,<img src='img/tf1_80_T1_ss1_md.jpeg'></img>,0,TRUE,NA,sub52
NA,audio-button-response,173,300183,0.0-11.0,"""event"",""trial"",""time""
""focus"",""0"",""3504""
""fullscreenenter"",""0"",""6205""
","
","""event"",""trial"",""time""
""focus"",""0"",""3504""
","""event"",""trial"",""time""
""fullscreenenter"",""0"",""6205""
","
",4902.720000012778,audio/mars_instructions_slide5.wav,0,NA,NA,NA,NA,NA,NA,NA,NA,sub52
