success,trial_type,trial_index,time_elapsed,internal_node_id,interactions,blur_events,focus_events,fullscreenenter_events,fullscreenexit_events,rt,stimulus,button_pressed,key_press,part,timestamp,unshuffled_button,correct_response,correct_button,correct,value,subject_id
TRUE,fullscreen,0,3893,0.0-0.0,"""event"",""trial"",""time""
""fullscreenenter"",""0"",""2905""
","
","
","""event"",""trial"",""time""
""fullscreenenter"",""0"",""2905""
","
",NA,NA,NA,NA,NA,NA,NA,NA,NA,NA,NA,sub132
NA,pavlovia,1,3896,0.0-1.0,"""event"",""trial"",""time""
""fullscreenenter"",""0"",""2905""
","
","
","""event"",""trial"",""time""
""fullscreenenter"",""0"",""2905""
","
",NA,NA,NA,NA,NA,NA,NA,NA,NA,NA,NA,sub132
NA,html-button-response,2,5710,0.0-2.0,"""event"",""trial"",""time""
""fullscreenenter"",""0"",""2905""
""blur"",""3"",""12784""
""focus"",""3"",""12788""
","""event"",""trial"",""time""
""blur"",""3"",""12784""
","""event"",""trial"",""time""
""focus"",""3"",""12788""
","""event"",""trial"",""time""
""fullscreenenter"",""0"",""2905""
","
",1812.4950000783429,<p>Welcome! Press START to begin.</p><br>,0,NA,NA,NA,NA,NA,NA,NA,NA,sub132
NA,audio-button-response,3,16566,0.0-3.0,"""event"",""trial"",""time""
""fullscreenenter"",""0"",""2905""
""blur"",""3"",""12784""
""focus"",""3"",""12788""
","""event"",""trial"",""time""
""blur"",""3"",""12784""
","""event"",""trial"",""time""
""focus"",""3"",""12788""
","""event"",""trial"",""time""
""fullscreenenter"",""0"",""2905""
","
",10853.60499995295,audio/mars_instructions_slide2.wav,0,NA,NA,NA,NA,NA,NA,NA,NA,sub132
NA,audio-button-response,4,22747,0.0-4.0,"""event"",""trial"",""time""
""fullscreenenter"",""0"",""2905""
""blur"",""3"",""12784""
""focus"",""3"",""12788""
","""event"",""trial"",""time""
""blur"",""3"",""12784""
","""event"",""trial"",""time""
""focus"",""3"",""12788""
","""event"",""trial"",""time""
""fullscreenenter"",""0"",""2905""
","
",6180.060000042431,audio/mars_instructions_slide3.wav,0,NA,NA,NA,NA,NA,NA,NA,NA,sub132
NA,html-keyboard-response,5,23262,0.0-5.0-0.0,"""event"",""trial"",""time""
""fullscreenenter"",""0"",""2905""
""blur"",""3"",""12784""
""focus"",""3"",""12788""
","""event"",""trial"",""time""
""blur"",""3"",""12784""
","""event"",""trial"",""time""
""focus"",""3"",""12788""
","""event"",""trial"",""time""
""fullscreenenter"",""0"",""2905""
","
",null,"<div style=""font-size:60px;"">+</div>",NA,null,fixation,2020-06-30T16:18:23Z,NA,NA,NA,NA,NA,sub132
NA,mars-trial,6,31872,0.0-5.0-1.0,"""event"",""trial"",""time""
""fullscreenenter"",""0"",""2905""
""blur"",""3"",""12784""
""focus"",""3"",""12788""
","""event"",""trial"",""time""
""blur"",""3"",""12784""
","""event"",""trial"",""time""
""focus"",""3"",""12788""
","""event"",""trial"",""time""
""fullscreenenter"",""0"",""2905""
","
",6478.449999936856,<img style='border: 4px solid darkgrey;' src='practice/pt1_M1.png'></img>,2,NA,practice,NA,0,<img src='practice/pt1_T1.png'></img>,0,TRUE,NA,sub132
NA,html-keyboard-response,7,32382,0.0-6.0-0.0,"""event"",""trial"",""time""
""fullscreenenter"",""0"",""2905""
""blur"",""3"",""12784""
""focus"",""3"",""12788""
","""event"",""trial"",""time""
""blur"",""3"",""12784""
","""event"",""trial"",""time""
""focus"",""3"",""12788""
","""event"",""trial"",""time""
""fullscreenenter"",""0"",""2905""
","
",null,"<div style=""font-size:60px;"">+</div>",NA,null,fixation,2020-06-30T16:18:32Z,NA,NA,NA,NA,NA,sub132
NA,mars-trial,8,36872,0.0-6.0-1.0,"""event"",""trial"",""time""
""fullscreenenter"",""0"",""2905""
""blur"",""3"",""12784""
""focus"",""3"",""12788""
","""event"",""trial"",""time""
""blur"",""3"",""12784""
","""event"",""trial"",""time""
""focus"",""3"",""12788""
","""event"",""trial"",""time""
""fullscreenenter"",""0"",""2905""
","
",2373.4600000316277,<img style='border: 4px solid darkgrey;' src='practice/pt2_M1.png'></img>,2,NA,practice,NA,0,<img src='practice/pt2_T1.png'></img>,0,TRUE,NA,sub132
NA,html-keyboard-response,9,37374,0.0-7.0-0.0,"""event"",""trial"",""time""
""fullscreenenter"",""0"",""2905""
""blur"",""3"",""12784""
""focus"",""3"",""12788""
","""event"",""trial"",""time""
""blur"",""3"",""12784""
","""event"",""trial"",""time""
""focus"",""3"",""12788""
","""event"",""trial"",""time""
""fullscreenenter"",""0"",""2905""
","
",null,"<div style=""font-size:60px;"">+</div>",NA,null,fixation,2020-06-30T16:18:37Z,NA,NA,NA,NA,NA,sub132
NA,mars-trial,10,40870,0.0-7.0-1.0,"""event"",""trial"",""time""
""fullscreenenter"",""0"",""2905""
""blur"",""3"",""12784""
""focus"",""3"",""12788""
","""event"",""trial"",""time""
""blur"",""3"",""12784""
","""event"",""trial"",""time""
""focus"",""3"",""12788""
","""event"",""trial"",""time""
""fullscreenenter"",""0"",""2905""
","
",1392.7599999587983,<img style='border: 4px solid darkgrey;' src='practice/pt3_M1.png'></img>,3,NA,practice,NA,0,<img src='practice/pt3_T1.png'></img>,0,TRUE,NA,sub132
NA,audio-button-response,11,42649,0.0-8.0,"""event"",""trial"",""time""
""fullscreenenter"",""0"",""2905""
""blur"",""3"",""12784""
""focus"",""3"",""12788""
","""event"",""trial"",""time""
""blur"",""3"",""12784""
","""event"",""trial"",""time""
""focus"",""3"",""12788""
","""event"",""trial"",""time""
""fullscreenenter"",""0"",""2905""
","
",1777.900000102818,audio/mars_instructions_slide4.wav,0,NA,NA,NA,NA,NA,NA,NA,NA,sub132
NA,call-function,12,42650,0.0-9.0,"""event"",""trial"",""time""
""fullscreenenter"",""0"",""2905""
""blur"",""3"",""12784""
""focus"",""3"",""12788""
","""event"",""trial"",""time""
""blur"",""3"",""12784""
","""event"",""trial"",""time""
""focus"",""3"",""12788""
","""event"",""trial"",""time""
""fullscreenenter"",""0"",""2905""
","
",NA,NA,NA,NA,NA,NA,NA,NA,NA,NA,NA,sub132
NA,html-keyboard-response,13,43157,0.0-10.0-0.0,"""event"",""trial"",""time""
""fullscreenenter"",""0"",""2905""
""blur"",""3"",""12784""
""focus"",""3"",""12788""
","""event"",""trial"",""time""
""blur"",""3"",""12784""
","""event"",""trial"",""time""
""focus"",""3"",""12788""
","""event"",""trial"",""time""
""fullscreenenter"",""0"",""2905""
","
",null,"<div style=""font-size:60px;"">+</div>",NA,null,fixation,2020-06-30T16:18:43Z,NA,NA,NA,NA,NA,sub132
NA,mars-trial,14,45162,0.0-10.0-1.0,"""event"",""trial"",""time""
""fullscreenenter"",""0"",""2905""
""blur"",""3"",""12784""
""focus"",""3"",""12788""
","""event"",""trial"",""time""
""blur"",""3"",""12784""
","""event"",""trial"",""time""
""focus"",""3"",""12788""
","""event"",""trial"",""time""
""fullscreenenter"",""0"",""2905""
","
",1367.4749999772757,<img style='border: 4px solid darkgrey;' src='img/tf1_1_M_ss3.jpeg'></img>,3,NA,exp,NA,0,<img src='img/tf1_1_T1_ss3_md.jpeg'></img>,0,TRUE,NA,sub132
NA,html-keyboard-response,15,45681,0.0-10.0-0.1,"""event"",""trial"",""time""
""fullscreenenter"",""0"",""2905""
""blur"",""3"",""12784""
""focus"",""3"",""12788""
","""event"",""trial"",""time""
""blur"",""3"",""12784""
","""event"",""trial"",""time""
""focus"",""3"",""12788""
","""event"",""trial"",""time""
""fullscreenenter"",""0"",""2905""
","
",null,"<div style=""font-size:60px;"">+</div>",NA,null,fixation,2020-06-30T16:18:45Z,NA,NA,NA,NA,NA,sub132
NA,mars-trial,16,47782,0.0-10.0-1.1,"""event"",""trial"",""time""
""fullscreenenter"",""0"",""2905""
""blur"",""3"",""12784""
""focus"",""3"",""12788""
","""event"",""trial"",""time""
""blur"",""3"",""12784""
","""event"",""trial"",""time""
""focus"",""3"",""12788""
","""event"",""trial"",""time""
""fullscreenenter"",""0"",""2905""
","
",1495.4999999608845,<img style='border: 4px solid darkgrey;' src='img/tf1_2_M_ss1.jpeg'></img>,3,NA,exp,NA,0,<img src='img/tf1_2_T1_ss1_md.jpeg'></img>,0,TRUE,NA,sub132
NA,html-keyboard-response,17,48288,0.0-10.0-0.2,"""event"",""trial"",""time""
""fullscreenenter"",""0"",""2905""
""blur"",""3"",""12784""
""focus"",""3"",""12788""
","""event"",""trial"",""time""
""blur"",""3"",""12784""
","""event"",""trial"",""time""
""focus"",""3"",""12788""
","""event"",""trial"",""time""
""fullscreenenter"",""0"",""2905""
","
",null,"<div style=""font-size:60px;"">+</div>",NA,null,fixation,2020-06-30T16:18:48Z,NA,NA,NA,NA,NA,sub132
NA,mars-trial,18,50412,0.0-10.0-1.2,"""event"",""trial"",""time""
""fullscreenenter"",""0"",""2905""
""blur"",""3"",""12784""
""focus"",""3"",""12788""
","""event"",""trial"",""time""
""blur"",""3"",""12784""
","""event"",""trial"",""time""
""focus"",""3"",""12788""
","""event"",""trial"",""time""
""fullscreenenter"",""0"",""2905""
","
",1486.9000000180677,<img style='border: 4px solid darkgrey;' src='img/tf1_3_M_ss2.jpeg'></img>,2,NA,exp,NA,0,<img src='img/tf1_3_T1_ss2_md.jpeg'></img>,0,TRUE,NA,sub132
NA,html-keyboard-response,19,50921,0.0-10.0-0.3,"""event"",""trial"",""time""
""fullscreenenter"",""0"",""2905""
""blur"",""3"",""12784""
""focus"",""3"",""12788""
","""event"",""trial"",""time""
""blur"",""3"",""12784""
","""event"",""trial"",""time""
""focus"",""3"",""12788""
","""event"",""trial"",""time""
""fullscreenenter"",""0"",""2905""
","
",null,"<div style=""font-size:60px;"">+</div>",NA,null,fixation,2020-06-30T16:18:51Z,NA,NA,NA,NA,NA,sub132
NA,mars-trial,20,54551,0.0-10.0-1.3,"""event"",""trial"",""time""
""fullscreenenter"",""0"",""2905""
""blur"",""3"",""12784""
""focus"",""3"",""12788""
","""event"",""trial"",""time""
""blur"",""3"",""12784""
","""event"",""trial"",""time""
""focus"",""3"",""12788""
","""event"",""trial"",""time""
""fullscreenenter"",""0"",""2905""
","
",3016.6400000452995,<img style='border: 4px solid darkgrey;' src='img/tf1_4_M_ss3.jpeg'></img>,0,NA,exp,NA,0,<img src='img/tf1_4_T1_ss3_md.jpeg'></img>,0,TRUE,NA,sub132
NA,html-keyboard-response,21,55071,0.0-10.0-0.4,"""event"",""trial"",""time""
""fullscreenenter"",""0"",""2905""
""blur"",""3"",""12784""
""focus"",""3"",""12788""
","""event"",""trial"",""time""
""blur"",""3"",""12784""
","""event"",""trial"",""time""
""focus"",""3"",""12788""
","""event"",""trial"",""time""
""fullscreenenter"",""0"",""2905""
","
",null,"<div style=""font-size:60px;"">+</div>",NA,null,fixation,2020-06-30T16:18:55Z,NA,NA,NA,NA,NA,sub132
NA,mars-trial,22,56835,0.0-10.0-1.4,"""event"",""trial"",""time""
""fullscreenenter"",""0"",""2905""
""blur"",""3"",""12784""
""focus"",""3"",""12788""
","""event"",""trial"",""time""
""blur"",""3"",""12784""
","""event"",""trial"",""time""
""focus"",""3"",""12788""
","""event"",""trial"",""time""
""fullscreenenter"",""0"",""2905""
","
",1158.7099999887869,<img style='border: 4px solid darkgrey;' src='img/tf1_5_M_ss1.jpeg'></img>,3,NA,exp,NA,0,<img src='img/tf1_5_T1_ss1_md.jpeg'></img>,0,TRUE,NA,sub132
NA,html-keyboard-response,23,57342,0.0-10.0-0.5,"""event"",""trial"",""time""
""fullscreenenter"",""0"",""2905""
""blur"",""3"",""12784""
""focus"",""3"",""12788""
","""event"",""trial"",""time""
""blur"",""3"",""12784""
","""event"",""trial"",""time""
""focus"",""3"",""12788""
","""event"",""trial"",""time""
""fullscreenenter"",""0"",""2905""
","
",null,"<div style=""font-size:60px;"">+</div>",NA,null,fixation,2020-06-30T16:18:57Z,NA,NA,NA,NA,NA,sub132
NA,mars-trial,24,66082,0.0-10.0-1.5,"""event"",""trial"",""time""
""fullscreenenter"",""0"",""2905""
""blur"",""3"",""12784""
""focus"",""3"",""12788""
","""event"",""trial"",""time""
""blur"",""3"",""12784""
","""event"",""trial"",""time""
""focus"",""3"",""12788""
","""event"",""trial"",""time""
""fullscreenenter"",""0"",""2905""
","
",8112.710000015795,<img style='border: 4px solid darkgrey;' src='img/tf1_6_M_ss2.jpeg'></img>,2,NA,exp,NA,0,<img src='img/tf1_6_T1_ss2_md.jpeg'></img>,0,TRUE,NA,sub132
NA,html-keyboard-response,25,66592,0.0-10.0-0.6,"""event"",""trial"",""time""
""fullscreenenter"",""0"",""2905""
""blur"",""3"",""12784""
""focus"",""3"",""12788""
","""event"",""trial"",""time""
""blur"",""3"",""12784""
","""event"",""trial"",""time""
""focus"",""3"",""12788""
","""event"",""trial"",""time""
""fullscreenenter"",""0"",""2905""
","
",null,"<div style=""font-size:60px;"">+</div>",NA,null,fixation,2020-06-30T16:19:06Z,NA,NA,NA,NA,NA,sub132
NA,mars-trial,26,69515,0.0-10.0-1.6,"""event"",""trial"",""time""
""fullscreenenter"",""0"",""2905""
""blur"",""3"",""12784""
""focus"",""3"",""12788""
","""event"",""trial"",""time""
""blur"",""3"",""12784""
","""event"",""trial"",""time""
""focus"",""3"",""12788""
","""event"",""trial"",""time""
""fullscreenenter"",""0"",""2905""
","
",2318.8699999591336,<img style='border: 4px solid darkgrey;' src='img/tf1_7_M_ss3.jpeg'></img>,1,NA,exp,NA,0,<img src='img/tf1_7_T1_ss3_md.jpeg'></img>,0,TRUE,NA,sub132
NA,html-keyboard-response,27,70032,0.0-10.0-0.7,"""event"",""trial"",""time""
""fullscreenenter"",""0"",""2905""
""blur"",""3"",""12784""
""focus"",""3"",""12788""
","""event"",""trial"",""time""
""blur"",""3"",""12784""
","""event"",""trial"",""time""
""focus"",""3"",""12788""
","""event"",""trial"",""time""
""fullscreenenter"",""0"",""2905""
","
",null,"<div style=""font-size:60px;"">+</div>",NA,null,fixation,2020-06-30T16:19:10Z,NA,NA,NA,NA,NA,sub132
NA,mars-trial,28,73595,0.0-10.0-1.7,"""event"",""trial"",""time""
""fullscreenenter"",""0"",""2905""
""blur"",""3"",""12784""
""focus"",""3"",""12788""
","""event"",""trial"",""time""
""blur"",""3"",""12784""
","""event"",""trial"",""time""
""focus"",""3"",""12788""
","""event"",""trial"",""time""
""fullscreenenter"",""0"",""2905""
","
",2942.1800000127405,<img style='border: 4px solid darkgrey;' src='img/tf1_8_M_ss1.jpeg'></img>,1,NA,exp,NA,0,<img src='img/tf1_8_T1_ss1_md.jpeg'></img>,0,TRUE,NA,sub132
NA,html-keyboard-response,29,74097,0.0-10.0-0.8,"""event"",""trial"",""time""
""fullscreenenter"",""0"",""2905""
""blur"",""3"",""12784""
""focus"",""3"",""12788""
","""event"",""trial"",""time""
""blur"",""3"",""12784""
","""event"",""trial"",""time""
""focus"",""3"",""12788""
","""event"",""trial"",""time""
""fullscreenenter"",""0"",""2905""
","
",null,"<div style=""font-size:60px;"">+</div>",NA,null,fixation,2020-06-30T16:19:14Z,NA,NA,NA,NA,NA,sub132
NA,mars-trial,30,78171,0.0-10.0-1.8,"""event"",""trial"",""time""
""fullscreenenter"",""0"",""2905""
""blur"",""3"",""12784""
""focus"",""3"",""12788""
","""event"",""trial"",""time""
""blur"",""3"",""12784""
","""event"",""trial"",""time""
""focus"",""3"",""12788""
","""event"",""trial"",""time""
""fullscreenenter"",""0"",""2905""
","
",3470.575000043027,<img style='border: 4px solid darkgrey;' src='img/tf1_9_M_ss2.jpeg'></img>,3,NA,exp,NA,0,<img src='img/tf1_9_T1_ss2_md.jpeg'></img>,0,TRUE,NA,sub132
NA,html-keyboard-response,31,78673,0.0-10.0-0.9,"""event"",""trial"",""time""
""fullscreenenter"",""0"",""2905""
""blur"",""3"",""12784""
""focus"",""3"",""12788""
","""event"",""trial"",""time""
""blur"",""3"",""12784""
","""event"",""trial"",""time""
""focus"",""3"",""12788""
","""event"",""trial"",""time""
""fullscreenenter"",""0"",""2905""
","
",null,"<div style=""font-size:60px;"">+</div>",NA,null,fixation,2020-06-30T16:19:18Z,NA,NA,NA,NA,NA,sub132
NA,mars-trial,32,85687,0.0-10.0-1.9,"""event"",""trial"",""time""
""fullscreenenter"",""0"",""2905""
""blur"",""3"",""12784""
""focus"",""3"",""12788""
","""event"",""trial"",""time""
""blur"",""3"",""12784""
","""event"",""trial"",""time""
""focus"",""3"",""12788""
","""event"",""trial"",""time""
""fullscreenenter"",""0"",""2905""
","
",6409.559999941848,<img style='border: 4px solid darkgrey;' src='img/tf1_10_M_ss3.jpeg'></img>,1,NA,exp,NA,0,<img src='img/tf1_10_T1_ss3_md.jpeg'></img>,0,TRUE,NA,sub132
NA,html-keyboard-response,33,86189,0.0-10.0-0.10,"""event"",""trial"",""time""
""fullscreenenter"",""0"",""2905""
""blur"",""3"",""12784""
""focus"",""3"",""12788""
","""event"",""trial"",""time""
""blur"",""3"",""12784""
","""event"",""trial"",""time""
""focus"",""3"",""12788""
","""event"",""trial"",""time""
""fullscreenenter"",""0"",""2905""
","
",null,"<div style=""font-size:60px;"">+</div>",NA,null,fixation,2020-06-30T16:19:26Z,NA,NA,NA,NA,NA,sub132
NA,mars-trial,34,93237,0.0-10.0-1.10,"""event"",""trial"",""time""
""fullscreenenter"",""0"",""2905""
""blur"",""3"",""12784""
""focus"",""3"",""12788""
","""event"",""trial"",""time""
""blur"",""3"",""12784""
","""event"",""trial"",""time""
""focus"",""3"",""12788""
","""event"",""trial"",""time""
""fullscreenenter"",""0"",""2905""
","
",6443.775000050664,<img style='border: 4px solid darkgrey;' src='img/tf1_11_M_ss1.jpeg'></img>,2,NA,exp,NA,2,<img src='img/tf1_11_T1_ss1_md.jpeg'></img>,0,FALSE,NA,sub132
NA,html-keyboard-response,35,93738,0.0-10.0-0.11,"""event"",""trial"",""time""
""fullscreenenter"",""0"",""2905""
""blur"",""3"",""12784""
""focus"",""3"",""12788""
","""event"",""trial"",""time""
""blur"",""3"",""12784""
","""event"",""trial"",""time""
""focus"",""3"",""12788""
","""event"",""trial"",""time""
""fullscreenenter"",""0"",""2905""
","
",null,"<div style=""font-size:60px;"">+</div>",NA,null,fixation,2020-06-30T16:19:33Z,NA,NA,NA,NA,NA,sub132
NA,mars-trial,36,103552,0.0-10.0-1.11,"""event"",""trial"",""time""
""fullscreenenter"",""0"",""2905""
""blur"",""3"",""12784""
""focus"",""3"",""12788""
","""event"",""trial"",""time""
""blur"",""3"",""12784""
","""event"",""trial"",""time""
""focus"",""3"",""12788""
","""event"",""trial"",""time""
""fullscreenenter"",""0"",""2905""
","
",9209.03000002727,<img style='border: 4px solid darkgrey;' src='img/tf1_12_M_ss2.jpeg'></img>,2,NA,exp,NA,1,<img src='img/tf1_12_T1_ss2_md.jpeg'></img>,0,FALSE,NA,sub132
NA,html-keyboard-response,37,104055,0.0-10.0-0.12,"""event"",""trial"",""time""
""fullscreenenter"",""0"",""2905""
""blur"",""3"",""12784""
""focus"",""3"",""12788""
","""event"",""trial"",""time""
""blur"",""3"",""12784""
","""event"",""trial"",""time""
""focus"",""3"",""12788""
","""event"",""trial"",""time""
""fullscreenenter"",""0"",""2905""
","
",null,"<div style=""font-size:60px;"">+</div>",NA,null,fixation,2020-06-30T16:19:44Z,NA,NA,NA,NA,NA,sub132
NA,mars-trial,38,108888,0.0-10.0-1.12,"""event"",""trial"",""time""
""fullscreenenter"",""0"",""2905""
""blur"",""3"",""12784""
""focus"",""3"",""12788""
","""event"",""trial"",""time""
""blur"",""3"",""12784""
","""event"",""trial"",""time""
""focus"",""3"",""12788""
","""event"",""trial"",""time""
""fullscreenenter"",""0"",""2905""
","
",4228.985000052489,<img style='border: 4px solid darkgrey;' src='img/tf1_13_M_ss3.jpeg'></img>,1,NA,exp,NA,2,<img src='img/tf1_13_T1_ss3_md.jpeg'></img>,0,FALSE,NA,sub132
NA,html-keyboard-response,39,109389,0.0-10.0-0.13,"""event"",""trial"",""time""
""fullscreenenter"",""0"",""2905""
""blur"",""3"",""12784""
""focus"",""3"",""12788""
","""event"",""trial"",""time""
""blur"",""3"",""12784""
","""event"",""trial"",""time""
""focus"",""3"",""12788""
","""event"",""trial"",""time""
""fullscreenenter"",""0"",""2905""
","
",null,"<div style=""font-size:60px;"">+</div>",NA,null,fixation,2020-06-30T16:19:49Z,NA,NA,NA,NA,NA,sub132
NA,mars-trial,40,120214,0.0-10.0-1.13,"""event"",""trial"",""time""
""fullscreenenter"",""0"",""2905""
""blur"",""3"",""12784""
""focus"",""3"",""12788""
","""event"",""trial"",""time""
""blur"",""3"",""12784""
","""event"",""trial"",""time""
""focus"",""3"",""12788""
","""event"",""trial"",""time""
""fullscreenenter"",""0"",""2905""
","
",10220.504999975674,<img style='border: 4px solid darkgrey;' src='img/tf1_14_M_ss1.jpeg'></img>,2,NA,exp,NA,3,<img src='img/tf1_14_T1_ss1_md.jpeg'></img>,0,FALSE,NA,sub132
NA,html-keyboard-response,41,120716,0.0-10.0-0.14,"""event"",""trial"",""time""
""fullscreenenter"",""0"",""2905""
""blur"",""3"",""12784""
""focus"",""3"",""12788""
","""event"",""trial"",""time""
""blur"",""3"",""12784""
","""event"",""trial"",""time""
""focus"",""3"",""12788""
","""event"",""trial"",""time""
""fullscreenenter"",""0"",""2905""
","
",null,"<div style=""font-size:60px;"">+</div>",NA,null,fixation,2020-06-30T16:20:00Z,NA,NA,NA,NA,NA,sub132
NA,mars-trial,42,132986,0.0-10.0-1.14,"""event"",""trial"",""time""
""fullscreenenter"",""0"",""2905""
""blur"",""3"",""12784""
""focus"",""3"",""12788""
","""event"",""trial"",""time""
""blur"",""3"",""12784""
","""event"",""trial"",""time""
""focus"",""3"",""12788""
","""event"",""trial"",""time""
""fullscreenenter"",""0"",""2905""
","
",11665.595000027679,<img style='border: 4px solid darkgrey;' src='img/tf1_15_M_ss2.jpeg'></img>,1,NA,exp,NA,0,<img src='img/tf1_15_T1_ss2_md.jpeg'></img>,0,TRUE,NA,sub132
NA,html-keyboard-response,43,133488,0.0-10.0-0.15,"""event"",""trial"",""time""
""fullscreenenter"",""0"",""2905""
""blur"",""3"",""12784""
""focus"",""3"",""12788""
","""event"",""trial"",""time""
""blur"",""3"",""12784""
","""event"",""trial"",""time""
""focus"",""3"",""12788""
","""event"",""trial"",""time""
""fullscreenenter"",""0"",""2905""
","
",null,"<div style=""font-size:60px;"">+</div>",NA,null,fixation,2020-06-30T16:20:13Z,NA,NA,NA,NA,NA,sub132
NA,mars-trial,44,138844,0.0-10.0-1.15,"""event"",""trial"",""time""
""fullscreenenter"",""0"",""2905""
""blur"",""3"",""12784""
""focus"",""3"",""12788""
","""event"",""trial"",""time""
""blur"",""3"",""12784""
","""event"",""trial"",""time""
""focus"",""3"",""12788""
","""event"",""trial"",""time""
""fullscreenenter"",""0"",""2905""
","
",4750.780000002123,<img style='border: 4px solid darkgrey;' src='img/tf1_16_M_ss3.jpeg'></img>,3,NA,exp,NA,1,<img src='img/tf1_16_T1_ss3_md.jpeg'></img>,0,FALSE,NA,sub132
NA,html-keyboard-response,45,139346,0.0-10.0-0.16,"""event"",""trial"",""time""
""fullscreenenter"",""0"",""2905""
""blur"",""3"",""12784""
""focus"",""3"",""12788""
","""event"",""trial"",""time""
""blur"",""3"",""12784""
","""event"",""trial"",""time""
""focus"",""3"",""12788""
","""event"",""trial"",""time""
""fullscreenenter"",""0"",""2905""
","
",null,"<div style=""font-size:60px;"">+</div>",NA,null,fixation,2020-06-30T16:20:19Z,NA,NA,NA,NA,NA,sub132
NA,mars-trial,46,149037,0.0-10.0-1.16,"""event"",""trial"",""time""
""fullscreenenter"",""0"",""2905""
""blur"",""3"",""12784""
""focus"",""3"",""12788""
","""event"",""trial"",""time""
""blur"",""3"",""12784""
","""event"",""trial"",""time""
""focus"",""3"",""12788""
","""event"",""trial"",""time""
""fullscreenenter"",""0"",""2905""
","
",9086.09500003513,<img style='border: 4px solid darkgrey;' src='img/tf1_17_M_ss1.jpeg'></img>,1,NA,exp,NA,1,<img src='img/tf1_17_T1_ss1_md.jpeg'></img>,0,FALSE,NA,sub132
NA,html-keyboard-response,47,149538,0.0-10.0-0.17,"""event"",""trial"",""time""
""fullscreenenter"",""0"",""2905""
""blur"",""3"",""12784""
""focus"",""3"",""12788""
","""event"",""trial"",""time""
""blur"",""3"",""12784""
","""event"",""trial"",""time""
""focus"",""3"",""12788""
","""event"",""trial"",""time""
""fullscreenenter"",""0"",""2905""
","
",null,"<div style=""font-size:60px;"">+</div>",NA,null,fixation,2020-06-30T16:20:29Z,NA,NA,NA,NA,NA,sub132
NA,mars-trial,48,154053,0.0-10.0-1.17,"""event"",""trial"",""time""
""fullscreenenter"",""0"",""2905""
""blur"",""3"",""12784""
""focus"",""3"",""12788""
","""event"",""trial"",""time""
""blur"",""3"",""12784""
","""event"",""trial"",""time""
""focus"",""3"",""12788""
","""event"",""trial"",""time""
""fullscreenenter"",""0"",""2905""
","
",3910.4349999688566,<img style='border: 4px solid darkgrey;' src='img/tf1_18_M_ss2.jpeg'></img>,1,NA,exp,NA,1,<img src='img/tf1_18_T1_ss2_md.jpeg'></img>,0,FALSE,NA,sub132
NA,html-keyboard-response,49,154555,0.0-10.0-0.18,"""event"",""trial"",""time""
""fullscreenenter"",""0"",""2905""
""blur"",""3"",""12784""
""focus"",""3"",""12788""
","""event"",""trial"",""time""
""blur"",""3"",""12784""
","""event"",""trial"",""time""
""focus"",""3"",""12788""
","""event"",""trial"",""time""
""fullscreenenter"",""0"",""2905""
","
",null,"<div style=""font-size:60px;"">+</div>",NA,null,fixation,2020-06-30T16:20:34Z,NA,NA,NA,NA,NA,sub132
NA,mars-trial,50,165311,0.0-10.0-1.18,"""event"",""trial"",""time""
""fullscreenenter"",""0"",""2905""
""blur"",""3"",""12784""
""focus"",""3"",""12788""
","""event"",""trial"",""time""
""blur"",""3"",""12784""
","""event"",""trial"",""time""
""focus"",""3"",""12788""
","""event"",""trial"",""time""
""fullscreenenter"",""0"",""2905""
","
",10152.270000078715,<img style='border: 4px solid darkgrey;' src='img/tf1_19_M_ss3.jpeg'></img>,2,NA,exp,NA,0,<img src='img/tf1_19_T1_ss3_md.jpeg'></img>,0,TRUE,NA,sub132
NA,html-keyboard-response,51,165812,0.0-10.0-0.19,"""event"",""trial"",""time""
""fullscreenenter"",""0"",""2905""
""blur"",""3"",""12784""
""focus"",""3"",""12788""
","""event"",""trial"",""time""
""blur"",""3"",""12784""
","""event"",""trial"",""time""
""focus"",""3"",""12788""
","""event"",""trial"",""time""
""fullscreenenter"",""0"",""2905""
","
",null,"<div style=""font-size:60px;"">+</div>",NA,null,fixation,2020-06-30T16:20:45Z,NA,NA,NA,NA,NA,sub132
NA,mars-trial,52,176779,0.0-10.0-1.19,"""event"",""trial"",""time""
""fullscreenenter"",""0"",""2905""
""blur"",""3"",""12784""
""focus"",""3"",""12788""
","""event"",""trial"",""time""
""blur"",""3"",""12784""
","""event"",""trial"",""time""
""focus"",""3"",""12788""
","""event"",""trial"",""time""
""fullscreenenter"",""0"",""2905""
","
",10361.434999969788,<img style='border: 4px solid darkgrey;' src='img/tf1_20_M_ss1.jpeg'></img>,3,NA,exp,NA,0,<img src='img/tf1_20_T1_ss1_md.jpeg'></img>,0,TRUE,NA,sub132
NA,html-keyboard-response,53,177281,0.0-10.0-0.20,"""event"",""trial"",""time""
""fullscreenenter"",""0"",""2905""
""blur"",""3"",""12784""
""focus"",""3"",""12788""
","""event"",""trial"",""time""
""blur"",""3"",""12784""
","""event"",""trial"",""time""
""focus"",""3"",""12788""
","""event"",""trial"",""time""
""fullscreenenter"",""0"",""2905""
","
",null,"<div style=""font-size:60px;"">+</div>",NA,null,fixation,2020-06-30T16:20:57Z,NA,NA,NA,NA,NA,sub132
NA,mars-trial,54,195005,0.0-10.0-1.20,"""event"",""trial"",""time""
""fullscreenenter"",""0"",""2905""
""blur"",""3"",""12784""
""focus"",""3"",""12788""
","""event"",""trial"",""time""
""blur"",""3"",""12784""
","""event"",""trial"",""time""
""focus"",""3"",""12788""
","""event"",""trial"",""time""
""fullscreenenter"",""0"",""2905""
","
",17119.70999999903,<img style='border: 4px solid darkgrey;' src='img/tf1_21_M_ss2.jpeg'></img>,1,NA,exp,NA,0,<img src='img/tf1_21_T1_ss2_md.jpeg'></img>,0,TRUE,NA,sub132
NA,html-keyboard-response,55,195507,0.0-10.0-0.21,"""event"",""trial"",""time""
""fullscreenenter"",""0"",""2905""
""blur"",""3"",""12784""
""focus"",""3"",""12788""
","""event"",""trial"",""time""
""blur"",""3"",""12784""
","""event"",""trial"",""time""
""focus"",""3"",""12788""
","""event"",""trial"",""time""
""fullscreenenter"",""0"",""2905""
","
",null,"<div style=""font-size:60px;"">+</div>",NA,null,fixation,2020-06-30T16:21:15Z,NA,NA,NA,NA,NA,sub132
NA,mars-trial,56,204177,0.0-10.0-1.21,"""event"",""trial"",""time""
""fullscreenenter"",""0"",""2905""
""blur"",""3"",""12784""
""focus"",""3"",""12788""
","""event"",""trial"",""time""
""blur"",""3"",""12784""
","""event"",""trial"",""time""
""focus"",""3"",""12788""
","""event"",""trial"",""time""
""fullscreenenter"",""0"",""2905""
","
",8064.29999996908,<img style='border: 4px solid darkgrey;' src='img/tf1_22_M_ss3.jpeg'></img>,3,NA,exp,NA,0,<img src='img/tf1_22_T1_ss3_md.jpeg'></img>,0,TRUE,NA,sub132
NA,html-keyboard-response,57,204679,0.0-10.0-0.22,"""event"",""trial"",""time""
""fullscreenenter"",""0"",""2905""
""blur"",""3"",""12784""
""focus"",""3"",""12788""
","""event"",""trial"",""time""
""blur"",""3"",""12784""
","""event"",""trial"",""time""
""focus"",""3"",""12788""
","""event"",""trial"",""time""
""fullscreenenter"",""0"",""2905""
","
",null,"<div style=""font-size:60px;"">+</div>",NA,null,fixation,2020-06-30T16:21:24Z,NA,NA,NA,NA,NA,sub132
NA,mars-trial,58,212518,0.0-10.0-1.22,"""event"",""trial"",""time""
""fullscreenenter"",""0"",""2905""
""blur"",""3"",""12784""
""focus"",""3"",""12788""
","""event"",""trial"",""time""
""blur"",""3"",""12784""
","""event"",""trial"",""time""
""focus"",""3"",""12788""
","""event"",""trial"",""time""
""fullscreenenter"",""0"",""2905""
","
",7234.909999999218,<img style='border: 4px solid darkgrey;' src='img/tf1_23_M_ss1.jpeg'></img>,3,NA,exp,NA,3,<img src='img/tf1_23_T1_ss1_md.jpeg'></img>,0,FALSE,NA,sub132
NA,html-keyboard-response,59,213020,0.0-10.0-0.23,"""event"",""trial"",""time""
""fullscreenenter"",""0"",""2905""
""blur"",""3"",""12784""
""focus"",""3"",""12788""
","""event"",""trial"",""time""
""blur"",""3"",""12784""
","""event"",""trial"",""time""
""focus"",""3"",""12788""
","""event"",""trial"",""time""
""fullscreenenter"",""0"",""2905""
","
",null,"<div style=""font-size:60px;"">+</div>",NA,null,fixation,2020-06-30T16:21:33Z,NA,NA,NA,NA,NA,sub132
NA,mars-trial,60,226155,0.0-10.0-1.23,"""event"",""trial"",""time""
""fullscreenenter"",""0"",""2905""
""blur"",""3"",""12784""
""focus"",""3"",""12788""
","""event"",""trial"",""time""
""blur"",""3"",""12784""
","""event"",""trial"",""time""
""focus"",""3"",""12788""
","""event"",""trial"",""time""
""fullscreenenter"",""0"",""2905""
","
",12530.414999928325,<img style='border: 4px solid darkgrey;' src='img/tf1_24_M_ss2.jpeg'></img>,0,NA,exp,NA,1,<img src='img/tf1_24_T1_ss2_md.jpeg'></img>,0,FALSE,NA,sub132
NA,html-keyboard-response,61,226656,0.0-10.0-0.24,"""event"",""trial"",""time""
""fullscreenenter"",""0"",""2905""
""blur"",""3"",""12784""
""focus"",""3"",""12788""
","""event"",""trial"",""time""
""blur"",""3"",""12784""
","""event"",""trial"",""time""
""focus"",""3"",""12788""
","""event"",""trial"",""time""
""fullscreenenter"",""0"",""2905""
","
",null,"<div style=""font-size:60px;"">+</div>",NA,null,fixation,2020-06-30T16:21:46Z,NA,NA,NA,NA,NA,sub132
NA,mars-trial,62,240785,0.0-10.0-1.24,"""event"",""trial"",""time""
""fullscreenenter"",""0"",""2905""
""blur"",""3"",""12784""
""focus"",""3"",""12788""
","""event"",""trial"",""time""
""blur"",""3"",""12784""
","""event"",""trial"",""time""
""focus"",""3"",""12788""
","""event"",""trial"",""time""
""fullscreenenter"",""0"",""2905""
","
",13523.659999947995,<img style='border: 4px solid darkgrey;' src='img/tf1_25_M_ss3.jpeg'></img>,3,NA,exp,NA,0,<img src='img/tf1_25_T1_ss3_md.jpeg'></img>,0,TRUE,NA,sub132
NA,html-keyboard-response,63,241287,0.0-10.0-0.25,"""event"",""trial"",""time""
""fullscreenenter"",""0"",""2905""
""blur"",""3"",""12784""
""focus"",""3"",""12788""
","""event"",""trial"",""time""
""blur"",""3"",""12784""
","""event"",""trial"",""time""
""focus"",""3"",""12788""
","""event"",""trial"",""time""
""fullscreenenter"",""0"",""2905""
","
",null,"<div style=""font-size:60px;"">+</div>",NA,null,fixation,2020-06-30T16:22:01Z,NA,NA,NA,NA,NA,sub132
NA,mars-trial,64,254241,0.0-10.0-1.25,"""event"",""trial"",""time""
""fullscreenenter"",""0"",""2905""
""blur"",""3"",""12784""
""focus"",""3"",""12788""
","""event"",""trial"",""time""
""blur"",""3"",""12784""
","""event"",""trial"",""time""
""focus"",""3"",""12788""
","""event"",""trial"",""time""
""fullscreenenter"",""0"",""2905""
","
",12350.325000006706,<img style='border: 4px solid darkgrey;' src='img/tf1_26_M_ss1.jpeg'></img>,1,NA,exp,NA,1,<img src='img/tf1_26_T1_ss1_md.jpeg'></img>,0,FALSE,NA,sub132
NA,html-keyboard-response,65,254743,0.0-10.0-0.26,"""event"",""trial"",""time""
""fullscreenenter"",""0"",""2905""
""blur"",""3"",""12784""
""focus"",""3"",""12788""
","""event"",""trial"",""time""
""blur"",""3"",""12784""
","""event"",""trial"",""time""
""focus"",""3"",""12788""
","""event"",""trial"",""time""
""fullscreenenter"",""0"",""2905""
","
",null,"<div style=""font-size:60px;"">+</div>",NA,null,fixation,2020-06-30T16:22:14Z,NA,NA,NA,NA,NA,sub132
NA,mars-trial,66,283791,0.0-10.0-1.26,"""event"",""trial"",""time""
""fullscreenenter"",""0"",""2905""
""blur"",""3"",""12784""
""focus"",""3"",""12788""
","""event"",""trial"",""time""
""blur"",""3"",""12784""
","""event"",""trial"",""time""
""focus"",""3"",""12788""
","""event"",""trial"",""time""
""fullscreenenter"",""0"",""2905""
","
",28442.44000001345,<img style='border: 4px solid darkgrey;' src='img/tf1_27_M_ss2.jpeg'></img>,0,NA,exp,NA,0,<img src='img/tf1_27_T1_ss2_md.jpeg'></img>,0,TRUE,NA,sub132
NA,html-keyboard-response,67,284292,0.0-10.0-0.27,"""event"",""trial"",""time""
""fullscreenenter"",""0"",""2905""
""blur"",""3"",""12784""
""focus"",""3"",""12788""
","""event"",""trial"",""time""
""blur"",""3"",""12784""
","""event"",""trial"",""time""
""focus"",""3"",""12788""
","""event"",""trial"",""time""
""fullscreenenter"",""0"",""2905""
","
",null,"<div style=""font-size:60px;"">+</div>",NA,null,fixation,2020-06-30T16:22:44Z,NA,NA,NA,NA,NA,sub132
NA,mars-trial,68,298924,0.0-10.0-1.27,"""event"",""trial"",""time""
""fullscreenenter"",""0"",""2905""
""blur"",""3"",""12784""
""focus"",""3"",""12788""
","""event"",""trial"",""time""
""blur"",""3"",""12784""
","""event"",""trial"",""time""
""focus"",""3"",""12788""
","""event"",""trial"",""time""
""fullscreenenter"",""0"",""2905""
","
",14027.684999979101,<img style='border: 4px solid darkgrey;' src='img/tf1_28_M_ss3.jpeg'></img>,2,NA,exp,NA,0,<img src='img/tf1_28_T1_ss3_md.jpeg'></img>,0,TRUE,NA,sub132
NA,html-keyboard-response,69,299426,0.0-10.0-0.28,"""event"",""trial"",""time""
""fullscreenenter"",""0"",""2905""
""blur"",""3"",""12784""
""focus"",""3"",""12788""
","""event"",""trial"",""time""
""blur"",""3"",""12784""
","""event"",""trial"",""time""
""focus"",""3"",""12788""
","""event"",""trial"",""time""
""fullscreenenter"",""0"",""2905""
","
",null,"<div style=""font-size:60px;"">+</div>",NA,null,fixation,2020-06-30T16:22:59Z,NA,NA,NA,NA,NA,sub132
NA,mars-trial,70,322229,0.0-10.0-1.28,"""event"",""trial"",""time""
""fullscreenenter"",""0"",""2905""
""blur"",""3"",""12784""
""focus"",""3"",""12788""
","""event"",""trial"",""time""
""blur"",""3"",""12784""
","""event"",""trial"",""time""
""focus"",""3"",""12788""
","""event"",""trial"",""time""
""fullscreenenter"",""0"",""2905""
","
",22197.795000043698,<img style='border: 4px solid darkgrey;' src='img/tf1_29_M_ss1.jpeg'></img>,0,NA,exp,NA,0,<img src='img/tf1_29_T1_ss1_md.jpeg'></img>,0,TRUE,NA,sub132
NA,html-keyboard-response,71,322730,0.0-10.0-0.29,"""event"",""trial"",""time""
""fullscreenenter"",""0"",""2905""
""blur"",""3"",""12784""
""focus"",""3"",""12788""
","""event"",""trial"",""time""
""blur"",""3"",""12784""
","""event"",""trial"",""time""
""focus"",""3"",""12788""
","""event"",""trial"",""time""
""fullscreenenter"",""0"",""2905""
","
",null,"<div style=""font-size:60px;"">+</div>",NA,null,fixation,2020-06-30T16:23:22Z,NA,NA,NA,NA,NA,sub132
NA,mars-trial,72,343347,0.0-10.0-1.29,"""event"",""trial"",""time""
""fullscreenenter"",""0"",""2905""
""blur"",""3"",""12784""
""focus"",""3"",""12788""
","""event"",""trial"",""time""
""blur"",""3"",""12784""
","""event"",""trial"",""time""
""focus"",""3"",""12788""
","""event"",""trial"",""time""
""fullscreenenter"",""0"",""2905""
","
",20010.224999976344,<img style='border: 4px solid darkgrey;' src='img/tf1_30_M_ss2.jpeg'></img>,2,NA,exp,NA,0,<img src='img/tf1_30_T1_ss2_md.jpeg'></img>,0,TRUE,NA,sub132
NA,html-keyboard-response,73,343849,0.0-10.0-0.30,"""event"",""trial"",""time""
""fullscreenenter"",""0"",""2905""
""blur"",""3"",""12784""
""focus"",""3"",""12788""
","""event"",""trial"",""time""
""blur"",""3"",""12784""
","""event"",""trial"",""time""
""focus"",""3"",""12788""
","""event"",""trial"",""time""
""fullscreenenter"",""0"",""2905""
","
",null,"<div style=""font-size:60px;"">+</div>",NA,null,fixation,2020-06-30T16:23:43Z,NA,NA,NA,NA,NA,sub132
NA,mars-trial,74,359909,0.0-10.0-1.30,"""event"",""trial"",""time""
""fullscreenenter"",""0"",""2905""
""blur"",""3"",""12784""
""focus"",""3"",""12788""
","""event"",""trial"",""time""
""blur"",""3"",""12784""
","""event"",""trial"",""time""
""focus"",""3"",""12788""
","""event"",""trial"",""time""
""fullscreenenter"",""0"",""2905""
","
",15454.879999975674,<img style='border: 4px solid darkgrey;' src='img/tf1_31_M_ss3.jpeg'></img>,2,NA,exp,NA,0,<img src='img/tf1_31_T1_ss3_md.jpeg'></img>,0,TRUE,NA,sub132
NA,html-keyboard-response,75,360410,0.0-10.0-0.31,"""event"",""trial"",""time""
""fullscreenenter"",""0"",""2905""
""blur"",""3"",""12784""
""focus"",""3"",""12788""
","""event"",""trial"",""time""
""blur"",""3"",""12784""
","""event"",""trial"",""time""
""focus"",""3"",""12788""
","""event"",""trial"",""time""
""fullscreenenter"",""0"",""2905""
","
",null,"<div style=""font-size:60px;"">+</div>",NA,null,fixation,2020-06-30T16:24:00Z,NA,NA,NA,NA,NA,sub132
NA,mars-trial,76,371256,0.0-10.0-1.31,"""event"",""trial"",""time""
""fullscreenenter"",""0"",""2905""
""blur"",""3"",""12784""
""focus"",""3"",""12788""
","""event"",""trial"",""time""
""blur"",""3"",""12784""
","""event"",""trial"",""time""
""focus"",""3"",""12788""
","""event"",""trial"",""time""
""fullscreenenter"",""0"",""2905""
","
",10242.224999936298,<img style='border: 4px solid darkgrey;' src='img/tf1_32_M_ss1.jpeg'></img>,3,NA,exp,NA,0,<img src='img/tf1_32_T1_ss1_md.jpeg'></img>,0,TRUE,NA,sub132
NA,html-keyboard-response,77,371758,0.0-10.0-0.32,"""event"",""trial"",""time""
""fullscreenenter"",""0"",""2905""
""blur"",""3"",""12784""
""focus"",""3"",""12788""
","""event"",""trial"",""time""
""blur"",""3"",""12784""
","""event"",""trial"",""time""
""focus"",""3"",""12788""
","""event"",""trial"",""time""
""fullscreenenter"",""0"",""2905""
","
",null,"<div style=""font-size:60px;"">+</div>",NA,null,fixation,2020-06-30T16:24:11Z,NA,NA,NA,NA,NA,sub132
NA,mars-trial,78,380031,0.0-10.0-1.32,"""event"",""trial"",""time""
""fullscreenenter"",""0"",""2905""
""blur"",""3"",""12784""
""focus"",""3"",""12788""
","""event"",""trial"",""time""
""blur"",""3"",""12784""
","""event"",""trial"",""time""
""focus"",""3"",""12788""
","""event"",""trial"",""time""
""fullscreenenter"",""0"",""2905""
","
",7668.00000006333,<img style='border: 4px solid darkgrey;' src='img/tf1_33_M_ss2.jpeg'></img>,3,NA,exp,NA,0,<img src='img/tf1_33_T1_ss2_md.jpeg'></img>,0,TRUE,NA,sub132
NA,html-keyboard-response,79,380532,0.0-10.0-0.33,"""event"",""trial"",""time""
""fullscreenenter"",""0"",""2905""
""blur"",""3"",""12784""
""focus"",""3"",""12788""
","""event"",""trial"",""time""
""blur"",""3"",""12784""
","""event"",""trial"",""time""
""focus"",""3"",""12788""
","""event"",""trial"",""time""
""fullscreenenter"",""0"",""2905""
","
",null,"<div style=""font-size:60px;"">+</div>",NA,null,fixation,2020-06-30T16:24:20Z,NA,NA,NA,NA,NA,sub132
NA,mars-trial,80,402444,0.0-10.0-1.33,"""event"",""trial"",""time""
""fullscreenenter"",""0"",""2905""
""blur"",""3"",""12784""
""focus"",""3"",""12788""
","""event"",""trial"",""time""
""blur"",""3"",""12784""
","""event"",""trial"",""time""
""focus"",""3"",""12788""
","""event"",""trial"",""time""
""fullscreenenter"",""0"",""2905""
","
",21308.46999993082,<img style='border: 4px solid darkgrey;' src='img/tf1_34_M_ss3.jpeg'></img>,3,NA,exp,NA,0,<img src='img/tf1_34_T1_ss3_md.jpeg'></img>,0,TRUE,NA,sub132
NA,html-keyboard-response,81,402946,0.0-10.0-0.34,"""event"",""trial"",""time""
""fullscreenenter"",""0"",""2905""
""blur"",""3"",""12784""
""focus"",""3"",""12788""
","""event"",""trial"",""time""
""blur"",""3"",""12784""
","""event"",""trial"",""time""
""focus"",""3"",""12788""
","""event"",""trial"",""time""
""fullscreenenter"",""0"",""2905""
","
",null,"<div style=""font-size:60px;"">+</div>",NA,null,fixation,2020-06-30T16:24:43Z,NA,NA,NA,NA,NA,sub132
NA,mars-trial,82,422482,0.0-10.0-1.34,"""event"",""trial"",""time""
""fullscreenenter"",""0"",""2905""
""blur"",""3"",""12784""
""focus"",""3"",""12788""
","""event"",""trial"",""time""
""blur"",""3"",""12784""
","""event"",""trial"",""time""
""focus"",""3"",""12788""
","""event"",""trial"",""time""
""fullscreenenter"",""0"",""2905""
","
",18931.26499990467,<img style='border: 4px solid darkgrey;' src='img/tf1_35_M_ss1.jpeg'></img>,3,NA,exp,NA,0,<img src='img/tf1_35_T1_ss1_md.jpeg'></img>,0,TRUE,NA,sub132
NA,html-keyboard-response,83,422983,0.0-10.0-0.35,"""event"",""trial"",""time""
""fullscreenenter"",""0"",""2905""
""blur"",""3"",""12784""
""focus"",""3"",""12788""
","""event"",""trial"",""time""
""blur"",""3"",""12784""
","""event"",""trial"",""time""
""focus"",""3"",""12788""
","""event"",""trial"",""time""
""fullscreenenter"",""0"",""2905""
","
",null,"<div style=""font-size:60px;"">+</div>",NA,null,fixation,2020-06-30T16:25:03Z,NA,NA,NA,NA,NA,sub132
NA,mars-trial,84,450338,0.0-10.0-1.35,"""event"",""trial"",""time""
""fullscreenenter"",""0"",""2905""
""blur"",""3"",""12784""
""focus"",""3"",""12788""
","""event"",""trial"",""time""
""blur"",""3"",""12784""
","""event"",""trial"",""time""
""focus"",""3"",""12788""
","""event"",""trial"",""time""
""fullscreenenter"",""0"",""2905""
","
",26749.849999905564,<img style='border: 4px solid darkgrey;' src='img/tf1_36_M_ss2.jpeg'></img>,1,NA,exp,NA,3,<img src='img/tf1_36_T1_ss2_md.jpeg'></img>,0,FALSE,NA,sub132
NA,html-keyboard-response,85,450840,0.0-10.0-0.36,"""event"",""trial"",""time""
""fullscreenenter"",""0"",""2905""
""blur"",""3"",""12784""
""focus"",""3"",""12788""
","""event"",""trial"",""time""
""blur"",""3"",""12784""
","""event"",""trial"",""time""
""focus"",""3"",""12788""
","""event"",""trial"",""time""
""fullscreenenter"",""0"",""2905""
","
",null,"<div style=""font-size:60px;"">+</div>",NA,null,fixation,2020-06-30T16:25:30Z,NA,NA,NA,NA,NA,sub132
NA,mars-trial,86,479724,0.0-10.0-1.36,"""event"",""trial"",""time""
""fullscreenenter"",""0"",""2905""
""blur"",""3"",""12784""
""focus"",""3"",""12788""
","""event"",""trial"",""time""
""blur"",""3"",""12784""
","""event"",""trial"",""time""
""focus"",""3"",""12788""
","""event"",""trial"",""time""
""fullscreenenter"",""0"",""2905""
","
",28279.760000063106,<img style='border: 4px solid darkgrey;' src='img/tf1_37_M_ss3.jpeg'></img>,3,NA,exp,NA,2,<img src='img/tf1_37_T1_ss3_md.jpeg'></img>,0,FALSE,NA,sub132
NA,html-keyboard-response,87,480226,0.0-10.0-0.37,"""event"",""trial"",""time""
""fullscreenenter"",""0"",""2905""
""blur"",""3"",""12784""
""focus"",""3"",""12788""
","""event"",""trial"",""time""
""blur"",""3"",""12784""
","""event"",""trial"",""time""
""focus"",""3"",""12788""
","""event"",""trial"",""time""
""fullscreenenter"",""0"",""2905""
","
",null,"<div style=""font-size:60px;"">+</div>",NA,null,fixation,2020-06-30T16:26:00Z,NA,NA,NA,NA,NA,sub132
NA,mars-trial,88,484549,0.0-10.0-1.37,"""event"",""trial"",""time""
""fullscreenenter"",""0"",""2905""
""blur"",""3"",""12784""
""focus"",""3"",""12788""
","""event"",""trial"",""time""
""blur"",""3"",""12784""
","""event"",""trial"",""time""
""focus"",""3"",""12788""
","""event"",""trial"",""time""
""fullscreenenter"",""0"",""2905""
","
",3718.3550000190735,<img style='border: 4px solid darkgrey;' src='img/tf1_38_M_ss1.jpeg'></img>,3,NA,exp,NA,0,<img src='img/tf1_38_T1_ss1_md.jpeg'></img>,0,TRUE,NA,sub132
NA,html-keyboard-response,89,485051,0.0-10.0-0.38,"""event"",""trial"",""time""
""fullscreenenter"",""0"",""2905""
""blur"",""3"",""12784""
""focus"",""3"",""12788""
","""event"",""trial"",""time""
""blur"",""3"",""12784""
","""event"",""trial"",""time""
""focus"",""3"",""12788""
","""event"",""trial"",""time""
""fullscreenenter"",""0"",""2905""
","
",null,"<div style=""font-size:60px;"">+</div>",NA,null,fixation,2020-06-30T16:26:05Z,NA,NA,NA,NA,NA,sub132
NA,mars-trial,90,498461,0.0-10.0-1.38,"""event"",""trial"",""time""
""fullscreenenter"",""0"",""2905""
""blur"",""3"",""12784""
""focus"",""3"",""12788""
","""event"",""trial"",""time""
""blur"",""3"",""12784""
","""event"",""trial"",""time""
""focus"",""3"",""12788""
","""event"",""trial"",""time""
""fullscreenenter"",""0"",""2905""
","
",12805.165000027046,<img style='border: 4px solid darkgrey;' src='img/tf1_39_M_ss2.jpeg'></img>,2,NA,exp,NA,0,<img src='img/tf1_39_T1_ss2_md.jpeg'></img>,0,TRUE,NA,sub132
NA,html-keyboard-response,91,498962,0.0-10.0-0.39,"""event"",""trial"",""time""
""fullscreenenter"",""0"",""2905""
""blur"",""3"",""12784""
""focus"",""3"",""12788""
","""event"",""trial"",""time""
""blur"",""3"",""12784""
","""event"",""trial"",""time""
""focus"",""3"",""12788""
","""event"",""trial"",""time""
""fullscreenenter"",""0"",""2905""
","
",null,"<div style=""font-size:60px;"">+</div>",NA,null,fixation,2020-06-30T16:26:19Z,NA,NA,NA,NA,NA,sub132
NA,mars-trial,92,509458,0.0-10.0-1.39,"""event"",""trial"",""time""
""fullscreenenter"",""0"",""2905""
""blur"",""3"",""12784""
""focus"",""3"",""12788""
","""event"",""trial"",""time""
""blur"",""3"",""12784""
","""event"",""trial"",""time""
""focus"",""3"",""12788""
","""event"",""trial"",""time""
""fullscreenenter"",""0"",""2905""
","
",9891.53499994427,<img style='border: 4px solid darkgrey;' src='img/tf1_40_M_ss3.jpeg'></img>,1,NA,exp,NA,0,<img src='img/tf1_40_T1_ss3_md.jpeg'></img>,0,TRUE,NA,sub132
NA,html-keyboard-response,93,509961,0.0-10.0-0.40,"""event"",""trial"",""time""
""fullscreenenter"",""0"",""2905""
""blur"",""3"",""12784""
""focus"",""3"",""12788""
","""event"",""trial"",""time""
""blur"",""3"",""12784""
","""event"",""trial"",""time""
""focus"",""3"",""12788""
","""event"",""trial"",""time""
""fullscreenenter"",""0"",""2905""
","
",null,"<div style=""font-size:60px;"">+</div>",NA,null,fixation,2020-06-30T16:26:30Z,NA,NA,NA,NA,NA,sub132
NA,mars-trial,94,512501,0.0-10.0-1.40,"""event"",""trial"",""time""
""fullscreenenter"",""0"",""2905""
""blur"",""3"",""12784""
""focus"",""3"",""12788""
","""event"",""trial"",""time""
""blur"",""3"",""12784""
","""event"",""trial"",""time""
""focus"",""3"",""12788""
","""event"",""trial"",""time""
""fullscreenenter"",""0"",""2905""
","
",1935.9849999891594,<img style='border: 4px solid darkgrey;' src='img/tf1_41_M_ss1.jpeg'></img>,2,NA,exp,NA,0,<img src='img/tf1_41_T1_ss1_md.jpeg'></img>,0,TRUE,NA,sub132
NA,html-keyboard-response,95,513003,0.0-10.0-0.41,"""event"",""trial"",""time""
""fullscreenenter"",""0"",""2905""
""blur"",""3"",""12784""
""focus"",""3"",""12788""
","""event"",""trial"",""time""
""blur"",""3"",""12784""
","""event"",""trial"",""time""
""focus"",""3"",""12788""
","""event"",""trial"",""time""
""fullscreenenter"",""0"",""2905""
","
",null,"<div style=""font-size:60px;"">+</div>",NA,null,fixation,2020-06-30T16:26:33Z,NA,NA,NA,NA,NA,sub132
NA,mars-trial,96,522651,0.0-10.0-1.41,"""event"",""trial"",""time""
""fullscreenenter"",""0"",""2905""
""blur"",""3"",""12784""
""focus"",""3"",""12788""
","""event"",""trial"",""time""
""blur"",""3"",""12784""
","""event"",""trial"",""time""
""focus"",""3"",""12788""
","""event"",""trial"",""time""
""fullscreenenter"",""0"",""2905""
","
",NA,NA,NA,NA,exp,NA,NA,<img src='img/tf1_42_T1_ss2_md.jpeg'></img>,0,FALSE,NA,sub132
NA,html-keyboard-response,97,523152,0.0-10.0-0.42,"""event"",""trial"",""time""
""fullscreenenter"",""0"",""2905""
""blur"",""3"",""12784""
""focus"",""3"",""12788""
","""event"",""trial"",""time""
""blur"",""3"",""12784""
","""event"",""trial"",""time""
""focus"",""3"",""12788""
","""event"",""trial"",""time""
""fullscreenenter"",""0"",""2905""
","
",null,"<div style=""font-size:60px;"">+</div>",NA,null,fixation,2020-06-30T16:26:43Z,NA,NA,NA,NA,NA,sub132
NA,audio-button-response,98,526297,0.0-11.0,"""event"",""trial"",""time""
""fullscreenenter"",""0"",""2905""
""blur"",""3"",""12784""
""focus"",""3"",""12788""
","""event"",""trial"",""time""
""blur"",""3"",""12784""
","""event"",""trial"",""time""
""focus"",""3"",""12788""
","""event"",""trial"",""time""
""fullscreenenter"",""0"",""2905""
","
",3042.159999953583,audio/mars_instructions_slide5.wav,0,NA,NA,NA,NA,NA,NA,NA,NA,sub132
