success,trial_type,trial_index,time_elapsed,internal_node_id,interactions,blur_events,focus_events,fullscreenenter_events,fullscreenexit_events,rt,stimulus,button_pressed,key_press,part,timestamp,unshuffled_button,correct_response,correct_button,correct,value,subject_id
TRUE,fullscreen,0,5027,0.0-0.0,"""event"",""trial"",""time""
""fullscreenenter"",""0"",""4085""
","
","
","""event"",""trial"",""time""
""fullscreenenter"",""0"",""4085""
","
",NA,NA,NA,NA,NA,NA,NA,NA,NA,NA,NA,sub58
NA,pavlovia,1,5034,0.0-1.0,"""event"",""trial"",""time""
""fullscreenenter"",""0"",""4085""
","
","
","""event"",""trial"",""time""
""fullscreenenter"",""0"",""4085""
","
",NA,NA,NA,NA,NA,NA,NA,NA,NA,NA,NA,sub58
NA,html-button-response,2,7025,0.0-2.0,"""event"",""trial"",""time""
""fullscreenenter"",""0"",""4085""
","
","
","""event"",""trial"",""time""
""fullscreenenter"",""0"",""4085""
","
",1988,<p>Welcome! Press START to begin.</p><br>,0,NA,NA,NA,NA,NA,NA,NA,NA,sub58
NA,audio-button-response,3,20267,0.0-3.0,"""event"",""trial"",""time""
""fullscreenenter"",""0"",""4085""
","
","
","""event"",""trial"",""time""
""fullscreenenter"",""0"",""4085""
","
",13229,audio/mars_instructions_slide2.wav,0,NA,NA,NA,NA,NA,NA,NA,NA,sub58
NA,audio-button-response,4,33674,0.0-4.0,"""event"",""trial"",""time""
""fullscreenenter"",""0"",""4085""
","
","
","""event"",""trial"",""time""
""fullscreenenter"",""0"",""4085""
","
",13405,audio/mars_instructions_slide3.wav,0,NA,NA,NA,NA,NA,NA,NA,NA,sub58
NA,html-keyboard-response,5,34177,0.0-5.0-0.0,"""event"",""trial"",""time""
""fullscreenenter"",""0"",""4085""
","
","
","""event"",""trial"",""time""
""fullscreenenter"",""0"",""4085""
","
",null,"<div style=""font-size:60px;"">+</div>",NA,null,fixation,2020-06-11T18:49:24Z,NA,NA,NA,NA,NA,sub58
NA,mars-trial,6,40154,0.0-5.0-1.0,"""event"",""trial"",""time""
""fullscreenenter"",""0"",""4085""
","
","
","""event"",""trial"",""time""
""fullscreenenter"",""0"",""4085""
","
",3868,<img style='border: 4px solid darkgrey;' src='practice/pt1_M1.png'></img>,3,NA,practice,NA,0,<img src='practice/pt1_T1.png'></img>,0,TRUE,NA,sub58
NA,html-keyboard-response,7,40658,0.0-6.0-0.0,"""event"",""trial"",""time""
""fullscreenenter"",""0"",""4085""
","
","
","""event"",""trial"",""time""
""fullscreenenter"",""0"",""4085""
","
",null,"<div style=""font-size:60px;"">+</div>",NA,null,fixation,2020-06-11T18:49:30Z,NA,NA,NA,NA,NA,sub58
NA,mars-trial,8,44785,0.0-6.0-1.0,"""event"",""trial"",""time""
""fullscreenenter"",""0"",""4085""
","
","
","""event"",""trial"",""time""
""fullscreenenter"",""0"",""4085""
","
",2022,<img style='border: 4px solid darkgrey;' src='practice/pt2_M1.png'></img>,3,NA,practice,NA,0,<img src='practice/pt2_T1.png'></img>,0,TRUE,NA,sub58
NA,html-keyboard-response,9,45288,0.0-7.0-0.0,"""event"",""trial"",""time""
""fullscreenenter"",""0"",""4085""
","
","
","""event"",""trial"",""time""
""fullscreenenter"",""0"",""4085""
","
",null,"<div style=""font-size:60px;"">+</div>",NA,null,fixation,2020-06-11T18:49:35Z,NA,NA,NA,NA,NA,sub58
NA,mars-trial,10,48873,0.0-7.0-1.0,"""event"",""trial"",""time""
""fullscreenenter"",""0"",""4085""
","
","
","""event"",""trial"",""time""
""fullscreenenter"",""0"",""4085""
","
",1481,<img style='border: 4px solid darkgrey;' src='practice/pt3_M1.png'></img>,2,NA,practice,NA,0,<img src='practice/pt3_T1.png'></img>,0,TRUE,NA,sub58
NA,audio-button-response,11,53419,0.0-8.0,"""event"",""trial"",""time""
""fullscreenenter"",""0"",""4085""
","
","
","""event"",""trial"",""time""
""fullscreenenter"",""0"",""4085""
","
",4543.000000000007,audio/mars_instructions_slide4.wav,0,NA,NA,NA,NA,NA,NA,NA,NA,sub58
NA,call-function,12,53419,0.0-9.0,"""event"",""trial"",""time""
""fullscreenenter"",""0"",""4085""
","
","
","""event"",""trial"",""time""
""fullscreenenter"",""0"",""4085""
","
",NA,NA,NA,NA,NA,NA,NA,NA,NA,NA,NA,sub58
NA,html-keyboard-response,13,53922,0.0-10.0-0.0,"""event"",""trial"",""time""
""fullscreenenter"",""0"",""4085""
","
","
","""event"",""trial"",""time""
""fullscreenenter"",""0"",""4085""
","
",null,"<div style=""font-size:60px;"">+</div>",NA,null,fixation,2020-06-11T18:49:43Z,NA,NA,NA,NA,NA,sub58
NA,mars-trial,14,56731,0.0-10.0-1.0,"""event"",""trial"",""time""
""fullscreenenter"",""0"",""4085""
","
","
","""event"",""trial"",""time""
""fullscreenenter"",""0"",""4085""
","
",2152.9999999999927,<img style='border: 4px solid darkgrey;' src='img/tf1_1_M_ss3.jpeg'></img>,1,NA,exp,NA,0,<img src='img/tf1_1_T1_ss3_md.jpeg'></img>,0,TRUE,NA,sub58
NA,html-keyboard-response,15,57235,0.0-10.0-0.1,"""event"",""trial"",""time""
""fullscreenenter"",""0"",""4085""
","
","
","""event"",""trial"",""time""
""fullscreenenter"",""0"",""4085""
","
",null,"<div style=""font-size:60px;"">+</div>",NA,null,fixation,2020-06-11T18:49:47Z,NA,NA,NA,NA,NA,sub58
NA,mars-trial,16,60225,0.0-10.0-1.1,"""event"",""trial"",""time""
""fullscreenenter"",""0"",""4085""
","
","
","""event"",""trial"",""time""
""fullscreenenter"",""0"",""4085""
","
",2386,<img style='border: 4px solid darkgrey;' src='img/tf1_2_M_ss1.jpeg'></img>,1,NA,exp,NA,0,<img src='img/tf1_2_T1_ss1_md.jpeg'></img>,0,TRUE,NA,sub58
NA,html-keyboard-response,17,60727,0.0-10.0-0.2,"""event"",""trial"",""time""
""fullscreenenter"",""0"",""4085""
","
","
","""event"",""trial"",""time""
""fullscreenenter"",""0"",""4085""
","
",null,"<div style=""font-size:60px;"">+</div>",NA,null,fixation,2020-06-11T18:49:50Z,NA,NA,NA,NA,NA,sub58
NA,mars-trial,18,63045,0.0-10.0-1.2,"""event"",""trial"",""time""
""fullscreenenter"",""0"",""4085""
","
","
","""event"",""trial"",""time""
""fullscreenenter"",""0"",""4085""
","
",1710,<img style='border: 4px solid darkgrey;' src='img/tf1_3_M_ss2.jpeg'></img>,2,NA,exp,NA,0,<img src='img/tf1_3_T1_ss2_md.jpeg'></img>,0,TRUE,NA,sub58
NA,html-keyboard-response,19,63548,0.0-10.0-0.3,"""event"",""trial"",""time""
""fullscreenenter"",""0"",""4085""
","
","
","""event"",""trial"",""time""
""fullscreenenter"",""0"",""4085""
","
",null,"<div style=""font-size:60px;"">+</div>",NA,null,fixation,2020-06-11T18:49:53Z,NA,NA,NA,NA,NA,sub58
NA,mars-trial,20,67514,0.0-10.0-1.3,"""event"",""trial"",""time""
""fullscreenenter"",""0"",""4085""
","
","
","""event"",""trial"",""time""
""fullscreenenter"",""0"",""4085""
","
",3362,<img style='border: 4px solid darkgrey;' src='img/tf1_4_M_ss3.jpeg'></img>,3,NA,exp,NA,0,<img src='img/tf1_4_T1_ss3_md.jpeg'></img>,0,TRUE,NA,sub58
NA,html-keyboard-response,21,68017,0.0-10.0-0.4,"""event"",""trial"",""time""
""fullscreenenter"",""0"",""4085""
","
","
","""event"",""trial"",""time""
""fullscreenenter"",""0"",""4085""
","
",null,"<div style=""font-size:60px;"">+</div>",NA,null,fixation,2020-06-11T18:49:57Z,NA,NA,NA,NA,NA,sub58
NA,mars-trial,22,70585,0.0-10.0-1.4,"""event"",""trial"",""time""
""fullscreenenter"",""0"",""4085""
","
","
","""event"",""trial"",""time""
""fullscreenenter"",""0"",""4085""
","
",1962.0000000000146,<img style='border: 4px solid darkgrey;' src='img/tf1_5_M_ss1.jpeg'></img>,3,NA,exp,NA,0,<img src='img/tf1_5_T1_ss1_md.jpeg'></img>,0,TRUE,NA,sub58
NA,html-keyboard-response,23,71087,0.0-10.0-0.5,"""event"",""trial"",""time""
""fullscreenenter"",""0"",""4085""
","
","
","""event"",""trial"",""time""
""fullscreenenter"",""0"",""4085""
","
",null,"<div style=""font-size:60px;"">+</div>",NA,null,fixation,2020-06-11T18:50:00Z,NA,NA,NA,NA,NA,sub58
NA,mars-trial,24,77517,0.0-10.0-1.5,"""event"",""trial"",""time""
""fullscreenenter"",""0"",""4085""
","
","
","""event"",""trial"",""time""
""fullscreenenter"",""0"",""4085""
","
",5823,<img style='border: 4px solid darkgrey;' src='img/tf1_6_M_ss2.jpeg'></img>,1,NA,exp,NA,2,<img src='img/tf1_6_T1_ss2_md.jpeg'></img>,0,FALSE,NA,sub58
NA,html-keyboard-response,25,78020,0.0-10.0-0.6,"""event"",""trial"",""time""
""fullscreenenter"",""0"",""4085""
","
","
","""event"",""trial"",""time""
""fullscreenenter"",""0"",""4085""
","
",null,"<div style=""font-size:60px;"">+</div>",NA,null,fixation,2020-06-11T18:50:07Z,NA,NA,NA,NA,NA,sub58
NA,mars-trial,26,80911,0.0-10.0-1.6,"""event"",""trial"",""time""
""fullscreenenter"",""0"",""4085""
","
","
","""event"",""trial"",""time""
""fullscreenenter"",""0"",""4085""
","
",2286,<img style='border: 4px solid darkgrey;' src='img/tf1_7_M_ss3.jpeg'></img>,3,NA,exp,NA,0,<img src='img/tf1_7_T1_ss3_md.jpeg'></img>,0,TRUE,NA,sub58
NA,html-keyboard-response,27,81413,0.0-10.0-0.7,"""event"",""trial"",""time""
""fullscreenenter"",""0"",""4085""
","
","
","""event"",""trial"",""time""
""fullscreenenter"",""0"",""4085""
","
",null,"<div style=""font-size:60px;"">+</div>",NA,null,fixation,2020-06-11T18:50:11Z,NA,NA,NA,NA,NA,sub58
NA,mars-trial,28,86941,0.0-10.0-1.7,"""event"",""trial"",""time""
""fullscreenenter"",""0"",""4085""
","
","
","""event"",""trial"",""time""
""fullscreenenter"",""0"",""4085""
","
",4924.000000000015,<img style='border: 4px solid darkgrey;' src='img/tf1_8_M_ss1.jpeg'></img>,1,NA,exp,NA,0,<img src='img/tf1_8_T1_ss1_md.jpeg'></img>,0,TRUE,NA,sub58
NA,html-keyboard-response,29,87444,0.0-10.0-0.8,"""event"",""trial"",""time""
""fullscreenenter"",""0"",""4085""
","
","
","""event"",""trial"",""time""
""fullscreenenter"",""0"",""4085""
","
",null,"<div style=""font-size:60px;"">+</div>",NA,null,fixation,2020-06-11T18:50:17Z,NA,NA,NA,NA,NA,sub58
NA,mars-trial,30,92144,0.0-10.0-1.8,"""event"",""trial"",""time""
""fullscreenenter"",""0"",""4085""
","
","
","""event"",""trial"",""time""
""fullscreenenter"",""0"",""4085""
","
",4095,<img style='border: 4px solid darkgrey;' src='img/tf1_9_M_ss2.jpeg'></img>,2,NA,exp,NA,0,<img src='img/tf1_9_T1_ss2_md.jpeg'></img>,0,TRUE,NA,sub58
NA,html-keyboard-response,31,92646,0.0-10.0-0.9,"""event"",""trial"",""time""
""fullscreenenter"",""0"",""4085""
","
","
","""event"",""trial"",""time""
""fullscreenenter"",""0"",""4085""
","
",null,"<div style=""font-size:60px;"">+</div>",NA,null,fixation,2020-06-11T18:50:22Z,NA,NA,NA,NA,NA,sub58
NA,mars-trial,32,97911,0.0-10.0-1.9,"""event"",""trial"",""time""
""fullscreenenter"",""0"",""4085""
","
","
","""event"",""trial"",""time""
""fullscreenenter"",""0"",""4085""
","
",4661,<img style='border: 4px solid darkgrey;' src='img/tf1_10_M_ss3.jpeg'></img>,2,NA,exp,NA,0,<img src='img/tf1_10_T1_ss3_md.jpeg'></img>,0,TRUE,NA,sub58
NA,html-keyboard-response,33,98413,0.0-10.0-0.10,"""event"",""trial"",""time""
""fullscreenenter"",""0"",""4085""
","
","
","""event"",""trial"",""time""
""fullscreenenter"",""0"",""4085""
","
",null,"<div style=""font-size:60px;"">+</div>",NA,null,fixation,2020-06-11T18:50:28Z,NA,NA,NA,NA,NA,sub58
NA,mars-trial,34,105153,0.0-10.0-1.10,"""event"",""trial"",""time""
""fullscreenenter"",""0"",""4085""
","
","
","""event"",""trial"",""time""
""fullscreenenter"",""0"",""4085""
","
",6135,<img style='border: 4px solid darkgrey;' src='img/tf1_11_M_ss1.jpeg'></img>,0,NA,exp,NA,0,<img src='img/tf1_11_T1_ss1_md.jpeg'></img>,0,TRUE,NA,sub58
NA,html-keyboard-response,35,105656,0.0-10.0-0.11,"""event"",""trial"",""time""
""fullscreenenter"",""0"",""4085""
","
","
","""event"",""trial"",""time""
""fullscreenenter"",""0"",""4085""
","
",null,"<div style=""font-size:60px;"">+</div>",NA,null,fixation,2020-06-11T18:50:35Z,NA,NA,NA,NA,NA,sub58
NA,mars-trial,36,110199,0.0-10.0-1.11,"""event"",""trial"",""time""
""fullscreenenter"",""0"",""4085""
","
","
","""event"",""trial"",""time""
""fullscreenenter"",""0"",""4085""
","
",3939,<img style='border: 4px solid darkgrey;' src='img/tf1_12_M_ss2.jpeg'></img>,0,NA,exp,NA,1,<img src='img/tf1_12_T1_ss2_md.jpeg'></img>,0,FALSE,NA,sub58
NA,html-keyboard-response,37,110701,0.0-10.0-0.12,"""event"",""trial"",""time""
""fullscreenenter"",""0"",""4085""
","
","
","""event"",""trial"",""time""
""fullscreenenter"",""0"",""4085""
","
",null,"<div style=""font-size:60px;"">+</div>",NA,null,fixation,2020-06-11T18:50:40Z,NA,NA,NA,NA,NA,sub58
NA,mars-trial,38,114909,0.0-10.0-1.12,"""event"",""trial"",""time""
""fullscreenenter"",""0"",""4085""
","
","
","""event"",""trial"",""time""
""fullscreenenter"",""0"",""4085""
","
",3602,<img style='border: 4px solid darkgrey;' src='img/tf1_13_M_ss3.jpeg'></img>,0,NA,exp,NA,1,<img src='img/tf1_13_T1_ss3_md.jpeg'></img>,0,FALSE,NA,sub58
NA,html-keyboard-response,39,115411,0.0-10.0-0.13,"""event"",""trial"",""time""
""fullscreenenter"",""0"",""4085""
","
","
","""event"",""trial"",""time""
""fullscreenenter"",""0"",""4085""
","
",null,"<div style=""font-size:60px;"">+</div>",NA,null,fixation,2020-06-11T18:50:45Z,NA,NA,NA,NA,NA,sub58
NA,mars-trial,40,119178,0.0-10.0-1.13,"""event"",""trial"",""time""
""fullscreenenter"",""0"",""4085""
","
","
","""event"",""trial"",""time""
""fullscreenenter"",""0"",""4085""
","
",3162,<img style='border: 4px solid darkgrey;' src='img/tf1_14_M_ss1.jpeg'></img>,2,NA,exp,NA,3,<img src='img/tf1_14_T1_ss1_md.jpeg'></img>,0,FALSE,NA,sub58
NA,html-keyboard-response,41,119681,0.0-10.0-0.14,"""event"",""trial"",""time""
""fullscreenenter"",""0"",""4085""
","
","
","""event"",""trial"",""time""
""fullscreenenter"",""0"",""4085""
","
",null,"<div style=""font-size:60px;"">+</div>",NA,null,fixation,2020-06-11T18:50:49Z,NA,NA,NA,NA,NA,sub58
NA,mars-trial,42,122565,0.0-10.0-1.14,"""event"",""trial"",""time""
""fullscreenenter"",""0"",""4085""
","
","
","""event"",""trial"",""time""
""fullscreenenter"",""0"",""4085""
","
",2279.0000000000146,<img style='border: 4px solid darkgrey;' src='img/tf1_15_M_ss2.jpeg'></img>,3,NA,exp,NA,0,<img src='img/tf1_15_T1_ss2_md.jpeg'></img>,0,TRUE,NA,sub58
NA,html-keyboard-response,43,123068,0.0-10.0-0.15,"""event"",""trial"",""time""
""fullscreenenter"",""0"",""4085""
","
","
","""event"",""trial"",""time""
""fullscreenenter"",""0"",""4085""
","
",null,"<div style=""font-size:60px;"">+</div>",NA,null,fixation,2020-06-11T18:50:52Z,NA,NA,NA,NA,NA,sub58
NA,mars-trial,44,127370,0.0-10.0-1.15,"""event"",""trial"",""time""
""fullscreenenter"",""0"",""4085""
","
","
","""event"",""trial"",""time""
""fullscreenenter"",""0"",""4085""
","
",3697.9999999999854,<img style='border: 4px solid darkgrey;' src='img/tf1_16_M_ss3.jpeg'></img>,3,NA,exp,NA,0,<img src='img/tf1_16_T1_ss3_md.jpeg'></img>,0,TRUE,NA,sub58
NA,html-keyboard-response,45,127872,0.0-10.0-0.16,"""event"",""trial"",""time""
""fullscreenenter"",""0"",""4085""
","
","
","""event"",""trial"",""time""
""fullscreenenter"",""0"",""4085""
","
",null,"<div style=""font-size:60px;"">+</div>",NA,null,fixation,2020-06-11T18:50:57Z,NA,NA,NA,NA,NA,sub58
NA,mars-trial,46,131732,0.0-10.0-1.16,"""event"",""trial"",""time""
""fullscreenenter"",""0"",""4085""
","
","
","""event"",""trial"",""time""
""fullscreenenter"",""0"",""4085""
","
",3257,<img style='border: 4px solid darkgrey;' src='img/tf1_17_M_ss1.jpeg'></img>,1,NA,exp,NA,3,<img src='img/tf1_17_T1_ss1_md.jpeg'></img>,0,FALSE,NA,sub58
NA,html-keyboard-response,47,132235,0.0-10.0-0.17,"""event"",""trial"",""time""
""fullscreenenter"",""0"",""4085""
","
","
","""event"",""trial"",""time""
""fullscreenenter"",""0"",""4085""
","
",null,"<div style=""font-size:60px;"">+</div>",NA,null,fixation,2020-06-11T18:51:02Z,NA,NA,NA,NA,NA,sub58
NA,mars-trial,48,135555,0.0-10.0-1.17,"""event"",""trial"",""time""
""fullscreenenter"",""0"",""4085""
","
","
","""event"",""trial"",""time""
""fullscreenenter"",""0"",""4085""
","
",2715,<img style='border: 4px solid darkgrey;' src='img/tf1_18_M_ss2.jpeg'></img>,2,NA,exp,NA,2,<img src='img/tf1_18_T1_ss2_md.jpeg'></img>,0,FALSE,NA,sub58
NA,html-keyboard-response,49,136057,0.0-10.0-0.18,"""event"",""trial"",""time""
""fullscreenenter"",""0"",""4085""
","
","
","""event"",""trial"",""time""
""fullscreenenter"",""0"",""4085""
","
",null,"<div style=""font-size:60px;"">+</div>",NA,null,fixation,2020-06-11T18:51:05Z,NA,NA,NA,NA,NA,sub58
NA,mars-trial,50,138957,0.0-10.0-1.18,"""event"",""trial"",""time""
""fullscreenenter"",""0"",""4085""
","
","
","""event"",""trial"",""time""
""fullscreenenter"",""0"",""4085""
","
",2294.999999999971,<img style='border: 4px solid darkgrey;' src='img/tf1_19_M_ss3.jpeg'></img>,3,NA,exp,NA,3,<img src='img/tf1_19_T1_ss3_md.jpeg'></img>,0,FALSE,NA,sub58
NA,html-keyboard-response,51,139459,0.0-10.0-0.19,"""event"",""trial"",""time""
""fullscreenenter"",""0"",""4085""
","
","
","""event"",""trial"",""time""
""fullscreenenter"",""0"",""4085""
","
",null,"<div style=""font-size:60px;"">+</div>",NA,null,fixation,2020-06-11T18:51:09Z,NA,NA,NA,NA,NA,sub58
NA,mars-trial,52,142962,0.0-10.0-1.19,"""event"",""trial"",""time""
""fullscreenenter"",""0"",""4085""
","
","
","""event"",""trial"",""time""
""fullscreenenter"",""0"",""4085""
","
",2897,<img style='border: 4px solid darkgrey;' src='img/tf1_20_M_ss1.jpeg'></img>,3,NA,exp,NA,0,<img src='img/tf1_20_T1_ss1_md.jpeg'></img>,0,TRUE,NA,sub58
NA,html-keyboard-response,53,143465,0.0-10.0-0.20,"""event"",""trial"",""time""
""fullscreenenter"",""0"",""4085""
","
","
","""event"",""trial"",""time""
""fullscreenenter"",""0"",""4085""
","
",null,"<div style=""font-size:60px;"">+</div>",NA,null,fixation,2020-06-11T18:51:13Z,NA,NA,NA,NA,NA,sub58
NA,mars-trial,54,149941,0.0-10.0-1.20,"""event"",""trial"",""time""
""fullscreenenter"",""0"",""4085""
","
","
","""event"",""trial"",""time""
""fullscreenenter"",""0"",""4085""
","
",5872,<img style='border: 4px solid darkgrey;' src='img/tf1_21_M_ss2.jpeg'></img>,3,NA,exp,NA,2,<img src='img/tf1_21_T1_ss2_md.jpeg'></img>,0,FALSE,NA,sub58
NA,html-keyboard-response,55,150443,0.0-10.0-0.21,"""event"",""trial"",""time""
""fullscreenenter"",""0"",""4085""
","
","
","""event"",""trial"",""time""
""fullscreenenter"",""0"",""4085""
","
",null,"<div style=""font-size:60px;"">+</div>",NA,null,fixation,2020-06-11T18:51:20Z,NA,NA,NA,NA,NA,sub58
NA,mars-trial,56,154456,0.0-10.0-1.21,"""event"",""trial"",""time""
""fullscreenenter"",""0"",""4085""
","
","
","""event"",""trial"",""time""
""fullscreenenter"",""0"",""4085""
","
",3408,<img style='border: 4px solid darkgrey;' src='img/tf1_22_M_ss3.jpeg'></img>,3,NA,exp,NA,1,<img src='img/tf1_22_T1_ss3_md.jpeg'></img>,0,FALSE,NA,sub58
NA,html-keyboard-response,57,154959,0.0-10.0-0.22,"""event"",""trial"",""time""
""fullscreenenter"",""0"",""4085""
","
","
","""event"",""trial"",""time""
""fullscreenenter"",""0"",""4085""
","
",null,"<div style=""font-size:60px;"">+</div>",NA,null,fixation,2020-06-11T18:51:24Z,NA,NA,NA,NA,NA,sub58
NA,mars-trial,58,158862,0.0-10.0-1.22,"""event"",""trial"",""time""
""fullscreenenter"",""0"",""4085""
","
","
","""event"",""trial"",""time""
""fullscreenenter"",""0"",""4085""
","
",3297,<img style='border: 4px solid darkgrey;' src='img/tf1_23_M_ss1.jpeg'></img>,1,NA,exp,NA,3,<img src='img/tf1_23_T1_ss1_md.jpeg'></img>,0,FALSE,NA,sub58
NA,html-keyboard-response,59,159364,0.0-10.0-0.23,"""event"",""trial"",""time""
""fullscreenenter"",""0"",""4085""
","
","
","""event"",""trial"",""time""
""fullscreenenter"",""0"",""4085""
","
",null,"<div style=""font-size:60px;"">+</div>",NA,null,fixation,2020-06-11T18:51:29Z,NA,NA,NA,NA,NA,sub58
NA,mars-trial,60,164389,0.0-10.0-1.23,"""event"",""trial"",""time""
""fullscreenenter"",""0"",""4085""
","
","
","""event"",""trial"",""time""
""fullscreenenter"",""0"",""4085""
","
",4409,<img style='border: 4px solid darkgrey;' src='img/tf1_24_M_ss2.jpeg'></img>,2,NA,exp,NA,1,<img src='img/tf1_24_T1_ss2_md.jpeg'></img>,0,FALSE,NA,sub58
NA,html-keyboard-response,61,164891,0.0-10.0-0.24,"""event"",""trial"",""time""
""fullscreenenter"",""0"",""4085""
","
","
","""event"",""trial"",""time""
""fullscreenenter"",""0"",""4085""
","
",null,"<div style=""font-size:60px;"">+</div>",NA,null,fixation,2020-06-11T18:51:34Z,NA,NA,NA,NA,NA,sub58
NA,mars-trial,62,169623,0.0-10.0-1.24,"""event"",""trial"",""time""
""fullscreenenter"",""0"",""4085""
","
","
","""event"",""trial"",""time""
""fullscreenenter"",""0"",""4085""
","
",4126,<img style='border: 4px solid darkgrey;' src='img/tf1_25_M_ss3.jpeg'></img>,3,NA,exp,NA,2,<img src='img/tf1_25_T1_ss3_md.jpeg'></img>,0,FALSE,NA,sub58
NA,html-keyboard-response,63,170125,0.0-10.0-0.25,"""event"",""trial"",""time""
""fullscreenenter"",""0"",""4085""
","
","
","""event"",""trial"",""time""
""fullscreenenter"",""0"",""4085""
","
",null,"<div style=""font-size:60px;"">+</div>",NA,null,fixation,2020-06-11T18:51:39Z,NA,NA,NA,NA,NA,sub58
NA,mars-trial,64,176932,0.0-10.0-1.25,"""event"",""trial"",""time""
""fullscreenenter"",""0"",""4085""
","
","
","""event"",""trial"",""time""
""fullscreenenter"",""0"",""4085""
","
",6200,<img style='border: 4px solid darkgrey;' src='img/tf1_26_M_ss1.jpeg'></img>,2,NA,exp,NA,2,<img src='img/tf1_26_T1_ss1_md.jpeg'></img>,0,FALSE,NA,sub58
NA,html-keyboard-response,65,177434,0.0-10.0-0.26,"""event"",""trial"",""time""
""fullscreenenter"",""0"",""4085""
","
","
","""event"",""trial"",""time""
""fullscreenenter"",""0"",""4085""
","
",null,"<div style=""font-size:60px;"">+</div>",NA,null,fixation,2020-06-11T18:51:47Z,NA,NA,NA,NA,NA,sub58
NA,mars-trial,66,183155,0.0-10.0-1.26,"""event"",""trial"",""time""
""fullscreenenter"",""0"",""4085""
","
","
","""event"",""trial"",""time""
""fullscreenenter"",""0"",""4085""
","
",5114.999999999971,<img style='border: 4px solid darkgrey;' src='img/tf1_27_M_ss2.jpeg'></img>,3,NA,exp,NA,2,<img src='img/tf1_27_T1_ss2_md.jpeg'></img>,0,FALSE,NA,sub58
NA,html-keyboard-response,67,183657,0.0-10.0-0.27,"""event"",""trial"",""time""
""fullscreenenter"",""0"",""4085""
","
","
","""event"",""trial"",""time""
""fullscreenenter"",""0"",""4085""
","
",null,"<div style=""font-size:60px;"">+</div>",NA,null,fixation,2020-06-11T18:51:53Z,NA,NA,NA,NA,NA,sub58
NA,mars-trial,68,193456,0.0-10.0-1.27,"""event"",""trial"",""time""
""fullscreenenter"",""0"",""4085""
","
","
","""event"",""trial"",""time""
""fullscreenenter"",""0"",""4085""
","
",9194.00000000003,<img style='border: 4px solid darkgrey;' src='img/tf1_28_M_ss3.jpeg'></img>,3,NA,exp,NA,2,<img src='img/tf1_28_T1_ss3_md.jpeg'></img>,0,FALSE,NA,sub58
NA,html-keyboard-response,69,193958,0.0-10.0-0.28,"""event"",""trial"",""time""
""fullscreenenter"",""0"",""4085""
","
","
","""event"",""trial"",""time""
""fullscreenenter"",""0"",""4085""
","
",null,"<div style=""font-size:60px;"">+</div>",NA,null,fixation,2020-06-11T18:52:03Z,NA,NA,NA,NA,NA,sub58
NA,mars-trial,70,204399,0.0-10.0-1.28,"""event"",""trial"",""time""
""fullscreenenter"",""0"",""4085""
","
","
","""event"",""trial"",""time""
""fullscreenenter"",""0"",""4085""
","
",9835.99999999997,<img style='border: 4px solid darkgrey;' src='img/tf1_29_M_ss1.jpeg'></img>,3,NA,exp,NA,1,<img src='img/tf1_29_T1_ss1_md.jpeg'></img>,0,FALSE,NA,sub58
NA,html-keyboard-response,71,204901,0.0-10.0-0.29,"""event"",""trial"",""time""
""fullscreenenter"",""0"",""4085""
","
","
","""event"",""trial"",""time""
""fullscreenenter"",""0"",""4085""
","
",null,"<div style=""font-size:60px;"">+</div>",NA,null,fixation,2020-06-11T18:52:14Z,NA,NA,NA,NA,NA,sub58
NA,mars-trial,72,209115,0.0-10.0-1.29,"""event"",""trial"",""time""
""fullscreenenter"",""0"",""4085""
","
","
","""event"",""trial"",""time""
""fullscreenenter"",""0"",""4085""
","
",3610,<img style='border: 4px solid darkgrey;' src='img/tf1_30_M_ss2.jpeg'></img>,2,NA,exp,NA,2,<img src='img/tf1_30_T1_ss2_md.jpeg'></img>,0,FALSE,NA,sub58
NA,html-keyboard-response,73,209617,0.0-10.0-0.30,"""event"",""trial"",""time""
""fullscreenenter"",""0"",""4085""
","
","
","""event"",""trial"",""time""
""fullscreenenter"",""0"",""4085""
","
",null,"<div style=""font-size:60px;"">+</div>",NA,null,fixation,2020-06-11T18:52:19Z,NA,NA,NA,NA,NA,sub58
NA,mars-trial,74,215519,0.0-10.0-1.30,"""event"",""trial"",""time""
""fullscreenenter"",""0"",""4085""
","
","
","""event"",""trial"",""time""
""fullscreenenter"",""0"",""4085""
","
",5296,<img style='border: 4px solid darkgrey;' src='img/tf1_31_M_ss3.jpeg'></img>,3,NA,exp,NA,2,<img src='img/tf1_31_T1_ss3_md.jpeg'></img>,0,FALSE,NA,sub58
NA,html-keyboard-response,75,216020,0.0-10.0-0.31,"""event"",""trial"",""time""
""fullscreenenter"",""0"",""4085""
","
","
","""event"",""trial"",""time""
""fullscreenenter"",""0"",""4085""
","
",null,"<div style=""font-size:60px;"">+</div>",NA,null,fixation,2020-06-11T18:52:25Z,NA,NA,NA,NA,NA,sub58
NA,mars-trial,76,221328,0.0-10.0-1.31,"""event"",""trial"",""time""
""fullscreenenter"",""0"",""4085""
","
","
","""event"",""trial"",""time""
""fullscreenenter"",""0"",""4085""
","
",4702,<img style='border: 4px solid darkgrey;' src='img/tf1_32_M_ss1.jpeg'></img>,1,NA,exp,NA,0,<img src='img/tf1_32_T1_ss1_md.jpeg'></img>,0,TRUE,NA,sub58
NA,html-keyboard-response,77,221830,0.0-10.0-0.32,"""event"",""trial"",""time""
""fullscreenenter"",""0"",""4085""
","
","
","""event"",""trial"",""time""
""fullscreenenter"",""0"",""4085""
","
",null,"<div style=""font-size:60px;"">+</div>",NA,null,fixation,2020-06-11T18:52:31Z,NA,NA,NA,NA,NA,sub58
NA,mars-trial,78,226975,0.0-10.0-1.32,"""event"",""trial"",""time""
""fullscreenenter"",""0"",""4085""
","
","
","""event"",""trial"",""time""
""fullscreenenter"",""0"",""4085""
","
",4539.000000000029,<img style='border: 4px solid darkgrey;' src='img/tf1_33_M_ss2.jpeg'></img>,0,NA,exp,NA,2,<img src='img/tf1_33_T1_ss2_md.jpeg'></img>,0,FALSE,NA,sub58
NA,html-keyboard-response,79,227477,0.0-10.0-0.33,"""event"",""trial"",""time""
""fullscreenenter"",""0"",""4085""
","
","
","""event"",""trial"",""time""
""fullscreenenter"",""0"",""4085""
","
",null,"<div style=""font-size:60px;"">+</div>",NA,null,fixation,2020-06-11T18:52:37Z,NA,NA,NA,NA,NA,sub58
NA,mars-trial,80,235500,0.0-10.0-1.33,"""event"",""trial"",""time""
""fullscreenenter"",""0"",""4085""
","
","
","""event"",""trial"",""time""
""fullscreenenter"",""0"",""4085""
","
",7417.999999999971,<img style='border: 4px solid darkgrey;' src='img/tf1_34_M_ss3.jpeg'></img>,3,NA,exp,NA,2,<img src='img/tf1_34_T1_ss3_md.jpeg'></img>,0,FALSE,NA,sub58
NA,html-keyboard-response,81,236003,0.0-10.0-0.34,"""event"",""trial"",""time""
""fullscreenenter"",""0"",""4085""
","
","
","""event"",""trial"",""time""
""fullscreenenter"",""0"",""4085""
","
",null,"<div style=""font-size:60px;"">+</div>",NA,null,fixation,2020-06-11T18:52:45Z,NA,NA,NA,NA,NA,sub58
NA,mars-trial,82,245694,0.0-10.0-1.34,"""event"",""trial"",""time""
""fullscreenenter"",""0"",""4085""
","
","
","""event"",""trial"",""time""
""fullscreenenter"",""0"",""4085""
","
",9084,<img style='border: 4px solid darkgrey;' src='img/tf1_35_M_ss1.jpeg'></img>,1,NA,exp,NA,0,<img src='img/tf1_35_T1_ss1_md.jpeg'></img>,0,TRUE,NA,sub58
NA,html-keyboard-response,83,246196,0.0-10.0-0.35,"""event"",""trial"",""time""
""fullscreenenter"",""0"",""4085""
","
","
","""event"",""trial"",""time""
""fullscreenenter"",""0"",""4085""
","
",null,"<div style=""font-size:60px;"">+</div>",NA,null,fixation,2020-06-11T18:52:56Z,NA,NA,NA,NA,NA,sub58
NA,mars-trial,84,253125,0.0-10.0-1.35,"""event"",""trial"",""time""
""fullscreenenter"",""0"",""4085""
","
","
","""event"",""trial"",""time""
""fullscreenenter"",""0"",""4085""
","
",6325,<img style='border: 4px solid darkgrey;' src='img/tf1_36_M_ss2.jpeg'></img>,2,NA,exp,NA,0,<img src='img/tf1_36_T1_ss2_md.jpeg'></img>,0,TRUE,NA,sub58
NA,html-keyboard-response,85,253629,0.0-10.0-0.36,"""event"",""trial"",""time""
""fullscreenenter"",""0"",""4085""
","
","
","""event"",""trial"",""time""
""fullscreenenter"",""0"",""4085""
","
",null,"<div style=""font-size:60px;"">+</div>",NA,null,fixation,2020-06-11T18:53:03Z,NA,NA,NA,NA,NA,sub58
NA,mars-trial,86,262960,0.0-10.0-1.36,"""event"",""trial"",""time""
""fullscreenenter"",""0"",""4085""
","
","
","""event"",""trial"",""time""
""fullscreenenter"",""0"",""4085""
","
",8723.99999999997,<img style='border: 4px solid darkgrey;' src='img/tf1_37_M_ss3.jpeg'></img>,1,NA,exp,NA,3,<img src='img/tf1_37_T1_ss3_md.jpeg'></img>,0,FALSE,NA,sub58
NA,html-keyboard-response,87,263463,0.0-10.0-0.37,"""event"",""trial"",""time""
""fullscreenenter"",""0"",""4085""
","
","
","""event"",""trial"",""time""
""fullscreenenter"",""0"",""4085""
","
",null,"<div style=""font-size:60px;"">+</div>",NA,null,fixation,2020-06-11T18:53:13Z,NA,NA,NA,NA,NA,sub58
NA,mars-trial,88,267156,0.0-10.0-1.37,"""event"",""trial"",""time""
""fullscreenenter"",""0"",""4085""
","
","
","""event"",""trial"",""time""
""fullscreenenter"",""0"",""4085""
","
",3088,<img style='border: 4px solid darkgrey;' src='img/tf1_38_M_ss1.jpeg'></img>,3,NA,exp,NA,3,<img src='img/tf1_38_T1_ss1_md.jpeg'></img>,0,FALSE,NA,sub58
NA,html-keyboard-response,89,267660,0.0-10.0-0.38,"""event"",""trial"",""time""
""fullscreenenter"",""0"",""4085""
","
","
","""event"",""trial"",""time""
""fullscreenenter"",""0"",""4085""
","
",null,"<div style=""font-size:60px;"">+</div>",NA,null,fixation,2020-06-11T18:53:17Z,NA,NA,NA,NA,NA,sub58
NA,mars-trial,90,274021,0.0-10.0-1.38,"""event"",""trial"",""time""
""fullscreenenter"",""0"",""4085""
","
","
","""event"",""trial"",""time""
""fullscreenenter"",""0"",""4085""
","
",5756.000000000058,<img style='border: 4px solid darkgrey;' src='img/tf1_39_M_ss2.jpeg'></img>,3,NA,exp,NA,0,<img src='img/tf1_39_T1_ss2_md.jpeg'></img>,0,TRUE,NA,sub58
NA,html-keyboard-response,91,274524,0.0-10.0-0.39,"""event"",""trial"",""time""
""fullscreenenter"",""0"",""4085""
","
","
","""event"",""trial"",""time""
""fullscreenenter"",""0"",""4085""
","
",null,"<div style=""font-size:60px;"">+</div>",NA,null,fixation,2020-06-11T18:53:24Z,NA,NA,NA,NA,NA,sub58
NA,mars-trial,92,280359,0.0-10.0-1.39,"""event"",""trial"",""time""
""fullscreenenter"",""0"",""4085""
","
","
","""event"",""trial"",""time""
""fullscreenenter"",""0"",""4085""
","
",5230,<img style='border: 4px solid darkgrey;' src='img/tf1_40_M_ss3.jpeg'></img>,3,NA,exp,NA,3,<img src='img/tf1_40_T1_ss3_md.jpeg'></img>,0,FALSE,NA,sub58
NA,html-keyboard-response,93,280861,0.0-10.0-0.40,"""event"",""trial"",""time""
""fullscreenenter"",""0"",""4085""
","
","
","""event"",""trial"",""time""
""fullscreenenter"",""0"",""4085""
","
",null,"<div style=""font-size:60px;"">+</div>",NA,null,fixation,2020-06-11T18:53:30Z,NA,NA,NA,NA,NA,sub58
NA,mars-trial,94,284313,0.0-10.0-1.40,"""event"",""trial"",""time""
""fullscreenenter"",""0"",""4085""
","
","
","""event"",""trial"",""time""
""fullscreenenter"",""0"",""4085""
","
",2848,<img style='border: 4px solid darkgrey;' src='img/tf1_41_M_ss1.jpeg'></img>,3,NA,exp,NA,0,<img src='img/tf1_41_T1_ss1_md.jpeg'></img>,0,TRUE,NA,sub58
NA,html-keyboard-response,95,284814,0.0-10.0-0.41,"""event"",""trial"",""time""
""fullscreenenter"",""0"",""4085""
","
","
","""event"",""trial"",""time""
""fullscreenenter"",""0"",""4085""
","
",null,"<div style=""font-size:60px;"">+</div>",NA,null,fixation,2020-06-11T18:53:34Z,NA,NA,NA,NA,NA,sub58
NA,mars-trial,96,292045,0.0-10.0-1.41,"""event"",""trial"",""time""
""fullscreenenter"",""0"",""4085""
","
","
","""event"",""trial"",""time""
""fullscreenenter"",""0"",""4085""
","
",6626,<img style='border: 4px solid darkgrey;' src='img/tf1_42_M_ss2.jpeg'></img>,2,NA,exp,NA,1,<img src='img/tf1_42_T1_ss2_md.jpeg'></img>,0,FALSE,NA,sub58
NA,html-keyboard-response,97,292547,0.0-10.0-0.42,"""event"",""trial"",""time""
""fullscreenenter"",""0"",""4085""
","
","
","""event"",""trial"",""time""
""fullscreenenter"",""0"",""4085""
","
",null,"<div style=""font-size:60px;"">+</div>",NA,null,fixation,2020-06-11T18:53:42Z,NA,NA,NA,NA,NA,sub58
NA,mars-trial,98,306729,0.0-10.0-1.42,"""event"",""trial"",""time""
""fullscreenenter"",""0"",""4085""
","
","
","""event"",""trial"",""time""
""fullscreenenter"",""0"",""4085""
","
",13577.999999999942,<img style='border: 4px solid darkgrey;' src='img/tf1_43_M_ss3.jpeg'></img>,0,NA,exp,NA,0,<img src='img/tf1_43_T1_ss3_md.jpeg'></img>,0,TRUE,NA,sub58
NA,html-keyboard-response,99,307232,0.0-10.0-0.43,"""event"",""trial"",""time""
""fullscreenenter"",""0"",""4085""
","
","
","""event"",""trial"",""time""
""fullscreenenter"",""0"",""4085""
","
",null,"<div style=""font-size:60px;"">+</div>",NA,null,fixation,2020-06-11T18:53:57Z,NA,NA,NA,NA,NA,sub58
NA,mars-trial,100,318351,0.0-10.0-1.43,"""event"",""trial"",""time""
""fullscreenenter"",""0"",""4085""
","
","
","""event"",""trial"",""time""
""fullscreenenter"",""0"",""4085""
","
",10512,<img style='border: 4px solid darkgrey;' src='img/tf1_44_M_ss1.jpeg'></img>,0,NA,exp,NA,1,<img src='img/tf1_44_T1_ss1_md.jpeg'></img>,0,FALSE,NA,sub58
NA,html-keyboard-response,101,318854,0.0-10.0-0.44,"""event"",""trial"",""time""
""fullscreenenter"",""0"",""4085""
","
","
","""event"",""trial"",""time""
""fullscreenenter"",""0"",""4085""
","
",null,"<div style=""font-size:60px;"">+</div>",NA,null,fixation,2020-06-11T18:54:08Z,NA,NA,NA,NA,NA,sub58
NA,mars-trial,102,323545,0.0-10.0-1.44,"""event"",""trial"",""time""
""fullscreenenter"",""0"",""4085""
","
","
","""event"",""trial"",""time""
""fullscreenenter"",""0"",""4085""
","
",4086,<img style='border: 4px solid darkgrey;' src='img/tf1_45_M_ss2.jpeg'></img>,2,NA,exp,NA,3,<img src='img/tf1_45_T1_ss2_md.jpeg'></img>,0,FALSE,NA,sub58
NA,html-keyboard-response,103,324048,0.0-10.0-0.45,"""event"",""trial"",""time""
""fullscreenenter"",""0"",""4085""
","
","
","""event"",""trial"",""time""
""fullscreenenter"",""0"",""4085""
","
",null,"<div style=""font-size:60px;"">+</div>",NA,null,fixation,2020-06-11T18:54:13Z,NA,NA,NA,NA,NA,sub58
NA,mars-trial,104,331685,0.0-10.0-1.45,"""event"",""trial"",""time""
""fullscreenenter"",""0"",""4085""
","
","
","""event"",""trial"",""time""
""fullscreenenter"",""0"",""4085""
","
",7032.999999999942,<img style='border: 4px solid darkgrey;' src='img/tf1_46_M_ss3.jpeg'></img>,1,NA,exp,NA,3,<img src='img/tf1_46_T1_ss3_md.jpeg'></img>,0,FALSE,NA,sub58
NA,html-keyboard-response,105,332187,0.0-10.0-0.46,"""event"",""trial"",""time""
""fullscreenenter"",""0"",""4085""
","
","
","""event"",""trial"",""time""
""fullscreenenter"",""0"",""4085""
","
",null,"<div style=""font-size:60px;"">+</div>",NA,null,fixation,2020-06-11T18:54:22Z,NA,NA,NA,NA,NA,sub58
NA,mars-trial,106,350785,0.0-10.0-1.46,"""event"",""trial"",""time""
""fullscreenenter"",""0"",""4085""
","
","
","""event"",""trial"",""time""
""fullscreenenter"",""0"",""4085""
","
",17990,<img style='border: 4px solid darkgrey;' src='img/tf1_47_M_ss1.jpeg'></img>,2,NA,exp,NA,1,<img src='img/tf1_47_T1_ss1_md.jpeg'></img>,0,FALSE,NA,sub58
NA,html-keyboard-response,107,351288,0.0-10.0-0.47,"""event"",""trial"",""time""
""fullscreenenter"",""0"",""4085""
","
","
","""event"",""trial"",""time""
""fullscreenenter"",""0"",""4085""
","
",null,"<div style=""font-size:60px;"">+</div>",NA,null,fixation,2020-06-11T18:54:41Z,NA,NA,NA,NA,NA,sub58
NA,mars-trial,108,359563,0.0-10.0-1.47,"""event"",""trial"",""time""
""fullscreenenter"",""0"",""4085""
","
","
","""event"",""trial"",""time""
""fullscreenenter"",""0"",""4085""
","
",7669,<img style='border: 4px solid darkgrey;' src='img/tf1_48_M_ss2.jpeg'></img>,3,NA,exp,NA,1,<img src='img/tf1_48_T1_ss2_md.jpeg'></img>,0,FALSE,NA,sub58
NA,html-keyboard-response,109,360066,0.0-10.0-0.48,"""event"",""trial"",""time""
""fullscreenenter"",""0"",""4085""
","
","
","""event"",""trial"",""time""
""fullscreenenter"",""0"",""4085""
","
",null,"<div style=""font-size:60px;"">+</div>",NA,null,fixation,2020-06-11T18:54:49Z,NA,NA,NA,NA,NA,sub58
NA,mars-trial,110,367076,0.0-10.0-1.48,"""event"",""trial"",""time""
""fullscreenenter"",""0"",""4085""
","
","
","""event"",""trial"",""time""
""fullscreenenter"",""0"",""4085""
","
",6405.000000000058,<img style='border: 4px solid darkgrey;' src='img/tf1_49_M_ss3.jpeg'></img>,2,NA,exp,NA,0,<img src='img/tf1_49_T1_ss3_md.jpeg'></img>,0,TRUE,NA,sub58
NA,html-keyboard-response,111,367578,0.0-10.0-0.49,"""event"",""trial"",""time""
""fullscreenenter"",""0"",""4085""
","
","
","""event"",""trial"",""time""
""fullscreenenter"",""0"",""4085""
","
",null,"<div style=""font-size:60px;"">+</div>",NA,null,fixation,2020-06-11T18:54:57Z,NA,NA,NA,NA,NA,sub58
NA,mars-trial,112,384951,0.0-10.0-1.49,"""event"",""trial"",""time""
""fullscreenenter"",""0"",""4085""
","
","
","""event"",""trial"",""time""
""fullscreenenter"",""0"",""4085""
","
",16768,<img style='border: 4px solid darkgrey;' src='img/tf1_50_M_ss1.jpeg'></img>,3,NA,exp,NA,1,<img src='img/tf1_50_T1_ss1_md.jpeg'></img>,0,FALSE,NA,sub58
NA,html-keyboard-response,113,385453,0.0-10.0-0.50,"""event"",""trial"",""time""
""fullscreenenter"",""0"",""4085""
","
","
","""event"",""trial"",""time""
""fullscreenenter"",""0"",""4085""
","
",null,"<div style=""font-size:60px;"">+</div>",NA,null,fixation,2020-06-11T18:55:15Z,NA,NA,NA,NA,NA,sub58
NA,mars-trial,114,395318,0.0-10.0-1.50,"""event"",""trial"",""time""
""fullscreenenter"",""0"",""4085""
","
","
","""event"",""trial"",""time""
""fullscreenenter"",""0"",""4085""
","
",9261,<img style='border: 4px solid darkgrey;' src='img/tf1_51_M_ss2.jpeg'></img>,2,NA,exp,NA,2,<img src='img/tf1_51_T1_ss2_md.jpeg'></img>,0,FALSE,NA,sub58
NA,html-keyboard-response,115,395820,0.0-10.0-0.51,"""event"",""trial"",""time""
""fullscreenenter"",""0"",""4085""
","
","
","""event"",""trial"",""time""
""fullscreenenter"",""0"",""4085""
","
",null,"<div style=""font-size:60px;"">+</div>",NA,null,fixation,2020-06-11T18:55:25Z,NA,NA,NA,NA,NA,sub58
NA,mars-trial,116,422359,0.0-10.0-1.51,"""event"",""trial"",""time""
""fullscreenenter"",""0"",""4085""
","
","
","""event"",""trial"",""time""
""fullscreenenter"",""0"",""4085""
","
",25933.00000000006,<img style='border: 4px solid darkgrey;' src='img/tf1_52_M_ss3.jpeg'></img>,1,NA,exp,NA,2,<img src='img/tf1_52_T1_ss3_md.jpeg'></img>,0,FALSE,NA,sub58
NA,html-keyboard-response,117,422863,0.0-10.0-0.52,"""event"",""trial"",""time""
""fullscreenenter"",""0"",""4085""
","
","
","""event"",""trial"",""time""
""fullscreenenter"",""0"",""4085""
","
",null,"<div style=""font-size:60px;"">+</div>",NA,null,fixation,2020-06-11T18:55:52Z,NA,NA,NA,NA,NA,sub58
NA,mars-trial,118,445501,0.0-10.0-1.52,"""event"",""trial"",""time""
""fullscreenenter"",""0"",""4085""
","
","
","""event"",""trial"",""time""
""fullscreenenter"",""0"",""4085""
","
",22014,<img style='border: 4px solid darkgrey;' src='img/tf1_53_M_ss1.jpeg'></img>,0,NA,exp,NA,0,<img src='img/tf1_53_T1_ss1_md.jpeg'></img>,0,TRUE,NA,sub58
NA,html-keyboard-response,119,446004,0.0-10.0-0.53,"""event"",""trial"",""time""
""fullscreenenter"",""0"",""4085""
","
","
","""event"",""trial"",""time""
""fullscreenenter"",""0"",""4085""
","
",null,"<div style=""font-size:60px;"">+</div>",NA,null,fixation,2020-06-11T18:56:15Z,NA,NA,NA,NA,NA,sub58
NA,mars-trial,120,455416,0.0-10.0-1.53,"""event"",""trial"",""time""
""fullscreenenter"",""0"",""4085""
","
","
","""event"",""trial"",""time""
""fullscreenenter"",""0"",""4085""
","
",8805,<img style='border: 4px solid darkgrey;' src='img/tf1_54_M_ss2.jpeg'></img>,3,NA,exp,NA,1,<img src='img/tf1_54_T1_ss2_md.jpeg'></img>,0,FALSE,NA,sub58
NA,html-keyboard-response,121,455919,0.0-10.0-0.54,"""event"",""trial"",""time""
""fullscreenenter"",""0"",""4085""
","
","
","""event"",""trial"",""time""
""fullscreenenter"",""0"",""4085""
","
",null,"<div style=""font-size:60px;"">+</div>",NA,null,fixation,2020-06-11T18:56:25Z,NA,NA,NA,NA,NA,sub58
NA,mars-trial,122,480907,0.0-10.0-1.54,"""event"",""trial"",""time""
""fullscreenenter"",""0"",""4085""
","
","
","""event"",""trial"",""time""
""fullscreenenter"",""0"",""4085""
","
",24380.99999999994,<img style='border: 4px solid darkgrey;' src='img/tf1_55_M_ss3.jpeg'></img>,1,NA,exp,NA,0,<img src='img/tf1_55_T1_ss3_md.jpeg'></img>,0,TRUE,NA,sub58
NA,html-keyboard-response,123,481411,0.0-10.0-0.55,"""event"",""trial"",""time""
""fullscreenenter"",""0"",""4085""
","
","
","""event"",""trial"",""time""
""fullscreenenter"",""0"",""4085""
","
",null,"<div style=""font-size:60px;"">+</div>",NA,null,fixation,2020-06-11T18:56:51Z,NA,NA,NA,NA,NA,sub58
NA,mars-trial,124,497545,0.0-10.0-1.55,"""event"",""trial"",""time""
""fullscreenenter"",""0"",""4085""
","
","
","""event"",""trial"",""time""
""fullscreenenter"",""0"",""4085""
","
",15528,<img style='border: 4px solid darkgrey;' src='img/tf1_56_M_ss1.jpeg'></img>,0,NA,exp,NA,1,<img src='img/tf1_56_T1_ss1_md.jpeg'></img>,0,FALSE,NA,sub58
NA,html-keyboard-response,125,498048,0.0-10.0-0.56,"""event"",""trial"",""time""
""fullscreenenter"",""0"",""4085""
","
","
","""event"",""trial"",""time""
""fullscreenenter"",""0"",""4085""
","
",null,"<div style=""font-size:60px;"">+</div>",NA,null,fixation,2020-06-11T18:57:07Z,NA,NA,NA,NA,NA,sub58
NA,mars-trial,126,509117,0.0-10.0-1.56,"""event"",""trial"",""time""
""fullscreenenter"",""0"",""4085""
","
","
","""event"",""trial"",""time""
""fullscreenenter"",""0"",""4085""
","
",10462.000000000058,<img style='border: 4px solid darkgrey;' src='img/tf1_57_M_ss2.jpeg'></img>,3,NA,exp,NA,0,<img src='img/tf1_57_T1_ss2_md.jpeg'></img>,0,TRUE,NA,sub58
NA,html-keyboard-response,127,509619,0.0-10.0-0.57,"""event"",""trial"",""time""
""fullscreenenter"",""0"",""4085""
","
","
","""event"",""trial"",""time""
""fullscreenenter"",""0"",""4085""
","
",null,"<div style=""font-size:60px;"">+</div>",NA,null,fixation,2020-06-11T18:57:19Z,NA,NA,NA,NA,NA,sub58
NA,mars-trial,128,519699,0.0-10.0-1.57,"""event"",""trial"",""time""
""fullscreenenter"",""0"",""4085""
","
","
","""event"",""trial"",""time""
""fullscreenenter"",""0"",""4085""
","
",9474,<img style='border: 4px solid darkgrey;' src='img/tf1_58_M_ss3.jpeg'></img>,1,NA,exp,NA,2,<img src='img/tf1_58_T1_ss3_md.jpeg'></img>,0,FALSE,NA,sub58
NA,html-keyboard-response,129,520202,0.0-10.0-0.58,"""event"",""trial"",""time""
""fullscreenenter"",""0"",""4085""
","
","
","""event"",""trial"",""time""
""fullscreenenter"",""0"",""4085""
","
",null,"<div style=""font-size:60px;"">+</div>",NA,null,fixation,2020-06-11T18:57:30Z,NA,NA,NA,NA,NA,sub58
NA,mars-trial,130,533457,0.0-10.0-1.58,"""event"",""trial"",""time""
""fullscreenenter"",""0"",""4085""
","
","
","""event"",""trial"",""time""
""fullscreenenter"",""0"",""4085""
","
",NA,NA,NA,NA,exp,NA,NA,<img src='img/tf1_59_T1_ss1_md.jpeg'></img>,0,FALSE,NA,sub58
NA,html-keyboard-response,131,533959,0.0-10.0-0.59,"""event"",""trial"",""time""
""fullscreenenter"",""0"",""4085""
","
","
","""event"",""trial"",""time""
""fullscreenenter"",""0"",""4085""
","
",null,"<div style=""font-size:60px;"">+</div>",NA,null,fixation,2020-06-11T18:57:43Z,NA,NA,NA,NA,NA,sub58
NA,audio-button-response,132,537805,0.0-11.0,"""event"",""trial"",""time""
""fullscreenenter"",""0"",""4085""
","
","
","""event"",""trial"",""time""
""fullscreenenter"",""0"",""4085""
","
",3742,audio/mars_instructions_slide5.wav,0,NA,NA,NA,NA,NA,NA,NA,NA,sub58
