success,trial_type,trial_index,time_elapsed,internal_node_id,interactions,blur_events,focus_events,fullscreenenter_events,fullscreenexit_events,rt,stimulus,button_pressed,key_press,part,timestamp,unshuffled_button,correct_response,correct_button,correct,value,subject_id
TRUE,fullscreen,0,7158,0.0-0.0,"""event"",""trial"",""time""
""focus"",""0"",""3453""
""fullscreenenter"",""0"",""6842""
","
","""event"",""trial"",""time""
""focus"",""0"",""3453""
","""event"",""trial"",""time""
""fullscreenenter"",""0"",""6842""
","
",NA,NA,NA,NA,NA,NA,NA,NA,NA,NA,NA,sub19
NA,pavlovia,1,7166,0.0-1.0,"""event"",""trial"",""time""
""focus"",""0"",""3453""
""fullscreenenter"",""0"",""6842""
","
","""event"",""trial"",""time""
""focus"",""0"",""3453""
","""event"",""trial"",""time""
""fullscreenenter"",""0"",""6842""
","
",NA,NA,NA,NA,NA,NA,NA,NA,NA,NA,NA,sub19
NA,html-button-response,2,9051,0.0-2.0,"""event"",""trial"",""time""
""focus"",""0"",""3453""
""fullscreenenter"",""0"",""6842""
","
","""event"",""trial"",""time""
""focus"",""0"",""3453""
","""event"",""trial"",""time""
""fullscreenenter"",""0"",""6842""
","
",1883.269999991171,<p>Welcome! Press START to begin.</p><br>,0,NA,NA,NA,NA,NA,NA,NA,NA,sub19
NA,audio-button-response,3,24947,0.0-3.0,"""event"",""trial"",""time""
""focus"",""0"",""3453""
""fullscreenenter"",""0"",""6842""
","
","""event"",""trial"",""time""
""focus"",""0"",""3453""
","""event"",""trial"",""time""
""fullscreenenter"",""0"",""6842""
","
",15892.229999997653,audio/mars_instructions_slide2.wav,0,NA,NA,NA,NA,NA,NA,NA,NA,sub19
NA,audio-button-response,4,41299,0.0-4.0,"""event"",""trial"",""time""
""focus"",""0"",""3453""
""fullscreenenter"",""0"",""6842""
","
","""event"",""trial"",""time""
""focus"",""0"",""3453""
","""event"",""trial"",""time""
""fullscreenenter"",""0"",""6842""
","
",16349.685000008321,audio/mars_instructions_slide3.wav,0,NA,NA,NA,NA,NA,NA,NA,NA,sub19
NA,html-keyboard-response,5,41805,0.0-5.0-0.0,"""event"",""trial"",""time""
""focus"",""0"",""3453""
""fullscreenenter"",""0"",""6842""
","
","""event"",""trial"",""time""
""focus"",""0"",""3453""
","""event"",""trial"",""time""
""fullscreenenter"",""0"",""6842""
","
",null,"<div style=""font-size:60px;"">+</div>",NA,null,fixation,2020-06-08T19:34:32Z,NA,NA,NA,NA,NA,sub19
NA,mars-trial,6,47011,0.0-5.0-1.0,"""event"",""trial"",""time""
""focus"",""0"",""3453""
""fullscreenenter"",""0"",""6842""
","
","""event"",""trial"",""time""
""focus"",""0"",""3453""
","""event"",""trial"",""time""
""fullscreenenter"",""0"",""6842""
","
",3088.689999989583,<img style='border: 4px solid darkgrey;' src='practice/pt1_M1.png'></img>,3,NA,practice,NA,2,<img src='practice/pt1_T1.png'></img>,0,FALSE,NA,sub19
NA,html-keyboard-response,7,47516,0.0-5.1-0.1,"""event"",""trial"",""time""
""focus"",""0"",""3453""
""fullscreenenter"",""0"",""6842""
","
","""event"",""trial"",""time""
""focus"",""0"",""3453""
","""event"",""trial"",""time""
""fullscreenenter"",""0"",""6842""
","
",null,"<div style=""font-size:60px;"">+</div>",NA,null,fixation,2020-06-08T19:34:38Z,NA,NA,NA,NA,NA,sub19
NA,mars-trial,8,53710,0.0-5.1-1.1,"""event"",""trial"",""time""
""focus"",""0"",""3453""
""fullscreenenter"",""0"",""6842""
","
","""event"",""trial"",""time""
""focus"",""0"",""3453""
","""event"",""trial"",""time""
""fullscreenenter"",""0"",""6842""
","
",4086.620000001858,<img style='border: 4px solid darkgrey;' src='practice/pt1_M1.png'></img>,3,NA,practice,NA,2,<img src='practice/pt1_T1.png'></img>,0,FALSE,NA,sub19
NA,html-keyboard-response,9,54215,0.0-5.2-0.2,"""event"",""trial"",""time""
""focus"",""0"",""3453""
""fullscreenenter"",""0"",""6842""
","
","""event"",""trial"",""time""
""focus"",""0"",""3453""
","""event"",""trial"",""time""
""fullscreenenter"",""0"",""6842""
","
",null,"<div style=""font-size:60px;"">+</div>",NA,null,fixation,2020-06-08T19:34:45Z,NA,NA,NA,NA,NA,sub19
NA,mars-trial,10,62312,0.0-5.2-1.2,"""event"",""trial"",""time""
""focus"",""0"",""3453""
""fullscreenenter"",""0"",""6842""
","
","""event"",""trial"",""time""
""focus"",""0"",""3453""
","""event"",""trial"",""time""
""fullscreenenter"",""0"",""6842""
","
",5988.635000001523,<img style='border: 4px solid darkgrey;' src='practice/pt1_M1.png'></img>,1,NA,practice,NA,2,<img src='practice/pt1_T1.png'></img>,0,FALSE,NA,sub19
NA,html-keyboard-response,11,62815,0.0-5.3-0.3,"""event"",""trial"",""time""
""focus"",""0"",""3453""
""fullscreenenter"",""0"",""6842""
","
","""event"",""trial"",""time""
""focus"",""0"",""3453""
","""event"",""trial"",""time""
""fullscreenenter"",""0"",""6842""
","
",null,"<div style=""font-size:60px;"">+</div>",NA,null,fixation,2020-06-08T19:34:53Z,NA,NA,NA,NA,NA,sub19
NA,mars-trial,12,71764,0.0-5.3-1.3,"""event"",""trial"",""time""
""focus"",""0"",""3453""
""fullscreenenter"",""0"",""6842""
","
","""event"",""trial"",""time""
""focus"",""0"",""3453""
","""event"",""trial"",""time""
""fullscreenenter"",""0"",""6842""
","
",6833.339999997406,<img style='border: 4px solid darkgrey;' src='practice/pt1_M1.png'></img>,3,NA,practice,NA,0,<img src='practice/pt1_T1.png'></img>,0,TRUE,NA,sub19
NA,html-keyboard-response,13,72271,0.0-6.0-0.0,"""event"",""trial"",""time""
""focus"",""0"",""3453""
""fullscreenenter"",""0"",""6842""
","
","""event"",""trial"",""time""
""focus"",""0"",""3453""
","""event"",""trial"",""time""
""fullscreenenter"",""0"",""6842""
","
",null,"<div style=""font-size:60px;"">+</div>",NA,null,fixation,2020-06-08T19:35:03Z,NA,NA,NA,NA,NA,sub19
NA,mars-trial,14,77577,0.0-6.0-1.0,"""event"",""trial"",""time""
""focus"",""0"",""3453""
""fullscreenenter"",""0"",""6842""
","
","""event"",""trial"",""time""
""focus"",""0"",""3453""
","""event"",""trial"",""time""
""fullscreenenter"",""0"",""6842""
","
",3197.265000009793,<img style='border: 4px solid darkgrey;' src='practice/pt2_M1.png'></img>,2,NA,practice,NA,0,<img src='practice/pt2_T1.png'></img>,0,TRUE,NA,sub19
NA,html-keyboard-response,15,78084,0.0-7.0-0.0,"""event"",""trial"",""time""
""focus"",""0"",""3453""
""fullscreenenter"",""0"",""6842""
","
","""event"",""trial"",""time""
""focus"",""0"",""3453""
","""event"",""trial"",""time""
""fullscreenenter"",""0"",""6842""
","
",null,"<div style=""font-size:60px;"">+</div>",NA,null,fixation,2020-06-08T19:35:08Z,NA,NA,NA,NA,NA,sub19
NA,mars-trial,16,81449,0.0-7.0-1.0,"""event"",""trial"",""time""
""focus"",""0"",""3453""
""fullscreenenter"",""0"",""6842""
","
","""event"",""trial"",""time""
""focus"",""0"",""3453""
","""event"",""trial"",""time""
""fullscreenenter"",""0"",""6842""
","
",1251.0000000038417,<img style='border: 4px solid darkgrey;' src='practice/pt3_M1.png'></img>,2,NA,practice,NA,0,<img src='practice/pt3_T1.png'></img>,0,TRUE,NA,sub19
NA,audio-button-response,17,85781,0.0-8.0,"""event"",""trial"",""time""
""focus"",""0"",""3453""
""fullscreenenter"",""0"",""6842""
","
","""event"",""trial"",""time""
""focus"",""0"",""3453""
","""event"",""trial"",""time""
""fullscreenenter"",""0"",""6842""
","
",4328.559999994468,audio/mars_instructions_slide4.wav,0,NA,NA,NA,NA,NA,NA,NA,NA,sub19
NA,call-function,18,85782,0.0-9.0,"""event"",""trial"",""time""
""focus"",""0"",""3453""
""fullscreenenter"",""0"",""6842""
","
","""event"",""trial"",""time""
""focus"",""0"",""3453""
","""event"",""trial"",""time""
""fullscreenenter"",""0"",""6842""
","
",NA,NA,NA,NA,NA,NA,NA,NA,NA,NA,NA,sub19
NA,html-keyboard-response,19,86288,0.0-10.0-0.0,"""event"",""trial"",""time""
""focus"",""0"",""3453""
""fullscreenenter"",""0"",""6842""
","
","""event"",""trial"",""time""
""focus"",""0"",""3453""
","""event"",""trial"",""time""
""fullscreenenter"",""0"",""6842""
","
",null,"<div style=""font-size:60px;"">+</div>",NA,null,fixation,2020-06-08T19:35:17Z,NA,NA,NA,NA,NA,sub19
NA,mars-trial,20,88430,0.0-10.0-1.0,"""event"",""trial"",""time""
""focus"",""0"",""3453""
""fullscreenenter"",""0"",""6842""
","
","""event"",""trial"",""time""
""focus"",""0"",""3453""
","""event"",""trial"",""time""
""fullscreenenter"",""0"",""6842""
","
",1532.1700000058627,<img style='border: 4px solid darkgrey;' src='img/tf1_1_M_ss3.jpeg'></img>,2,NA,exp,NA,0,<img src='img/tf1_1_T1_ss3_md.jpeg'></img>,0,TRUE,NA,sub19
NA,html-keyboard-response,21,88933,0.0-10.0-0.1,"""event"",""trial"",""time""
""focus"",""0"",""3453""
""fullscreenenter"",""0"",""6842""
","
","""event"",""trial"",""time""
""focus"",""0"",""3453""
","""event"",""trial"",""time""
""fullscreenenter"",""0"",""6842""
","
",null,"<div style=""font-size:60px;"">+</div>",NA,null,fixation,2020-06-08T19:35:19Z,NA,NA,NA,NA,NA,sub19
NA,mars-trial,22,92779,0.0-10.0-1.1,"""event"",""trial"",""time""
""focus"",""0"",""3453""
""fullscreenenter"",""0"",""6842""
","
","""event"",""trial"",""time""
""focus"",""0"",""3453""
","""event"",""trial"",""time""
""fullscreenenter"",""0"",""6842""
","
",3239.0400000003865,<img style='border: 4px solid darkgrey;' src='img/tf1_2_M_ss1.jpeg'></img>,2,NA,exp,NA,0,<img src='img/tf1_2_T1_ss1_md.jpeg'></img>,0,TRUE,NA,sub19
NA,html-keyboard-response,23,93286,0.0-10.0-0.2,"""event"",""trial"",""time""
""focus"",""0"",""3453""
""fullscreenenter"",""0"",""6842""
","
","""event"",""trial"",""time""
""focus"",""0"",""3453""
","""event"",""trial"",""time""
""fullscreenenter"",""0"",""6842""
","
",null,"<div style=""font-size:60px;"">+</div>",NA,null,fixation,2020-06-08T19:35:24Z,NA,NA,NA,NA,NA,sub19
NA,mars-trial,24,96822,0.0-10.0-1.2,"""event"",""trial"",""time""
""focus"",""0"",""3453""
""fullscreenenter"",""0"",""6842""
","
","""event"",""trial"",""time""
""focus"",""0"",""3453""
","""event"",""trial"",""time""
""fullscreenenter"",""0"",""6842""
","
",2924.5450000016717,<img style='border: 4px solid darkgrey;' src='img/tf1_3_M_ss2.jpeg'></img>,0,NA,exp,NA,0,<img src='img/tf1_3_T1_ss2_md.jpeg'></img>,0,TRUE,NA,sub19
NA,html-keyboard-response,25,97328,0.0-10.0-0.3,"""event"",""trial"",""time""
""focus"",""0"",""3453""
""fullscreenenter"",""0"",""6842""
","
","""event"",""trial"",""time""
""focus"",""0"",""3453""
","""event"",""trial"",""time""
""fullscreenenter"",""0"",""6842""
","
",null,"<div style=""font-size:60px;"">+</div>",NA,null,fixation,2020-06-08T19:35:28Z,NA,NA,NA,NA,NA,sub19
NA,mars-trial,26,100390,0.0-10.0-1.3,"""event"",""trial"",""time""
""focus"",""0"",""3453""
""fullscreenenter"",""0"",""6842""
","
","""event"",""trial"",""time""
""focus"",""0"",""3453""
","""event"",""trial"",""time""
""fullscreenenter"",""0"",""6842""
","
",2452.0049999991897,<img style='border: 4px solid darkgrey;' src='img/tf1_4_M_ss3.jpeg'></img>,3,NA,exp,NA,2,<img src='img/tf1_4_T1_ss3_md.jpeg'></img>,0,FALSE,NA,sub19
NA,html-keyboard-response,27,100896,0.0-10.0-0.4,"""event"",""trial"",""time""
""focus"",""0"",""3453""
""fullscreenenter"",""0"",""6842""
","
","""event"",""trial"",""time""
""focus"",""0"",""3453""
","""event"",""trial"",""time""
""fullscreenenter"",""0"",""6842""
","
",null,"<div style=""font-size:60px;"">+</div>",NA,null,fixation,2020-06-08T19:35:31Z,NA,NA,NA,NA,NA,sub19
NA,mars-trial,28,104454,0.0-10.0-1.4,"""event"",""trial"",""time""
""focus"",""0"",""3453""
""fullscreenenter"",""0"",""6842""
","
","""event"",""trial"",""time""
""focus"",""0"",""3453""
","""event"",""trial"",""time""
""fullscreenenter"",""0"",""6842""
","
",2948.8000000128523,<img style='border: 4px solid darkgrey;' src='img/tf1_5_M_ss1.jpeg'></img>,1,NA,exp,NA,0,<img src='img/tf1_5_T1_ss1_md.jpeg'></img>,0,TRUE,NA,sub19
NA,html-keyboard-response,29,104961,0.0-10.0-0.5,"""event"",""trial"",""time""
""focus"",""0"",""3453""
""fullscreenenter"",""0"",""6842""
","
","""event"",""trial"",""time""
""focus"",""0"",""3453""
","""event"",""trial"",""time""
""fullscreenenter"",""0"",""6842""
","
",null,"<div style=""font-size:60px;"">+</div>",NA,null,fixation,2020-06-08T19:35:35Z,NA,NA,NA,NA,NA,sub19
NA,mars-trial,30,109868,0.0-10.0-1.5,"""event"",""trial"",""time""
""focus"",""0"",""3453""
""fullscreenenter"",""0"",""6842""
","
","""event"",""trial"",""time""
""focus"",""0"",""3453""
","""event"",""trial"",""time""
""fullscreenenter"",""0"",""6842""
","
",4299.845000001369,<img style='border: 4px solid darkgrey;' src='img/tf1_6_M_ss2.jpeg'></img>,3,NA,exp,NA,3,<img src='img/tf1_6_T1_ss2_md.jpeg'></img>,0,FALSE,NA,sub19
NA,html-keyboard-response,31,110374,0.0-10.0-0.6,"""event"",""trial"",""time""
""focus"",""0"",""3453""
""fullscreenenter"",""0"",""6842""
","
","""event"",""trial"",""time""
""focus"",""0"",""3453""
","""event"",""trial"",""time""
""fullscreenenter"",""0"",""6842""
","
",null,"<div style=""font-size:60px;"">+</div>",NA,null,fixation,2020-06-08T19:35:41Z,NA,NA,NA,NA,NA,sub19
NA,mars-trial,32,115612,0.0-10.0-1.6,"""event"",""trial"",""time""
""focus"",""0"",""3453""
""fullscreenenter"",""0"",""6842""
","
","""event"",""trial"",""time""
""focus"",""0"",""3453""
","""event"",""trial"",""time""
""fullscreenenter"",""0"",""6842""
","
",4630.409999997937,<img style='border: 4px solid darkgrey;' src='img/tf1_7_M_ss3.jpeg'></img>,0,NA,exp,NA,0,<img src='img/tf1_7_T1_ss3_md.jpeg'></img>,0,TRUE,NA,sub19
NA,html-keyboard-response,33,116114,0.0-10.0-0.7,"""event"",""trial"",""time""
""focus"",""0"",""3453""
""fullscreenenter"",""0"",""6842""
","
","""event"",""trial"",""time""
""focus"",""0"",""3453""
","""event"",""trial"",""time""
""fullscreenenter"",""0"",""6842""
","
",null,"<div style=""font-size:60px;"">+</div>",NA,null,fixation,2020-06-08T19:35:46Z,NA,NA,NA,NA,NA,sub19
NA,mars-trial,34,122600,0.0-10.0-1.7,"""event"",""trial"",""time""
""focus"",""0"",""3453""
""fullscreenenter"",""0"",""6842""
","
","""event"",""trial"",""time""
""focus"",""0"",""3453""
","""event"",""trial"",""time""
""fullscreenenter"",""0"",""6842""
","
",5874.079999994137,<img style='border: 4px solid darkgrey;' src='img/tf1_8_M_ss1.jpeg'></img>,3,NA,exp,NA,0,<img src='img/tf1_8_T1_ss1_md.jpeg'></img>,0,TRUE,NA,sub19
NA,html-keyboard-response,35,123106,0.0-10.0-0.8,"""event"",""trial"",""time""
""focus"",""0"",""3453""
""fullscreenenter"",""0"",""6842""
","
","""event"",""trial"",""time""
""focus"",""0"",""3453""
","""event"",""trial"",""time""
""fullscreenenter"",""0"",""6842""
","
",null,"<div style=""font-size:60px;"">+</div>",NA,null,fixation,2020-06-08T19:35:53Z,NA,NA,NA,NA,NA,sub19
NA,mars-trial,36,128848,0.0-10.0-1.8,"""event"",""trial"",""time""
""focus"",""0"",""3453""
""fullscreenenter"",""0"",""6842""
","
","""event"",""trial"",""time""
""focus"",""0"",""3453""
","""event"",""trial"",""time""
""fullscreenenter"",""0"",""6842""
","
",5130.960000009509,<img style='border: 4px solid darkgrey;' src='img/tf1_9_M_ss2.jpeg'></img>,3,NA,exp,NA,2,<img src='img/tf1_9_T1_ss2_md.jpeg'></img>,0,FALSE,NA,sub19
NA,html-keyboard-response,37,129352,0.0-10.0-0.9,"""event"",""trial"",""time""
""focus"",""0"",""3453""
""fullscreenenter"",""0"",""6842""
","
","""event"",""trial"",""time""
""focus"",""0"",""3453""
","""event"",""trial"",""time""
""fullscreenenter"",""0"",""6842""
","
",null,"<div style=""font-size:60px;"">+</div>",NA,null,fixation,2020-06-08T19:36:00Z,NA,NA,NA,NA,NA,sub19
NA,mars-trial,38,137369,0.0-10.0-1.9,"""event"",""trial"",""time""
""focus"",""0"",""3453""
""fullscreenenter"",""0"",""6842""
","
","""event"",""trial"",""time""
""focus"",""0"",""3453""
","""event"",""trial"",""time""
""fullscreenenter"",""0"",""6842""
","
",7402.235000001383,<img style='border: 4px solid darkgrey;' src='img/tf1_10_M_ss3.jpeg'></img>,3,NA,exp,NA,2,<img src='img/tf1_10_T1_ss3_md.jpeg'></img>,0,FALSE,NA,sub19
NA,html-keyboard-response,39,137875,0.0-10.0-0.10,"""event"",""trial"",""time""
""focus"",""0"",""3453""
""fullscreenenter"",""0"",""6842""
","
","""event"",""trial"",""time""
""focus"",""0"",""3453""
","""event"",""trial"",""time""
""fullscreenenter"",""0"",""6842""
","
",null,"<div style=""font-size:60px;"">+</div>",NA,null,fixation,2020-06-08T19:36:08Z,NA,NA,NA,NA,NA,sub19
NA,mars-trial,40,141917,0.0-10.0-1.10,"""event"",""trial"",""time""
""focus"",""0"",""3453""
""fullscreenenter"",""0"",""6842""
","
","""event"",""trial"",""time""
""focus"",""0"",""3453""
","""event"",""trial"",""time""
""fullscreenenter"",""0"",""6842""
","
",3431.255000003148,<img style='border: 4px solid darkgrey;' src='img/tf1_11_M_ss1.jpeg'></img>,3,NA,exp,NA,3,<img src='img/tf1_11_T1_ss1_md.jpeg'></img>,0,FALSE,NA,sub19
NA,html-keyboard-response,41,142424,0.0-10.0-0.11,"""event"",""trial"",""time""
""focus"",""0"",""3453""
""fullscreenenter"",""0"",""6842""
","
","""event"",""trial"",""time""
""focus"",""0"",""3453""
","""event"",""trial"",""time""
""fullscreenenter"",""0"",""6842""
","
",null,"<div style=""font-size:60px;"">+</div>",NA,null,fixation,2020-06-08T19:36:13Z,NA,NA,NA,NA,NA,sub19
NA,mars-trial,42,147048,0.0-10.0-1.11,"""event"",""trial"",""time""
""focus"",""0"",""3453""
""fullscreenenter"",""0"",""6842""
","
","""event"",""trial"",""time""
""focus"",""0"",""3453""
","""event"",""trial"",""time""
""fullscreenenter"",""0"",""6842""
","
",4008.059999992838,<img style='border: 4px solid darkgrey;' src='img/tf1_12_M_ss2.jpeg'></img>,0,NA,exp,NA,2,<img src='img/tf1_12_T1_ss2_md.jpeg'></img>,0,FALSE,NA,sub19
NA,html-keyboard-response,43,147550,0.0-10.0-0.12,"""event"",""trial"",""time""
""focus"",""0"",""3453""
""fullscreenenter"",""0"",""6842""
","
","""event"",""trial"",""time""
""focus"",""0"",""3453""
","""event"",""trial"",""time""
""fullscreenenter"",""0"",""6842""
","
",null,"<div style=""font-size:60px;"">+</div>",NA,null,fixation,2020-06-08T19:36:18Z,NA,NA,NA,NA,NA,sub19
NA,mars-trial,44,161327,0.0-10.0-1.12,"""event"",""trial"",""time""
""focus"",""0"",""3453""
""fullscreenenter"",""0"",""6842""
","
","""event"",""trial"",""time""
""focus"",""0"",""3453""
","""event"",""trial"",""time""
""fullscreenenter"",""0"",""6842""
","
",13167.774999994435,<img style='border: 4px solid darkgrey;' src='img/tf1_13_M_ss3.jpeg'></img>,2,NA,exp,NA,3,<img src='img/tf1_13_T1_ss3_md.jpeg'></img>,0,FALSE,NA,sub19
NA,html-keyboard-response,45,161833,0.0-10.0-0.13,"""event"",""trial"",""time""
""focus"",""0"",""3453""
""fullscreenenter"",""0"",""6842""
","
","""event"",""trial"",""time""
""focus"",""0"",""3453""
","""event"",""trial"",""time""
""fullscreenenter"",""0"",""6842""
","
",null,"<div style=""font-size:60px;"">+</div>",NA,null,fixation,2020-06-08T19:36:32Z,NA,NA,NA,NA,NA,sub19
NA,mars-trial,46,166753,0.0-10.0-1.13,"""event"",""trial"",""time""
""focus"",""0"",""3453""
""fullscreenenter"",""0"",""6842""
","
","""event"",""trial"",""time""
""focus"",""0"",""3453""
","""event"",""trial"",""time""
""fullscreenenter"",""0"",""6842""
","
",4309.269999997923,<img style='border: 4px solid darkgrey;' src='img/tf1_14_M_ss1.jpeg'></img>,0,NA,exp,NA,0,<img src='img/tf1_14_T1_ss1_md.jpeg'></img>,0,TRUE,NA,sub19
NA,html-keyboard-response,47,167257,0.0-10.0-0.14,"""event"",""trial"",""time""
""focus"",""0"",""3453""
""fullscreenenter"",""0"",""6842""
","
","""event"",""trial"",""time""
""focus"",""0"",""3453""
","""event"",""trial"",""time""
""fullscreenenter"",""0"",""6842""
","
",null,"<div style=""font-size:60px;"">+</div>",NA,null,fixation,2020-06-08T19:36:38Z,NA,NA,NA,NA,NA,sub19
NA,mars-trial,48,170297,0.0-10.0-1.14,"""event"",""trial"",""time""
""focus"",""0"",""3453""
""fullscreenenter"",""0"",""6842""
","
","""event"",""trial"",""time""
""focus"",""0"",""3453""
","""event"",""trial"",""time""
""fullscreenenter"",""0"",""6842""
","
",2428.969999993569,<img style='border: 4px solid darkgrey;' src='img/tf1_15_M_ss2.jpeg'></img>,1,NA,exp,NA,1,<img src='img/tf1_15_T1_ss2_md.jpeg'></img>,0,FALSE,NA,sub19
NA,html-keyboard-response,49,170804,0.0-10.0-0.15,"""event"",""trial"",""time""
""focus"",""0"",""3453""
""fullscreenenter"",""0"",""6842""
","
","""event"",""trial"",""time""
""focus"",""0"",""3453""
","""event"",""trial"",""time""
""fullscreenenter"",""0"",""6842""
","
",null,"<div style=""font-size:60px;"">+</div>",NA,null,fixation,2020-06-08T19:36:41Z,NA,NA,NA,NA,NA,sub19
NA,mars-trial,50,174777,0.0-10.0-1.15,"""event"",""trial"",""time""
""focus"",""0"",""3453""
""fullscreenenter"",""0"",""6842""
","
","""event"",""trial"",""time""
""focus"",""0"",""3453""
","""event"",""trial"",""time""
""fullscreenenter"",""0"",""6842""
","
",3361.9500000058906,<img style='border: 4px solid darkgrey;' src='img/tf1_16_M_ss3.jpeg'></img>,3,NA,exp,NA,1,<img src='img/tf1_16_T1_ss3_md.jpeg'></img>,0,FALSE,NA,sub19
NA,html-keyboard-response,51,175283,0.0-10.0-0.16,"""event"",""trial"",""time""
""focus"",""0"",""3453""
""fullscreenenter"",""0"",""6842""
","
","""event"",""trial"",""time""
""focus"",""0"",""3453""
","""event"",""trial"",""time""
""fullscreenenter"",""0"",""6842""
","
",null,"<div style=""font-size:60px;"">+</div>",NA,null,fixation,2020-06-08T19:36:46Z,NA,NA,NA,NA,NA,sub19
NA,mars-trial,52,180473,0.0-10.0-1.16,"""event"",""trial"",""time""
""focus"",""0"",""3453""
""fullscreenenter"",""0"",""6842""
","
","""event"",""trial"",""time""
""focus"",""0"",""3453""
","""event"",""trial"",""time""
""fullscreenenter"",""0"",""6842""
","
",4578.039999993052,<img style='border: 4px solid darkgrey;' src='img/tf1_17_M_ss1.jpeg'></img>,2,NA,exp,NA,2,<img src='img/tf1_17_T1_ss1_md.jpeg'></img>,0,FALSE,NA,sub19
NA,html-keyboard-response,53,180980,0.0-10.0-0.17,"""event"",""trial"",""time""
""focus"",""0"",""3453""
""fullscreenenter"",""0"",""6842""
","
","""event"",""trial"",""time""
""focus"",""0"",""3453""
","""event"",""trial"",""time""
""fullscreenenter"",""0"",""6842""
","
",null,"<div style=""font-size:60px;"">+</div>",NA,null,fixation,2020-06-08T19:36:51Z,NA,NA,NA,NA,NA,sub19
NA,mars-trial,54,185385,0.0-10.0-1.17,"""event"",""trial"",""time""
""focus"",""0"",""3453""
""fullscreenenter"",""0"",""6842""
","
","""event"",""trial"",""time""
""focus"",""0"",""3453""
","""event"",""trial"",""time""
""fullscreenenter"",""0"",""6842""
","
",3793.8950000097975,<img style='border: 4px solid darkgrey;' src='img/tf1_18_M_ss2.jpeg'></img>,1,NA,exp,NA,2,<img src='img/tf1_18_T1_ss2_md.jpeg'></img>,0,FALSE,NA,sub19
NA,html-keyboard-response,55,185892,0.0-10.0-0.18,"""event"",""trial"",""time""
""focus"",""0"",""3453""
""fullscreenenter"",""0"",""6842""
","
","""event"",""trial"",""time""
""focus"",""0"",""3453""
","""event"",""trial"",""time""
""fullscreenenter"",""0"",""6842""
","
",null,"<div style=""font-size:60px;"">+</div>",NA,null,fixation,2020-06-08T19:36:56Z,NA,NA,NA,NA,NA,sub19
NA,mars-trial,56,191274,0.0-10.0-1.18,"""event"",""trial"",""time""
""focus"",""0"",""3453""
""fullscreenenter"",""0"",""6842""
","
","""event"",""trial"",""time""
""focus"",""0"",""3453""
","""event"",""trial"",""time""
""fullscreenenter"",""0"",""6842""
","
",4765.704999997979,<img style='border: 4px solid darkgrey;' src='img/tf1_19_M_ss3.jpeg'></img>,1,NA,exp,NA,2,<img src='img/tf1_19_T1_ss3_md.jpeg'></img>,0,FALSE,NA,sub19
NA,html-keyboard-response,57,191781,0.0-10.0-0.19,"""event"",""trial"",""time""
""focus"",""0"",""3453""
""fullscreenenter"",""0"",""6842""
","
","""event"",""trial"",""time""
""focus"",""0"",""3453""
","""event"",""trial"",""time""
""fullscreenenter"",""0"",""6842""
","
",null,"<div style=""font-size:60px;"">+</div>",NA,null,fixation,2020-06-08T19:37:02Z,NA,NA,NA,NA,NA,sub19
NA,mars-trial,58,194671,0.0-10.0-1.19,"""event"",""trial"",""time""
""focus"",""0"",""3453""
""fullscreenenter"",""0"",""6842""
","
","""event"",""trial"",""time""
""focus"",""0"",""3453""
","""event"",""trial"",""time""
""fullscreenenter"",""0"",""6842""
","
",2276.7599999933736,<img style='border: 4px solid darkgrey;' src='img/tf1_20_M_ss1.jpeg'></img>,1,NA,exp,NA,1,<img src='img/tf1_20_T1_ss1_md.jpeg'></img>,0,FALSE,NA,sub19
NA,html-keyboard-response,59,195177,0.0-10.0-0.20,"""event"",""trial"",""time""
""focus"",""0"",""3453""
""fullscreenenter"",""0"",""6842""
","
","""event"",""trial"",""time""
""focus"",""0"",""3453""
","""event"",""trial"",""time""
""fullscreenenter"",""0"",""6842""
","
",null,"<div style=""font-size:60px;"">+</div>",NA,null,fixation,2020-06-08T19:37:06Z,NA,NA,NA,NA,NA,sub19
NA,mars-trial,60,199146,0.0-10.0-1.20,"""event"",""trial"",""time""
""focus"",""0"",""3453""
""fullscreenenter"",""0"",""6842""
","
","""event"",""trial"",""time""
""focus"",""0"",""3453""
","""event"",""trial"",""time""
""fullscreenenter"",""0"",""6842""
","
",3356.8899999954738,<img style='border: 4px solid darkgrey;' src='img/tf1_21_M_ss2.jpeg'></img>,3,NA,exp,NA,0,<img src='img/tf1_21_T1_ss2_md.jpeg'></img>,0,TRUE,NA,sub19
NA,html-keyboard-response,61,199652,0.0-10.0-0.21,"""event"",""trial"",""time""
""focus"",""0"",""3453""
""fullscreenenter"",""0"",""6842""
","
","""event"",""trial"",""time""
""focus"",""0"",""3453""
","""event"",""trial"",""time""
""fullscreenenter"",""0"",""6842""
","
",null,"<div style=""font-size:60px;"">+</div>",NA,null,fixation,2020-06-08T19:37:10Z,NA,NA,NA,NA,NA,sub19
NA,mars-trial,62,203570,0.0-10.0-1.21,"""event"",""trial"",""time""
""focus"",""0"",""3453""
""fullscreenenter"",""0"",""6842""
","
","""event"",""trial"",""time""
""focus"",""0"",""3453""
","""event"",""trial"",""time""
""fullscreenenter"",""0"",""6842""
","
",3306.024999998044,<img style='border: 4px solid darkgrey;' src='img/tf1_22_M_ss3.jpeg'></img>,2,NA,exp,NA,2,<img src='img/tf1_22_T1_ss3_md.jpeg'></img>,0,FALSE,NA,sub19
NA,html-keyboard-response,63,204074,0.0-10.0-0.22,"""event"",""trial"",""time""
""focus"",""0"",""3453""
""fullscreenenter"",""0"",""6842""
","
","""event"",""trial"",""time""
""focus"",""0"",""3453""
","""event"",""trial"",""time""
""fullscreenenter"",""0"",""6842""
","
",null,"<div style=""font-size:60px;"">+</div>",NA,null,fixation,2020-06-08T19:37:14Z,NA,NA,NA,NA,NA,sub19
NA,mars-trial,64,209705,0.0-10.0-1.22,"""event"",""trial"",""time""
""focus"",""0"",""3453""
""fullscreenenter"",""0"",""6842""
","
","""event"",""trial"",""time""
""focus"",""0"",""3453""
","""event"",""trial"",""time""
""fullscreenenter"",""0"",""6842""
","
",5016.889999998966,<img style='border: 4px solid darkgrey;' src='img/tf1_23_M_ss1.jpeg'></img>,1,NA,exp,NA,0,<img src='img/tf1_23_T1_ss1_md.jpeg'></img>,0,TRUE,NA,sub19
NA,html-keyboard-response,65,210210,0.0-10.0-0.23,"""event"",""trial"",""time""
""focus"",""0"",""3453""
""fullscreenenter"",""0"",""6842""
","
","""event"",""trial"",""time""
""focus"",""0"",""3453""
","""event"",""trial"",""time""
""fullscreenenter"",""0"",""6842""
","
",null,"<div style=""font-size:60px;"">+</div>",NA,null,fixation,2020-06-08T19:37:21Z,NA,NA,NA,NA,NA,sub19
NA,mars-trial,66,213866,0.0-10.0-1.23,"""event"",""trial"",""time""
""focus"",""0"",""3453""
""fullscreenenter"",""0"",""6842""
","
","""event"",""trial"",""time""
""focus"",""0"",""3453""
","""event"",""trial"",""time""
""fullscreenenter"",""0"",""6842""
","
",3044.659999999567,<img style='border: 4px solid darkgrey;' src='img/tf1_24_M_ss2.jpeg'></img>,1,NA,exp,NA,0,<img src='img/tf1_24_T1_ss2_md.jpeg'></img>,0,TRUE,NA,sub19
NA,html-keyboard-response,67,214372,0.0-10.0-0.24,"""event"",""trial"",""time""
""focus"",""0"",""3453""
""fullscreenenter"",""0"",""6842""
","
","""event"",""trial"",""time""
""focus"",""0"",""3453""
","""event"",""trial"",""time""
""fullscreenenter"",""0"",""6842""
","
",null,"<div style=""font-size:60px;"">+</div>",NA,null,fixation,2020-06-08T19:37:25Z,NA,NA,NA,NA,NA,sub19
NA,mars-trial,68,216471,0.0-10.0-1.24,"""event"",""trial"",""time""
""focus"",""0"",""3453""
""fullscreenenter"",""0"",""6842""
","
","""event"",""trial"",""time""
""focus"",""0"",""3453""
","""event"",""trial"",""time""
""fullscreenenter"",""0"",""6842""
","
",1490.2949999959674,<img style='border: 4px solid darkgrey;' src='img/tf1_25_M_ss3.jpeg'></img>,1,NA,exp,NA,2,<img src='img/tf1_25_T1_ss3_md.jpeg'></img>,0,FALSE,NA,sub19
NA,html-keyboard-response,69,216975,0.0-10.0-0.25,"""event"",""trial"",""time""
""focus"",""0"",""3453""
""fullscreenenter"",""0"",""6842""
","
","""event"",""trial"",""time""
""focus"",""0"",""3453""
","""event"",""trial"",""time""
""fullscreenenter"",""0"",""6842""
","
",null,"<div style=""font-size:60px;"">+</div>",NA,null,fixation,2020-06-08T19:37:27Z,NA,NA,NA,NA,NA,sub19
NA,mars-trial,70,220512,0.0-10.0-1.25,"""event"",""trial"",""time""
""focus"",""0"",""3453""
""fullscreenenter"",""0"",""6842""
","
","""event"",""trial"",""time""
""focus"",""0"",""3453""
","""event"",""trial"",""time""
""fullscreenenter"",""0"",""6842""
","
",2927.3899999971036,<img style='border: 4px solid darkgrey;' src='img/tf1_26_M_ss1.jpeg'></img>,2,NA,exp,NA,2,<img src='img/tf1_26_T1_ss1_md.jpeg'></img>,0,FALSE,NA,sub19
NA,html-keyboard-response,71,221018,0.0-10.0-0.26,"""event"",""trial"",""time""
""focus"",""0"",""3453""
""fullscreenenter"",""0"",""6842""
","
","""event"",""trial"",""time""
""focus"",""0"",""3453""
","""event"",""trial"",""time""
""fullscreenenter"",""0"",""6842""
","
",null,"<div style=""font-size:60px;"">+</div>",NA,null,fixation,2020-06-08T19:37:31Z,NA,NA,NA,NA,NA,sub19
NA,mars-trial,72,225171,0.0-10.0-1.26,"""event"",""trial"",""time""
""focus"",""0"",""3453""
""fullscreenenter"",""0"",""6842""
","
","""event"",""trial"",""time""
""focus"",""0"",""3453""
","""event"",""trial"",""time""
""fullscreenenter"",""0"",""6842""
","
",3536.354999989271,<img style='border: 4px solid darkgrey;' src='img/tf1_27_M_ss2.jpeg'></img>,2,NA,exp,NA,2,<img src='img/tf1_27_T1_ss2_md.jpeg'></img>,0,FALSE,NA,sub19
NA,html-keyboard-response,73,225675,0.0-10.0-0.27,"""event"",""trial"",""time""
""focus"",""0"",""3453""
""fullscreenenter"",""0"",""6842""
","
","""event"",""trial"",""time""
""focus"",""0"",""3453""
","""event"",""trial"",""time""
""fullscreenenter"",""0"",""6842""
","
",null,"<div style=""font-size:60px;"">+</div>",NA,null,fixation,2020-06-08T19:37:36Z,NA,NA,NA,NA,NA,sub19
NA,mars-trial,74,232523,0.0-10.0-1.27,"""event"",""trial"",""time""
""focus"",""0"",""3453""
""fullscreenenter"",""0"",""6842""
","
","""event"",""trial"",""time""
""focus"",""0"",""3453""
","""event"",""trial"",""time""
""fullscreenenter"",""0"",""6842""
","
",6236.214999997173,<img style='border: 4px solid darkgrey;' src='img/tf1_28_M_ss3.jpeg'></img>,3,NA,exp,NA,1,<img src='img/tf1_28_T1_ss3_md.jpeg'></img>,0,FALSE,NA,sub19
NA,html-keyboard-response,75,233029,0.0-10.0-0.28,"""event"",""trial"",""time""
""focus"",""0"",""3453""
""fullscreenenter"",""0"",""6842""
","
","""event"",""trial"",""time""
""focus"",""0"",""3453""
","""event"",""trial"",""time""
""fullscreenenter"",""0"",""6842""
","
",null,"<div style=""font-size:60px;"">+</div>",NA,null,fixation,2020-06-08T19:37:43Z,NA,NA,NA,NA,NA,sub19
NA,mars-trial,76,237684,0.0-10.0-1.28,"""event"",""trial"",""time""
""focus"",""0"",""3453""
""fullscreenenter"",""0"",""6842""
","
","""event"",""trial"",""time""
""focus"",""0"",""3453""
","""event"",""trial"",""time""
""fullscreenenter"",""0"",""6842""
","
",4042.7550000022165,<img style='border: 4px solid darkgrey;' src='img/tf1_29_M_ss1.jpeg'></img>,2,NA,exp,NA,2,<img src='img/tf1_29_T1_ss1_md.jpeg'></img>,0,FALSE,NA,sub19
NA,html-keyboard-response,77,238190,0.0-10.0-0.29,"""event"",""trial"",""time""
""focus"",""0"",""3453""
""fullscreenenter"",""0"",""6842""
","
","""event"",""trial"",""time""
""focus"",""0"",""3453""
","""event"",""trial"",""time""
""fullscreenenter"",""0"",""6842""
","
",null,"<div style=""font-size:60px;"">+</div>",NA,null,fixation,2020-06-08T19:37:49Z,NA,NA,NA,NA,NA,sub19
NA,mars-trial,78,242139,0.0-10.0-1.29,"""event"",""trial"",""time""
""focus"",""0"",""3453""
""fullscreenenter"",""0"",""6842""
","
","""event"",""trial"",""time""
""focus"",""0"",""3453""
","""event"",""trial"",""time""
""fullscreenenter"",""0"",""6842""
","
",3336.02499999688,<img style='border: 4px solid darkgrey;' src='img/tf1_30_M_ss2.jpeg'></img>,2,NA,exp,NA,0,<img src='img/tf1_30_T1_ss2_md.jpeg'></img>,0,TRUE,NA,sub19
NA,html-keyboard-response,79,242646,0.0-10.0-0.30,"""event"",""trial"",""time""
""focus"",""0"",""3453""
""fullscreenenter"",""0"",""6842""
","
","""event"",""trial"",""time""
""focus"",""0"",""3453""
","""event"",""trial"",""time""
""fullscreenenter"",""0"",""6842""
","
",null,"<div style=""font-size:60px;"">+</div>",NA,null,fixation,2020-06-08T19:37:53Z,NA,NA,NA,NA,NA,sub19
NA,mars-trial,80,247387,0.0-10.0-1.30,"""event"",""trial"",""time""
""focus"",""0"",""3453""
""fullscreenenter"",""0"",""6842""
","
","""event"",""trial"",""time""
""focus"",""0"",""3453""
","""event"",""trial"",""time""
""fullscreenenter"",""0"",""6842""
","
",4129.849999997532,<img style='border: 4px solid darkgrey;' src='img/tf1_31_M_ss3.jpeg'></img>,2,NA,exp,NA,0,<img src='img/tf1_31_T1_ss3_md.jpeg'></img>,0,TRUE,NA,sub19
NA,html-keyboard-response,81,247894,0.0-10.0-0.31,"""event"",""trial"",""time""
""focus"",""0"",""3453""
""fullscreenenter"",""0"",""6842""
","
","""event"",""trial"",""time""
""focus"",""0"",""3453""
","""event"",""trial"",""time""
""fullscreenenter"",""0"",""6842""
","
",null,"<div style=""font-size:60px;"">+</div>",NA,null,fixation,2020-06-08T19:37:58Z,NA,NA,NA,NA,NA,sub19
NA,mars-trial,82,252001,0.0-10.0-1.31,"""event"",""trial"",""time""
""focus"",""0"",""3453""
""fullscreenenter"",""0"",""6842""
","
","""event"",""trial"",""time""
""focus"",""0"",""3453""
","""event"",""trial"",""time""
""fullscreenenter"",""0"",""6842""
","
",3498.984999998356,<img style='border: 4px solid darkgrey;' src='img/tf1_32_M_ss1.jpeg'></img>,2,NA,exp,NA,1,<img src='img/tf1_32_T1_ss1_md.jpeg'></img>,0,FALSE,NA,sub19
NA,html-keyboard-response,83,252507,0.0-10.0-0.32,"""event"",""trial"",""time""
""focus"",""0"",""3453""
""fullscreenenter"",""0"",""6842""
","
","""event"",""trial"",""time""
""focus"",""0"",""3453""
","""event"",""trial"",""time""
""fullscreenenter"",""0"",""6842""
","
",null,"<div style=""font-size:60px;"">+</div>",NA,null,fixation,2020-06-08T19:38:03Z,NA,NA,NA,NA,NA,sub19
NA,mars-trial,84,254848,0.0-10.0-1.32,"""event"",""trial"",""time""
""focus"",""0"",""3453""
""fullscreenenter"",""0"",""6842""
","
","""event"",""trial"",""time""
""focus"",""0"",""3453""
","""event"",""trial"",""time""
""fullscreenenter"",""0"",""6842""
","
",1732.899999988149,<img style='border: 4px solid darkgrey;' src='img/tf1_33_M_ss2.jpeg'></img>,2,NA,exp,NA,3,<img src='img/tf1_33_T1_ss2_md.jpeg'></img>,0,FALSE,NA,sub19
NA,html-keyboard-response,85,255355,0.0-10.0-0.33,"""event"",""trial"",""time""
""focus"",""0"",""3453""
""fullscreenenter"",""0"",""6842""
","
","""event"",""trial"",""time""
""focus"",""0"",""3453""
","""event"",""trial"",""time""
""fullscreenenter"",""0"",""6842""
","
",null,"<div style=""font-size:60px;"">+</div>",NA,null,fixation,2020-06-08T19:38:06Z,NA,NA,NA,NA,NA,sub19
NA,mars-trial,86,258934,0.0-10.0-1.33,"""event"",""trial"",""time""
""focus"",""0"",""3453""
""fullscreenenter"",""0"",""6842""
","
","""event"",""trial"",""time""
""focus"",""0"",""3453""
","""event"",""trial"",""time""
""fullscreenenter"",""0"",""6842""
","
",2972.9499999957625,<img style='border: 4px solid darkgrey;' src='img/tf1_34_M_ss3.jpeg'></img>,0,NA,exp,NA,3,<img src='img/tf1_34_T1_ss3_md.jpeg'></img>,0,FALSE,NA,sub19
NA,html-keyboard-response,87,259437,0.0-10.0-0.34,"""event"",""trial"",""time""
""focus"",""0"",""3453""
""fullscreenenter"",""0"",""6842""
","
","""event"",""trial"",""time""
""focus"",""0"",""3453""
","""event"",""trial"",""time""
""fullscreenenter"",""0"",""6842""
","
",null,"<div style=""font-size:60px;"">+</div>",NA,null,fixation,2020-06-08T19:38:10Z,NA,NA,NA,NA,NA,sub19
NA,mars-trial,88,264551,0.0-10.0-1.34,"""event"",""trial"",""time""
""focus"",""0"",""3453""
""fullscreenenter"",""0"",""6842""
","
","""event"",""trial"",""time""
""focus"",""0"",""3453""
","""event"",""trial"",""time""
""fullscreenenter"",""0"",""6842""
","
",4504.140000004554,<img style='border: 4px solid darkgrey;' src='img/tf1_35_M_ss1.jpeg'></img>,3,NA,exp,NA,0,<img src='img/tf1_35_T1_ss1_md.jpeg'></img>,0,TRUE,NA,sub19
NA,html-keyboard-response,89,265058,0.0-10.0-0.35,"""event"",""trial"",""time""
""focus"",""0"",""3453""
""fullscreenenter"",""0"",""6842""
","
","""event"",""trial"",""time""
""focus"",""0"",""3453""
","""event"",""trial"",""time""
""fullscreenenter"",""0"",""6842""
","
",null,"<div style=""font-size:60px;"">+</div>",NA,null,fixation,2020-06-08T19:38:15Z,NA,NA,NA,NA,NA,sub19
NA,mars-trial,90,268992,0.0-10.0-1.35,"""event"",""trial"",""time""
""focus"",""0"",""3453""
""fullscreenenter"",""0"",""6842""
","
","""event"",""trial"",""time""
""focus"",""0"",""3453""
","""event"",""trial"",""time""
""fullscreenenter"",""0"",""6842""
","
",3322.9800000117393,<img style='border: 4px solid darkgrey;' src='img/tf1_36_M_ss2.jpeg'></img>,1,NA,exp,NA,0,<img src='img/tf1_36_T1_ss2_md.jpeg'></img>,0,TRUE,NA,sub19
NA,html-keyboard-response,91,269499,0.0-10.0-0.36,"""event"",""trial"",""time""
""focus"",""0"",""3453""
""fullscreenenter"",""0"",""6842""
","
","""event"",""trial"",""time""
""focus"",""0"",""3453""
","""event"",""trial"",""time""
""fullscreenenter"",""0"",""6842""
","
",null,"<div style=""font-size:60px;"">+</div>",NA,null,fixation,2020-06-08T19:38:20Z,NA,NA,NA,NA,NA,sub19
NA,mars-trial,92,271564,0.0-10.0-1.36,"""event"",""trial"",""time""
""focus"",""0"",""3453""
""fullscreenenter"",""0"",""6842""
","
","""event"",""trial"",""time""
""focus"",""0"",""3453""
","""event"",""trial"",""time""
""fullscreenenter"",""0"",""6842""
","
",1452.724999995553,<img style='border: 4px solid darkgrey;' src='img/tf1_37_M_ss3.jpeg'></img>,1,NA,exp,NA,2,<img src='img/tf1_37_T1_ss3_md.jpeg'></img>,0,FALSE,NA,sub19
NA,html-keyboard-response,93,272070,0.0-10.0-0.37,"""event"",""trial"",""time""
""focus"",""0"",""3453""
""fullscreenenter"",""0"",""6842""
","
","""event"",""trial"",""time""
""focus"",""0"",""3453""
","""event"",""trial"",""time""
""fullscreenenter"",""0"",""6842""
","
",null,"<div style=""font-size:60px;"">+</div>",NA,null,fixation,2020-06-08T19:38:22Z,NA,NA,NA,NA,NA,sub19
NA,mars-trial,94,276482,0.0-10.0-1.37,"""event"",""trial"",""time""
""focus"",""0"",""3453""
""fullscreenenter"",""0"",""6842""
","
","""event"",""trial"",""time""
""focus"",""0"",""3453""
","""event"",""trial"",""time""
""fullscreenenter"",""0"",""6842""
","
",3799.059999990277,<img style='border: 4px solid darkgrey;' src='img/tf1_38_M_ss1.jpeg'></img>,2,NA,exp,NA,1,<img src='img/tf1_38_T1_ss1_md.jpeg'></img>,0,FALSE,NA,sub19
NA,html-keyboard-response,95,276984,0.0-10.0-0.38,"""event"",""trial"",""time""
""focus"",""0"",""3453""
""fullscreenenter"",""0"",""6842""
","
","""event"",""trial"",""time""
""focus"",""0"",""3453""
","""event"",""trial"",""time""
""fullscreenenter"",""0"",""6842""
","
",null,"<div style=""font-size:60px;"">+</div>",NA,null,fixation,2020-06-08T19:38:27Z,NA,NA,NA,NA,NA,sub19
NA,mars-trial,96,283340,0.0-10.0-1.38,"""event"",""trial"",""time""
""focus"",""0"",""3453""
""fullscreenenter"",""0"",""6842""
","
","""event"",""trial"",""time""
""focus"",""0"",""3453""
","""event"",""trial"",""time""
""fullscreenenter"",""0"",""6842""
","
",5744.65500000224,<img style='border: 4px solid darkgrey;' src='img/tf1_39_M_ss2.jpeg'></img>,1,NA,exp,NA,1,<img src='img/tf1_39_T1_ss2_md.jpeg'></img>,0,FALSE,NA,sub19
NA,html-keyboard-response,97,283841,0.0-10.0-0.39,"""event"",""trial"",""time""
""focus"",""0"",""3453""
""fullscreenenter"",""0"",""6842""
","
","""event"",""trial"",""time""
""focus"",""0"",""3453""
","""event"",""trial"",""time""
""fullscreenenter"",""0"",""6842""
","
",null,"<div style=""font-size:60px;"">+</div>",NA,null,fixation,2020-06-08T19:38:34Z,NA,NA,NA,NA,NA,sub19
NA,mars-trial,98,293356,0.0-10.0-1.39,"""event"",""trial"",""time""
""focus"",""0"",""3453""
""fullscreenenter"",""0"",""6842""
","
","""event"",""trial"",""time""
""focus"",""0"",""3453""
","""event"",""trial"",""time""
""fullscreenenter"",""0"",""6842""
","
",8903.180000008433,<img style='border: 4px solid darkgrey;' src='img/tf1_40_M_ss3.jpeg'></img>,2,NA,exp,NA,3,<img src='img/tf1_40_T1_ss3_md.jpeg'></img>,0,FALSE,NA,sub19
NA,html-keyboard-response,99,293862,0.0-10.0-0.40,"""event"",""trial"",""time""
""focus"",""0"",""3453""
""fullscreenenter"",""0"",""6842""
","
","""event"",""trial"",""time""
""focus"",""0"",""3453""
","""event"",""trial"",""time""
""fullscreenenter"",""0"",""6842""
","
",null,"<div style=""font-size:60px;"">+</div>",NA,null,fixation,2020-06-08T19:38:44Z,NA,NA,NA,NA,NA,sub19
NA,mars-trial,100,301729,0.0-10.0-1.40,"""event"",""trial"",""time""
""focus"",""0"",""3453""
""fullscreenenter"",""0"",""6842""
","
","""event"",""trial"",""time""
""focus"",""0"",""3453""
","""event"",""trial"",""time""
""fullscreenenter"",""0"",""6842""
","
",7257.8450000000885,<img style='border: 4px solid darkgrey;' src='img/tf1_41_M_ss1.jpeg'></img>,2,NA,exp,NA,0,<img src='img/tf1_41_T1_ss1_md.jpeg'></img>,0,TRUE,NA,sub19
NA,html-keyboard-response,101,302236,0.0-10.0-0.41,"""event"",""trial"",""time""
""focus"",""0"",""3453""
""fullscreenenter"",""0"",""6842""
","
","""event"",""trial"",""time""
""focus"",""0"",""3453""
","""event"",""trial"",""time""
""fullscreenenter"",""0"",""6842""
","
",null,"<div style=""font-size:60px;"">+</div>",NA,null,fixation,2020-06-08T19:38:53Z,NA,NA,NA,NA,NA,sub19
NA,mars-trial,102,305596,0.0-10.0-1.41,"""event"",""trial"",""time""
""focus"",""0"",""3453""
""fullscreenenter"",""0"",""6842""
","
","""event"",""trial"",""time""
""focus"",""0"",""3453""
","""event"",""trial"",""time""
""fullscreenenter"",""0"",""6842""
","
",2749.4300000107614,<img style='border: 4px solid darkgrey;' src='img/tf1_42_M_ss2.jpeg'></img>,2,NA,exp,NA,0,<img src='img/tf1_42_T1_ss2_md.jpeg'></img>,0,TRUE,NA,sub19
NA,html-keyboard-response,103,306100,0.0-10.0-0.42,"""event"",""trial"",""time""
""focus"",""0"",""3453""
""fullscreenenter"",""0"",""6842""
","
","""event"",""trial"",""time""
""focus"",""0"",""3453""
","""event"",""trial"",""time""
""fullscreenenter"",""0"",""6842""
","
",null,"<div style=""font-size:60px;"">+</div>",NA,null,fixation,2020-06-08T19:38:56Z,NA,NA,NA,NA,NA,sub19
NA,mars-trial,104,309490,0.0-10.0-1.42,"""event"",""trial"",""time""
""focus"",""0"",""3453""
""fullscreenenter"",""0"",""6842""
","
","""event"",""trial"",""time""
""focus"",""0"",""3453""
","""event"",""trial"",""time""
""fullscreenenter"",""0"",""6842""
","
",2780.8399999921676,<img style='border: 4px solid darkgrey;' src='img/tf1_43_M_ss3.jpeg'></img>,1,NA,exp,NA,2,<img src='img/tf1_43_T1_ss3_md.jpeg'></img>,0,FALSE,NA,sub19
NA,html-keyboard-response,105,309996,0.0-10.0-0.43,"""event"",""trial"",""time""
""focus"",""0"",""3453""
""fullscreenenter"",""0"",""6842""
","
","""event"",""trial"",""time""
""focus"",""0"",""3453""
","""event"",""trial"",""time""
""fullscreenenter"",""0"",""6842""
","
",null,"<div style=""font-size:60px;"">+</div>",NA,null,fixation,2020-06-08T19:39:00Z,NA,NA,NA,NA,NA,sub19
NA,mars-trial,106,317314,0.0-10.0-1.43,"""event"",""trial"",""time""
""focus"",""0"",""3453""
""fullscreenenter"",""0"",""6842""
","
","""event"",""trial"",""time""
""focus"",""0"",""3453""
","""event"",""trial"",""time""
""fullscreenenter"",""0"",""6842""
","
",6708.589999994729,<img style='border: 4px solid darkgrey;' src='img/tf1_44_M_ss1.jpeg'></img>,1,NA,exp,NA,2,<img src='img/tf1_44_T1_ss1_md.jpeg'></img>,0,FALSE,NA,sub19
NA,html-keyboard-response,107,317821,0.0-10.0-0.44,"""event"",""trial"",""time""
""focus"",""0"",""3453""
""fullscreenenter"",""0"",""6842""
","
","""event"",""trial"",""time""
""focus"",""0"",""3453""
","""event"",""trial"",""time""
""fullscreenenter"",""0"",""6842""
","
",null,"<div style=""font-size:60px;"">+</div>",NA,null,fixation,2020-06-08T19:39:08Z,NA,NA,NA,NA,NA,sub19
NA,mars-trial,108,326962,0.0-10.0-1.44,"""event"",""trial"",""time""
""focus"",""0"",""3453""
""fullscreenenter"",""0"",""6842""
","
","""event"",""trial"",""time""
""focus"",""0"",""3453""
","""event"",""trial"",""time""
""fullscreenenter"",""0"",""6842""
","
",8532.85999999207,<img style='border: 4px solid darkgrey;' src='img/tf1_45_M_ss2.jpeg'></img>,1,NA,exp,NA,0,<img src='img/tf1_45_T1_ss2_md.jpeg'></img>,0,TRUE,NA,sub19
NA,html-keyboard-response,109,327470,0.0-10.0-0.45,"""event"",""trial"",""time""
""focus"",""0"",""3453""
""fullscreenenter"",""0"",""6842""
","
","""event"",""trial"",""time""
""focus"",""0"",""3453""
","""event"",""trial"",""time""
""fullscreenenter"",""0"",""6842""
","
",null,"<div style=""font-size:60px;"">+</div>",NA,null,fixation,2020-06-08T19:39:18Z,NA,NA,NA,NA,NA,sub19
NA,mars-trial,110,331150,0.0-10.0-1.45,"""event"",""trial"",""time""
""focus"",""0"",""3453""
""fullscreenenter"",""0"",""6842""
","
","""event"",""trial"",""time""
""focus"",""0"",""3453""
","""event"",""trial"",""time""
""fullscreenenter"",""0"",""6842""
","
",3063.979999991716,<img style='border: 4px solid darkgrey;' src='img/tf1_46_M_ss3.jpeg'></img>,2,NA,exp,NA,2,<img src='img/tf1_46_T1_ss3_md.jpeg'></img>,0,FALSE,NA,sub19
NA,html-keyboard-response,111,331655,0.0-10.0-0.46,"""event"",""trial"",""time""
""focus"",""0"",""3453""
""fullscreenenter"",""0"",""6842""
","
","""event"",""trial"",""time""
""focus"",""0"",""3453""
","""event"",""trial"",""time""
""fullscreenenter"",""0"",""6842""
","
",null,"<div style=""font-size:60px;"">+</div>",NA,null,fixation,2020-06-08T19:39:22Z,NA,NA,NA,NA,NA,sub19
NA,mars-trial,112,337069,0.0-10.0-1.46,"""event"",""trial"",""time""
""focus"",""0"",""3453""
""fullscreenenter"",""0"",""6842""
","
","""event"",""trial"",""time""
""focus"",""0"",""3453""
","""event"",""trial"",""time""
""fullscreenenter"",""0"",""6842""
","
",4799.760000008973,<img style='border: 4px solid darkgrey;' src='img/tf1_47_M_ss1.jpeg'></img>,1,NA,exp,NA,2,<img src='img/tf1_47_T1_ss1_md.jpeg'></img>,0,FALSE,NA,sub19
NA,html-keyboard-response,113,337576,0.0-10.0-0.47,"""event"",""trial"",""time""
""focus"",""0"",""3453""
""fullscreenenter"",""0"",""6842""
","
","""event"",""trial"",""time""
""focus"",""0"",""3453""
","""event"",""trial"",""time""
""fullscreenenter"",""0"",""6842""
","
",null,"<div style=""font-size:60px;"">+</div>",NA,null,fixation,2020-06-08T19:39:28Z,NA,NA,NA,NA,NA,sub19
NA,mars-trial,114,342387,0.0-10.0-1.47,"""event"",""trial"",""time""
""focus"",""0"",""3453""
""fullscreenenter"",""0"",""6842""
","
","""event"",""trial"",""time""
""focus"",""0"",""3453""
","""event"",""trial"",""time""
""fullscreenenter"",""0"",""6842""
","
",4202.6350000087405,<img style='border: 4px solid darkgrey;' src='img/tf1_48_M_ss2.jpeg'></img>,2,NA,exp,NA,2,<img src='img/tf1_48_T1_ss2_md.jpeg'></img>,0,FALSE,NA,sub19
NA,html-keyboard-response,115,342894,0.0-10.0-0.48,"""event"",""trial"",""time""
""focus"",""0"",""3453""
""fullscreenenter"",""0"",""6842""
","
","""event"",""trial"",""time""
""focus"",""0"",""3453""
","""event"",""trial"",""time""
""fullscreenenter"",""0"",""6842""
","
",null,"<div style=""font-size:60px;"">+</div>",NA,null,fixation,2020-06-08T19:39:33Z,NA,NA,NA,NA,NA,sub19
NA,mars-trial,116,347389,0.0-10.0-1.48,"""event"",""trial"",""time""
""focus"",""0"",""3453""
""fullscreenenter"",""0"",""6842""
","
","""event"",""trial"",""time""
""focus"",""0"",""3453""
","""event"",""trial"",""time""
""fullscreenenter"",""0"",""6842""
","
",3880.6099999928847,<img style='border: 4px solid darkgrey;' src='img/tf1_49_M_ss3.jpeg'></img>,2,NA,exp,NA,0,<img src='img/tf1_49_T1_ss3_md.jpeg'></img>,0,TRUE,NA,sub19
NA,html-keyboard-response,117,347893,0.0-10.0-0.49,"""event"",""trial"",""time""
""focus"",""0"",""3453""
""fullscreenenter"",""0"",""6842""
","
","""event"",""trial"",""time""
""focus"",""0"",""3453""
","""event"",""trial"",""time""
""fullscreenenter"",""0"",""6842""
","
",null,"<div style=""font-size:60px;"">+</div>",NA,null,fixation,2020-06-08T19:39:38Z,NA,NA,NA,NA,NA,sub19
NA,mars-trial,118,351245,0.0-10.0-1.49,"""event"",""trial"",""time""
""focus"",""0"",""3453""
""fullscreenenter"",""0"",""6842""
","
","""event"",""trial"",""time""
""focus"",""0"",""3453""
","""event"",""trial"",""time""
""fullscreenenter"",""0"",""6842""
","
",2737.9350000119302,<img style='border: 4px solid darkgrey;' src='img/tf1_50_M_ss1.jpeg'></img>,0,NA,exp,NA,2,<img src='img/tf1_50_T1_ss1_md.jpeg'></img>,0,FALSE,NA,sub19
NA,html-keyboard-response,119,351752,0.0-10.0-0.50,"""event"",""trial"",""time""
""focus"",""0"",""3453""
""fullscreenenter"",""0"",""6842""
","
","""event"",""trial"",""time""
""focus"",""0"",""3453""
","""event"",""trial"",""time""
""fullscreenenter"",""0"",""6842""
","
",null,"<div style=""font-size:60px;"">+</div>",NA,null,fixation,2020-06-08T19:39:42Z,NA,NA,NA,NA,NA,sub19
NA,mars-trial,120,354477,0.0-10.0-1.50,"""event"",""trial"",""time""
""focus"",""0"",""3453""
""fullscreenenter"",""0"",""6842""
","
","""event"",""trial"",""time""
""focus"",""0"",""3453""
","""event"",""trial"",""time""
""fullscreenenter"",""0"",""6842""
","
",2114.385000008042,<img style='border: 4px solid darkgrey;' src='img/tf1_51_M_ss2.jpeg'></img>,2,NA,exp,NA,2,<img src='img/tf1_51_T1_ss2_md.jpeg'></img>,0,FALSE,NA,sub19
NA,html-keyboard-response,121,354984,0.0-10.0-0.51,"""event"",""trial"",""time""
""focus"",""0"",""3453""
""fullscreenenter"",""0"",""6842""
","
","""event"",""trial"",""time""
""focus"",""0"",""3453""
","""event"",""trial"",""time""
""fullscreenenter"",""0"",""6842""
","
",null,"<div style=""font-size:60px;"">+</div>",NA,null,fixation,2020-06-08T19:39:45Z,NA,NA,NA,NA,NA,sub19
NA,mars-trial,122,358414,0.0-10.0-1.51,"""event"",""trial"",""time""
""focus"",""0"",""3453""
""fullscreenenter"",""0"",""6842""
","
","""event"",""trial"",""time""
""focus"",""0"",""3453""
","""event"",""trial"",""time""
""fullscreenenter"",""0"",""6842""
","
",2818.520000000717,<img style='border: 4px solid darkgrey;' src='img/tf1_52_M_ss3.jpeg'></img>,2,NA,exp,NA,0,<img src='img/tf1_52_T1_ss3_md.jpeg'></img>,0,TRUE,NA,sub19
NA,html-keyboard-response,123,358920,0.0-10.0-0.52,"""event"",""trial"",""time""
""focus"",""0"",""3453""
""fullscreenenter"",""0"",""6842""
","
","""event"",""trial"",""time""
""focus"",""0"",""3453""
","""event"",""trial"",""time""
""fullscreenenter"",""0"",""6842""
","
",null,"<div style=""font-size:60px;"">+</div>",NA,null,fixation,2020-06-08T19:39:49Z,NA,NA,NA,NA,NA,sub19
NA,mars-trial,124,362350,0.0-10.0-1.52,"""event"",""trial"",""time""
""focus"",""0"",""3453""
""fullscreenenter"",""0"",""6842""
","
","""event"",""trial"",""time""
""focus"",""0"",""3453""
","""event"",""trial"",""time""
""fullscreenenter"",""0"",""6842""
","
",2817.8550000011455,<img style='border: 4px solid darkgrey;' src='img/tf1_53_M_ss1.jpeg'></img>,1,NA,exp,NA,0,<img src='img/tf1_53_T1_ss1_md.jpeg'></img>,0,TRUE,NA,sub19
NA,html-keyboard-response,125,362857,0.0-10.0-0.53,"""event"",""trial"",""time""
""focus"",""0"",""3453""
""fullscreenenter"",""0"",""6842""
","
","""event"",""trial"",""time""
""focus"",""0"",""3453""
","""event"",""trial"",""time""
""fullscreenenter"",""0"",""6842""
","
",null,"<div style=""font-size:60px;"">+</div>",NA,null,fixation,2020-06-08T19:39:53Z,NA,NA,NA,NA,NA,sub19
NA,mars-trial,126,365843,0.0-10.0-1.53,"""event"",""trial"",""time""
""focus"",""0"",""3453""
""fullscreenenter"",""0"",""6842""
","
","""event"",""trial"",""time""
""focus"",""0"",""3453""
","""event"",""trial"",""time""
""fullscreenenter"",""0"",""6842""
","
",2373.7750000000233,<img style='border: 4px solid darkgrey;' src='img/tf1_54_M_ss2.jpeg'></img>,0,NA,exp,NA,0,<img src='img/tf1_54_T1_ss2_md.jpeg'></img>,0,TRUE,NA,sub19
NA,html-keyboard-response,127,366349,0.0-10.0-0.54,"""event"",""trial"",""time""
""focus"",""0"",""3453""
""fullscreenenter"",""0"",""6842""
","
","""event"",""trial"",""time""
""focus"",""0"",""3453""
","""event"",""trial"",""time""
""fullscreenenter"",""0"",""6842""
","
",null,"<div style=""font-size:60px;"">+</div>",NA,null,fixation,2020-06-08T19:39:57Z,NA,NA,NA,NA,NA,sub19
NA,mars-trial,128,368883,0.0-10.0-1.54,"""event"",""trial"",""time""
""focus"",""0"",""3453""
""fullscreenenter"",""0"",""6842""
","
","""event"",""trial"",""time""
""focus"",""0"",""3453""
","""event"",""trial"",""time""
""fullscreenenter"",""0"",""6842""
","
",1924.940000011702,<img style='border: 4px solid darkgrey;' src='img/tf1_55_M_ss3.jpeg'></img>,0,NA,exp,NA,0,<img src='img/tf1_55_T1_ss3_md.jpeg'></img>,0,TRUE,NA,sub19
NA,html-keyboard-response,129,369389,0.0-10.0-0.55,"""event"",""trial"",""time""
""focus"",""0"",""3453""
""fullscreenenter"",""0"",""6842""
","
","""event"",""trial"",""time""
""focus"",""0"",""3453""
","""event"",""trial"",""time""
""fullscreenenter"",""0"",""6842""
","
",null,"<div style=""font-size:60px;"">+</div>",NA,null,fixation,2020-06-08T19:40:00Z,NA,NA,NA,NA,NA,sub19
NA,mars-trial,130,374628,0.0-10.0-1.55,"""event"",""trial"",""time""
""focus"",""0"",""3453""
""fullscreenenter"",""0"",""6842""
","
","""event"",""trial"",""time""
""focus"",""0"",""3453""
","""event"",""trial"",""time""
""fullscreenenter"",""0"",""6842""
","
",4626.185000000987,<img style='border: 4px solid darkgrey;' src='img/tf1_56_M_ss1.jpeg'></img>,2,NA,exp,NA,1,<img src='img/tf1_56_T1_ss1_md.jpeg'></img>,0,FALSE,NA,sub19
NA,html-keyboard-response,131,375134,0.0-10.0-0.56,"""event"",""trial"",""time""
""focus"",""0"",""3453""
""fullscreenenter"",""0"",""6842""
","
","""event"",""trial"",""time""
""focus"",""0"",""3453""
","""event"",""trial"",""time""
""fullscreenenter"",""0"",""6842""
","
",null,"<div style=""font-size:60px;"">+</div>",NA,null,fixation,2020-06-08T19:40:06Z,NA,NA,NA,NA,NA,sub19
NA,mars-trial,132,377519,0.0-10.0-1.56,"""event"",""trial"",""time""
""focus"",""0"",""3453""
""fullscreenenter"",""0"",""6842""
","
","""event"",""trial"",""time""
""focus"",""0"",""3453""
","""event"",""trial"",""time""
""fullscreenenter"",""0"",""6842""
","
",1773.414999988745,<img style='border: 4px solid darkgrey;' src='img/tf1_57_M_ss2.jpeg'></img>,1,NA,exp,NA,3,<img src='img/tf1_57_T1_ss2_md.jpeg'></img>,0,FALSE,NA,sub19
NA,html-keyboard-response,133,378024,0.0-10.0-0.57,"""event"",""trial"",""time""
""focus"",""0"",""3453""
""fullscreenenter"",""0"",""6842""
","
","""event"",""trial"",""time""
""focus"",""0"",""3453""
","""event"",""trial"",""time""
""fullscreenenter"",""0"",""6842""
","
",null,"<div style=""font-size:60px;"">+</div>",NA,null,fixation,2020-06-08T19:40:08Z,NA,NA,NA,NA,NA,sub19
NA,mars-trial,134,379774,0.0-10.0-1.57,"""event"",""trial"",""time""
""focus"",""0"",""3453""
""fullscreenenter"",""0"",""6842""
","
","""event"",""trial"",""time""
""focus"",""0"",""3453""
","""event"",""trial"",""time""
""fullscreenenter"",""0"",""6842""
","
",1138.0050000007031,<img style='border: 4px solid darkgrey;' src='img/tf1_58_M_ss3.jpeg'></img>,2,NA,exp,NA,0,<img src='img/tf1_58_T1_ss3_md.jpeg'></img>,0,TRUE,NA,sub19
NA,html-keyboard-response,135,380280,0.0-10.0-0.58,"""event"",""trial"",""time""
""focus"",""0"",""3453""
""fullscreenenter"",""0"",""6842""
","
","""event"",""trial"",""time""
""focus"",""0"",""3453""
","""event"",""trial"",""time""
""fullscreenenter"",""0"",""6842""
","
",null,"<div style=""font-size:60px;"">+</div>",NA,null,fixation,2020-06-08T19:40:11Z,NA,NA,NA,NA,NA,sub19
NA,mars-trial,136,381551,0.0-10.0-1.58,"""event"",""trial"",""time""
""focus"",""0"",""3453""
""fullscreenenter"",""0"",""6842""
","
","""event"",""trial"",""time""
""focus"",""0"",""3453""
","""event"",""trial"",""time""
""fullscreenenter"",""0"",""6842""
","
",658.9600000006612,<img style='border: 4px solid darkgrey;' src='img/tf1_59_M_ss1.jpeg'></img>,2,NA,exp,NA,0,<img src='img/tf1_59_T1_ss1_md.jpeg'></img>,0,TRUE,NA,sub19
NA,html-keyboard-response,137,382057,0.0-10.0-0.59,"""event"",""trial"",""time""
""focus"",""0"",""3453""
""fullscreenenter"",""0"",""6842""
","
","""event"",""trial"",""time""
""focus"",""0"",""3453""
","""event"",""trial"",""time""
""fullscreenenter"",""0"",""6842""
","
",null,"<div style=""font-size:60px;"">+</div>",NA,null,fixation,2020-06-08T19:40:12Z,NA,NA,NA,NA,NA,sub19
NA,mars-trial,138,383283,0.0-10.0-1.59,"""event"",""trial"",""time""
""focus"",""0"",""3453""
""fullscreenenter"",""0"",""6842""
","
","""event"",""trial"",""time""
""focus"",""0"",""3453""
","""event"",""trial"",""time""
""fullscreenenter"",""0"",""6842""
","
",618.8149999943562,<img style='border: 4px solid darkgrey;' src='img/tf1_60_M_ss2.jpeg'></img>,2,NA,exp,NA,0,<img src='img/tf1_60_T1_ss2_md.jpeg'></img>,0,TRUE,NA,sub19
NA,html-keyboard-response,139,383785,0.0-10.0-0.60,"""event"",""trial"",""time""
""focus"",""0"",""3453""
""fullscreenenter"",""0"",""6842""
","
","""event"",""trial"",""time""
""focus"",""0"",""3453""
","""event"",""trial"",""time""
""fullscreenenter"",""0"",""6842""
","
",null,"<div style=""font-size:60px;"">+</div>",NA,null,fixation,2020-06-08T19:40:14Z,NA,NA,NA,NA,NA,sub19
NA,mars-trial,140,384868,0.0-10.0-1.60,"""event"",""trial"",""time""
""focus"",""0"",""3453""
""fullscreenenter"",""0"",""6842""
","
","""event"",""trial"",""time""
""focus"",""0"",""3453""
","""event"",""trial"",""time""
""fullscreenenter"",""0"",""6842""
","
",475.09000000718515,<img style='border: 4px solid darkgrey;' src='img/tf1_61_M_ss3.jpeg'></img>,2,NA,exp,NA,1,<img src='img/tf1_61_T1_ss3_md.jpeg'></img>,0,FALSE,NA,sub19
NA,html-keyboard-response,141,385374,0.0-10.0-0.61,"""event"",""trial"",""time""
""focus"",""0"",""3453""
""fullscreenenter"",""0"",""6842""
","
","""event"",""trial"",""time""
""focus"",""0"",""3453""
","""event"",""trial"",""time""
""fullscreenenter"",""0"",""6842""
","
",null,"<div style=""font-size:60px;"">+</div>",NA,null,fixation,2020-06-08T19:40:16Z,NA,NA,NA,NA,NA,sub19
NA,mars-trial,142,388107,0.0-10.0-1.61,"""event"",""trial"",""time""
""focus"",""0"",""3453""
""fullscreenenter"",""0"",""6842""
","
","""event"",""trial"",""time""
""focus"",""0"",""3453""
","""event"",""trial"",""time""
""fullscreenenter"",""0"",""6842""
","
",2126.0000000038417,<img style='border: 4px solid darkgrey;' src='img/tf1_62_M_ss1.jpeg'></img>,1,NA,exp,NA,3,<img src='img/tf1_62_T1_ss1_md.jpeg'></img>,0,FALSE,NA,sub19
NA,html-keyboard-response,143,388612,0.0-10.0-0.62,"""event"",""trial"",""time""
""focus"",""0"",""3453""
""fullscreenenter"",""0"",""6842""
","
","""event"",""trial"",""time""
""focus"",""0"",""3453""
","""event"",""trial"",""time""
""fullscreenenter"",""0"",""6842""
","
",null,"<div style=""font-size:60px;"">+</div>",NA,null,fixation,2020-06-08T19:40:19Z,NA,NA,NA,NA,NA,sub19
NA,mars-trial,144,392164,0.0-10.0-1.62,"""event"",""trial"",""time""
""focus"",""0"",""3453""
""fullscreenenter"",""0"",""6842""
","
","""event"",""trial"",""time""
""focus"",""0"",""3453""
","""event"",""trial"",""time""
""fullscreenenter"",""0"",""6842""
","
",2939.8650000075577,<img style='border: 4px solid darkgrey;' src='img/tf1_63_M_ss2.jpeg'></img>,0,NA,exp,NA,1,<img src='img/tf1_63_T1_ss2_md.jpeg'></img>,0,FALSE,NA,sub19
NA,html-keyboard-response,145,392668,0.0-10.0-0.63,"""event"",""trial"",""time""
""focus"",""0"",""3453""
""fullscreenenter"",""0"",""6842""
","
","""event"",""trial"",""time""
""focus"",""0"",""3453""
","""event"",""trial"",""time""
""fullscreenenter"",""0"",""6842""
","
",null,"<div style=""font-size:60px;"">+</div>",NA,null,fixation,2020-06-08T19:40:23Z,NA,NA,NA,NA,NA,sub19
NA,mars-trial,146,397152,0.0-10.0-1.63,"""event"",""trial"",""time""
""focus"",""0"",""3453""
""fullscreenenter"",""0"",""6842""
","
","""event"",""trial"",""time""
""focus"",""0"",""3453""
","""event"",""trial"",""time""
""fullscreenenter"",""0"",""6842""
","
",3869.3699999857927,<img style='border: 4px solid darkgrey;' src='img/tf1_64_M_ss3.jpeg'></img>,1,NA,exp,NA,0,<img src='img/tf1_64_T1_ss3_md.jpeg'></img>,0,TRUE,NA,sub19
NA,html-keyboard-response,147,397657,0.0-10.0-0.64,"""event"",""trial"",""time""
""focus"",""0"",""3453""
""fullscreenenter"",""0"",""6842""
","
","""event"",""trial"",""time""
""focus"",""0"",""3453""
","""event"",""trial"",""time""
""fullscreenenter"",""0"",""6842""
","
",null,"<div style=""font-size:60px;"">+</div>",NA,null,fixation,2020-06-08T19:40:28Z,NA,NA,NA,NA,NA,sub19
NA,mars-trial,148,404996,0.0-10.0-1.64,"""event"",""trial"",""time""
""focus"",""0"",""3453""
""fullscreenenter"",""0"",""6842""
","
","""event"",""trial"",""time""
""focus"",""0"",""3453""
","""event"",""trial"",""time""
""fullscreenenter"",""0"",""6842""
","
",6725.785000002361,<img style='border: 4px solid darkgrey;' src='img/tf1_65_M_ss1.jpeg'></img>,3,NA,exp,NA,0,<img src='img/tf1_65_T1_ss1_md.jpeg'></img>,0,TRUE,NA,sub19
NA,html-keyboard-response,149,405502,0.0-10.0-0.65,"""event"",""trial"",""time""
""focus"",""0"",""3453""
""fullscreenenter"",""0"",""6842""
","
","""event"",""trial"",""time""
""focus"",""0"",""3453""
","""event"",""trial"",""time""
""fullscreenenter"",""0"",""6842""
","
",null,"<div style=""font-size:60px;"">+</div>",NA,null,fixation,2020-06-08T19:40:36Z,NA,NA,NA,NA,NA,sub19
NA,mars-trial,150,411407,0.0-10.0-1.65,"""event"",""trial"",""time""
""focus"",""0"",""3453""
""fullscreenenter"",""0"",""6842""
","
","""event"",""trial"",""time""
""focus"",""0"",""3453""
","""event"",""trial"",""time""
""fullscreenenter"",""0"",""6842""
","
",5292.644999994081,<img style='border: 4px solid darkgrey;' src='img/tf1_66_M_ss2.jpeg'></img>,0,NA,exp,NA,3,<img src='img/tf1_66_T1_ss2_md.jpeg'></img>,0,FALSE,NA,sub19
NA,html-keyboard-response,151,411909,0.0-10.0-0.66,"""event"",""trial"",""time""
""focus"",""0"",""3453""
""fullscreenenter"",""0"",""6842""
","
","""event"",""trial"",""time""
""focus"",""0"",""3453""
","""event"",""trial"",""time""
""fullscreenenter"",""0"",""6842""
","
",null,"<div style=""font-size:60px;"">+</div>",NA,null,fixation,2020-06-08T19:40:42Z,NA,NA,NA,NA,NA,sub19
NA,mars-trial,152,416724,0.0-10.0-1.66,"""event"",""trial"",""time""
""focus"",""0"",""3453""
""fullscreenenter"",""0"",""6842""
","
","""event"",""trial"",""time""
""focus"",""0"",""3453""
","""event"",""trial"",""time""
""fullscreenenter"",""0"",""6842""
","
",4207.749999986845,<img style='border: 4px solid darkgrey;' src='img/tf1_67_M_ss3.jpeg'></img>,3,NA,exp,NA,0,<img src='img/tf1_67_T1_ss3_md.jpeg'></img>,0,TRUE,NA,sub19
NA,html-keyboard-response,153,417230,0.0-10.0-0.67,"""event"",""trial"",""time""
""focus"",""0"",""3453""
""fullscreenenter"",""0"",""6842""
","
","""event"",""trial"",""time""
""focus"",""0"",""3453""
","""event"",""trial"",""time""
""fullscreenenter"",""0"",""6842""
","
",null,"<div style=""font-size:60px;"">+</div>",NA,null,fixation,2020-06-08T19:40:48Z,NA,NA,NA,NA,NA,sub19
NA,mars-trial,154,419423,0.0-10.0-1.67,"""event"",""trial"",""time""
""focus"",""0"",""3453""
""fullscreenenter"",""0"",""6842""
","
","""event"",""trial"",""time""
""focus"",""0"",""3453""
","""event"",""trial"",""time""
""fullscreenenter"",""0"",""6842""
","
",1581.319999997504,<img style='border: 4px solid darkgrey;' src='img/tf1_68_M_ss1.jpeg'></img>,2,NA,exp,NA,0,<img src='img/tf1_68_T1_ss1_md.jpeg'></img>,0,TRUE,NA,sub19
NA,html-keyboard-response,155,419929,0.0-10.0-0.68,"""event"",""trial"",""time""
""focus"",""0"",""3453""
""fullscreenenter"",""0"",""6842""
","
","""event"",""trial"",""time""
""focus"",""0"",""3453""
","""event"",""trial"",""time""
""fullscreenenter"",""0"",""6842""
","
",null,"<div style=""font-size:60px;"">+</div>",NA,null,fixation,2020-06-08T19:40:50Z,NA,NA,NA,NA,NA,sub19
NA,mars-trial,156,427972,0.0-10.0-1.68,"""event"",""trial"",""time""
""focus"",""0"",""3453""
""fullscreenenter"",""0"",""6842""
","
","""event"",""trial"",""time""
""focus"",""0"",""3453""
","""event"",""trial"",""time""
""fullscreenenter"",""0"",""6842""
","
",7435.079999995651,<img style='border: 4px solid darkgrey;' src='img/tf1_69_M_ss2.jpeg'></img>,2,NA,exp,NA,2,<img src='img/tf1_69_T1_ss2_md.jpeg'></img>,0,FALSE,NA,sub19
NA,html-keyboard-response,157,428474,0.0-10.0-0.69,"""event"",""trial"",""time""
""focus"",""0"",""3453""
""fullscreenenter"",""0"",""6842""
","
","""event"",""trial"",""time""
""focus"",""0"",""3453""
","""event"",""trial"",""time""
""fullscreenenter"",""0"",""6842""
","
",null,"<div style=""font-size:60px;"">+</div>",NA,null,fixation,2020-06-08T19:40:59Z,NA,NA,NA,NA,NA,sub19
NA,mars-trial,158,432816,0.0-10.0-1.69,"""event"",""trial"",""time""
""focus"",""0"",""3453""
""fullscreenenter"",""0"",""6842""
","
","""event"",""trial"",""time""
""focus"",""0"",""3453""
","""event"",""trial"",""time""
""fullscreenenter"",""0"",""6842""
","
",3730.3200000023935,<img style='border: 4px solid darkgrey;' src='img/tf1_70_M_ss3.jpeg'></img>,0,NA,exp,NA,0,<img src='img/tf1_70_T1_ss3_md.jpeg'></img>,0,TRUE,NA,sub19
NA,html-keyboard-response,159,433322,0.0-10.0-0.70,"""event"",""trial"",""time""
""focus"",""0"",""3453""
""fullscreenenter"",""0"",""6842""
","
","""event"",""trial"",""time""
""focus"",""0"",""3453""
","""event"",""trial"",""time""
""fullscreenenter"",""0"",""6842""
","
",null,"<div style=""font-size:60px;"">+</div>",NA,null,fixation,2020-06-08T19:41:04Z,NA,NA,NA,NA,NA,sub19
NA,mars-trial,160,436933,0.0-10.0-1.70,"""event"",""trial"",""time""
""focus"",""0"",""3453""
""fullscreenenter"",""0"",""6842""
","
","""event"",""trial"",""time""
""focus"",""0"",""3453""
","""event"",""trial"",""time""
""fullscreenenter"",""0"",""6842""
","
",3002.634999997099,<img style='border: 4px solid darkgrey;' src='img/tf1_71_M_ss1.jpeg'></img>,0,NA,exp,NA,0,<img src='img/tf1_71_T1_ss1_md.jpeg'></img>,0,TRUE,NA,sub19
NA,html-keyboard-response,161,437437,0.0-10.0-0.71,"""event"",""trial"",""time""
""focus"",""0"",""3453""
""fullscreenenter"",""0"",""6842""
","
","""event"",""trial"",""time""
""focus"",""0"",""3453""
","""event"",""trial"",""time""
""fullscreenenter"",""0"",""6842""
","
",null,"<div style=""font-size:60px;"">+</div>",NA,null,fixation,2020-06-08T19:41:08Z,NA,NA,NA,NA,NA,sub19
NA,mars-trial,162,440117,0.0-10.0-1.71,"""event"",""trial"",""time""
""focus"",""0"",""3453""
""fullscreenenter"",""0"",""6842""
","
","""event"",""trial"",""time""
""focus"",""0"",""3453""
","""event"",""trial"",""time""
""fullscreenenter"",""0"",""6842""
","
",2069.3000000028405,<img style='border: 4px solid darkgrey;' src='img/tf1_72_M_ss2.jpeg'></img>,0,NA,exp,NA,3,<img src='img/tf1_72_T1_ss2_md.jpeg'></img>,0,FALSE,NA,sub19
NA,html-keyboard-response,163,440618,0.0-10.0-0.72,"""event"",""trial"",""time""
""focus"",""0"",""3453""
""fullscreenenter"",""0"",""6842""
","
","""event"",""trial"",""time""
""focus"",""0"",""3453""
","""event"",""trial"",""time""
""fullscreenenter"",""0"",""6842""
","
",null,"<div style=""font-size:60px;"">+</div>",NA,null,fixation,2020-06-08T19:41:11Z,NA,NA,NA,NA,NA,sub19
NA,mars-trial,164,449968,0.0-10.0-1.72,"""event"",""trial"",""time""
""focus"",""0"",""3453""
""fullscreenenter"",""0"",""6842""
","
","""event"",""trial"",""time""
""focus"",""0"",""3453""
","""event"",""trial"",""time""
""fullscreenenter"",""0"",""6842""
","
",8739.235000000917,<img style='border: 4px solid darkgrey;' src='img/tf1_73_M_ss3.jpeg'></img>,1,NA,exp,NA,1,<img src='img/tf1_73_T1_ss3_md.jpeg'></img>,0,FALSE,NA,sub19
NA,html-keyboard-response,165,450473,0.0-10.0-0.73,"""event"",""trial"",""time""
""focus"",""0"",""3453""
""fullscreenenter"",""0"",""6842""
","
","""event"",""trial"",""time""
""focus"",""0"",""3453""
","""event"",""trial"",""time""
""fullscreenenter"",""0"",""6842""
","
",null,"<div style=""font-size:60px;"">+</div>",NA,null,fixation,2020-06-08T19:41:21Z,NA,NA,NA,NA,NA,sub19
NA,mars-trial,166,454560,0.0-10.0-1.73,"""event"",""trial"",""time""
""focus"",""0"",""3453""
""fullscreenenter"",""0"",""6842""
","
","""event"",""trial"",""time""
""focus"",""0"",""3453""
","""event"",""trial"",""time""
""fullscreenenter"",""0"",""6842""
","
",3477.5899999949615,<img style='border: 4px solid darkgrey;' src='img/tf1_74_M_ss1.jpeg'></img>,1,NA,exp,NA,3,<img src='img/tf1_74_T1_ss1_md.jpeg'></img>,0,FALSE,NA,sub19
NA,html-keyboard-response,167,455064,0.0-10.0-0.74,"""event"",""trial"",""time""
""focus"",""0"",""3453""
""fullscreenenter"",""0"",""6842""
","
","""event"",""trial"",""time""
""focus"",""0"",""3453""
","""event"",""trial"",""time""
""fullscreenenter"",""0"",""6842""
","
",null,"<div style=""font-size:60px;"">+</div>",NA,null,fixation,2020-06-08T19:41:25Z,NA,NA,NA,NA,NA,sub19
NA,mars-trial,168,458149,0.0-10.0-1.74,"""event"",""trial"",""time""
""focus"",""0"",""3453""
""fullscreenenter"",""0"",""6842""
","
","""event"",""trial"",""time""
""focus"",""0"",""3453""
","""event"",""trial"",""time""
""fullscreenenter"",""0"",""6842""
","
",2474.3750000052387,<img style='border: 4px solid darkgrey;' src='img/tf1_75_M_ss2.jpeg'></img>,1,NA,exp,NA,2,<img src='img/tf1_75_T1_ss2_md.jpeg'></img>,0,FALSE,NA,sub19
NA,html-keyboard-response,169,458655,0.0-10.0-0.75,"""event"",""trial"",""time""
""focus"",""0"",""3453""
""fullscreenenter"",""0"",""6842""
","
","""event"",""trial"",""time""
""focus"",""0"",""3453""
","""event"",""trial"",""time""
""fullscreenenter"",""0"",""6842""
","
",null,"<div style=""font-size:60px;"">+</div>",NA,null,fixation,2020-06-08T19:41:29Z,NA,NA,NA,NA,NA,sub19
NA,mars-trial,170,461840,0.0-10.0-1.75,"""event"",""trial"",""time""
""focus"",""0"",""3453""
""fullscreenenter"",""0"",""6842""
","
","""event"",""trial"",""time""
""focus"",""0"",""3453""
","""event"",""trial"",""time""
""fullscreenenter"",""0"",""6842""
","
",2572.664999999688,<img style='border: 4px solid darkgrey;' src='img/tf1_76_M_ss3.jpeg'></img>,0,NA,exp,NA,2,<img src='img/tf1_76_T1_ss3_md.jpeg'></img>,0,FALSE,NA,sub19
NA,html-keyboard-response,171,462342,0.0-10.0-0.76,"""event"",""trial"",""time""
""focus"",""0"",""3453""
""fullscreenenter"",""0"",""6842""
","
","""event"",""trial"",""time""
""focus"",""0"",""3453""
","""event"",""trial"",""time""
""fullscreenenter"",""0"",""6842""
","
",null,"<div style=""font-size:60px;"">+</div>",NA,null,fixation,2020-06-08T19:41:33Z,NA,NA,NA,NA,NA,sub19
NA,mars-trial,172,464336,0.0-10.0-1.76,"""event"",""trial"",""time""
""focus"",""0"",""3453""
""fullscreenenter"",""0"",""6842""
","
","""event"",""trial"",""time""
""focus"",""0"",""3453""
","""event"",""trial"",""time""
""fullscreenenter"",""0"",""6842""
","
",1384.2949999962002,<img style='border: 4px solid darkgrey;' src='img/tf1_77_M_ss1.jpeg'></img>,2,NA,exp,NA,1,<img src='img/tf1_77_T1_ss1_md.jpeg'></img>,0,FALSE,NA,sub19
NA,html-keyboard-response,173,464843,0.0-10.0-0.77,"""event"",""trial"",""time""
""focus"",""0"",""3453""
""fullscreenenter"",""0"",""6842""
","
","""event"",""trial"",""time""
""focus"",""0"",""3453""
","""event"",""trial"",""time""
""fullscreenenter"",""0"",""6842""
","
",null,"<div style=""font-size:60px;"">+</div>",NA,null,fixation,2020-06-08T19:41:35Z,NA,NA,NA,NA,NA,sub19
NA,mars-trial,174,467766,0.0-10.0-1.77,"""event"",""trial"",""time""
""focus"",""0"",""3453""
""fullscreenenter"",""0"",""6842""
","
","""event"",""trial"",""time""
""focus"",""0"",""3453""
","""event"",""trial"",""time""
""fullscreenenter"",""0"",""6842""
","
",2314.7049999970477,<img style='border: 4px solid darkgrey;' src='img/tf1_78_M_ss2.jpeg'></img>,1,NA,exp,NA,1,<img src='img/tf1_78_T1_ss2_md.jpeg'></img>,0,FALSE,NA,sub19
NA,html-keyboard-response,175,468272,0.0-10.0-0.78,"""event"",""trial"",""time""
""focus"",""0"",""3453""
""fullscreenenter"",""0"",""6842""
","
","""event"",""trial"",""time""
""focus"",""0"",""3453""
","""event"",""trial"",""time""
""fullscreenenter"",""0"",""6842""
","
",null,"<div style=""font-size:60px;"">+</div>",NA,null,fixation,2020-06-08T19:41:39Z,NA,NA,NA,NA,NA,sub19
NA,mars-trial,176,470288,0.0-10.0-1.78,"""event"",""trial"",""time""
""focus"",""0"",""3453""
""fullscreenenter"",""0"",""6842""
","
","""event"",""trial"",""time""
""focus"",""0"",""3453""
","""event"",""trial"",""time""
""fullscreenenter"",""0"",""6842""
","
",1406.5499999996973,<img style='border: 4px solid darkgrey;' src='img/tf1_79_M_ss3.jpeg'></img>,2,NA,exp,NA,0,<img src='img/tf1_79_T1_ss3_md.jpeg'></img>,0,TRUE,NA,sub19
NA,html-keyboard-response,177,470795,0.0-10.0-0.79,"""event"",""trial"",""time""
""focus"",""0"",""3453""
""fullscreenenter"",""0"",""6842""
","
","""event"",""trial"",""time""
""focus"",""0"",""3453""
","""event"",""trial"",""time""
""fullscreenenter"",""0"",""6842""
","
",null,"<div style=""font-size:60px;"">+</div>",NA,null,fixation,2020-06-08T19:41:41Z,NA,NA,NA,NA,NA,sub19
NA,mars-trial,178,479110,0.0-10.0-1.79,"""event"",""trial"",""time""
""focus"",""0"",""3453""
""fullscreenenter"",""0"",""6842""
","
","""event"",""trial"",""time""
""focus"",""0"",""3453""
","""event"",""trial"",""time""
""fullscreenenter"",""0"",""6842""
","
",7702.17999999295,<img style='border: 4px solid darkgrey;' src='img/tf1_80_M_ss1.jpeg'></img>,3,NA,exp,NA,0,<img src='img/tf1_80_T1_ss1_md.jpeg'></img>,0,TRUE,NA,sub19
NA,audio-button-response,179,483007,0.0-11.0,"""event"",""trial"",""time""
""focus"",""0"",""3453""
""fullscreenenter"",""0"",""6842""
","
","""event"",""trial"",""time""
""focus"",""0"",""3453""
","""event"",""trial"",""time""
""fullscreenenter"",""0"",""6842""
","
",3894.540000008419,audio/mars_instructions_slide5.wav,0,NA,NA,NA,NA,NA,NA,NA,NA,sub19
