success,trial_type,trial_index,time_elapsed,internal_node_id,interactions,blur_events,focus_events,fullscreenenter_events,fullscreenexit_events,rt,stimulus,button_pressed,key_press,part,timestamp,unshuffled_button,correct_response,correct_button,correct,value,subject_id
TRUE,fullscreen,0,10916,0.0-0.0,"""event"",""trial"",""time""
""focus"",""0"",""7291""
""fullscreenenter"",""0"",""9999""
","
","""event"",""trial"",""time""
""focus"",""0"",""7291""
","""event"",""trial"",""time""
""fullscreenenter"",""0"",""9999""
","
",NA,NA,NA,NA,NA,NA,NA,NA,NA,NA,NA,sub129
NA,pavlovia,1,10920,0.0-1.0,"""event"",""trial"",""time""
""focus"",""0"",""7291""
""fullscreenenter"",""0"",""9999""
","
","""event"",""trial"",""time""
""focus"",""0"",""7291""
","""event"",""trial"",""time""
""fullscreenenter"",""0"",""9999""
","
",NA,NA,NA,NA,NA,NA,NA,NA,NA,NA,NA,sub129
NA,html-button-response,2,12464,0.0-2.0,"""event"",""trial"",""time""
""focus"",""0"",""7291""
""fullscreenenter"",""0"",""9999""
","
","""event"",""trial"",""time""
""focus"",""0"",""7291""
","""event"",""trial"",""time""
""fullscreenenter"",""0"",""9999""
","
",1544,<p>Welcome! Press START to begin.</p><br>,0,NA,NA,NA,NA,NA,NA,NA,NA,sub129
NA,audio-button-response,3,21127,0.0-3.0,"""event"",""trial"",""time""
""focus"",""0"",""7291""
""fullscreenenter"",""0"",""9999""
","
","""event"",""trial"",""time""
""focus"",""0"",""7291""
","""event"",""trial"",""time""
""fullscreenenter"",""0"",""9999""
","
",8653.000000000004,audio/mars_instructions_slide2.wav,0,NA,NA,NA,NA,NA,NA,NA,NA,sub129
NA,audio-button-response,4,34972,0.0-4.0,"""event"",""trial"",""time""
""focus"",""0"",""7291""
""fullscreenenter"",""0"",""9999""
","
","""event"",""trial"",""time""
""focus"",""0"",""7291""
","""event"",""trial"",""time""
""fullscreenenter"",""0"",""9999""
","
",13844,audio/mars_instructions_slide3.wav,0,NA,NA,NA,NA,NA,NA,NA,NA,sub129
NA,html-keyboard-response,5,35474,0.0-5.0-0.0,"""event"",""trial"",""time""
""focus"",""0"",""7291""
""fullscreenenter"",""0"",""9999""
","
","""event"",""trial"",""time""
""focus"",""0"",""7291""
","""event"",""trial"",""time""
""fullscreenenter"",""0"",""9999""
","
",null,"<div style=""font-size:60px;"">+</div>",NA,null,fixation,2020-06-22T21:56:00Z,NA,NA,NA,NA,NA,sub129
NA,mars-trial,6,40444,0.0-5.0-1.0,"""event"",""trial"",""time""
""focus"",""0"",""7291""
""fullscreenenter"",""0"",""9999""
","
","""event"",""trial"",""time""
""focus"",""0"",""7291""
","""event"",""trial"",""time""
""fullscreenenter"",""0"",""9999""
","
",2866,<img style='border: 4px solid darkgrey;' src='practice/pt1_M1.png'></img>,3,NA,practice,NA,0,<img src='practice/pt1_T1.png'></img>,0,TRUE,NA,sub129
NA,html-keyboard-response,7,40947,0.0-6.0-0.0,"""event"",""trial"",""time""
""focus"",""0"",""7291""
""fullscreenenter"",""0"",""9999""
","
","""event"",""trial"",""time""
""focus"",""0"",""7291""
","""event"",""trial"",""time""
""fullscreenenter"",""0"",""9999""
","
",null,"<div style=""font-size:60px;"">+</div>",NA,null,fixation,2020-06-22T21:56:05Z,NA,NA,NA,NA,NA,sub129
NA,mars-trial,8,44575,0.0-6.0-1.0,"""event"",""trial"",""time""
""focus"",""0"",""7291""
""fullscreenenter"",""0"",""9999""
","
","""event"",""trial"",""time""
""focus"",""0"",""7291""
","""event"",""trial"",""time""
""fullscreenenter"",""0"",""9999""
","
",1525,<img style='border: 4px solid darkgrey;' src='practice/pt2_M1.png'></img>,2,NA,practice,NA,0,<img src='practice/pt2_T1.png'></img>,0,TRUE,NA,sub129
NA,html-keyboard-response,9,45076,0.0-7.0-0.0,"""event"",""trial"",""time""
""focus"",""0"",""7291""
""fullscreenenter"",""0"",""9999""
","
","""event"",""trial"",""time""
""focus"",""0"",""7291""
","""event"",""trial"",""time""
""fullscreenenter"",""0"",""9999""
","
",null,"<div style=""font-size:60px;"">+</div>",NA,null,fixation,2020-06-22T21:56:10Z,NA,NA,NA,NA,NA,sub129
NA,mars-trial,10,48802,0.0-7.0-1.0,"""event"",""trial"",""time""
""focus"",""0"",""7291""
""fullscreenenter"",""0"",""9999""
","
","""event"",""trial"",""time""
""focus"",""0"",""7291""
","""event"",""trial"",""time""
""fullscreenenter"",""0"",""9999""
","
",1621,<img style='border: 4px solid darkgrey;' src='practice/pt3_M1.png'></img>,3,NA,practice,NA,0,<img src='practice/pt3_T1.png'></img>,0,TRUE,NA,sub129
NA,audio-button-response,11,51432,0.0-8.0,"""event"",""trial"",""time""
""focus"",""0"",""7291""
""fullscreenenter"",""0"",""9999""
","
","""event"",""trial"",""time""
""focus"",""0"",""7291""
","""event"",""trial"",""time""
""fullscreenenter"",""0"",""9999""
","
",2629,audio/mars_instructions_slide4.wav,0,NA,NA,NA,NA,NA,NA,NA,NA,sub129
NA,call-function,12,51432,0.0-9.0,"""event"",""trial"",""time""
""focus"",""0"",""7291""
""fullscreenenter"",""0"",""9999""
","
","""event"",""trial"",""time""
""focus"",""0"",""7291""
","""event"",""trial"",""time""
""fullscreenenter"",""0"",""9999""
","
",NA,NA,NA,NA,NA,NA,NA,NA,NA,NA,NA,sub129
NA,html-keyboard-response,13,51934,0.0-10.0-0.0,"""event"",""trial"",""time""
""focus"",""0"",""7291""
""fullscreenenter"",""0"",""9999""
","
","""event"",""trial"",""time""
""focus"",""0"",""7291""
","""event"",""trial"",""time""
""fullscreenenter"",""0"",""9999""
","
",null,"<div style=""font-size:60px;"">+</div>",NA,null,fixation,2020-06-22T21:56:16Z,NA,NA,NA,NA,NA,sub129
NA,mars-trial,14,54029,0.0-10.0-1.0,"""event"",""trial"",""time""
""focus"",""0"",""7291""
""fullscreenenter"",""0"",""9999""
","
","""event"",""trial"",""time""
""focus"",""0"",""7291""
","""event"",""trial"",""time""
""fullscreenenter"",""0"",""9999""
","
",1493,<img style='border: 4px solid darkgrey;' src='img/tf1_1_M_ss3.jpeg'></img>,2,NA,exp,NA,0,<img src='img/tf1_1_T1_ss3_md.jpeg'></img>,0,TRUE,NA,sub129
NA,html-keyboard-response,15,54532,0.0-10.0-0.1,"""event"",""trial"",""time""
""focus"",""0"",""7291""
""fullscreenenter"",""0"",""9999""
","
","""event"",""trial"",""time""
""focus"",""0"",""7291""
","""event"",""trial"",""time""
""fullscreenenter"",""0"",""9999""
","
",null,"<div style=""font-size:60px;"">+</div>",NA,null,fixation,2020-06-22T21:56:19Z,NA,NA,NA,NA,NA,sub129
NA,mars-trial,16,56937,0.0-10.0-1.1,"""event"",""trial"",""time""
""focus"",""0"",""7291""
""fullscreenenter"",""0"",""9999""
","
","""event"",""trial"",""time""
""focus"",""0"",""7291""
","""event"",""trial"",""time""
""fullscreenenter"",""0"",""9999""
","
",1800,<img style='border: 4px solid darkgrey;' src='img/tf1_2_M_ss1.jpeg'></img>,0,NA,exp,NA,0,<img src='img/tf1_2_T1_ss1_md.jpeg'></img>,0,TRUE,NA,sub129
NA,html-keyboard-response,17,57439,0.0-10.0-0.2,"""event"",""trial"",""time""
""focus"",""0"",""7291""
""fullscreenenter"",""0"",""9999""
","
","""event"",""trial"",""time""
""focus"",""0"",""7291""
","""event"",""trial"",""time""
""fullscreenenter"",""0"",""9999""
","
",null,"<div style=""font-size:60px;"">+</div>",NA,null,fixation,2020-06-22T21:56:22Z,NA,NA,NA,NA,NA,sub129
NA,mars-trial,18,59427,0.0-10.0-1.2,"""event"",""trial"",""time""
""focus"",""0"",""7291""
""fullscreenenter"",""0"",""9999""
","
","""event"",""trial"",""time""
""focus"",""0"",""7291""
","""event"",""trial"",""time""
""fullscreenenter"",""0"",""9999""
","
",1385,<img style='border: 4px solid darkgrey;' src='img/tf1_3_M_ss2.jpeg'></img>,0,NA,exp,NA,0,<img src='img/tf1_3_T1_ss2_md.jpeg'></img>,0,TRUE,NA,sub129
NA,html-keyboard-response,19,59929,0.0-10.0-0.3,"""event"",""trial"",""time""
""focus"",""0"",""7291""
""fullscreenenter"",""0"",""9999""
","
","""event"",""trial"",""time""
""focus"",""0"",""7291""
","""event"",""trial"",""time""
""fullscreenenter"",""0"",""9999""
","
",null,"<div style=""font-size:60px;"">+</div>",NA,null,fixation,2020-06-22T21:56:24Z,NA,NA,NA,NA,NA,sub129
NA,mars-trial,20,62872,0.0-10.0-1.3,"""event"",""trial"",""time""
""focus"",""0"",""7291""
""fullscreenenter"",""0"",""9999""
","
","""event"",""trial"",""time""
""focus"",""0"",""7291""
","""event"",""trial"",""time""
""fullscreenenter"",""0"",""9999""
","
",2338,<img style='border: 4px solid darkgrey;' src='img/tf1_4_M_ss3.jpeg'></img>,1,NA,exp,NA,0,<img src='img/tf1_4_T1_ss3_md.jpeg'></img>,0,TRUE,NA,sub129
NA,html-keyboard-response,21,63374,0.0-10.0-0.4,"""event"",""trial"",""time""
""focus"",""0"",""7291""
""fullscreenenter"",""0"",""9999""
","
","""event"",""trial"",""time""
""focus"",""0"",""7291""
","""event"",""trial"",""time""
""fullscreenenter"",""0"",""9999""
","
",null,"<div style=""font-size:60px;"">+</div>",NA,null,fixation,2020-06-22T21:56:28Z,NA,NA,NA,NA,NA,sub129
NA,mars-trial,22,66062,0.0-10.0-1.4,"""event"",""trial"",""time""
""focus"",""0"",""7291""
""fullscreenenter"",""0"",""9999""
","
","""event"",""trial"",""time""
""focus"",""0"",""7291""
","""event"",""trial"",""time""
""fullscreenenter"",""0"",""9999""
","
",2020,<img style='border: 4px solid darkgrey;' src='img/tf1_5_M_ss1.jpeg'></img>,2,NA,exp,NA,0,<img src='img/tf1_5_T1_ss1_md.jpeg'></img>,0,TRUE,NA,sub129
NA,html-keyboard-response,23,66564,0.0-10.0-0.5,"""event"",""trial"",""time""
""focus"",""0"",""7291""
""fullscreenenter"",""0"",""9999""
","
","""event"",""trial"",""time""
""focus"",""0"",""7291""
","""event"",""trial"",""time""
""fullscreenenter"",""0"",""9999""
","
",null,"<div style=""font-size:60px;"">+</div>",NA,null,fixation,2020-06-22T21:56:31Z,NA,NA,NA,NA,NA,sub129
NA,mars-trial,24,70142,0.0-10.0-1.5,"""event"",""trial"",""time""
""focus"",""0"",""7291""
""fullscreenenter"",""0"",""9999""
","
","""event"",""trial"",""time""
""focus"",""0"",""7291""
","""event"",""trial"",""time""
""fullscreenenter"",""0"",""9999""
","
",2974,<img style='border: 4px solid darkgrey;' src='img/tf1_6_M_ss2.jpeg'></img>,2,NA,exp,NA,0,<img src='img/tf1_6_T1_ss2_md.jpeg'></img>,0,TRUE,NA,sub129
NA,html-keyboard-response,25,70644,0.0-10.0-0.6,"""event"",""trial"",""time""
""focus"",""0"",""7291""
""fullscreenenter"",""0"",""9999""
","
","""event"",""trial"",""time""
""focus"",""0"",""7291""
","""event"",""trial"",""time""
""fullscreenenter"",""0"",""9999""
","
",null,"<div style=""font-size:60px;"">+</div>",NA,null,fixation,2020-06-22T21:56:35Z,NA,NA,NA,NA,NA,sub129
NA,mars-trial,26,74189,0.0-10.0-1.6,"""event"",""trial"",""time""
""focus"",""0"",""7291""
""fullscreenenter"",""0"",""9999""
","
","""event"",""trial"",""time""
""focus"",""0"",""7291""
","""event"",""trial"",""time""
""fullscreenenter"",""0"",""9999""
","
",2942,<img style='border: 4px solid darkgrey;' src='img/tf1_7_M_ss3.jpeg'></img>,3,NA,exp,NA,0,<img src='img/tf1_7_T1_ss3_md.jpeg'></img>,0,TRUE,NA,sub129
NA,html-keyboard-response,27,74691,0.0-10.0-0.7,"""event"",""trial"",""time""
""focus"",""0"",""7291""
""fullscreenenter"",""0"",""9999""
","
","""event"",""trial"",""time""
""focus"",""0"",""7291""
","""event"",""trial"",""time""
""fullscreenenter"",""0"",""9999""
","
",null,"<div style=""font-size:60px;"">+</div>",NA,null,fixation,2020-06-22T21:56:39Z,NA,NA,NA,NA,NA,sub129
NA,mars-trial,28,79078,0.0-10.0-1.7,"""event"",""trial"",""time""
""focus"",""0"",""7291""
""fullscreenenter"",""0"",""9999""
","
","""event"",""trial"",""time""
""focus"",""0"",""7291""
","""event"",""trial"",""time""
""fullscreenenter"",""0"",""9999""
","
",3785,<img style='border: 4px solid darkgrey;' src='img/tf1_8_M_ss1.jpeg'></img>,1,NA,exp,NA,0,<img src='img/tf1_8_T1_ss1_md.jpeg'></img>,0,TRUE,NA,sub129
NA,html-keyboard-response,29,79580,0.0-10.0-0.8,"""event"",""trial"",""time""
""focus"",""0"",""7291""
""fullscreenenter"",""0"",""9999""
","
","""event"",""trial"",""time""
""focus"",""0"",""7291""
","""event"",""trial"",""time""
""fullscreenenter"",""0"",""9999""
","
",null,"<div style=""font-size:60px;"">+</div>",NA,null,fixation,2020-06-22T21:56:44Z,NA,NA,NA,NA,NA,sub129
NA,mars-trial,30,82129,0.0-10.0-1.8,"""event"",""trial"",""time""
""focus"",""0"",""7291""
""fullscreenenter"",""0"",""9999""
","
","""event"",""trial"",""time""
""focus"",""0"",""7291""
","""event"",""trial"",""time""
""fullscreenenter"",""0"",""9999""
","
",1946,<img style='border: 4px solid darkgrey;' src='img/tf1_9_M_ss2.jpeg'></img>,2,NA,exp,NA,3,<img src='img/tf1_9_T1_ss2_md.jpeg'></img>,0,FALSE,NA,sub129
NA,html-keyboard-response,31,82631,0.0-10.0-0.9,"""event"",""trial"",""time""
""focus"",""0"",""7291""
""fullscreenenter"",""0"",""9999""
","
","""event"",""trial"",""time""
""focus"",""0"",""7291""
","""event"",""trial"",""time""
""fullscreenenter"",""0"",""9999""
","
",null,"<div style=""font-size:60px;"">+</div>",NA,null,fixation,2020-06-22T21:56:47Z,NA,NA,NA,NA,NA,sub129
NA,mars-trial,32,86659,0.0-10.0-1.9,"""event"",""trial"",""time""
""focus"",""0"",""7291""
""fullscreenenter"",""0"",""9999""
","
","""event"",""trial"",""time""
""focus"",""0"",""7291""
","""event"",""trial"",""time""
""fullscreenenter"",""0"",""9999""
","
",3424,<img style='border: 4px solid darkgrey;' src='img/tf1_10_M_ss3.jpeg'></img>,1,NA,exp,NA,0,<img src='img/tf1_10_T1_ss3_md.jpeg'></img>,0,TRUE,NA,sub129
NA,html-keyboard-response,33,87161,0.0-10.0-0.10,"""event"",""trial"",""time""
""focus"",""0"",""7291""
""fullscreenenter"",""0"",""9999""
","
","""event"",""trial"",""time""
""focus"",""0"",""7291""
","""event"",""trial"",""time""
""fullscreenenter"",""0"",""9999""
","
",null,"<div style=""font-size:60px;"">+</div>",NA,null,fixation,2020-06-22T21:56:52Z,NA,NA,NA,NA,NA,sub129
NA,mars-trial,34,92804,0.0-10.0-1.10,"""event"",""trial"",""time""
""focus"",""0"",""7291""
""fullscreenenter"",""0"",""9999""
","
","""event"",""trial"",""time""
""focus"",""0"",""7291""
","""event"",""trial"",""time""
""fullscreenenter"",""0"",""9999""
","
",5038.999999999985,<img style='border: 4px solid darkgrey;' src='img/tf1_11_M_ss1.jpeg'></img>,3,NA,exp,NA,3,<img src='img/tf1_11_T1_ss1_md.jpeg'></img>,0,FALSE,NA,sub129
NA,html-keyboard-response,35,93306,0.0-10.0-0.11,"""event"",""trial"",""time""
""focus"",""0"",""7291""
""fullscreenenter"",""0"",""9999""
","
","""event"",""trial"",""time""
""focus"",""0"",""7291""
","""event"",""trial"",""time""
""fullscreenenter"",""0"",""9999""
","
",null,"<div style=""font-size:60px;"">+</div>",NA,null,fixation,2020-06-22T21:56:58Z,NA,NA,NA,NA,NA,sub129
NA,mars-trial,36,98739,0.0-10.0-1.11,"""event"",""trial"",""time""
""focus"",""0"",""7291""
""fullscreenenter"",""0"",""9999""
","
","""event"",""trial"",""time""
""focus"",""0"",""7291""
","""event"",""trial"",""time""
""fullscreenenter"",""0"",""9999""
","
",4830,<img style='border: 4px solid darkgrey;' src='img/tf1_12_M_ss2.jpeg'></img>,2,NA,exp,NA,1,<img src='img/tf1_12_T1_ss2_md.jpeg'></img>,0,FALSE,NA,sub129
NA,html-keyboard-response,37,99242,0.0-10.0-0.12,"""event"",""trial"",""time""
""focus"",""0"",""7291""
""fullscreenenter"",""0"",""9999""
","
","""event"",""trial"",""time""
""focus"",""0"",""7291""
","""event"",""trial"",""time""
""fullscreenenter"",""0"",""9999""
","
",null,"<div style=""font-size:60px;"">+</div>",NA,null,fixation,2020-06-22T21:57:04Z,NA,NA,NA,NA,NA,sub129
NA,mars-trial,38,104079,0.0-10.0-1.12,"""event"",""trial"",""time""
""focus"",""0"",""7291""
""fullscreenenter"",""0"",""9999""
","
","""event"",""trial"",""time""
""focus"",""0"",""7291""
","""event"",""trial"",""time""
""fullscreenenter"",""0"",""9999""
","
",4233,<img style='border: 4px solid darkgrey;' src='img/tf1_13_M_ss3.jpeg'></img>,1,NA,exp,NA,1,<img src='img/tf1_13_T1_ss3_md.jpeg'></img>,0,FALSE,NA,sub129
NA,html-keyboard-response,39,104581,0.0-10.0-0.13,"""event"",""trial"",""time""
""focus"",""0"",""7291""
""fullscreenenter"",""0"",""9999""
","
","""event"",""trial"",""time""
""focus"",""0"",""7291""
","""event"",""trial"",""time""
""fullscreenenter"",""0"",""9999""
","
",null,"<div style=""font-size:60px;"">+</div>",NA,null,fixation,2020-06-22T21:57:09Z,NA,NA,NA,NA,NA,sub129
NA,mars-trial,40,111117,0.0-10.0-1.13,"""event"",""trial"",""time""
""focus"",""0"",""7291""
""fullscreenenter"",""0"",""9999""
","
","""event"",""trial"",""time""
""focus"",""0"",""7291""
","""event"",""trial"",""time""
""fullscreenenter"",""0"",""9999""
","
",5932,<img style='border: 4px solid darkgrey;' src='img/tf1_14_M_ss1.jpeg'></img>,0,NA,exp,NA,0,<img src='img/tf1_14_T1_ss1_md.jpeg'></img>,0,TRUE,NA,sub129
NA,html-keyboard-response,41,111618,0.0-10.0-0.14,"""event"",""trial"",""time""
""focus"",""0"",""7291""
""fullscreenenter"",""0"",""9999""
","
","""event"",""trial"",""time""
""focus"",""0"",""7291""
","""event"",""trial"",""time""
""fullscreenenter"",""0"",""9999""
","
",null,"<div style=""font-size:60px;"">+</div>",NA,null,fixation,2020-06-22T21:57:16Z,NA,NA,NA,NA,NA,sub129
NA,mars-trial,42,114954,0.0-10.0-1.14,"""event"",""trial"",""time""
""focus"",""0"",""7291""
""fullscreenenter"",""0"",""9999""
","
","""event"",""trial"",""time""
""focus"",""0"",""7291""
","""event"",""trial"",""time""
""fullscreenenter"",""0"",""9999""
","
",2732,<img style='border: 4px solid darkgrey;' src='img/tf1_15_M_ss2.jpeg'></img>,1,NA,exp,NA,1,<img src='img/tf1_15_T1_ss2_md.jpeg'></img>,0,FALSE,NA,sub129
NA,html-keyboard-response,43,115455,0.0-10.0-0.15,"""event"",""trial"",""time""
""focus"",""0"",""7291""
""fullscreenenter"",""0"",""9999""
","
","""event"",""trial"",""time""
""focus"",""0"",""7291""
","""event"",""trial"",""time""
""fullscreenenter"",""0"",""9999""
","
",null,"<div style=""font-size:60px;"">+</div>",NA,null,fixation,2020-06-22T21:57:20Z,NA,NA,NA,NA,NA,sub129
NA,mars-trial,44,120386,0.0-10.0-1.15,"""event"",""trial"",""time""
""focus"",""0"",""7291""
""fullscreenenter"",""0"",""9999""
","
","""event"",""trial"",""time""
""focus"",""0"",""7291""
","""event"",""trial"",""time""
""fullscreenenter"",""0"",""9999""
","
",4326,<img style='border: 4px solid darkgrey;' src='img/tf1_16_M_ss3.jpeg'></img>,0,NA,exp,NA,0,<img src='img/tf1_16_T1_ss3_md.jpeg'></img>,0,TRUE,NA,sub129
NA,html-keyboard-response,45,120888,0.0-10.0-0.16,"""event"",""trial"",""time""
""focus"",""0"",""7291""
""fullscreenenter"",""0"",""9999""
","
","""event"",""trial"",""time""
""focus"",""0"",""7291""
","""event"",""trial"",""time""
""fullscreenenter"",""0"",""9999""
","
",null,"<div style=""font-size:60px;"">+</div>",NA,null,fixation,2020-06-22T21:57:25Z,NA,NA,NA,NA,NA,sub129
NA,mars-trial,46,127975,0.0-10.0-1.16,"""event"",""trial"",""time""
""focus"",""0"",""7291""
""fullscreenenter"",""0"",""9999""
","
","""event"",""trial"",""time""
""focus"",""0"",""7291""
","""event"",""trial"",""time""
""fullscreenenter"",""0"",""9999""
","
",6483,<img style='border: 4px solid darkgrey;' src='img/tf1_17_M_ss1.jpeg'></img>,0,NA,exp,NA,1,<img src='img/tf1_17_T1_ss1_md.jpeg'></img>,0,FALSE,NA,sub129
NA,html-keyboard-response,47,128477,0.0-10.0-0.17,"""event"",""trial"",""time""
""focus"",""0"",""7291""
""fullscreenenter"",""0"",""9999""
","
","""event"",""trial"",""time""
""focus"",""0"",""7291""
","""event"",""trial"",""time""
""fullscreenenter"",""0"",""9999""
","
",null,"<div style=""font-size:60px;"">+</div>",NA,null,fixation,2020-06-22T21:57:33Z,NA,NA,NA,NA,NA,sub129
NA,mars-trial,48,135136,0.0-10.0-1.17,"""event"",""trial"",""time""
""focus"",""0"",""7291""
""fullscreenenter"",""0"",""9999""
","
","""event"",""trial"",""time""
""focus"",""0"",""7291""
","""event"",""trial"",""time""
""fullscreenenter"",""0"",""9999""
","
",6055,<img style='border: 4px solid darkgrey;' src='img/tf1_18_M_ss2.jpeg'></img>,1,NA,exp,NA,2,<img src='img/tf1_18_T1_ss2_md.jpeg'></img>,0,FALSE,NA,sub129
NA,html-keyboard-response,49,135637,0.0-10.0-0.18,"""event"",""trial"",""time""
""focus"",""0"",""7291""
""fullscreenenter"",""0"",""9999""
","
","""event"",""trial"",""time""
""focus"",""0"",""7291""
","""event"",""trial"",""time""
""fullscreenenter"",""0"",""9999""
","
",null,"<div style=""font-size:60px;"">+</div>",NA,null,fixation,2020-06-22T21:57:40Z,NA,NA,NA,NA,NA,sub129
NA,mars-trial,50,138799,0.0-10.0-1.18,"""event"",""trial"",""time""
""focus"",""0"",""7291""
""fullscreenenter"",""0"",""9999""
","
","""event"",""trial"",""time""
""focus"",""0"",""7291""
","""event"",""trial"",""time""
""fullscreenenter"",""0"",""9999""
","
",2557,<img style='border: 4px solid darkgrey;' src='img/tf1_19_M_ss3.jpeg'></img>,1,NA,exp,NA,3,<img src='img/tf1_19_T1_ss3_md.jpeg'></img>,0,FALSE,NA,sub129
NA,html-keyboard-response,51,139301,0.0-10.0-0.19,"""event"",""trial"",""time""
""focus"",""0"",""7291""
""fullscreenenter"",""0"",""9999""
","
","""event"",""trial"",""time""
""focus"",""0"",""7291""
","""event"",""trial"",""time""
""fullscreenenter"",""0"",""9999""
","
",null,"<div style=""font-size:60px;"">+</div>",NA,null,fixation,2020-06-22T21:57:44Z,NA,NA,NA,NA,NA,sub129
NA,mars-trial,52,145130,0.0-10.0-1.19,"""event"",""trial"",""time""
""focus"",""0"",""7291""
""fullscreenenter"",""0"",""9999""
","
","""event"",""trial"",""time""
""focus"",""0"",""7291""
","""event"",""trial"",""time""
""fullscreenenter"",""0"",""9999""
","
",5226,<img style='border: 4px solid darkgrey;' src='img/tf1_20_M_ss1.jpeg'></img>,2,NA,exp,NA,1,<img src='img/tf1_20_T1_ss1_md.jpeg'></img>,0,FALSE,NA,sub129
NA,html-keyboard-response,53,145632,0.0-10.0-0.20,"""event"",""trial"",""time""
""focus"",""0"",""7291""
""fullscreenenter"",""0"",""9999""
","
","""event"",""trial"",""time""
""focus"",""0"",""7291""
","""event"",""trial"",""time""
""fullscreenenter"",""0"",""9999""
","
",null,"<div style=""font-size:60px;"">+</div>",NA,null,fixation,2020-06-22T21:57:50Z,NA,NA,NA,NA,NA,sub129
NA,mars-trial,54,147779,0.0-10.0-1.20,"""event"",""trial"",""time""
""focus"",""0"",""7291""
""fullscreenenter"",""0"",""9999""
","
","""event"",""trial"",""time""
""focus"",""0"",""7291""
","""event"",""trial"",""time""
""fullscreenenter"",""0"",""9999""
","
",1543,<img style='border: 4px solid darkgrey;' src='img/tf1_21_M_ss2.jpeg'></img>,0,NA,exp,NA,0,<img src='img/tf1_21_T1_ss2_md.jpeg'></img>,0,TRUE,NA,sub129
NA,html-keyboard-response,55,148282,0.0-10.0-0.21,"""event"",""trial"",""time""
""focus"",""0"",""7291""
""fullscreenenter"",""0"",""9999""
","
","""event"",""trial"",""time""
""focus"",""0"",""7291""
","""event"",""trial"",""time""
""fullscreenenter"",""0"",""9999""
","
",null,"<div style=""font-size:60px;"">+</div>",NA,null,fixation,2020-06-22T21:57:53Z,NA,NA,NA,NA,NA,sub129
NA,mars-trial,56,152274,0.0-10.0-1.21,"""event"",""trial"",""time""
""focus"",""0"",""7291""
""fullscreenenter"",""0"",""9999""
","
","""event"",""trial"",""time""
""focus"",""0"",""7291""
","""event"",""trial"",""time""
""fullscreenenter"",""0"",""9999""
","
",3388,<img style='border: 4px solid darkgrey;' src='img/tf1_22_M_ss3.jpeg'></img>,3,NA,exp,NA,0,<img src='img/tf1_22_T1_ss3_md.jpeg'></img>,0,TRUE,NA,sub129
NA,html-keyboard-response,57,152776,0.0-10.0-0.22,"""event"",""trial"",""time""
""focus"",""0"",""7291""
""fullscreenenter"",""0"",""9999""
","
","""event"",""trial"",""time""
""focus"",""0"",""7291""
","""event"",""trial"",""time""
""fullscreenenter"",""0"",""9999""
","
",null,"<div style=""font-size:60px;"">+</div>",NA,null,fixation,2020-06-22T21:57:57Z,NA,NA,NA,NA,NA,sub129
NA,mars-trial,58,160053,0.0-10.0-1.22,"""event"",""trial"",""time""
""focus"",""0"",""7291""
""fullscreenenter"",""0"",""9999""
","
","""event"",""trial"",""time""
""focus"",""0"",""7291""
","""event"",""trial"",""time""
""fullscreenenter"",""0"",""9999""
","
",6674,<img style='border: 4px solid darkgrey;' src='img/tf1_23_M_ss1.jpeg'></img>,2,NA,exp,NA,0,<img src='img/tf1_23_T1_ss1_md.jpeg'></img>,0,TRUE,NA,sub129
NA,html-keyboard-response,59,160555,0.0-10.0-0.23,"""event"",""trial"",""time""
""focus"",""0"",""7291""
""fullscreenenter"",""0"",""9999""
","
","""event"",""trial"",""time""
""focus"",""0"",""7291""
","""event"",""trial"",""time""
""fullscreenenter"",""0"",""9999""
","
",null,"<div style=""font-size:60px;"">+</div>",NA,null,fixation,2020-06-22T21:58:05Z,NA,NA,NA,NA,NA,sub129
NA,mars-trial,60,165758,0.0-10.0-1.23,"""event"",""trial"",""time""
""focus"",""0"",""7291""
""fullscreenenter"",""0"",""9999""
","
","""event"",""trial"",""time""
""focus"",""0"",""7291""
","""event"",""trial"",""time""
""fullscreenenter"",""0"",""9999""
","
",4600.000000000029,<img style='border: 4px solid darkgrey;' src='img/tf1_24_M_ss2.jpeg'></img>,3,NA,exp,NA,1,<img src='img/tf1_24_T1_ss2_md.jpeg'></img>,0,FALSE,NA,sub129
NA,html-keyboard-response,61,166260,0.0-10.0-0.24,"""event"",""trial"",""time""
""focus"",""0"",""7291""
""fullscreenenter"",""0"",""9999""
","
","""event"",""trial"",""time""
""focus"",""0"",""7291""
","""event"",""trial"",""time""
""fullscreenenter"",""0"",""9999""
","
",null,"<div style=""font-size:60px;"">+</div>",NA,null,fixation,2020-06-22T21:58:11Z,NA,NA,NA,NA,NA,sub129
NA,mars-trial,62,171015,0.0-10.0-1.24,"""event"",""trial"",""time""
""focus"",""0"",""7291""
""fullscreenenter"",""0"",""9999""
","
","""event"",""trial"",""time""
""focus"",""0"",""7291""
","""event"",""trial"",""time""
""fullscreenenter"",""0"",""9999""
","
",4152,<img style='border: 4px solid darkgrey;' src='img/tf1_25_M_ss3.jpeg'></img>,3,NA,exp,NA,0,<img src='img/tf1_25_T1_ss3_md.jpeg'></img>,0,TRUE,NA,sub129
NA,html-keyboard-response,63,171517,0.0-10.0-0.25,"""event"",""trial"",""time""
""focus"",""0"",""7291""
""fullscreenenter"",""0"",""9999""
","
","""event"",""trial"",""time""
""focus"",""0"",""7291""
","""event"",""trial"",""time""
""fullscreenenter"",""0"",""9999""
","
",null,"<div style=""font-size:60px;"">+</div>",NA,null,fixation,2020-06-22T21:58:16Z,NA,NA,NA,NA,NA,sub129
NA,mars-trial,64,177918,0.0-10.0-1.25,"""event"",""trial"",""time""
""focus"",""0"",""7291""
""fullscreenenter"",""0"",""9999""
","
","""event"",""trial"",""time""
""focus"",""0"",""7291""
","""event"",""trial"",""time""
""fullscreenenter"",""0"",""9999""
","
",5796.999999999971,<img style='border: 4px solid darkgrey;' src='img/tf1_26_M_ss1.jpeg'></img>,2,NA,exp,NA,1,<img src='img/tf1_26_T1_ss1_md.jpeg'></img>,0,FALSE,NA,sub129
NA,html-keyboard-response,65,178419,0.0-10.0-0.26,"""event"",""trial"",""time""
""focus"",""0"",""7291""
""fullscreenenter"",""0"",""9999""
","
","""event"",""trial"",""time""
""focus"",""0"",""7291""
","""event"",""trial"",""time""
""fullscreenenter"",""0"",""9999""
","
",null,"<div style=""font-size:60px;"">+</div>",NA,null,fixation,2020-06-22T21:58:23Z,NA,NA,NA,NA,NA,sub129
NA,mars-trial,66,180121,0.0-10.0-1.26,"""event"",""trial"",""time""
""focus"",""0"",""7291""
""fullscreenenter"",""0"",""9999""
","
","""event"",""trial"",""time""
""focus"",""0"",""7291""
","""event"",""trial"",""time""
""fullscreenenter"",""0"",""9999""
","
",1097.000000000029,<img style='border: 4px solid darkgrey;' src='img/tf1_27_M_ss2.jpeg'></img>,0,NA,exp,NA,3,<img src='img/tf1_27_T1_ss2_md.jpeg'></img>,0,FALSE,NA,sub129
NA,html-keyboard-response,67,180623,0.0-10.0-0.27,"""event"",""trial"",""time""
""focus"",""0"",""7291""
""fullscreenenter"",""0"",""9999""
","
","""event"",""trial"",""time""
""focus"",""0"",""7291""
","""event"",""trial"",""time""
""fullscreenenter"",""0"",""9999""
","
",null,"<div style=""font-size:60px;"">+</div>",NA,null,fixation,2020-06-22T21:58:25Z,NA,NA,NA,NA,NA,sub129
NA,mars-trial,68,187189,0.0-10.0-1.27,"""event"",""trial"",""time""
""focus"",""0"",""7291""
""fullscreenenter"",""0"",""9999""
","
","""event"",""trial"",""time""
""focus"",""0"",""7291""
","""event"",""trial"",""time""
""fullscreenenter"",""0"",""9999""
","
",5963,<img style='border: 4px solid darkgrey;' src='img/tf1_28_M_ss3.jpeg'></img>,0,NA,exp,NA,0,<img src='img/tf1_28_T1_ss3_md.jpeg'></img>,0,TRUE,NA,sub129
NA,html-keyboard-response,69,187691,0.0-10.0-0.28,"""event"",""trial"",""time""
""focus"",""0"",""7291""
""fullscreenenter"",""0"",""9999""
","
","""event"",""trial"",""time""
""focus"",""0"",""7291""
","""event"",""trial"",""time""
""fullscreenenter"",""0"",""9999""
","
",null,"<div style=""font-size:60px;"">+</div>",NA,null,fixation,2020-06-22T21:58:32Z,NA,NA,NA,NA,NA,sub129
NA,mars-trial,70,193728,0.0-10.0-1.28,"""event"",""trial"",""time""
""focus"",""0"",""7291""
""fullscreenenter"",""0"",""9999""
","
","""event"",""trial"",""time""
""focus"",""0"",""7291""
","""event"",""trial"",""time""
""fullscreenenter"",""0"",""9999""
","
",5434.000000000029,<img style='border: 4px solid darkgrey;' src='img/tf1_29_M_ss1.jpeg'></img>,1,NA,exp,NA,0,<img src='img/tf1_29_T1_ss1_md.jpeg'></img>,0,TRUE,NA,sub129
NA,html-keyboard-response,71,194230,0.0-10.0-0.29,"""event"",""trial"",""time""
""focus"",""0"",""7291""
""fullscreenenter"",""0"",""9999""
","
","""event"",""trial"",""time""
""focus"",""0"",""7291""
","""event"",""trial"",""time""
""fullscreenenter"",""0"",""9999""
","
",null,"<div style=""font-size:60px;"">+</div>",NA,null,fixation,2020-06-22T21:58:39Z,NA,NA,NA,NA,NA,sub129
NA,mars-trial,72,200463,0.0-10.0-1.29,"""event"",""trial"",""time""
""focus"",""0"",""7291""
""fullscreenenter"",""0"",""9999""
","
","""event"",""trial"",""time""
""focus"",""0"",""7291""
","""event"",""trial"",""time""
""fullscreenenter"",""0"",""9999""
","
",5629,<img style='border: 4px solid darkgrey;' src='img/tf1_30_M_ss2.jpeg'></img>,3,NA,exp,NA,0,<img src='img/tf1_30_T1_ss2_md.jpeg'></img>,0,TRUE,NA,sub129
NA,html-keyboard-response,73,200965,0.0-10.0-0.30,"""event"",""trial"",""time""
""focus"",""0"",""7291""
""fullscreenenter"",""0"",""9999""
","
","""event"",""trial"",""time""
""focus"",""0"",""7291""
","""event"",""trial"",""time""
""fullscreenenter"",""0"",""9999""
","
",null,"<div style=""font-size:60px;"">+</div>",NA,null,fixation,2020-06-22T21:58:45Z,NA,NA,NA,NA,NA,sub129
NA,mars-trial,74,205476,0.0-10.0-1.30,"""event"",""trial"",""time""
""focus"",""0"",""7291""
""fullscreenenter"",""0"",""9999""
","
","""event"",""trial"",""time""
""focus"",""0"",""7291""
","""event"",""trial"",""time""
""fullscreenenter"",""0"",""9999""
","
",3909,<img style='border: 4px solid darkgrey;' src='img/tf1_31_M_ss3.jpeg'></img>,0,NA,exp,NA,1,<img src='img/tf1_31_T1_ss3_md.jpeg'></img>,0,FALSE,NA,sub129
NA,html-keyboard-response,75,205977,0.0-10.0-0.31,"""event"",""trial"",""time""
""focus"",""0"",""7291""
""fullscreenenter"",""0"",""9999""
","
","""event"",""trial"",""time""
""focus"",""0"",""7291""
","""event"",""trial"",""time""
""fullscreenenter"",""0"",""9999""
","
",null,"<div style=""font-size:60px;"">+</div>",NA,null,fixation,2020-06-22T21:58:51Z,NA,NA,NA,NA,NA,sub129
NA,mars-trial,76,210620,0.0-10.0-1.31,"""event"",""trial"",""time""
""focus"",""0"",""7291""
""fullscreenenter"",""0"",""9999""
","
","""event"",""trial"",""time""
""focus"",""0"",""7291""
","""event"",""trial"",""time""
""fullscreenenter"",""0"",""9999""
","
",4038,<img style='border: 4px solid darkgrey;' src='img/tf1_32_M_ss1.jpeg'></img>,0,NA,exp,NA,0,<img src='img/tf1_32_T1_ss1_md.jpeg'></img>,0,TRUE,NA,sub129
NA,html-keyboard-response,77,211122,0.0-10.0-0.32,"""event"",""trial"",""time""
""focus"",""0"",""7291""
""fullscreenenter"",""0"",""9999""
","
","""event"",""trial"",""time""
""focus"",""0"",""7291""
","""event"",""trial"",""time""
""fullscreenenter"",""0"",""9999""
","
",null,"<div style=""font-size:60px;"">+</div>",NA,null,fixation,2020-06-22T21:58:56Z,NA,NA,NA,NA,NA,sub129
NA,mars-trial,78,216442,0.0-10.0-1.32,"""event"",""trial"",""time""
""focus"",""0"",""7291""
""fullscreenenter"",""0"",""9999""
","
","""event"",""trial"",""time""
""focus"",""0"",""7291""
","""event"",""trial"",""time""
""fullscreenenter"",""0"",""9999""
","
",4716.000000000029,<img style='border: 4px solid darkgrey;' src='img/tf1_33_M_ss2.jpeg'></img>,2,NA,exp,NA,0,<img src='img/tf1_33_T1_ss2_md.jpeg'></img>,0,TRUE,NA,sub129
NA,html-keyboard-response,79,216944,0.0-10.0-0.33,"""event"",""trial"",""time""
""focus"",""0"",""7291""
""fullscreenenter"",""0"",""9999""
","
","""event"",""trial"",""time""
""focus"",""0"",""7291""
","""event"",""trial"",""time""
""fullscreenenter"",""0"",""9999""
","
",null,"<div style=""font-size:60px;"">+</div>",NA,null,fixation,2020-06-22T21:59:01Z,NA,NA,NA,NA,NA,sub129
NA,mars-trial,80,222385,0.0-10.0-1.33,"""event"",""trial"",""time""
""focus"",""0"",""7291""
""fullscreenenter"",""0"",""9999""
","
","""event"",""trial"",""time""
""focus"",""0"",""7291""
","""event"",""trial"",""time""
""fullscreenenter"",""0"",""9999""
","
",4837,<img style='border: 4px solid darkgrey;' src='img/tf1_34_M_ss3.jpeg'></img>,1,NA,exp,NA,2,<img src='img/tf1_34_T1_ss3_md.jpeg'></img>,0,FALSE,NA,sub129
NA,html-keyboard-response,81,222887,0.0-10.0-0.34,"""event"",""trial"",""time""
""focus"",""0"",""7291""
""fullscreenenter"",""0"",""9999""
","
","""event"",""trial"",""time""
""focus"",""0"",""7291""
","""event"",""trial"",""time""
""fullscreenenter"",""0"",""9999""
","
",null,"<div style=""font-size:60px;"">+</div>",NA,null,fixation,2020-06-22T21:59:07Z,NA,NA,NA,NA,NA,sub129
NA,mars-trial,82,230516,0.0-10.0-1.34,"""event"",""trial"",""time""
""focus"",""0"",""7291""
""fullscreenenter"",""0"",""9999""
","
","""event"",""trial"",""time""
""focus"",""0"",""7291""
","""event"",""trial"",""time""
""fullscreenenter"",""0"",""9999""
","
",7025,<img style='border: 4px solid darkgrey;' src='img/tf1_35_M_ss1.jpeg'></img>,3,NA,exp,NA,0,<img src='img/tf1_35_T1_ss1_md.jpeg'></img>,0,TRUE,NA,sub129
NA,html-keyboard-response,83,231018,0.0-10.0-0.35,"""event"",""trial"",""time""
""focus"",""0"",""7291""
""fullscreenenter"",""0"",""9999""
","
","""event"",""trial"",""time""
""focus"",""0"",""7291""
","""event"",""trial"",""time""
""fullscreenenter"",""0"",""9999""
","
",null,"<div style=""font-size:60px;"">+</div>",NA,null,fixation,2020-06-22T21:59:16Z,NA,NA,NA,NA,NA,sub129
NA,mars-trial,84,237924,0.0-10.0-1.35,"""event"",""trial"",""time""
""focus"",""0"",""7291""
""fullscreenenter"",""0"",""9999""
","
","""event"",""trial"",""time""
""focus"",""0"",""7291""
","""event"",""trial"",""time""
""fullscreenenter"",""0"",""9999""
","
",6303.000000000029,<img style='border: 4px solid darkgrey;' src='img/tf1_36_M_ss2.jpeg'></img>,3,NA,exp,NA,1,<img src='img/tf1_36_T1_ss2_md.jpeg'></img>,0,FALSE,NA,sub129
NA,html-keyboard-response,85,238426,0.0-10.0-0.36,"""event"",""trial"",""time""
""focus"",""0"",""7291""
""fullscreenenter"",""0"",""9999""
","
","""event"",""trial"",""time""
""focus"",""0"",""7291""
","""event"",""trial"",""time""
""fullscreenenter"",""0"",""9999""
","
",null,"<div style=""font-size:60px;"">+</div>",NA,null,fixation,2020-06-22T21:59:23Z,NA,NA,NA,NA,NA,sub129
NA,mars-trial,86,245448,0.0-10.0-1.36,"""event"",""trial"",""time""
""focus"",""0"",""7291""
""fullscreenenter"",""0"",""9999""
","
","""event"",""trial"",""time""
""focus"",""0"",""7291""
","""event"",""trial"",""time""
""fullscreenenter"",""0"",""9999""
","
",6417.000000000029,<img style='border: 4px solid darkgrey;' src='img/tf1_37_M_ss3.jpeg'></img>,0,NA,exp,NA,1,<img src='img/tf1_37_T1_ss3_md.jpeg'></img>,0,FALSE,NA,sub129
NA,html-keyboard-response,87,245950,0.0-10.0-0.37,"""event"",""trial"",""time""
""focus"",""0"",""7291""
""fullscreenenter"",""0"",""9999""
","
","""event"",""trial"",""time""
""focus"",""0"",""7291""
","""event"",""trial"",""time""
""fullscreenenter"",""0"",""9999""
","
",null,"<div style=""font-size:60px;"">+</div>",NA,null,fixation,2020-06-22T21:59:30Z,NA,NA,NA,NA,NA,sub129
NA,mars-trial,88,249254,0.0-10.0-1.37,"""event"",""trial"",""time""
""focus"",""0"",""7291""
""fullscreenenter"",""0"",""9999""
","
","""event"",""trial"",""time""
""focus"",""0"",""7291""
","""event"",""trial"",""time""
""fullscreenenter"",""0"",""9999""
","
",2700,<img style='border: 4px solid darkgrey;' src='img/tf1_38_M_ss1.jpeg'></img>,1,NA,exp,NA,0,<img src='img/tf1_38_T1_ss1_md.jpeg'></img>,0,TRUE,NA,sub129
NA,html-keyboard-response,89,249755,0.0-10.0-0.38,"""event"",""trial"",""time""
""focus"",""0"",""7291""
""fullscreenenter"",""0"",""9999""
","
","""event"",""trial"",""time""
""focus"",""0"",""7291""
","""event"",""trial"",""time""
""fullscreenenter"",""0"",""9999""
","
",null,"<div style=""font-size:60px;"">+</div>",NA,null,fixation,2020-06-22T21:59:34Z,NA,NA,NA,NA,NA,sub129
NA,mars-trial,90,251786,0.0-10.0-1.38,"""event"",""trial"",""time""
""focus"",""0"",""7291""
""fullscreenenter"",""0"",""9999""
","
","""event"",""trial"",""time""
""focus"",""0"",""7291""
","""event"",""trial"",""time""
""fullscreenenter"",""0"",""9999""
","
",1426.999999999971,<img style='border: 4px solid darkgrey;' src='img/tf1_39_M_ss2.jpeg'></img>,1,NA,exp,NA,2,<img src='img/tf1_39_T1_ss2_md.jpeg'></img>,0,FALSE,NA,sub129
NA,html-keyboard-response,91,252288,0.0-10.0-0.39,"""event"",""trial"",""time""
""focus"",""0"",""7291""
""fullscreenenter"",""0"",""9999""
","
","""event"",""trial"",""time""
""focus"",""0"",""7291""
","""event"",""trial"",""time""
""fullscreenenter"",""0"",""9999""
","
",null,"<div style=""font-size:60px;"">+</div>",NA,null,fixation,2020-06-22T21:59:37Z,NA,NA,NA,NA,NA,sub129
NA,mars-trial,92,258445,0.0-10.0-1.39,"""event"",""trial"",""time""
""focus"",""0"",""7291""
""fullscreenenter"",""0"",""9999""
","
","""event"",""trial"",""time""
""focus"",""0"",""7291""
","""event"",""trial"",""time""
""fullscreenenter"",""0"",""9999""
","
",5554,<img style='border: 4px solid darkgrey;' src='img/tf1_40_M_ss3.jpeg'></img>,2,NA,exp,NA,0,<img src='img/tf1_40_T1_ss3_md.jpeg'></img>,0,TRUE,NA,sub129
NA,html-keyboard-response,93,258947,0.0-10.0-0.40,"""event"",""trial"",""time""
""focus"",""0"",""7291""
""fullscreenenter"",""0"",""9999""
","
","""event"",""trial"",""time""
""focus"",""0"",""7291""
","""event"",""trial"",""time""
""fullscreenenter"",""0"",""9999""
","
",null,"<div style=""font-size:60px;"">+</div>",NA,null,fixation,2020-06-22T21:59:43Z,NA,NA,NA,NA,NA,sub129
NA,mars-trial,94,262726,0.0-10.0-1.40,"""event"",""trial"",""time""
""focus"",""0"",""7291""
""fullscreenenter"",""0"",""9999""
","
","""event"",""trial"",""time""
""focus"",""0"",""7291""
","""event"",""trial"",""time""
""fullscreenenter"",""0"",""9999""
","
",3176,<img style='border: 4px solid darkgrey;' src='img/tf1_41_M_ss1.jpeg'></img>,1,NA,exp,NA,0,<img src='img/tf1_41_T1_ss1_md.jpeg'></img>,0,TRUE,NA,sub129
NA,html-keyboard-response,95,263228,0.0-10.0-0.41,"""event"",""trial"",""time""
""focus"",""0"",""7291""
""fullscreenenter"",""0"",""9999""
","
","""event"",""trial"",""time""
""focus"",""0"",""7291""
","""event"",""trial"",""time""
""fullscreenenter"",""0"",""9999""
","
",null,"<div style=""font-size:60px;"">+</div>",NA,null,fixation,2020-06-22T21:59:48Z,NA,NA,NA,NA,NA,sub129
NA,mars-trial,96,265345,0.0-10.0-1.41,"""event"",""trial"",""time""
""focus"",""0"",""7291""
""fullscreenenter"",""0"",""9999""
","
","""event"",""trial"",""time""
""focus"",""0"",""7291""
","""event"",""trial"",""time""
""fullscreenenter"",""0"",""9999""
","
",1513,<img style='border: 4px solid darkgrey;' src='img/tf1_42_M_ss2.jpeg'></img>,0,NA,exp,NA,0,<img src='img/tf1_42_T1_ss2_md.jpeg'></img>,0,TRUE,NA,sub129
NA,html-keyboard-response,97,265847,0.0-10.0-0.42,"""event"",""trial"",""time""
""focus"",""0"",""7291""
""fullscreenenter"",""0"",""9999""
","
","""event"",""trial"",""time""
""focus"",""0"",""7291""
","""event"",""trial"",""time""
""fullscreenenter"",""0"",""9999""
","
",null,"<div style=""font-size:60px;"">+</div>",NA,null,fixation,2020-06-22T21:59:50Z,NA,NA,NA,NA,NA,sub129
NA,mars-trial,98,273806,0.0-10.0-1.42,"""event"",""trial"",""time""
""focus"",""0"",""7291""
""fullscreenenter"",""0"",""9999""
","
","""event"",""trial"",""time""
""focus"",""0"",""7291""
","""event"",""trial"",""time""
""fullscreenenter"",""0"",""9999""
","
",7355,<img style='border: 4px solid darkgrey;' src='img/tf1_43_M_ss3.jpeg'></img>,3,NA,exp,NA,0,<img src='img/tf1_43_T1_ss3_md.jpeg'></img>,0,TRUE,NA,sub129
NA,html-keyboard-response,99,274308,0.0-10.0-0.43,"""event"",""trial"",""time""
""focus"",""0"",""7291""
""fullscreenenter"",""0"",""9999""
","
","""event"",""trial"",""time""
""focus"",""0"",""7291""
","""event"",""trial"",""time""
""fullscreenenter"",""0"",""9999""
","
",null,"<div style=""font-size:60px;"">+</div>",NA,null,fixation,2020-06-22T21:59:59Z,NA,NA,NA,NA,NA,sub129
NA,mars-trial,100,276713,0.0-10.0-1.43,"""event"",""trial"",""time""
""focus"",""0"",""7291""
""fullscreenenter"",""0"",""9999""
","
","""event"",""trial"",""time""
""focus"",""0"",""7291""
","""event"",""trial"",""time""
""fullscreenenter"",""0"",""9999""
","
",1802,<img style='border: 4px solid darkgrey;' src='img/tf1_44_M_ss1.jpeg'></img>,1,NA,exp,NA,1,<img src='img/tf1_44_T1_ss1_md.jpeg'></img>,0,FALSE,NA,sub129
NA,html-keyboard-response,101,277215,0.0-10.0-0.44,"""event"",""trial"",""time""
""focus"",""0"",""7291""
""fullscreenenter"",""0"",""9999""
","
","""event"",""trial"",""time""
""focus"",""0"",""7291""
","""event"",""trial"",""time""
""fullscreenenter"",""0"",""9999""
","
",null,"<div style=""font-size:60px;"">+</div>",NA,null,fixation,2020-06-22T22:00:02Z,NA,NA,NA,NA,NA,sub129
NA,mars-trial,102,279573,0.0-10.0-1.44,"""event"",""trial"",""time""
""focus"",""0"",""7291""
""fullscreenenter"",""0"",""9999""
","
","""event"",""trial"",""time""
""focus"",""0"",""7291""
","""event"",""trial"",""time""
""fullscreenenter"",""0"",""9999""
","
",1755,<img style='border: 4px solid darkgrey;' src='img/tf1_45_M_ss2.jpeg'></img>,2,NA,exp,NA,0,<img src='img/tf1_45_T1_ss2_md.jpeg'></img>,0,TRUE,NA,sub129
NA,html-keyboard-response,103,280074,0.0-10.0-0.45,"""event"",""trial"",""time""
""focus"",""0"",""7291""
""fullscreenenter"",""0"",""9999""
","
","""event"",""trial"",""time""
""focus"",""0"",""7291""
","""event"",""trial"",""time""
""fullscreenenter"",""0"",""9999""
","
",null,"<div style=""font-size:60px;"">+</div>",NA,null,fixation,2020-06-22T22:00:05Z,NA,NA,NA,NA,NA,sub129
NA,mars-trial,104,285375,0.0-10.0-1.45,"""event"",""trial"",""time""
""focus"",""0"",""7291""
""fullscreenenter"",""0"",""9999""
","
","""event"",""trial"",""time""
""focus"",""0"",""7291""
","""event"",""trial"",""time""
""fullscreenenter"",""0"",""9999""
","
",4696,<img style='border: 4px solid darkgrey;' src='img/tf1_46_M_ss3.jpeg'></img>,1,NA,exp,NA,0,<img src='img/tf1_46_T1_ss3_md.jpeg'></img>,0,TRUE,NA,sub129
NA,html-keyboard-response,105,285876,0.0-10.0-0.46,"""event"",""trial"",""time""
""focus"",""0"",""7291""
""fullscreenenter"",""0"",""9999""
","
","""event"",""trial"",""time""
""focus"",""0"",""7291""
","""event"",""trial"",""time""
""fullscreenenter"",""0"",""9999""
","
",null,"<div style=""font-size:60px;"">+</div>",NA,null,fixation,2020-06-22T22:00:10Z,NA,NA,NA,NA,NA,sub129
NA,mars-trial,106,290228,0.0-10.0-1.46,"""event"",""trial"",""time""
""focus"",""0"",""7291""
""fullscreenenter"",""0"",""9999""
","
","""event"",""trial"",""time""
""focus"",""0"",""7291""
","""event"",""trial"",""time""
""fullscreenenter"",""0"",""9999""
","
",3747,<img style='border: 4px solid darkgrey;' src='img/tf1_47_M_ss1.jpeg'></img>,0,NA,exp,NA,2,<img src='img/tf1_47_T1_ss1_md.jpeg'></img>,0,FALSE,NA,sub129
NA,html-keyboard-response,107,290729,0.0-10.0-0.47,"""event"",""trial"",""time""
""focus"",""0"",""7291""
""fullscreenenter"",""0"",""9999""
","
","""event"",""trial"",""time""
""focus"",""0"",""7291""
","""event"",""trial"",""time""
""fullscreenenter"",""0"",""9999""
","
",null,"<div style=""font-size:60px;"">+</div>",NA,null,fixation,2020-06-22T22:00:15Z,NA,NA,NA,NA,NA,sub129
NA,mars-trial,108,292318,0.0-10.0-1.47,"""event"",""trial"",""time""
""focus"",""0"",""7291""
""fullscreenenter"",""0"",""9999""
","
","""event"",""trial"",""time""
""focus"",""0"",""7291""
","""event"",""trial"",""time""
""fullscreenenter"",""0"",""9999""
","
",985,<img style='border: 4px solid darkgrey;' src='img/tf1_48_M_ss2.jpeg'></img>,0,NA,exp,NA,2,<img src='img/tf1_48_T1_ss2_md.jpeg'></img>,0,FALSE,NA,sub129
NA,html-keyboard-response,109,292819,0.0-10.0-0.48,"""event"",""trial"",""time""
""focus"",""0"",""7291""
""fullscreenenter"",""0"",""9999""
","
","""event"",""trial"",""time""
""focus"",""0"",""7291""
","""event"",""trial"",""time""
""fullscreenenter"",""0"",""9999""
","
",null,"<div style=""font-size:60px;"">+</div>",NA,null,fixation,2020-06-22T22:00:17Z,NA,NA,NA,NA,NA,sub129
NA,mars-trial,110,299164,0.0-10.0-1.48,"""event"",""trial"",""time""
""focus"",""0"",""7291""
""fullscreenenter"",""0"",""9999""
","
","""event"",""trial"",""time""
""focus"",""0"",""7291""
","""event"",""trial"",""time""
""fullscreenenter"",""0"",""9999""
","
",5741,<img style='border: 4px solid darkgrey;' src='img/tf1_49_M_ss3.jpeg'></img>,1,NA,exp,NA,0,<img src='img/tf1_49_T1_ss3_md.jpeg'></img>,0,TRUE,NA,sub129
NA,html-keyboard-response,111,299666,0.0-10.0-0.49,"""event"",""trial"",""time""
""focus"",""0"",""7291""
""fullscreenenter"",""0"",""9999""
","
","""event"",""trial"",""time""
""focus"",""0"",""7291""
","""event"",""trial"",""time""
""fullscreenenter"",""0"",""9999""
","
",null,"<div style=""font-size:60px;"">+</div>",NA,null,fixation,2020-06-22T22:00:24Z,NA,NA,NA,NA,NA,sub129
NA,mars-trial,112,306434,0.0-10.0-1.49,"""event"",""trial"",""time""
""focus"",""0"",""7291""
""fullscreenenter"",""0"",""9999""
","
","""event"",""trial"",""time""
""focus"",""0"",""7291""
","""event"",""trial"",""time""
""fullscreenenter"",""0"",""9999""
","
",6165.000000000058,<img style='border: 4px solid darkgrey;' src='img/tf1_50_M_ss1.jpeg'></img>,0,NA,exp,NA,0,<img src='img/tf1_50_T1_ss1_md.jpeg'></img>,0,TRUE,NA,sub129
NA,html-keyboard-response,113,306936,0.0-10.0-0.50,"""event"",""trial"",""time""
""focus"",""0"",""7291""
""fullscreenenter"",""0"",""9999""
","
","""event"",""trial"",""time""
""focus"",""0"",""7291""
","""event"",""trial"",""time""
""fullscreenenter"",""0"",""9999""
","
",null,"<div style=""font-size:60px;"">+</div>",NA,null,fixation,2020-06-22T22:00:31Z,NA,NA,NA,NA,NA,sub129
NA,mars-trial,114,315563,0.0-10.0-1.50,"""event"",""trial"",""time""
""focus"",""0"",""7291""
""fullscreenenter"",""0"",""9999""
","
","""event"",""trial"",""time""
""focus"",""0"",""7291""
","""event"",""trial"",""time""
""fullscreenenter"",""0"",""9999""
","
",8023,<img style='border: 4px solid darkgrey;' src='img/tf1_51_M_ss2.jpeg'></img>,2,NA,exp,NA,1,<img src='img/tf1_51_T1_ss2_md.jpeg'></img>,0,FALSE,NA,sub129
NA,html-keyboard-response,115,316065,0.0-10.0-0.51,"""event"",""trial"",""time""
""focus"",""0"",""7291""
""fullscreenenter"",""0"",""9999""
","
","""event"",""trial"",""time""
""focus"",""0"",""7291""
","""event"",""trial"",""time""
""fullscreenenter"",""0"",""9999""
","
",null,"<div style=""font-size:60px;"">+</div>",NA,null,fixation,2020-06-22T22:00:41Z,NA,NA,NA,NA,NA,sub129
NA,mars-trial,116,324837,0.0-10.0-1.51,"""event"",""trial"",""time""
""focus"",""0"",""7291""
""fullscreenenter"",""0"",""9999""
","
","""event"",""trial"",""time""
""focus"",""0"",""7291""
","""event"",""trial"",""time""
""fullscreenenter"",""0"",""9999""
","
",8168.000000000058,<img style='border: 4px solid darkgrey;' src='img/tf1_52_M_ss3.jpeg'></img>,1,NA,exp,NA,2,<img src='img/tf1_52_T1_ss3_md.jpeg'></img>,0,FALSE,NA,sub129
NA,html-keyboard-response,117,325339,0.0-10.0-0.52,"""event"",""trial"",""time""
""focus"",""0"",""7291""
""fullscreenenter"",""0"",""9999""
","
","""event"",""trial"",""time""
""focus"",""0"",""7291""
","""event"",""trial"",""time""
""fullscreenenter"",""0"",""9999""
","
",null,"<div style=""font-size:60px;"">+</div>",NA,null,fixation,2020-06-22T22:00:50Z,NA,NA,NA,NA,NA,sub129
NA,mars-trial,118,326837,0.0-10.0-1.52,"""event"",""trial"",""time""
""focus"",""0"",""7291""
""fullscreenenter"",""0"",""9999""
","
","""event"",""trial"",""time""
""focus"",""0"",""7291""
","""event"",""trial"",""time""
""fullscreenenter"",""0"",""9999""
","
",896,<img style='border: 4px solid darkgrey;' src='img/tf1_53_M_ss1.jpeg'></img>,0,NA,exp,NA,2,<img src='img/tf1_53_T1_ss1_md.jpeg'></img>,0,FALSE,NA,sub129
NA,html-keyboard-response,119,327339,0.0-10.0-0.53,"""event"",""trial"",""time""
""focus"",""0"",""7291""
""fullscreenenter"",""0"",""9999""
","
","""event"",""trial"",""time""
""focus"",""0"",""7291""
","""event"",""trial"",""time""
""fullscreenenter"",""0"",""9999""
","
",null,"<div style=""font-size:60px;"">+</div>",NA,null,fixation,2020-06-22T22:00:52Z,NA,NA,NA,NA,NA,sub129
NA,mars-trial,120,328566,0.0-10.0-1.53,"""event"",""trial"",""time""
""focus"",""0"",""7291""
""fullscreenenter"",""0"",""9999""
","
","""event"",""trial"",""time""
""focus"",""0"",""7291""
","""event"",""trial"",""time""
""fullscreenenter"",""0"",""9999""
","
",624,<img style='border: 4px solid darkgrey;' src='img/tf1_54_M_ss2.jpeg'></img>,2,NA,exp,NA,3,<img src='img/tf1_54_T1_ss2_md.jpeg'></img>,0,FALSE,NA,sub129
NA,html-keyboard-response,121,329067,0.0-10.0-0.54,"""event"",""trial"",""time""
""focus"",""0"",""7291""
""fullscreenenter"",""0"",""9999""
","
","""event"",""trial"",""time""
""focus"",""0"",""7291""
","""event"",""trial"",""time""
""fullscreenenter"",""0"",""9999""
","
",null,"<div style=""font-size:60px;"">+</div>",NA,null,fixation,2020-06-22T22:00:54Z,NA,NA,NA,NA,NA,sub129
NA,mars-trial,122,330028,0.0-10.0-1.54,"""event"",""trial"",""time""
""focus"",""0"",""7291""
""fullscreenenter"",""0"",""9999""
","
","""event"",""trial"",""time""
""focus"",""0"",""7291""
","""event"",""trial"",""time""
""fullscreenenter"",""0"",""9999""
","
",358,<img style='border: 4px solid darkgrey;' src='img/tf1_55_M_ss3.jpeg'></img>,1,NA,exp,NA,0,<img src='img/tf1_55_T1_ss3_md.jpeg'></img>,0,TRUE,NA,sub129
NA,html-keyboard-response,123,330530,0.0-10.0-0.55,"""event"",""trial"",""time""
""focus"",""0"",""7291""
""fullscreenenter"",""0"",""9999""
","
","""event"",""trial"",""time""
""focus"",""0"",""7291""
","""event"",""trial"",""time""
""fullscreenenter"",""0"",""9999""
","
",null,"<div style=""font-size:60px;"">+</div>",NA,null,fixation,2020-06-22T22:00:55Z,NA,NA,NA,NA,NA,sub129
NA,mars-trial,124,331535,0.0-10.0-1.55,"""event"",""trial"",""time""
""focus"",""0"",""7291""
""fullscreenenter"",""0"",""9999""
","
","""event"",""trial"",""time""
""focus"",""0"",""7291""
","""event"",""trial"",""time""
""fullscreenenter"",""0"",""9999""
","
",402,<img style='border: 4px solid darkgrey;' src='img/tf1_56_M_ss1.jpeg'></img>,3,NA,exp,NA,0,<img src='img/tf1_56_T1_ss1_md.jpeg'></img>,0,TRUE,NA,sub129
NA,html-keyboard-response,125,332037,0.0-10.0-0.56,"""event"",""trial"",""time""
""focus"",""0"",""7291""
""fullscreenenter"",""0"",""9999""
","
","""event"",""trial"",""time""
""focus"",""0"",""7291""
","""event"",""trial"",""time""
""fullscreenenter"",""0"",""9999""
","
",null,"<div style=""font-size:60px;"">+</div>",NA,null,fixation,2020-06-22T22:00:57Z,NA,NA,NA,NA,NA,sub129
NA,mars-trial,126,333065,0.0-10.0-1.56,"""event"",""trial"",""time""
""focus"",""0"",""7291""
""fullscreenenter"",""0"",""9999""
","
","""event"",""trial"",""time""
""focus"",""0"",""7291""
","""event"",""trial"",""time""
""fullscreenenter"",""0"",""9999""
","
",425,<img style='border: 4px solid darkgrey;' src='img/tf1_57_M_ss2.jpeg'></img>,1,NA,exp,NA,2,<img src='img/tf1_57_T1_ss2_md.jpeg'></img>,0,FALSE,NA,sub129
NA,html-keyboard-response,127,333566,0.0-10.0-0.57,"""event"",""trial"",""time""
""focus"",""0"",""7291""
""fullscreenenter"",""0"",""9999""
","
","""event"",""trial"",""time""
""focus"",""0"",""7291""
","""event"",""trial"",""time""
""fullscreenenter"",""0"",""9999""
","
",null,"<div style=""font-size:60px;"">+</div>",NA,null,fixation,2020-06-22T22:00:58Z,NA,NA,NA,NA,NA,sub129
NA,mars-trial,128,334518,0.0-10.0-1.57,"""event"",""trial"",""time""
""focus"",""0"",""7291""
""fullscreenenter"",""0"",""9999""
","
","""event"",""trial"",""time""
""focus"",""0"",""7291""
","""event"",""trial"",""time""
""fullscreenenter"",""0"",""9999""
","
",348,<img style='border: 4px solid darkgrey;' src='img/tf1_58_M_ss3.jpeg'></img>,2,NA,exp,NA,0,<img src='img/tf1_58_T1_ss3_md.jpeg'></img>,0,TRUE,NA,sub129
NA,html-keyboard-response,129,335020,0.0-10.0-0.58,"""event"",""trial"",""time""
""focus"",""0"",""7291""
""fullscreenenter"",""0"",""9999""
","
","""event"",""trial"",""time""
""focus"",""0"",""7291""
","""event"",""trial"",""time""
""fullscreenenter"",""0"",""9999""
","
",null,"<div style=""font-size:60px;"">+</div>",NA,null,fixation,2020-06-22T22:01:00Z,NA,NA,NA,NA,NA,sub129
NA,mars-trial,130,336030,0.0-10.0-1.58,"""event"",""trial"",""time""
""focus"",""0"",""7291""
""fullscreenenter"",""0"",""9999""
","
","""event"",""trial"",""time""
""focus"",""0"",""7291""
","""event"",""trial"",""time""
""fullscreenenter"",""0"",""9999""
","
",405.9999999999418,<img style='border: 4px solid darkgrey;' src='img/tf1_59_M_ss1.jpeg'></img>,2,NA,exp,NA,2,<img src='img/tf1_59_T1_ss1_md.jpeg'></img>,0,FALSE,NA,sub129
NA,html-keyboard-response,131,336532,0.0-10.0-0.59,"""event"",""trial"",""time""
""focus"",""0"",""7291""
""fullscreenenter"",""0"",""9999""
","
","""event"",""trial"",""time""
""focus"",""0"",""7291""
","""event"",""trial"",""time""
""fullscreenenter"",""0"",""9999""
","
",null,"<div style=""font-size:60px;"">+</div>",NA,null,fixation,2020-06-22T22:01:01Z,NA,NA,NA,NA,NA,sub129
NA,mars-trial,132,337530,0.0-10.0-1.59,"""event"",""trial"",""time""
""focus"",""0"",""7291""
""fullscreenenter"",""0"",""9999""
","
","""event"",""trial"",""time""
""focus"",""0"",""7291""
","""event"",""trial"",""time""
""fullscreenenter"",""0"",""9999""
","
",395.9999999999418,<img style='border: 4px solid darkgrey;' src='img/tf1_60_M_ss2.jpeg'></img>,1,NA,exp,NA,1,<img src='img/tf1_60_T1_ss2_md.jpeg'></img>,0,FALSE,NA,sub129
NA,html-keyboard-response,133,338032,0.0-10.0-0.60,"""event"",""trial"",""time""
""focus"",""0"",""7291""
""fullscreenenter"",""0"",""9999""
","
","""event"",""trial"",""time""
""focus"",""0"",""7291""
","""event"",""trial"",""time""
""fullscreenenter"",""0"",""9999""
","
",null,"<div style=""font-size:60px;"">+</div>",NA,null,fixation,2020-06-22T22:01:03Z,NA,NA,NA,NA,NA,sub129
NA,mars-trial,134,339395,0.0-10.0-1.60,"""event"",""trial"",""time""
""focus"",""0"",""7291""
""fullscreenenter"",""0"",""9999""
","
","""event"",""trial"",""time""
""focus"",""0"",""7291""
","""event"",""trial"",""time""
""fullscreenenter"",""0"",""9999""
","
",760,<img style='border: 4px solid darkgrey;' src='img/tf1_61_M_ss3.jpeg'></img>,0,NA,exp,NA,1,<img src='img/tf1_61_T1_ss3_md.jpeg'></img>,0,FALSE,NA,sub129
NA,html-keyboard-response,135,339897,0.0-10.0-0.61,"""event"",""trial"",""time""
""focus"",""0"",""7291""
""fullscreenenter"",""0"",""9999""
","
","""event"",""trial"",""time""
""focus"",""0"",""7291""
","""event"",""trial"",""time""
""fullscreenenter"",""0"",""9999""
","
",null,"<div style=""font-size:60px;"">+</div>",NA,null,fixation,2020-06-22T22:01:04Z,NA,NA,NA,NA,NA,sub129
NA,mars-trial,136,343655,0.0-10.0-1.61,"""event"",""trial"",""time""
""focus"",""0"",""7291""
""fullscreenenter"",""0"",""9999""
","
","""event"",""trial"",""time""
""focus"",""0"",""7291""
","""event"",""trial"",""time""
""fullscreenenter"",""0"",""9999""
","
",3154,<img style='border: 4px solid darkgrey;' src='img/tf1_62_M_ss1.jpeg'></img>,3,NA,exp,NA,0,<img src='img/tf1_62_T1_ss1_md.jpeg'></img>,0,TRUE,NA,sub129
NA,html-keyboard-response,137,344155,0.0-10.0-0.62,"""event"",""trial"",""time""
""focus"",""0"",""7291""
""fullscreenenter"",""0"",""9999""
","
","""event"",""trial"",""time""
""focus"",""0"",""7291""
","""event"",""trial"",""time""
""fullscreenenter"",""0"",""9999""
","
",null,"<div style=""font-size:60px;"">+</div>",NA,null,fixation,2020-06-22T22:01:09Z,NA,NA,NA,NA,NA,sub129
NA,mars-trial,138,345970,0.0-10.0-1.62,"""event"",""trial"",""time""
""focus"",""0"",""7291""
""fullscreenenter"",""0"",""9999""
","
","""event"",""trial"",""time""
""focus"",""0"",""7291""
","""event"",""trial"",""time""
""fullscreenenter"",""0"",""9999""
","
",1211,<img style='border: 4px solid darkgrey;' src='img/tf1_63_M_ss2.jpeg'></img>,2,NA,exp,NA,1,<img src='img/tf1_63_T1_ss2_md.jpeg'></img>,0,FALSE,NA,sub129
NA,html-keyboard-response,139,346472,0.0-10.0-0.63,"""event"",""trial"",""time""
""focus"",""0"",""7291""
""fullscreenenter"",""0"",""9999""
","
","""event"",""trial"",""time""
""focus"",""0"",""7291""
","""event"",""trial"",""time""
""fullscreenenter"",""0"",""9999""
","
",null,"<div style=""font-size:60px;"">+</div>",NA,null,fixation,2020-06-22T22:01:11Z,NA,NA,NA,NA,NA,sub129
NA,mars-trial,140,347705,0.0-10.0-1.63,"""event"",""trial"",""time""
""focus"",""0"",""7291""
""fullscreenenter"",""0"",""9999""
","
","""event"",""trial"",""time""
""focus"",""0"",""7291""
","""event"",""trial"",""time""
""fullscreenenter"",""0"",""9999""
","
",629.9999999999418,<img style='border: 4px solid darkgrey;' src='img/tf1_64_M_ss3.jpeg'></img>,1,NA,exp,NA,1,<img src='img/tf1_64_T1_ss3_md.jpeg'></img>,0,FALSE,NA,sub129
NA,html-keyboard-response,141,348206,0.0-10.0-0.64,"""event"",""trial"",""time""
""focus"",""0"",""7291""
""fullscreenenter"",""0"",""9999""
","
","""event"",""trial"",""time""
""focus"",""0"",""7291""
","""event"",""trial"",""time""
""fullscreenenter"",""0"",""9999""
","
",null,"<div style=""font-size:60px;"">+</div>",NA,null,fixation,2020-06-22T22:01:13Z,NA,NA,NA,NA,NA,sub129
NA,mars-trial,142,350509,0.0-10.0-1.64,"""event"",""trial"",""time""
""focus"",""0"",""7291""
""fullscreenenter"",""0"",""9999""
","
","""event"",""trial"",""time""
""focus"",""0"",""7291""
","""event"",""trial"",""time""
""fullscreenenter"",""0"",""9999""
","
",1699,<img style='border: 4px solid darkgrey;' src='img/tf1_65_M_ss1.jpeg'></img>,0,NA,exp,NA,3,<img src='img/tf1_65_T1_ss1_md.jpeg'></img>,0,FALSE,NA,sub129
NA,html-keyboard-response,143,351011,0.0-10.0-0.65,"""event"",""trial"",""time""
""focus"",""0"",""7291""
""fullscreenenter"",""0"",""9999""
","
","""event"",""trial"",""time""
""focus"",""0"",""7291""
","""event"",""trial"",""time""
""fullscreenenter"",""0"",""9999""
","
",null,"<div style=""font-size:60px;"">+</div>",NA,null,fixation,2020-06-22T22:01:16Z,NA,NA,NA,NA,NA,sub129
NA,mars-trial,144,356391,0.0-10.0-1.65,"""event"",""trial"",""time""
""focus"",""0"",""7291""
""fullscreenenter"",""0"",""9999""
","
","""event"",""trial"",""time""
""focus"",""0"",""7291""
","""event"",""trial"",""time""
""fullscreenenter"",""0"",""9999""
","
",4777,<img style='border: 4px solid darkgrey;' src='img/tf1_66_M_ss2.jpeg'></img>,2,NA,exp,NA,3,<img src='img/tf1_66_T1_ss2_md.jpeg'></img>,0,FALSE,NA,sub129
NA,html-keyboard-response,145,356893,0.0-10.0-0.66,"""event"",""trial"",""time""
""focus"",""0"",""7291""
""fullscreenenter"",""0"",""9999""
","
","""event"",""trial"",""time""
""focus"",""0"",""7291""
","""event"",""trial"",""time""
""fullscreenenter"",""0"",""9999""
","
",null,"<div style=""font-size:60px;"">+</div>",NA,null,fixation,2020-06-22T22:01:21Z,NA,NA,NA,NA,NA,sub129
NA,mars-trial,146,363166,0.0-10.0-1.66,"""event"",""trial"",""time""
""focus"",""0"",""7291""
""fullscreenenter"",""0"",""9999""
","
","""event"",""trial"",""time""
""focus"",""0"",""7291""
","""event"",""trial"",""time""
""fullscreenenter"",""0"",""9999""
","
",5670,<img style='border: 4px solid darkgrey;' src='img/tf1_67_M_ss3.jpeg'></img>,2,NA,exp,NA,0,<img src='img/tf1_67_T1_ss3_md.jpeg'></img>,0,TRUE,NA,sub129
NA,html-keyboard-response,147,363667,0.0-10.0-0.67,"""event"",""trial"",""time""
""focus"",""0"",""7291""
""fullscreenenter"",""0"",""9999""
","
","""event"",""trial"",""time""
""focus"",""0"",""7291""
","""event"",""trial"",""time""
""fullscreenenter"",""0"",""9999""
","
",null,"<div style=""font-size:60px;"">+</div>",NA,null,fixation,2020-06-22T22:01:28Z,NA,NA,NA,NA,NA,sub129
NA,mars-trial,148,365783,0.0-10.0-1.67,"""event"",""trial"",""time""
""focus"",""0"",""7291""
""fullscreenenter"",""0"",""9999""
","
","""event"",""trial"",""time""
""focus"",""0"",""7291""
","""event"",""trial"",""time""
""fullscreenenter"",""0"",""9999""
","
",1512,<img style='border: 4px solid darkgrey;' src='img/tf1_68_M_ss1.jpeg'></img>,3,NA,exp,NA,0,<img src='img/tf1_68_T1_ss1_md.jpeg'></img>,0,TRUE,NA,sub129
NA,html-keyboard-response,149,366285,0.0-10.0-0.68,"""event"",""trial"",""time""
""focus"",""0"",""7291""
""fullscreenenter"",""0"",""9999""
","
","""event"",""trial"",""time""
""focus"",""0"",""7291""
","""event"",""trial"",""time""
""fullscreenenter"",""0"",""9999""
","
",null,"<div style=""font-size:60px;"">+</div>",NA,null,fixation,2020-06-22T22:01:31Z,NA,NA,NA,NA,NA,sub129
NA,mars-trial,150,371294,0.0-10.0-1.68,"""event"",""trial"",""time""
""focus"",""0"",""7291""
""fullscreenenter"",""0"",""9999""
","
","""event"",""trial"",""time""
""focus"",""0"",""7291""
","""event"",""trial"",""time""
""fullscreenenter"",""0"",""9999""
","
",4405,<img style='border: 4px solid darkgrey;' src='img/tf1_69_M_ss2.jpeg'></img>,2,NA,exp,NA,3,<img src='img/tf1_69_T1_ss2_md.jpeg'></img>,0,FALSE,NA,sub129
NA,html-keyboard-response,151,371796,0.0-10.0-0.69,"""event"",""trial"",""time""
""focus"",""0"",""7291""
""fullscreenenter"",""0"",""9999""
","
","""event"",""trial"",""time""
""focus"",""0"",""7291""
","""event"",""trial"",""time""
""fullscreenenter"",""0"",""9999""
","
",null,"<div style=""font-size:60px;"">+</div>",NA,null,fixation,2020-06-22T22:01:36Z,NA,NA,NA,NA,NA,sub129
NA,mars-trial,152,376598,0.0-10.0-1.69,"""event"",""trial"",""time""
""focus"",""0"",""7291""
""fullscreenenter"",""0"",""9999""
","
","""event"",""trial"",""time""
""focus"",""0"",""7291""
","""event"",""trial"",""time""
""fullscreenenter"",""0"",""9999""
","
",4198,<img style='border: 4px solid darkgrey;' src='img/tf1_70_M_ss3.jpeg'></img>,3,NA,exp,NA,0,<img src='img/tf1_70_T1_ss3_md.jpeg'></img>,0,TRUE,NA,sub129
NA,html-keyboard-response,153,377100,0.0-10.0-0.70,"""event"",""trial"",""time""
""focus"",""0"",""7291""
""fullscreenenter"",""0"",""9999""
","
","""event"",""trial"",""time""
""focus"",""0"",""7291""
","""event"",""trial"",""time""
""fullscreenenter"",""0"",""9999""
","
",null,"<div style=""font-size:60px;"">+</div>",NA,null,fixation,2020-06-22T22:01:42Z,NA,NA,NA,NA,NA,sub129
NA,mars-trial,154,380190,0.0-10.0-1.70,"""event"",""trial"",""time""
""focus"",""0"",""7291""
""fullscreenenter"",""0"",""9999""
","
","""event"",""trial"",""time""
""focus"",""0"",""7291""
","""event"",""trial"",""time""
""fullscreenenter"",""0"",""9999""
","
",2486,<img style='border: 4px solid darkgrey;' src='img/tf1_71_M_ss1.jpeg'></img>,2,NA,exp,NA,0,<img src='img/tf1_71_T1_ss1_md.jpeg'></img>,0,TRUE,NA,sub129
NA,html-keyboard-response,155,380692,0.0-10.0-0.71,"""event"",""trial"",""time""
""focus"",""0"",""7291""
""fullscreenenter"",""0"",""9999""
","
","""event"",""trial"",""time""
""focus"",""0"",""7291""
","""event"",""trial"",""time""
""fullscreenenter"",""0"",""9999""
","
",null,"<div style=""font-size:60px;"">+</div>",NA,null,fixation,2020-06-22T22:01:45Z,NA,NA,NA,NA,NA,sub129
NA,mars-trial,156,383347,0.0-10.0-1.71,"""event"",""trial"",""time""
""focus"",""0"",""7291""
""fullscreenenter"",""0"",""9999""
","
","""event"",""trial"",""time""
""focus"",""0"",""7291""
","""event"",""trial"",""time""
""fullscreenenter"",""0"",""9999""
","
",2052,<img style='border: 4px solid darkgrey;' src='img/tf1_72_M_ss2.jpeg'></img>,1,NA,exp,NA,2,<img src='img/tf1_72_T1_ss2_md.jpeg'></img>,0,FALSE,NA,sub129
NA,html-keyboard-response,157,383849,0.0-10.0-0.72,"""event"",""trial"",""time""
""focus"",""0"",""7291""
""fullscreenenter"",""0"",""9999""
","
","""event"",""trial"",""time""
""focus"",""0"",""7291""
","""event"",""trial"",""time""
""fullscreenenter"",""0"",""9999""
","
",null,"<div style=""font-size:60px;"">+</div>",NA,null,fixation,2020-06-22T22:01:48Z,NA,NA,NA,NA,NA,sub129
NA,mars-trial,158,392997,0.0-10.0-1.72,"""event"",""trial"",""time""
""focus"",""0"",""7291""
""fullscreenenter"",""0"",""9999""
","
","""event"",""trial"",""time""
""focus"",""0"",""7291""
","""event"",""trial"",""time""
""fullscreenenter"",""0"",""9999""
","
",8544,<img style='border: 4px solid darkgrey;' src='img/tf1_73_M_ss3.jpeg'></img>,1,NA,exp,NA,3,<img src='img/tf1_73_T1_ss3_md.jpeg'></img>,0,FALSE,NA,sub129
NA,html-keyboard-response,159,393499,0.0-10.0-0.73,"""event"",""trial"",""time""
""focus"",""0"",""7291""
""fullscreenenter"",""0"",""9999""
","
","""event"",""trial"",""time""
""focus"",""0"",""7291""
","""event"",""trial"",""time""
""fullscreenenter"",""0"",""9999""
","
",null,"<div style=""font-size:60px;"">+</div>",NA,null,fixation,2020-06-22T22:01:58Z,NA,NA,NA,NA,NA,sub129
NA,mars-trial,160,395216,0.0-10.0-1.73,"""event"",""trial"",""time""
""focus"",""0"",""7291""
""fullscreenenter"",""0"",""9999""
","
","""event"",""trial"",""time""
""focus"",""0"",""7291""
","""event"",""trial"",""time""
""fullscreenenter"",""0"",""9999""
","
",1115,<img style='border: 4px solid darkgrey;' src='img/tf1_74_M_ss1.jpeg'></img>,1,NA,exp,NA,0,<img src='img/tf1_74_T1_ss1_md.jpeg'></img>,0,TRUE,NA,sub129
NA,html-keyboard-response,161,395718,0.0-10.0-0.74,"""event"",""trial"",""time""
""focus"",""0"",""7291""
""fullscreenenter"",""0"",""9999""
","
","""event"",""trial"",""time""
""focus"",""0"",""7291""
","""event"",""trial"",""time""
""fullscreenenter"",""0"",""9999""
","
",null,"<div style=""font-size:60px;"">+</div>",NA,null,fixation,2020-06-22T22:02:00Z,NA,NA,NA,NA,NA,sub129
NA,mars-trial,162,397682,0.0-10.0-1.74,"""event"",""trial"",""time""
""focus"",""0"",""7291""
""fullscreenenter"",""0"",""9999""
","
","""event"",""trial"",""time""
""focus"",""0"",""7291""
","""event"",""trial"",""time""
""fullscreenenter"",""0"",""9999""
","
",1360,<img style='border: 4px solid darkgrey;' src='img/tf1_75_M_ss2.jpeg'></img>,2,NA,exp,NA,1,<img src='img/tf1_75_T1_ss2_md.jpeg'></img>,0,FALSE,NA,sub129
NA,html-keyboard-response,163,398184,0.0-10.0-0.75,"""event"",""trial"",""time""
""focus"",""0"",""7291""
""fullscreenenter"",""0"",""9999""
","
","""event"",""trial"",""time""
""focus"",""0"",""7291""
","""event"",""trial"",""time""
""fullscreenenter"",""0"",""9999""
","
",null,"<div style=""font-size:60px;"">+</div>",NA,null,fixation,2020-06-22T22:02:03Z,NA,NA,NA,NA,NA,sub129
NA,mars-trial,164,408266,0.0-10.0-1.75,"""event"",""trial"",""time""
""focus"",""0"",""7291""
""fullscreenenter"",""0"",""9999""
","
","""event"",""trial"",""time""
""focus"",""0"",""7291""
","""event"",""trial"",""time""
""fullscreenenter"",""0"",""9999""
","
",9478,<img style='border: 4px solid darkgrey;' src='img/tf1_76_M_ss3.jpeg'></img>,2,NA,exp,NA,0,<img src='img/tf1_76_T1_ss3_md.jpeg'></img>,0,TRUE,NA,sub129
NA,html-keyboard-response,165,408768,0.0-10.0-0.76,"""event"",""trial"",""time""
""focus"",""0"",""7291""
""fullscreenenter"",""0"",""9999""
","
","""event"",""trial"",""time""
""focus"",""0"",""7291""
","""event"",""trial"",""time""
""fullscreenenter"",""0"",""9999""
","
",null,"<div style=""font-size:60px;"">+</div>",NA,null,fixation,2020-06-22T22:02:13Z,NA,NA,NA,NA,NA,sub129
NA,mars-trial,166,416767,0.0-10.0-1.76,"""event"",""trial"",""time""
""focus"",""0"",""7291""
""fullscreenenter"",""0"",""9999""
","
","""event"",""trial"",""time""
""focus"",""0"",""7291""
","""event"",""trial"",""time""
""fullscreenenter"",""0"",""9999""
","
",7396.000000000058,<img style='border: 4px solid darkgrey;' src='img/tf1_77_M_ss1.jpeg'></img>,1,NA,exp,NA,2,<img src='img/tf1_77_T1_ss1_md.jpeg'></img>,0,FALSE,NA,sub129
NA,html-keyboard-response,167,417269,0.0-10.0-0.77,"""event"",""trial"",""time""
""focus"",""0"",""7291""
""fullscreenenter"",""0"",""9999""
","
","""event"",""trial"",""time""
""focus"",""0"",""7291""
","""event"",""trial"",""time""
""fullscreenenter"",""0"",""9999""
","
",null,"<div style=""font-size:60px;"">+</div>",NA,null,fixation,2020-06-22T22:02:22Z,NA,NA,NA,NA,NA,sub129
NA,mars-trial,168,418881,0.0-10.0-1.77,"""event"",""trial"",""time""
""focus"",""0"",""7291""
""fullscreenenter"",""0"",""9999""
","
","""event"",""trial"",""time""
""focus"",""0"",""7291""
","""event"",""trial"",""time""
""fullscreenenter"",""0"",""9999""
","
",1007.9999999999418,<img style='border: 4px solid darkgrey;' src='img/tf1_78_M_ss2.jpeg'></img>,1,NA,exp,NA,3,<img src='img/tf1_78_T1_ss2_md.jpeg'></img>,0,FALSE,NA,sub129
NA,html-keyboard-response,169,419383,0.0-10.0-0.78,"""event"",""trial"",""time""
""focus"",""0"",""7291""
""fullscreenenter"",""0"",""9999""
","
","""event"",""trial"",""time""
""focus"",""0"",""7291""
","""event"",""trial"",""time""
""fullscreenenter"",""0"",""9999""
","
",null,"<div style=""font-size:60px;"">+</div>",NA,null,fixation,2020-06-22T22:02:24Z,NA,NA,NA,NA,NA,sub129
NA,mars-trial,170,420343,0.0-10.0-1.78,"""event"",""trial"",""time""
""focus"",""0"",""7291""
""fullscreenenter"",""0"",""9999""
","
","""event"",""trial"",""time""
""focus"",""0"",""7291""
","""event"",""trial"",""time""
""fullscreenenter"",""0"",""9999""
","
",356.9999999999418,<img style='border: 4px solid darkgrey;' src='img/tf1_79_M_ss3.jpeg'></img>,0,NA,exp,NA,1,<img src='img/tf1_79_T1_ss3_md.jpeg'></img>,0,FALSE,NA,sub129
NA,html-keyboard-response,171,420845,0.0-10.0-0.79,"""event"",""trial"",""time""
""focus"",""0"",""7291""
""fullscreenenter"",""0"",""9999""
","
","""event"",""trial"",""time""
""focus"",""0"",""7291""
","""event"",""trial"",""time""
""fullscreenenter"",""0"",""9999""
","
",null,"<div style=""font-size:60px;"">+</div>",NA,null,fixation,2020-06-22T22:02:25Z,NA,NA,NA,NA,NA,sub129
NA,mars-trial,172,422198,0.0-10.0-1.79,"""event"",""trial"",""time""
""focus"",""0"",""7291""
""fullscreenenter"",""0"",""9999""
","
","""event"",""trial"",""time""
""focus"",""0"",""7291""
","""event"",""trial"",""time""
""fullscreenenter"",""0"",""9999""
","
",750,<img style='border: 4px solid darkgrey;' src='img/tf1_80_M_ss1.jpeg'></img>,2,NA,exp,NA,0,<img src='img/tf1_80_T1_ss1_md.jpeg'></img>,0,TRUE,NA,sub129
NA,audio-button-response,173,426133,0.0-11.0,"""event"",""trial"",""time""
""focus"",""0"",""7291""
""fullscreenenter"",""0"",""9999""
","
","""event"",""trial"",""time""
""focus"",""0"",""7291""
","""event"",""trial"",""time""
""fullscreenenter"",""0"",""9999""
","
",3933.999999999942,audio/mars_instructions_slide5.wav,0,NA,NA,NA,NA,NA,NA,NA,NA,sub129
