success,trial_type,trial_index,time_elapsed,internal_node_id,interactions,blur_events,focus_events,fullscreenenter_events,fullscreenexit_events,rt,stimulus,button_pressed,key_press,part,timestamp,unshuffled_button,correct_response,correct_button,correct,value,subject_id
TRUE,fullscreen,0,147461,0.0-0.0,"""event"",""trial"",""time""
""focus"",""0"",""4669""
""blur"",""0"",""4670""
""focus"",""0"",""141310""
""fullscreenenter"",""0"",""146489""
","""event"",""trial"",""time""
""blur"",""0"",""4670""
","""event"",""trial"",""time""
""focus"",""0"",""4669""
""focus"",""0"",""141310""
","""event"",""trial"",""time""
""fullscreenenter"",""0"",""146489""
","
",NA,NA,NA,NA,NA,NA,NA,NA,NA,NA,NA,sub85
NA,pavlovia,1,147464,0.0-1.0,"""event"",""trial"",""time""
""focus"",""0"",""4669""
""blur"",""0"",""4670""
""focus"",""0"",""141310""
""fullscreenenter"",""0"",""146489""
","""event"",""trial"",""time""
""blur"",""0"",""4670""
","""event"",""trial"",""time""
""focus"",""0"",""4669""
""focus"",""0"",""141310""
","""event"",""trial"",""time""
""fullscreenenter"",""0"",""146489""
","
",NA,NA,NA,NA,NA,NA,NA,NA,NA,NA,NA,sub85
NA,html-button-response,2,149892,0.0-2.0,"""event"",""trial"",""time""
""focus"",""0"",""4669""
""blur"",""0"",""4670""
""focus"",""0"",""141310""
""fullscreenenter"",""0"",""146489""
","""event"",""trial"",""time""
""blur"",""0"",""4670""
","""event"",""trial"",""time""
""focus"",""0"",""4669""
""focus"",""0"",""141310""
","""event"",""trial"",""time""
""fullscreenenter"",""0"",""146489""
","
",2426.275000005262,<p>Welcome! Press START to begin.</p><br>,0,NA,NA,NA,NA,NA,NA,NA,NA,sub85
NA,audio-button-response,3,1267768,0.0-3.0,"""event"",""trial"",""time""
""focus"",""0"",""4669""
""blur"",""0"",""4670""
""focus"",""0"",""141310""
""fullscreenenter"",""0"",""146489""
","""event"",""trial"",""time""
""blur"",""0"",""4670""
","""event"",""trial"",""time""
""focus"",""0"",""4669""
""focus"",""0"",""141310""
","""event"",""trial"",""time""
""fullscreenenter"",""0"",""146489""
","
",1117926.610000024,audio/mars_instructions_slide2.wav,0,NA,NA,NA,NA,NA,NA,NA,NA,sub85
NA,audio-button-response,4,1277590,0.0-4.0,"""event"",""trial"",""time""
""focus"",""0"",""4669""
""blur"",""0"",""4670""
""focus"",""0"",""141310""
""fullscreenenter"",""0"",""146489""
","""event"",""trial"",""time""
""blur"",""0"",""4670""
","""event"",""trial"",""time""
""focus"",""0"",""4669""
""focus"",""0"",""141310""
","""event"",""trial"",""time""
""fullscreenenter"",""0"",""146489""
","
",9821.040000009816,audio/mars_instructions_slide3.wav,0,NA,NA,NA,NA,NA,NA,NA,NA,sub85
NA,html-keyboard-response,5,1278092,0.0-5.0-0.0,"""event"",""trial"",""time""
""focus"",""0"",""4669""
""blur"",""0"",""4670""
""focus"",""0"",""141310""
""fullscreenenter"",""0"",""146489""
","""event"",""trial"",""time""
""blur"",""0"",""4670""
","""event"",""trial"",""time""
""focus"",""0"",""4669""
""focus"",""0"",""141310""
","""event"",""trial"",""time""
""fullscreenenter"",""0"",""146489""
","
",null,"<div style=""font-size:60px;"">+</div>",NA,null,fixation,2020-06-17T01:30:30Z,NA,NA,NA,NA,NA,sub85
NA,mars-trial,6,1285734,0.0-5.0-1.0,"""event"",""trial"",""time""
""focus"",""0"",""4669""
""blur"",""0"",""4670""
""focus"",""0"",""141310""
""fullscreenenter"",""0"",""146489""
","""event"",""trial"",""time""
""blur"",""0"",""4670""
","""event"",""trial"",""time""
""focus"",""0"",""4669""
""focus"",""0"",""141310""
","""event"",""trial"",""time""
""fullscreenenter"",""0"",""146489""
","
",5532.914999988861,<img style='border: 4px solid darkgrey;' src='practice/pt1_M1.png'></img>,1,NA,practice,NA,0,<img src='practice/pt1_T1.png'></img>,0,TRUE,NA,sub85
NA,html-keyboard-response,7,1286237,0.0-6.0-0.0,"""event"",""trial"",""time""
""focus"",""0"",""4669""
""blur"",""0"",""4670""
""focus"",""0"",""141310""
""fullscreenenter"",""0"",""146489""
","""event"",""trial"",""time""
""blur"",""0"",""4670""
","""event"",""trial"",""time""
""focus"",""0"",""4669""
""focus"",""0"",""141310""
","""event"",""trial"",""time""
""fullscreenenter"",""0"",""146489""
","
",null,"<div style=""font-size:60px;"">+</div>",NA,null,fixation,2020-06-17T01:30:38Z,NA,NA,NA,NA,NA,sub85
NA,mars-trial,8,1291955,0.0-6.0-1.0,"""event"",""trial"",""time""
""focus"",""0"",""4669""
""blur"",""0"",""4670""
""focus"",""0"",""141310""
""fullscreenenter"",""0"",""146489""
","""event"",""trial"",""time""
""blur"",""0"",""4670""
","""event"",""trial"",""time""
""focus"",""0"",""4669""
""focus"",""0"",""141310""
","""event"",""trial"",""time""
""fullscreenenter"",""0"",""146489""
","
",3610.465000005206,<img style='border: 4px solid darkgrey;' src='practice/pt2_M1.png'></img>,0,NA,practice,NA,0,<img src='practice/pt2_T1.png'></img>,0,TRUE,NA,sub85
NA,html-keyboard-response,9,1292460,0.0-7.0-0.0,"""event"",""trial"",""time""
""focus"",""0"",""4669""
""blur"",""0"",""4670""
""focus"",""0"",""141310""
""fullscreenenter"",""0"",""146489""
","""event"",""trial"",""time""
""blur"",""0"",""4670""
","""event"",""trial"",""time""
""focus"",""0"",""4669""
""focus"",""0"",""141310""
","""event"",""trial"",""time""
""fullscreenenter"",""0"",""146489""
","
",null,"<div style=""font-size:60px;"">+</div>",NA,null,fixation,2020-06-17T01:30:44Z,NA,NA,NA,NA,NA,sub85
NA,mars-trial,10,1296994,0.0-7.0-1.0,"""event"",""trial"",""time""
""focus"",""0"",""4669""
""blur"",""0"",""4670""
""focus"",""0"",""141310""
""fullscreenenter"",""0"",""146489""
","""event"",""trial"",""time""
""blur"",""0"",""4670""
","""event"",""trial"",""time""
""focus"",""0"",""4669""
""focus"",""0"",""141310""
","""event"",""trial"",""time""
""fullscreenenter"",""0"",""146489""
","
",2426.934999995865,<img style='border: 4px solid darkgrey;' src='practice/pt3_M1.png'></img>,0,NA,practice,NA,0,<img src='practice/pt3_T1.png'></img>,0,TRUE,NA,sub85
NA,audio-button-response,11,1299898,0.0-8.0,"""event"",""trial"",""time""
""focus"",""0"",""4669""
""blur"",""0"",""4670""
""focus"",""0"",""141310""
""fullscreenenter"",""0"",""146489""
","""event"",""trial"",""time""
""blur"",""0"",""4670""
","""event"",""trial"",""time""
""focus"",""0"",""4669""
""focus"",""0"",""141310""
","""event"",""trial"",""time""
""fullscreenenter"",""0"",""146489""
","
",2903.099999995902,audio/mars_instructions_slide4.wav,0,NA,NA,NA,NA,NA,NA,NA,NA,sub85
NA,call-function,12,1299899,0.0-9.0,"""event"",""trial"",""time""
""focus"",""0"",""4669""
""blur"",""0"",""4670""
""focus"",""0"",""141310""
""fullscreenenter"",""0"",""146489""
","""event"",""trial"",""time""
""blur"",""0"",""4670""
","""event"",""trial"",""time""
""focus"",""0"",""4669""
""focus"",""0"",""141310""
","""event"",""trial"",""time""
""fullscreenenter"",""0"",""146489""
","
",NA,NA,NA,NA,NA,NA,NA,NA,NA,NA,NA,sub85
NA,html-keyboard-response,13,1300401,0.0-10.0-0.0,"""event"",""trial"",""time""
""focus"",""0"",""4669""
""blur"",""0"",""4670""
""focus"",""0"",""141310""
""fullscreenenter"",""0"",""146489""
","""event"",""trial"",""time""
""blur"",""0"",""4670""
","""event"",""trial"",""time""
""focus"",""0"",""4669""
""focus"",""0"",""141310""
","""event"",""trial"",""time""
""fullscreenenter"",""0"",""146489""
","
",null,"<div style=""font-size:60px;"">+</div>",NA,null,fixation,2020-06-17T01:30:52Z,NA,NA,NA,NA,NA,sub85
NA,mars-trial,14,1304012,0.0-10.0-1.0,"""event"",""trial"",""time""
""focus"",""0"",""4669""
""blur"",""0"",""4670""
""focus"",""0"",""141310""
""fullscreenenter"",""0"",""146489""
","""event"",""trial"",""time""
""blur"",""0"",""4670""
","""event"",""trial"",""time""
""focus"",""0"",""4669""
""focus"",""0"",""141310""
","""event"",""trial"",""time""
""fullscreenenter"",""0"",""146489""
","
",3003.4450000093784,<img style='border: 4px solid darkgrey;' src='img/tf1_1_M_ss3.jpeg'></img>,0,NA,exp,NA,0,<img src='img/tf1_1_T1_ss3_md.jpeg'></img>,0,TRUE,NA,sub85
NA,html-keyboard-response,15,1304515,0.0-10.0-0.1,"""event"",""trial"",""time""
""focus"",""0"",""4669""
""blur"",""0"",""4670""
""focus"",""0"",""141310""
""fullscreenenter"",""0"",""146489""
","""event"",""trial"",""time""
""blur"",""0"",""4670""
","""event"",""trial"",""time""
""focus"",""0"",""4669""
""focus"",""0"",""141310""
","""event"",""trial"",""time""
""fullscreenenter"",""0"",""146489""
","
",null,"<div style=""font-size:60px;"">+</div>",NA,null,fixation,2020-06-17T01:30:56Z,NA,NA,NA,NA,NA,sub85
NA,mars-trial,16,1308760,0.0-10.0-1.1,"""event"",""trial"",""time""
""focus"",""0"",""4669""
""blur"",""0"",""4670""
""focus"",""0"",""141310""
""fullscreenenter"",""0"",""146489""
","""event"",""trial"",""time""
""blur"",""0"",""4670""
","""event"",""trial"",""time""
""focus"",""0"",""4669""
""focus"",""0"",""141310""
","""event"",""trial"",""time""
""fullscreenenter"",""0"",""146489""
","
",3638.729999976931,<img style='border: 4px solid darkgrey;' src='img/tf1_2_M_ss1.jpeg'></img>,0,NA,exp,NA,0,<img src='img/tf1_2_T1_ss1_md.jpeg'></img>,0,TRUE,NA,sub85
NA,html-keyboard-response,17,1309262,0.0-10.0-0.2,"""event"",""trial"",""time""
""focus"",""0"",""4669""
""blur"",""0"",""4670""
""focus"",""0"",""141310""
""fullscreenenter"",""0"",""146489""
","""event"",""trial"",""time""
""blur"",""0"",""4670""
","""event"",""trial"",""time""
""focus"",""0"",""4669""
""focus"",""0"",""141310""
","""event"",""trial"",""time""
""fullscreenenter"",""0"",""146489""
","
",null,"<div style=""font-size:60px;"">+</div>",NA,null,fixation,2020-06-17T01:31:01Z,NA,NA,NA,NA,NA,sub85
NA,mars-trial,18,1312989,0.0-10.0-1.2,"""event"",""trial"",""time""
""focus"",""0"",""4669""
""blur"",""0"",""4670""
""focus"",""0"",""141310""
""fullscreenenter"",""0"",""146489""
","""event"",""trial"",""time""
""blur"",""0"",""4670""
","""event"",""trial"",""time""
""focus"",""0"",""4669""
""focus"",""0"",""141310""
","""event"",""trial"",""time""
""fullscreenenter"",""0"",""146489""
","
",3122.5200000044424,<img style='border: 4px solid darkgrey;' src='img/tf1_3_M_ss2.jpeg'></img>,3,NA,exp,NA,0,<img src='img/tf1_3_T1_ss2_md.jpeg'></img>,0,TRUE,NA,sub85
NA,html-keyboard-response,19,1313491,0.0-10.0-0.3,"""event"",""trial"",""time""
""focus"",""0"",""4669""
""blur"",""0"",""4670""
""focus"",""0"",""141310""
""fullscreenenter"",""0"",""146489""
","""event"",""trial"",""time""
""blur"",""0"",""4670""
","""event"",""trial"",""time""
""focus"",""0"",""4669""
""focus"",""0"",""141310""
","""event"",""trial"",""time""
""fullscreenenter"",""0"",""146489""
","
",null,"<div style=""font-size:60px;"">+</div>",NA,null,fixation,2020-06-17T01:31:05Z,NA,NA,NA,NA,NA,sub85
NA,mars-trial,20,1318683,0.0-10.0-1.3,"""event"",""trial"",""time""
""focus"",""0"",""4669""
""blur"",""0"",""4670""
""focus"",""0"",""141310""
""fullscreenenter"",""0"",""146489""
","""event"",""trial"",""time""
""blur"",""0"",""4670""
","""event"",""trial"",""time""
""focus"",""0"",""4669""
""focus"",""0"",""141310""
","""event"",""trial"",""time""
""fullscreenenter"",""0"",""146489""
","
",4586.135000019567,<img style='border: 4px solid darkgrey;' src='img/tf1_4_M_ss3.jpeg'></img>,0,NA,exp,NA,0,<img src='img/tf1_4_T1_ss3_md.jpeg'></img>,0,TRUE,NA,sub85
NA,html-keyboard-response,21,1319185,0.0-10.0-0.4,"""event"",""trial"",""time""
""focus"",""0"",""4669""
""blur"",""0"",""4670""
""focus"",""0"",""141310""
""fullscreenenter"",""0"",""146489""
","""event"",""trial"",""time""
""blur"",""0"",""4670""
","""event"",""trial"",""time""
""focus"",""0"",""4669""
""focus"",""0"",""141310""
","""event"",""trial"",""time""
""fullscreenenter"",""0"",""146489""
","
",null,"<div style=""font-size:60px;"">+</div>",NA,null,fixation,2020-06-17T01:31:11Z,NA,NA,NA,NA,NA,sub85
NA,mars-trial,22,1322677,0.0-10.0-1.4,"""event"",""trial"",""time""
""focus"",""0"",""4669""
""blur"",""0"",""4670""
""focus"",""0"",""141310""
""fullscreenenter"",""0"",""146489""
","""event"",""trial"",""time""
""blur"",""0"",""4670""
","""event"",""trial"",""time""
""focus"",""0"",""4669""
""focus"",""0"",""141310""
","""event"",""trial"",""time""
""fullscreenenter"",""0"",""146489""
","
",2883.00000000163,<img style='border: 4px solid darkgrey;' src='img/tf1_5_M_ss1.jpeg'></img>,0,NA,exp,NA,0,<img src='img/tf1_5_T1_ss1_md.jpeg'></img>,0,TRUE,NA,sub85
NA,html-keyboard-response,23,1323179,0.0-10.0-0.5,"""event"",""trial"",""time""
""focus"",""0"",""4669""
""blur"",""0"",""4670""
""focus"",""0"",""141310""
""fullscreenenter"",""0"",""146489""
","""event"",""trial"",""time""
""blur"",""0"",""4670""
","""event"",""trial"",""time""
""focus"",""0"",""4669""
""focus"",""0"",""141310""
","""event"",""trial"",""time""
""fullscreenenter"",""0"",""146489""
","
",null,"<div style=""font-size:60px;"">+</div>",NA,null,fixation,2020-06-17T01:31:15Z,NA,NA,NA,NA,NA,sub85
NA,mars-trial,24,1336119,0.0-10.0-1.5,"""event"",""trial"",""time""
""focus"",""0"",""4669""
""blur"",""0"",""4670""
""focus"",""0"",""141310""
""fullscreenenter"",""0"",""146489""
","""event"",""trial"",""time""
""blur"",""0"",""4670""
","""event"",""trial"",""time""
""focus"",""0"",""4669""
""focus"",""0"",""141310""
","""event"",""trial"",""time""
""fullscreenenter"",""0"",""146489""
","
",12333.110000006855,<img style='border: 4px solid darkgrey;' src='img/tf1_6_M_ss2.jpeg'></img>,0,NA,exp,NA,1,<img src='img/tf1_6_T1_ss2_md.jpeg'></img>,0,FALSE,NA,sub85
NA,html-keyboard-response,25,1336621,0.0-10.0-0.6,"""event"",""trial"",""time""
""focus"",""0"",""4669""
""blur"",""0"",""4670""
""focus"",""0"",""141310""
""fullscreenenter"",""0"",""146489""
","""event"",""trial"",""time""
""blur"",""0"",""4670""
","""event"",""trial"",""time""
""focus"",""0"",""4669""
""focus"",""0"",""141310""
","""event"",""trial"",""time""
""fullscreenenter"",""0"",""146489""
","
",null,"<div style=""font-size:60px;"">+</div>",NA,null,fixation,2020-06-17T01:31:29Z,NA,NA,NA,NA,NA,sub85
NA,mars-trial,26,1341789,0.0-10.0-1.6,"""event"",""trial"",""time""
""focus"",""0"",""4669""
""blur"",""0"",""4670""
""focus"",""0"",""141310""
""fullscreenenter"",""0"",""146489""
","""event"",""trial"",""time""
""blur"",""0"",""4670""
","""event"",""trial"",""time""
""focus"",""0"",""4669""
""focus"",""0"",""141310""
","""event"",""trial"",""time""
""fullscreenenter"",""0"",""146489""
","
",4562.570000009146,<img style='border: 4px solid darkgrey;' src='img/tf1_7_M_ss3.jpeg'></img>,3,NA,exp,NA,0,<img src='img/tf1_7_T1_ss3_md.jpeg'></img>,0,TRUE,NA,sub85
NA,html-keyboard-response,27,1342291,0.0-10.0-0.7,"""event"",""trial"",""time""
""focus"",""0"",""4669""
""blur"",""0"",""4670""
""focus"",""0"",""141310""
""fullscreenenter"",""0"",""146489""
","""event"",""trial"",""time""
""blur"",""0"",""4670""
","""event"",""trial"",""time""
""focus"",""0"",""4669""
""focus"",""0"",""141310""
","""event"",""trial"",""time""
""fullscreenenter"",""0"",""146489""
","
",null,"<div style=""font-size:60px;"">+</div>",NA,null,fixation,2020-06-17T01:31:34Z,NA,NA,NA,NA,NA,sub85
NA,mars-trial,28,1363335,0.0-10.0-1.7,"""event"",""trial"",""time""
""focus"",""0"",""4669""
""blur"",""0"",""4670""
""focus"",""0"",""141310""
""fullscreenenter"",""0"",""146489""
","""event"",""trial"",""time""
""blur"",""0"",""4670""
","""event"",""trial"",""time""
""focus"",""0"",""4669""
""focus"",""0"",""141310""
","""event"",""trial"",""time""
""fullscreenenter"",""0"",""146489""
","
",20437.739999993937,<img style='border: 4px solid darkgrey;' src='img/tf1_8_M_ss1.jpeg'></img>,0,NA,exp,NA,0,<img src='img/tf1_8_T1_ss1_md.jpeg'></img>,0,TRUE,NA,sub85
NA,html-keyboard-response,29,1363836,0.0-10.0-0.8,"""event"",""trial"",""time""
""focus"",""0"",""4669""
""blur"",""0"",""4670""
""focus"",""0"",""141310""
""fullscreenenter"",""0"",""146489""
","""event"",""trial"",""time""
""blur"",""0"",""4670""
","""event"",""trial"",""time""
""focus"",""0"",""4669""
""focus"",""0"",""141310""
","""event"",""trial"",""time""
""fullscreenenter"",""0"",""146489""
","
",null,"<div style=""font-size:60px;"">+</div>",NA,null,fixation,2020-06-17T01:31:56Z,NA,NA,NA,NA,NA,sub85
NA,mars-trial,30,1372121,0.0-10.0-1.8,"""event"",""trial"",""time""
""focus"",""0"",""4669""
""blur"",""0"",""4670""
""focus"",""0"",""141310""
""fullscreenenter"",""0"",""146489""
","""event"",""trial"",""time""
""blur"",""0"",""4670""
","""event"",""trial"",""time""
""focus"",""0"",""4669""
""focus"",""0"",""141310""
","""event"",""trial"",""time""
""fullscreenenter"",""0"",""146489""
","
",7676.504999981262,<img style='border: 4px solid darkgrey;' src='img/tf1_9_M_ss2.jpeg'></img>,0,NA,exp,NA,0,<img src='img/tf1_9_T1_ss2_md.jpeg'></img>,0,TRUE,NA,sub85
NA,html-keyboard-response,31,1372622,0.0-10.0-0.9,"""event"",""trial"",""time""
""focus"",""0"",""4669""
""blur"",""0"",""4670""
""focus"",""0"",""141310""
""fullscreenenter"",""0"",""146489""
","""event"",""trial"",""time""
""blur"",""0"",""4670""
","""event"",""trial"",""time""
""focus"",""0"",""4669""
""focus"",""0"",""141310""
","""event"",""trial"",""time""
""fullscreenenter"",""0"",""146489""
","
",null,"<div style=""font-size:60px;"">+</div>",NA,null,fixation,2020-06-17T01:32:05Z,NA,NA,NA,NA,NA,sub85
NA,mars-trial,32,1393945,0.0-10.0-1.9,"""event"",""trial"",""time""
""focus"",""0"",""4669""
""blur"",""0"",""4670""
""focus"",""0"",""141310""
""fullscreenenter"",""0"",""146489""
","""event"",""trial"",""time""
""blur"",""0"",""4670""
","""event"",""trial"",""time""
""focus"",""0"",""4669""
""focus"",""0"",""141310""
","""event"",""trial"",""time""
""fullscreenenter"",""0"",""146489""
","
",20718.15999998944,<img style='border: 4px solid darkgrey;' src='img/tf1_10_M_ss3.jpeg'></img>,3,NA,exp,NA,0,<img src='img/tf1_10_T1_ss3_md.jpeg'></img>,0,TRUE,NA,sub85
NA,html-keyboard-response,33,1394446,0.0-10.0-0.10,"""event"",""trial"",""time""
""focus"",""0"",""4669""
""blur"",""0"",""4670""
""focus"",""0"",""141310""
""fullscreenenter"",""0"",""146489""
","""event"",""trial"",""time""
""blur"",""0"",""4670""
","""event"",""trial"",""time""
""focus"",""0"",""4669""
""focus"",""0"",""141310""
","""event"",""trial"",""time""
""fullscreenenter"",""0"",""146489""
","
",null,"<div style=""font-size:60px;"">+</div>",NA,null,fixation,2020-06-17T01:32:26Z,NA,NA,NA,NA,NA,sub85
NA,mars-trial,34,1424551,0.0-10.0-1.10,"""event"",""trial"",""time""
""focus"",""0"",""4669""
""blur"",""0"",""4670""
""focus"",""0"",""141310""
""fullscreenenter"",""0"",""146489""
","""event"",""trial"",""time""
""blur"",""0"",""4670""
","""event"",""trial"",""time""
""focus"",""0"",""4669""
""focus"",""0"",""141310""
","""event"",""trial"",""time""
""fullscreenenter"",""0"",""146489""
","
",null,<img style='border: 4px solid darkgrey;' src='img/tf1_11_M_ss1.jpeg'></img>,null,NA,exp,NA,null,<img src='img/tf1_11_T1_ss1_md.jpeg'></img>,0,FALSE,NA,sub85
NA,html-keyboard-response,35,1425052,0.0-10.0-0.11,"""event"",""trial"",""time""
""focus"",""0"",""4669""
""blur"",""0"",""4670""
""focus"",""0"",""141310""
""fullscreenenter"",""0"",""146489""
","""event"",""trial"",""time""
""blur"",""0"",""4670""
","""event"",""trial"",""time""
""focus"",""0"",""4669""
""focus"",""0"",""141310""
","""event"",""trial"",""time""
""fullscreenenter"",""0"",""146489""
","
",null,"<div style=""font-size:60px;"">+</div>",NA,null,fixation,2020-06-17T01:32:57Z,NA,NA,NA,NA,NA,sub85
NA,mars-trial,36,1451298,0.0-10.0-1.11,"""event"",""trial"",""time""
""focus"",""0"",""4669""
""blur"",""0"",""4670""
""focus"",""0"",""141310""
""fullscreenenter"",""0"",""146489""
","""event"",""trial"",""time""
""blur"",""0"",""4670""
","""event"",""trial"",""time""
""focus"",""0"",""4669""
""focus"",""0"",""141310""
","""event"",""trial"",""time""
""fullscreenenter"",""0"",""146489""
","
",25638.474999985192,<img style='border: 4px solid darkgrey;' src='img/tf1_12_M_ss2.jpeg'></img>,3,NA,exp,NA,0,<img src='img/tf1_12_T1_ss2_md.jpeg'></img>,0,TRUE,NA,sub85
NA,html-keyboard-response,37,1451801,0.0-10.0-0.12,"""event"",""trial"",""time""
""focus"",""0"",""4669""
""blur"",""0"",""4670""
""focus"",""0"",""141310""
""fullscreenenter"",""0"",""146489""
","""event"",""trial"",""time""
""blur"",""0"",""4670""
","""event"",""trial"",""time""
""focus"",""0"",""4669""
""focus"",""0"",""141310""
","""event"",""trial"",""time""
""fullscreenenter"",""0"",""146489""
","
",null,"<div style=""font-size:60px;"">+</div>",NA,null,fixation,2020-06-17T01:33:24Z,NA,NA,NA,NA,NA,sub85
NA,mars-trial,38,1482035,0.0-10.0-1.12,"""event"",""trial"",""time""
""focus"",""0"",""4669""
""blur"",""0"",""4670""
""focus"",""0"",""141310""
""fullscreenenter"",""0"",""146489""
","""event"",""trial"",""time""
""blur"",""0"",""4670""
","""event"",""trial"",""time""
""focus"",""0"",""4669""
""focus"",""0"",""141310""
","""event"",""trial"",""time""
""fullscreenenter"",""0"",""146489""
","
",29628.195000026608,<img style='border: 4px solid darkgrey;' src='img/tf1_13_M_ss3.jpeg'></img>,0,NA,exp,NA,2,<img src='img/tf1_13_T1_ss3_md.jpeg'></img>,0,FALSE,NA,sub85
NA,html-keyboard-response,39,1482537,0.0-10.0-0.13,"""event"",""trial"",""time""
""focus"",""0"",""4669""
""blur"",""0"",""4670""
""focus"",""0"",""141310""
""fullscreenenter"",""0"",""146489""
","""event"",""trial"",""time""
""blur"",""0"",""4670""
","""event"",""trial"",""time""
""focus"",""0"",""4669""
""focus"",""0"",""141310""
","""event"",""trial"",""time""
""fullscreenenter"",""0"",""146489""
","
",null,"<div style=""font-size:60px;"">+</div>",NA,null,fixation,2020-06-17T01:33:55Z,NA,NA,NA,NA,NA,sub85
NA,mars-trial,40,1507841,0.0-10.0-1.13,"""event"",""trial"",""time""
""focus"",""0"",""4669""
""blur"",""0"",""4670""
""focus"",""0"",""141310""
""fullscreenenter"",""0"",""146489""
","""event"",""trial"",""time""
""blur"",""0"",""4670""
","""event"",""trial"",""time""
""focus"",""0"",""4669""
""focus"",""0"",""141310""
","""event"",""trial"",""time""
""fullscreenenter"",""0"",""146489""
","
",24697.004999994533,<img style='border: 4px solid darkgrey;' src='img/tf1_14_M_ss1.jpeg'></img>,2,NA,exp,NA,1,<img src='img/tf1_14_T1_ss1_md.jpeg'></img>,0,FALSE,NA,sub85
NA,html-keyboard-response,41,1508344,0.0-10.0-0.14,"""event"",""trial"",""time""
""focus"",""0"",""4669""
""blur"",""0"",""4670""
""focus"",""0"",""141310""
""fullscreenenter"",""0"",""146489""
","""event"",""trial"",""time""
""blur"",""0"",""4670""
","""event"",""trial"",""time""
""focus"",""0"",""4669""
""focus"",""0"",""141310""
","""event"",""trial"",""time""
""fullscreenenter"",""0"",""146489""
","
",null,"<div style=""font-size:60px;"">+</div>",NA,null,fixation,2020-06-17T01:34:20Z,NA,NA,NA,NA,NA,sub85
NA,mars-trial,42,1517696,0.0-10.0-1.14,"""event"",""trial"",""time""
""focus"",""0"",""4669""
""blur"",""0"",""4670""
""focus"",""0"",""141310""
""fullscreenenter"",""0"",""146489""
","""event"",""trial"",""time""
""blur"",""0"",""4670""
","""event"",""trial"",""time""
""focus"",""0"",""4669""
""focus"",""0"",""141310""
","""event"",""trial"",""time""
""fullscreenenter"",""0"",""146489""
","
",8744.085000013001,<img style='border: 4px solid darkgrey;' src='img/tf1_15_M_ss2.jpeg'></img>,2,NA,exp,NA,1,<img src='img/tf1_15_T1_ss2_md.jpeg'></img>,0,FALSE,NA,sub85
NA,html-keyboard-response,43,1518199,0.0-10.0-0.15,"""event"",""trial"",""time""
""focus"",""0"",""4669""
""blur"",""0"",""4670""
""focus"",""0"",""141310""
""fullscreenenter"",""0"",""146489""
","""event"",""trial"",""time""
""blur"",""0"",""4670""
","""event"",""trial"",""time""
""focus"",""0"",""4669""
""focus"",""0"",""141310""
","""event"",""trial"",""time""
""fullscreenenter"",""0"",""146489""
","
",null,"<div style=""font-size:60px;"">+</div>",NA,null,fixation,2020-06-17T01:34:30Z,NA,NA,NA,NA,NA,sub85
NA,mars-trial,44,1543325,0.0-10.0-1.15,"""event"",""trial"",""time""
""focus"",""0"",""4669""
""blur"",""0"",""4670""
""focus"",""0"",""141310""
""fullscreenenter"",""0"",""146489""
","""event"",""trial"",""time""
""blur"",""0"",""4670""
","""event"",""trial"",""time""
""focus"",""0"",""4669""
""focus"",""0"",""141310""
","""event"",""trial"",""time""
""fullscreenenter"",""0"",""146489""
","
",24521.635000011884,<img style='border: 4px solid darkgrey;' src='img/tf1_16_M_ss3.jpeg'></img>,3,NA,exp,NA,3,<img src='img/tf1_16_T1_ss3_md.jpeg'></img>,0,FALSE,NA,sub85
NA,html-keyboard-response,45,1543827,0.0-10.0-0.16,"""event"",""trial"",""time""
""focus"",""0"",""4669""
""blur"",""0"",""4670""
""focus"",""0"",""141310""
""fullscreenenter"",""0"",""146489""
","""event"",""trial"",""time""
""blur"",""0"",""4670""
","""event"",""trial"",""time""
""focus"",""0"",""4669""
""focus"",""0"",""141310""
","""event"",""trial"",""time""
""fullscreenenter"",""0"",""146489""
","
",null,"<div style=""font-size:60px;"">+</div>",NA,null,fixation,2020-06-17T01:34:56Z,NA,NA,NA,NA,NA,sub85
NA,mars-trial,46,1569706,0.0-10.0-1.16,"""event"",""trial"",""time""
""focus"",""0"",""4669""
""blur"",""0"",""4670""
""focus"",""0"",""141310""
""fullscreenenter"",""0"",""146489""
","""event"",""trial"",""time""
""blur"",""0"",""4670""
","""event"",""trial"",""time""
""focus"",""0"",""4669""
""focus"",""0"",""141310""
","""event"",""trial"",""time""
""fullscreenenter"",""0"",""146489""
","
",25273.73000001535,<img style='border: 4px solid darkgrey;' src='img/tf1_17_M_ss1.jpeg'></img>,3,NA,exp,NA,0,<img src='img/tf1_17_T1_ss1_md.jpeg'></img>,0,TRUE,NA,sub85
NA,html-keyboard-response,47,1570208,0.0-10.0-0.17,"""event"",""trial"",""time""
""focus"",""0"",""4669""
""blur"",""0"",""4670""
""focus"",""0"",""141310""
""fullscreenenter"",""0"",""146489""
","""event"",""trial"",""time""
""blur"",""0"",""4670""
","""event"",""trial"",""time""
""focus"",""0"",""4669""
""focus"",""0"",""141310""
","""event"",""trial"",""time""
""fullscreenenter"",""0"",""146489""
","
",null,"<div style=""font-size:60px;"">+</div>",NA,null,fixation,2020-06-17T01:35:22Z,NA,NA,NA,NA,NA,sub85
NA,mars-trial,48,1583521,0.0-10.0-1.17,"""event"",""trial"",""time""
""focus"",""0"",""4669""
""blur"",""0"",""4670""
""focus"",""0"",""141310""
""fullscreenenter"",""0"",""146489""
","""event"",""trial"",""time""
""blur"",""0"",""4670""
","""event"",""trial"",""time""
""focus"",""0"",""4669""
""focus"",""0"",""141310""
","""event"",""trial"",""time""
""fullscreenenter"",""0"",""146489""
","
",12704.09000001382,<img style='border: 4px solid darkgrey;' src='img/tf1_18_M_ss2.jpeg'></img>,1,NA,exp,NA,3,<img src='img/tf1_18_T1_ss2_md.jpeg'></img>,0,FALSE,NA,sub85
NA,html-keyboard-response,49,1584023,0.0-10.0-0.18,"""event"",""trial"",""time""
""focus"",""0"",""4669""
""blur"",""0"",""4670""
""focus"",""0"",""141310""
""fullscreenenter"",""0"",""146489""
","""event"",""trial"",""time""
""blur"",""0"",""4670""
","""event"",""trial"",""time""
""focus"",""0"",""4669""
""focus"",""0"",""141310""
","""event"",""trial"",""time""
""fullscreenenter"",""0"",""146489""
","
",null,"<div style=""font-size:60px;"">+</div>",NA,null,fixation,2020-06-17T01:35:36Z,NA,NA,NA,NA,NA,sub85
NA,mars-trial,50,1594613,0.0-10.0-1.18,"""event"",""trial"",""time""
""focus"",""0"",""4669""
""blur"",""0"",""4670""
""focus"",""0"",""141310""
""fullscreenenter"",""0"",""146489""
","""event"",""trial"",""time""
""blur"",""0"",""4670""
","""event"",""trial"",""time""
""focus"",""0"",""4669""
""focus"",""0"",""141310""
","""event"",""trial"",""time""
""fullscreenenter"",""0"",""146489""
","
",9984.685000003083,<img style='border: 4px solid darkgrey;' src='img/tf1_19_M_ss3.jpeg'></img>,2,NA,exp,NA,0,<img src='img/tf1_19_T1_ss3_md.jpeg'></img>,0,TRUE,NA,sub85
NA,html-keyboard-response,51,1595116,0.0-10.0-0.19,"""event"",""trial"",""time""
""focus"",""0"",""4669""
""blur"",""0"",""4670""
""focus"",""0"",""141310""
""fullscreenenter"",""0"",""146489""
","""event"",""trial"",""time""
""blur"",""0"",""4670""
","""event"",""trial"",""time""
""focus"",""0"",""4669""
""focus"",""0"",""141310""
","""event"",""trial"",""time""
""fullscreenenter"",""0"",""146489""
","
",null,"<div style=""font-size:60px;"">+</div>",NA,null,fixation,2020-06-17T01:35:47Z,NA,NA,NA,NA,NA,sub85
NA,mars-trial,52,1618385,0.0-10.0-1.19,"""event"",""trial"",""time""
""focus"",""0"",""4669""
""blur"",""0"",""4670""
""focus"",""0"",""141310""
""fullscreenenter"",""0"",""146489""
","""event"",""trial"",""time""
""blur"",""0"",""4670""
","""event"",""trial"",""time""
""focus"",""0"",""4669""
""focus"",""0"",""141310""
","""event"",""trial"",""time""
""fullscreenenter"",""0"",""146489""
","
",22662.50500001479,<img style='border: 4px solid darkgrey;' src='img/tf1_20_M_ss1.jpeg'></img>,1,NA,exp,NA,0,<img src='img/tf1_20_T1_ss1_md.jpeg'></img>,0,TRUE,NA,sub85
NA,html-keyboard-response,53,1618887,0.0-10.0-0.20,"""event"",""trial"",""time""
""focus"",""0"",""4669""
""blur"",""0"",""4670""
""focus"",""0"",""141310""
""fullscreenenter"",""0"",""146489""
","""event"",""trial"",""time""
""blur"",""0"",""4670""
","""event"",""trial"",""time""
""focus"",""0"",""4669""
""focus"",""0"",""141310""
","""event"",""trial"",""time""
""fullscreenenter"",""0"",""146489""
","
",null,"<div style=""font-size:60px;"">+</div>",NA,null,fixation,2020-06-17T01:36:11Z,NA,NA,NA,NA,NA,sub85
NA,mars-trial,54,1640761,0.0-10.0-1.20,"""event"",""trial"",""time""
""focus"",""0"",""4669""
""blur"",""0"",""4670""
""focus"",""0"",""141310""
""fullscreenenter"",""0"",""146489""
","""event"",""trial"",""time""
""blur"",""0"",""4670""
","""event"",""trial"",""time""
""focus"",""0"",""4669""
""focus"",""0"",""141310""
","""event"",""trial"",""time""
""fullscreenenter"",""0"",""146489""
","
",21270.340000017313,<img style='border: 4px solid darkgrey;' src='img/tf1_21_M_ss2.jpeg'></img>,2,NA,exp,NA,1,<img src='img/tf1_21_T1_ss2_md.jpeg'></img>,0,FALSE,NA,sub85
NA,html-keyboard-response,55,1641264,0.0-10.0-0.21,"""event"",""trial"",""time""
""focus"",""0"",""4669""
""blur"",""0"",""4670""
""focus"",""0"",""141310""
""fullscreenenter"",""0"",""146489""
","""event"",""trial"",""time""
""blur"",""0"",""4670""
","""event"",""trial"",""time""
""focus"",""0"",""4669""
""focus"",""0"",""141310""
","""event"",""trial"",""time""
""fullscreenenter"",""0"",""146489""
","
",null,"<div style=""font-size:60px;"">+</div>",NA,null,fixation,2020-06-17T01:36:33Z,NA,NA,NA,NA,NA,sub85
NA,mars-trial,56,1664983,0.0-10.0-1.21,"""event"",""trial"",""time""
""focus"",""0"",""4669""
""blur"",""0"",""4670""
""focus"",""0"",""141310""
""fullscreenenter"",""0"",""146489""
","""event"",""trial"",""time""
""blur"",""0"",""4670""
","""event"",""trial"",""time""
""focus"",""0"",""4669""
""focus"",""0"",""141310""
","""event"",""trial"",""time""
""fullscreenenter"",""0"",""146489""
","
",23114.790000021458,<img style='border: 4px solid darkgrey;' src='img/tf1_22_M_ss3.jpeg'></img>,1,NA,exp,NA,0,<img src='img/tf1_22_T1_ss3_md.jpeg'></img>,0,TRUE,NA,sub85
NA,html-keyboard-response,57,1665486,0.0-10.0-0.22,"""event"",""trial"",""time""
""focus"",""0"",""4669""
""blur"",""0"",""4670""
""focus"",""0"",""141310""
""fullscreenenter"",""0"",""146489""
","""event"",""trial"",""time""
""blur"",""0"",""4670""
","""event"",""trial"",""time""
""focus"",""0"",""4669""
""focus"",""0"",""141310""
","""event"",""trial"",""time""
""fullscreenenter"",""0"",""146489""
","
",null,"<div style=""font-size:60px;"">+</div>",NA,null,fixation,2020-06-17T01:36:57Z,NA,NA,NA,NA,NA,sub85
NA,mars-trial,58,1695594,0.0-10.0-1.22,"""event"",""trial"",""time""
""focus"",""0"",""4669""
""blur"",""0"",""4670""
""focus"",""0"",""141310""
""fullscreenenter"",""0"",""146489""
","""event"",""trial"",""time""
""blur"",""0"",""4670""
","""event"",""trial"",""time""
""focus"",""0"",""4669""
""focus"",""0"",""141310""
","""event"",""trial"",""time""
""fullscreenenter"",""0"",""146489""
","
",null,<img style='border: 4px solid darkgrey;' src='img/tf1_23_M_ss1.jpeg'></img>,null,NA,exp,NA,null,<img src='img/tf1_23_T1_ss1_md.jpeg'></img>,0,FALSE,NA,sub85
NA,html-keyboard-response,59,1696100,0.0-10.0-0.23,"""event"",""trial"",""time""
""focus"",""0"",""4669""
""blur"",""0"",""4670""
""focus"",""0"",""141310""
""fullscreenenter"",""0"",""146489""
","""event"",""trial"",""time""
""blur"",""0"",""4670""
","""event"",""trial"",""time""
""focus"",""0"",""4669""
""focus"",""0"",""141310""
","""event"",""trial"",""time""
""fullscreenenter"",""0"",""146489""
","
",null,"<div style=""font-size:60px;"">+</div>",NA,null,fixation,2020-06-17T01:37:28Z,NA,NA,NA,NA,NA,sub85
NA,mars-trial,60,1705562,0.0-10.0-1.23,"""event"",""trial"",""time""
""focus"",""0"",""4669""
""blur"",""0"",""4670""
""focus"",""0"",""141310""
""fullscreenenter"",""0"",""146489""
","""event"",""trial"",""time""
""blur"",""0"",""4670""
","""event"",""trial"",""time""
""focus"",""0"",""4669""
""focus"",""0"",""141310""
","""event"",""trial"",""time""
""fullscreenenter"",""0"",""146489""
","
",8854.545000009239,<img style='border: 4px solid darkgrey;' src='img/tf1_24_M_ss2.jpeg'></img>,2,NA,exp,NA,3,<img src='img/tf1_24_T1_ss2_md.jpeg'></img>,0,FALSE,NA,sub85
NA,html-keyboard-response,61,1706065,0.0-10.0-0.24,"""event"",""trial"",""time""
""focus"",""0"",""4669""
""blur"",""0"",""4670""
""focus"",""0"",""141310""
""fullscreenenter"",""0"",""146489""
","""event"",""trial"",""time""
""blur"",""0"",""4670""
","""event"",""trial"",""time""
""focus"",""0"",""4669""
""focus"",""0"",""141310""
","""event"",""trial"",""time""
""fullscreenenter"",""0"",""146489""
","
",null,"<div style=""font-size:60px;"">+</div>",NA,null,fixation,2020-06-17T01:37:38Z,NA,NA,NA,NA,NA,sub85
NA,mars-trial,62,1721831,0.0-10.0-1.24,"""event"",""trial"",""time""
""focus"",""0"",""4669""
""blur"",""0"",""4670""
""focus"",""0"",""141310""
""fullscreenenter"",""0"",""146489""
","""event"",""trial"",""time""
""blur"",""0"",""4670""
","""event"",""trial"",""time""
""focus"",""0"",""4669""
""focus"",""0"",""141310""
","""event"",""trial"",""time""
""fullscreenenter"",""0"",""146489""
","
",15160.769999987679,<img style='border: 4px solid darkgrey;' src='img/tf1_25_M_ss3.jpeg'></img>,3,NA,exp,NA,0,<img src='img/tf1_25_T1_ss3_md.jpeg'></img>,0,TRUE,NA,sub85
NA,html-keyboard-response,63,1722334,0.0-10.0-0.25,"""event"",""trial"",""time""
""focus"",""0"",""4669""
""blur"",""0"",""4670""
""focus"",""0"",""141310""
""fullscreenenter"",""0"",""146489""
","""event"",""trial"",""time""
""blur"",""0"",""4670""
","""event"",""trial"",""time""
""focus"",""0"",""4669""
""focus"",""0"",""141310""
","""event"",""trial"",""time""
""fullscreenenter"",""0"",""146489""
","
",null,"<div style=""font-size:60px;"">+</div>",NA,null,fixation,2020-06-17T01:37:54Z,NA,NA,NA,NA,NA,sub85
NA,mars-trial,64,1734069,0.0-10.0-1.25,"""event"",""trial"",""time""
""focus"",""0"",""4669""
""blur"",""0"",""4670""
""focus"",""0"",""141310""
""fullscreenenter"",""0"",""146489""
","""event"",""trial"",""time""
""blur"",""0"",""4670""
","""event"",""trial"",""time""
""focus"",""0"",""4669""
""focus"",""0"",""141310""
","""event"",""trial"",""time""
""fullscreenenter"",""0"",""146489""
","
",11130.314999987604,<img style='border: 4px solid darkgrey;' src='img/tf1_26_M_ss1.jpeg'></img>,2,NA,exp,NA,0,<img src='img/tf1_26_T1_ss1_md.jpeg'></img>,0,TRUE,NA,sub85
NA,html-keyboard-response,65,1734571,0.0-10.0-0.26,"""event"",""trial"",""time""
""focus"",""0"",""4669""
""blur"",""0"",""4670""
""focus"",""0"",""141310""
""fullscreenenter"",""0"",""146489""
","""event"",""trial"",""time""
""blur"",""0"",""4670""
","""event"",""trial"",""time""
""focus"",""0"",""4669""
""focus"",""0"",""141310""
","""event"",""trial"",""time""
""fullscreenenter"",""0"",""146489""
","
",null,"<div style=""font-size:60px;"">+</div>",NA,null,fixation,2020-06-17T01:38:07Z,NA,NA,NA,NA,NA,sub85
NA,mars-trial,66,1745174,0.0-10.0-1.26,"""event"",""trial"",""time""
""focus"",""0"",""4669""
""blur"",""0"",""4670""
""focus"",""0"",""141310""
""fullscreenenter"",""0"",""146489""
","""event"",""trial"",""time""
""blur"",""0"",""4670""
","""event"",""trial"",""time""
""focus"",""0"",""4669""
""focus"",""0"",""141310""
","""event"",""trial"",""time""
""fullscreenenter"",""0"",""146489""
","
",9996.679999982007,<img style='border: 4px solid darkgrey;' src='img/tf1_27_M_ss2.jpeg'></img>,2,NA,exp,NA,0,<img src='img/tf1_27_T1_ss2_md.jpeg'></img>,0,TRUE,NA,sub85
NA,html-keyboard-response,67,1745676,0.0-10.0-0.27,"""event"",""trial"",""time""
""focus"",""0"",""4669""
""blur"",""0"",""4670""
""focus"",""0"",""141310""
""fullscreenenter"",""0"",""146489""
","""event"",""trial"",""time""
""blur"",""0"",""4670""
","""event"",""trial"",""time""
""focus"",""0"",""4669""
""focus"",""0"",""141310""
","""event"",""trial"",""time""
""fullscreenenter"",""0"",""146489""
","
",null,"<div style=""font-size:60px;"">+</div>",NA,null,fixation,2020-06-17T01:38:18Z,NA,NA,NA,NA,NA,sub85
NA,mars-trial,68,1774256,0.0-10.0-1.27,"""event"",""trial"",""time""
""focus"",""0"",""4669""
""blur"",""0"",""4670""
""focus"",""0"",""141310""
""fullscreenenter"",""0"",""146489""
","""event"",""trial"",""time""
""blur"",""0"",""4670""
","""event"",""trial"",""time""
""focus"",""0"",""4669""
""focus"",""0"",""141310""
","""event"",""trial"",""time""
""fullscreenenter"",""0"",""146489""
","
",27975.795000005746,<img style='border: 4px solid darkgrey;' src='img/tf1_28_M_ss3.jpeg'></img>,1,NA,exp,NA,1,<img src='img/tf1_28_T1_ss3_md.jpeg'></img>,0,FALSE,NA,sub85
NA,html-keyboard-response,69,1774758,0.0-10.0-0.28,"""event"",""trial"",""time""
""focus"",""0"",""4669""
""blur"",""0"",""4670""
""focus"",""0"",""141310""
""fullscreenenter"",""0"",""146489""
","""event"",""trial"",""time""
""blur"",""0"",""4670""
","""event"",""trial"",""time""
""focus"",""0"",""4669""
""focus"",""0"",""141310""
","""event"",""trial"",""time""
""fullscreenenter"",""0"",""146489""
","
",null,"<div style=""font-size:60px;"">+</div>",NA,null,fixation,2020-06-17T01:38:47Z,NA,NA,NA,NA,NA,sub85
NA,mars-trial,70,1779879,0.0-10.0-1.28,"""event"",""trial"",""time""
""focus"",""0"",""4669""
""blur"",""0"",""4670""
""focus"",""0"",""141310""
""fullscreenenter"",""0"",""146489""
","""event"",""trial"",""time""
""blur"",""0"",""4670""
","""event"",""trial"",""time""
""focus"",""0"",""4669""
""focus"",""0"",""141310""
","""event"",""trial"",""time""
""fullscreenenter"",""0"",""146489""
","
",NA,NA,NA,NA,exp,NA,NA,<img src='img/tf1_29_T1_ss1_md.jpeg'></img>,0,FALSE,NA,sub85
NA,html-keyboard-response,71,1780384,0.0-10.0-0.29,"""event"",""trial"",""time""
""focus"",""0"",""4669""
""blur"",""0"",""4670""
""focus"",""0"",""141310""
""fullscreenenter"",""0"",""146489""
","""event"",""trial"",""time""
""blur"",""0"",""4670""
","""event"",""trial"",""time""
""focus"",""0"",""4669""
""focus"",""0"",""141310""
","""event"",""trial"",""time""
""fullscreenenter"",""0"",""146489""
","
",null,"<div style=""font-size:60px;"">+</div>",NA,null,fixation,2020-06-17T01:38:52Z,NA,NA,NA,NA,NA,sub85
NA,audio-button-response,72,1783496,0.0-11.0,"""event"",""trial"",""time""
""focus"",""0"",""4669""
""blur"",""0"",""4670""
""focus"",""0"",""141310""
""fullscreenenter"",""0"",""146489""
","""event"",""trial"",""time""
""blur"",""0"",""4670""
","""event"",""trial"",""time""
""focus"",""0"",""4669""
""focus"",""0"",""141310""
","""event"",""trial"",""time""
""fullscreenenter"",""0"",""146489""
","
",3007.7800000144634,audio/mars_instructions_slide5.wav,0,NA,NA,NA,NA,NA,NA,NA,NA,sub85
