success,trial_type,trial_index,time_elapsed,internal_node_id,interactions,blur_events,focus_events,fullscreenenter_events,fullscreenexit_events,rt,stimulus,button_pressed,key_press,part,timestamp,unshuffled_button,correct_response,correct_button,correct,value,subject_id
TRUE,fullscreen,0,7078,0.0-0.0,"""event"",""trial"",""time""
""focus"",""0"",""4340""
""fullscreenenter"",""0"",""6096""
","
","""event"",""trial"",""time""
""focus"",""0"",""4340""
","""event"",""trial"",""time""
""fullscreenenter"",""0"",""6096""
","
",NA,NA,NA,NA,NA,NA,NA,NA,NA,NA,NA,sub136
NA,pavlovia,1,7082,0.0-1.0,"""event"",""trial"",""time""
""focus"",""0"",""4340""
""fullscreenenter"",""0"",""6096""
","
","""event"",""trial"",""time""
""focus"",""0"",""4340""
","""event"",""trial"",""time""
""fullscreenenter"",""0"",""6096""
","
",NA,NA,NA,NA,NA,NA,NA,NA,NA,NA,NA,sub136
NA,html-button-response,2,9091,0.0-2.0,"""event"",""trial"",""time""
""focus"",""0"",""4340""
""fullscreenenter"",""0"",""6096""
","
","""event"",""trial"",""time""
""focus"",""0"",""4340""
","""event"",""trial"",""time""
""fullscreenenter"",""0"",""6096""
","
",2006.5799999865703,<p>Welcome! Press START to begin.</p><br>,0,NA,NA,NA,NA,NA,NA,NA,NA,sub136
NA,audio-button-response,3,30330,0.0-3.0,"""event"",""trial"",""time""
""focus"",""0"",""4340""
""fullscreenenter"",""0"",""6096""
","
","""event"",""trial"",""time""
""focus"",""0"",""4340""
","""event"",""trial"",""time""
""fullscreenenter"",""0"",""6096""
","
",21236.310000007506,audio/mars_instructions_slide2.wav,0,NA,NA,NA,NA,NA,NA,NA,NA,sub136
NA,audio-button-response,4,53390,0.0-4.0,"""event"",""trial"",""time""
""focus"",""0"",""4340""
""fullscreenenter"",""0"",""6096""
","
","""event"",""trial"",""time""
""focus"",""0"",""4340""
","""event"",""trial"",""time""
""fullscreenenter"",""0"",""6096""
","
",23057.614999997895,audio/mars_instructions_slide3.wav,0,NA,NA,NA,NA,NA,NA,NA,NA,sub136
NA,html-keyboard-response,5,53897,0.0-5.0-0.0,"""event"",""trial"",""time""
""focus"",""0"",""4340""
""fullscreenenter"",""0"",""6096""
","
","""event"",""trial"",""time""
""focus"",""0"",""4340""
","""event"",""trial"",""time""
""fullscreenenter"",""0"",""6096""
","
",null,"<div style=""font-size:60px;"">+</div>",NA,null,fixation,2020-06-28T19:12:19Z,NA,NA,NA,NA,NA,sub136
NA,mars-trial,6,61275,0.0-5.0-1.0,"""event"",""trial"",""time""
""focus"",""0"",""4340""
""fullscreenenter"",""0"",""6096""
","
","""event"",""trial"",""time""
""focus"",""0"",""4340""
","""event"",""trial"",""time""
""fullscreenenter"",""0"",""6096""
","
",5266.960000037216,<img style='border: 4px solid darkgrey;' src='practice/pt1_M1.png'></img>,0,NA,practice,NA,0,<img src='practice/pt1_T1.png'></img>,0,TRUE,NA,sub136
NA,html-keyboard-response,7,61780,0.0-6.0-0.0,"""event"",""trial"",""time""
""focus"",""0"",""4340""
""fullscreenenter"",""0"",""6096""
","
","""event"",""trial"",""time""
""focus"",""0"",""4340""
","""event"",""trial"",""time""
""fullscreenenter"",""0"",""6096""
","
",null,"<div style=""font-size:60px;"">+</div>",NA,null,fixation,2020-06-28T19:12:27Z,NA,NA,NA,NA,NA,sub136
NA,mars-trial,8,65873,0.0-6.0-1.0,"""event"",""trial"",""time""
""focus"",""0"",""4340""
""fullscreenenter"",""0"",""6096""
","
","""event"",""trial"",""time""
""focus"",""0"",""4340""
","""event"",""trial"",""time""
""fullscreenenter"",""0"",""6096""
","
",1983.2150000147521,<img style='border: 4px solid darkgrey;' src='practice/pt2_M1.png'></img>,2,NA,practice,NA,0,<img src='practice/pt2_T1.png'></img>,0,TRUE,NA,sub136
NA,html-keyboard-response,9,66378,0.0-7.0-0.0,"""event"",""trial"",""time""
""focus"",""0"",""4340""
""fullscreenenter"",""0"",""6096""
","
","""event"",""trial"",""time""
""focus"",""0"",""4340""
","""event"",""trial"",""time""
""fullscreenenter"",""0"",""6096""
","
",null,"<div style=""font-size:60px;"">+</div>",NA,null,fixation,2020-06-28T19:12:31Z,NA,NA,NA,NA,NA,sub136
NA,mars-trial,10,70077,0.0-7.0-1.0,"""event"",""trial"",""time""
""focus"",""0"",""4340""
""fullscreenenter"",""0"",""6096""
","
","""event"",""trial"",""time""
""focus"",""0"",""4340""
","""event"",""trial"",""time""
""fullscreenenter"",""0"",""6096""
","
",1589.0050000161864,<img style='border: 4px solid darkgrey;' src='practice/pt3_M1.png'></img>,1,NA,practice,NA,0,<img src='practice/pt3_T1.png'></img>,0,TRUE,NA,sub136
NA,audio-button-response,11,74316,0.0-8.0,"""event"",""trial"",""time""
""focus"",""0"",""4340""
""fullscreenenter"",""0"",""6096""
","
","""event"",""trial"",""time""
""focus"",""0"",""4340""
","""event"",""trial"",""time""
""fullscreenenter"",""0"",""6096""
","
",4236.879999982193,audio/mars_instructions_slide4.wav,0,NA,NA,NA,NA,NA,NA,NA,NA,sub136
NA,call-function,12,74317,0.0-9.0,"""event"",""trial"",""time""
""focus"",""0"",""4340""
""fullscreenenter"",""0"",""6096""
","
","""event"",""trial"",""time""
""focus"",""0"",""4340""
","""event"",""trial"",""time""
""fullscreenenter"",""0"",""6096""
","
",NA,NA,NA,NA,NA,NA,NA,NA,NA,NA,NA,sub136
NA,html-keyboard-response,13,74818,0.0-10.0-0.0,"""event"",""trial"",""time""
""focus"",""0"",""4340""
""fullscreenenter"",""0"",""6096""
","
","""event"",""trial"",""time""
""focus"",""0"",""4340""
","""event"",""trial"",""time""
""fullscreenenter"",""0"",""6096""
","
",null,"<div style=""font-size:60px;"">+</div>",NA,null,fixation,2020-06-28T19:12:40Z,NA,NA,NA,NA,NA,sub136
NA,mars-trial,14,77338,0.0-10.0-1.0,"""event"",""trial"",""time""
""focus"",""0"",""4340""
""fullscreenenter"",""0"",""6096""
","
","""event"",""trial"",""time""
""focus"",""0"",""4340""
","""event"",""trial"",""time""
""fullscreenenter"",""0"",""6096""
","
",1906.4549999893643,<img style='border: 4px solid darkgrey;' src='img/tf1_1_M_ss3.jpeg'></img>,2,NA,exp,NA,0,<img src='img/tf1_1_T1_ss3_md.jpeg'></img>,0,TRUE,NA,sub136
NA,html-keyboard-response,15,77843,0.0-10.0-0.1,"""event"",""trial"",""time""
""focus"",""0"",""4340""
""fullscreenenter"",""0"",""6096""
","
","""event"",""trial"",""time""
""focus"",""0"",""4340""
","""event"",""trial"",""time""
""fullscreenenter"",""0"",""6096""
","
",null,"<div style=""font-size:60px;"">+</div>",NA,null,fixation,2020-06-28T19:12:43Z,NA,NA,NA,NA,NA,sub136
NA,mars-trial,16,80641,0.0-10.0-1.1,"""event"",""trial"",""time""
""focus"",""0"",""4340""
""fullscreenenter"",""0"",""6096""
","
","""event"",""trial"",""time""
""focus"",""0"",""4340""
","""event"",""trial"",""time""
""fullscreenenter"",""0"",""6096""
","
",2187.3650000197813,<img style='border: 4px solid darkgrey;' src='img/tf1_2_M_ss1.jpeg'></img>,0,NA,exp,NA,0,<img src='img/tf1_2_T1_ss1_md.jpeg'></img>,0,TRUE,NA,sub136
NA,html-keyboard-response,17,81146,0.0-10.0-0.2,"""event"",""trial"",""time""
""focus"",""0"",""4340""
""fullscreenenter"",""0"",""6096""
","
","""event"",""trial"",""time""
""focus"",""0"",""4340""
","""event"",""trial"",""time""
""fullscreenenter"",""0"",""6096""
","
",null,"<div style=""font-size:60px;"">+</div>",NA,null,fixation,2020-06-28T19:12:46Z,NA,NA,NA,NA,NA,sub136
NA,mars-trial,18,83549,0.0-10.0-1.2,"""event"",""trial"",""time""
""focus"",""0"",""4340""
""fullscreenenter"",""0"",""6096""
","
","""event"",""trial"",""time""
""focus"",""0"",""4340""
","""event"",""trial"",""time""
""fullscreenenter"",""0"",""6096""
","
",1794.2650000331923,<img style='border: 4px solid darkgrey;' src='img/tf1_3_M_ss2.jpeg'></img>,3,NA,exp,NA,0,<img src='img/tf1_3_T1_ss2_md.jpeg'></img>,0,TRUE,NA,sub136
NA,html-keyboard-response,19,84054,0.0-10.0-0.3,"""event"",""trial"",""time""
""focus"",""0"",""4340""
""fullscreenenter"",""0"",""6096""
","
","""event"",""trial"",""time""
""focus"",""0"",""4340""
","""event"",""trial"",""time""
""fullscreenenter"",""0"",""6096""
","
",null,"<div style=""font-size:60px;"">+</div>",NA,null,fixation,2020-06-28T19:12:49Z,NA,NA,NA,NA,NA,sub136
NA,mars-trial,20,86667,0.0-10.0-1.3,"""event"",""trial"",""time""
""focus"",""0"",""4340""
""fullscreenenter"",""0"",""6096""
","
","""event"",""trial"",""time""
""focus"",""0"",""4340""
","""event"",""trial"",""time""
""fullscreenenter"",""0"",""6096""
","
",2004.1300000157207,<img style='border: 4px solid darkgrey;' src='img/tf1_4_M_ss3.jpeg'></img>,2,NA,exp,NA,0,<img src='img/tf1_4_T1_ss3_md.jpeg'></img>,0,TRUE,NA,sub136
NA,html-keyboard-response,21,87172,0.0-10.0-0.4,"""event"",""trial"",""time""
""focus"",""0"",""4340""
""fullscreenenter"",""0"",""6096""
","
","""event"",""trial"",""time""
""focus"",""0"",""4340""
","""event"",""trial"",""time""
""fullscreenenter"",""0"",""6096""
","
",null,"<div style=""font-size:60px;"">+</div>",NA,null,fixation,2020-06-28T19:12:52Z,NA,NA,NA,NA,NA,sub136
NA,mars-trial,22,89066,0.0-10.0-1.4,"""event"",""trial"",""time""
""focus"",""0"",""4340""
""fullscreenenter"",""0"",""6096""
","
","""event"",""trial"",""time""
""focus"",""0"",""4340""
","""event"",""trial"",""time""
""fullscreenenter"",""0"",""6096""
","
",1285.295000008773,<img style='border: 4px solid darkgrey;' src='img/tf1_5_M_ss1.jpeg'></img>,1,NA,exp,NA,0,<img src='img/tf1_5_T1_ss1_md.jpeg'></img>,0,TRUE,NA,sub136
NA,html-keyboard-response,23,89569,0.0-10.0-0.5,"""event"",""trial"",""time""
""focus"",""0"",""4340""
""fullscreenenter"",""0"",""6096""
","
","""event"",""trial"",""time""
""focus"",""0"",""4340""
","""event"",""trial"",""time""
""fullscreenenter"",""0"",""6096""
","
",null,"<div style=""font-size:60px;"">+</div>",NA,null,fixation,2020-06-28T19:12:54Z,NA,NA,NA,NA,NA,sub136
NA,mars-trial,24,99845,0.0-10.0-1.5,"""event"",""trial"",""time""
""focus"",""0"",""4340""
""fullscreenenter"",""0"",""6096""
","
","""event"",""trial"",""time""
""focus"",""0"",""4340""
","""event"",""trial"",""time""
""fullscreenenter"",""0"",""6096""
","
",9664.790000009816,<img style='border: 4px solid darkgrey;' src='img/tf1_6_M_ss2.jpeg'></img>,2,NA,exp,NA,2,<img src='img/tf1_6_T1_ss2_md.jpeg'></img>,0,FALSE,NA,sub136
NA,html-keyboard-response,25,100348,0.0-10.0-0.6,"""event"",""trial"",""time""
""focus"",""0"",""4340""
""fullscreenenter"",""0"",""6096""
","
","""event"",""trial"",""time""
""focus"",""0"",""4340""
","""event"",""trial"",""time""
""fullscreenenter"",""0"",""6096""
","
",null,"<div style=""font-size:60px;"">+</div>",NA,null,fixation,2020-06-28T19:13:05Z,NA,NA,NA,NA,NA,sub136
NA,mars-trial,26,104472,0.0-10.0-1.6,"""event"",""trial"",""time""
""focus"",""0"",""4340""
""fullscreenenter"",""0"",""6096""
","
","""event"",""trial"",""time""
""focus"",""0"",""4340""
","""event"",""trial"",""time""
""fullscreenenter"",""0"",""6096""
","
",3519.625000015367,<img style='border: 4px solid darkgrey;' src='img/tf1_7_M_ss3.jpeg'></img>,1,NA,exp,NA,0,<img src='img/tf1_7_T1_ss3_md.jpeg'></img>,0,TRUE,NA,sub136
NA,html-keyboard-response,27,104978,0.0-10.0-0.7,"""event"",""trial"",""time""
""focus"",""0"",""4340""
""fullscreenenter"",""0"",""6096""
","
","""event"",""trial"",""time""
""focus"",""0"",""4340""
","""event"",""trial"",""time""
""fullscreenenter"",""0"",""6096""
","
",null,"<div style=""font-size:60px;"">+</div>",NA,null,fixation,2020-06-28T19:13:10Z,NA,NA,NA,NA,NA,sub136
NA,mars-trial,28,109355,0.0-10.0-1.7,"""event"",""trial"",""time""
""focus"",""0"",""4340""
""fullscreenenter"",""0"",""6096""
","
","""event"",""trial"",""time""
""focus"",""0"",""4340""
","""event"",""trial"",""time""
""fullscreenenter"",""0"",""6096""
","
",3762.879999994766,<img style='border: 4px solid darkgrey;' src='img/tf1_8_M_ss1.jpeg'></img>,0,NA,exp,NA,0,<img src='img/tf1_8_T1_ss1_md.jpeg'></img>,0,TRUE,NA,sub136
NA,html-keyboard-response,29,109862,0.0-10.0-0.8,"""event"",""trial"",""time""
""focus"",""0"",""4340""
""fullscreenenter"",""0"",""6096""
","
","""event"",""trial"",""time""
""focus"",""0"",""4340""
","""event"",""trial"",""time""
""fullscreenenter"",""0"",""6096""
","
",null,"<div style=""font-size:60px;"">+</div>",NA,null,fixation,2020-06-28T19:13:15Z,NA,NA,NA,NA,NA,sub136
NA,mars-trial,30,116286,0.0-10.0-1.8,"""event"",""trial"",""time""
""focus"",""0"",""4340""
""fullscreenenter"",""0"",""6096""
","
","""event"",""trial"",""time""
""focus"",""0"",""4340""
","""event"",""trial"",""time""
""fullscreenenter"",""0"",""6096""
","
",5813.980000035372,<img style='border: 4px solid darkgrey;' src='img/tf1_9_M_ss2.jpeg'></img>,1,NA,exp,NA,3,<img src='img/tf1_9_T1_ss2_md.jpeg'></img>,0,FALSE,NA,sub136
NA,html-keyboard-response,31,116792,0.0-10.0-0.9,"""event"",""trial"",""time""
""focus"",""0"",""4340""
""fullscreenenter"",""0"",""6096""
","
","""event"",""trial"",""time""
""focus"",""0"",""4340""
","""event"",""trial"",""time""
""fullscreenenter"",""0"",""6096""
","
",null,"<div style=""font-size:60px;"">+</div>",NA,null,fixation,2020-06-28T19:13:22Z,NA,NA,NA,NA,NA,sub136
NA,mars-trial,32,135615,0.0-10.0-1.9,"""event"",""trial"",""time""
""focus"",""0"",""4340""
""fullscreenenter"",""0"",""6096""
","
","""event"",""trial"",""time""
""focus"",""0"",""4340""
","""event"",""trial"",""time""
""fullscreenenter"",""0"",""6096""
","
",18207.669999974314,<img style='border: 4px solid darkgrey;' src='img/tf1_10_M_ss3.jpeg'></img>,2,NA,exp,NA,0,<img src='img/tf1_10_T1_ss3_md.jpeg'></img>,0,TRUE,NA,sub136
NA,html-keyboard-response,33,136122,0.0-10.0-0.10,"""event"",""trial"",""time""
""focus"",""0"",""4340""
""fullscreenenter"",""0"",""6096""
","
","""event"",""trial"",""time""
""focus"",""0"",""4340""
","""event"",""trial"",""time""
""fullscreenenter"",""0"",""6096""
","
",null,"<div style=""font-size:60px;"">+</div>",NA,null,fixation,2020-06-28T19:13:41Z,NA,NA,NA,NA,NA,sub136
NA,mars-trial,34,151456,0.0-10.0-1.10,"""event"",""trial"",""time""
""focus"",""0"",""4340""
""fullscreenenter"",""0"",""6096""
","
","""event"",""trial"",""time""
""focus"",""0"",""4340""
","""event"",""trial"",""time""
""fullscreenenter"",""0"",""6096""
","
",14721.254999982193,<img style='border: 4px solid darkgrey;' src='img/tf1_11_M_ss1.jpeg'></img>,1,NA,exp,NA,1,<img src='img/tf1_11_T1_ss1_md.jpeg'></img>,0,FALSE,NA,sub136
NA,html-keyboard-response,35,151958,0.0-10.0-0.11,"""event"",""trial"",""time""
""focus"",""0"",""4340""
""fullscreenenter"",""0"",""6096""
","
","""event"",""trial"",""time""
""focus"",""0"",""4340""
","""event"",""trial"",""time""
""fullscreenenter"",""0"",""6096""
","
",null,"<div style=""font-size:60px;"">+</div>",NA,null,fixation,2020-06-28T19:13:57Z,NA,NA,NA,NA,NA,sub136
NA,mars-trial,36,173315,0.0-10.0-1.11,"""event"",""trial"",""time""
""focus"",""0"",""4340""
""fullscreenenter"",""0"",""6096""
","
","""event"",""trial"",""time""
""focus"",""0"",""4340""
","""event"",""trial"",""time""
""fullscreenenter"",""0"",""6096""
","
",20745.69499999052,<img style='border: 4px solid darkgrey;' src='img/tf1_12_M_ss2.jpeg'></img>,1,NA,exp,NA,3,<img src='img/tf1_12_T1_ss2_md.jpeg'></img>,0,FALSE,NA,sub136
NA,html-keyboard-response,37,173818,0.0-10.0-0.12,"""event"",""trial"",""time""
""focus"",""0"",""4340""
""fullscreenenter"",""0"",""6096""
","
","""event"",""trial"",""time""
""focus"",""0"",""4340""
","""event"",""trial"",""time""
""fullscreenenter"",""0"",""6096""
","
",null,"<div style=""font-size:60px;"">+</div>",NA,null,fixation,2020-06-28T19:14:19Z,NA,NA,NA,NA,NA,sub136
NA,mars-trial,38,186535,0.0-10.0-1.12,"""event"",""trial"",""time""
""focus"",""0"",""4340""
""fullscreenenter"",""0"",""6096""
","
","""event"",""trial"",""time""
""focus"",""0"",""4340""
","""event"",""trial"",""time""
""fullscreenenter"",""0"",""6096""
","
",12107.614999986254,<img style='border: 4px solid darkgrey;' src='img/tf1_13_M_ss3.jpeg'></img>,3,NA,exp,NA,0,<img src='img/tf1_13_T1_ss3_md.jpeg'></img>,0,TRUE,NA,sub136
NA,html-keyboard-response,39,187041,0.0-10.0-0.13,"""event"",""trial"",""time""
""focus"",""0"",""4340""
""fullscreenenter"",""0"",""6096""
","
","""event"",""trial"",""time""
""focus"",""0"",""4340""
","""event"",""trial"",""time""
""fullscreenenter"",""0"",""6096""
","
",null,"<div style=""font-size:60px;"">+</div>",NA,null,fixation,2020-06-28T19:14:32Z,NA,NA,NA,NA,NA,sub136
NA,mars-trial,40,216320,0.0-10.0-1.13,"""event"",""trial"",""time""
""focus"",""0"",""4340""
""fullscreenenter"",""0"",""6096""
","
","""event"",""trial"",""time""
""focus"",""0"",""4340""
","""event"",""trial"",""time""
""fullscreenenter"",""0"",""6096""
","
",28665.399999998044,<img style='border: 4px solid darkgrey;' src='img/tf1_14_M_ss1.jpeg'></img>,3,NA,exp,NA,3,<img src='img/tf1_14_T1_ss1_md.jpeg'></img>,0,FALSE,NA,sub136
NA,html-keyboard-response,41,216825,0.0-10.0-0.14,"""event"",""trial"",""time""
""focus"",""0"",""4340""
""fullscreenenter"",""0"",""6096""
","
","""event"",""trial"",""time""
""focus"",""0"",""4340""
","""event"",""trial"",""time""
""fullscreenenter"",""0"",""6096""
","
",null,"<div style=""font-size:60px;"">+</div>",NA,null,fixation,2020-06-28T19:15:02Z,NA,NA,NA,NA,NA,sub136
NA,mars-trial,42,238873,0.0-10.0-1.14,"""event"",""trial"",""time""
""focus"",""0"",""4340""
""fullscreenenter"",""0"",""6096""
","
","""event"",""trial"",""time""
""focus"",""0"",""4340""
","""event"",""trial"",""time""
""fullscreenenter"",""0"",""6096""
","
",21434.21999999555,<img style='border: 4px solid darkgrey;' src='img/tf1_15_M_ss2.jpeg'></img>,1,NA,exp,NA,3,<img src='img/tf1_15_T1_ss2_md.jpeg'></img>,0,FALSE,NA,sub136
NA,html-keyboard-response,43,239377,0.0-10.0-0.15,"""event"",""trial"",""time""
""focus"",""0"",""4340""
""fullscreenenter"",""0"",""6096""
","
","""event"",""trial"",""time""
""focus"",""0"",""4340""
","""event"",""trial"",""time""
""fullscreenenter"",""0"",""6096""
","
",null,"<div style=""font-size:60px;"">+</div>",NA,null,fixation,2020-06-28T19:15:24Z,NA,NA,NA,NA,NA,sub136
NA,mars-trial,44,263232,0.0-10.0-1.15,"""event"",""trial"",""time""
""focus"",""0"",""4340""
""fullscreenenter"",""0"",""6096""
","
","""event"",""trial"",""time""
""focus"",""0"",""4340""
","""event"",""trial"",""time""
""fullscreenenter"",""0"",""6096""
","
",23241.349999967497,<img style='border: 4px solid darkgrey;' src='img/tf1_16_M_ss3.jpeg'></img>,1,NA,exp,NA,0,<img src='img/tf1_16_T1_ss3_md.jpeg'></img>,0,TRUE,NA,sub136
NA,html-keyboard-response,45,263734,0.0-10.0-0.16,"""event"",""trial"",""time""
""focus"",""0"",""4340""
""fullscreenenter"",""0"",""6096""
","
","""event"",""trial"",""time""
""focus"",""0"",""4340""
","""event"",""trial"",""time""
""fullscreenenter"",""0"",""6096""
","
",null,"<div style=""font-size:60px;"">+</div>",NA,null,fixation,2020-06-28T19:15:49Z,NA,NA,NA,NA,NA,sub136
NA,mars-trial,46,292769,0.0-10.0-1.16,"""event"",""trial"",""time""
""focus"",""0"",""4340""
""fullscreenenter"",""0"",""6096""
","
","""event"",""trial"",""time""
""focus"",""0"",""4340""
","""event"",""trial"",""time""
""fullscreenenter"",""0"",""6096""
","
",28424.08000002615,<img style='border: 4px solid darkgrey;' src='img/tf1_17_M_ss1.jpeg'></img>,1,NA,exp,NA,3,<img src='img/tf1_17_T1_ss1_md.jpeg'></img>,0,FALSE,NA,sub136
NA,html-keyboard-response,47,293274,0.0-10.0-0.17,"""event"",""trial"",""time""
""focus"",""0"",""4340""
""fullscreenenter"",""0"",""6096""
","
","""event"",""trial"",""time""
""focus"",""0"",""4340""
","""event"",""trial"",""time""
""fullscreenenter"",""0"",""6096""
","
",null,"<div style=""font-size:60px;"">+</div>",NA,null,fixation,2020-06-28T19:16:18Z,NA,NA,NA,NA,NA,sub136
NA,mars-trial,48,309191,0.0-10.0-1.17,"""event"",""trial"",""time""
""focus"",""0"",""4340""
""fullscreenenter"",""0"",""6096""
","
","""event"",""trial"",""time""
""focus"",""0"",""4340""
","""event"",""trial"",""time""
""fullscreenenter"",""0"",""6096""
","
",15303.07999998331,<img style='border: 4px solid darkgrey;' src='img/tf1_18_M_ss2.jpeg'></img>,1,NA,exp,NA,0,<img src='img/tf1_18_T1_ss2_md.jpeg'></img>,0,TRUE,NA,sub136
NA,html-keyboard-response,49,309698,0.0-10.0-0.18,"""event"",""trial"",""time""
""focus"",""0"",""4340""
""fullscreenenter"",""0"",""6096""
","
","""event"",""trial"",""time""
""focus"",""0"",""4340""
","""event"",""trial"",""time""
""fullscreenenter"",""0"",""6096""
","
",null,"<div style=""font-size:60px;"">+</div>",NA,null,fixation,2020-06-28T19:16:35Z,NA,NA,NA,NA,NA,sub136
NA,mars-trial,50,317734,0.0-10.0-1.18,"""event"",""trial"",""time""
""focus"",""0"",""4340""
""fullscreenenter"",""0"",""6096""
","
","""event"",""trial"",""time""
""focus"",""0"",""4340""
","""event"",""trial"",""time""
""fullscreenenter"",""0"",""6096""
","
",7422.015000018291,<img style='border: 4px solid darkgrey;' src='img/tf1_19_M_ss3.jpeg'></img>,2,NA,exp,NA,0,<img src='img/tf1_19_T1_ss3_md.jpeg'></img>,0,TRUE,NA,sub136
NA,html-keyboard-response,51,318238,0.0-10.0-0.19,"""event"",""trial"",""time""
""focus"",""0"",""4340""
""fullscreenenter"",""0"",""6096""
","
","""event"",""trial"",""time""
""focus"",""0"",""4340""
","""event"",""trial"",""time""
""fullscreenenter"",""0"",""6096""
","
",null,"<div style=""font-size:60px;"">+</div>",NA,null,fixation,2020-06-28T19:16:43Z,NA,NA,NA,NA,NA,sub136
NA,mars-trial,52,326193,0.0-10.0-1.19,"""event"",""trial"",""time""
""focus"",""0"",""4340""
""fullscreenenter"",""0"",""6096""
","
","""event"",""trial"",""time""
""focus"",""0"",""4340""
","""event"",""trial"",""time""
""fullscreenenter"",""0"",""6096""
","
",7347.735000017565,<img style='border: 4px solid darkgrey;' src='img/tf1_20_M_ss1.jpeg'></img>,3,NA,exp,NA,0,<img src='img/tf1_20_T1_ss1_md.jpeg'></img>,0,TRUE,NA,sub136
NA,html-keyboard-response,53,326696,0.0-10.0-0.20,"""event"",""trial"",""time""
""focus"",""0"",""4340""
""fullscreenenter"",""0"",""6096""
","
","""event"",""trial"",""time""
""focus"",""0"",""4340""
","""event"",""trial"",""time""
""fullscreenenter"",""0"",""6096""
","
",null,"<div style=""font-size:60px;"">+</div>",NA,null,fixation,2020-06-28T19:16:52Z,NA,NA,NA,NA,NA,sub136
NA,mars-trial,54,345340,0.0-10.0-1.20,"""event"",""trial"",""time""
""focus"",""0"",""4340""
""fullscreenenter"",""0"",""6096""
","
","""event"",""trial"",""time""
""focus"",""0"",""4340""
","""event"",""trial"",""time""
""fullscreenenter"",""0"",""6096""
","
",18033.769999979995,<img style='border: 4px solid darkgrey;' src='img/tf1_21_M_ss2.jpeg'></img>,3,NA,exp,NA,0,<img src='img/tf1_21_T1_ss2_md.jpeg'></img>,0,TRUE,NA,sub136
NA,html-keyboard-response,55,345845,0.0-10.0-0.21,"""event"",""trial"",""time""
""focus"",""0"",""4340""
""fullscreenenter"",""0"",""6096""
","
","""event"",""trial"",""time""
""focus"",""0"",""4340""
","""event"",""trial"",""time""
""fullscreenenter"",""0"",""6096""
","
",null,"<div style=""font-size:60px;"">+</div>",NA,null,fixation,2020-06-28T19:17:11Z,NA,NA,NA,NA,NA,sub136
NA,mars-trial,56,354721,0.0-10.0-1.21,"""event"",""trial"",""time""
""focus"",""0"",""4340""
""fullscreenenter"",""0"",""6096""
","
","""event"",""trial"",""time""
""focus"",""0"",""4340""
","""event"",""trial"",""time""
""fullscreenenter"",""0"",""6096""
","
",8265.445000026375,<img style='border: 4px solid darkgrey;' src='img/tf1_22_M_ss3.jpeg'></img>,1,NA,exp,NA,3,<img src='img/tf1_22_T1_ss3_md.jpeg'></img>,0,FALSE,NA,sub136
NA,html-keyboard-response,57,355226,0.0-10.0-0.22,"""event"",""trial"",""time""
""focus"",""0"",""4340""
""fullscreenenter"",""0"",""6096""
","
","""event"",""trial"",""time""
""focus"",""0"",""4340""
","""event"",""trial"",""time""
""fullscreenenter"",""0"",""6096""
","
",null,"<div style=""font-size:60px;"">+</div>",NA,null,fixation,2020-06-28T19:17:20Z,NA,NA,NA,NA,NA,sub136
NA,mars-trial,58,371626,0.0-10.0-1.22,"""event"",""trial"",""time""
""focus"",""0"",""4340""
""fullscreenenter"",""0"",""6096""
","
","""event"",""trial"",""time""
""focus"",""0"",""4340""
","""event"",""trial"",""time""
""fullscreenenter"",""0"",""6096""
","
",15795.120000024326,<img style='border: 4px solid darkgrey;' src='img/tf1_23_M_ss1.jpeg'></img>,2,NA,exp,NA,2,<img src='img/tf1_23_T1_ss1_md.jpeg'></img>,0,FALSE,NA,sub136
NA,html-keyboard-response,59,372132,0.0-10.0-0.23,"""event"",""trial"",""time""
""focus"",""0"",""4340""
""fullscreenenter"",""0"",""6096""
","
","""event"",""trial"",""time""
""focus"",""0"",""4340""
","""event"",""trial"",""time""
""fullscreenenter"",""0"",""6096""
","
",null,"<div style=""font-size:60px;"">+</div>",NA,null,fixation,2020-06-28T19:17:37Z,NA,NA,NA,NA,NA,sub136
NA,mars-trial,60,394880,0.0-10.0-1.23,"""event"",""trial"",""time""
""focus"",""0"",""4340""
""fullscreenenter"",""0"",""6096""
","
","""event"",""trial"",""time""
""focus"",""0"",""4340""
","""event"",""trial"",""time""
""fullscreenenter"",""0"",""6096""
","
",22132.02999997884,<img style='border: 4px solid darkgrey;' src='img/tf1_24_M_ss2.jpeg'></img>,1,NA,exp,NA,0,<img src='img/tf1_24_T1_ss2_md.jpeg'></img>,0,TRUE,NA,sub136
NA,html-keyboard-response,61,395381,0.0-10.0-0.24,"""event"",""trial"",""time""
""focus"",""0"",""4340""
""fullscreenenter"",""0"",""6096""
","
","""event"",""trial"",""time""
""focus"",""0"",""4340""
","""event"",""trial"",""time""
""fullscreenenter"",""0"",""6096""
","
",null,"<div style=""font-size:60px;"">+</div>",NA,null,fixation,2020-06-28T19:18:00Z,NA,NA,NA,NA,NA,sub136
NA,mars-trial,62,414952,0.0-10.0-1.24,"""event"",""trial"",""time""
""focus"",""0"",""4340""
""fullscreenenter"",""0"",""6096""
","
","""event"",""trial"",""time""
""focus"",""0"",""4340""
","""event"",""trial"",""time""
""fullscreenenter"",""0"",""6096""
","
",18961.734999960754,<img style='border: 4px solid darkgrey;' src='img/tf1_25_M_ss3.jpeg'></img>,1,NA,exp,NA,0,<img src='img/tf1_25_T1_ss3_md.jpeg'></img>,0,TRUE,NA,sub136
NA,html-keyboard-response,63,415456,0.0-10.0-0.25,"""event"",""trial"",""time""
""focus"",""0"",""4340""
""fullscreenenter"",""0"",""6096""
","
","""event"",""trial"",""time""
""focus"",""0"",""4340""
","""event"",""trial"",""time""
""fullscreenenter"",""0"",""6096""
","
",null,"<div style=""font-size:60px;"">+</div>",NA,null,fixation,2020-06-28T19:18:20Z,NA,NA,NA,NA,NA,sub136
NA,mars-trial,64,440784,0.0-10.0-1.25,"""event"",""trial"",""time""
""focus"",""0"",""4340""
""fullscreenenter"",""0"",""6096""
","
","""event"",""trial"",""time""
""focus"",""0"",""4340""
","""event"",""trial"",""time""
""fullscreenenter"",""0"",""6096""
","
",24720.014999969862,<img style='border: 4px solid darkgrey;' src='img/tf1_26_M_ss1.jpeg'></img>,0,NA,exp,NA,1,<img src='img/tf1_26_T1_ss1_md.jpeg'></img>,0,FALSE,NA,sub136
NA,html-keyboard-response,65,441289,0.0-10.0-0.26,"""event"",""trial"",""time""
""focus"",""0"",""4340""
""fullscreenenter"",""0"",""6096""
","
","""event"",""trial"",""time""
""focus"",""0"",""4340""
","""event"",""trial"",""time""
""fullscreenenter"",""0"",""6096""
","
",null,"<div style=""font-size:60px;"">+</div>",NA,null,fixation,2020-06-28T19:18:46Z,NA,NA,NA,NA,NA,sub136
NA,mars-trial,66,446838,0.0-10.0-1.26,"""event"",""trial"",""time""
""focus"",""0"",""4340""
""fullscreenenter"",""0"",""6096""
","
","""event"",""trial"",""time""
""focus"",""0"",""4340""
","""event"",""trial"",""time""
""fullscreenenter"",""0"",""6096""
","
",4942.225000006147,<img style='border: 4px solid darkgrey;' src='img/tf1_27_M_ss2.jpeg'></img>,1,NA,exp,NA,0,<img src='img/tf1_27_T1_ss2_md.jpeg'></img>,0,TRUE,NA,sub136
NA,html-keyboard-response,67,447339,0.0-10.0-0.27,"""event"",""trial"",""time""
""focus"",""0"",""4340""
""fullscreenenter"",""0"",""6096""
","
","""event"",""trial"",""time""
""focus"",""0"",""4340""
","""event"",""trial"",""time""
""fullscreenenter"",""0"",""6096""
","
",null,"<div style=""font-size:60px;"">+</div>",NA,null,fixation,2020-06-28T19:18:52Z,NA,NA,NA,NA,NA,sub136
NA,mars-trial,68,463789,0.0-10.0-1.27,"""event"",""trial"",""time""
""focus"",""0"",""4340""
""fullscreenenter"",""0"",""6096""
","
","""event"",""trial"",""time""
""focus"",""0"",""4340""
","""event"",""trial"",""time""
""fullscreenenter"",""0"",""6096""
","
",15842.430000018794,<img style='border: 4px solid darkgrey;' src='img/tf1_28_M_ss3.jpeg'></img>,3,NA,exp,NA,0,<img src='img/tf1_28_T1_ss3_md.jpeg'></img>,0,TRUE,NA,sub136
NA,html-keyboard-response,69,464294,0.0-10.0-0.28,"""event"",""trial"",""time""
""focus"",""0"",""4340""
""fullscreenenter"",""0"",""6096""
","
","""event"",""trial"",""time""
""focus"",""0"",""4340""
","""event"",""trial"",""time""
""fullscreenenter"",""0"",""6096""
","
",null,"<div style=""font-size:60px;"">+</div>",NA,null,fixation,2020-06-28T19:19:09Z,NA,NA,NA,NA,NA,sub136
NA,mars-trial,70,480718,0.0-10.0-1.28,"""event"",""trial"",""time""
""focus"",""0"",""4340""
""fullscreenenter"",""0"",""6096""
","
","""event"",""trial"",""time""
""focus"",""0"",""4340""
","""event"",""trial"",""time""
""fullscreenenter"",""0"",""6096""
","
",15809.099999954924,<img style='border: 4px solid darkgrey;' src='img/tf1_29_M_ss1.jpeg'></img>,0,NA,exp,NA,0,<img src='img/tf1_29_T1_ss1_md.jpeg'></img>,0,TRUE,NA,sub136
NA,html-keyboard-response,71,481224,0.0-10.0-0.29,"""event"",""trial"",""time""
""focus"",""0"",""4340""
""fullscreenenter"",""0"",""6096""
","
","""event"",""trial"",""time""
""focus"",""0"",""4340""
","""event"",""trial"",""time""
""fullscreenenter"",""0"",""6096""
","
",null,"<div style=""font-size:60px;"">+</div>",NA,null,fixation,2020-06-28T19:19:26Z,NA,NA,NA,NA,NA,sub136
NA,mars-trial,72,500843,0.0-10.0-1.29,"""event"",""trial"",""time""
""focus"",""0"",""4340""
""fullscreenenter"",""0"",""6096""
","
","""event"",""trial"",""time""
""focus"",""0"",""4340""
","""event"",""trial"",""time""
""fullscreenenter"",""0"",""6096""
","
",19008.25499999337,<img style='border: 4px solid darkgrey;' src='img/tf1_30_M_ss2.jpeg'></img>,2,NA,exp,NA,0,<img src='img/tf1_30_T1_ss2_md.jpeg'></img>,0,TRUE,NA,sub136
NA,html-keyboard-response,73,501350,0.0-10.0-0.30,"""event"",""trial"",""time""
""focus"",""0"",""4340""
""fullscreenenter"",""0"",""6096""
","
","""event"",""trial"",""time""
""focus"",""0"",""4340""
","""event"",""trial"",""time""
""fullscreenenter"",""0"",""6096""
","
",null,"<div style=""font-size:60px;"">+</div>",NA,null,fixation,2020-06-28T19:19:46Z,NA,NA,NA,NA,NA,sub136
NA,mars-trial,74,523909,0.0-10.0-1.30,"""event"",""trial"",""time""
""focus"",""0"",""4340""
""fullscreenenter"",""0"",""6096""
","
","""event"",""trial"",""time""
""focus"",""0"",""4340""
","""event"",""trial"",""time""
""fullscreenenter"",""0"",""6096""
","
",21943.46499996027,<img style='border: 4px solid darkgrey;' src='img/tf1_31_M_ss3.jpeg'></img>,0,NA,exp,NA,0,<img src='img/tf1_31_T1_ss3_md.jpeg'></img>,0,TRUE,NA,sub136
NA,html-keyboard-response,75,524413,0.0-10.0-0.31,"""event"",""trial"",""time""
""focus"",""0"",""4340""
""fullscreenenter"",""0"",""6096""
","
","""event"",""trial"",""time""
""focus"",""0"",""4340""
","""event"",""trial"",""time""
""fullscreenenter"",""0"",""6096""
","
",null,"<div style=""font-size:60px;"">+</div>",NA,null,fixation,2020-06-28T19:20:09Z,NA,NA,NA,NA,NA,sub136
NA,mars-trial,76,539524,0.0-10.0-1.31,"""event"",""trial"",""time""
""focus"",""0"",""4340""
""fullscreenenter"",""0"",""6096""
","
","""event"",""trial"",""time""
""focus"",""0"",""4340""
","""event"",""trial"",""time""
""fullscreenenter"",""0"",""6096""
","
",14497.789999993984,<img style='border: 4px solid darkgrey;' src='img/tf1_32_M_ss1.jpeg'></img>,0,NA,exp,NA,0,<img src='img/tf1_32_T1_ss1_md.jpeg'></img>,0,TRUE,NA,sub136
NA,html-keyboard-response,77,540027,0.0-10.0-0.32,"""event"",""trial"",""time""
""focus"",""0"",""4340""
""fullscreenenter"",""0"",""6096""
","
","""event"",""trial"",""time""
""focus"",""0"",""4340""
","""event"",""trial"",""time""
""fullscreenenter"",""0"",""6096""
","
",null,"<div style=""font-size:60px;"">+</div>",NA,null,fixation,2020-06-28T19:20:25Z,NA,NA,NA,NA,NA,sub136
NA,mars-trial,78,551331,0.0-10.0-1.32,"""event"",""trial"",""time""
""focus"",""0"",""4340""
""fullscreenenter"",""0"",""6096""
","
","""event"",""trial"",""time""
""focus"",""0"",""4340""
","""event"",""trial"",""time""
""fullscreenenter"",""0"",""6096""
","
",10694.209999986924,<img style='border: 4px solid darkgrey;' src='img/tf1_33_M_ss2.jpeg'></img>,2,NA,exp,NA,0,<img src='img/tf1_33_T1_ss2_md.jpeg'></img>,0,TRUE,NA,sub136
NA,html-keyboard-response,79,551837,0.0-10.0-0.33,"""event"",""trial"",""time""
""focus"",""0"",""4340""
""fullscreenenter"",""0"",""6096""
","
","""event"",""trial"",""time""
""focus"",""0"",""4340""
","""event"",""trial"",""time""
""fullscreenenter"",""0"",""6096""
","
",null,"<div style=""font-size:60px;"">+</div>",NA,null,fixation,2020-06-28T19:20:37Z,NA,NA,NA,NA,NA,sub136
NA,mars-trial,80,554336,0.0-10.0-1.33,"""event"",""trial"",""time""
""focus"",""0"",""4340""
""fullscreenenter"",""0"",""6096""
","
","""event"",""trial"",""time""
""focus"",""0"",""4340""
","""event"",""trial"",""time""
""fullscreenenter"",""0"",""6096""
","
",NA,NA,NA,NA,exp,NA,NA,<img src='img/tf1_34_T1_ss3_md.jpeg'></img>,0,FALSE,NA,sub136
NA,html-keyboard-response,81,554838,0.0-10.0-0.34,"""event"",""trial"",""time""
""focus"",""0"",""4340""
""fullscreenenter"",""0"",""6096""
","
","""event"",""trial"",""time""
""focus"",""0"",""4340""
","""event"",""trial"",""time""
""fullscreenenter"",""0"",""6096""
","
",null,"<div style=""font-size:60px;"">+</div>",NA,null,fixation,2020-06-28T19:20:40Z,NA,NA,NA,NA,NA,sub136
NA,audio-button-response,82,559090,0.0-11.0,"""event"",""trial"",""time""
""focus"",""0"",""4340""
""fullscreenenter"",""0"",""6096""
","
","""event"",""trial"",""time""
""focus"",""0"",""4340""
","""event"",""trial"",""time""
""fullscreenenter"",""0"",""6096""
","
",4148.975000018254,audio/mars_instructions_slide5.wav,0,NA,NA,NA,NA,NA,NA,NA,NA,sub136
