success,trial_type,trial_index,time_elapsed,internal_node_id,interactions,blur_events,focus_events,fullscreenenter_events,fullscreenexit_events,rt,stimulus,button_pressed,key_press,part,timestamp,unshuffled_button,correct_response,correct_button,correct,value,subject_id
TRUE,fullscreen,0,7271,0.0-0.0,"""event"",""trial"",""time""
""focus"",""0"",""3031""
""fullscreenenter"",""0"",""6929""
","
","""event"",""trial"",""time""
""focus"",""0"",""3031""
","""event"",""trial"",""time""
""fullscreenenter"",""0"",""6929""
","
",NA,NA,NA,NA,NA,NA,NA,NA,NA,NA,NA,sub145
NA,pavlovia,1,7275,0.0-1.0,"""event"",""trial"",""time""
""focus"",""0"",""3031""
""fullscreenenter"",""0"",""6929""
","
","""event"",""trial"",""time""
""focus"",""0"",""3031""
","""event"",""trial"",""time""
""fullscreenenter"",""0"",""6929""
","
",NA,NA,NA,NA,NA,NA,NA,NA,NA,NA,NA,sub145
NA,html-button-response,2,8824,0.0-2.0,"""event"",""trial"",""time""
""focus"",""0"",""3031""
""fullscreenenter"",""0"",""6929""
","
","""event"",""trial"",""time""
""focus"",""0"",""3031""
","""event"",""trial"",""time""
""fullscreenenter"",""0"",""6929""
","
",1547.359999967739,<p>Welcome! Press START to begin.</p><br>,0,NA,NA,NA,NA,NA,NA,NA,NA,sub145
NA,audio-button-response,3,24487,0.0-3.0,"""event"",""trial"",""time""
""focus"",""0"",""3031""
""fullscreenenter"",""0"",""6929""
","
","""event"",""trial"",""time""
""focus"",""0"",""3031""
","""event"",""trial"",""time""
""fullscreenenter"",""0"",""6929""
","
",15661.030000075698,audio/mars_instructions_slide2.wav,0,NA,NA,NA,NA,NA,NA,NA,NA,sub145
NA,audio-button-response,4,41088,0.0-4.0,"""event"",""trial"",""time""
""focus"",""0"",""3031""
""fullscreenenter"",""0"",""6929""
","
","""event"",""trial"",""time""
""focus"",""0"",""3031""
","""event"",""trial"",""time""
""fullscreenenter"",""0"",""6929""
","
",16599.659999948926,audio/mars_instructions_slide3.wav,0,NA,NA,NA,NA,NA,NA,NA,NA,sub145
NA,html-keyboard-response,5,41595,0.0-5.0-0.0,"""event"",""trial"",""time""
""focus"",""0"",""3031""
""fullscreenenter"",""0"",""6929""
","
","""event"",""trial"",""time""
""focus"",""0"",""3031""
","""event"",""trial"",""time""
""fullscreenenter"",""0"",""6929""
","
",null,"<div style=""font-size:60px;"">+</div>",NA,null,fixation,2020-06-24T22:39:28Z,NA,NA,NA,NA,NA,sub145
NA,mars-trial,6,50664,0.0-5.0-1.0,"""event"",""trial"",""time""
""focus"",""0"",""3031""
""fullscreenenter"",""0"",""6929""
","
","""event"",""trial"",""time""
""focus"",""0"",""3031""
","""event"",""trial"",""time""
""fullscreenenter"",""0"",""6929""
","
",6960.9599999384955,<img style='border: 4px solid darkgrey;' src='practice/pt1_M1.png'></img>,0,NA,practice,NA,0,<img src='practice/pt1_T1.png'></img>,0,TRUE,NA,sub145
NA,html-keyboard-response,7,51169,0.0-6.0-0.0,"""event"",""trial"",""time""
""focus"",""0"",""3031""
""fullscreenenter"",""0"",""6929""
","
","""event"",""trial"",""time""
""focus"",""0"",""3031""
","""event"",""trial"",""time""
""fullscreenenter"",""0"",""6929""
","
",null,"<div style=""font-size:60px;"">+</div>",NA,null,fixation,2020-06-24T22:39:37Z,NA,NA,NA,NA,NA,sub145
NA,mars-trial,8,56109,0.0-6.0-1.0,"""event"",""trial"",""time""
""focus"",""0"",""3031""
""fullscreenenter"",""0"",""6929""
","
","""event"",""trial"",""time""
""focus"",""0"",""3031""
","""event"",""trial"",""time""
""fullscreenenter"",""0"",""6929""
","
",2834.5199999166653,<img style='border: 4px solid darkgrey;' src='practice/pt2_M1.png'></img>,0,NA,practice,NA,0,<img src='practice/pt2_T1.png'></img>,0,TRUE,NA,sub145
NA,html-keyboard-response,9,56615,0.0-7.0-0.0,"""event"",""trial"",""time""
""focus"",""0"",""3031""
""fullscreenenter"",""0"",""6929""
","
","""event"",""trial"",""time""
""focus"",""0"",""3031""
","""event"",""trial"",""time""
""fullscreenenter"",""0"",""6929""
","
",null,"<div style=""font-size:60px;"">+</div>",NA,null,fixation,2020-06-24T22:39:43Z,NA,NA,NA,NA,NA,sub145
NA,mars-trial,10,60249,0.0-7.0-1.0,"""event"",""trial"",""time""
""focus"",""0"",""3031""
""fullscreenenter"",""0"",""6929""
","
","""event"",""trial"",""time""
""focus"",""0"",""3031""
","""event"",""trial"",""time""
""fullscreenenter"",""0"",""6929""
","
",1523.879999993369,<img style='border: 4px solid darkgrey;' src='practice/pt3_M1.png'></img>,2,NA,practice,NA,0,<img src='practice/pt3_T1.png'></img>,0,TRUE,NA,sub145
NA,audio-button-response,11,63911,0.0-8.0,"""event"",""trial"",""time""
""focus"",""0"",""3031""
""fullscreenenter"",""0"",""6929""
","
","""event"",""trial"",""time""
""focus"",""0"",""3031""
","""event"",""trial"",""time""
""fullscreenenter"",""0"",""6929""
","
",3660.2249999996275,audio/mars_instructions_slide4.wav,0,NA,NA,NA,NA,NA,NA,NA,NA,sub145
NA,call-function,12,63912,0.0-9.0,"""event"",""trial"",""time""
""focus"",""0"",""3031""
""fullscreenenter"",""0"",""6929""
","
","""event"",""trial"",""time""
""focus"",""0"",""3031""
","""event"",""trial"",""time""
""fullscreenenter"",""0"",""6929""
","
",NA,NA,NA,NA,NA,NA,NA,NA,NA,NA,NA,sub145
NA,html-keyboard-response,13,64414,0.0-10.0-0.0,"""event"",""trial"",""time""
""focus"",""0"",""3031""
""fullscreenenter"",""0"",""6929""
","
","""event"",""trial"",""time""
""focus"",""0"",""3031""
","""event"",""trial"",""time""
""fullscreenenter"",""0"",""6929""
","
",null,"<div style=""font-size:60px;"">+</div>",NA,null,fixation,2020-06-24T22:39:51Z,NA,NA,NA,NA,NA,sub145
NA,mars-trial,14,66571,0.0-10.0-1.0,"""event"",""trial"",""time""
""focus"",""0"",""3031""
""fullscreenenter"",""0"",""6929""
","
","""event"",""trial"",""time""
""focus"",""0"",""3031""
","""event"",""trial"",""time""
""fullscreenenter"",""0"",""6929""
","
",1546.4299999875948,<img style='border: 4px solid darkgrey;' src='img/tf1_1_M_ss3.jpeg'></img>,3,NA,exp,NA,0,<img src='img/tf1_1_T1_ss3_md.jpeg'></img>,0,TRUE,NA,sub145
NA,html-keyboard-response,15,67074,0.0-10.0-0.1,"""event"",""trial"",""time""
""focus"",""0"",""3031""
""fullscreenenter"",""0"",""6929""
","
","""event"",""trial"",""time""
""focus"",""0"",""3031""
","""event"",""trial"",""time""
""fullscreenenter"",""0"",""6929""
","
",null,"<div style=""font-size:60px;"">+</div>",NA,null,fixation,2020-06-24T22:39:53Z,NA,NA,NA,NA,NA,sub145
NA,mars-trial,16,70979,0.0-10.0-1.1,"""event"",""trial"",""time""
""focus"",""0"",""3031""
""fullscreenenter"",""0"",""6929""
","
","""event"",""trial"",""time""
""focus"",""0"",""3031""
","""event"",""trial"",""time""
""fullscreenenter"",""0"",""6929""
","
",3294.304999988526,<img style='border: 4px solid darkgrey;' src='img/tf1_2_M_ss1.jpeg'></img>,1,NA,exp,NA,0,<img src='img/tf1_2_T1_ss1_md.jpeg'></img>,0,TRUE,NA,sub145
NA,html-keyboard-response,17,71484,0.0-10.0-0.2,"""event"",""trial"",""time""
""focus"",""0"",""3031""
""fullscreenenter"",""0"",""6929""
","
","""event"",""trial"",""time""
""focus"",""0"",""3031""
","""event"",""trial"",""time""
""fullscreenenter"",""0"",""6929""
","
",null,"<div style=""font-size:60px;"">+</div>",NA,null,fixation,2020-06-24T22:39:58Z,NA,NA,NA,NA,NA,sub145
NA,mars-trial,18,75169,0.0-10.0-1.2,"""event"",""trial"",""time""
""focus"",""0"",""3031""
""fullscreenenter"",""0"",""6929""
","
","""event"",""trial"",""time""
""focus"",""0"",""3031""
","""event"",""trial"",""time""
""fullscreenenter"",""0"",""6929""
","
",3075.480000115931,<img style='border: 4px solid darkgrey;' src='img/tf1_3_M_ss2.jpeg'></img>,3,NA,exp,NA,0,<img src='img/tf1_3_T1_ss2_md.jpeg'></img>,0,TRUE,NA,sub145
NA,html-keyboard-response,19,75671,0.0-10.0-0.3,"""event"",""trial"",""time""
""focus"",""0"",""3031""
""fullscreenenter"",""0"",""6929""
","
","""event"",""trial"",""time""
""focus"",""0"",""3031""
","""event"",""trial"",""time""
""fullscreenenter"",""0"",""6929""
","
",null,"<div style=""font-size:60px;"">+</div>",NA,null,fixation,2020-06-24T22:40:02Z,NA,NA,NA,NA,NA,sub145
NA,mars-trial,20,80448,0.0-10.0-1.3,"""event"",""trial"",""time""
""focus"",""0"",""3031""
""fullscreenenter"",""0"",""6929""
","
","""event"",""trial"",""time""
""focus"",""0"",""3031""
","""event"",""trial"",""time""
""fullscreenenter"",""0"",""6929""
","
",4167.890000040643,<img style='border: 4px solid darkgrey;' src='img/tf1_4_M_ss3.jpeg'></img>,0,NA,exp,NA,0,<img src='img/tf1_4_T1_ss3_md.jpeg'></img>,0,TRUE,NA,sub145
NA,html-keyboard-response,21,80952,0.0-10.0-0.4,"""event"",""trial"",""time""
""focus"",""0"",""3031""
""fullscreenenter"",""0"",""6929""
","
","""event"",""trial"",""time""
""focus"",""0"",""3031""
","""event"",""trial"",""time""
""fullscreenenter"",""0"",""6929""
","
",null,"<div style=""font-size:60px;"">+</div>",NA,null,fixation,2020-06-24T22:40:07Z,NA,NA,NA,NA,NA,sub145
NA,mars-trial,22,83614,0.0-10.0-1.4,"""event"",""trial"",""time""
""focus"",""0"",""3031""
""fullscreenenter"",""0"",""6929""
","
","""event"",""trial"",""time""
""focus"",""0"",""3031""
","""event"",""trial"",""time""
""fullscreenenter"",""0"",""6929""
","
",2053.264999995008,<img style='border: 4px solid darkgrey;' src='img/tf1_5_M_ss1.jpeg'></img>,1,NA,exp,NA,0,<img src='img/tf1_5_T1_ss1_md.jpeg'></img>,0,TRUE,NA,sub145
NA,html-keyboard-response,23,84119,0.0-10.0-0.5,"""event"",""trial"",""time""
""focus"",""0"",""3031""
""fullscreenenter"",""0"",""6929""
","
","""event"",""trial"",""time""
""focus"",""0"",""3031""
","""event"",""trial"",""time""
""fullscreenenter"",""0"",""6929""
","
",null,"<div style=""font-size:60px;"">+</div>",NA,null,fixation,2020-06-24T22:40:10Z,NA,NA,NA,NA,NA,sub145
NA,mars-trial,24,94978,0.0-10.0-1.5,"""event"",""trial"",""time""
""focus"",""0"",""3031""
""fullscreenenter"",""0"",""6929""
","
","""event"",""trial"",""time""
""focus"",""0"",""3031""
","""event"",""trial"",""time""
""fullscreenenter"",""0"",""6929""
","
",10247.155000106432,<img style='border: 4px solid darkgrey;' src='img/tf1_6_M_ss2.jpeg'></img>,0,NA,exp,NA,0,<img src='img/tf1_6_T1_ss2_md.jpeg'></img>,0,TRUE,NA,sub145
NA,html-keyboard-response,25,95483,0.0-10.0-0.6,"""event"",""trial"",""time""
""focus"",""0"",""3031""
""fullscreenenter"",""0"",""6929""
","
","""event"",""trial"",""time""
""focus"",""0"",""3031""
","""event"",""trial"",""time""
""fullscreenenter"",""0"",""6929""
","
",null,"<div style=""font-size:60px;"">+</div>",NA,null,fixation,2020-06-24T22:40:22Z,NA,NA,NA,NA,NA,sub145
NA,mars-trial,26,104955,0.0-10.0-1.6,"""event"",""trial"",""time""
""focus"",""0"",""3031""
""fullscreenenter"",""0"",""6929""
","
","""event"",""trial"",""time""
""focus"",""0"",""3031""
","""event"",""trial"",""time""
""fullscreenenter"",""0"",""6929""
","
",8859.429999953136,<img style='border: 4px solid darkgrey;' src='img/tf1_7_M_ss3.jpeg'></img>,3,NA,exp,NA,0,<img src='img/tf1_7_T1_ss3_md.jpeg'></img>,0,TRUE,NA,sub145
NA,html-keyboard-response,27,105461,0.0-10.0-0.7,"""event"",""trial"",""time""
""focus"",""0"",""3031""
""fullscreenenter"",""0"",""6929""
","
","""event"",""trial"",""time""
""focus"",""0"",""3031""
","""event"",""trial"",""time""
""fullscreenenter"",""0"",""6929""
","
",null,"<div style=""font-size:60px;"">+</div>",NA,null,fixation,2020-06-24T22:40:32Z,NA,NA,NA,NA,NA,sub145
NA,mars-trial,28,116159,0.0-10.0-1.7,"""event"",""trial"",""time""
""focus"",""0"",""3031""
""fullscreenenter"",""0"",""6929""
","
","""event"",""trial"",""time""
""focus"",""0"",""3031""
","""event"",""trial"",""time""
""fullscreenenter"",""0"",""6929""
","
",10091.55999997165,<img style='border: 4px solid darkgrey;' src='img/tf1_8_M_ss1.jpeg'></img>,2,NA,exp,NA,0,<img src='img/tf1_8_T1_ss1_md.jpeg'></img>,0,TRUE,NA,sub145
NA,html-keyboard-response,29,116662,0.0-10.0-0.8,"""event"",""trial"",""time""
""focus"",""0"",""3031""
""fullscreenenter"",""0"",""6929""
","
","""event"",""trial"",""time""
""focus"",""0"",""3031""
","""event"",""trial"",""time""
""fullscreenenter"",""0"",""6929""
","
",null,"<div style=""font-size:60px;"">+</div>",NA,null,fixation,2020-06-24T22:40:43Z,NA,NA,NA,NA,NA,sub145
NA,mars-trial,30,122597,0.0-10.0-1.8,"""event"",""trial"",""time""
""focus"",""0"",""3031""
""fullscreenenter"",""0"",""6929""
","
","""event"",""trial"",""time""
""focus"",""0"",""3031""
","""event"",""trial"",""time""
""fullscreenenter"",""0"",""6929""
","
",5327.485000016168,<img style='border: 4px solid darkgrey;' src='img/tf1_9_M_ss2.jpeg'></img>,3,NA,exp,NA,0,<img src='img/tf1_9_T1_ss2_md.jpeg'></img>,0,TRUE,NA,sub145
NA,html-keyboard-response,31,123103,0.0-10.0-0.9,"""event"",""trial"",""time""
""focus"",""0"",""3031""
""fullscreenenter"",""0"",""6929""
","
","""event"",""trial"",""time""
""focus"",""0"",""3031""
","""event"",""trial"",""time""
""fullscreenenter"",""0"",""6929""
","
",null,"<div style=""font-size:60px;"">+</div>",NA,null,fixation,2020-06-24T22:40:49Z,NA,NA,NA,NA,NA,sub145
NA,mars-trial,32,146774,0.0-10.0-1.9,"""event"",""trial"",""time""
""focus"",""0"",""3031""
""fullscreenenter"",""0"",""6929""
","
","""event"",""trial"",""time""
""focus"",""0"",""3031""
","""event"",""trial"",""time""
""fullscreenenter"",""0"",""6929""
","
",23061.25999998767,<img style='border: 4px solid darkgrey;' src='img/tf1_10_M_ss3.jpeg'></img>,1,NA,exp,NA,0,<img src='img/tf1_10_T1_ss3_md.jpeg'></img>,0,TRUE,NA,sub145
NA,html-keyboard-response,33,147280,0.0-10.0-0.10,"""event"",""trial"",""time""
""focus"",""0"",""3031""
""fullscreenenter"",""0"",""6929""
","
","""event"",""trial"",""time""
""focus"",""0"",""3031""
","""event"",""trial"",""time""
""fullscreenenter"",""0"",""6929""
","
",null,"<div style=""font-size:60px;"">+</div>",NA,null,fixation,2020-06-24T22:41:13Z,NA,NA,NA,NA,NA,sub145
NA,mars-trial,34,175103,0.0-10.0-1.10,"""event"",""trial"",""time""
""focus"",""0"",""3031""
""fullscreenenter"",""0"",""6929""
","
","""event"",""trial"",""time""
""focus"",""0"",""3031""
","""event"",""trial"",""time""
""fullscreenenter"",""0"",""6929""
","
",27212.835000013,<img style='border: 4px solid darkgrey;' src='img/tf1_11_M_ss1.jpeg'></img>,3,NA,exp,NA,1,<img src='img/tf1_11_T1_ss1_md.jpeg'></img>,0,FALSE,NA,sub145
NA,html-keyboard-response,35,175606,0.0-10.0-0.11,"""event"",""trial"",""time""
""focus"",""0"",""3031""
""fullscreenenter"",""0"",""6929""
","
","""event"",""trial"",""time""
""focus"",""0"",""3031""
","""event"",""trial"",""time""
""fullscreenenter"",""0"",""6929""
","
",null,"<div style=""font-size:60px;"">+</div>",NA,null,fixation,2020-06-24T22:41:42Z,NA,NA,NA,NA,NA,sub145
NA,mars-trial,36,185406,0.0-10.0-1.11,"""event"",""trial"",""time""
""focus"",""0"",""3031""
""fullscreenenter"",""0"",""6929""
","
","""event"",""trial"",""time""
""focus"",""0"",""3031""
","""event"",""trial"",""time""
""fullscreenenter"",""0"",""6929""
","
",9189.76500001736,<img style='border: 4px solid darkgrey;' src='img/tf1_12_M_ss2.jpeg'></img>,2,NA,exp,NA,3,<img src='img/tf1_12_T1_ss2_md.jpeg'></img>,0,FALSE,NA,sub145
NA,html-keyboard-response,37,185910,0.0-10.0-0.12,"""event"",""trial"",""time""
""focus"",""0"",""3031""
""fullscreenenter"",""0"",""6929""
","
","""event"",""trial"",""time""
""focus"",""0"",""3031""
","""event"",""trial"",""time""
""fullscreenenter"",""0"",""6929""
","
",null,"<div style=""font-size:60px;"">+</div>",NA,null,fixation,2020-06-24T22:41:52Z,NA,NA,NA,NA,NA,sub145
NA,mars-trial,38,194341,0.0-10.0-1.12,"""event"",""trial"",""time""
""focus"",""0"",""3031""
""fullscreenenter"",""0"",""6929""
","
","""event"",""trial"",""time""
""focus"",""0"",""3031""
","""event"",""trial"",""time""
""fullscreenenter"",""0"",""6929""
","
",7819.090000004508,<img style='border: 4px solid darkgrey;' src='img/tf1_13_M_ss3.jpeg'></img>,3,NA,exp,NA,1,<img src='img/tf1_13_T1_ss3_md.jpeg'></img>,0,FALSE,NA,sub145
NA,html-keyboard-response,39,194847,0.0-10.0-0.13,"""event"",""trial"",""time""
""focus"",""0"",""3031""
""fullscreenenter"",""0"",""6929""
","
","""event"",""trial"",""time""
""focus"",""0"",""3031""
","""event"",""trial"",""time""
""fullscreenenter"",""0"",""6929""
","
",null,"<div style=""font-size:60px;"">+</div>",NA,null,fixation,2020-06-24T22:42:01Z,NA,NA,NA,NA,NA,sub145
NA,mars-trial,40,206258,0.0-10.0-1.13,"""event"",""trial"",""time""
""focus"",""0"",""3031""
""fullscreenenter"",""0"",""6929""
","
","""event"",""trial"",""time""
""focus"",""0"",""3031""
","""event"",""trial"",""time""
""fullscreenenter"",""0"",""6929""
","
",10799.729999969713,<img style='border: 4px solid darkgrey;' src='img/tf1_14_M_ss1.jpeg'></img>,3,NA,exp,NA,2,<img src='img/tf1_14_T1_ss1_md.jpeg'></img>,0,FALSE,NA,sub145
NA,html-keyboard-response,41,206763,0.0-10.0-0.14,"""event"",""trial"",""time""
""focus"",""0"",""3031""
""fullscreenenter"",""0"",""6929""
","
","""event"",""trial"",""time""
""focus"",""0"",""3031""
","""event"",""trial"",""time""
""fullscreenenter"",""0"",""6929""
","
",null,"<div style=""font-size:60px;"">+</div>",NA,null,fixation,2020-06-24T22:42:13Z,NA,NA,NA,NA,NA,sub145
NA,mars-trial,42,220554,0.0-10.0-1.14,"""event"",""trial"",""time""
""focus"",""0"",""3031""
""fullscreenenter"",""0"",""6929""
","
","""event"",""trial"",""time""
""focus"",""0"",""3031""
","""event"",""trial"",""time""
""fullscreenenter"",""0"",""6929""
","
",13182.26000003051,<img style='border: 4px solid darkgrey;' src='img/tf1_15_M_ss2.jpeg'></img>,3,NA,exp,NA,0,<img src='img/tf1_15_T1_ss2_md.jpeg'></img>,0,TRUE,NA,sub145
NA,html-keyboard-response,43,221059,0.0-10.0-0.15,"""event"",""trial"",""time""
""focus"",""0"",""3031""
""fullscreenenter"",""0"",""6929""
","
","""event"",""trial"",""time""
""focus"",""0"",""3031""
","""event"",""trial"",""time""
""fullscreenenter"",""0"",""6929""
","
",null,"<div style=""font-size:60px;"">+</div>",NA,null,fixation,2020-06-24T22:42:27Z,NA,NA,NA,NA,NA,sub145
NA,mars-trial,44,229337,0.0-10.0-1.15,"""event"",""trial"",""time""
""focus"",""0"",""3031""
""fullscreenenter"",""0"",""6929""
","
","""event"",""trial"",""time""
""focus"",""0"",""3031""
","""event"",""trial"",""time""
""fullscreenenter"",""0"",""6929""
","
",7666.409999947064,<img style='border: 4px solid darkgrey;' src='img/tf1_16_M_ss3.jpeg'></img>,3,NA,exp,NA,1,<img src='img/tf1_16_T1_ss3_md.jpeg'></img>,0,FALSE,NA,sub145
NA,html-keyboard-response,45,229842,0.0-10.0-0.16,"""event"",""trial"",""time""
""focus"",""0"",""3031""
""fullscreenenter"",""0"",""6929""
","
","""event"",""trial"",""time""
""focus"",""0"",""3031""
","""event"",""trial"",""time""
""fullscreenenter"",""0"",""6929""
","
",null,"<div style=""font-size:60px;"">+</div>",NA,null,fixation,2020-06-24T22:42:36Z,NA,NA,NA,NA,NA,sub145
NA,mars-trial,46,240544,0.0-10.0-1.16,"""event"",""trial"",""time""
""focus"",""0"",""3031""
""fullscreenenter"",""0"",""6929""
","
","""event"",""trial"",""time""
""focus"",""0"",""3031""
","""event"",""trial"",""time""
""fullscreenenter"",""0"",""6929""
","
",10092.164999921806,<img style='border: 4px solid darkgrey;' src='img/tf1_17_M_ss1.jpeg'></img>,0,NA,exp,NA,3,<img src='img/tf1_17_T1_ss1_md.jpeg'></img>,0,FALSE,NA,sub145
NA,html-keyboard-response,47,241048,0.0-10.0-0.17,"""event"",""trial"",""time""
""focus"",""0"",""3031""
""fullscreenenter"",""0"",""6929""
","
","""event"",""trial"",""time""
""focus"",""0"",""3031""
","""event"",""trial"",""time""
""fullscreenenter"",""0"",""6929""
","
",null,"<div style=""font-size:60px;"">+</div>",NA,null,fixation,2020-06-24T22:42:47Z,NA,NA,NA,NA,NA,sub145
NA,mars-trial,48,251792,0.0-10.0-1.17,"""event"",""trial"",""time""
""focus"",""0"",""3031""
""fullscreenenter"",""0"",""6929""
","
","""event"",""trial"",""time""
""focus"",""0"",""3031""
","""event"",""trial"",""time""
""fullscreenenter"",""0"",""6929""
","
",10133.75499995891,<img style='border: 4px solid darkgrey;' src='img/tf1_18_M_ss2.jpeg'></img>,1,NA,exp,NA,0,<img src='img/tf1_18_T1_ss2_md.jpeg'></img>,0,TRUE,NA,sub145
NA,html-keyboard-response,49,252296,0.0-10.0-0.18,"""event"",""trial"",""time""
""focus"",""0"",""3031""
""fullscreenenter"",""0"",""6929""
","
","""event"",""trial"",""time""
""focus"",""0"",""3031""
","""event"",""trial"",""time""
""fullscreenenter"",""0"",""6929""
","
",null,"<div style=""font-size:60px;"">+</div>",NA,null,fixation,2020-06-24T22:42:58Z,NA,NA,NA,NA,NA,sub145
NA,mars-trial,50,258341,0.0-10.0-1.18,"""event"",""trial"",""time""
""focus"",""0"",""3031""
""fullscreenenter"",""0"",""6929""
","
","""event"",""trial"",""time""
""focus"",""0"",""3031""
","""event"",""trial"",""time""
""fullscreenenter"",""0"",""6929""
","
",5435.124999959953,<img style='border: 4px solid darkgrey;' src='img/tf1_19_M_ss3.jpeg'></img>,0,NA,exp,NA,0,<img src='img/tf1_19_T1_ss3_md.jpeg'></img>,0,TRUE,NA,sub145
NA,html-keyboard-response,51,258845,0.0-10.0-0.19,"""event"",""trial"",""time""
""focus"",""0"",""3031""
""fullscreenenter"",""0"",""6929""
","
","""event"",""trial"",""time""
""focus"",""0"",""3031""
","""event"",""trial"",""time""
""fullscreenenter"",""0"",""6929""
","
",null,"<div style=""font-size:60px;"">+</div>",NA,null,fixation,2020-06-24T22:43:05Z,NA,NA,NA,NA,NA,sub145
NA,mars-trial,52,267507,0.0-10.0-1.19,"""event"",""trial"",""time""
""focus"",""0"",""3031""
""fullscreenenter"",""0"",""6929""
","
","""event"",""trial"",""time""
""focus"",""0"",""3031""
","""event"",""trial"",""time""
""fullscreenenter"",""0"",""6929""
","
",8048.880000016652,<img style='border: 4px solid darkgrey;' src='img/tf1_20_M_ss1.jpeg'></img>,3,NA,exp,NA,0,<img src='img/tf1_20_T1_ss1_md.jpeg'></img>,0,TRUE,NA,sub145
NA,html-keyboard-response,53,268012,0.0-10.0-0.20,"""event"",""trial"",""time""
""focus"",""0"",""3031""
""fullscreenenter"",""0"",""6929""
","
","""event"",""trial"",""time""
""focus"",""0"",""3031""
","""event"",""trial"",""time""
""fullscreenenter"",""0"",""6929""
","
",null,"<div style=""font-size:60px;"">+</div>",NA,null,fixation,2020-06-24T22:43:14Z,NA,NA,NA,NA,NA,sub145
NA,mars-trial,54,276539,0.0-10.0-1.20,"""event"",""trial"",""time""
""focus"",""0"",""3031""
""fullscreenenter"",""0"",""6929""
","
","""event"",""trial"",""time""
""focus"",""0"",""3031""
","""event"",""trial"",""time""
""fullscreenenter"",""0"",""6929""
","
",7918.24499994982,<img style='border: 4px solid darkgrey;' src='img/tf1_21_M_ss2.jpeg'></img>,3,NA,exp,NA,1,<img src='img/tf1_21_T1_ss2_md.jpeg'></img>,0,FALSE,NA,sub145
NA,html-keyboard-response,55,277044,0.0-10.0-0.21,"""event"",""trial"",""time""
""focus"",""0"",""3031""
""fullscreenenter"",""0"",""6929""
","
","""event"",""trial"",""time""
""focus"",""0"",""3031""
","""event"",""trial"",""time""
""fullscreenenter"",""0"",""6929""
","
",null,"<div style=""font-size:60px;"">+</div>",NA,null,fixation,2020-06-24T22:43:23Z,NA,NA,NA,NA,NA,sub145
NA,mars-trial,56,282646,0.0-10.0-1.21,"""event"",""trial"",""time""
""focus"",""0"",""3031""
""fullscreenenter"",""0"",""6929""
","
","""event"",""trial"",""time""
""focus"",""0"",""3031""
","""event"",""trial"",""time""
""fullscreenenter"",""0"",""6929""
","
",4992.379999952391,<img style='border: 4px solid darkgrey;' src='img/tf1_22_M_ss3.jpeg'></img>,3,NA,exp,NA,0,<img src='img/tf1_22_T1_ss3_md.jpeg'></img>,0,TRUE,NA,sub145
NA,html-keyboard-response,57,283151,0.0-10.0-0.22,"""event"",""trial"",""time""
""focus"",""0"",""3031""
""fullscreenenter"",""0"",""6929""
","
","""event"",""trial"",""time""
""focus"",""0"",""3031""
","""event"",""trial"",""time""
""fullscreenenter"",""0"",""6929""
","
",null,"<div style=""font-size:60px;"">+</div>",NA,null,fixation,2020-06-24T22:43:29Z,NA,NA,NA,NA,NA,sub145
NA,mars-trial,58,302754,0.0-10.0-1.22,"""event"",""trial"",""time""
""focus"",""0"",""3031""
""fullscreenenter"",""0"",""6929""
","
","""event"",""trial"",""time""
""focus"",""0"",""3031""
","""event"",""trial"",""time""
""fullscreenenter"",""0"",""6929""
","
",18995.019999914803,<img style='border: 4px solid darkgrey;' src='img/tf1_23_M_ss1.jpeg'></img>,3,NA,exp,NA,3,<img src='img/tf1_23_T1_ss1_md.jpeg'></img>,0,FALSE,NA,sub145
NA,html-keyboard-response,59,303260,0.0-10.0-0.23,"""event"",""trial"",""time""
""focus"",""0"",""3031""
""fullscreenenter"",""0"",""6929""
","
","""event"",""trial"",""time""
""focus"",""0"",""3031""
","""event"",""trial"",""time""
""fullscreenenter"",""0"",""6929""
","
",null,"<div style=""font-size:60px;"">+</div>",NA,null,fixation,2020-06-24T22:43:49Z,NA,NA,NA,NA,NA,sub145
NA,mars-trial,60,311257,0.0-10.0-1.23,"""event"",""trial"",""time""
""focus"",""0"",""3031""
""fullscreenenter"",""0"",""6929""
","
","""event"",""trial"",""time""
""focus"",""0"",""3031""
","""event"",""trial"",""time""
""fullscreenenter"",""0"",""6929""
","
",7384.320000070147,<img style='border: 4px solid darkgrey;' src='img/tf1_24_M_ss2.jpeg'></img>,3,NA,exp,NA,1,<img src='img/tf1_24_T1_ss2_md.jpeg'></img>,0,FALSE,NA,sub145
NA,html-keyboard-response,61,311760,0.0-10.0-0.24,"""event"",""trial"",""time""
""focus"",""0"",""3031""
""fullscreenenter"",""0"",""6929""
","
","""event"",""trial"",""time""
""focus"",""0"",""3031""
","""event"",""trial"",""time""
""fullscreenenter"",""0"",""6929""
","
",null,"<div style=""font-size:60px;"">+</div>",NA,null,fixation,2020-06-24T22:43:58Z,NA,NA,NA,NA,NA,sub145
NA,mars-trial,62,316847,0.0-10.0-1.24,"""event"",""trial"",""time""
""focus"",""0"",""3031""
""fullscreenenter"",""0"",""6929""
","
","""event"",""trial"",""time""
""focus"",""0"",""3031""
","""event"",""trial"",""time""
""fullscreenenter"",""0"",""6929""
","
",4476.109999930486,<img style='border: 4px solid darkgrey;' src='img/tf1_25_M_ss3.jpeg'></img>,1,NA,exp,NA,0,<img src='img/tf1_25_T1_ss3_md.jpeg'></img>,0,TRUE,NA,sub145
NA,html-keyboard-response,63,317350,0.0-10.0-0.25,"""event"",""trial"",""time""
""focus"",""0"",""3031""
""fullscreenenter"",""0"",""6929""
","
","""event"",""trial"",""time""
""focus"",""0"",""3031""
","""event"",""trial"",""time""
""fullscreenenter"",""0"",""6929""
","
",null,"<div style=""font-size:60px;"">+</div>",NA,null,fixation,2020-06-24T22:44:04Z,NA,NA,NA,NA,NA,sub145
NA,mars-trial,64,330380,0.0-10.0-1.25,"""event"",""trial"",""time""
""focus"",""0"",""3031""
""fullscreenenter"",""0"",""6929""
","
","""event"",""trial"",""time""
""focus"",""0"",""3031""
","""event"",""trial"",""time""
""fullscreenenter"",""0"",""6929""
","
",12422.835000092164,<img style='border: 4px solid darkgrey;' src='img/tf1_26_M_ss1.jpeg'></img>,2,NA,exp,NA,3,<img src='img/tf1_26_T1_ss1_md.jpeg'></img>,0,FALSE,NA,sub145
NA,html-keyboard-response,65,330882,0.0-10.0-0.26,"""event"",""trial"",""time""
""focus"",""0"",""3031""
""fullscreenenter"",""0"",""6929""
","
","""event"",""trial"",""time""
""focus"",""0"",""3031""
","""event"",""trial"",""time""
""fullscreenenter"",""0"",""6929""
","
",null,"<div style=""font-size:60px;"">+</div>",NA,null,fixation,2020-06-24T22:44:17Z,NA,NA,NA,NA,NA,sub145
NA,mars-trial,66,342361,0.0-10.0-1.26,"""event"",""trial"",""time""
""focus"",""0"",""3031""
""fullscreenenter"",""0"",""6929""
","
","""event"",""trial"",""time""
""focus"",""0"",""3031""
","""event"",""trial"",""time""
""fullscreenenter"",""0"",""6929""
","
",10868.100000079721,<img style='border: 4px solid darkgrey;' src='img/tf1_27_M_ss2.jpeg'></img>,0,NA,exp,NA,3,<img src='img/tf1_27_T1_ss2_md.jpeg'></img>,0,FALSE,NA,sub145
NA,html-keyboard-response,67,342866,0.0-10.0-0.27,"""event"",""trial"",""time""
""focus"",""0"",""3031""
""fullscreenenter"",""0"",""6929""
","
","""event"",""trial"",""time""
""focus"",""0"",""3031""
","""event"",""trial"",""time""
""fullscreenenter"",""0"",""6929""
","
",null,"<div style=""font-size:60px;"">+</div>",NA,null,fixation,2020-06-24T22:44:29Z,NA,NA,NA,NA,NA,sub145
NA,mars-trial,68,356983,0.0-10.0-1.27,"""event"",""trial"",""time""
""focus"",""0"",""3031""
""fullscreenenter"",""0"",""6929""
","
","""event"",""trial"",""time""
""focus"",""0"",""3031""
","""event"",""trial"",""time""
""fullscreenenter"",""0"",""6929""
","
",13509.625000064261,<img style='border: 4px solid darkgrey;' src='img/tf1_28_M_ss3.jpeg'></img>,3,NA,exp,NA,0,<img src='img/tf1_28_T1_ss3_md.jpeg'></img>,0,TRUE,NA,sub145
NA,html-keyboard-response,69,357485,0.0-10.0-0.28,"""event"",""trial"",""time""
""focus"",""0"",""3031""
""fullscreenenter"",""0"",""6929""
","
","""event"",""trial"",""time""
""focus"",""0"",""3031""
","""event"",""trial"",""time""
""fullscreenenter"",""0"",""6929""
","
",null,"<div style=""font-size:60px;"">+</div>",NA,null,fixation,2020-06-24T22:44:44Z,NA,NA,NA,NA,NA,sub145
NA,mars-trial,70,373638,0.0-10.0-1.28,"""event"",""trial"",""time""
""focus"",""0"",""3031""
""fullscreenenter"",""0"",""6929""
","
","""event"",""trial"",""time""
""focus"",""0"",""3031""
","""event"",""trial"",""time""
""fullscreenenter"",""0"",""6929""
","
",15543.424999923445,<img style='border: 4px solid darkgrey;' src='img/tf1_29_M_ss1.jpeg'></img>,2,NA,exp,NA,0,<img src='img/tf1_29_T1_ss1_md.jpeg'></img>,0,TRUE,NA,sub145
NA,html-keyboard-response,71,374141,0.0-10.0-0.29,"""event"",""trial"",""time""
""focus"",""0"",""3031""
""fullscreenenter"",""0"",""6929""
","
","""event"",""trial"",""time""
""focus"",""0"",""3031""
","""event"",""trial"",""time""
""fullscreenenter"",""0"",""6929""
","
",null,"<div style=""font-size:60px;"">+</div>",NA,null,fixation,2020-06-24T22:45:00Z,NA,NA,NA,NA,NA,sub145
NA,mars-trial,72,391382,0.0-10.0-1.29,"""event"",""trial"",""time""
""focus"",""0"",""3031""
""fullscreenenter"",""0"",""6929""
","
","""event"",""trial"",""time""
""focus"",""0"",""3031""
","""event"",""trial"",""time""
""fullscreenenter"",""0"",""6929""
","
",16633.53999995161,<img style='border: 4px solid darkgrey;' src='img/tf1_30_M_ss2.jpeg'></img>,2,NA,exp,NA,1,<img src='img/tf1_30_T1_ss2_md.jpeg'></img>,0,FALSE,NA,sub145
NA,html-keyboard-response,73,391888,0.0-10.0-0.30,"""event"",""trial"",""time""
""focus"",""0"",""3031""
""fullscreenenter"",""0"",""6929""
","
","""event"",""trial"",""time""
""focus"",""0"",""3031""
","""event"",""trial"",""time""
""fullscreenenter"",""0"",""6929""
","
",null,"<div style=""font-size:60px;"">+</div>",NA,null,fixation,2020-06-24T22:45:18Z,NA,NA,NA,NA,NA,sub145
NA,mars-trial,74,410809,0.0-10.0-1.30,"""event"",""trial"",""time""
""focus"",""0"",""3031""
""fullscreenenter"",""0"",""6929""
","
","""event"",""trial"",""time""
""focus"",""0"",""3031""
","""event"",""trial"",""time""
""fullscreenenter"",""0"",""6929""
","
",18311.729999957606,<img style='border: 4px solid darkgrey;' src='img/tf1_31_M_ss3.jpeg'></img>,3,NA,exp,NA,0,<img src='img/tf1_31_T1_ss3_md.jpeg'></img>,0,TRUE,NA,sub145
NA,html-keyboard-response,75,411315,0.0-10.0-0.31,"""event"",""trial"",""time""
""focus"",""0"",""3031""
""fullscreenenter"",""0"",""6929""
","
","""event"",""trial"",""time""
""focus"",""0"",""3031""
","""event"",""trial"",""time""
""fullscreenenter"",""0"",""6929""
","
",null,"<div style=""font-size:60px;"">+</div>",NA,null,fixation,2020-06-24T22:45:37Z,NA,NA,NA,NA,NA,sub145
NA,mars-trial,76,424010,0.0-10.0-1.31,"""event"",""trial"",""time""
""focus"",""0"",""3031""
""fullscreenenter"",""0"",""6929""
","
","""event"",""trial"",""time""
""focus"",""0"",""3031""
","""event"",""trial"",""time""
""fullscreenenter"",""0"",""6929""
","
",12084.135000011884,<img style='border: 4px solid darkgrey;' src='img/tf1_32_M_ss1.jpeg'></img>,2,NA,exp,NA,0,<img src='img/tf1_32_T1_ss1_md.jpeg'></img>,0,TRUE,NA,sub145
NA,html-keyboard-response,77,424514,0.0-10.0-0.32,"""event"",""trial"",""time""
""focus"",""0"",""3031""
""fullscreenenter"",""0"",""6929""
","
","""event"",""trial"",""time""
""focus"",""0"",""3031""
","""event"",""trial"",""time""
""fullscreenenter"",""0"",""6929""
","
",null,"<div style=""font-size:60px;"">+</div>",NA,null,fixation,2020-06-24T22:45:51Z,NA,NA,NA,NA,NA,sub145
NA,mars-trial,78,430309,0.0-10.0-1.32,"""event"",""trial"",""time""
""focus"",""0"",""3031""
""fullscreenenter"",""0"",""6929""
","
","""event"",""trial"",""time""
""focus"",""0"",""3031""
","""event"",""trial"",""time""
""fullscreenenter"",""0"",""6929""
","
",5186.180000077002,<img style='border: 4px solid darkgrey;' src='img/tf1_33_M_ss2.jpeg'></img>,3,NA,exp,NA,0,<img src='img/tf1_33_T1_ss2_md.jpeg'></img>,0,TRUE,NA,sub145
NA,html-keyboard-response,79,430815,0.0-10.0-0.33,"""event"",""trial"",""time""
""focus"",""0"",""3031""
""fullscreenenter"",""0"",""6929""
","
","""event"",""trial"",""time""
""focus"",""0"",""3031""
","""event"",""trial"",""time""
""fullscreenenter"",""0"",""6929""
","
",null,"<div style=""font-size:60px;"">+</div>",NA,null,fixation,2020-06-24T22:45:57Z,NA,NA,NA,NA,NA,sub145
NA,mars-trial,80,456624,0.0-10.0-1.33,"""event"",""trial"",""time""
""focus"",""0"",""3031""
""fullscreenenter"",""0"",""6929""
","
","""event"",""trial"",""time""
""focus"",""0"",""3031""
","""event"",""trial"",""time""
""fullscreenenter"",""0"",""6929""
","
",25200.545000028796,<img style='border: 4px solid darkgrey;' src='img/tf1_34_M_ss3.jpeg'></img>,1,NA,exp,NA,1,<img src='img/tf1_34_T1_ss3_md.jpeg'></img>,0,FALSE,NA,sub145
NA,html-keyboard-response,81,457129,0.0-10.0-0.34,"""event"",""trial"",""time""
""focus"",""0"",""3031""
""fullscreenenter"",""0"",""6929""
","
","""event"",""trial"",""time""
""focus"",""0"",""3031""
","""event"",""trial"",""time""
""fullscreenenter"",""0"",""6929""
","
",null,"<div style=""font-size:60px;"">+</div>",NA,null,fixation,2020-06-24T22:46:23Z,NA,NA,NA,NA,NA,sub145
NA,mars-trial,82,480767,0.0-10.0-1.34,"""event"",""trial"",""time""
""focus"",""0"",""3031""
""fullscreenenter"",""0"",""6929""
","
","""event"",""trial"",""time""
""focus"",""0"",""3031""
","""event"",""trial"",""time""
""fullscreenenter"",""0"",""6929""
","
",23031.169999972917,<img style='border: 4px solid darkgrey;' src='img/tf1_35_M_ss1.jpeg'></img>,0,NA,exp,NA,0,<img src='img/tf1_35_T1_ss1_md.jpeg'></img>,0,TRUE,NA,sub145
NA,html-keyboard-response,83,481271,0.0-10.0-0.35,"""event"",""trial"",""time""
""focus"",""0"",""3031""
""fullscreenenter"",""0"",""6929""
","
","""event"",""trial"",""time""
""focus"",""0"",""3031""
","""event"",""trial"",""time""
""fullscreenenter"",""0"",""6929""
","
",null,"<div style=""font-size:60px;"">+</div>",NA,null,fixation,2020-06-24T22:46:47Z,NA,NA,NA,NA,NA,sub145
NA,mars-trial,84,499368,0.0-10.0-1.35,"""event"",""trial"",""time""
""focus"",""0"",""3031""
""fullscreenenter"",""0"",""6929""
","
","""event"",""trial"",""time""
""focus"",""0"",""3031""
","""event"",""trial"",""time""
""fullscreenenter"",""0"",""6929""
","
",17486.550000030547,<img style='border: 4px solid darkgrey;' src='img/tf1_36_M_ss2.jpeg'></img>,3,NA,exp,NA,3,<img src='img/tf1_36_T1_ss2_md.jpeg'></img>,0,FALSE,NA,sub145
NA,html-keyboard-response,85,499873,0.0-10.0-0.36,"""event"",""trial"",""time""
""focus"",""0"",""3031""
""fullscreenenter"",""0"",""6929""
","
","""event"",""trial"",""time""
""focus"",""0"",""3031""
","""event"",""trial"",""time""
""fullscreenenter"",""0"",""6929""
","
",null,"<div style=""font-size:60px;"">+</div>",NA,null,fixation,2020-06-24T22:47:06Z,NA,NA,NA,NA,NA,sub145
NA,mars-trial,86,529466,0.0-10.0-1.36,"""event"",""trial"",""time""
""focus"",""0"",""3031""
""fullscreenenter"",""0"",""6929""
","
","""event"",""trial"",""time""
""focus"",""0"",""3031""
","""event"",""trial"",""time""
""fullscreenenter"",""0"",""6929""
","
",28983.89999999199,<img style='border: 4px solid darkgrey;' src='img/tf1_37_M_ss3.jpeg'></img>,0,NA,exp,NA,0,<img src='img/tf1_37_T1_ss3_md.jpeg'></img>,0,TRUE,NA,sub145
NA,html-keyboard-response,87,529972,0.0-10.0-0.37,"""event"",""trial"",""time""
""focus"",""0"",""3031""
""fullscreenenter"",""0"",""6929""
","
","""event"",""trial"",""time""
""focus"",""0"",""3031""
","""event"",""trial"",""time""
""fullscreenenter"",""0"",""6929""
","
",null,"<div style=""font-size:60px;"">+</div>",NA,null,fixation,2020-06-24T22:47:36Z,NA,NA,NA,NA,NA,sub145
NA,mars-trial,88,536824,0.0-10.0-1.37,"""event"",""trial"",""time""
""focus"",""0"",""3031""
""fullscreenenter"",""0"",""6929""
","
","""event"",""trial"",""time""
""focus"",""0"",""3031""
","""event"",""trial"",""time""
""fullscreenenter"",""0"",""6929""
","
",6241.455000010319,<img style='border: 4px solid darkgrey;' src='img/tf1_38_M_ss1.jpeg'></img>,2,NA,exp,NA,0,<img src='img/tf1_38_T1_ss1_md.jpeg'></img>,0,TRUE,NA,sub145
NA,html-keyboard-response,89,537326,0.0-10.0-0.38,"""event"",""trial"",""time""
""focus"",""0"",""3031""
""fullscreenenter"",""0"",""6929""
","
","""event"",""trial"",""time""
""focus"",""0"",""3031""
","""event"",""trial"",""time""
""fullscreenenter"",""0"",""6929""
","
",null,"<div style=""font-size:60px;"">+</div>",NA,null,fixation,2020-06-24T22:47:43Z,NA,NA,NA,NA,NA,sub145
NA,mars-trial,90,543906,0.0-10.0-1.38,"""event"",""trial"",""time""
""focus"",""0"",""3031""
""fullscreenenter"",""0"",""6929""
","
","""event"",""trial"",""time""
""focus"",""0"",""3031""
","""event"",""trial"",""time""
""fullscreenenter"",""0"",""6929""
","
",NA,NA,NA,NA,exp,NA,NA,<img src='img/tf1_39_T1_ss2_md.jpeg'></img>,0,FALSE,NA,sub145
NA,html-keyboard-response,91,544412,0.0-10.0-0.39,"""event"",""trial"",""time""
""focus"",""0"",""3031""
""fullscreenenter"",""0"",""6929""
","
","""event"",""trial"",""time""
""focus"",""0"",""3031""
","""event"",""trial"",""time""
""fullscreenenter"",""0"",""6929""
","
",null,"<div style=""font-size:60px;"">+</div>",NA,null,fixation,2020-06-24T22:47:51Z,NA,NA,NA,NA,NA,sub145
NA,audio-button-response,92,548499,0.0-11.0,"""event"",""trial"",""time""
""focus"",""0"",""3031""
""fullscreenenter"",""0"",""6929""
","
","""event"",""trial"",""time""
""focus"",""0"",""3031""
","""event"",""trial"",""time""
""fullscreenenter"",""0"",""6929""
","
",3985.355000011623,audio/mars_instructions_slide5.wav,0,NA,NA,NA,NA,NA,NA,NA,NA,sub145
