success,trial_type,trial_index,time_elapsed,internal_node_id,interactions,blur_events,focus_events,fullscreenenter_events,fullscreenexit_events,rt,stimulus,button_pressed,key_press,part,timestamp,unshuffled_button,correct_response,correct_button,correct,value,subject_id
TRUE,fullscreen,0,6016,0.0-0.0,"""event"",""trial"",""time""
""fullscreenenter"",""0"",""5063""
","
","
","""event"",""trial"",""time""
""fullscreenenter"",""0"",""5063""
","
",NA,NA,NA,NA,NA,NA,NA,NA,NA,NA,NA,sub99
NA,pavlovia,1,6021,0.0-1.0,"""event"",""trial"",""time""
""fullscreenenter"",""0"",""5063""
","
","
","""event"",""trial"",""time""
""fullscreenenter"",""0"",""5063""
","
",NA,NA,NA,NA,NA,NA,NA,NA,NA,NA,NA,sub99
NA,html-button-response,2,8183,0.0-2.0,"""event"",""trial"",""time""
""fullscreenenter"",""0"",""5063""
","
","
","""event"",""trial"",""time""
""fullscreenenter"",""0"",""5063""
","
",2159.9150000256486,<p>Welcome! Press START to begin.</p><br>,0,NA,NA,NA,NA,NA,NA,NA,NA,sub99
NA,audio-button-response,3,23865,0.0-3.0,"""event"",""trial"",""time""
""fullscreenenter"",""0"",""5063""
","
","
","""event"",""trial"",""time""
""fullscreenenter"",""0"",""5063""
","
",15679.724999994505,audio/mars_instructions_slide2.wav,0,NA,NA,NA,NA,NA,NA,NA,NA,sub99
NA,audio-button-response,4,39827,0.0-4.0,"""event"",""trial"",""time""
""fullscreenenter"",""0"",""5063""
","
","
","""event"",""trial"",""time""
""fullscreenenter"",""0"",""5063""
","
",15960.844999994151,audio/mars_instructions_slide3.wav,0,NA,NA,NA,NA,NA,NA,NA,NA,sub99
NA,html-keyboard-response,5,40330,0.0-5.0-0.0,"""event"",""trial"",""time""
""fullscreenenter"",""0"",""5063""
","
","
","""event"",""trial"",""time""
""fullscreenenter"",""0"",""5063""
","
",null,"<div style=""font-size:60px;"">+</div>",NA,null,fixation,2020-06-23T16:52:19Z,NA,NA,NA,NA,NA,sub99
NA,mars-trial,6,47358,0.0-5.0-1.0,"""event"",""trial"",""time""
""fullscreenenter"",""0"",""5063""
","
","
","""event"",""trial"",""time""
""fullscreenenter"",""0"",""5063""
","
",4921.629999997094,<img style='border: 4px solid darkgrey;' src='practice/pt1_M1.png'></img>,1,NA,practice,NA,0,<img src='practice/pt1_T1.png'></img>,0,TRUE,NA,sub99
NA,html-keyboard-response,7,47861,0.0-6.0-0.0,"""event"",""trial"",""time""
""fullscreenenter"",""0"",""5063""
","
","
","""event"",""trial"",""time""
""fullscreenenter"",""0"",""5063""
","
",null,"<div style=""font-size:60px;"">+</div>",NA,null,fixation,2020-06-23T16:52:26Z,NA,NA,NA,NA,NA,sub99
NA,mars-trial,8,52538,0.0-6.0-1.0,"""event"",""trial"",""time""
""fullscreenenter"",""0"",""5063""
","
","
","""event"",""trial"",""time""
""fullscreenenter"",""0"",""5063""
","
",2571.4499999885447,<img style='border: 4px solid darkgrey;' src='practice/pt2_M1.png'></img>,1,NA,practice,NA,0,<img src='practice/pt2_T1.png'></img>,0,TRUE,NA,sub99
NA,html-keyboard-response,9,53040,0.0-7.0-0.0,"""event"",""trial"",""time""
""fullscreenenter"",""0"",""5063""
","
","
","""event"",""trial"",""time""
""fullscreenenter"",""0"",""5063""
","
",null,"<div style=""font-size:60px;"">+</div>",NA,null,fixation,2020-06-23T16:52:31Z,NA,NA,NA,NA,NA,sub99
NA,mars-trial,10,56821,0.0-7.0-1.0,"""event"",""trial"",""time""
""fullscreenenter"",""0"",""5063""
","
","
","""event"",""trial"",""time""
""fullscreenenter"",""0"",""5063""
","
",1676.9949999870732,<img style='border: 4px solid darkgrey;' src='practice/pt3_M1.png'></img>,2,NA,practice,NA,0,<img src='practice/pt3_T1.png'></img>,0,TRUE,NA,sub99
NA,audio-button-response,11,62650,0.0-8.0,"""event"",""trial"",""time""
""fullscreenenter"",""0"",""5063""
","
","
","""event"",""trial"",""time""
""fullscreenenter"",""0"",""5063""
","
",5826.530000020284,audio/mars_instructions_slide4.wav,0,NA,NA,NA,NA,NA,NA,NA,NA,sub99
NA,call-function,12,62651,0.0-9.0,"""event"",""trial"",""time""
""fullscreenenter"",""0"",""5063""
","
","
","""event"",""trial"",""time""
""fullscreenenter"",""0"",""5063""
","
",NA,NA,NA,NA,NA,NA,NA,NA,NA,NA,NA,sub99
NA,html-keyboard-response,13,63152,0.0-10.0-0.0,"""event"",""trial"",""time""
""fullscreenenter"",""0"",""5063""
","
","
","""event"",""trial"",""time""
""fullscreenenter"",""0"",""5063""
","
",null,"<div style=""font-size:60px;"">+</div>",NA,null,fixation,2020-06-23T16:52:41Z,NA,NA,NA,NA,NA,sub99
NA,mars-trial,14,65242,0.0-10.0-1.0,"""event"",""trial"",""time""
""fullscreenenter"",""0"",""5063""
","
","
","""event"",""trial"",""time""
""fullscreenenter"",""0"",""5063""
","
",1484.104999981355,<img style='border: 4px solid darkgrey;' src='img/tf1_1_M_ss3.jpeg'></img>,1,NA,exp,NA,0,<img src='img/tf1_1_T1_ss3_md.jpeg'></img>,0,TRUE,NA,sub99
NA,html-keyboard-response,15,65744,0.0-10.0-0.1,"""event"",""trial"",""time""
""fullscreenenter"",""0"",""5063""
","
","
","""event"",""trial"",""time""
""fullscreenenter"",""0"",""5063""
","
",null,"<div style=""font-size:60px;"">+</div>",NA,null,fixation,2020-06-23T16:52:44Z,NA,NA,NA,NA,NA,sub99
NA,mars-trial,16,69783,0.0-10.0-1.1,"""event"",""trial"",""time""
""fullscreenenter"",""0"",""5063""
","
","
","""event"",""trial"",""time""
""fullscreenenter"",""0"",""5063""
","
",3434.030000003986,<img style='border: 4px solid darkgrey;' src='img/tf1_2_M_ss1.jpeg'></img>,1,NA,exp,NA,0,<img src='img/tf1_2_T1_ss1_md.jpeg'></img>,0,TRUE,NA,sub99
NA,html-keyboard-response,17,70285,0.0-10.0-0.2,"""event"",""trial"",""time""
""fullscreenenter"",""0"",""5063""
","
","
","""event"",""trial"",""time""
""fullscreenenter"",""0"",""5063""
","
",null,"<div style=""font-size:60px;"">+</div>",NA,null,fixation,2020-06-23T16:52:49Z,NA,NA,NA,NA,NA,sub99
NA,mars-trial,18,72936,0.0-10.0-1.2,"""event"",""trial"",""time""
""fullscreenenter"",""0"",""5063""
","
","
","""event"",""trial"",""time""
""fullscreenenter"",""0"",""5063""
","
",2045.749999990221,<img style='border: 4px solid darkgrey;' src='img/tf1_3_M_ss2.jpeg'></img>,0,NA,exp,NA,0,<img src='img/tf1_3_T1_ss2_md.jpeg'></img>,0,TRUE,NA,sub99
NA,html-keyboard-response,19,73439,0.0-10.0-0.3,"""event"",""trial"",""time""
""fullscreenenter"",""0"",""5063""
","
","
","""event"",""trial"",""time""
""fullscreenenter"",""0"",""5063""
","
",null,"<div style=""font-size:60px;"">+</div>",NA,null,fixation,2020-06-23T16:52:52Z,NA,NA,NA,NA,NA,sub99
NA,mars-trial,20,76510,0.0-10.0-1.3,"""event"",""trial"",""time""
""fullscreenenter"",""0"",""5063""
","
","
","""event"",""trial"",""time""
""fullscreenenter"",""0"",""5063""
","
",2465.780000027735,<img style='border: 4px solid darkgrey;' src='img/tf1_4_M_ss3.jpeg'></img>,0,NA,exp,NA,0,<img src='img/tf1_4_T1_ss3_md.jpeg'></img>,0,TRUE,NA,sub99
NA,html-keyboard-response,21,77013,0.0-10.0-0.4,"""event"",""trial"",""time""
""fullscreenenter"",""0"",""5063""
","
","
","""event"",""trial"",""time""
""fullscreenenter"",""0"",""5063""
","
",null,"<div style=""font-size:60px;"">+</div>",NA,null,fixation,2020-06-23T16:52:55Z,NA,NA,NA,NA,NA,sub99
NA,mars-trial,22,79154,0.0-10.0-1.4,"""event"",""trial"",""time""
""fullscreenenter"",""0"",""5063""
","
","
","""event"",""trial"",""time""
""fullscreenenter"",""0"",""5063""
","
",1535.2249999996275,<img style='border: 4px solid darkgrey;' src='img/tf1_5_M_ss1.jpeg'></img>,2,NA,exp,NA,0,<img src='img/tf1_5_T1_ss1_md.jpeg'></img>,0,TRUE,NA,sub99
NA,html-keyboard-response,23,79656,0.0-10.0-0.5,"""event"",""trial"",""time""
""fullscreenenter"",""0"",""5063""
","
","
","""event"",""trial"",""time""
""fullscreenenter"",""0"",""5063""
","
",null,"<div style=""font-size:60px;"">+</div>",NA,null,fixation,2020-06-23T16:52:58Z,NA,NA,NA,NA,NA,sub99
NA,mars-trial,24,85961,0.0-10.0-1.5,"""event"",""trial"",""time""
""fullscreenenter"",""0"",""5063""
","
","
","""event"",""trial"",""time""
""fullscreenenter"",""0"",""5063""
","
",5699.239999987185,<img style='border: 4px solid darkgrey;' src='img/tf1_6_M_ss2.jpeg'></img>,0,NA,exp,NA,3,<img src='img/tf1_6_T1_ss2_md.jpeg'></img>,0,FALSE,NA,sub99
NA,html-keyboard-response,25,86463,0.0-10.0-0.6,"""event"",""trial"",""time""
""fullscreenenter"",""0"",""5063""
","
","
","""event"",""trial"",""time""
""fullscreenenter"",""0"",""5063""
","
",null,"<div style=""font-size:60px;"">+</div>",NA,null,fixation,2020-06-23T16:53:05Z,NA,NA,NA,NA,NA,sub99
NA,mars-trial,26,90825,0.0-10.0-1.6,"""event"",""trial"",""time""
""fullscreenenter"",""0"",""5063""
","
","
","""event"",""trial"",""time""
""fullscreenenter"",""0"",""5063""
","
",3755.33000001451,<img style='border: 4px solid darkgrey;' src='img/tf1_7_M_ss3.jpeg'></img>,3,NA,exp,NA,0,<img src='img/tf1_7_T1_ss3_md.jpeg'></img>,0,TRUE,NA,sub99
NA,html-keyboard-response,27,91327,0.0-10.0-0.7,"""event"",""trial"",""time""
""fullscreenenter"",""0"",""5063""
","
","
","""event"",""trial"",""time""
""fullscreenenter"",""0"",""5063""
","
",null,"<div style=""font-size:60px;"">+</div>",NA,null,fixation,2020-06-23T16:53:10Z,NA,NA,NA,NA,NA,sub99
NA,mars-trial,28,95076,0.0-10.0-1.7,"""event"",""trial"",""time""
""fullscreenenter"",""0"",""5063""
","
","
","""event"",""trial"",""time""
""fullscreenenter"",""0"",""5063""
","
",3144.2349999560975,<img style='border: 4px solid darkgrey;' src='img/tf1_8_M_ss1.jpeg'></img>,3,NA,exp,NA,0,<img src='img/tf1_8_T1_ss1_md.jpeg'></img>,0,TRUE,NA,sub99
NA,html-keyboard-response,29,95578,0.0-10.0-0.8,"""event"",""trial"",""time""
""fullscreenenter"",""0"",""5063""
","
","
","""event"",""trial"",""time""
""fullscreenenter"",""0"",""5063""
","
",null,"<div style=""font-size:60px;"">+</div>",NA,null,fixation,2020-06-23T16:53:14Z,NA,NA,NA,NA,NA,sub99
NA,mars-trial,30,106947,0.0-10.0-1.8,"""event"",""trial"",""time""
""fullscreenenter"",""0"",""5063""
","
","
","""event"",""trial"",""time""
""fullscreenenter"",""0"",""5063""
","
",10762.065000017174,<img style='border: 4px solid darkgrey;' src='img/tf1_9_M_ss2.jpeg'></img>,3,NA,exp,NA,0,<img src='img/tf1_9_T1_ss2_md.jpeg'></img>,0,TRUE,NA,sub99
NA,html-keyboard-response,31,107448,0.0-10.0-0.9,"""event"",""trial"",""time""
""fullscreenenter"",""0"",""5063""
","
","
","""event"",""trial"",""time""
""fullscreenenter"",""0"",""5063""
","
",null,"<div style=""font-size:60px;"">+</div>",NA,null,fixation,2020-06-23T16:53:26Z,NA,NA,NA,NA,NA,sub99
NA,mars-trial,32,110651,0.0-10.0-1.9,"""event"",""trial"",""time""
""fullscreenenter"",""0"",""5063""
","
","
","""event"",""trial"",""time""
""fullscreenenter"",""0"",""5063""
","
",2595.3500000177883,<img style='border: 4px solid darkgrey;' src='img/tf1_10_M_ss3.jpeg'></img>,2,NA,exp,NA,0,<img src='img/tf1_10_T1_ss3_md.jpeg'></img>,0,TRUE,NA,sub99
NA,html-keyboard-response,33,111153,0.0-10.0-0.10,"""event"",""trial"",""time""
""fullscreenenter"",""0"",""5063""
","
","
","""event"",""trial"",""time""
""fullscreenenter"",""0"",""5063""
","
",null,"<div style=""font-size:60px;"">+</div>",NA,null,fixation,2020-06-23T16:53:29Z,NA,NA,NA,NA,NA,sub99
NA,mars-trial,34,122579,0.0-10.0-1.10,"""event"",""trial"",""time""
""fullscreenenter"",""0"",""5063""
","
","
","""event"",""trial"",""time""
""fullscreenenter"",""0"",""5063""
","
",10821.759999962524,<img style='border: 4px solid darkgrey;' src='img/tf1_11_M_ss1.jpeg'></img>,1,NA,exp,NA,2,<img src='img/tf1_11_T1_ss1_md.jpeg'></img>,0,FALSE,NA,sub99
NA,html-keyboard-response,35,123081,0.0-10.0-0.11,"""event"",""trial"",""time""
""fullscreenenter"",""0"",""5063""
","
","
","""event"",""trial"",""time""
""fullscreenenter"",""0"",""5063""
","
",null,"<div style=""font-size:60px;"">+</div>",NA,null,fixation,2020-06-23T16:53:41Z,NA,NA,NA,NA,NA,sub99
NA,mars-trial,36,130013,0.0-10.0-1.11,"""event"",""trial"",""time""
""fullscreenenter"",""0"",""5063""
","
","
","""event"",""trial"",""time""
""fullscreenenter"",""0"",""5063""
","
",6326.530000020284,<img style='border: 4px solid darkgrey;' src='img/tf1_12_M_ss2.jpeg'></img>,3,NA,exp,NA,1,<img src='img/tf1_12_T1_ss2_md.jpeg'></img>,0,FALSE,NA,sub99
NA,html-keyboard-response,37,130515,0.0-10.0-0.12,"""event"",""trial"",""time""
""fullscreenenter"",""0"",""5063""
","
","
","""event"",""trial"",""time""
""fullscreenenter"",""0"",""5063""
","
",null,"<div style=""font-size:60px;"">+</div>",NA,null,fixation,2020-06-23T16:53:49Z,NA,NA,NA,NA,NA,sub99
NA,mars-trial,38,137009,0.0-10.0-1.12,"""event"",""trial"",""time""
""fullscreenenter"",""0"",""5063""
","
","
","""event"",""trial"",""time""
""fullscreenenter"",""0"",""5063""
","
",5888.28499999363,<img style='border: 4px solid darkgrey;' src='img/tf1_13_M_ss3.jpeg'></img>,0,NA,exp,NA,1,<img src='img/tf1_13_T1_ss3_md.jpeg'></img>,0,FALSE,NA,sub99
NA,html-keyboard-response,39,137510,0.0-10.0-0.13,"""event"",""trial"",""time""
""fullscreenenter"",""0"",""5063""
","
","
","""event"",""trial"",""time""
""fullscreenenter"",""0"",""5063""
","
",null,"<div style=""font-size:60px;"">+</div>",NA,null,fixation,2020-06-23T16:53:56Z,NA,NA,NA,NA,NA,sub99
NA,mars-trial,40,144919,0.0-10.0-1.13,"""event"",""trial"",""time""
""fullscreenenter"",""0"",""5063""
","
","
","""event"",""trial"",""time""
""fullscreenenter"",""0"",""5063""
","
",6803.814999992028,<img style='border: 4px solid darkgrey;' src='img/tf1_14_M_ss1.jpeg'></img>,3,NA,exp,NA,1,<img src='img/tf1_14_T1_ss1_md.jpeg'></img>,0,FALSE,NA,sub99
NA,html-keyboard-response,41,145421,0.0-10.0-0.14,"""event"",""trial"",""time""
""fullscreenenter"",""0"",""5063""
","
","
","""event"",""trial"",""time""
""fullscreenenter"",""0"",""5063""
","
",null,"<div style=""font-size:60px;"">+</div>",NA,null,fixation,2020-06-23T16:54:04Z,NA,NA,NA,NA,NA,sub99
NA,mars-trial,42,151510,0.0-10.0-1.14,"""event"",""trial"",""time""
""fullscreenenter"",""0"",""5063""
","
","
","""event"",""trial"",""time""
""fullscreenenter"",""0"",""5063""
","
",5482.6950000133365,<img style='border: 4px solid darkgrey;' src='img/tf1_15_M_ss2.jpeg'></img>,0,NA,exp,NA,2,<img src='img/tf1_15_T1_ss2_md.jpeg'></img>,0,FALSE,NA,sub99
NA,html-keyboard-response,43,152012,0.0-10.0-0.15,"""event"",""trial"",""time""
""fullscreenenter"",""0"",""5063""
","
","
","""event"",""trial"",""time""
""fullscreenenter"",""0"",""5063""
","
",null,"<div style=""font-size:60px;"">+</div>",NA,null,fixation,2020-06-23T16:54:10Z,NA,NA,NA,NA,NA,sub99
NA,mars-trial,44,157315,0.0-10.0-1.15,"""event"",""trial"",""time""
""fullscreenenter"",""0"",""5063""
","
","
","""event"",""trial"",""time""
""fullscreenenter"",""0"",""5063""
","
",4697.019999963231,<img style='border: 4px solid darkgrey;' src='img/tf1_16_M_ss3.jpeg'></img>,2,NA,exp,NA,1,<img src='img/tf1_16_T1_ss3_md.jpeg'></img>,0,FALSE,NA,sub99
NA,html-keyboard-response,45,157819,0.0-10.0-0.16,"""event"",""trial"",""time""
""fullscreenenter"",""0"",""5063""
","
","
","""event"",""trial"",""time""
""fullscreenenter"",""0"",""5063""
","
",null,"<div style=""font-size:60px;"">+</div>",NA,null,fixation,2020-06-23T16:54:16Z,NA,NA,NA,NA,NA,sub99
NA,mars-trial,46,161488,0.0-10.0-1.16,"""event"",""trial"",""time""
""fullscreenenter"",""0"",""5063""
","
","
","""event"",""trial"",""time""
""fullscreenenter"",""0"",""5063""
","
",3061.715000018012,<img style='border: 4px solid darkgrey;' src='img/tf1_17_M_ss1.jpeg'></img>,2,NA,exp,NA,0,<img src='img/tf1_17_T1_ss1_md.jpeg'></img>,0,TRUE,NA,sub99
NA,html-keyboard-response,47,161990,0.0-10.0-0.17,"""event"",""trial"",""time""
""fullscreenenter"",""0"",""5063""
","
","
","""event"",""trial"",""time""
""fullscreenenter"",""0"",""5063""
","
",null,"<div style=""font-size:60px;"">+</div>",NA,null,fixation,2020-06-23T16:54:20Z,NA,NA,NA,NA,NA,sub99
NA,mars-trial,48,170187,0.0-10.0-1.17,"""event"",""trial"",""time""
""fullscreenenter"",""0"",""5063""
","
","
","""event"",""trial"",""time""
""fullscreenenter"",""0"",""5063""
","
",7592.85999997519,<img style='border: 4px solid darkgrey;' src='img/tf1_18_M_ss2.jpeg'></img>,3,NA,exp,NA,3,<img src='img/tf1_18_T1_ss2_md.jpeg'></img>,0,FALSE,NA,sub99
NA,html-keyboard-response,49,170690,0.0-10.0-0.18,"""event"",""trial"",""time""
""fullscreenenter"",""0"",""5063""
","
","
","""event"",""trial"",""time""
""fullscreenenter"",""0"",""5063""
","
",null,"<div style=""font-size:60px;"">+</div>",NA,null,fixation,2020-06-23T16:54:29Z,NA,NA,NA,NA,NA,sub99
NA,mars-trial,50,174969,0.0-10.0-1.18,"""event"",""trial"",""time""
""fullscreenenter"",""0"",""5063""
","
","
","""event"",""trial"",""time""
""fullscreenenter"",""0"",""5063""
","
",3674.4700000272132,<img style='border: 4px solid darkgrey;' src='img/tf1_19_M_ss3.jpeg'></img>,1,NA,exp,NA,2,<img src='img/tf1_19_T1_ss3_md.jpeg'></img>,0,FALSE,NA,sub99
NA,html-keyboard-response,51,175470,0.0-10.0-0.19,"""event"",""trial"",""time""
""fullscreenenter"",""0"",""5063""
","
","
","""event"",""trial"",""time""
""fullscreenenter"",""0"",""5063""
","
",null,"<div style=""font-size:60px;"">+</div>",NA,null,fixation,2020-06-23T16:54:34Z,NA,NA,NA,NA,NA,sub99
NA,mars-trial,52,179171,0.0-10.0-1.19,"""event"",""trial"",""time""
""fullscreenenter"",""0"",""5063""
","
","
","""event"",""trial"",""time""
""fullscreenenter"",""0"",""5063""
","
",3094.790000002831,<img style='border: 4px solid darkgrey;' src='img/tf1_20_M_ss1.jpeg'></img>,0,NA,exp,NA,1,<img src='img/tf1_20_T1_ss1_md.jpeg'></img>,0,FALSE,NA,sub99
NA,html-keyboard-response,53,179673,0.0-10.0-0.20,"""event"",""trial"",""time""
""fullscreenenter"",""0"",""5063""
","
","
","""event"",""trial"",""time""
""fullscreenenter"",""0"",""5063""
","
",null,"<div style=""font-size:60px;"">+</div>",NA,null,fixation,2020-06-23T16:54:38Z,NA,NA,NA,NA,NA,sub99
NA,mars-trial,54,184738,0.0-10.0-1.20,"""event"",""trial"",""time""
""fullscreenenter"",""0"",""5063""
","
","
","""event"",""trial"",""time""
""fullscreenenter"",""0"",""5063""
","
",4458.764999988489,<img style='border: 4px solid darkgrey;' src='img/tf1_21_M_ss2.jpeg'></img>,0,NA,exp,NA,1,<img src='img/tf1_21_T1_ss2_md.jpeg'></img>,0,FALSE,NA,sub99
NA,html-keyboard-response,55,185241,0.0-10.0-0.21,"""event"",""trial"",""time""
""fullscreenenter"",""0"",""5063""
","
","
","""event"",""trial"",""time""
""fullscreenenter"",""0"",""5063""
","
",null,"<div style=""font-size:60px;"">+</div>",NA,null,fixation,2020-06-23T16:54:44Z,NA,NA,NA,NA,NA,sub99
NA,mars-trial,56,188641,0.0-10.0-1.21,"""event"",""trial"",""time""
""fullscreenenter"",""0"",""5063""
","
","
","""event"",""trial"",""time""
""fullscreenenter"",""0"",""5063""
","
",2794.294999970589,<img style='border: 4px solid darkgrey;' src='img/tf1_22_M_ss3.jpeg'></img>,3,NA,exp,NA,3,<img src='img/tf1_22_T1_ss3_md.jpeg'></img>,0,FALSE,NA,sub99
NA,html-keyboard-response,57,189143,0.0-10.0-0.22,"""event"",""trial"",""time""
""fullscreenenter"",""0"",""5063""
","
","
","""event"",""trial"",""time""
""fullscreenenter"",""0"",""5063""
","
",null,"<div style=""font-size:60px;"">+</div>",NA,null,fixation,2020-06-23T16:54:47Z,NA,NA,NA,NA,NA,sub99
NA,mars-trial,58,196121,0.0-10.0-1.22,"""event"",""trial"",""time""
""fullscreenenter"",""0"",""5063""
","
","
","""event"",""trial"",""time""
""fullscreenenter"",""0"",""5063""
","
",6374.069999961648,<img style='border: 4px solid darkgrey;' src='img/tf1_23_M_ss1.jpeg'></img>,3,NA,exp,NA,1,<img src='img/tf1_23_T1_ss1_md.jpeg'></img>,0,FALSE,NA,sub99
NA,html-keyboard-response,59,196623,0.0-10.0-0.23,"""event"",""trial"",""time""
""fullscreenenter"",""0"",""5063""
","
","
","""event"",""trial"",""time""
""fullscreenenter"",""0"",""5063""
","
",null,"<div style=""font-size:60px;"">+</div>",NA,null,fixation,2020-06-23T16:54:55Z,NA,NA,NA,NA,NA,sub99
NA,mars-trial,60,202486,0.0-10.0-1.23,"""event"",""trial"",""time""
""fullscreenenter"",""0"",""5063""
","
","
","""event"",""trial"",""time""
""fullscreenenter"",""0"",""5063""
","
",5257.975000014994,<img style='border: 4px solid darkgrey;' src='img/tf1_24_M_ss2.jpeg'></img>,3,NA,exp,NA,0,<img src='img/tf1_24_T1_ss2_md.jpeg'></img>,0,TRUE,NA,sub99
NA,html-keyboard-response,61,202988,0.0-10.0-0.24,"""event"",""trial"",""time""
""fullscreenenter"",""0"",""5063""
","
","
","""event"",""trial"",""time""
""fullscreenenter"",""0"",""5063""
","
",null,"<div style=""font-size:60px;"">+</div>",NA,null,fixation,2020-06-23T16:55:01Z,NA,NA,NA,NA,NA,sub99
NA,mars-trial,62,209652,0.0-10.0-1.24,"""event"",""trial"",""time""
""fullscreenenter"",""0"",""5063""
","
","
","""event"",""trial"",""time""
""fullscreenenter"",""0"",""5063""
","
",6057.209999999031,<img style='border: 4px solid darkgrey;' src='img/tf1_25_M_ss3.jpeg'></img>,0,NA,exp,NA,0,<img src='img/tf1_25_T1_ss3_md.jpeg'></img>,0,TRUE,NA,sub99
NA,html-keyboard-response,63,210154,0.0-10.0-0.25,"""event"",""trial"",""time""
""fullscreenenter"",""0"",""5063""
","
","
","""event"",""trial"",""time""
""fullscreenenter"",""0"",""5063""
","
",null,"<div style=""font-size:60px;"">+</div>",NA,null,fixation,2020-06-23T16:55:08Z,NA,NA,NA,NA,NA,sub99
NA,mars-trial,64,215363,0.0-10.0-1.25,"""event"",""trial"",""time""
""fullscreenenter"",""0"",""5063""
","
","
","""event"",""trial"",""time""
""fullscreenenter"",""0"",""5063""
","
",4603.525000042282,<img style='border: 4px solid darkgrey;' src='img/tf1_26_M_ss1.jpeg'></img>,0,NA,exp,NA,2,<img src='img/tf1_26_T1_ss1_md.jpeg'></img>,0,FALSE,NA,sub99
NA,html-keyboard-response,65,215866,0.0-10.0-0.26,"""event"",""trial"",""time""
""fullscreenenter"",""0"",""5063""
","
","
","""event"",""trial"",""time""
""fullscreenenter"",""0"",""5063""
","
",null,"<div style=""font-size:60px;"">+</div>",NA,null,fixation,2020-06-23T16:55:14Z,NA,NA,NA,NA,NA,sub99
NA,mars-trial,66,230636,0.0-10.0-1.26,"""event"",""trial"",""time""
""fullscreenenter"",""0"",""5063""
","
","
","""event"",""trial"",""time""
""fullscreenenter"",""0"",""5063""
","
",14164.98500003945,<img style='border: 4px solid darkgrey;' src='img/tf1_27_M_ss2.jpeg'></img>,1,NA,exp,NA,1,<img src='img/tf1_27_T1_ss2_md.jpeg'></img>,0,FALSE,NA,sub99
NA,html-keyboard-response,67,231138,0.0-10.0-0.27,"""event"",""trial"",""time""
""fullscreenenter"",""0"",""5063""
","
","
","""event"",""trial"",""time""
""fullscreenenter"",""0"",""5063""
","
",null,"<div style=""font-size:60px;"">+</div>",NA,null,fixation,2020-06-23T16:55:29Z,NA,NA,NA,NA,NA,sub99
NA,mars-trial,68,241722,0.0-10.0-1.27,"""event"",""trial"",""time""
""fullscreenenter"",""0"",""5063""
","
","
","""event"",""trial"",""time""
""fullscreenenter"",""0"",""5063""
","
",9978.470000030939,<img style='border: 4px solid darkgrey;' src='img/tf1_28_M_ss3.jpeg'></img>,2,NA,exp,NA,1,<img src='img/tf1_28_T1_ss3_md.jpeg'></img>,0,FALSE,NA,sub99
NA,html-keyboard-response,69,242224,0.0-10.0-0.28,"""event"",""trial"",""time""
""fullscreenenter"",""0"",""5063""
","
","
","""event"",""trial"",""time""
""fullscreenenter"",""0"",""5063""
","
",null,"<div style=""font-size:60px;"">+</div>",NA,null,fixation,2020-06-23T16:55:41Z,NA,NA,NA,NA,NA,sub99
NA,mars-trial,70,255288,0.0-10.0-1.28,"""event"",""trial"",""time""
""fullscreenenter"",""0"",""5063""
","
","
","""event"",""trial"",""time""
""fullscreenenter"",""0"",""5063""
","
",12458.924999984447,<img style='border: 4px solid darkgrey;' src='img/tf1_29_M_ss1.jpeg'></img>,0,NA,exp,NA,0,<img src='img/tf1_29_T1_ss1_md.jpeg'></img>,0,TRUE,NA,sub99
NA,html-keyboard-response,71,255791,0.0-10.0-0.29,"""event"",""trial"",""time""
""fullscreenenter"",""0"",""5063""
","
","
","""event"",""trial"",""time""
""fullscreenenter"",""0"",""5063""
","
",null,"<div style=""font-size:60px;"">+</div>",NA,null,fixation,2020-06-23T16:55:54Z,NA,NA,NA,NA,NA,sub99
NA,mars-trial,72,263854,0.0-10.0-1.29,"""event"",""trial"",""time""
""fullscreenenter"",""0"",""5063""
","
","
","""event"",""trial"",""time""
""fullscreenenter"",""0"",""5063""
","
",7457.449999987148,<img style='border: 4px solid darkgrey;' src='img/tf1_30_M_ss2.jpeg'></img>,2,NA,exp,NA,2,<img src='img/tf1_30_T1_ss2_md.jpeg'></img>,0,FALSE,NA,sub99
NA,html-keyboard-response,73,264355,0.0-10.0-0.30,"""event"",""trial"",""time""
""fullscreenenter"",""0"",""5063""
","
","
","""event"",""trial"",""time""
""fullscreenenter"",""0"",""5063""
","
",null,"<div style=""font-size:60px;"">+</div>",NA,null,fixation,2020-06-23T16:56:03Z,NA,NA,NA,NA,NA,sub99
NA,mars-trial,74,279128,0.0-10.0-1.30,"""event"",""trial"",""time""
""fullscreenenter"",""0"",""5063""
","
","
","""event"",""trial"",""time""
""fullscreenenter"",""0"",""5063""
","
",14166.759999992792,<img style='border: 4px solid darkgrey;' src='img/tf1_31_M_ss3.jpeg'></img>,3,NA,exp,NA,1,<img src='img/tf1_31_T1_ss3_md.jpeg'></img>,0,FALSE,NA,sub99
NA,html-keyboard-response,75,279630,0.0-10.0-0.31,"""event"",""trial"",""time""
""fullscreenenter"",""0"",""5063""
","
","
","""event"",""trial"",""time""
""fullscreenenter"",""0"",""5063""
","
",null,"<div style=""font-size:60px;"">+</div>",NA,null,fixation,2020-06-23T16:56:18Z,NA,NA,NA,NA,NA,sub99
NA,mars-trial,76,292423,0.0-10.0-1.31,"""event"",""trial"",""time""
""fullscreenenter"",""0"",""5063""
","
","
","""event"",""trial"",""time""
""fullscreenenter"",""0"",""5063""
","
",12186.485000012908,<img style='border: 4px solid darkgrey;' src='img/tf1_32_M_ss1.jpeg'></img>,1,NA,exp,NA,0,<img src='img/tf1_32_T1_ss1_md.jpeg'></img>,0,TRUE,NA,sub99
NA,html-keyboard-response,77,292926,0.0-10.0-0.32,"""event"",""trial"",""time""
""fullscreenenter"",""0"",""5063""
","
","
","""event"",""trial"",""time""
""fullscreenenter"",""0"",""5063""
","
",null,"<div style=""font-size:60px;"">+</div>",NA,null,fixation,2020-06-23T16:56:31Z,NA,NA,NA,NA,NA,sub99
NA,mars-trial,78,298110,0.0-10.0-1.32,"""event"",""trial"",""time""
""fullscreenenter"",""0"",""5063""
","
","
","""event"",""trial"",""time""
""fullscreenenter"",""0"",""5063""
","
",4578.754999965895,<img style='border: 4px solid darkgrey;' src='img/tf1_33_M_ss2.jpeg'></img>,2,NA,exp,NA,0,<img src='img/tf1_33_T1_ss2_md.jpeg'></img>,0,TRUE,NA,sub99
NA,html-keyboard-response,79,298612,0.0-10.0-0.33,"""event"",""trial"",""time""
""fullscreenenter"",""0"",""5063""
","
","
","""event"",""trial"",""time""
""fullscreenenter"",""0"",""5063""
","
",null,"<div style=""font-size:60px;"">+</div>",NA,null,fixation,2020-06-23T16:56:37Z,NA,NA,NA,NA,NA,sub99
NA,mars-trial,80,311019,0.0-10.0-1.33,"""event"",""trial"",""time""
""fullscreenenter"",""0"",""5063""
","
","
","""event"",""trial"",""time""
""fullscreenenter"",""0"",""5063""
","
",11803.47000004258,<img style='border: 4px solid darkgrey;' src='img/tf1_34_M_ss3.jpeg'></img>,0,NA,exp,NA,3,<img src='img/tf1_34_T1_ss3_md.jpeg'></img>,0,FALSE,NA,sub99
NA,html-keyboard-response,81,311521,0.0-10.0-0.34,"""event"",""trial"",""time""
""fullscreenenter"",""0"",""5063""
","
","
","""event"",""trial"",""time""
""fullscreenenter"",""0"",""5063""
","
",null,"<div style=""font-size:60px;"">+</div>",NA,null,fixation,2020-06-23T16:56:50Z,NA,NA,NA,NA,NA,sub99
NA,mars-trial,82,322674,0.0-10.0-1.34,"""event"",""trial"",""time""
""fullscreenenter"",""0"",""5063""
","
","
","""event"",""trial"",""time""
""fullscreenenter"",""0"",""5063""
","
",10547.435000014957,<img style='border: 4px solid darkgrey;' src='img/tf1_35_M_ss1.jpeg'></img>,2,NA,exp,NA,2,<img src='img/tf1_35_T1_ss1_md.jpeg'></img>,0,FALSE,NA,sub99
NA,html-keyboard-response,83,323175,0.0-10.0-0.35,"""event"",""trial"",""time""
""fullscreenenter"",""0"",""5063""
","
","
","""event"",""trial"",""time""
""fullscreenenter"",""0"",""5063""
","
",null,"<div style=""font-size:60px;"">+</div>",NA,null,fixation,2020-06-23T16:57:01Z,NA,NA,NA,NA,NA,sub99
NA,mars-trial,84,335464,0.0-10.0-1.35,"""event"",""trial"",""time""
""fullscreenenter"",""0"",""5063""
","
","
","""event"",""trial"",""time""
""fullscreenenter"",""0"",""5063""
","
",11682.489999977406,<img style='border: 4px solid darkgrey;' src='img/tf1_36_M_ss2.jpeg'></img>,3,NA,exp,NA,2,<img src='img/tf1_36_T1_ss2_md.jpeg'></img>,0,FALSE,NA,sub99
NA,html-keyboard-response,85,335967,0.0-10.0-0.36,"""event"",""trial"",""time""
""fullscreenenter"",""0"",""5063""
","
","
","""event"",""trial"",""time""
""fullscreenenter"",""0"",""5063""
","
",null,"<div style=""font-size:60px;"">+</div>",NA,null,fixation,2020-06-23T16:57:14Z,NA,NA,NA,NA,NA,sub99
NA,mars-trial,86,350215,0.0-10.0-1.36,"""event"",""trial"",""time""
""fullscreenenter"",""0"",""5063""
","
","
","""event"",""trial"",""time""
""fullscreenenter"",""0"",""5063""
","
",13640.755000000354,<img style='border: 4px solid darkgrey;' src='img/tf1_37_M_ss3.jpeg'></img>,1,NA,exp,NA,0,<img src='img/tf1_37_T1_ss3_md.jpeg'></img>,0,TRUE,NA,sub99
NA,html-keyboard-response,87,350717,0.0-10.0-0.37,"""event"",""trial"",""time""
""fullscreenenter"",""0"",""5063""
","
","
","""event"",""trial"",""time""
""fullscreenenter"",""0"",""5063""
","
",null,"<div style=""font-size:60px;"">+</div>",NA,null,fixation,2020-06-23T16:57:29Z,NA,NA,NA,NA,NA,sub99
NA,mars-trial,88,354674,0.0-10.0-1.37,"""event"",""trial"",""time""
""fullscreenenter"",""0"",""5063""
","
","
","""event"",""trial"",""time""
""fullscreenenter"",""0"",""5063""
","
",3352.519999956712,<img style='border: 4px solid darkgrey;' src='img/tf1_38_M_ss1.jpeg'></img>,3,NA,exp,NA,0,<img src='img/tf1_38_T1_ss1_md.jpeg'></img>,0,TRUE,NA,sub99
NA,html-keyboard-response,89,355177,0.0-10.0-0.38,"""event"",""trial"",""time""
""fullscreenenter"",""0"",""5063""
","
","
","""event"",""trial"",""time""
""fullscreenenter"",""0"",""5063""
","
",null,"<div style=""font-size:60px;"">+</div>",NA,null,fixation,2020-06-23T16:57:33Z,NA,NA,NA,NA,NA,sub99
NA,mars-trial,90,366105,0.0-10.0-1.38,"""event"",""trial"",""time""
""fullscreenenter"",""0"",""5063""
","
","
","""event"",""trial"",""time""
""fullscreenenter"",""0"",""5063""
","
",10321.890000021085,<img style='border: 4px solid darkgrey;' src='img/tf1_39_M_ss2.jpeg'></img>,1,NA,exp,NA,2,<img src='img/tf1_39_T1_ss2_md.jpeg'></img>,0,FALSE,NA,sub99
NA,html-keyboard-response,91,366606,0.0-10.0-0.39,"""event"",""trial"",""time""
""fullscreenenter"",""0"",""5063""
","
","
","""event"",""trial"",""time""
""fullscreenenter"",""0"",""5063""
","
",null,"<div style=""font-size:60px;"">+</div>",NA,null,fixation,2020-06-23T16:57:45Z,NA,NA,NA,NA,NA,sub99
NA,mars-trial,92,375261,0.0-10.0-1.39,"""event"",""trial"",""time""
""fullscreenenter"",""0"",""5063""
","
","
","""event"",""trial"",""time""
""fullscreenenter"",""0"",""5063""
","
",8046.815000008792,<img style='border: 4px solid darkgrey;' src='img/tf1_40_M_ss3.jpeg'></img>,1,NA,exp,NA,3,<img src='img/tf1_40_T1_ss3_md.jpeg'></img>,0,FALSE,NA,sub99
NA,html-keyboard-response,93,375763,0.0-10.0-0.40,"""event"",""trial"",""time""
""fullscreenenter"",""0"",""5063""
","
","
","""event"",""trial"",""time""
""fullscreenenter"",""0"",""5063""
","
",null,"<div style=""font-size:60px;"">+</div>",NA,null,fixation,2020-06-23T16:57:54Z,NA,NA,NA,NA,NA,sub99
NA,mars-trial,94,379420,0.0-10.0-1.40,"""event"",""trial"",""time""
""fullscreenenter"",""0"",""5063""
","
","
","""event"",""trial"",""time""
""fullscreenenter"",""0"",""5063""
","
",3051.1150000384077,<img style='border: 4px solid darkgrey;' src='img/tf1_41_M_ss1.jpeg'></img>,0,NA,exp,NA,0,<img src='img/tf1_41_T1_ss1_md.jpeg'></img>,0,TRUE,NA,sub99
NA,html-keyboard-response,95,379922,0.0-10.0-0.41,"""event"",""trial"",""time""
""fullscreenenter"",""0"",""5063""
","
","
","""event"",""trial"",""time""
""fullscreenenter"",""0"",""5063""
","
",null,"<div style=""font-size:60px;"">+</div>",NA,null,fixation,2020-06-23T16:57:58Z,NA,NA,NA,NA,NA,sub99
NA,mars-trial,96,383783,0.0-10.0-1.41,"""event"",""trial"",""time""
""fullscreenenter"",""0"",""5063""
","
","
","""event"",""trial"",""time""
""fullscreenenter"",""0"",""5063""
","
",3254.88000002224,<img style='border: 4px solid darkgrey;' src='img/tf1_42_M_ss2.jpeg'></img>,0,NA,exp,NA,1,<img src='img/tf1_42_T1_ss2_md.jpeg'></img>,0,FALSE,NA,sub99
NA,html-keyboard-response,97,384284,0.0-10.0-0.42,"""event"",""trial"",""time""
""fullscreenenter"",""0"",""5063""
","
","
","""event"",""trial"",""time""
""fullscreenenter"",""0"",""5063""
","
",null,"<div style=""font-size:60px;"">+</div>",NA,null,fixation,2020-06-23T16:58:03Z,NA,NA,NA,NA,NA,sub99
NA,mars-trial,98,398424,0.0-10.0-1.42,"""event"",""trial"",""time""
""fullscreenenter"",""0"",""5063""
","
","
","""event"",""trial"",""time""
""fullscreenenter"",""0"",""5063""
","
",13535.41499999119,<img style='border: 4px solid darkgrey;' src='img/tf1_43_M_ss3.jpeg'></img>,0,NA,exp,NA,0,<img src='img/tf1_43_T1_ss3_md.jpeg'></img>,0,TRUE,NA,sub99
NA,html-keyboard-response,99,398927,0.0-10.0-0.43,"""event"",""trial"",""time""
""fullscreenenter"",""0"",""5063""
","
","
","""event"",""trial"",""time""
""fullscreenenter"",""0"",""5063""
","
",null,"<div style=""font-size:60px;"">+</div>",NA,null,fixation,2020-06-23T16:58:17Z,NA,NA,NA,NA,NA,sub99
NA,mars-trial,100,407225,0.0-10.0-1.43,"""event"",""trial"",""time""
""fullscreenenter"",""0"",""5063""
","
","
","""event"",""trial"",""time""
""fullscreenenter"",""0"",""5063""
","
",7692.2149999882095,<img style='border: 4px solid darkgrey;' src='img/tf1_44_M_ss1.jpeg'></img>,3,NA,exp,NA,1,<img src='img/tf1_44_T1_ss1_md.jpeg'></img>,0,FALSE,NA,sub99
NA,html-keyboard-response,101,407726,0.0-10.0-0.44,"""event"",""trial"",""time""
""fullscreenenter"",""0"",""5063""
","
","
","""event"",""trial"",""time""
""fullscreenenter"",""0"",""5063""
","
",null,"<div style=""font-size:60px;"">+</div>",NA,null,fixation,2020-06-23T16:58:26Z,NA,NA,NA,NA,NA,sub99
NA,mars-trial,102,414769,0.0-10.0-1.44,"""event"",""trial"",""time""
""fullscreenenter"",""0"",""5063""
","
","
","""event"",""trial"",""time""
""fullscreenenter"",""0"",""5063""
","
",6436.305000039283,<img style='border: 4px solid darkgrey;' src='img/tf1_45_M_ss2.jpeg'></img>,2,NA,exp,NA,1,<img src='img/tf1_45_T1_ss2_md.jpeg'></img>,0,FALSE,NA,sub99
NA,html-keyboard-response,103,415271,0.0-10.0-0.45,"""event"",""trial"",""time""
""fullscreenenter"",""0"",""5063""
","
","
","""event"",""trial"",""time""
""fullscreenenter"",""0"",""5063""
","
",null,"<div style=""font-size:60px;"">+</div>",NA,null,fixation,2020-06-23T16:58:34Z,NA,NA,NA,NA,NA,sub99
NA,mars-trial,104,437855,0.0-10.0-1.45,"""event"",""trial"",""time""
""fullscreenenter"",""0"",""5063""
","
","
","""event"",""trial"",""time""
""fullscreenenter"",""0"",""5063""
","
",21978.05499995593,<img style='border: 4px solid darkgrey;' src='img/tf1_46_M_ss3.jpeg'></img>,0,NA,exp,NA,3,<img src='img/tf1_46_T1_ss3_md.jpeg'></img>,0,FALSE,NA,sub99
NA,html-keyboard-response,105,438356,0.0-10.0-0.46,"""event"",""trial"",""time""
""fullscreenenter"",""0"",""5063""
","
","
","""event"",""trial"",""time""
""fullscreenenter"",""0"",""5063""
","
",null,"<div style=""font-size:60px;"">+</div>",NA,null,fixation,2020-06-23T16:58:57Z,NA,NA,NA,NA,NA,sub99
NA,mars-trial,106,450505,0.0-10.0-1.46,"""event"",""trial"",""time""
""fullscreenenter"",""0"",""5063""
","
","
","""event"",""trial"",""time""
""fullscreenenter"",""0"",""5063""
","
",11543.090000050142,<img style='border: 4px solid darkgrey;' src='img/tf1_47_M_ss1.jpeg'></img>,2,NA,exp,NA,1,<img src='img/tf1_47_T1_ss1_md.jpeg'></img>,0,FALSE,NA,sub99
NA,html-keyboard-response,107,451007,0.0-10.0-0.47,"""event"",""trial"",""time""
""fullscreenenter"",""0"",""5063""
","
","
","""event"",""trial"",""time""
""fullscreenenter"",""0"",""5063""
","
",null,"<div style=""font-size:60px;"">+</div>",NA,null,fixation,2020-06-23T16:59:09Z,NA,NA,NA,NA,NA,sub99
NA,mars-trial,108,459970,0.0-10.0-1.47,"""event"",""trial"",""time""
""fullscreenenter"",""0"",""5063""
","
","
","""event"",""trial"",""time""
""fullscreenenter"",""0"",""5063""
","
",8358.219999994617,<img style='border: 4px solid darkgrey;' src='img/tf1_48_M_ss2.jpeg'></img>,0,NA,exp,NA,3,<img src='img/tf1_48_T1_ss2_md.jpeg'></img>,0,FALSE,NA,sub99
NA,html-keyboard-response,109,460473,0.0-10.0-0.48,"""event"",""trial"",""time""
""fullscreenenter"",""0"",""5063""
","
","
","""event"",""trial"",""time""
""fullscreenenter"",""0"",""5063""
","
",null,"<div style=""font-size:60px;"">+</div>",NA,null,fixation,2020-06-23T16:59:19Z,NA,NA,NA,NA,NA,sub99
NA,mars-trial,110,470199,0.0-10.0-1.48,"""event"",""trial"",""time""
""fullscreenenter"",""0"",""5063""
","
","
","""event"",""trial"",""time""
""fullscreenenter"",""0"",""5063""
","
",9119.479999993928,<img style='border: 4px solid darkgrey;' src='img/tf1_49_M_ss3.jpeg'></img>,0,NA,exp,NA,0,<img src='img/tf1_49_T1_ss3_md.jpeg'></img>,0,TRUE,NA,sub99
NA,html-keyboard-response,111,470701,0.0-10.0-0.49,"""event"",""trial"",""time""
""fullscreenenter"",""0"",""5063""
","
","
","""event"",""trial"",""time""
""fullscreenenter"",""0"",""5063""
","
",null,"<div style=""font-size:60px;"">+</div>",NA,null,fixation,2020-06-23T16:59:29Z,NA,NA,NA,NA,NA,sub99
NA,mars-trial,112,479765,0.0-10.0-1.49,"""event"",""trial"",""time""
""fullscreenenter"",""0"",""5063""
","
","
","""event"",""trial"",""time""
""fullscreenenter"",""0"",""5063""
","
",8457.720000005793,<img style='border: 4px solid darkgrey;' src='img/tf1_50_M_ss1.jpeg'></img>,1,NA,exp,NA,0,<img src='img/tf1_50_T1_ss1_md.jpeg'></img>,0,TRUE,NA,sub99
NA,html-keyboard-response,113,480267,0.0-10.0-0.50,"""event"",""trial"",""time""
""fullscreenenter"",""0"",""5063""
","
","
","""event"",""trial"",""time""
""fullscreenenter"",""0"",""5063""
","
",null,"<div style=""font-size:60px;"">+</div>",NA,null,fixation,2020-06-23T16:59:39Z,NA,NA,NA,NA,NA,sub99
NA,mars-trial,114,496776,0.0-10.0-1.50,"""event"",""trial"",""time""
""fullscreenenter"",""0"",""5063""
","
","
","""event"",""trial"",""time""
""fullscreenenter"",""0"",""5063""
","
",15903.754999977536,<img style='border: 4px solid darkgrey;' src='img/tf1_51_M_ss2.jpeg'></img>,3,NA,exp,NA,0,<img src='img/tf1_51_T1_ss2_md.jpeg'></img>,0,TRUE,NA,sub99
NA,html-keyboard-response,115,497278,0.0-10.0-0.51,"""event"",""trial"",""time""
""fullscreenenter"",""0"",""5063""
","
","
","""event"",""trial"",""time""
""fullscreenenter"",""0"",""5063""
","
",null,"<div style=""font-size:60px;"">+</div>",NA,null,fixation,2020-06-23T16:59:56Z,NA,NA,NA,NA,NA,sub99
NA,mars-trial,116,507922,0.0-10.0-1.51,"""event"",""trial"",""time""
""fullscreenenter"",""0"",""5063""
","
","
","""event"",""trial"",""time""
""fullscreenenter"",""0"",""5063""
","
",10038.914999982808,<img style='border: 4px solid darkgrey;' src='img/tf1_52_M_ss3.jpeg'></img>,2,NA,exp,NA,1,<img src='img/tf1_52_T1_ss3_md.jpeg'></img>,0,FALSE,NA,sub99
NA,html-keyboard-response,117,508424,0.0-10.0-0.52,"""event"",""trial"",""time""
""fullscreenenter"",""0"",""5063""
","
","
","""event"",""trial"",""time""
""fullscreenenter"",""0"",""5063""
","
",null,"<div style=""font-size:60px;"">+</div>",NA,null,fixation,2020-06-23T17:00:07Z,NA,NA,NA,NA,NA,sub99
NA,mars-trial,118,522102,0.0-10.0-1.52,"""event"",""trial"",""time""
""fullscreenenter"",""0"",""5063""
","
","
","""event"",""trial"",""time""
""fullscreenenter"",""0"",""5063""
","
",13071.69499999145,<img style='border: 4px solid darkgrey;' src='img/tf1_53_M_ss1.jpeg'></img>,1,NA,exp,NA,3,<img src='img/tf1_53_T1_ss1_md.jpeg'></img>,0,FALSE,NA,sub99
NA,html-keyboard-response,119,522604,0.0-10.0-0.53,"""event"",""trial"",""time""
""fullscreenenter"",""0"",""5063""
","
","
","""event"",""trial"",""time""
""fullscreenenter"",""0"",""5063""
","
",null,"<div style=""font-size:60px;"">+</div>",NA,null,fixation,2020-06-23T17:00:21Z,NA,NA,NA,NA,NA,sub99
NA,mars-trial,120,542136,0.0-10.0-1.53,"""event"",""trial"",""time""
""fullscreenenter"",""0"",""5063""
","
","
","""event"",""trial"",""time""
""fullscreenenter"",""0"",""5063""
","
",18927.344999974594,<img style='border: 4px solid darkgrey;' src='img/tf1_54_M_ss2.jpeg'></img>,2,NA,exp,NA,3,<img src='img/tf1_54_T1_ss2_md.jpeg'></img>,0,FALSE,NA,sub99
NA,html-keyboard-response,121,542638,0.0-10.0-0.54,"""event"",""trial"",""time""
""fullscreenenter"",""0"",""5063""
","
","
","""event"",""trial"",""time""
""fullscreenenter"",""0"",""5063""
","
",null,"<div style=""font-size:60px;"">+</div>",NA,null,fixation,2020-06-23T17:00:41Z,NA,NA,NA,NA,NA,sub99
NA,audio-button-response,122,546956,0.0-11.0,"""event"",""trial"",""time""
""fullscreenenter"",""0"",""5063""
","
","
","""event"",""trial"",""time""
""fullscreenenter"",""0"",""5063""
","
",4215.429999982007,audio/mars_instructions_slide5.wav,0,NA,NA,NA,NA,NA,NA,NA,NA,sub99
