success,trial_type,trial_index,time_elapsed,internal_node_id,interactions,blur_events,focus_events,fullscreenenter_events,fullscreenexit_events,rt,stimulus,button_pressed,key_press,part,timestamp,unshuffled_button,correct_response,correct_button,correct,value,subject_id
TRUE,fullscreen,0,5136,0.0-0.0,"""event"",""trial"",""time""
""fullscreenenter"",""0"",""4237""
","
","
","""event"",""trial"",""time""
""fullscreenenter"",""0"",""4237""
","
",NA,NA,NA,NA,NA,NA,NA,NA,NA,NA,NA,sub146
NA,pavlovia,1,5147,0.0-1.0,"""event"",""trial"",""time""
""fullscreenenter"",""0"",""4237""
","
","
","""event"",""trial"",""time""
""fullscreenenter"",""0"",""4237""
","
",NA,NA,NA,NA,NA,NA,NA,NA,NA,NA,NA,sub146
NA,html-button-response,2,6310,0.0-2.0,"""event"",""trial"",""time""
""fullscreenenter"",""0"",""4237""
","
","
","""event"",""trial"",""time""
""fullscreenenter"",""0"",""4237""
","
",1160,<p>Welcome! Press START to begin.</p><br>,0,NA,NA,NA,NA,NA,NA,NA,NA,sub146
NA,audio-button-response,3,21004,0.0-3.0,"""event"",""trial"",""time""
""fullscreenenter"",""0"",""4237""
","
","
","""event"",""trial"",""time""
""fullscreenenter"",""0"",""4237""
","
",14688.000000000004,audio/mars_instructions_slide2.wav,0,NA,NA,NA,NA,NA,NA,NA,NA,sub146
NA,audio-button-response,4,59873,0.0-4.0,"""event"",""trial"",""time""
""fullscreenenter"",""0"",""4237""
","
","
","""event"",""trial"",""time""
""fullscreenenter"",""0"",""4237""
","
",38865.99999999999,audio/mars_instructions_slide3.wav,0,NA,NA,NA,NA,NA,NA,NA,NA,sub146
NA,html-keyboard-response,5,60375,0.0-5.0-0.0,"""event"",""trial"",""time""
""fullscreenenter"",""0"",""4237""
","
","
","""event"",""trial"",""time""
""fullscreenenter"",""0"",""4237""
","
",null,"<div style=""font-size:60px;"">+</div>",NA,null,fixation,2020-06-29T17:43:29Z,NA,NA,NA,NA,NA,sub146
NA,mars-trial,6,70543,0.0-5.0-1.0,"""event"",""trial"",""time""
""fullscreenenter"",""0"",""4237""
","
","
","""event"",""trial"",""time""
""fullscreenenter"",""0"",""4237""
","
",8060.999999999985,<img style='border: 4px solid darkgrey;' src='practice/pt1_M1.png'></img>,0,NA,practice,NA,0,<img src='practice/pt1_T1.png'></img>,0,TRUE,NA,sub146
NA,html-keyboard-response,7,71045,0.0-6.0-0.0,"""event"",""trial"",""time""
""fullscreenenter"",""0"",""4237""
","
","
","""event"",""trial"",""time""
""fullscreenenter"",""0"",""4237""
","
",null,"<div style=""font-size:60px;"">+</div>",NA,null,fixation,2020-06-29T17:43:40Z,NA,NA,NA,NA,NA,sub146
NA,mars-trial,8,77531,0.0-6.0-1.0,"""event"",""trial"",""time""
""fullscreenenter"",""0"",""4237""
","
","
","""event"",""trial"",""time""
""fullscreenenter"",""0"",""4237""
","
",4382,<img style='border: 4px solid darkgrey;' src='practice/pt2_M1.png'></img>,1,NA,practice,NA,0,<img src='practice/pt2_T1.png'></img>,0,TRUE,NA,sub146
NA,html-keyboard-response,9,78032,0.0-7.0-0.0,"""event"",""trial"",""time""
""fullscreenenter"",""0"",""4237""
","
","
","""event"",""trial"",""time""
""fullscreenenter"",""0"",""4237""
","
",null,"<div style=""font-size:60px;"">+</div>",NA,null,fixation,2020-06-29T17:43:47Z,NA,NA,NA,NA,NA,sub146
NA,mars-trial,10,81816,0.0-7.0-1.0,"""event"",""trial"",""time""
""fullscreenenter"",""0"",""4237""
","
","
","""event"",""trial"",""time""
""fullscreenenter"",""0"",""4237""
","
",1679,<img style='border: 4px solid darkgrey;' src='practice/pt3_M1.png'></img>,1,NA,practice,NA,0,<img src='practice/pt3_T1.png'></img>,0,TRUE,NA,sub146
NA,audio-button-response,11,86619,0.0-8.0,"""event"",""trial"",""time""
""fullscreenenter"",""0"",""4237""
","
","
","""event"",""trial"",""time""
""fullscreenenter"",""0"",""4237""
","
",4801,audio/mars_instructions_slide4.wav,0,NA,NA,NA,NA,NA,NA,NA,NA,sub146
NA,call-function,12,86620,0.0-9.0,"""event"",""trial"",""time""
""fullscreenenter"",""0"",""4237""
","
","
","""event"",""trial"",""time""
""fullscreenenter"",""0"",""4237""
","
",NA,NA,NA,NA,NA,NA,NA,NA,NA,NA,NA,sub146
NA,html-keyboard-response,13,87120,0.0-10.0-0.0,"""event"",""trial"",""time""
""fullscreenenter"",""0"",""4237""
","
","
","""event"",""trial"",""time""
""fullscreenenter"",""0"",""4237""
","
",null,"<div style=""font-size:60px;"">+</div>",NA,null,fixation,2020-06-29T17:43:56Z,NA,NA,NA,NA,NA,sub146
NA,mars-trial,14,89603,0.0-10.0-1.0,"""event"",""trial"",""time""
""fullscreenenter"",""0"",""4237""
","
","
","""event"",""trial"",""time""
""fullscreenenter"",""0"",""4237""
","
",1879.0000000000146,<img style='border: 4px solid darkgrey;' src='img/tf1_1_M_ss3.jpeg'></img>,2,NA,exp,NA,0,<img src='img/tf1_1_T1_ss3_md.jpeg'></img>,0,TRUE,NA,sub146
NA,html-keyboard-response,15,90104,0.0-10.0-0.1,"""event"",""trial"",""time""
""fullscreenenter"",""0"",""4237""
","
","
","""event"",""trial"",""time""
""fullscreenenter"",""0"",""4237""
","
",null,"<div style=""font-size:60px;"">+</div>",NA,null,fixation,2020-06-29T17:43:59Z,NA,NA,NA,NA,NA,sub146
NA,mars-trial,16,92890,0.0-10.0-1.1,"""event"",""trial"",""time""
""fullscreenenter"",""0"",""4237""
","
","
","""event"",""trial"",""time""
""fullscreenenter"",""0"",""4237""
","
",2181,<img style='border: 4px solid darkgrey;' src='img/tf1_2_M_ss1.jpeg'></img>,3,NA,exp,NA,0,<img src='img/tf1_2_T1_ss1_md.jpeg'></img>,0,TRUE,NA,sub146
NA,html-keyboard-response,17,93392,0.0-10.0-0.2,"""event"",""trial"",""time""
""fullscreenenter"",""0"",""4237""
","
","
","""event"",""trial"",""time""
""fullscreenenter"",""0"",""4237""
","
",null,"<div style=""font-size:60px;"">+</div>",NA,null,fixation,2020-06-29T17:44:02Z,NA,NA,NA,NA,NA,sub146
NA,mars-trial,18,95904,0.0-10.0-1.2,"""event"",""trial"",""time""
""fullscreenenter"",""0"",""4237""
","
","
","""event"",""trial"",""time""
""fullscreenenter"",""0"",""4237""
","
",1909,<img style='border: 4px solid darkgrey;' src='img/tf1_3_M_ss2.jpeg'></img>,0,NA,exp,NA,0,<img src='img/tf1_3_T1_ss2_md.jpeg'></img>,0,TRUE,NA,sub146
NA,html-keyboard-response,19,96406,0.0-10.0-0.3,"""event"",""trial"",""time""
""fullscreenenter"",""0"",""4237""
","
","
","""event"",""trial"",""time""
""fullscreenenter"",""0"",""4237""
","
",null,"<div style=""font-size:60px;"">+</div>",NA,null,fixation,2020-06-29T17:44:05Z,NA,NA,NA,NA,NA,sub146
NA,mars-trial,20,99755,0.0-10.0-1.3,"""event"",""trial"",""time""
""fullscreenenter"",""0"",""4237""
","
","
","""event"",""trial"",""time""
""fullscreenenter"",""0"",""4237""
","
",2747,<img style='border: 4px solid darkgrey;' src='img/tf1_4_M_ss3.jpeg'></img>,3,NA,exp,NA,0,<img src='img/tf1_4_T1_ss3_md.jpeg'></img>,0,TRUE,NA,sub146
NA,html-keyboard-response,21,100257,0.0-10.0-0.4,"""event"",""trial"",""time""
""fullscreenenter"",""0"",""4237""
","
","
","""event"",""trial"",""time""
""fullscreenenter"",""0"",""4237""
","
",null,"<div style=""font-size:60px;"">+</div>",NA,null,fixation,2020-06-29T17:44:09Z,NA,NA,NA,NA,NA,sub146
NA,mars-trial,22,102089,0.0-10.0-1.4,"""event"",""trial"",""time""
""fullscreenenter"",""0"",""4237""
","
","
","""event"",""trial"",""time""
""fullscreenenter"",""0"",""4237""
","
",1228,<img style='border: 4px solid darkgrey;' src='img/tf1_5_M_ss1.jpeg'></img>,3,NA,exp,NA,0,<img src='img/tf1_5_T1_ss1_md.jpeg'></img>,0,TRUE,NA,sub146
NA,html-keyboard-response,23,102591,0.0-10.0-0.5,"""event"",""trial"",""time""
""fullscreenenter"",""0"",""4237""
","
","
","""event"",""trial"",""time""
""fullscreenenter"",""0"",""4237""
","
",null,"<div style=""font-size:60px;"">+</div>",NA,null,fixation,2020-06-29T17:44:11Z,NA,NA,NA,NA,NA,sub146
NA,mars-trial,24,122457,0.0-10.0-1.5,"""event"",""trial"",""time""
""fullscreenenter"",""0"",""4237""
","
","
","""event"",""trial"",""time""
""fullscreenenter"",""0"",""4237""
","
",19256,<img style='border: 4px solid darkgrey;' src='img/tf1_6_M_ss2.jpeg'></img>,1,NA,exp,NA,0,<img src='img/tf1_6_T1_ss2_md.jpeg'></img>,0,TRUE,NA,sub146
NA,html-keyboard-response,25,122960,0.0-10.0-0.6,"""event"",""trial"",""time""
""fullscreenenter"",""0"",""4237""
","
","
","""event"",""trial"",""time""
""fullscreenenter"",""0"",""4237""
","
",null,"<div style=""font-size:60px;"">+</div>",NA,null,fixation,2020-06-29T17:44:32Z,NA,NA,NA,NA,NA,sub146
NA,mars-trial,26,126225,0.0-10.0-1.6,"""event"",""trial"",""time""
""fullscreenenter"",""0"",""4237""
","
","
","""event"",""trial"",""time""
""fullscreenenter"",""0"",""4237""
","
",2660,<img style='border: 4px solid darkgrey;' src='img/tf1_7_M_ss3.jpeg'></img>,0,NA,exp,NA,0,<img src='img/tf1_7_T1_ss3_md.jpeg'></img>,0,TRUE,NA,sub146
NA,html-keyboard-response,27,126727,0.0-10.0-0.7,"""event"",""trial"",""time""
""fullscreenenter"",""0"",""4237""
","
","
","""event"",""trial"",""time""
""fullscreenenter"",""0"",""4237""
","
",null,"<div style=""font-size:60px;"">+</div>",NA,null,fixation,2020-06-29T17:44:35Z,NA,NA,NA,NA,NA,sub146
NA,mars-trial,28,130594,0.0-10.0-1.7,"""event"",""trial"",""time""
""fullscreenenter"",""0"",""4237""
","
","
","""event"",""trial"",""time""
""fullscreenenter"",""0"",""4237""
","
",3262,<img style='border: 4px solid darkgrey;' src='img/tf1_8_M_ss1.jpeg'></img>,2,NA,exp,NA,0,<img src='img/tf1_8_T1_ss1_md.jpeg'></img>,0,TRUE,NA,sub146
NA,html-keyboard-response,29,131096,0.0-10.0-0.8,"""event"",""trial"",""time""
""fullscreenenter"",""0"",""4237""
","
","
","""event"",""trial"",""time""
""fullscreenenter"",""0"",""4237""
","
",null,"<div style=""font-size:60px;"">+</div>",NA,null,fixation,2020-06-29T17:44:40Z,NA,NA,NA,NA,NA,sub146
NA,mars-trial,30,139111,0.0-10.0-1.8,"""event"",""trial"",""time""
""fullscreenenter"",""0"",""4237""
","
","
","""event"",""trial"",""time""
""fullscreenenter"",""0"",""4237""
","
",7411,<img style='border: 4px solid darkgrey;' src='img/tf1_9_M_ss2.jpeg'></img>,1,NA,exp,NA,0,<img src='img/tf1_9_T1_ss2_md.jpeg'></img>,0,TRUE,NA,sub146
NA,html-keyboard-response,31,139613,0.0-10.0-0.9,"""event"",""trial"",""time""
""fullscreenenter"",""0"",""4237""
","
","
","""event"",""trial"",""time""
""fullscreenenter"",""0"",""4237""
","
",null,"<div style=""font-size:60px;"">+</div>",NA,null,fixation,2020-06-29T17:44:48Z,NA,NA,NA,NA,NA,sub146
NA,mars-trial,32,151634,0.0-10.0-1.9,"""event"",""trial"",""time""
""fullscreenenter"",""0"",""4237""
","
","
","""event"",""trial"",""time""
""fullscreenenter"",""0"",""4237""
","
",11416,<img style='border: 4px solid darkgrey;' src='img/tf1_10_M_ss3.jpeg'></img>,0,NA,exp,NA,1,<img src='img/tf1_10_T1_ss3_md.jpeg'></img>,0,FALSE,NA,sub146
NA,html-keyboard-response,33,152136,0.0-10.0-0.10,"""event"",""trial"",""time""
""fullscreenenter"",""0"",""4237""
","
","
","""event"",""trial"",""time""
""fullscreenenter"",""0"",""4237""
","
",null,"<div style=""font-size:60px;"">+</div>",NA,null,fixation,2020-06-29T17:45:01Z,NA,NA,NA,NA,NA,sub146
NA,mars-trial,34,161623,0.0-10.0-1.10,"""event"",""trial"",""time""
""fullscreenenter"",""0"",""4237""
","
","
","""event"",""trial"",""time""
""fullscreenenter"",""0"",""4237""
","
",8883,<img style='border: 4px solid darkgrey;' src='img/tf1_11_M_ss1.jpeg'></img>,3,NA,exp,NA,2,<img src='img/tf1_11_T1_ss1_md.jpeg'></img>,0,FALSE,NA,sub146
NA,html-keyboard-response,35,162125,0.0-10.0-0.11,"""event"",""trial"",""time""
""fullscreenenter"",""0"",""4237""
","
","
","""event"",""trial"",""time""
""fullscreenenter"",""0"",""4237""
","
",null,"<div style=""font-size:60px;"">+</div>",NA,null,fixation,2020-06-29T17:45:11Z,NA,NA,NA,NA,NA,sub146
NA,mars-trial,36,180266,0.0-10.0-1.11,"""event"",""trial"",""time""
""fullscreenenter"",""0"",""4237""
","
","
","""event"",""trial"",""time""
""fullscreenenter"",""0"",""4237""
","
",17537,<img style='border: 4px solid darkgrey;' src='img/tf1_12_M_ss2.jpeg'></img>,3,NA,exp,NA,1,<img src='img/tf1_12_T1_ss2_md.jpeg'></img>,0,FALSE,NA,sub146
NA,html-keyboard-response,37,180768,0.0-10.0-0.12,"""event"",""trial"",""time""
""fullscreenenter"",""0"",""4237""
","
","
","""event"",""trial"",""time""
""fullscreenenter"",""0"",""4237""
","
",null,"<div style=""font-size:60px;"">+</div>",NA,null,fixation,2020-06-29T17:45:29Z,NA,NA,NA,NA,NA,sub146
NA,mars-trial,38,193142,0.0-10.0-1.12,"""event"",""trial"",""time""
""fullscreenenter"",""0"",""4237""
","
","
","""event"",""trial"",""time""
""fullscreenenter"",""0"",""4237""
","
",11770,<img style='border: 4px solid darkgrey;' src='img/tf1_13_M_ss3.jpeg'></img>,1,NA,exp,NA,2,<img src='img/tf1_13_T1_ss3_md.jpeg'></img>,0,FALSE,NA,sub146
NA,html-keyboard-response,39,193644,0.0-10.0-0.13,"""event"",""trial"",""time""
""fullscreenenter"",""0"",""4237""
","
","
","""event"",""trial"",""time""
""fullscreenenter"",""0"",""4237""
","
",null,"<div style=""font-size:60px;"">+</div>",NA,null,fixation,2020-06-29T17:45:42Z,NA,NA,NA,NA,NA,sub146
NA,mars-trial,40,208246,0.0-10.0-1.13,"""event"",""trial"",""time""
""fullscreenenter"",""0"",""4237""
","
","
","""event"",""trial"",""time""
""fullscreenenter"",""0"",""4237""
","
",13998,<img style='border: 4px solid darkgrey;' src='img/tf1_14_M_ss1.jpeg'></img>,0,NA,exp,NA,2,<img src='img/tf1_14_T1_ss1_md.jpeg'></img>,0,FALSE,NA,sub146
NA,html-keyboard-response,41,208748,0.0-10.0-0.14,"""event"",""trial"",""time""
""fullscreenenter"",""0"",""4237""
","
","
","""event"",""trial"",""time""
""fullscreenenter"",""0"",""4237""
","
",null,"<div style=""font-size:60px;"">+</div>",NA,null,fixation,2020-06-29T17:45:57Z,NA,NA,NA,NA,NA,sub146
NA,mars-trial,42,210545,0.0-10.0-1.14,"""event"",""trial"",""time""
""fullscreenenter"",""0"",""4237""
","
","
","""event"",""trial"",""time""
""fullscreenenter"",""0"",""4237""
","
",1193,<img style='border: 4px solid darkgrey;' src='img/tf1_15_M_ss2.jpeg'></img>,0,NA,exp,NA,0,<img src='img/tf1_15_T1_ss2_md.jpeg'></img>,0,TRUE,NA,sub146
NA,html-keyboard-response,43,211047,0.0-10.0-0.15,"""event"",""trial"",""time""
""fullscreenenter"",""0"",""4237""
","
","
","""event"",""trial"",""time""
""fullscreenenter"",""0"",""4237""
","
",null,"<div style=""font-size:60px;"">+</div>",NA,null,fixation,2020-06-29T17:46:00Z,NA,NA,NA,NA,NA,sub146
NA,mars-trial,44,215424,0.0-10.0-1.15,"""event"",""trial"",""time""
""fullscreenenter"",""0"",""4237""
","
","
","""event"",""trial"",""time""
""fullscreenenter"",""0"",""4237""
","
",3774,<img style='border: 4px solid darkgrey;' src='img/tf1_16_M_ss3.jpeg'></img>,1,NA,exp,NA,0,<img src='img/tf1_16_T1_ss3_md.jpeg'></img>,0,TRUE,NA,sub146
NA,html-keyboard-response,45,215926,0.0-10.0-0.16,"""event"",""trial"",""time""
""fullscreenenter"",""0"",""4237""
","
","
","""event"",""trial"",""time""
""fullscreenenter"",""0"",""4237""
","
",null,"<div style=""font-size:60px;"">+</div>",NA,null,fixation,2020-06-29T17:46:05Z,NA,NA,NA,NA,NA,sub146
NA,mars-trial,46,224078,0.0-10.0-1.16,"""event"",""trial"",""time""
""fullscreenenter"",""0"",""4237""
","
","
","""event"",""trial"",""time""
""fullscreenenter"",""0"",""4237""
","
",7548,<img style='border: 4px solid darkgrey;' src='img/tf1_17_M_ss1.jpeg'></img>,1,NA,exp,NA,1,<img src='img/tf1_17_T1_ss1_md.jpeg'></img>,0,FALSE,NA,sub146
NA,html-keyboard-response,47,224580,0.0-10.0-0.17,"""event"",""trial"",""time""
""fullscreenenter"",""0"",""4237""
","
","
","""event"",""trial"",""time""
""fullscreenenter"",""0"",""4237""
","
",null,"<div style=""font-size:60px;"">+</div>",NA,null,fixation,2020-06-29T17:46:13Z,NA,NA,NA,NA,NA,sub146
NA,mars-trial,48,226268,0.0-10.0-1.17,"""event"",""trial"",""time""
""fullscreenenter"",""0"",""4237""
","
","
","""event"",""trial"",""time""
""fullscreenenter"",""0"",""4237""
","
",1084,<img style='border: 4px solid darkgrey;' src='img/tf1_18_M_ss2.jpeg'></img>,2,NA,exp,NA,3,<img src='img/tf1_18_T1_ss2_md.jpeg'></img>,0,FALSE,NA,sub146
NA,html-keyboard-response,49,226770,0.0-10.0-0.18,"""event"",""trial"",""time""
""fullscreenenter"",""0"",""4237""
","
","
","""event"",""trial"",""time""
""fullscreenenter"",""0"",""4237""
","
",null,"<div style=""font-size:60px;"">+</div>",NA,null,fixation,2020-06-29T17:46:15Z,NA,NA,NA,NA,NA,sub146
NA,mars-trial,50,231290,0.0-10.0-1.18,"""event"",""trial"",""time""
""fullscreenenter"",""0"",""4237""
","
","
","""event"",""trial"",""time""
""fullscreenenter"",""0"",""4237""
","
",3916,<img style='border: 4px solid darkgrey;' src='img/tf1_19_M_ss3.jpeg'></img>,0,NA,exp,NA,2,<img src='img/tf1_19_T1_ss3_md.jpeg'></img>,0,FALSE,NA,sub146
NA,html-keyboard-response,51,231792,0.0-10.0-0.19,"""event"",""trial"",""time""
""fullscreenenter"",""0"",""4237""
","
","
","""event"",""trial"",""time""
""fullscreenenter"",""0"",""4237""
","
",null,"<div style=""font-size:60px;"">+</div>",NA,null,fixation,2020-06-29T17:46:20Z,NA,NA,NA,NA,NA,sub146
NA,mars-trial,52,234256,0.0-10.0-1.19,"""event"",""trial"",""time""
""fullscreenenter"",""0"",""4237""
","
","
","""event"",""trial"",""time""
""fullscreenenter"",""0"",""4237""
","
",1861,<img style='border: 4px solid darkgrey;' src='img/tf1_20_M_ss1.jpeg'></img>,2,NA,exp,NA,1,<img src='img/tf1_20_T1_ss1_md.jpeg'></img>,0,FALSE,NA,sub146
NA,html-keyboard-response,53,234758,0.0-10.0-0.20,"""event"",""trial"",""time""
""fullscreenenter"",""0"",""4237""
","
","
","""event"",""trial"",""time""
""fullscreenenter"",""0"",""4237""
","
",null,"<div style=""font-size:60px;"">+</div>",NA,null,fixation,2020-06-29T17:46:23Z,NA,NA,NA,NA,NA,sub146
NA,mars-trial,54,236334,0.0-10.0-1.20,"""event"",""trial"",""time""
""fullscreenenter"",""0"",""4237""
","
","
","""event"",""trial"",""time""
""fullscreenenter"",""0"",""4237""
","
",971,<img style='border: 4px solid darkgrey;' src='img/tf1_21_M_ss2.jpeg'></img>,2,NA,exp,NA,0,<img src='img/tf1_21_T1_ss2_md.jpeg'></img>,0,TRUE,NA,sub146
NA,html-keyboard-response,55,236836,0.0-10.0-0.21,"""event"",""trial"",""time""
""fullscreenenter"",""0"",""4237""
","
","
","""event"",""trial"",""time""
""fullscreenenter"",""0"",""4237""
","
",null,"<div style=""font-size:60px;"">+</div>",NA,null,fixation,2020-06-29T17:46:26Z,NA,NA,NA,NA,NA,sub146
NA,mars-trial,56,239193,0.0-10.0-1.21,"""event"",""trial"",""time""
""fullscreenenter"",""0"",""4237""
","
","
","""event"",""trial"",""time""
""fullscreenenter"",""0"",""4237""
","
",1753.000000000029,<img style='border: 4px solid darkgrey;' src='img/tf1_22_M_ss3.jpeg'></img>,1,NA,exp,NA,3,<img src='img/tf1_22_T1_ss3_md.jpeg'></img>,0,FALSE,NA,sub146
NA,html-keyboard-response,57,239695,0.0-10.0-0.22,"""event"",""trial"",""time""
""fullscreenenter"",""0"",""4237""
","
","
","""event"",""trial"",""time""
""fullscreenenter"",""0"",""4237""
","
",null,"<div style=""font-size:60px;"">+</div>",NA,null,fixation,2020-06-29T17:46:28Z,NA,NA,NA,NA,NA,sub146
NA,mars-trial,58,244177,0.0-10.0-1.22,"""event"",""trial"",""time""
""fullscreenenter"",""0"",""4237""
","
","
","""event"",""trial"",""time""
""fullscreenenter"",""0"",""4237""
","
",3878,<img style='border: 4px solid darkgrey;' src='img/tf1_23_M_ss1.jpeg'></img>,1,NA,exp,NA,2,<img src='img/tf1_23_T1_ss1_md.jpeg'></img>,0,FALSE,NA,sub146
NA,html-keyboard-response,59,244679,0.0-10.0-0.23,"""event"",""trial"",""time""
""fullscreenenter"",""0"",""4237""
","
","
","""event"",""trial"",""time""
""fullscreenenter"",""0"",""4237""
","
",null,"<div style=""font-size:60px;"">+</div>",NA,null,fixation,2020-06-29T17:46:33Z,NA,NA,NA,NA,NA,sub146
NA,mars-trial,60,246210,0.0-10.0-1.23,"""event"",""trial"",""time""
""fullscreenenter"",""0"",""4237""
","
","
","""event"",""trial"",""time""
""fullscreenenter"",""0"",""4237""
","
",929,<img style='border: 4px solid darkgrey;' src='img/tf1_24_M_ss2.jpeg'></img>,2,NA,exp,NA,3,<img src='img/tf1_24_T1_ss2_md.jpeg'></img>,0,FALSE,NA,sub146
NA,html-keyboard-response,61,246711,0.0-10.0-0.24,"""event"",""trial"",""time""
""fullscreenenter"",""0"",""4237""
","
","
","""event"",""trial"",""time""
""fullscreenenter"",""0"",""4237""
","
",null,"<div style=""font-size:60px;"">+</div>",NA,null,fixation,2020-06-29T17:46:35Z,NA,NA,NA,NA,NA,sub146
NA,mars-trial,62,247831,0.0-10.0-1.24,"""event"",""trial"",""time""
""fullscreenenter"",""0"",""4237""
","
","
","""event"",""trial"",""time""
""fullscreenenter"",""0"",""4237""
","
",517,<img style='border: 4px solid darkgrey;' src='img/tf1_25_M_ss3.jpeg'></img>,3,NA,exp,NA,2,<img src='img/tf1_25_T1_ss3_md.jpeg'></img>,0,FALSE,NA,sub146
NA,html-keyboard-response,63,248333,0.0-10.0-0.25,"""event"",""trial"",""time""
""fullscreenenter"",""0"",""4237""
","
","
","""event"",""trial"",""time""
""fullscreenenter"",""0"",""4237""
","
",null,"<div style=""font-size:60px;"">+</div>",NA,null,fixation,2020-06-29T17:46:37Z,NA,NA,NA,NA,NA,sub146
NA,mars-trial,64,249969,0.0-10.0-1.25,"""event"",""trial"",""time""
""fullscreenenter"",""0"",""4237""
","
","
","""event"",""trial"",""time""
""fullscreenenter"",""0"",""4237""
","
",1033,<img style='border: 4px solid darkgrey;' src='img/tf1_26_M_ss1.jpeg'></img>,0,NA,exp,NA,2,<img src='img/tf1_26_T1_ss1_md.jpeg'></img>,0,FALSE,NA,sub146
NA,html-keyboard-response,65,250471,0.0-10.0-0.26,"""event"",""trial"",""time""
""fullscreenenter"",""0"",""4237""
","
","
","""event"",""trial"",""time""
""fullscreenenter"",""0"",""4237""
","
",null,"<div style=""font-size:60px;"">+</div>",NA,null,fixation,2020-06-29T17:46:39Z,NA,NA,NA,NA,NA,sub146
NA,mars-trial,66,251647,0.0-10.0-1.26,"""event"",""trial"",""time""
""fullscreenenter"",""0"",""4237""
","
","
","""event"",""trial"",""time""
""fullscreenenter"",""0"",""4237""
","
",571.9999999999709,<img style='border: 4px solid darkgrey;' src='img/tf1_27_M_ss2.jpeg'></img>,2,NA,exp,NA,2,<img src='img/tf1_27_T1_ss2_md.jpeg'></img>,0,FALSE,NA,sub146
NA,html-keyboard-response,67,252150,0.0-10.0-0.27,"""event"",""trial"",""time""
""fullscreenenter"",""0"",""4237""
","
","
","""event"",""trial"",""time""
""fullscreenenter"",""0"",""4237""
","
",null,"<div style=""font-size:60px;"">+</div>",NA,null,fixation,2020-06-29T17:46:41Z,NA,NA,NA,NA,NA,sub146
NA,mars-trial,68,253176,0.0-10.0-1.27,"""event"",""trial"",""time""
""fullscreenenter"",""0"",""4237""
","
","
","""event"",""trial"",""time""
""fullscreenenter"",""0"",""4237""
","
",421.9999999999709,<img style='border: 4px solid darkgrey;' src='img/tf1_28_M_ss3.jpeg'></img>,1,NA,exp,NA,3,<img src='img/tf1_28_T1_ss3_md.jpeg'></img>,0,FALSE,NA,sub146
NA,html-keyboard-response,69,253678,0.0-10.0-0.28,"""event"",""trial"",""time""
""fullscreenenter"",""0"",""4237""
","
","
","""event"",""trial"",""time""
""fullscreenenter"",""0"",""4237""
","
",null,"<div style=""font-size:60px;"">+</div>",NA,null,fixation,2020-06-29T17:46:42Z,NA,NA,NA,NA,NA,sub146
NA,mars-trial,70,254688,0.0-10.0-1.28,"""event"",""trial"",""time""
""fullscreenenter"",""0"",""4237""
","
","
","""event"",""trial"",""time""
""fullscreenenter"",""0"",""4237""
","
",408.0000000000291,<img style='border: 4px solid darkgrey;' src='img/tf1_29_M_ss1.jpeg'></img>,3,NA,exp,NA,1,<img src='img/tf1_29_T1_ss1_md.jpeg'></img>,0,FALSE,NA,sub146
NA,html-keyboard-response,71,255190,0.0-10.0-0.29,"""event"",""trial"",""time""
""fullscreenenter"",""0"",""4237""
","
","
","""event"",""trial"",""time""
""fullscreenenter"",""0"",""4237""
","
",null,"<div style=""font-size:60px;"">+</div>",NA,null,fixation,2020-06-29T17:46:44Z,NA,NA,NA,NA,NA,sub146
NA,mars-trial,72,256167,0.0-10.0-1.29,"""event"",""trial"",""time""
""fullscreenenter"",""0"",""4237""
","
","
","""event"",""trial"",""time""
""fullscreenenter"",""0"",""4237""
","
",372,<img style='border: 4px solid darkgrey;' src='img/tf1_30_M_ss2.jpeg'></img>,1,NA,exp,NA,0,<img src='img/tf1_30_T1_ss2_md.jpeg'></img>,0,TRUE,NA,sub146
NA,html-keyboard-response,73,256669,0.0-10.0-0.30,"""event"",""trial"",""time""
""fullscreenenter"",""0"",""4237""
","
","
","""event"",""trial"",""time""
""fullscreenenter"",""0"",""4237""
","
",null,"<div style=""font-size:60px;"">+</div>",NA,null,fixation,2020-06-29T17:46:45Z,NA,NA,NA,NA,NA,sub146
NA,mars-trial,74,258933,0.0-10.0-1.30,"""event"",""trial"",""time""
""fullscreenenter"",""0"",""4237""
","
","
","""event"",""trial"",""time""
""fullscreenenter"",""0"",""4237""
","
",1657.0000000000582,<img style='border: 4px solid darkgrey;' src='img/tf1_31_M_ss3.jpeg'></img>,2,NA,exp,NA,0,<img src='img/tf1_31_T1_ss3_md.jpeg'></img>,0,TRUE,NA,sub146
NA,html-keyboard-response,75,259434,0.0-10.0-0.31,"""event"",""trial"",""time""
""fullscreenenter"",""0"",""4237""
","
","
","""event"",""trial"",""time""
""fullscreenenter"",""0"",""4237""
","
",null,"<div style=""font-size:60px;"">+</div>",NA,null,fixation,2020-06-29T17:46:48Z,NA,NA,NA,NA,NA,sub146
NA,mars-trial,76,260846,0.0-10.0-1.31,"""event"",""trial"",""time""
""fullscreenenter"",""0"",""4237""
","
","
","""event"",""trial"",""time""
""fullscreenenter"",""0"",""4237""
","
",808,<img style='border: 4px solid darkgrey;' src='img/tf1_32_M_ss1.jpeg'></img>,1,NA,exp,NA,2,<img src='img/tf1_32_T1_ss1_md.jpeg'></img>,0,FALSE,NA,sub146
NA,html-keyboard-response,77,261348,0.0-10.0-0.32,"""event"",""trial"",""time""
""fullscreenenter"",""0"",""4237""
","
","
","""event"",""trial"",""time""
""fullscreenenter"",""0"",""4237""
","
",null,"<div style=""font-size:60px;"">+</div>",NA,null,fixation,2020-06-29T17:46:50Z,NA,NA,NA,NA,NA,sub146
NA,mars-trial,78,262471,0.0-10.0-1.32,"""event"",""trial"",""time""
""fullscreenenter"",""0"",""4237""
","
","
","""event"",""trial"",""time""
""fullscreenenter"",""0"",""4237""
","
",520,<img style='border: 4px solid darkgrey;' src='img/tf1_33_M_ss2.jpeg'></img>,2,NA,exp,NA,0,<img src='img/tf1_33_T1_ss2_md.jpeg'></img>,0,TRUE,NA,sub146
NA,html-keyboard-response,79,262973,0.0-10.0-0.33,"""event"",""trial"",""time""
""fullscreenenter"",""0"",""4237""
","
","
","""event"",""trial"",""time""
""fullscreenenter"",""0"",""4237""
","
",null,"<div style=""font-size:60px;"">+</div>",NA,null,fixation,2020-06-29T17:46:52Z,NA,NA,NA,NA,NA,sub146
NA,mars-trial,80,264260,0.0-10.0-1.33,"""event"",""trial"",""time""
""fullscreenenter"",""0"",""4237""
","
","
","""event"",""trial"",""time""
""fullscreenenter"",""0"",""4237""
","
",684,<img style='border: 4px solid darkgrey;' src='img/tf1_34_M_ss3.jpeg'></img>,0,NA,exp,NA,0,<img src='img/tf1_34_T1_ss3_md.jpeg'></img>,0,TRUE,NA,sub146
NA,html-keyboard-response,81,264762,0.0-10.0-0.34,"""event"",""trial"",""time""
""fullscreenenter"",""0"",""4237""
","
","
","""event"",""trial"",""time""
""fullscreenenter"",""0"",""4237""
","
",null,"<div style=""font-size:60px;"">+</div>",NA,null,fixation,2020-06-29T17:46:53Z,NA,NA,NA,NA,NA,sub146
NA,mars-trial,82,265830,0.0-10.0-1.34,"""event"",""trial"",""time""
""fullscreenenter"",""0"",""4237""
","
","
","""event"",""trial"",""time""
""fullscreenenter"",""0"",""4237""
","
",464,<img style='border: 4px solid darkgrey;' src='img/tf1_35_M_ss1.jpeg'></img>,3,NA,exp,NA,0,<img src='img/tf1_35_T1_ss1_md.jpeg'></img>,0,TRUE,NA,sub146
NA,html-keyboard-response,83,266332,0.0-10.0-0.35,"""event"",""trial"",""time""
""fullscreenenter"",""0"",""4237""
","
","
","""event"",""trial"",""time""
""fullscreenenter"",""0"",""4237""
","
",null,"<div style=""font-size:60px;"">+</div>",NA,null,fixation,2020-06-29T17:46:55Z,NA,NA,NA,NA,NA,sub146
NA,mars-trial,84,267462,0.0-10.0-1.35,"""event"",""trial"",""time""
""fullscreenenter"",""0"",""4237""
","
","
","""event"",""trial"",""time""
""fullscreenenter"",""0"",""4237""
","
",527,<img style='border: 4px solid darkgrey;' src='img/tf1_36_M_ss2.jpeg'></img>,0,NA,exp,NA,0,<img src='img/tf1_36_T1_ss2_md.jpeg'></img>,0,TRUE,NA,sub146
NA,html-keyboard-response,85,267963,0.0-10.0-0.36,"""event"",""trial"",""time""
""fullscreenenter"",""0"",""4237""
","
","
","""event"",""trial"",""time""
""fullscreenenter"",""0"",""4237""
","
",null,"<div style=""font-size:60px;"">+</div>",NA,null,fixation,2020-06-29T17:46:57Z,NA,NA,NA,NA,NA,sub146
NA,mars-trial,86,269748,0.0-10.0-1.36,"""event"",""trial"",""time""
""fullscreenenter"",""0"",""4237""
","
","
","""event"",""trial"",""time""
""fullscreenenter"",""0"",""4237""
","
",1182,<img style='border: 4px solid darkgrey;' src='img/tf1_37_M_ss3.jpeg'></img>,2,NA,exp,NA,0,<img src='img/tf1_37_T1_ss3_md.jpeg'></img>,0,TRUE,NA,sub146
NA,html-keyboard-response,87,270250,0.0-10.0-0.37,"""event"",""trial"",""time""
""fullscreenenter"",""0"",""4237""
","
","
","""event"",""trial"",""time""
""fullscreenenter"",""0"",""4237""
","
",null,"<div style=""font-size:60px;"">+</div>",NA,null,fixation,2020-06-29T17:46:59Z,NA,NA,NA,NA,NA,sub146
NA,mars-trial,88,275420,0.0-10.0-1.37,"""event"",""trial"",""time""
""fullscreenenter"",""0"",""4237""
","
","
","""event"",""trial"",""time""
""fullscreenenter"",""0"",""4237""
","
",4567,<img style='border: 4px solid darkgrey;' src='img/tf1_38_M_ss1.jpeg'></img>,1,NA,exp,NA,0,<img src='img/tf1_38_T1_ss1_md.jpeg'></img>,0,TRUE,NA,sub146
NA,html-keyboard-response,89,275922,0.0-10.0-0.38,"""event"",""trial"",""time""
""fullscreenenter"",""0"",""4237""
","
","
","""event"",""trial"",""time""
""fullscreenenter"",""0"",""4237""
","
",null,"<div style=""font-size:60px;"">+</div>",NA,null,fixation,2020-06-29T17:47:05Z,NA,NA,NA,NA,NA,sub146
NA,mars-trial,90,278075,0.0-10.0-1.38,"""event"",""trial"",""time""
""fullscreenenter"",""0"",""4237""
","
","
","""event"",""trial"",""time""
""fullscreenenter"",""0"",""4237""
","
",1548,<img style='border: 4px solid darkgrey;' src='img/tf1_39_M_ss2.jpeg'></img>,2,NA,exp,NA,3,<img src='img/tf1_39_T1_ss2_md.jpeg'></img>,0,FALSE,NA,sub146
NA,html-keyboard-response,91,278578,0.0-10.0-0.39,"""event"",""trial"",""time""
""fullscreenenter"",""0"",""4237""
","
","
","""event"",""trial"",""time""
""fullscreenenter"",""0"",""4237""
","
",null,"<div style=""font-size:60px;"">+</div>",NA,null,fixation,2020-06-29T17:47:07Z,NA,NA,NA,NA,NA,sub146
NA,mars-trial,92,279643,0.0-10.0-1.39,"""event"",""trial"",""time""
""fullscreenenter"",""0"",""4237""
","
","
","""event"",""trial"",""time""
""fullscreenenter"",""0"",""4237""
","
",462,<img style='border: 4px solid darkgrey;' src='img/tf1_40_M_ss3.jpeg'></img>,1,NA,exp,NA,3,<img src='img/tf1_40_T1_ss3_md.jpeg'></img>,0,FALSE,NA,sub146
NA,html-keyboard-response,93,280145,0.0-10.0-0.40,"""event"",""trial"",""time""
""fullscreenenter"",""0"",""4237""
","
","
","""event"",""trial"",""time""
""fullscreenenter"",""0"",""4237""
","
",null,"<div style=""font-size:60px;"">+</div>",NA,null,fixation,2020-06-29T17:47:09Z,NA,NA,NA,NA,NA,sub146
NA,mars-trial,94,282891,0.0-10.0-1.40,"""event"",""trial"",""time""
""fullscreenenter"",""0"",""4237""
","
","
","""event"",""trial"",""time""
""fullscreenenter"",""0"",""4237""
","
",2142,<img style='border: 4px solid darkgrey;' src='img/tf1_41_M_ss1.jpeg'></img>,1,NA,exp,NA,1,<img src='img/tf1_41_T1_ss1_md.jpeg'></img>,0,FALSE,NA,sub146
NA,html-keyboard-response,95,283393,0.0-10.0-0.41,"""event"",""trial"",""time""
""fullscreenenter"",""0"",""4237""
","
","
","""event"",""trial"",""time""
""fullscreenenter"",""0"",""4237""
","
",null,"<div style=""font-size:60px;"">+</div>",NA,null,fixation,2020-06-29T17:47:12Z,NA,NA,NA,NA,NA,sub146
NA,mars-trial,96,284687,0.0-10.0-1.41,"""event"",""trial"",""time""
""fullscreenenter"",""0"",""4237""
","
","
","""event"",""trial"",""time""
""fullscreenenter"",""0"",""4237""
","
",692,<img style='border: 4px solid darkgrey;' src='img/tf1_42_M_ss2.jpeg'></img>,0,NA,exp,NA,3,<img src='img/tf1_42_T1_ss2_md.jpeg'></img>,0,FALSE,NA,sub146
NA,html-keyboard-response,97,285189,0.0-10.0-0.42,"""event"",""trial"",""time""
""fullscreenenter"",""0"",""4237""
","
","
","""event"",""trial"",""time""
""fullscreenenter"",""0"",""4237""
","
",null,"<div style=""font-size:60px;"">+</div>",NA,null,fixation,2020-06-29T17:47:14Z,NA,NA,NA,NA,NA,sub146
NA,mars-trial,98,286257,0.0-10.0-1.42,"""event"",""trial"",""time""
""fullscreenenter"",""0"",""4237""
","
","
","""event"",""trial"",""time""
""fullscreenenter"",""0"",""4237""
","
",463,<img style='border: 4px solid darkgrey;' src='img/tf1_43_M_ss3.jpeg'></img>,2,NA,exp,NA,0,<img src='img/tf1_43_T1_ss3_md.jpeg'></img>,0,TRUE,NA,sub146
NA,html-keyboard-response,99,286759,0.0-10.0-0.43,"""event"",""trial"",""time""
""fullscreenenter"",""0"",""4237""
","
","
","""event"",""trial"",""time""
""fullscreenenter"",""0"",""4237""
","
",null,"<div style=""font-size:60px;"">+</div>",NA,null,fixation,2020-06-29T17:47:15Z,NA,NA,NA,NA,NA,sub146
NA,mars-trial,100,288523,0.0-10.0-1.43,"""event"",""trial"",""time""
""fullscreenenter"",""0"",""4237""
","
","
","""event"",""trial"",""time""
""fullscreenenter"",""0"",""4237""
","
",1160,<img style='border: 4px solid darkgrey;' src='img/tf1_44_M_ss1.jpeg'></img>,2,NA,exp,NA,0,<img src='img/tf1_44_T1_ss1_md.jpeg'></img>,0,TRUE,NA,sub146
NA,html-keyboard-response,101,289025,0.0-10.0-0.44,"""event"",""trial"",""time""
""fullscreenenter"",""0"",""4237""
","
","
","""event"",""trial"",""time""
""fullscreenenter"",""0"",""4237""
","
",null,"<div style=""font-size:60px;"">+</div>",NA,null,fixation,2020-06-29T17:47:18Z,NA,NA,NA,NA,NA,sub146
NA,mars-trial,102,291192,0.0-10.0-1.44,"""event"",""trial"",""time""
""fullscreenenter"",""0"",""4237""
","
","
","""event"",""trial"",""time""
""fullscreenenter"",""0"",""4237""
","
",1563,<img style='border: 4px solid darkgrey;' src='img/tf1_45_M_ss2.jpeg'></img>,1,NA,exp,NA,3,<img src='img/tf1_45_T1_ss2_md.jpeg'></img>,0,FALSE,NA,sub146
NA,html-keyboard-response,103,291694,0.0-10.0-0.45,"""event"",""trial"",""time""
""fullscreenenter"",""0"",""4237""
","
","
","""event"",""trial"",""time""
""fullscreenenter"",""0"",""4237""
","
",null,"<div style=""font-size:60px;"">+</div>",NA,null,fixation,2020-06-29T17:47:20Z,NA,NA,NA,NA,NA,sub146
NA,mars-trial,104,292761,0.0-10.0-1.45,"""event"",""trial"",""time""
""fullscreenenter"",""0"",""4237""
","
","
","""event"",""trial"",""time""
""fullscreenenter"",""0"",""4237""
","
",463,<img style='border: 4px solid darkgrey;' src='img/tf1_46_M_ss3.jpeg'></img>,2,NA,exp,NA,2,<img src='img/tf1_46_T1_ss3_md.jpeg'></img>,0,FALSE,NA,sub146
NA,html-keyboard-response,105,293262,0.0-10.0-0.46,"""event"",""trial"",""time""
""fullscreenenter"",""0"",""4237""
","
","
","""event"",""trial"",""time""
""fullscreenenter"",""0"",""4237""
","
",null,"<div style=""font-size:60px;"">+</div>",NA,null,fixation,2020-06-29T17:47:22Z,NA,NA,NA,NA,NA,sub146
NA,mars-trial,106,294347,0.0-10.0-1.46,"""event"",""trial"",""time""
""fullscreenenter"",""0"",""4237""
","
","
","""event"",""trial"",""time""
""fullscreenenter"",""0"",""4237""
","
",480,<img style='border: 4px solid darkgrey;' src='img/tf1_47_M_ss1.jpeg'></img>,0,NA,exp,NA,0,<img src='img/tf1_47_T1_ss1_md.jpeg'></img>,0,TRUE,NA,sub146
NA,html-keyboard-response,107,294849,0.0-10.0-0.47,"""event"",""trial"",""time""
""fullscreenenter"",""0"",""4237""
","
","
","""event"",""trial"",""time""
""fullscreenenter"",""0"",""4237""
","
",null,"<div style=""font-size:60px;"">+</div>",NA,null,fixation,2020-06-29T17:47:24Z,NA,NA,NA,NA,NA,sub146
NA,mars-trial,108,296324,0.0-10.0-1.47,"""event"",""trial"",""time""
""fullscreenenter"",""0"",""4237""
","
","
","""event"",""trial"",""time""
""fullscreenenter"",""0"",""4237""
","
",870,<img style='border: 4px solid darkgrey;' src='img/tf1_48_M_ss2.jpeg'></img>,2,NA,exp,NA,2,<img src='img/tf1_48_T1_ss2_md.jpeg'></img>,0,FALSE,NA,sub146
NA,html-keyboard-response,109,296825,0.0-10.0-0.48,"""event"",""trial"",""time""
""fullscreenenter"",""0"",""4237""
","
","
","""event"",""trial"",""time""
""fullscreenenter"",""0"",""4237""
","
",null,"<div style=""font-size:60px;"">+</div>",NA,null,fixation,2020-06-29T17:47:26Z,NA,NA,NA,NA,NA,sub146
NA,mars-trial,110,297938,0.0-10.0-1.48,"""event"",""trial"",""time""
""fullscreenenter"",""0"",""4237""
","
","
","""event"",""trial"",""time""
""fullscreenenter"",""0"",""4237""
","
",507.9999999999418,<img style='border: 4px solid darkgrey;' src='img/tf1_49_M_ss3.jpeg'></img>,1,NA,exp,NA,3,<img src='img/tf1_49_T1_ss3_md.jpeg'></img>,0,FALSE,NA,sub146
NA,html-keyboard-response,111,298440,0.0-10.0-0.49,"""event"",""trial"",""time""
""fullscreenenter"",""0"",""4237""
","
","
","""event"",""trial"",""time""
""fullscreenenter"",""0"",""4237""
","
",null,"<div style=""font-size:60px;"">+</div>",NA,null,fixation,2020-06-29T17:47:27Z,NA,NA,NA,NA,NA,sub146
NA,mars-trial,112,299650,0.0-10.0-1.49,"""event"",""trial"",""time""
""fullscreenenter"",""0"",""4237""
","
","
","""event"",""trial"",""time""
""fullscreenenter"",""0"",""4237""
","
",608,<img style='border: 4px solid darkgrey;' src='img/tf1_50_M_ss1.jpeg'></img>,3,NA,exp,NA,0,<img src='img/tf1_50_T1_ss1_md.jpeg'></img>,0,TRUE,NA,sub146
NA,html-keyboard-response,113,300152,0.0-10.0-0.50,"""event"",""trial"",""time""
""fullscreenenter"",""0"",""4237""
","
","
","""event"",""trial"",""time""
""fullscreenenter"",""0"",""4237""
","
",null,"<div style=""font-size:60px;"">+</div>",NA,null,fixation,2020-06-29T17:47:29Z,NA,NA,NA,NA,NA,sub146
NA,mars-trial,114,301364,0.0-10.0-1.50,"""event"",""trial"",""time""
""fullscreenenter"",""0"",""4237""
","
","
","""event"",""trial"",""time""
""fullscreenenter"",""0"",""4237""
","
",609.0000000000582,<img style='border: 4px solid darkgrey;' src='img/tf1_51_M_ss2.jpeg'></img>,2,NA,exp,NA,0,<img src='img/tf1_51_T1_ss2_md.jpeg'></img>,0,TRUE,NA,sub146
NA,html-keyboard-response,115,301866,0.0-10.0-0.51,"""event"",""trial"",""time""
""fullscreenenter"",""0"",""4237""
","
","
","""event"",""trial"",""time""
""fullscreenenter"",""0"",""4237""
","
",null,"<div style=""font-size:60px;"">+</div>",NA,null,fixation,2020-06-29T17:47:31Z,NA,NA,NA,NA,NA,sub146
NA,mars-trial,116,303267,0.0-10.0-1.51,"""event"",""trial"",""time""
""fullscreenenter"",""0"",""4237""
","
","
","""event"",""trial"",""time""
""fullscreenenter"",""0"",""4237""
","
",796,<img style='border: 4px solid darkgrey;' src='img/tf1_52_M_ss3.jpeg'></img>,1,NA,exp,NA,3,<img src='img/tf1_52_T1_ss3_md.jpeg'></img>,0,FALSE,NA,sub146
NA,html-keyboard-response,117,303769,0.0-10.0-0.52,"""event"",""trial"",""time""
""fullscreenenter"",""0"",""4237""
","
","
","""event"",""trial"",""time""
""fullscreenenter"",""0"",""4237""
","
",null,"<div style=""font-size:60px;"">+</div>",NA,null,fixation,2020-06-29T17:47:32Z,NA,NA,NA,NA,NA,sub146
NA,mars-trial,118,304834,0.0-10.0-1.52,"""event"",""trial"",""time""
""fullscreenenter"",""0"",""4237""
","
","
","""event"",""trial"",""time""
""fullscreenenter"",""0"",""4237""
","
",464,<img style='border: 4px solid darkgrey;' src='img/tf1_53_M_ss1.jpeg'></img>,2,NA,exp,NA,3,<img src='img/tf1_53_T1_ss1_md.jpeg'></img>,0,FALSE,NA,sub146
NA,html-keyboard-response,119,305336,0.0-10.0-0.53,"""event"",""trial"",""time""
""fullscreenenter"",""0"",""4237""
","
","
","""event"",""trial"",""time""
""fullscreenenter"",""0"",""4237""
","
",null,"<div style=""font-size:60px;"">+</div>",NA,null,fixation,2020-06-29T17:47:34Z,NA,NA,NA,NA,NA,sub146
NA,mars-trial,120,306343,0.0-10.0-1.53,"""event"",""trial"",""time""
""fullscreenenter"",""0"",""4237""
","
","
","""event"",""trial"",""time""
""fullscreenenter"",""0"",""4237""
","
",404,<img style='border: 4px solid darkgrey;' src='img/tf1_54_M_ss2.jpeg'></img>,0,NA,exp,NA,0,<img src='img/tf1_54_T1_ss2_md.jpeg'></img>,0,TRUE,NA,sub146
NA,html-keyboard-response,121,306845,0.0-10.0-0.54,"""event"",""trial"",""time""
""fullscreenenter"",""0"",""4237""
","
","
","""event"",""trial"",""time""
""fullscreenenter"",""0"",""4237""
","
",null,"<div style=""font-size:60px;"">+</div>",NA,null,fixation,2020-06-29T17:47:36Z,NA,NA,NA,NA,NA,sub146
NA,mars-trial,122,307857,0.0-10.0-1.54,"""event"",""trial"",""time""
""fullscreenenter"",""0"",""4237""
","
","
","""event"",""trial"",""time""
""fullscreenenter"",""0"",""4237""
","
",408,<img style='border: 4px solid darkgrey;' src='img/tf1_55_M_ss3.jpeg'></img>,3,NA,exp,NA,0,<img src='img/tf1_55_T1_ss3_md.jpeg'></img>,0,TRUE,NA,sub146
NA,html-keyboard-response,123,308359,0.0-10.0-0.55,"""event"",""trial"",""time""
""fullscreenenter"",""0"",""4237""
","
","
","""event"",""trial"",""time""
""fullscreenenter"",""0"",""4237""
","
",null,"<div style=""font-size:60px;"">+</div>",NA,null,fixation,2020-06-29T17:47:37Z,NA,NA,NA,NA,NA,sub146
NA,mars-trial,124,309362,0.0-10.0-1.55,"""event"",""trial"",""time""
""fullscreenenter"",""0"",""4237""
","
","
","""event"",""trial"",""time""
""fullscreenenter"",""0"",""4237""
","
",401,<img style='border: 4px solid darkgrey;' src='img/tf1_56_M_ss1.jpeg'></img>,1,NA,exp,NA,0,<img src='img/tf1_56_T1_ss1_md.jpeg'></img>,0,TRUE,NA,sub146
NA,html-keyboard-response,125,309864,0.0-10.0-0.56,"""event"",""trial"",""time""
""fullscreenenter"",""0"",""4237""
","
","
","""event"",""trial"",""time""
""fullscreenenter"",""0"",""4237""
","
",null,"<div style=""font-size:60px;"">+</div>",NA,null,fixation,2020-06-29T17:47:39Z,NA,NA,NA,NA,NA,sub146
NA,mars-trial,126,311130,0.0-10.0-1.56,"""event"",""trial"",""time""
""fullscreenenter"",""0"",""4237""
","
","
","""event"",""trial"",""time""
""fullscreenenter"",""0"",""4237""
","
",659,<img style='border: 4px solid darkgrey;' src='img/tf1_57_M_ss2.jpeg'></img>,2,NA,exp,NA,3,<img src='img/tf1_57_T1_ss2_md.jpeg'></img>,0,FALSE,NA,sub146
NA,html-keyboard-response,127,311632,0.0-10.0-0.57,"""event"",""trial"",""time""
""fullscreenenter"",""0"",""4237""
","
","
","""event"",""trial"",""time""
""fullscreenenter"",""0"",""4237""
","
",null,"<div style=""font-size:60px;"">+</div>",NA,null,fixation,2020-06-29T17:47:40Z,NA,NA,NA,NA,NA,sub146
NA,mars-trial,128,312754,0.0-10.0-1.57,"""event"",""trial"",""time""
""fullscreenenter"",""0"",""4237""
","
","
","""event"",""trial"",""time""
""fullscreenenter"",""0"",""4237""
","
",518,<img style='border: 4px solid darkgrey;' src='img/tf1_58_M_ss3.jpeg'></img>,1,NA,exp,NA,0,<img src='img/tf1_58_T1_ss3_md.jpeg'></img>,0,TRUE,NA,sub146
NA,html-keyboard-response,129,313256,0.0-10.0-0.58,"""event"",""trial"",""time""
""fullscreenenter"",""0"",""4237""
","
","
","""event"",""trial"",""time""
""fullscreenenter"",""0"",""4237""
","
",null,"<div style=""font-size:60px;"">+</div>",NA,null,fixation,2020-06-29T17:47:42Z,NA,NA,NA,NA,NA,sub146
NA,mars-trial,130,316217,0.0-10.0-1.58,"""event"",""trial"",""time""
""fullscreenenter"",""0"",""4237""
","
","
","""event"",""trial"",""time""
""fullscreenenter"",""0"",""4237""
","
",2357,<img style='border: 4px solid darkgrey;' src='img/tf1_59_M_ss1.jpeg'></img>,2,NA,exp,NA,0,<img src='img/tf1_59_T1_ss1_md.jpeg'></img>,0,TRUE,NA,sub146
NA,html-keyboard-response,131,316720,0.0-10.0-0.59,"""event"",""trial"",""time""
""fullscreenenter"",""0"",""4237""
","
","
","""event"",""trial"",""time""
""fullscreenenter"",""0"",""4237""
","
",null,"<div style=""font-size:60px;"">+</div>",NA,null,fixation,2020-06-29T17:47:45Z,NA,NA,NA,NA,NA,sub146
NA,mars-trial,132,321233,0.0-10.0-1.59,"""event"",""trial"",""time""
""fullscreenenter"",""0"",""4237""
","
","
","""event"",""trial"",""time""
""fullscreenenter"",""0"",""4237""
","
",3909,<img style='border: 4px solid darkgrey;' src='img/tf1_60_M_ss2.jpeg'></img>,3,NA,exp,NA,0,<img src='img/tf1_60_T1_ss2_md.jpeg'></img>,0,TRUE,NA,sub146
NA,html-keyboard-response,133,321734,0.0-10.0-0.60,"""event"",""trial"",""time""
""fullscreenenter"",""0"",""4237""
","
","
","""event"",""trial"",""time""
""fullscreenenter"",""0"",""4237""
","
",null,"<div style=""font-size:60px;"">+</div>",NA,null,fixation,2020-06-29T17:47:50Z,NA,NA,NA,NA,NA,sub146
NA,mars-trial,134,325419,0.0-10.0-1.60,"""event"",""trial"",""time""
""fullscreenenter"",""0"",""4237""
","
","
","""event"",""trial"",""time""
""fullscreenenter"",""0"",""4237""
","
",3081,<img style='border: 4px solid darkgrey;' src='img/tf1_61_M_ss3.jpeg'></img>,1,NA,exp,NA,2,<img src='img/tf1_61_T1_ss3_md.jpeg'></img>,0,FALSE,NA,sub146
NA,html-keyboard-response,135,325921,0.0-10.0-0.61,"""event"",""trial"",""time""
""fullscreenenter"",""0"",""4237""
","
","
","""event"",""trial"",""time""
""fullscreenenter"",""0"",""4237""
","
",null,"<div style=""font-size:60px;"">+</div>",NA,null,fixation,2020-06-29T17:47:55Z,NA,NA,NA,NA,NA,sub146
NA,mars-trial,136,327889,0.0-10.0-1.61,"""event"",""trial"",""time""
""fullscreenenter"",""0"",""4237""
","
","
","""event"",""trial"",""time""
""fullscreenenter"",""0"",""4237""
","
",1364.0000000000582,<img style='border: 4px solid darkgrey;' src='img/tf1_62_M_ss1.jpeg'></img>,3,NA,exp,NA,0,<img src='img/tf1_62_T1_ss1_md.jpeg'></img>,0,TRUE,NA,sub146
NA,html-keyboard-response,137,328391,0.0-10.0-0.62,"""event"",""trial"",""time""
""fullscreenenter"",""0"",""4237""
","
","
","""event"",""trial"",""time""
""fullscreenenter"",""0"",""4237""
","
",null,"<div style=""font-size:60px;"">+</div>",NA,null,fixation,2020-06-29T17:47:57Z,NA,NA,NA,NA,NA,sub146
NA,mars-trial,138,334596,0.0-10.0-1.62,"""event"",""trial"",""time""
""fullscreenenter"",""0"",""4237""
","
","
","""event"",""trial"",""time""
""fullscreenenter"",""0"",""4237""
","
",5601,<img style='border: 4px solid darkgrey;' src='img/tf1_63_M_ss2.jpeg'></img>,2,NA,exp,NA,3,<img src='img/tf1_63_T1_ss2_md.jpeg'></img>,0,FALSE,NA,sub146
NA,html-keyboard-response,139,335098,0.0-10.0-0.63,"""event"",""trial"",""time""
""fullscreenenter"",""0"",""4237""
","
","
","""event"",""trial"",""time""
""fullscreenenter"",""0"",""4237""
","
",null,"<div style=""font-size:60px;"">+</div>",NA,null,fixation,2020-06-29T17:48:04Z,NA,NA,NA,NA,NA,sub146
NA,mars-trial,140,336347,0.0-10.0-1.63,"""event"",""trial"",""time""
""fullscreenenter"",""0"",""4237""
","
","
","""event"",""trial"",""time""
""fullscreenenter"",""0"",""4237""
","
",645,<img style='border: 4px solid darkgrey;' src='img/tf1_64_M_ss3.jpeg'></img>,3,NA,exp,NA,1,<img src='img/tf1_64_T1_ss3_md.jpeg'></img>,0,FALSE,NA,sub146
NA,html-keyboard-response,141,336849,0.0-10.0-0.64,"""event"",""trial"",""time""
""fullscreenenter"",""0"",""4237""
","
","
","""event"",""trial"",""time""
""fullscreenenter"",""0"",""4237""
","
",null,"<div style=""font-size:60px;"">+</div>",NA,null,fixation,2020-06-29T17:48:06Z,NA,NA,NA,NA,NA,sub146
NA,mars-trial,142,337905,0.0-10.0-1.64,"""event"",""trial"",""time""
""fullscreenenter"",""0"",""4237""
","
","
","""event"",""trial"",""time""
""fullscreenenter"",""0"",""4237""
","
",452,<img style='border: 4px solid darkgrey;' src='img/tf1_65_M_ss1.jpeg'></img>,0,NA,exp,NA,1,<img src='img/tf1_65_T1_ss1_md.jpeg'></img>,0,FALSE,NA,sub146
NA,html-keyboard-response,143,338407,0.0-10.0-0.65,"""event"",""trial"",""time""
""fullscreenenter"",""0"",""4237""
","
","
","""event"",""trial"",""time""
""fullscreenenter"",""0"",""4237""
","
",null,"<div style=""font-size:60px;"">+</div>",NA,null,fixation,2020-06-29T17:48:07Z,NA,NA,NA,NA,NA,sub146
NA,mars-trial,144,339401,0.0-10.0-1.65,"""event"",""trial"",""time""
""fullscreenenter"",""0"",""4237""
","
","
","""event"",""trial"",""time""
""fullscreenenter"",""0"",""4237""
","
",391,<img style='border: 4px solid darkgrey;' src='img/tf1_66_M_ss2.jpeg'></img>,2,NA,exp,NA,2,<img src='img/tf1_66_T1_ss2_md.jpeg'></img>,0,FALSE,NA,sub146
NA,html-keyboard-response,145,339902,0.0-10.0-0.66,"""event"",""trial"",""time""
""fullscreenenter"",""0"",""4237""
","
","
","""event"",""trial"",""time""
""fullscreenenter"",""0"",""4237""
","
",null,"<div style=""font-size:60px;"">+</div>",NA,null,fixation,2020-06-29T17:48:09Z,NA,NA,NA,NA,NA,sub146
NA,mars-trial,146,340911,0.0-10.0-1.66,"""event"",""trial"",""time""
""fullscreenenter"",""0"",""4237""
","
","
","""event"",""trial"",""time""
""fullscreenenter"",""0"",""4237""
","
",405,<img style='border: 4px solid darkgrey;' src='img/tf1_67_M_ss3.jpeg'></img>,1,NA,exp,NA,0,<img src='img/tf1_67_T1_ss3_md.jpeg'></img>,0,TRUE,NA,sub146
NA,html-keyboard-response,147,341413,0.0-10.0-0.67,"""event"",""trial"",""time""
""fullscreenenter"",""0"",""4237""
","
","
","""event"",""trial"",""time""
""fullscreenenter"",""0"",""4237""
","
",null,"<div style=""font-size:60px;"">+</div>",NA,null,fixation,2020-06-29T17:48:10Z,NA,NA,NA,NA,NA,sub146
NA,mars-trial,148,342471,0.0-10.0-1.67,"""event"",""trial"",""time""
""fullscreenenter"",""0"",""4237""
","
","
","""event"",""trial"",""time""
""fullscreenenter"",""0"",""4237""
","
",456,<img style='border: 4px solid darkgrey;' src='img/tf1_68_M_ss1.jpeg'></img>,2,NA,exp,NA,0,<img src='img/tf1_68_T1_ss1_md.jpeg'></img>,0,TRUE,NA,sub146
NA,html-keyboard-response,149,342973,0.0-10.0-0.68,"""event"",""trial"",""time""
""fullscreenenter"",""0"",""4237""
","
","
","""event"",""trial"",""time""
""fullscreenenter"",""0"",""4237""
","
",null,"<div style=""font-size:60px;"">+</div>",NA,null,fixation,2020-06-29T17:48:12Z,NA,NA,NA,NA,NA,sub146
NA,mars-trial,150,344989,0.0-10.0-1.68,"""event"",""trial"",""time""
""fullscreenenter"",""0"",""4237""
","
","
","""event"",""trial"",""time""
""fullscreenenter"",""0"",""4237""
","
",1411,<img style='border: 4px solid darkgrey;' src='img/tf1_69_M_ss2.jpeg'></img>,1,NA,exp,NA,2,<img src='img/tf1_69_T1_ss2_md.jpeg'></img>,0,FALSE,NA,sub146
NA,html-keyboard-response,151,345491,0.0-10.0-0.69,"""event"",""trial"",""time""
""fullscreenenter"",""0"",""4237""
","
","
","""event"",""trial"",""time""
""fullscreenenter"",""0"",""4237""
","
",null,"<div style=""font-size:60px;"">+</div>",NA,null,fixation,2020-06-29T17:48:14Z,NA,NA,NA,NA,NA,sub146
NA,mars-trial,152,346578,0.0-10.0-1.69,"""event"",""trial"",""time""
""fullscreenenter"",""0"",""4237""
","
","
","""event"",""trial"",""time""
""fullscreenenter"",""0"",""4237""
","
",483,<img style='border: 4px solid darkgrey;' src='img/tf1_70_M_ss3.jpeg'></img>,3,NA,exp,NA,0,<img src='img/tf1_70_T1_ss3_md.jpeg'></img>,0,TRUE,NA,sub146
NA,html-keyboard-response,153,347080,0.0-10.0-0.70,"""event"",""trial"",""time""
""fullscreenenter"",""0"",""4237""
","
","
","""event"",""trial"",""time""
""fullscreenenter"",""0"",""4237""
","
",null,"<div style=""font-size:60px;"">+</div>",NA,null,fixation,2020-06-29T17:48:16Z,NA,NA,NA,NA,NA,sub146
NA,mars-trial,154,348267,0.0-10.0-1.70,"""event"",""trial"",""time""
""fullscreenenter"",""0"",""4237""
","
","
","""event"",""trial"",""time""
""fullscreenenter"",""0"",""4237""
","
",583,<img style='border: 4px solid darkgrey;' src='img/tf1_71_M_ss1.jpeg'></img>,0,NA,exp,NA,3,<img src='img/tf1_71_T1_ss1_md.jpeg'></img>,0,FALSE,NA,sub146
NA,html-keyboard-response,155,348769,0.0-10.0-0.71,"""event"",""trial"",""time""
""fullscreenenter"",""0"",""4237""
","
","
","""event"",""trial"",""time""
""fullscreenenter"",""0"",""4237""
","
",null,"<div style=""font-size:60px;"">+</div>",NA,null,fixation,2020-06-29T17:48:17Z,NA,NA,NA,NA,NA,sub146
NA,mars-trial,156,349712,0.0-10.0-1.71,"""event"",""trial"",""time""
""fullscreenenter"",""0"",""4237""
","
","
","""event"",""trial"",""time""
""fullscreenenter"",""0"",""4237""
","
",339,<img style='border: 4px solid darkgrey;' src='img/tf1_72_M_ss2.jpeg'></img>,2,NA,exp,NA,1,<img src='img/tf1_72_T1_ss2_md.jpeg'></img>,0,FALSE,NA,sub146
NA,html-keyboard-response,157,350214,0.0-10.0-0.72,"""event"",""trial"",""time""
""fullscreenenter"",""0"",""4237""
","
","
","""event"",""trial"",""time""
""fullscreenenter"",""0"",""4237""
","
",null,"<div style=""font-size:60px;"">+</div>",NA,null,fixation,2020-06-29T17:48:19Z,NA,NA,NA,NA,NA,sub146
NA,mars-trial,158,351171,0.0-10.0-1.72,"""event"",""trial"",""time""
""fullscreenenter"",""0"",""4237""
","
","
","""event"",""trial"",""time""
""fullscreenenter"",""0"",""4237""
","
",351,<img style='border: 4px solid darkgrey;' src='img/tf1_73_M_ss3.jpeg'></img>,1,NA,exp,NA,2,<img src='img/tf1_73_T1_ss3_md.jpeg'></img>,0,FALSE,NA,sub146
NA,html-keyboard-response,159,351672,0.0-10.0-0.73,"""event"",""trial"",""time""
""fullscreenenter"",""0"",""4237""
","
","
","""event"",""trial"",""time""
""fullscreenenter"",""0"",""4237""
","
",null,"<div style=""font-size:60px;"">+</div>",NA,null,fixation,2020-06-29T17:48:20Z,NA,NA,NA,NA,NA,sub146
NA,mars-trial,160,352653,0.0-10.0-1.73,"""event"",""trial"",""time""
""fullscreenenter"",""0"",""4237""
","
","
","""event"",""trial"",""time""
""fullscreenenter"",""0"",""4237""
","
",377,<img style='border: 4px solid darkgrey;' src='img/tf1_74_M_ss1.jpeg'></img>,3,NA,exp,NA,3,<img src='img/tf1_74_T1_ss1_md.jpeg'></img>,0,FALSE,NA,sub146
NA,html-keyboard-response,161,353154,0.0-10.0-0.74,"""event"",""trial"",""time""
""fullscreenenter"",""0"",""4237""
","
","
","""event"",""trial"",""time""
""fullscreenenter"",""0"",""4237""
","
",null,"<div style=""font-size:60px;"">+</div>",NA,null,fixation,2020-06-29T17:48:22Z,NA,NA,NA,NA,NA,sub146
NA,mars-trial,162,354111,0.0-10.0-1.74,"""event"",""trial"",""time""
""fullscreenenter"",""0"",""4237""
","
","
","""event"",""trial"",""time""
""fullscreenenter"",""0"",""4237""
","
",352,<img style='border: 4px solid darkgrey;' src='img/tf1_75_M_ss2.jpeg'></img>,2,NA,exp,NA,3,<img src='img/tf1_75_T1_ss2_md.jpeg'></img>,0,FALSE,NA,sub146
NA,html-keyboard-response,163,354613,0.0-10.0-0.75,"""event"",""trial"",""time""
""fullscreenenter"",""0"",""4237""
","
","
","""event"",""trial"",""time""
""fullscreenenter"",""0"",""4237""
","
",null,"<div style=""font-size:60px;"">+</div>",NA,null,fixation,2020-06-29T17:48:23Z,NA,NA,NA,NA,NA,sub146
NA,mars-trial,164,355579,0.0-10.0-1.75,"""event"",""trial"",""time""
""fullscreenenter"",""0"",""4237""
","
","
","""event"",""trial"",""time""
""fullscreenenter"",""0"",""4237""
","
",363.9999999999418,<img style='border: 4px solid darkgrey;' src='img/tf1_76_M_ss3.jpeg'></img>,1,NA,exp,NA,2,<img src='img/tf1_76_T1_ss3_md.jpeg'></img>,0,FALSE,NA,sub146
NA,html-keyboard-response,165,356081,0.0-10.0-0.76,"""event"",""trial"",""time""
""fullscreenenter"",""0"",""4237""
","
","
","""event"",""trial"",""time""
""fullscreenenter"",""0"",""4237""
","
",null,"<div style=""font-size:60px;"">+</div>",NA,null,fixation,2020-06-29T17:48:25Z,NA,NA,NA,NA,NA,sub146
NA,mars-trial,166,357085,0.0-10.0-1.76,"""event"",""trial"",""time""
""fullscreenenter"",""0"",""4237""
","
","
","""event"",""trial"",""time""
""fullscreenenter"",""0"",""4237""
","
",401,<img style='border: 4px solid darkgrey;' src='img/tf1_77_M_ss1.jpeg'></img>,2,NA,exp,NA,2,<img src='img/tf1_77_T1_ss1_md.jpeg'></img>,0,FALSE,NA,sub146
NA,html-keyboard-response,167,357586,0.0-10.0-0.77,"""event"",""trial"",""time""
""fullscreenenter"",""0"",""4237""
","
","
","""event"",""trial"",""time""
""fullscreenenter"",""0"",""4237""
","
",null,"<div style=""font-size:60px;"">+</div>",NA,null,fixation,2020-06-29T17:48:26Z,NA,NA,NA,NA,NA,sub146
NA,mars-trial,168,358658,0.0-10.0-1.77,"""event"",""trial"",""time""
""fullscreenenter"",""0"",""4237""
","
","
","""event"",""trial"",""time""
""fullscreenenter"",""0"",""4237""
","
",468,<img style='border: 4px solid darkgrey;' src='img/tf1_78_M_ss2.jpeg'></img>,0,NA,exp,NA,3,<img src='img/tf1_78_T1_ss2_md.jpeg'></img>,0,FALSE,NA,sub146
NA,html-keyboard-response,169,359160,0.0-10.0-0.78,"""event"",""trial"",""time""
""fullscreenenter"",""0"",""4237""
","
","
","""event"",""trial"",""time""
""fullscreenenter"",""0"",""4237""
","
",null,"<div style=""font-size:60px;"">+</div>",NA,null,fixation,2020-06-29T17:48:28Z,NA,NA,NA,NA,NA,sub146
NA,mars-trial,170,360098,0.0-10.0-1.78,"""event"",""trial"",""time""
""fullscreenenter"",""0"",""4237""
","
","
","""event"",""trial"",""time""
""fullscreenenter"",""0"",""4237""
","
",335,<img style='border: 4px solid darkgrey;' src='img/tf1_79_M_ss3.jpeg'></img>,3,NA,exp,NA,3,<img src='img/tf1_79_T1_ss3_md.jpeg'></img>,0,FALSE,NA,sub146
NA,html-keyboard-response,171,360600,0.0-10.0-0.79,"""event"",""trial"",""time""
""fullscreenenter"",""0"",""4237""
","
","
","""event"",""trial"",""time""
""fullscreenenter"",""0"",""4237""
","
",null,"<div style=""font-size:60px;"">+</div>",NA,null,fixation,2020-06-29T17:48:29Z,NA,NA,NA,NA,NA,sub146
NA,mars-trial,172,361537,0.0-10.0-1.79,"""event"",""trial"",""time""
""fullscreenenter"",""0"",""4237""
","
","
","""event"",""trial"",""time""
""fullscreenenter"",""0"",""4237""
","
",332.9999999999418,<img style='border: 4px solid darkgrey;' src='img/tf1_80_M_ss1.jpeg'></img>,1,NA,exp,NA,3,<img src='img/tf1_80_T1_ss1_md.jpeg'></img>,0,FALSE,NA,sub146
NA,audio-button-response,173,365907,0.0-11.0,"""event"",""trial"",""time""
""fullscreenenter"",""0"",""4237""
","
","
","""event"",""trial"",""time""
""fullscreenenter"",""0"",""4237""
","
",4368,audio/mars_instructions_slide5.wav,0,NA,NA,NA,NA,NA,NA,NA,NA,sub146
