success,trial_type,trial_index,time_elapsed,internal_node_id,interactions,blur_events,focus_events,fullscreenenter_events,fullscreenexit_events,rt,stimulus,button_pressed,key_press,part,timestamp,unshuffled_button,correct_response,correct_button,correct,value,subject_id
TRUE,fullscreen,0,3319,0.0-0.0,"""event"",""trial"",""time""
""blur"",""0"",""0""
""focus"",""0"",""0""
""fullscreenenter"",""0"",""2351""
","""event"",""trial"",""time""
""blur"",""0"",""0""
","""event"",""trial"",""time""
""focus"",""0"",""0""
","""event"",""trial"",""time""
""fullscreenenter"",""0"",""2351""
","
",NA,NA,NA,NA,NA,NA,NA,NA,NA,NA,NA,sub103
NA,pavlovia,1,3331,0.0-1.0,"""event"",""trial"",""time""
""blur"",""0"",""0""
""focus"",""0"",""0""
""fullscreenenter"",""0"",""2351""
","""event"",""trial"",""time""
""blur"",""0"",""0""
","""event"",""trial"",""time""
""focus"",""0"",""0""
","""event"",""trial"",""time""
""fullscreenenter"",""0"",""2351""
","
",NA,NA,NA,NA,NA,NA,NA,NA,NA,NA,NA,sub103
NA,html-button-response,2,4748,0.0-2.0,"""event"",""trial"",""time""
""blur"",""0"",""0""
""focus"",""0"",""0""
""fullscreenenter"",""0"",""2351""
""fullscreenexit"",""3"",""13332""
""blur"",""3"",""16386""
""focus"",""3"",""21270""
","""event"",""trial"",""time""
""blur"",""0"",""0""
""blur"",""3"",""16386""
","""event"",""trial"",""time""
""focus"",""0"",""0""
""focus"",""3"",""21270""
","""event"",""trial"",""time""
""fullscreenenter"",""0"",""2351""
","""event"",""trial"",""time""
""fullscreenexit"",""3"",""13332""
",1414.1700000000128,<p>Welcome! Press START to begin.</p><br>,0,NA,NA,NA,NA,NA,NA,NA,NA,sub103
NA,audio-button-response,3,23617,0.0-3.0,"""event"",""trial"",""time""
""blur"",""0"",""0""
""focus"",""0"",""0""
""fullscreenenter"",""0"",""2351""
""fullscreenexit"",""3"",""13332""
""blur"",""3"",""16386""
""focus"",""3"",""21270""
","""event"",""trial"",""time""
""blur"",""0"",""0""
""blur"",""3"",""16386""
","""event"",""trial"",""time""
""focus"",""0"",""0""
""focus"",""3"",""21270""
","""event"",""trial"",""time""
""fullscreenenter"",""0"",""2351""
","""event"",""trial"",""time""
""fullscreenexit"",""3"",""13332""
",18865.33000000009,audio/mars_instructions_slide2.wav,0,NA,NA,NA,NA,NA,NA,NA,NA,sub103
NA,audio-button-response,4,41065,0.0-4.0,"""event"",""trial"",""time""
""blur"",""0"",""0""
""focus"",""0"",""0""
""fullscreenenter"",""0"",""2351""
""fullscreenexit"",""3"",""13332""
""blur"",""3"",""16386""
""focus"",""3"",""21270""
","""event"",""trial"",""time""
""blur"",""0"",""0""
""blur"",""3"",""16386""
","""event"",""trial"",""time""
""focus"",""0"",""0""
""focus"",""3"",""21270""
","""event"",""trial"",""time""
""fullscreenenter"",""0"",""2351""
","""event"",""trial"",""time""
""fullscreenexit"",""3"",""13332""
",17445.049999999814,audio/mars_instructions_slide3.wav,0,NA,NA,NA,NA,NA,NA,NA,NA,sub103
NA,html-keyboard-response,5,41574,0.0-5.0-0.0,"""event"",""trial"",""time""
""blur"",""0"",""0""
""focus"",""0"",""0""
""fullscreenenter"",""0"",""2351""
""fullscreenexit"",""3"",""13332""
""blur"",""3"",""16386""
""focus"",""3"",""21270""
","""event"",""trial"",""time""
""blur"",""0"",""0""
""blur"",""3"",""16386""
","""event"",""trial"",""time""
""focus"",""0"",""0""
""focus"",""3"",""21270""
","""event"",""trial"",""time""
""fullscreenenter"",""0"",""2351""
","""event"",""trial"",""time""
""fullscreenexit"",""3"",""13332""
",null,"<div style=""font-size:60px;"">+</div>",NA,null,fixation,2020-06-21T01:13:28Z,NA,NA,NA,NA,NA,sub103
NA,mars-trial,6,50884,0.0-5.0-1.0,"""event"",""trial"",""time""
""blur"",""0"",""0""
""focus"",""0"",""0""
""fullscreenenter"",""0"",""2351""
""fullscreenexit"",""3"",""13332""
""blur"",""3"",""16386""
""focus"",""3"",""21270""
","""event"",""trial"",""time""
""blur"",""0"",""0""
""blur"",""3"",""16386""
","""event"",""trial"",""time""
""focus"",""0"",""0""
""focus"",""3"",""21270""
","""event"",""trial"",""time""
""fullscreenenter"",""0"",""2351""
","""event"",""trial"",""time""
""fullscreenexit"",""3"",""13332""
",7191.454999999682,<img style='border: 4px solid darkgrey;' src='practice/pt1_M1.png'></img>,0,NA,practice,NA,0,<img src='practice/pt1_T1.png'></img>,0,TRUE,NA,sub103
NA,html-keyboard-response,7,51393,0.0-6.0-0.0,"""event"",""trial"",""time""
""blur"",""0"",""0""
""focus"",""0"",""0""
""fullscreenenter"",""0"",""2351""
""fullscreenexit"",""3"",""13332""
""blur"",""3"",""16386""
""focus"",""3"",""21270""
","""event"",""trial"",""time""
""blur"",""0"",""0""
""blur"",""3"",""16386""
","""event"",""trial"",""time""
""focus"",""0"",""0""
""focus"",""3"",""21270""
","""event"",""trial"",""time""
""fullscreenenter"",""0"",""2351""
","""event"",""trial"",""time""
""fullscreenexit"",""3"",""13332""
",null,"<div style=""font-size:60px;"">+</div>",NA,null,fixation,2020-06-21T01:13:38Z,NA,NA,NA,NA,NA,sub103
NA,mars-trial,8,56784,0.0-6.0-1.0,"""event"",""trial"",""time""
""blur"",""0"",""0""
""focus"",""0"",""0""
""fullscreenenter"",""0"",""2351""
""fullscreenexit"",""3"",""13332""
""blur"",""3"",""16386""
""focus"",""3"",""21270""
","""event"",""trial"",""time""
""blur"",""0"",""0""
""blur"",""3"",""16386""
","""event"",""trial"",""time""
""focus"",""0"",""0""
""focus"",""3"",""21270""
","""event"",""trial"",""time""
""fullscreenenter"",""0"",""2351""
","""event"",""trial"",""time""
""fullscreenexit"",""3"",""13332""
",3279.8150000003225,<img style='border: 4px solid darkgrey;' src='practice/pt2_M1.png'></img>,0,NA,practice,NA,0,<img src='practice/pt2_T1.png'></img>,0,TRUE,NA,sub103
NA,html-keyboard-response,9,57293,0.0-7.0-0.0,"""event"",""trial"",""time""
""blur"",""0"",""0""
""focus"",""0"",""0""
""fullscreenenter"",""0"",""2351""
""fullscreenexit"",""3"",""13332""
""blur"",""3"",""16386""
""focus"",""3"",""21270""
","""event"",""trial"",""time""
""blur"",""0"",""0""
""blur"",""3"",""16386""
","""event"",""trial"",""time""
""focus"",""0"",""0""
""focus"",""3"",""21270""
","""event"",""trial"",""time""
""fullscreenenter"",""0"",""2351""
","""event"",""trial"",""time""
""fullscreenexit"",""3"",""13332""
",null,"<div style=""font-size:60px;"">+</div>",NA,null,fixation,2020-06-21T01:13:44Z,NA,NA,NA,NA,NA,sub103
NA,mars-trial,10,60974,0.0-7.0-1.0,"""event"",""trial"",""time""
""blur"",""0"",""0""
""focus"",""0"",""0""
""fullscreenenter"",""0"",""2351""
""fullscreenexit"",""3"",""13332""
""blur"",""3"",""16386""
""focus"",""3"",""21270""
","""event"",""trial"",""time""
""blur"",""0"",""0""
""blur"",""3"",""16386""
","""event"",""trial"",""time""
""focus"",""0"",""0""
""focus"",""3"",""21270""
","""event"",""trial"",""time""
""fullscreenenter"",""0"",""2351""
","""event"",""trial"",""time""
""fullscreenexit"",""3"",""13332""
",1560.4149999999208,<img style='border: 4px solid darkgrey;' src='practice/pt3_M1.png'></img>,1,NA,practice,NA,0,<img src='practice/pt3_T1.png'></img>,0,TRUE,NA,sub103
NA,audio-button-response,11,63871,0.0-8.0,"""event"",""trial"",""time""
""blur"",""0"",""0""
""focus"",""0"",""0""
""fullscreenenter"",""0"",""2351""
""fullscreenexit"",""3"",""13332""
""blur"",""3"",""16386""
""focus"",""3"",""21270""
","""event"",""trial"",""time""
""blur"",""0"",""0""
""blur"",""3"",""16386""
","""event"",""trial"",""time""
""focus"",""0"",""0""
""focus"",""3"",""21270""
","""event"",""trial"",""time""
""fullscreenenter"",""0"",""2351""
","""event"",""trial"",""time""
""fullscreenexit"",""3"",""13332""
",2892.649999999776,audio/mars_instructions_slide4.wav,0,NA,NA,NA,NA,NA,NA,NA,NA,sub103
NA,call-function,12,63872,0.0-9.0,"""event"",""trial"",""time""
""blur"",""0"",""0""
""focus"",""0"",""0""
""fullscreenenter"",""0"",""2351""
""fullscreenexit"",""3"",""13332""
""blur"",""3"",""16386""
""focus"",""3"",""21270""
","""event"",""trial"",""time""
""blur"",""0"",""0""
""blur"",""3"",""16386""
","""event"",""trial"",""time""
""focus"",""0"",""0""
""focus"",""3"",""21270""
","""event"",""trial"",""time""
""fullscreenenter"",""0"",""2351""
","""event"",""trial"",""time""
""fullscreenexit"",""3"",""13332""
",NA,NA,NA,NA,NA,NA,NA,NA,NA,NA,NA,sub103
NA,html-keyboard-response,13,64375,0.0-10.0-0.0,"""event"",""trial"",""time""
""blur"",""0"",""0""
""focus"",""0"",""0""
""fullscreenenter"",""0"",""2351""
""fullscreenexit"",""3"",""13332""
""blur"",""3"",""16386""
""focus"",""3"",""21270""
","""event"",""trial"",""time""
""blur"",""0"",""0""
""blur"",""3"",""16386""
","""event"",""trial"",""time""
""focus"",""0"",""0""
""focus"",""3"",""21270""
","""event"",""trial"",""time""
""fullscreenenter"",""0"",""2351""
","""event"",""trial"",""time""
""fullscreenexit"",""3"",""13332""
",null,"<div style=""font-size:60px;"">+</div>",NA,null,fixation,2020-06-21T01:13:51Z,NA,NA,NA,NA,NA,sub103
NA,mars-trial,14,66973,0.0-10.0-1.0,"""event"",""trial"",""time""
""blur"",""0"",""0""
""focus"",""0"",""0""
""fullscreenenter"",""0"",""2351""
""fullscreenexit"",""3"",""13332""
""blur"",""3"",""16386""
""focus"",""3"",""21270""
","""event"",""trial"",""time""
""blur"",""0"",""0""
""blur"",""3"",""16386""
","""event"",""trial"",""time""
""focus"",""0"",""0""
""focus"",""3"",""21270""
","""event"",""trial"",""time""
""fullscreenenter"",""0"",""2351""
","""event"",""trial"",""time""
""fullscreenexit"",""3"",""13332""
",1977.5700000000215,<img style='border: 4px solid darkgrey;' src='img/tf1_1_M_ss3.jpeg'></img>,3,NA,exp,NA,0,<img src='img/tf1_1_T1_ss3_md.jpeg'></img>,0,TRUE,NA,sub103
NA,html-keyboard-response,15,67480,0.0-10.0-0.1,"""event"",""trial"",""time""
""blur"",""0"",""0""
""focus"",""0"",""0""
""fullscreenenter"",""0"",""2351""
""fullscreenexit"",""3"",""13332""
""blur"",""3"",""16386""
""focus"",""3"",""21270""
","""event"",""trial"",""time""
""blur"",""0"",""0""
""blur"",""3"",""16386""
","""event"",""trial"",""time""
""focus"",""0"",""0""
""focus"",""3"",""21270""
","""event"",""trial"",""time""
""fullscreenenter"",""0"",""2351""
","""event"",""trial"",""time""
""fullscreenexit"",""3"",""13332""
",null,"<div style=""font-size:60px;"">+</div>",NA,null,fixation,2020-06-21T01:13:54Z,NA,NA,NA,NA,NA,sub103
NA,mars-trial,16,71073,0.0-10.0-1.1,"""event"",""trial"",""time""
""blur"",""0"",""0""
""focus"",""0"",""0""
""fullscreenenter"",""0"",""2351""
""fullscreenexit"",""3"",""13332""
""blur"",""3"",""16386""
""focus"",""3"",""21270""
","""event"",""trial"",""time""
""blur"",""0"",""0""
""blur"",""3"",""16386""
","""event"",""trial"",""time""
""focus"",""0"",""0""
""focus"",""3"",""21270""
","""event"",""trial"",""time""
""fullscreenenter"",""0"",""2351""
","""event"",""trial"",""time""
""fullscreenexit"",""3"",""13332""
",2979.4550000001327,<img style='border: 4px solid darkgrey;' src='img/tf1_2_M_ss1.jpeg'></img>,0,NA,exp,NA,0,<img src='img/tf1_2_T1_ss1_md.jpeg'></img>,0,TRUE,NA,sub103
NA,html-keyboard-response,17,71582,0.0-10.0-0.2,"""event"",""trial"",""time""
""blur"",""0"",""0""
""focus"",""0"",""0""
""fullscreenenter"",""0"",""2351""
""fullscreenexit"",""3"",""13332""
""blur"",""3"",""16386""
""focus"",""3"",""21270""
","""event"",""trial"",""time""
""blur"",""0"",""0""
""blur"",""3"",""16386""
","""event"",""trial"",""time""
""focus"",""0"",""0""
""focus"",""3"",""21270""
","""event"",""trial"",""time""
""fullscreenenter"",""0"",""2351""
","""event"",""trial"",""time""
""fullscreenexit"",""3"",""13332""
",null,"<div style=""font-size:60px;"">+</div>",NA,null,fixation,2020-06-21T01:13:58Z,NA,NA,NA,NA,NA,sub103
NA,mars-trial,18,74790,0.0-10.0-1.2,"""event"",""trial"",""time""
""blur"",""0"",""0""
""focus"",""0"",""0""
""fullscreenenter"",""0"",""2351""
""fullscreenexit"",""3"",""13332""
""blur"",""3"",""16386""
""focus"",""3"",""21270""
","""event"",""trial"",""time""
""blur"",""0"",""0""
""blur"",""3"",""16386""
","""event"",""trial"",""time""
""focus"",""0"",""0""
""focus"",""3"",""21270""
","""event"",""trial"",""time""
""fullscreenenter"",""0"",""2351""
","""event"",""trial"",""time""
""fullscreenexit"",""3"",""13332""
",2596.0049999998882,<img style='border: 4px solid darkgrey;' src='img/tf1_3_M_ss2.jpeg'></img>,0,NA,exp,NA,0,<img src='img/tf1_3_T1_ss2_md.jpeg'></img>,0,TRUE,NA,sub103
NA,html-keyboard-response,19,75298,0.0-10.0-0.3,"""event"",""trial"",""time""
""blur"",""0"",""0""
""focus"",""0"",""0""
""fullscreenenter"",""0"",""2351""
""fullscreenexit"",""3"",""13332""
""blur"",""3"",""16386""
""focus"",""3"",""21270""
","""event"",""trial"",""time""
""blur"",""0"",""0""
""blur"",""3"",""16386""
","""event"",""trial"",""time""
""focus"",""0"",""0""
""focus"",""3"",""21270""
","""event"",""trial"",""time""
""fullscreenenter"",""0"",""2351""
","""event"",""trial"",""time""
""fullscreenexit"",""3"",""13332""
",null,"<div style=""font-size:60px;"">+</div>",NA,null,fixation,2020-06-21T01:14:02Z,NA,NA,NA,NA,NA,sub103
NA,mars-trial,20,78389,0.0-10.0-1.3,"""event"",""trial"",""time""
""blur"",""0"",""0""
""focus"",""0"",""0""
""fullscreenenter"",""0"",""2351""
""fullscreenexit"",""3"",""13332""
""blur"",""3"",""16386""
""focus"",""3"",""21270""
","""event"",""trial"",""time""
""blur"",""0"",""0""
""blur"",""3"",""16386""
","""event"",""trial"",""time""
""focus"",""0"",""0""
""focus"",""3"",""21270""
","""event"",""trial"",""time""
""fullscreenenter"",""0"",""2351""
","""event"",""trial"",""time""
""fullscreenexit"",""3"",""13332""
",2476.2500000001746,<img style='border: 4px solid darkgrey;' src='img/tf1_4_M_ss3.jpeg'></img>,3,NA,exp,NA,0,<img src='img/tf1_4_T1_ss3_md.jpeg'></img>,0,TRUE,NA,sub103
NA,html-keyboard-response,21,78893,0.0-10.0-0.4,"""event"",""trial"",""time""
""blur"",""0"",""0""
""focus"",""0"",""0""
""fullscreenenter"",""0"",""2351""
""fullscreenexit"",""3"",""13332""
""blur"",""3"",""16386""
""focus"",""3"",""21270""
","""event"",""trial"",""time""
""blur"",""0"",""0""
""blur"",""3"",""16386""
","""event"",""trial"",""time""
""focus"",""0"",""0""
""focus"",""3"",""21270""
","""event"",""trial"",""time""
""fullscreenenter"",""0"",""2351""
","""event"",""trial"",""time""
""fullscreenexit"",""3"",""13332""
",null,"<div style=""font-size:60px;"">+</div>",NA,null,fixation,2020-06-21T01:14:05Z,NA,NA,NA,NA,NA,sub103
NA,mars-trial,22,81350,0.0-10.0-1.4,"""event"",""trial"",""time""
""blur"",""0"",""0""
""focus"",""0"",""0""
""fullscreenenter"",""0"",""2351""
""fullscreenexit"",""3"",""13332""
""blur"",""3"",""16386""
""focus"",""3"",""21270""
","""event"",""trial"",""time""
""blur"",""0"",""0""
""blur"",""3"",""16386""
","""event"",""trial"",""time""
""focus"",""0"",""0""
""focus"",""3"",""21270""
","""event"",""trial"",""time""
""fullscreenenter"",""0"",""2351""
","""event"",""trial"",""time""
""fullscreenexit"",""3"",""13332""
",1840.8000000003958,<img style='border: 4px solid darkgrey;' src='img/tf1_5_M_ss1.jpeg'></img>,1,NA,exp,NA,0,<img src='img/tf1_5_T1_ss1_md.jpeg'></img>,0,TRUE,NA,sub103
NA,html-keyboard-response,23,81853,0.0-10.0-0.5,"""event"",""trial"",""time""
""blur"",""0"",""0""
""focus"",""0"",""0""
""fullscreenenter"",""0"",""2351""
""fullscreenexit"",""3"",""13332""
""blur"",""3"",""16386""
""focus"",""3"",""21270""
","""event"",""trial"",""time""
""blur"",""0"",""0""
""blur"",""3"",""16386""
","""event"",""trial"",""time""
""focus"",""0"",""0""
""focus"",""3"",""21270""
","""event"",""trial"",""time""
""fullscreenenter"",""0"",""2351""
","""event"",""trial"",""time""
""fullscreenexit"",""3"",""13332""
",null,"<div style=""font-size:60px;"">+</div>",NA,null,fixation,2020-06-21T01:14:08Z,NA,NA,NA,NA,NA,sub103
NA,mars-trial,24,97563,0.0-10.0-1.5,"""event"",""trial"",""time""
""blur"",""0"",""0""
""focus"",""0"",""0""
""fullscreenenter"",""0"",""2351""
""fullscreenexit"",""3"",""13332""
""blur"",""3"",""16386""
""focus"",""3"",""21270""
","""event"",""trial"",""time""
""blur"",""0"",""0""
""blur"",""3"",""16386""
","""event"",""trial"",""time""
""focus"",""0"",""0""
""focus"",""3"",""21270""
","""event"",""trial"",""time""
""fullscreenenter"",""0"",""2351""
","""event"",""trial"",""time""
""fullscreenexit"",""3"",""13332""
",15099.954999999682,<img style='border: 4px solid darkgrey;' src='img/tf1_6_M_ss2.jpeg'></img>,3,NA,exp,NA,2,<img src='img/tf1_6_T1_ss2_md.jpeg'></img>,0,FALSE,NA,sub103
NA,html-keyboard-response,25,98069,0.0-10.0-0.6,"""event"",""trial"",""time""
""blur"",""0"",""0""
""focus"",""0"",""0""
""fullscreenenter"",""0"",""2351""
""fullscreenexit"",""3"",""13332""
""blur"",""3"",""16386""
""focus"",""3"",""21270""
","""event"",""trial"",""time""
""blur"",""0"",""0""
""blur"",""3"",""16386""
","""event"",""trial"",""time""
""focus"",""0"",""0""
""focus"",""3"",""21270""
","""event"",""trial"",""time""
""fullscreenenter"",""0"",""2351""
","""event"",""trial"",""time""
""fullscreenexit"",""3"",""13332""
",null,"<div style=""font-size:60px;"">+</div>",NA,null,fixation,2020-06-21T01:14:24Z,NA,NA,NA,NA,NA,sub103
NA,mars-trial,26,102443,0.0-10.0-1.6,"""event"",""trial"",""time""
""blur"",""0"",""0""
""focus"",""0"",""0""
""fullscreenenter"",""0"",""2351""
""fullscreenexit"",""3"",""13332""
""blur"",""3"",""16386""
""focus"",""3"",""21270""
","""event"",""trial"",""time""
""blur"",""0"",""0""
""blur"",""3"",""16386""
","""event"",""trial"",""time""
""focus"",""0"",""0""
""focus"",""3"",""21270""
","""event"",""trial"",""time""
""fullscreenenter"",""0"",""2351""
","""event"",""trial"",""time""
""fullscreenexit"",""3"",""13332""
",3767.4350000002014,<img style='border: 4px solid darkgrey;' src='img/tf1_7_M_ss3.jpeg'></img>,0,NA,exp,NA,0,<img src='img/tf1_7_T1_ss3_md.jpeg'></img>,0,TRUE,NA,sub103
NA,html-keyboard-response,27,102952,0.0-10.0-0.7,"""event"",""trial"",""time""
""blur"",""0"",""0""
""focus"",""0"",""0""
""fullscreenenter"",""0"",""2351""
""fullscreenexit"",""3"",""13332""
""blur"",""3"",""16386""
""focus"",""3"",""21270""
","""event"",""trial"",""time""
""blur"",""0"",""0""
""blur"",""3"",""16386""
","""event"",""trial"",""time""
""focus"",""0"",""0""
""focus"",""3"",""21270""
","""event"",""trial"",""time""
""fullscreenenter"",""0"",""2351""
","""event"",""trial"",""time""
""fullscreenexit"",""3"",""13332""
",null,"<div style=""font-size:60px;"">+</div>",NA,null,fixation,2020-06-21T01:14:29Z,NA,NA,NA,NA,NA,sub103
NA,mars-trial,28,125077,0.0-10.0-1.7,"""event"",""trial"",""time""
""blur"",""0"",""0""
""focus"",""0"",""0""
""fullscreenenter"",""0"",""2351""
""fullscreenexit"",""3"",""13332""
""blur"",""3"",""16386""
""focus"",""3"",""21270""
","""event"",""trial"",""time""
""blur"",""0"",""0""
""blur"",""3"",""16386""
","""event"",""trial"",""time""
""focus"",""0"",""0""
""focus"",""3"",""21270""
","""event"",""trial"",""time""
""fullscreenenter"",""0"",""2351""
","""event"",""trial"",""time""
""fullscreenexit"",""3"",""13332""
",21504.47000000032,<img style='border: 4px solid darkgrey;' src='img/tf1_8_M_ss1.jpeg'></img>,1,NA,exp,NA,3,<img src='img/tf1_8_T1_ss1_md.jpeg'></img>,0,FALSE,NA,sub103
NA,html-keyboard-response,29,125582,0.0-10.0-0.8,"""event"",""trial"",""time""
""blur"",""0"",""0""
""focus"",""0"",""0""
""fullscreenenter"",""0"",""2351""
""fullscreenexit"",""3"",""13332""
""blur"",""3"",""16386""
""focus"",""3"",""21270""
","""event"",""trial"",""time""
""blur"",""0"",""0""
""blur"",""3"",""16386""
","""event"",""trial"",""time""
""focus"",""0"",""0""
""focus"",""3"",""21270""
","""event"",""trial"",""time""
""fullscreenenter"",""0"",""2351""
","""event"",""trial"",""time""
""fullscreenexit"",""3"",""13332""
",null,"<div style=""font-size:60px;"">+</div>",NA,null,fixation,2020-06-21T01:14:52Z,NA,NA,NA,NA,NA,sub103
NA,mars-trial,30,131677,0.0-10.0-1.8,"""event"",""trial"",""time""
""blur"",""0"",""0""
""focus"",""0"",""0""
""fullscreenenter"",""0"",""2351""
""fullscreenexit"",""3"",""13332""
""blur"",""3"",""16386""
""focus"",""3"",""21270""
","""event"",""trial"",""time""
""blur"",""0"",""0""
""blur"",""3"",""16386""
","""event"",""trial"",""time""
""focus"",""0"",""0""
""focus"",""3"",""21270""
","""event"",""trial"",""time""
""fullscreenenter"",""0"",""2351""
","""event"",""trial"",""time""
""fullscreenexit"",""3"",""13332""
",5476.895000000222,<img style='border: 4px solid darkgrey;' src='img/tf1_9_M_ss2.jpeg'></img>,3,NA,exp,NA,0,<img src='img/tf1_9_T1_ss2_md.jpeg'></img>,0,TRUE,NA,sub103
NA,html-keyboard-response,31,132182,0.0-10.0-0.9,"""event"",""trial"",""time""
""blur"",""0"",""0""
""focus"",""0"",""0""
""fullscreenenter"",""0"",""2351""
""fullscreenexit"",""3"",""13332""
""blur"",""3"",""16386""
""focus"",""3"",""21270""
","""event"",""trial"",""time""
""blur"",""0"",""0""
""blur"",""3"",""16386""
","""event"",""trial"",""time""
""focus"",""0"",""0""
""focus"",""3"",""21270""
","""event"",""trial"",""time""
""fullscreenenter"",""0"",""2351""
","""event"",""trial"",""time""
""fullscreenexit"",""3"",""13332""
",null,"<div style=""font-size:60px;"">+</div>",NA,null,fixation,2020-06-21T01:14:59Z,NA,NA,NA,NA,NA,sub103
NA,mars-trial,32,148021,0.0-10.0-1.9,"""event"",""trial"",""time""
""blur"",""0"",""0""
""focus"",""0"",""0""
""fullscreenenter"",""0"",""2351""
""fullscreenexit"",""3"",""13332""
""blur"",""3"",""16386""
""focus"",""3"",""21270""
","""event"",""trial"",""time""
""blur"",""0"",""0""
""blur"",""3"",""16386""
","""event"",""trial"",""time""
""focus"",""0"",""0""
""focus"",""3"",""21270""
","""event"",""trial"",""time""
""fullscreenenter"",""0"",""2351""
","""event"",""trial"",""time""
""fullscreenexit"",""3"",""13332""
",15213.269999999757,<img style='border: 4px solid darkgrey;' src='img/tf1_10_M_ss3.jpeg'></img>,0,NA,exp,NA,1,<img src='img/tf1_10_T1_ss3_md.jpeg'></img>,0,FALSE,NA,sub103
NA,html-keyboard-response,33,148528,0.0-10.0-0.10,"""event"",""trial"",""time""
""blur"",""0"",""0""
""focus"",""0"",""0""
""fullscreenenter"",""0"",""2351""
""fullscreenexit"",""3"",""13332""
""blur"",""3"",""16386""
""focus"",""3"",""21270""
","""event"",""trial"",""time""
""blur"",""0"",""0""
""blur"",""3"",""16386""
","""event"",""trial"",""time""
""focus"",""0"",""0""
""focus"",""3"",""21270""
","""event"",""trial"",""time""
""fullscreenenter"",""0"",""2351""
","""event"",""trial"",""time""
""fullscreenexit"",""3"",""13332""
",null,"<div style=""font-size:60px;"">+</div>",NA,null,fixation,2020-06-21T01:15:15Z,NA,NA,NA,NA,NA,sub103
NA,mars-trial,34,159037,0.0-10.0-1.10,"""event"",""trial"",""time""
""blur"",""0"",""0""
""focus"",""0"",""0""
""fullscreenenter"",""0"",""2351""
""fullscreenexit"",""3"",""13332""
""blur"",""3"",""16386""
""focus"",""3"",""21270""
","""event"",""trial"",""time""
""blur"",""0"",""0""
""blur"",""3"",""16386""
","""event"",""trial"",""time""
""focus"",""0"",""0""
""focus"",""3"",""21270""
","""event"",""trial"",""time""
""fullscreenenter"",""0"",""2351""
","""event"",""trial"",""time""
""fullscreenexit"",""3"",""13332""
",9890.774999999849,<img style='border: 4px solid darkgrey;' src='img/tf1_11_M_ss1.jpeg'></img>,3,NA,exp,NA,1,<img src='img/tf1_11_T1_ss1_md.jpeg'></img>,0,FALSE,NA,sub103
NA,html-keyboard-response,35,159542,0.0-10.0-0.11,"""event"",""trial"",""time""
""blur"",""0"",""0""
""focus"",""0"",""0""
""fullscreenenter"",""0"",""2351""
""fullscreenexit"",""3"",""13332""
""blur"",""3"",""16386""
""focus"",""3"",""21270""
","""event"",""trial"",""time""
""blur"",""0"",""0""
""blur"",""3"",""16386""
","""event"",""trial"",""time""
""focus"",""0"",""0""
""focus"",""3"",""21270""
","""event"",""trial"",""time""
""fullscreenenter"",""0"",""2351""
","""event"",""trial"",""time""
""fullscreenexit"",""3"",""13332""
",null,"<div style=""font-size:60px;"">+</div>",NA,null,fixation,2020-06-21T01:15:26Z,NA,NA,NA,NA,NA,sub103
NA,mars-trial,36,179745,0.0-10.0-1.11,"""event"",""trial"",""time""
""blur"",""0"",""0""
""focus"",""0"",""0""
""fullscreenenter"",""0"",""2351""
""fullscreenexit"",""3"",""13332""
""blur"",""3"",""16386""
""focus"",""3"",""21270""
","""event"",""trial"",""time""
""blur"",""0"",""0""
""blur"",""3"",""16386""
","""event"",""trial"",""time""
""focus"",""0"",""0""
""focus"",""3"",""21270""
","""event"",""trial"",""time""
""fullscreenenter"",""0"",""2351""
","""event"",""trial"",""time""
""fullscreenexit"",""3"",""13332""
",19585.050000000163,<img style='border: 4px solid darkgrey;' src='img/tf1_12_M_ss2.jpeg'></img>,1,NA,exp,NA,2,<img src='img/tf1_12_T1_ss2_md.jpeg'></img>,0,FALSE,NA,sub103
NA,html-keyboard-response,37,180254,0.0-10.0-0.12,"""event"",""trial"",""time""
""blur"",""0"",""0""
""focus"",""0"",""0""
""fullscreenenter"",""0"",""2351""
""fullscreenexit"",""3"",""13332""
""blur"",""3"",""16386""
""focus"",""3"",""21270""
","""event"",""trial"",""time""
""blur"",""0"",""0""
""blur"",""3"",""16386""
","""event"",""trial"",""time""
""focus"",""0"",""0""
""focus"",""3"",""21270""
","""event"",""trial"",""time""
""fullscreenenter"",""0"",""2351""
","""event"",""trial"",""time""
""fullscreenexit"",""3"",""13332""
",null,"<div style=""font-size:60px;"">+</div>",NA,null,fixation,2020-06-21T01:15:47Z,NA,NA,NA,NA,NA,sub103
NA,mars-trial,38,184715,0.0-10.0-1.12,"""event"",""trial"",""time""
""blur"",""0"",""0""
""focus"",""0"",""0""
""fullscreenenter"",""0"",""2351""
""fullscreenexit"",""3"",""13332""
""blur"",""3"",""16386""
""focus"",""3"",""21270""
","""event"",""trial"",""time""
""blur"",""0"",""0""
""blur"",""3"",""16386""
","""event"",""trial"",""time""
""focus"",""0"",""0""
""focus"",""3"",""21270""
","""event"",""trial"",""time""
""fullscreenenter"",""0"",""2351""
","""event"",""trial"",""time""
""fullscreenexit"",""3"",""13332""
",3846.3750000000873,<img style='border: 4px solid darkgrey;' src='img/tf1_13_M_ss3.jpeg'></img>,1,NA,exp,NA,2,<img src='img/tf1_13_T1_ss3_md.jpeg'></img>,0,FALSE,NA,sub103
NA,html-keyboard-response,39,185222,0.0-10.0-0.13,"""event"",""trial"",""time""
""blur"",""0"",""0""
""focus"",""0"",""0""
""fullscreenenter"",""0"",""2351""
""fullscreenexit"",""3"",""13332""
""blur"",""3"",""16386""
""focus"",""3"",""21270""
","""event"",""trial"",""time""
""blur"",""0"",""0""
""blur"",""3"",""16386""
","""event"",""trial"",""time""
""focus"",""0"",""0""
""focus"",""3"",""21270""
","""event"",""trial"",""time""
""fullscreenenter"",""0"",""2351""
","""event"",""trial"",""time""
""fullscreenexit"",""3"",""13332""
",null,"<div style=""font-size:60px;"">+</div>",NA,null,fixation,2020-06-21T01:15:52Z,NA,NA,NA,NA,NA,sub103
NA,mars-trial,40,193637,0.0-10.0-1.13,"""event"",""trial"",""time""
""blur"",""0"",""0""
""focus"",""0"",""0""
""fullscreenenter"",""0"",""2351""
""fullscreenexit"",""3"",""13332""
""blur"",""3"",""16386""
""focus"",""3"",""21270""
","""event"",""trial"",""time""
""blur"",""0"",""0""
""blur"",""3"",""16386""
","""event"",""trial"",""time""
""focus"",""0"",""0""
""focus"",""3"",""21270""
","""event"",""trial"",""time""
""fullscreenenter"",""0"",""2351""
","""event"",""trial"",""time""
""fullscreenexit"",""3"",""13332""
",7796.670000000187,<img style='border: 4px solid darkgrey;' src='img/tf1_14_M_ss1.jpeg'></img>,2,NA,exp,NA,1,<img src='img/tf1_14_T1_ss1_md.jpeg'></img>,0,FALSE,NA,sub103
NA,html-keyboard-response,41,194144,0.0-10.0-0.14,"""event"",""trial"",""time""
""blur"",""0"",""0""
""focus"",""0"",""0""
""fullscreenenter"",""0"",""2351""
""fullscreenexit"",""3"",""13332""
""blur"",""3"",""16386""
""focus"",""3"",""21270""
","""event"",""trial"",""time""
""blur"",""0"",""0""
""blur"",""3"",""16386""
","""event"",""trial"",""time""
""focus"",""0"",""0""
""focus"",""3"",""21270""
","""event"",""trial"",""time""
""fullscreenenter"",""0"",""2351""
","""event"",""trial"",""time""
""fullscreenexit"",""3"",""13332""
",null,"<div style=""font-size:60px;"">+</div>",NA,null,fixation,2020-06-21T01:16:00Z,NA,NA,NA,NA,NA,sub103
NA,mars-trial,42,196387,0.0-10.0-1.14,"""event"",""trial"",""time""
""blur"",""0"",""0""
""focus"",""0"",""0""
""fullscreenenter"",""0"",""2351""
""fullscreenexit"",""3"",""13332""
""blur"",""3"",""16386""
""focus"",""3"",""21270""
","""event"",""trial"",""time""
""blur"",""0"",""0""
""blur"",""3"",""16386""
","""event"",""trial"",""time""
""focus"",""0"",""0""
""focus"",""3"",""21270""
","""event"",""trial"",""time""
""fullscreenenter"",""0"",""2351""
","""event"",""trial"",""time""
""fullscreenexit"",""3"",""13332""
",1631.7599999997474,<img style='border: 4px solid darkgrey;' src='img/tf1_15_M_ss2.jpeg'></img>,1,NA,exp,NA,1,<img src='img/tf1_15_T1_ss2_md.jpeg'></img>,0,FALSE,NA,sub103
NA,html-keyboard-response,43,196889,0.0-10.0-0.15,"""event"",""trial"",""time""
""blur"",""0"",""0""
""focus"",""0"",""0""
""fullscreenenter"",""0"",""2351""
""fullscreenexit"",""3"",""13332""
""blur"",""3"",""16386""
""focus"",""3"",""21270""
","""event"",""trial"",""time""
""blur"",""0"",""0""
""blur"",""3"",""16386""
","""event"",""trial"",""time""
""focus"",""0"",""0""
""focus"",""3"",""21270""
","""event"",""trial"",""time""
""fullscreenenter"",""0"",""2351""
","""event"",""trial"",""time""
""fullscreenexit"",""3"",""13332""
",null,"<div style=""font-size:60px;"">+</div>",NA,null,fixation,2020-06-21T01:16:03Z,NA,NA,NA,NA,NA,sub103
NA,mars-trial,44,200436,0.0-10.0-1.15,"""event"",""trial"",""time""
""blur"",""0"",""0""
""focus"",""0"",""0""
""fullscreenenter"",""0"",""2351""
""fullscreenexit"",""3"",""13332""
""blur"",""3"",""16386""
""focus"",""3"",""21270""
","""event"",""trial"",""time""
""blur"",""0"",""0""
""blur"",""3"",""16386""
","""event"",""trial"",""time""
""focus"",""0"",""0""
""focus"",""3"",""21270""
","""event"",""trial"",""time""
""fullscreenenter"",""0"",""2351""
","""event"",""trial"",""time""
""fullscreenexit"",""3"",""13332""
",2935.0799999997253,<img style='border: 4px solid darkgrey;' src='img/tf1_16_M_ss3.jpeg'></img>,3,NA,exp,NA,1,<img src='img/tf1_16_T1_ss3_md.jpeg'></img>,0,FALSE,NA,sub103
NA,html-keyboard-response,45,200940,0.0-10.0-0.16,"""event"",""trial"",""time""
""blur"",""0"",""0""
""focus"",""0"",""0""
""fullscreenenter"",""0"",""2351""
""fullscreenexit"",""3"",""13332""
""blur"",""3"",""16386""
""focus"",""3"",""21270""
","""event"",""trial"",""time""
""blur"",""0"",""0""
""blur"",""3"",""16386""
","""event"",""trial"",""time""
""focus"",""0"",""0""
""focus"",""3"",""21270""
","""event"",""trial"",""time""
""fullscreenenter"",""0"",""2351""
","""event"",""trial"",""time""
""fullscreenexit"",""3"",""13332""
",null,"<div style=""font-size:60px;"">+</div>",NA,null,fixation,2020-06-21T01:16:07Z,NA,NA,NA,NA,NA,sub103
NA,mars-trial,46,209285,0.0-10.0-1.16,"""event"",""trial"",""time""
""blur"",""0"",""0""
""focus"",""0"",""0""
""fullscreenenter"",""0"",""2351""
""fullscreenexit"",""3"",""13332""
""blur"",""3"",""16386""
""focus"",""3"",""21270""
","""event"",""trial"",""time""
""blur"",""0"",""0""
""blur"",""3"",""16386""
","""event"",""trial"",""time""
""focus"",""0"",""0""
""focus"",""3"",""21270""
","""event"",""trial"",""time""
""fullscreenenter"",""0"",""2351""
","""event"",""trial"",""time""
""fullscreenexit"",""3"",""13332""
",7729.365000000136,<img style='border: 4px solid darkgrey;' src='img/tf1_17_M_ss1.jpeg'></img>,1,NA,exp,NA,1,<img src='img/tf1_17_T1_ss1_md.jpeg'></img>,0,FALSE,NA,sub103
NA,html-keyboard-response,47,209789,0.0-10.0-0.17,"""event"",""trial"",""time""
""blur"",""0"",""0""
""focus"",""0"",""0""
""fullscreenenter"",""0"",""2351""
""fullscreenexit"",""3"",""13332""
""blur"",""3"",""16386""
""focus"",""3"",""21270""
","""event"",""trial"",""time""
""blur"",""0"",""0""
""blur"",""3"",""16386""
","""event"",""trial"",""time""
""focus"",""0"",""0""
""focus"",""3"",""21270""
","""event"",""trial"",""time""
""fullscreenenter"",""0"",""2351""
","""event"",""trial"",""time""
""fullscreenexit"",""3"",""13332""
",null,"<div style=""font-size:60px;"">+</div>",NA,null,fixation,2020-06-21T01:16:16Z,NA,NA,NA,NA,NA,sub103
NA,mars-trial,48,212518,0.0-10.0-1.17,"""event"",""trial"",""time""
""blur"",""0"",""0""
""focus"",""0"",""0""
""fullscreenenter"",""0"",""2351""
""fullscreenexit"",""3"",""13332""
""blur"",""3"",""16386""
""focus"",""3"",""21270""
","""event"",""trial"",""time""
""blur"",""0"",""0""
""blur"",""3"",""16386""
","""event"",""trial"",""time""
""focus"",""0"",""0""
""focus"",""3"",""21270""
","""event"",""trial"",""time""
""fullscreenenter"",""0"",""2351""
","""event"",""trial"",""time""
""fullscreenexit"",""3"",""13332""
",2118.184999999823,<img style='border: 4px solid darkgrey;' src='img/tf1_18_M_ss2.jpeg'></img>,2,NA,exp,NA,2,<img src='img/tf1_18_T1_ss2_md.jpeg'></img>,0,FALSE,NA,sub103
NA,html-keyboard-response,49,213030,0.0-10.0-0.18,"""event"",""trial"",""time""
""blur"",""0"",""0""
""focus"",""0"",""0""
""fullscreenenter"",""0"",""2351""
""fullscreenexit"",""3"",""13332""
""blur"",""3"",""16386""
""focus"",""3"",""21270""
","""event"",""trial"",""time""
""blur"",""0"",""0""
""blur"",""3"",""16386""
","""event"",""trial"",""time""
""focus"",""0"",""0""
""focus"",""3"",""21270""
","""event"",""trial"",""time""
""fullscreenenter"",""0"",""2351""
","""event"",""trial"",""time""
""fullscreenexit"",""3"",""13332""
",null,"<div style=""font-size:60px;"">+</div>",NA,null,fixation,2020-06-21T01:16:19Z,NA,NA,NA,NA,NA,sub103
NA,mars-trial,50,221959,0.0-10.0-1.18,"""event"",""trial"",""time""
""blur"",""0"",""0""
""focus"",""0"",""0""
""fullscreenenter"",""0"",""2351""
""fullscreenexit"",""3"",""13332""
""blur"",""3"",""16386""
""focus"",""3"",""21270""
","""event"",""trial"",""time""
""blur"",""0"",""0""
""blur"",""3"",""16386""
","""event"",""trial"",""time""
""focus"",""0"",""0""
""focus"",""3"",""21270""
","""event"",""trial"",""time""
""fullscreenenter"",""0"",""2351""
","""event"",""trial"",""time""
""fullscreenexit"",""3"",""13332""
",8318.275000000052,<img style='border: 4px solid darkgrey;' src='img/tf1_19_M_ss3.jpeg'></img>,1,NA,exp,NA,2,<img src='img/tf1_19_T1_ss3_md.jpeg'></img>,0,FALSE,NA,sub103
NA,html-keyboard-response,51,222466,0.0-10.0-0.19,"""event"",""trial"",""time""
""blur"",""0"",""0""
""focus"",""0"",""0""
""fullscreenenter"",""0"",""2351""
""fullscreenexit"",""3"",""13332""
""blur"",""3"",""16386""
""focus"",""3"",""21270""
","""event"",""trial"",""time""
""blur"",""0"",""0""
""blur"",""3"",""16386""
","""event"",""trial"",""time""
""focus"",""0"",""0""
""focus"",""3"",""21270""
","""event"",""trial"",""time""
""fullscreenenter"",""0"",""2351""
","""event"",""trial"",""time""
""fullscreenexit"",""3"",""13332""
",null,"<div style=""font-size:60px;"">+</div>",NA,null,fixation,2020-06-21T01:16:29Z,NA,NA,NA,NA,NA,sub103
NA,mars-trial,52,226983,0.0-10.0-1.19,"""event"",""trial"",""time""
""blur"",""0"",""0""
""focus"",""0"",""0""
""fullscreenenter"",""0"",""2351""
""fullscreenexit"",""3"",""13332""
""blur"",""3"",""16386""
""focus"",""3"",""21270""
","""event"",""trial"",""time""
""blur"",""0"",""0""
""blur"",""3"",""16386""
","""event"",""trial"",""time""
""focus"",""0"",""0""
""focus"",""3"",""21270""
","""event"",""trial"",""time""
""fullscreenenter"",""0"",""2351""
","""event"",""trial"",""time""
""fullscreenexit"",""3"",""13332""
",3905.589999999793,<img style='border: 4px solid darkgrey;' src='img/tf1_20_M_ss1.jpeg'></img>,0,NA,exp,NA,2,<img src='img/tf1_20_T1_ss1_md.jpeg'></img>,0,FALSE,NA,sub103
NA,html-keyboard-response,53,227493,0.0-10.0-0.20,"""event"",""trial"",""time""
""blur"",""0"",""0""
""focus"",""0"",""0""
""fullscreenenter"",""0"",""2351""
""fullscreenexit"",""3"",""13332""
""blur"",""3"",""16386""
""focus"",""3"",""21270""
","""event"",""trial"",""time""
""blur"",""0"",""0""
""blur"",""3"",""16386""
","""event"",""trial"",""time""
""focus"",""0"",""0""
""focus"",""3"",""21270""
","""event"",""trial"",""time""
""fullscreenenter"",""0"",""2351""
","""event"",""trial"",""time""
""fullscreenexit"",""3"",""13332""
",null,"<div style=""font-size:60px;"">+</div>",NA,null,fixation,2020-06-21T01:16:34Z,NA,NA,NA,NA,NA,sub103
NA,mars-trial,54,231124,0.0-10.0-1.20,"""event"",""trial"",""time""
""blur"",""0"",""0""
""focus"",""0"",""0""
""fullscreenenter"",""0"",""2351""
""fullscreenexit"",""3"",""13332""
""blur"",""3"",""16386""
""focus"",""3"",""21270""
","""event"",""trial"",""time""
""blur"",""0"",""0""
""blur"",""3"",""16386""
","""event"",""trial"",""time""
""focus"",""0"",""0""
""focus"",""3"",""21270""
","""event"",""trial"",""time""
""fullscreenenter"",""0"",""2351""
","""event"",""trial"",""time""
""fullscreenexit"",""3"",""13332""
",3016.645000000135,<img style='border: 4px solid darkgrey;' src='img/tf1_21_M_ss2.jpeg'></img>,2,NA,exp,NA,3,<img src='img/tf1_21_T1_ss2_md.jpeg'></img>,0,FALSE,NA,sub103
NA,html-keyboard-response,55,231629,0.0-10.0-0.21,"""event"",""trial"",""time""
""blur"",""0"",""0""
""focus"",""0"",""0""
""fullscreenenter"",""0"",""2351""
""fullscreenexit"",""3"",""13332""
""blur"",""3"",""16386""
""focus"",""3"",""21270""
","""event"",""trial"",""time""
""blur"",""0"",""0""
""blur"",""3"",""16386""
","""event"",""trial"",""time""
""focus"",""0"",""0""
""focus"",""3"",""21270""
","""event"",""trial"",""time""
""fullscreenenter"",""0"",""2351""
","""event"",""trial"",""time""
""fullscreenexit"",""3"",""13332""
",null,"<div style=""font-size:60px;"">+</div>",NA,null,fixation,2020-06-21T01:16:38Z,NA,NA,NA,NA,NA,sub103
NA,mars-trial,56,247219,0.0-10.0-1.21,"""event"",""trial"",""time""
""blur"",""0"",""0""
""focus"",""0"",""0""
""fullscreenenter"",""0"",""2351""
""fullscreenexit"",""3"",""13332""
""blur"",""3"",""16386""
""focus"",""3"",""21270""
","""event"",""trial"",""time""
""blur"",""0"",""0""
""blur"",""3"",""16386""
","""event"",""trial"",""time""
""focus"",""0"",""0""
""focus"",""3"",""21270""
","""event"",""trial"",""time""
""fullscreenenter"",""0"",""2351""
","""event"",""trial"",""time""
""fullscreenexit"",""3"",""13332""
",14976.230000000214,<img style='border: 4px solid darkgrey;' src='img/tf1_22_M_ss3.jpeg'></img>,3,NA,exp,NA,0,<img src='img/tf1_22_T1_ss3_md.jpeg'></img>,0,TRUE,NA,sub103
NA,html-keyboard-response,57,247725,0.0-10.0-0.22,"""event"",""trial"",""time""
""blur"",""0"",""0""
""focus"",""0"",""0""
""fullscreenenter"",""0"",""2351""
""fullscreenexit"",""3"",""13332""
""blur"",""3"",""16386""
""focus"",""3"",""21270""
","""event"",""trial"",""time""
""blur"",""0"",""0""
""blur"",""3"",""16386""
","""event"",""trial"",""time""
""focus"",""0"",""0""
""focus"",""3"",""21270""
","""event"",""trial"",""time""
""fullscreenenter"",""0"",""2351""
","""event"",""trial"",""time""
""fullscreenexit"",""3"",""13332""
",null,"<div style=""font-size:60px;"">+</div>",NA,null,fixation,2020-06-21T01:16:54Z,NA,NA,NA,NA,NA,sub103
NA,mars-trial,58,255778,0.0-10.0-1.22,"""event"",""trial"",""time""
""blur"",""0"",""0""
""focus"",""0"",""0""
""fullscreenenter"",""0"",""2351""
""fullscreenexit"",""3"",""13332""
""blur"",""3"",""16386""
""focus"",""3"",""21270""
","""event"",""trial"",""time""
""blur"",""0"",""0""
""blur"",""3"",""16386""
","""event"",""trial"",""time""
""focus"",""0"",""0""
""focus"",""3"",""21270""
","""event"",""trial"",""time""
""fullscreenenter"",""0"",""2351""
","""event"",""trial"",""time""
""fullscreenexit"",""3"",""13332""
",7441.994999999704,<img style='border: 4px solid darkgrey;' src='img/tf1_23_M_ss1.jpeg'></img>,0,NA,exp,NA,1,<img src='img/tf1_23_T1_ss1_md.jpeg'></img>,0,FALSE,NA,sub103
NA,html-keyboard-response,59,256291,0.0-10.0-0.23,"""event"",""trial"",""time""
""blur"",""0"",""0""
""focus"",""0"",""0""
""fullscreenenter"",""0"",""2351""
""fullscreenexit"",""3"",""13332""
""blur"",""3"",""16386""
""focus"",""3"",""21270""
","""event"",""trial"",""time""
""blur"",""0"",""0""
""blur"",""3"",""16386""
","""event"",""trial"",""time""
""focus"",""0"",""0""
""focus"",""3"",""21270""
","""event"",""trial"",""time""
""fullscreenenter"",""0"",""2351""
","""event"",""trial"",""time""
""fullscreenexit"",""3"",""13332""
",null,"<div style=""font-size:60px;"">+</div>",NA,null,fixation,2020-06-21T01:17:03Z,NA,NA,NA,NA,NA,sub103
NA,mars-trial,60,258487,0.0-10.0-1.23,"""event"",""trial"",""time""
""blur"",""0"",""0""
""focus"",""0"",""0""
""fullscreenenter"",""0"",""2351""
""fullscreenexit"",""3"",""13332""
""blur"",""3"",""16386""
""focus"",""3"",""21270""
","""event"",""trial"",""time""
""blur"",""0"",""0""
""blur"",""3"",""16386""
","""event"",""trial"",""time""
""focus"",""0"",""0""
""focus"",""3"",""21270""
","""event"",""trial"",""time""
""fullscreenenter"",""0"",""2351""
","""event"",""trial"",""time""
""fullscreenexit"",""3"",""13332""
",1583.2999999998137,<img style='border: 4px solid darkgrey;' src='img/tf1_24_M_ss2.jpeg'></img>,1,NA,exp,NA,2,<img src='img/tf1_24_T1_ss2_md.jpeg'></img>,0,FALSE,NA,sub103
NA,html-keyboard-response,61,258994,0.0-10.0-0.24,"""event"",""trial"",""time""
""blur"",""0"",""0""
""focus"",""0"",""0""
""fullscreenenter"",""0"",""2351""
""fullscreenexit"",""3"",""13332""
""blur"",""3"",""16386""
""focus"",""3"",""21270""
","""event"",""trial"",""time""
""blur"",""0"",""0""
""blur"",""3"",""16386""
","""event"",""trial"",""time""
""focus"",""0"",""0""
""focus"",""3"",""21270""
","""event"",""trial"",""time""
""fullscreenenter"",""0"",""2351""
","""event"",""trial"",""time""
""fullscreenexit"",""3"",""13332""
",null,"<div style=""font-size:60px;"">+</div>",NA,null,fixation,2020-06-21T01:17:05Z,NA,NA,NA,NA,NA,sub103
NA,mars-trial,62,272418,0.0-10.0-1.24,"""event"",""trial"",""time""
""blur"",""0"",""0""
""focus"",""0"",""0""
""fullscreenenter"",""0"",""2351""
""fullscreenexit"",""3"",""13332""
""blur"",""3"",""16386""
""focus"",""3"",""21270""
","""event"",""trial"",""time""
""blur"",""0"",""0""
""blur"",""3"",""16386""
","""event"",""trial"",""time""
""focus"",""0"",""0""
""focus"",""3"",""21270""
","""event"",""trial"",""time""
""fullscreenenter"",""0"",""2351""
","""event"",""trial"",""time""
""fullscreenexit"",""3"",""13332""
",12804.534999999742,<img style='border: 4px solid darkgrey;' src='img/tf1_25_M_ss3.jpeg'></img>,1,NA,exp,NA,0,<img src='img/tf1_25_T1_ss3_md.jpeg'></img>,0,TRUE,NA,sub103
NA,html-keyboard-response,63,272925,0.0-10.0-0.25,"""event"",""trial"",""time""
""blur"",""0"",""0""
""focus"",""0"",""0""
""fullscreenenter"",""0"",""2351""
""fullscreenexit"",""3"",""13332""
""blur"",""3"",""16386""
""focus"",""3"",""21270""
","""event"",""trial"",""time""
""blur"",""0"",""0""
""blur"",""3"",""16386""
","""event"",""trial"",""time""
""focus"",""0"",""0""
""focus"",""3"",""21270""
","""event"",""trial"",""time""
""fullscreenenter"",""0"",""2351""
","""event"",""trial"",""time""
""fullscreenexit"",""3"",""13332""
",null,"<div style=""font-size:60px;"">+</div>",NA,null,fixation,2020-06-21T01:17:19Z,NA,NA,NA,NA,NA,sub103
NA,mars-trial,64,283589,0.0-10.0-1.25,"""event"",""trial"",""time""
""blur"",""0"",""0""
""focus"",""0"",""0""
""fullscreenenter"",""0"",""2351""
""fullscreenexit"",""3"",""13332""
""blur"",""3"",""16386""
""focus"",""3"",""21270""
","""event"",""trial"",""time""
""blur"",""0"",""0""
""blur"",""3"",""16386""
","""event"",""trial"",""time""
""focus"",""0"",""0""
""focus"",""3"",""21270""
","""event"",""trial"",""time""
""fullscreenenter"",""0"",""2351""
","""event"",""trial"",""time""
""fullscreenexit"",""3"",""13332""
",10043.719999999681,<img style='border: 4px solid darkgrey;' src='img/tf1_26_M_ss1.jpeg'></img>,3,NA,exp,NA,2,<img src='img/tf1_26_T1_ss1_md.jpeg'></img>,0,FALSE,NA,sub103
NA,html-keyboard-response,65,284099,0.0-10.0-0.26,"""event"",""trial"",""time""
""blur"",""0"",""0""
""focus"",""0"",""0""
""fullscreenenter"",""0"",""2351""
""fullscreenexit"",""3"",""13332""
""blur"",""3"",""16386""
""focus"",""3"",""21270""
","""event"",""trial"",""time""
""blur"",""0"",""0""
""blur"",""3"",""16386""
","""event"",""trial"",""time""
""focus"",""0"",""0""
""focus"",""3"",""21270""
","""event"",""trial"",""time""
""fullscreenenter"",""0"",""2351""
","""event"",""trial"",""time""
""fullscreenexit"",""3"",""13332""
",null,"<div style=""font-size:60px;"">+</div>",NA,null,fixation,2020-06-21T01:17:30Z,NA,NA,NA,NA,NA,sub103
NA,mars-trial,66,286305,0.0-10.0-1.26,"""event"",""trial"",""time""
""blur"",""0"",""0""
""focus"",""0"",""0""
""fullscreenenter"",""0"",""2351""
""fullscreenexit"",""3"",""13332""
""blur"",""3"",""16386""
""focus"",""3"",""21270""
","""event"",""trial"",""time""
""blur"",""0"",""0""
""blur"",""3"",""16386""
","""event"",""trial"",""time""
""focus"",""0"",""0""
""focus"",""3"",""21270""
","""event"",""trial"",""time""
""fullscreenenter"",""0"",""2351""
","""event"",""trial"",""time""
""fullscreenexit"",""3"",""13332""
",1583.5350000002072,<img style='border: 4px solid darkgrey;' src='img/tf1_27_M_ss2.jpeg'></img>,2,NA,exp,NA,1,<img src='img/tf1_27_T1_ss2_md.jpeg'></img>,0,FALSE,NA,sub103
NA,html-keyboard-response,67,286816,0.0-10.0-0.27,"""event"",""trial"",""time""
""blur"",""0"",""0""
""focus"",""0"",""0""
""fullscreenenter"",""0"",""2351""
""fullscreenexit"",""3"",""13332""
""blur"",""3"",""16386""
""focus"",""3"",""21270""
","""event"",""trial"",""time""
""blur"",""0"",""0""
""blur"",""3"",""16386""
","""event"",""trial"",""time""
""focus"",""0"",""0""
""focus"",""3"",""21270""
","""event"",""trial"",""time""
""fullscreenenter"",""0"",""2351""
","""event"",""trial"",""time""
""fullscreenexit"",""3"",""13332""
",null,"<div style=""font-size:60px;"">+</div>",NA,null,fixation,2020-06-21T01:17:33Z,NA,NA,NA,NA,NA,sub103
NA,mars-trial,68,289249,0.0-10.0-1.27,"""event"",""trial"",""time""
""blur"",""0"",""0""
""focus"",""0"",""0""
""fullscreenenter"",""0"",""2351""
""fullscreenexit"",""3"",""13332""
""blur"",""3"",""16386""
""focus"",""3"",""21270""
","""event"",""trial"",""time""
""blur"",""0"",""0""
""blur"",""3"",""16386""
","""event"",""trial"",""time""
""focus"",""0"",""0""
""focus"",""3"",""21270""
","""event"",""trial"",""time""
""fullscreenenter"",""0"",""2351""
","""event"",""trial"",""time""
""fullscreenexit"",""3"",""13332""
",1817.6300000000047,<img style='border: 4px solid darkgrey;' src='img/tf1_28_M_ss3.jpeg'></img>,1,NA,exp,NA,1,<img src='img/tf1_28_T1_ss3_md.jpeg'></img>,0,FALSE,NA,sub103
NA,html-keyboard-response,69,289755,0.0-10.0-0.28,"""event"",""trial"",""time""
""blur"",""0"",""0""
""focus"",""0"",""0""
""fullscreenenter"",""0"",""2351""
""fullscreenexit"",""3"",""13332""
""blur"",""3"",""16386""
""focus"",""3"",""21270""
","""event"",""trial"",""time""
""blur"",""0"",""0""
""blur"",""3"",""16386""
","""event"",""trial"",""time""
""focus"",""0"",""0""
""focus"",""3"",""21270""
","""event"",""trial"",""time""
""fullscreenenter"",""0"",""2351""
","""event"",""trial"",""time""
""fullscreenexit"",""3"",""13332""
",null,"<div style=""font-size:60px;"">+</div>",NA,null,fixation,2020-06-21T01:17:36Z,NA,NA,NA,NA,NA,sub103
NA,mars-trial,70,293599,0.0-10.0-1.28,"""event"",""trial"",""time""
""blur"",""0"",""0""
""focus"",""0"",""0""
""fullscreenenter"",""0"",""2351""
""fullscreenexit"",""3"",""13332""
""blur"",""3"",""16386""
""focus"",""3"",""21270""
","""event"",""trial"",""time""
""blur"",""0"",""0""
""blur"",""3"",""16386""
","""event"",""trial"",""time""
""focus"",""0"",""0""
""focus"",""3"",""21270""
","""event"",""trial"",""time""
""fullscreenenter"",""0"",""2351""
","""event"",""trial"",""time""
""fullscreenexit"",""3"",""13332""
",3222.470000000205,<img style='border: 4px solid darkgrey;' src='img/tf1_29_M_ss1.jpeg'></img>,0,NA,exp,NA,2,<img src='img/tf1_29_T1_ss1_md.jpeg'></img>,0,FALSE,NA,sub103
NA,html-keyboard-response,71,294105,0.0-10.0-0.29,"""event"",""trial"",""time""
""blur"",""0"",""0""
""focus"",""0"",""0""
""fullscreenenter"",""0"",""2351""
""fullscreenexit"",""3"",""13332""
""blur"",""3"",""16386""
""focus"",""3"",""21270""
","""event"",""trial"",""time""
""blur"",""0"",""0""
""blur"",""3"",""16386""
","""event"",""trial"",""time""
""focus"",""0"",""0""
""focus"",""3"",""21270""
","""event"",""trial"",""time""
""fullscreenenter"",""0"",""2351""
","""event"",""trial"",""time""
""fullscreenexit"",""3"",""13332""
",null,"<div style=""font-size:60px;"">+</div>",NA,null,fixation,2020-06-21T01:17:40Z,NA,NA,NA,NA,NA,sub103
NA,mars-trial,72,296855,0.0-10.0-1.29,"""event"",""trial"",""time""
""blur"",""0"",""0""
""focus"",""0"",""0""
""fullscreenenter"",""0"",""2351""
""fullscreenexit"",""3"",""13332""
""blur"",""3"",""16386""
""focus"",""3"",""21270""
","""event"",""trial"",""time""
""blur"",""0"",""0""
""blur"",""3"",""16386""
","""event"",""trial"",""time""
""focus"",""0"",""0""
""focus"",""3"",""21270""
","""event"",""trial"",""time""
""fullscreenenter"",""0"",""2351""
","""event"",""trial"",""time""
""fullscreenexit"",""3"",""13332""
",2132.990000000049,<img style='border: 4px solid darkgrey;' src='img/tf1_30_M_ss2.jpeg'></img>,2,NA,exp,NA,1,<img src='img/tf1_30_T1_ss2_md.jpeg'></img>,0,FALSE,NA,sub103
NA,html-keyboard-response,73,297365,0.0-10.0-0.30,"""event"",""trial"",""time""
""blur"",""0"",""0""
""focus"",""0"",""0""
""fullscreenenter"",""0"",""2351""
""fullscreenexit"",""3"",""13332""
""blur"",""3"",""16386""
""focus"",""3"",""21270""
","""event"",""trial"",""time""
""blur"",""0"",""0""
""blur"",""3"",""16386""
","""event"",""trial"",""time""
""focus"",""0"",""0""
""focus"",""3"",""21270""
","""event"",""trial"",""time""
""fullscreenenter"",""0"",""2351""
","""event"",""trial"",""time""
""fullscreenexit"",""3"",""13332""
",null,"<div style=""font-size:60px;"">+</div>",NA,null,fixation,2020-06-21T01:17:44Z,NA,NA,NA,NA,NA,sub103
NA,mars-trial,74,299830,0.0-10.0-1.30,"""event"",""trial"",""time""
""blur"",""0"",""0""
""focus"",""0"",""0""
""fullscreenenter"",""0"",""2351""
""fullscreenexit"",""3"",""13332""
""blur"",""3"",""16386""
""focus"",""3"",""21270""
","""event"",""trial"",""time""
""blur"",""0"",""0""
""blur"",""3"",""16386""
","""event"",""trial"",""time""
""focus"",""0"",""0""
""focus"",""3"",""21270""
","""event"",""trial"",""time""
""fullscreenenter"",""0"",""2351""
","""event"",""trial"",""time""
""fullscreenexit"",""3"",""13332""
",1851.0099999998347,<img style='border: 4px solid darkgrey;' src='img/tf1_31_M_ss3.jpeg'></img>,3,NA,exp,NA,1,<img src='img/tf1_31_T1_ss3_md.jpeg'></img>,0,FALSE,NA,sub103
NA,html-keyboard-response,75,300337,0.0-10.0-0.31,"""event"",""trial"",""time""
""blur"",""0"",""0""
""focus"",""0"",""0""
""fullscreenenter"",""0"",""2351""
""fullscreenexit"",""3"",""13332""
""blur"",""3"",""16386""
""focus"",""3"",""21270""
","""event"",""trial"",""time""
""blur"",""0"",""0""
""blur"",""3"",""16386""
","""event"",""trial"",""time""
""focus"",""0"",""0""
""focus"",""3"",""21270""
","""event"",""trial"",""time""
""fullscreenenter"",""0"",""2351""
","""event"",""trial"",""time""
""fullscreenexit"",""3"",""13332""
",null,"<div style=""font-size:60px;"">+</div>",NA,null,fixation,2020-06-21T01:17:47Z,NA,NA,NA,NA,NA,sub103
NA,mars-trial,76,302667,0.0-10.0-1.31,"""event"",""trial"",""time""
""blur"",""0"",""0""
""focus"",""0"",""0""
""fullscreenenter"",""0"",""2351""
""fullscreenexit"",""3"",""13332""
""blur"",""3"",""16386""
""focus"",""3"",""21270""
","""event"",""trial"",""time""
""blur"",""0"",""0""
""blur"",""3"",""16386""
","""event"",""trial"",""time""
""focus"",""0"",""0""
""focus"",""3"",""21270""
","""event"",""trial"",""time""
""fullscreenenter"",""0"",""2351""
","""event"",""trial"",""time""
""fullscreenexit"",""3"",""13332""
",1709.4200000001583,<img style='border: 4px solid darkgrey;' src='img/tf1_32_M_ss1.jpeg'></img>,2,NA,exp,NA,2,<img src='img/tf1_32_T1_ss1_md.jpeg'></img>,0,FALSE,NA,sub103
NA,html-keyboard-response,77,303170,0.0-10.0-0.32,"""event"",""trial"",""time""
""blur"",""0"",""0""
""focus"",""0"",""0""
""fullscreenenter"",""0"",""2351""
""fullscreenexit"",""3"",""13332""
""blur"",""3"",""16386""
""focus"",""3"",""21270""
","""event"",""trial"",""time""
""blur"",""0"",""0""
""blur"",""3"",""16386""
","""event"",""trial"",""time""
""focus"",""0"",""0""
""focus"",""3"",""21270""
","""event"",""trial"",""time""
""fullscreenenter"",""0"",""2351""
","""event"",""trial"",""time""
""fullscreenexit"",""3"",""13332""
",null,"<div style=""font-size:60px;"">+</div>",NA,null,fixation,2020-06-21T01:17:49Z,NA,NA,NA,NA,NA,sub103
NA,mars-trial,78,317644,0.0-10.0-1.32,"""event"",""trial"",""time""
""blur"",""0"",""0""
""focus"",""0"",""0""
""fullscreenenter"",""0"",""2351""
""fullscreenexit"",""3"",""13332""
""blur"",""3"",""16386""
""focus"",""3"",""21270""
","""event"",""trial"",""time""
""blur"",""0"",""0""
""blur"",""3"",""16386""
","""event"",""trial"",""time""
""focus"",""0"",""0""
""focus"",""3"",""21270""
","""event"",""trial"",""time""
""fullscreenenter"",""0"",""2351""
","""event"",""trial"",""time""
""fullscreenexit"",""3"",""13332""
",13855.10000000021,<img style='border: 4px solid darkgrey;' src='img/tf1_33_M_ss2.jpeg'></img>,1,NA,exp,NA,0,<img src='img/tf1_33_T1_ss2_md.jpeg'></img>,0,TRUE,NA,sub103
NA,html-keyboard-response,79,318151,0.0-10.0-0.33,"""event"",""trial"",""time""
""blur"",""0"",""0""
""focus"",""0"",""0""
""fullscreenenter"",""0"",""2351""
""fullscreenexit"",""3"",""13332""
""blur"",""3"",""16386""
""focus"",""3"",""21270""
","""event"",""trial"",""time""
""blur"",""0"",""0""
""blur"",""3"",""16386""
","""event"",""trial"",""time""
""focus"",""0"",""0""
""focus"",""3"",""21270""
","""event"",""trial"",""time""
""fullscreenenter"",""0"",""2351""
","""event"",""trial"",""time""
""fullscreenexit"",""3"",""13332""
",null,"<div style=""font-size:60px;"">+</div>",NA,null,fixation,2020-06-21T01:18:04Z,NA,NA,NA,NA,NA,sub103
NA,mars-trial,80,343297,0.0-10.0-1.33,"""event"",""trial"",""time""
""blur"",""0"",""0""
""focus"",""0"",""0""
""fullscreenenter"",""0"",""2351""
""fullscreenexit"",""3"",""13332""
""blur"",""3"",""16386""
""focus"",""3"",""21270""
","""event"",""trial"",""time""
""blur"",""0"",""0""
""blur"",""3"",""16386""
","""event"",""trial"",""time""
""focus"",""0"",""0""
""focus"",""3"",""21270""
","""event"",""trial"",""time""
""fullscreenenter"",""0"",""2351""
","""event"",""trial"",""time""
""fullscreenexit"",""3"",""13332""
",24537.19999999978,<img style='border: 4px solid darkgrey;' src='img/tf1_34_M_ss3.jpeg'></img>,1,NA,exp,NA,2,<img src='img/tf1_34_T1_ss3_md.jpeg'></img>,0,FALSE,NA,sub103
NA,html-keyboard-response,81,343806,0.0-10.0-0.34,"""event"",""trial"",""time""
""blur"",""0"",""0""
""focus"",""0"",""0""
""fullscreenenter"",""0"",""2351""
""fullscreenexit"",""3"",""13332""
""blur"",""3"",""16386""
""focus"",""3"",""21270""
","""event"",""trial"",""time""
""blur"",""0"",""0""
""blur"",""3"",""16386""
","""event"",""trial"",""time""
""focus"",""0"",""0""
""focus"",""3"",""21270""
","""event"",""trial"",""time""
""fullscreenenter"",""0"",""2351""
","""event"",""trial"",""time""
""fullscreenexit"",""3"",""13332""
",null,"<div style=""font-size:60px;"">+</div>",NA,null,fixation,2020-06-21T01:18:30Z,NA,NA,NA,NA,NA,sub103
NA,mars-trial,82,346106,0.0-10.0-1.34,"""event"",""trial"",""time""
""blur"",""0"",""0""
""focus"",""0"",""0""
""fullscreenenter"",""0"",""2351""
""fullscreenexit"",""3"",""13332""
""blur"",""3"",""16386""
""focus"",""3"",""21270""
","""event"",""trial"",""time""
""blur"",""0"",""0""
""blur"",""3"",""16386""
","""event"",""trial"",""time""
""focus"",""0"",""0""
""focus"",""3"",""21270""
","""event"",""trial"",""time""
""fullscreenenter"",""0"",""2351""
","""event"",""trial"",""time""
""fullscreenexit"",""3"",""13332""
",1683.4649999996182,<img style='border: 4px solid darkgrey;' src='img/tf1_35_M_ss1.jpeg'></img>,2,NA,exp,NA,3,<img src='img/tf1_35_T1_ss1_md.jpeg'></img>,0,FALSE,NA,sub103
NA,html-keyboard-response,83,346613,0.0-10.0-0.35,"""event"",""trial"",""time""
""blur"",""0"",""0""
""focus"",""0"",""0""
""fullscreenenter"",""0"",""2351""
""fullscreenexit"",""3"",""13332""
""blur"",""3"",""16386""
""focus"",""3"",""21270""
","""event"",""trial"",""time""
""blur"",""0"",""0""
""blur"",""3"",""16386""
","""event"",""trial"",""time""
""focus"",""0"",""0""
""focus"",""3"",""21270""
","""event"",""trial"",""time""
""fullscreenenter"",""0"",""2351""
","""event"",""trial"",""time""
""fullscreenexit"",""3"",""13332""
",null,"<div style=""font-size:60px;"">+</div>",NA,null,fixation,2020-06-21T01:18:33Z,NA,NA,NA,NA,NA,sub103
NA,mars-trial,84,349013,0.0-10.0-1.35,"""event"",""trial"",""time""
""blur"",""0"",""0""
""focus"",""0"",""0""
""fullscreenenter"",""0"",""2351""
""fullscreenexit"",""3"",""13332""
""blur"",""3"",""16386""
""focus"",""3"",""21270""
","""event"",""trial"",""time""
""blur"",""0"",""0""
""blur"",""3"",""16386""
","""event"",""trial"",""time""
""focus"",""0"",""0""
""focus"",""3"",""21270""
","""event"",""trial"",""time""
""fullscreenenter"",""0"",""2351""
","""event"",""trial"",""time""
""fullscreenexit"",""3"",""13332""
",1784.9400000000023,<img style='border: 4px solid darkgrey;' src='img/tf1_36_M_ss2.jpeg'></img>,0,NA,exp,NA,2,<img src='img/tf1_36_T1_ss2_md.jpeg'></img>,0,FALSE,NA,sub103
NA,html-keyboard-response,85,349523,0.0-10.0-0.36,"""event"",""trial"",""time""
""blur"",""0"",""0""
""focus"",""0"",""0""
""fullscreenenter"",""0"",""2351""
""fullscreenexit"",""3"",""13332""
""blur"",""3"",""16386""
""focus"",""3"",""21270""
","""event"",""trial"",""time""
""blur"",""0"",""0""
""blur"",""3"",""16386""
","""event"",""trial"",""time""
""focus"",""0"",""0""
""focus"",""3"",""21270""
","""event"",""trial"",""time""
""fullscreenenter"",""0"",""2351""
","""event"",""trial"",""time""
""fullscreenexit"",""3"",""13332""
",null,"<div style=""font-size:60px;"">+</div>",NA,null,fixation,2020-06-21T01:18:36Z,NA,NA,NA,NA,NA,sub103
NA,mars-trial,86,352929,0.0-10.0-1.36,"""event"",""trial"",""time""
""blur"",""0"",""0""
""focus"",""0"",""0""
""fullscreenenter"",""0"",""2351""
""fullscreenexit"",""3"",""13332""
""blur"",""3"",""16386""
""focus"",""3"",""21270""
","""event"",""trial"",""time""
""blur"",""0"",""0""
""blur"",""3"",""16386""
","""event"",""trial"",""time""
""focus"",""0"",""0""
""focus"",""3"",""21270""
","""event"",""trial"",""time""
""fullscreenenter"",""0"",""2351""
","""event"",""trial"",""time""
""fullscreenexit"",""3"",""13332""
",2787.7749999997905,<img style='border: 4px solid darkgrey;' src='img/tf1_37_M_ss3.jpeg'></img>,2,NA,exp,NA,0,<img src='img/tf1_37_T1_ss3_md.jpeg'></img>,0,TRUE,NA,sub103
NA,html-keyboard-response,87,353437,0.0-10.0-0.37,"""event"",""trial"",""time""
""blur"",""0"",""0""
""focus"",""0"",""0""
""fullscreenenter"",""0"",""2351""
""fullscreenexit"",""3"",""13332""
""blur"",""3"",""16386""
""focus"",""3"",""21270""
","""event"",""trial"",""time""
""blur"",""0"",""0""
""blur"",""3"",""16386""
","""event"",""trial"",""time""
""focus"",""0"",""0""
""focus"",""3"",""21270""
","""event"",""trial"",""time""
""fullscreenenter"",""0"",""2351""
","""event"",""trial"",""time""
""fullscreenexit"",""3"",""13332""
",null,"<div style=""font-size:60px;"">+</div>",NA,null,fixation,2020-06-21T01:18:40Z,NA,NA,NA,NA,NA,sub103
NA,mars-trial,88,365870,0.0-10.0-1.37,"""event"",""trial"",""time""
""blur"",""0"",""0""
""focus"",""0"",""0""
""fullscreenenter"",""0"",""2351""
""fullscreenexit"",""3"",""13332""
""blur"",""3"",""16386""
""focus"",""3"",""21270""
","""event"",""trial"",""time""
""blur"",""0"",""0""
""blur"",""3"",""16386""
","""event"",""trial"",""time""
""focus"",""0"",""0""
""focus"",""3"",""21270""
","""event"",""trial"",""time""
""fullscreenenter"",""0"",""2351""
","""event"",""trial"",""time""
""fullscreenexit"",""3"",""13332""
",11829.604999999865,<img style='border: 4px solid darkgrey;' src='img/tf1_38_M_ss1.jpeg'></img>,1,NA,exp,NA,0,<img src='img/tf1_38_T1_ss1_md.jpeg'></img>,0,TRUE,NA,sub103
NA,html-keyboard-response,89,366379,0.0-10.0-0.38,"""event"",""trial"",""time""
""blur"",""0"",""0""
""focus"",""0"",""0""
""fullscreenenter"",""0"",""2351""
""fullscreenexit"",""3"",""13332""
""blur"",""3"",""16386""
""focus"",""3"",""21270""
","""event"",""trial"",""time""
""blur"",""0"",""0""
""blur"",""3"",""16386""
","""event"",""trial"",""time""
""focus"",""0"",""0""
""focus"",""3"",""21270""
","""event"",""trial"",""time""
""fullscreenenter"",""0"",""2351""
","""event"",""trial"",""time""
""fullscreenexit"",""3"",""13332""
",null,"<div style=""font-size:60px;"">+</div>",NA,null,fixation,2020-06-21T01:18:53Z,NA,NA,NA,NA,NA,sub103
NA,mars-trial,90,370447,0.0-10.0-1.38,"""event"",""trial"",""time""
""blur"",""0"",""0""
""focus"",""0"",""0""
""fullscreenenter"",""0"",""2351""
""fullscreenexit"",""3"",""13332""
""blur"",""3"",""16386""
""focus"",""3"",""21270""
","""event"",""trial"",""time""
""blur"",""0"",""0""
""blur"",""3"",""16386""
","""event"",""trial"",""time""
""focus"",""0"",""0""
""focus"",""3"",""21270""
","""event"",""trial"",""time""
""fullscreenenter"",""0"",""2351""
","""event"",""trial"",""time""
""fullscreenexit"",""3"",""13332""
",3448.390000000014,<img style='border: 4px solid darkgrey;' src='img/tf1_39_M_ss2.jpeg'></img>,2,NA,exp,NA,2,<img src='img/tf1_39_T1_ss2_md.jpeg'></img>,0,FALSE,NA,sub103
NA,html-keyboard-response,91,370952,0.0-10.0-0.39,"""event"",""trial"",""time""
""blur"",""0"",""0""
""focus"",""0"",""0""
""fullscreenenter"",""0"",""2351""
""fullscreenexit"",""3"",""13332""
""blur"",""3"",""16386""
""focus"",""3"",""21270""
","""event"",""trial"",""time""
""blur"",""0"",""0""
""blur"",""3"",""16386""
","""event"",""trial"",""time""
""focus"",""0"",""0""
""focus"",""3"",""21270""
","""event"",""trial"",""time""
""fullscreenenter"",""0"",""2351""
","""event"",""trial"",""time""
""fullscreenexit"",""3"",""13332""
",null,"<div style=""font-size:60px;"">+</div>",NA,null,fixation,2020-06-21T01:18:57Z,NA,NA,NA,NA,NA,sub103
NA,mars-trial,92,394582,0.0-10.0-1.39,"""event"",""trial"",""time""
""blur"",""0"",""0""
""focus"",""0"",""0""
""fullscreenenter"",""0"",""2351""
""fullscreenexit"",""3"",""13332""
""blur"",""3"",""16386""
""focus"",""3"",""21270""
","""event"",""trial"",""time""
""blur"",""0"",""0""
""blur"",""3"",""16386""
","""event"",""trial"",""time""
""focus"",""0"",""0""
""focus"",""3"",""21270""
","""event"",""trial"",""time""
""fullscreenenter"",""0"",""2351""
","""event"",""trial"",""time""
""fullscreenexit"",""3"",""13332""
",23021.590000000317,<img style='border: 4px solid darkgrey;' src='img/tf1_40_M_ss3.jpeg'></img>,2,NA,exp,NA,0,<img src='img/tf1_40_T1_ss3_md.jpeg'></img>,0,TRUE,NA,sub103
NA,html-keyboard-response,93,395089,0.0-10.0-0.40,"""event"",""trial"",""time""
""blur"",""0"",""0""
""focus"",""0"",""0""
""fullscreenenter"",""0"",""2351""
""fullscreenexit"",""3"",""13332""
""blur"",""3"",""16386""
""focus"",""3"",""21270""
","""event"",""trial"",""time""
""blur"",""0"",""0""
""blur"",""3"",""16386""
","""event"",""trial"",""time""
""focus"",""0"",""0""
""focus"",""3"",""21270""
","""event"",""trial"",""time""
""fullscreenenter"",""0"",""2351""
","""event"",""trial"",""time""
""fullscreenexit"",""3"",""13332""
",null,"<div style=""font-size:60px;"">+</div>",NA,null,fixation,2020-06-21T01:19:21Z,NA,NA,NA,NA,NA,sub103
NA,mars-trial,94,400328,0.0-10.0-1.40,"""event"",""trial"",""time""
""blur"",""0"",""0""
""focus"",""0"",""0""
""fullscreenenter"",""0"",""2351""
""fullscreenexit"",""3"",""13332""
""blur"",""3"",""16386""
""focus"",""3"",""21270""
","""event"",""trial"",""time""
""blur"",""0"",""0""
""blur"",""3"",""16386""
","""event"",""trial"",""time""
""focus"",""0"",""0""
""focus"",""3"",""21270""
","""event"",""trial"",""time""
""fullscreenenter"",""0"",""2351""
","""event"",""trial"",""time""
""fullscreenexit"",""3"",""13332""
",4622.719999999856,<img style='border: 4px solid darkgrey;' src='img/tf1_41_M_ss1.jpeg'></img>,1,NA,exp,NA,0,<img src='img/tf1_41_T1_ss1_md.jpeg'></img>,0,TRUE,NA,sub103
NA,html-keyboard-response,95,400839,0.0-10.0-0.41,"""event"",""trial"",""time""
""blur"",""0"",""0""
""focus"",""0"",""0""
""fullscreenenter"",""0"",""2351""
""fullscreenexit"",""3"",""13332""
""blur"",""3"",""16386""
""focus"",""3"",""21270""
","""event"",""trial"",""time""
""blur"",""0"",""0""
""blur"",""3"",""16386""
","""event"",""trial"",""time""
""focus"",""0"",""0""
""focus"",""3"",""21270""
","""event"",""trial"",""time""
""fullscreenenter"",""0"",""2351""
","""event"",""trial"",""time""
""fullscreenexit"",""3"",""13332""
",null,"<div style=""font-size:60px;"">+</div>",NA,null,fixation,2020-06-21T01:19:27Z,NA,NA,NA,NA,NA,sub103
NA,mars-trial,96,404723,0.0-10.0-1.41,"""event"",""trial"",""time""
""blur"",""0"",""0""
""focus"",""0"",""0""
""fullscreenenter"",""0"",""2351""
""fullscreenexit"",""3"",""13332""
""blur"",""3"",""16386""
""focus"",""3"",""21270""
","""event"",""trial"",""time""
""blur"",""0"",""0""
""blur"",""3"",""16386""
","""event"",""trial"",""time""
""focus"",""0"",""0""
""focus"",""3"",""21270""
","""event"",""trial"",""time""
""fullscreenenter"",""0"",""2351""
","""event"",""trial"",""time""
""fullscreenexit"",""3"",""13332""
",3273.7649999999558,<img style='border: 4px solid darkgrey;' src='img/tf1_42_M_ss2.jpeg'></img>,3,NA,exp,NA,1,<img src='img/tf1_42_T1_ss2_md.jpeg'></img>,0,FALSE,NA,sub103
NA,html-keyboard-response,97,405230,0.0-10.0-0.42,"""event"",""trial"",""time""
""blur"",""0"",""0""
""focus"",""0"",""0""
""fullscreenenter"",""0"",""2351""
""fullscreenexit"",""3"",""13332""
""blur"",""3"",""16386""
""focus"",""3"",""21270""
","""event"",""trial"",""time""
""blur"",""0"",""0""
""blur"",""3"",""16386""
","""event"",""trial"",""time""
""focus"",""0"",""0""
""focus"",""3"",""21270""
","""event"",""trial"",""time""
""fullscreenenter"",""0"",""2351""
","""event"",""trial"",""time""
""fullscreenexit"",""3"",""13332""
",null,"<div style=""font-size:60px;"">+</div>",NA,null,fixation,2020-06-21T01:19:32Z,NA,NA,NA,NA,NA,sub103
NA,mars-trial,98,407746,0.0-10.0-1.42,"""event"",""trial"",""time""
""blur"",""0"",""0""
""focus"",""0"",""0""
""fullscreenenter"",""0"",""2351""
""fullscreenexit"",""3"",""13332""
""blur"",""3"",""16386""
""focus"",""3"",""21270""
","""event"",""trial"",""time""
""blur"",""0"",""0""
""blur"",""3"",""16386""
","""event"",""trial"",""time""
""focus"",""0"",""0""
""focus"",""3"",""21270""
","""event"",""trial"",""time""
""fullscreenenter"",""0"",""2351""
","""event"",""trial"",""time""
""fullscreenexit"",""3"",""13332""
",1907.8049999998184,<img style='border: 4px solid darkgrey;' src='img/tf1_43_M_ss3.jpeg'></img>,1,NA,exp,NA,3,<img src='img/tf1_43_T1_ss3_md.jpeg'></img>,0,FALSE,NA,sub103
NA,html-keyboard-response,99,408259,0.0-10.0-0.43,"""event"",""trial"",""time""
""blur"",""0"",""0""
""focus"",""0"",""0""
""fullscreenenter"",""0"",""2351""
""fullscreenexit"",""3"",""13332""
""blur"",""3"",""16386""
""focus"",""3"",""21270""
","""event"",""trial"",""time""
""blur"",""0"",""0""
""blur"",""3"",""16386""
","""event"",""trial"",""time""
""focus"",""0"",""0""
""focus"",""3"",""21270""
","""event"",""trial"",""time""
""fullscreenenter"",""0"",""2351""
","""event"",""trial"",""time""
""fullscreenexit"",""3"",""13332""
",null,"<div style=""font-size:60px;"">+</div>",NA,null,fixation,2020-06-21T01:19:35Z,NA,NA,NA,NA,NA,sub103
NA,mars-trial,100,411188,0.0-10.0-1.43,"""event"",""trial"",""time""
""blur"",""0"",""0""
""focus"",""0"",""0""
""fullscreenenter"",""0"",""2351""
""fullscreenexit"",""3"",""13332""
""blur"",""3"",""16386""
""focus"",""3"",""21270""
","""event"",""trial"",""time""
""blur"",""0"",""0""
""blur"",""3"",""16386""
","""event"",""trial"",""time""
""focus"",""0"",""0""
""focus"",""3"",""21270""
","""event"",""trial"",""time""
""fullscreenenter"",""0"",""2351""
","""event"",""trial"",""time""
""fullscreenexit"",""3"",""13332""
",2311.6900000000023,<img style='border: 4px solid darkgrey;' src='img/tf1_44_M_ss1.jpeg'></img>,2,NA,exp,NA,1,<img src='img/tf1_44_T1_ss1_md.jpeg'></img>,0,FALSE,NA,sub103
NA,html-keyboard-response,101,411695,0.0-10.0-0.44,"""event"",""trial"",""time""
""blur"",""0"",""0""
""focus"",""0"",""0""
""fullscreenenter"",""0"",""2351""
""fullscreenexit"",""3"",""13332""
""blur"",""3"",""16386""
""focus"",""3"",""21270""
","""event"",""trial"",""time""
""blur"",""0"",""0""
""blur"",""3"",""16386""
","""event"",""trial"",""time""
""focus"",""0"",""0""
""focus"",""3"",""21270""
","""event"",""trial"",""time""
""fullscreenenter"",""0"",""2351""
","""event"",""trial"",""time""
""fullscreenexit"",""3"",""13332""
",null,"<div style=""font-size:60px;"">+</div>",NA,null,fixation,2020-06-21T01:19:38Z,NA,NA,NA,NA,NA,sub103
NA,mars-trial,102,413811,0.0-10.0-1.44,"""event"",""trial"",""time""
""blur"",""0"",""0""
""focus"",""0"",""0""
""fullscreenenter"",""0"",""2351""
""fullscreenexit"",""3"",""13332""
""blur"",""3"",""16386""
""focus"",""3"",""21270""
","""event"",""trial"",""time""
""blur"",""0"",""0""
""blur"",""3"",""16386""
","""event"",""trial"",""time""
""focus"",""0"",""0""
""focus"",""3"",""21270""
","""event"",""trial"",""time""
""fullscreenenter"",""0"",""2351""
","""event"",""trial"",""time""
""fullscreenexit"",""3"",""13332""
",1508.070000000298,<img style='border: 4px solid darkgrey;' src='img/tf1_45_M_ss2.jpeg'></img>,0,NA,exp,NA,1,<img src='img/tf1_45_T1_ss2_md.jpeg'></img>,0,FALSE,NA,sub103
NA,html-keyboard-response,103,414322,0.0-10.0-0.45,"""event"",""trial"",""time""
""blur"",""0"",""0""
""focus"",""0"",""0""
""fullscreenenter"",""0"",""2351""
""fullscreenexit"",""3"",""13332""
""blur"",""3"",""16386""
""focus"",""3"",""21270""
","""event"",""trial"",""time""
""blur"",""0"",""0""
""blur"",""3"",""16386""
","""event"",""trial"",""time""
""focus"",""0"",""0""
""focus"",""3"",""21270""
","""event"",""trial"",""time""
""fullscreenenter"",""0"",""2351""
","""event"",""trial"",""time""
""fullscreenexit"",""3"",""13332""
",null,"<div style=""font-size:60px;"">+</div>",NA,null,fixation,2020-06-21T01:19:41Z,NA,NA,NA,NA,NA,sub103
NA,mars-trial,104,417021,0.0-10.0-1.45,"""event"",""trial"",""time""
""blur"",""0"",""0""
""focus"",""0"",""0""
""fullscreenenter"",""0"",""2351""
""fullscreenexit"",""3"",""13332""
""blur"",""3"",""16386""
""focus"",""3"",""21270""
","""event"",""trial"",""time""
""blur"",""0"",""0""
""blur"",""3"",""16386""
","""event"",""trial"",""time""
""focus"",""0"",""0""
""focus"",""3"",""21270""
","""event"",""trial"",""time""
""fullscreenenter"",""0"",""2351""
","""event"",""trial"",""time""
""fullscreenexit"",""3"",""13332""
",2083.7700000001932,<img style='border: 4px solid darkgrey;' src='img/tf1_46_M_ss3.jpeg'></img>,2,NA,exp,NA,2,<img src='img/tf1_46_T1_ss3_md.jpeg'></img>,0,FALSE,NA,sub103
NA,html-keyboard-response,105,417529,0.0-10.0-0.46,"""event"",""trial"",""time""
""blur"",""0"",""0""
""focus"",""0"",""0""
""fullscreenenter"",""0"",""2351""
""fullscreenexit"",""3"",""13332""
""blur"",""3"",""16386""
""focus"",""3"",""21270""
","""event"",""trial"",""time""
""blur"",""0"",""0""
""blur"",""3"",""16386""
","""event"",""trial"",""time""
""focus"",""0"",""0""
""focus"",""3"",""21270""
","""event"",""trial"",""time""
""fullscreenenter"",""0"",""2351""
","""event"",""trial"",""time""
""fullscreenexit"",""3"",""13332""
",null,"<div style=""font-size:60px;"">+</div>",NA,null,fixation,2020-06-21T01:19:44Z,NA,NA,NA,NA,NA,sub103
NA,mars-trial,106,419601,0.0-10.0-1.46,"""event"",""trial"",""time""
""blur"",""0"",""0""
""focus"",""0"",""0""
""fullscreenenter"",""0"",""2351""
""fullscreenexit"",""3"",""13332""
""blur"",""3"",""16386""
""focus"",""3"",""21270""
","""event"",""trial"",""time""
""blur"",""0"",""0""
""blur"",""3"",""16386""
","""event"",""trial"",""time""
""focus"",""0"",""0""
""focus"",""3"",""21270""
","""event"",""trial"",""time""
""fullscreenenter"",""0"",""2351""
","""event"",""trial"",""time""
""fullscreenexit"",""3"",""13332""
",1449.1299999999464,<img style='border: 4px solid darkgrey;' src='img/tf1_47_M_ss1.jpeg'></img>,1,NA,exp,NA,0,<img src='img/tf1_47_T1_ss1_md.jpeg'></img>,0,TRUE,NA,sub103
NA,html-keyboard-response,107,420114,0.0-10.0-0.47,"""event"",""trial"",""time""
""blur"",""0"",""0""
""focus"",""0"",""0""
""fullscreenenter"",""0"",""2351""
""fullscreenexit"",""3"",""13332""
""blur"",""3"",""16386""
""focus"",""3"",""21270""
","""event"",""trial"",""time""
""blur"",""0"",""0""
""blur"",""3"",""16386""
","""event"",""trial"",""time""
""focus"",""0"",""0""
""focus"",""3"",""21270""
","""event"",""trial"",""time""
""fullscreenenter"",""0"",""2351""
","""event"",""trial"",""time""
""fullscreenexit"",""3"",""13332""
",null,"<div style=""font-size:60px;"">+</div>",NA,null,fixation,2020-06-21T01:19:46Z,NA,NA,NA,NA,NA,sub103
NA,mars-trial,108,423001,0.0-10.0-1.47,"""event"",""trial"",""time""
""blur"",""0"",""0""
""focus"",""0"",""0""
""fullscreenenter"",""0"",""2351""
""fullscreenexit"",""3"",""13332""
""blur"",""3"",""16386""
""focus"",""3"",""21270""
","""event"",""trial"",""time""
""blur"",""0"",""0""
""blur"",""3"",""16386""
","""event"",""trial"",""time""
""focus"",""0"",""0""
""focus"",""3"",""21270""
","""event"",""trial"",""time""
""fullscreenenter"",""0"",""2351""
","""event"",""trial"",""time""
""fullscreenexit"",""3"",""13332""
",2276.254999999772,<img style='border: 4px solid darkgrey;' src='img/tf1_48_M_ss2.jpeg'></img>,3,NA,exp,NA,3,<img src='img/tf1_48_T1_ss2_md.jpeg'></img>,0,FALSE,NA,sub103
NA,html-keyboard-response,109,423511,0.0-10.0-0.48,"""event"",""trial"",""time""
""blur"",""0"",""0""
""focus"",""0"",""0""
""fullscreenenter"",""0"",""2351""
""fullscreenexit"",""3"",""13332""
""blur"",""3"",""16386""
""focus"",""3"",""21270""
","""event"",""trial"",""time""
""blur"",""0"",""0""
""blur"",""3"",""16386""
","""event"",""trial"",""time""
""focus"",""0"",""0""
""focus"",""3"",""21270""
","""event"",""trial"",""time""
""fullscreenenter"",""0"",""2351""
","""event"",""trial"",""time""
""fullscreenexit"",""3"",""13332""
",null,"<div style=""font-size:60px;"">+</div>",NA,null,fixation,2020-06-21T01:19:50Z,NA,NA,NA,NA,NA,sub103
NA,mars-trial,110,430759,0.0-10.0-1.48,"""event"",""trial"",""time""
""blur"",""0"",""0""
""focus"",""0"",""0""
""fullscreenenter"",""0"",""2351""
""fullscreenexit"",""3"",""13332""
""blur"",""3"",""16386""
""focus"",""3"",""21270""
","""event"",""trial"",""time""
""blur"",""0"",""0""
""blur"",""3"",""16386""
","""event"",""trial"",""time""
""focus"",""0"",""0""
""focus"",""3"",""21270""
","""event"",""trial"",""time""
""fullscreenenter"",""0"",""2351""
","""event"",""trial"",""time""
""fullscreenexit"",""3"",""13332""
",6629.225000000151,<img style='border: 4px solid darkgrey;' src='img/tf1_49_M_ss3.jpeg'></img>,0,NA,exp,NA,0,<img src='img/tf1_49_T1_ss3_md.jpeg'></img>,0,TRUE,NA,sub103
NA,html-keyboard-response,111,431266,0.0-10.0-0.49,"""event"",""trial"",""time""
""blur"",""0"",""0""
""focus"",""0"",""0""
""fullscreenenter"",""0"",""2351""
""fullscreenexit"",""3"",""13332""
""blur"",""3"",""16386""
""focus"",""3"",""21270""
","""event"",""trial"",""time""
""blur"",""0"",""0""
""blur"",""3"",""16386""
","""event"",""trial"",""time""
""focus"",""0"",""0""
""focus"",""3"",""21270""
","""event"",""trial"",""time""
""fullscreenenter"",""0"",""2351""
","""event"",""trial"",""time""
""fullscreenexit"",""3"",""13332""
",null,"<div style=""font-size:60px;"">+</div>",NA,null,fixation,2020-06-21T01:19:58Z,NA,NA,NA,NA,NA,sub103
NA,mars-trial,112,443990,0.0-10.0-1.49,"""event"",""trial"",""time""
""blur"",""0"",""0""
""focus"",""0"",""0""
""fullscreenenter"",""0"",""2351""
""fullscreenexit"",""3"",""13332""
""blur"",""3"",""16386""
""focus"",""3"",""21270""
","""event"",""trial"",""time""
""blur"",""0"",""0""
""blur"",""3"",""16386""
","""event"",""trial"",""time""
""focus"",""0"",""0""
""focus"",""3"",""21270""
","""event"",""trial"",""time""
""fullscreenenter"",""0"",""2351""
","""event"",""trial"",""time""
""fullscreenexit"",""3"",""13332""
",12113.745000000112,<img style='border: 4px solid darkgrey;' src='img/tf1_50_M_ss1.jpeg'></img>,0,NA,exp,NA,0,<img src='img/tf1_50_T1_ss1_md.jpeg'></img>,0,TRUE,NA,sub103
NA,html-keyboard-response,113,444497,0.0-10.0-0.50,"""event"",""trial"",""time""
""blur"",""0"",""0""
""focus"",""0"",""0""
""fullscreenenter"",""0"",""2351""
""fullscreenexit"",""3"",""13332""
""blur"",""3"",""16386""
""focus"",""3"",""21270""
","""event"",""trial"",""time""
""blur"",""0"",""0""
""blur"",""3"",""16386""
","""event"",""trial"",""time""
""focus"",""0"",""0""
""focus"",""3"",""21270""
","""event"",""trial"",""time""
""fullscreenenter"",""0"",""2351""
","""event"",""trial"",""time""
""fullscreenexit"",""3"",""13332""
",null,"<div style=""font-size:60px;"">+</div>",NA,null,fixation,2020-06-21T01:20:11Z,NA,NA,NA,NA,NA,sub103
NA,mars-trial,114,449579,0.0-10.0-1.50,"""event"",""trial"",""time""
""blur"",""0"",""0""
""focus"",""0"",""0""
""fullscreenenter"",""0"",""2351""
""fullscreenexit"",""3"",""13332""
""blur"",""3"",""16386""
""focus"",""3"",""21270""
","""event"",""trial"",""time""
""blur"",""0"",""0""
""blur"",""3"",""16386""
","""event"",""trial"",""time""
""focus"",""0"",""0""
""focus"",""3"",""21270""
","""event"",""trial"",""time""
""fullscreenenter"",""0"",""2351""
","""event"",""trial"",""time""
""fullscreenexit"",""3"",""13332""
",4472.605000000389,<img style='border: 4px solid darkgrey;' src='img/tf1_51_M_ss2.jpeg'></img>,2,NA,exp,NA,0,<img src='img/tf1_51_T1_ss2_md.jpeg'></img>,0,TRUE,NA,sub103
NA,html-keyboard-response,115,450088,0.0-10.0-0.51,"""event"",""trial"",""time""
""blur"",""0"",""0""
""focus"",""0"",""0""
""fullscreenenter"",""0"",""2351""
""fullscreenexit"",""3"",""13332""
""blur"",""3"",""16386""
""focus"",""3"",""21270""
","""event"",""trial"",""time""
""blur"",""0"",""0""
""blur"",""3"",""16386""
","""event"",""trial"",""time""
""focus"",""0"",""0""
""focus"",""3"",""21270""
","""event"",""trial"",""time""
""fullscreenenter"",""0"",""2351""
","""event"",""trial"",""time""
""fullscreenexit"",""3"",""13332""
",null,"<div style=""font-size:60px;"">+</div>",NA,null,fixation,2020-06-21T01:20:16Z,NA,NA,NA,NA,NA,sub103
NA,mars-trial,116,461328,0.0-10.0-1.51,"""event"",""trial"",""time""
""blur"",""0"",""0""
""focus"",""0"",""0""
""fullscreenenter"",""0"",""2351""
""fullscreenexit"",""3"",""13332""
""blur"",""3"",""16386""
""focus"",""3"",""21270""
","""event"",""trial"",""time""
""blur"",""0"",""0""
""blur"",""3"",""16386""
","""event"",""trial"",""time""
""focus"",""0"",""0""
""focus"",""3"",""21270""
","""event"",""trial"",""time""
""fullscreenenter"",""0"",""2351""
","""event"",""trial"",""time""
""fullscreenexit"",""3"",""13332""
",10630.09999999986,<img style='border: 4px solid darkgrey;' src='img/tf1_52_M_ss3.jpeg'></img>,1,NA,exp,NA,1,<img src='img/tf1_52_T1_ss3_md.jpeg'></img>,0,FALSE,NA,sub103
NA,html-keyboard-response,117,461837,0.0-10.0-0.52,"""event"",""trial"",""time""
""blur"",""0"",""0""
""focus"",""0"",""0""
""fullscreenenter"",""0"",""2351""
""fullscreenexit"",""3"",""13332""
""blur"",""3"",""16386""
""focus"",""3"",""21270""
","""event"",""trial"",""time""
""blur"",""0"",""0""
""blur"",""3"",""16386""
","""event"",""trial"",""time""
""focus"",""0"",""0""
""focus"",""3"",""21270""
","""event"",""trial"",""time""
""fullscreenenter"",""0"",""2351""
","""event"",""trial"",""time""
""fullscreenexit"",""3"",""13332""
",null,"<div style=""font-size:60px;"">+</div>",NA,null,fixation,2020-06-21T01:20:28Z,NA,NA,NA,NA,NA,sub103
NA,mars-trial,118,467160,0.0-10.0-1.52,"""event"",""trial"",""time""
""blur"",""0"",""0""
""focus"",""0"",""0""
""fullscreenenter"",""0"",""2351""
""fullscreenexit"",""3"",""13332""
""blur"",""3"",""16386""
""focus"",""3"",""21270""
","""event"",""trial"",""time""
""blur"",""0"",""0""
""blur"",""3"",""16386""
","""event"",""trial"",""time""
""focus"",""0"",""0""
""focus"",""3"",""21270""
","""event"",""trial"",""time""
""fullscreenenter"",""0"",""2351""
","""event"",""trial"",""time""
""fullscreenexit"",""3"",""13332""
",4707.774999999849,<img style='border: 4px solid darkgrey;' src='img/tf1_53_M_ss1.jpeg'></img>,2,NA,exp,NA,1,<img src='img/tf1_53_T1_ss1_md.jpeg'></img>,0,FALSE,NA,sub103
NA,html-keyboard-response,119,467670,0.0-10.0-0.53,"""event"",""trial"",""time""
""blur"",""0"",""0""
""focus"",""0"",""0""
""fullscreenenter"",""0"",""2351""
""fullscreenexit"",""3"",""13332""
""blur"",""3"",""16386""
""focus"",""3"",""21270""
","""event"",""trial"",""time""
""blur"",""0"",""0""
""blur"",""3"",""16386""
","""event"",""trial"",""time""
""focus"",""0"",""0""
""focus"",""3"",""21270""
","""event"",""trial"",""time""
""fullscreenenter"",""0"",""2351""
","""event"",""trial"",""time""
""fullscreenexit"",""3"",""13332""
",null,"<div style=""font-size:60px;"">+</div>",NA,null,fixation,2020-06-21T01:20:34Z,NA,NA,NA,NA,NA,sub103
NA,mars-trial,120,470676,0.0-10.0-1.53,"""event"",""trial"",""time""
""blur"",""0"",""0""
""focus"",""0"",""0""
""fullscreenenter"",""0"",""2351""
""fullscreenexit"",""3"",""13332""
""blur"",""3"",""16386""
""focus"",""3"",""21270""
","""event"",""trial"",""time""
""blur"",""0"",""0""
""blur"",""3"",""16386""
","""event"",""trial"",""time""
""focus"",""0"",""0""
""focus"",""3"",""21270""
","""event"",""trial"",""time""
""fullscreenenter"",""0"",""2351""
","""event"",""trial"",""time""
""fullscreenexit"",""3"",""13332""
",2391.3749999996508,<img style='border: 4px solid darkgrey;' src='img/tf1_54_M_ss2.jpeg'></img>,1,NA,exp,NA,0,<img src='img/tf1_54_T1_ss2_md.jpeg'></img>,0,TRUE,NA,sub103
NA,html-keyboard-response,121,471185,0.0-10.0-0.54,"""event"",""trial"",""time""
""blur"",""0"",""0""
""focus"",""0"",""0""
""fullscreenenter"",""0"",""2351""
""fullscreenexit"",""3"",""13332""
""blur"",""3"",""16386""
""focus"",""3"",""21270""
","""event"",""trial"",""time""
""blur"",""0"",""0""
""blur"",""3"",""16386""
","""event"",""trial"",""time""
""focus"",""0"",""0""
""focus"",""3"",""21270""
","""event"",""trial"",""time""
""fullscreenenter"",""0"",""2351""
","""event"",""trial"",""time""
""fullscreenexit"",""3"",""13332""
",null,"<div style=""font-size:60px;"">+</div>",NA,null,fixation,2020-06-21T01:20:38Z,NA,NA,NA,NA,NA,sub103
NA,mars-trial,122,474175,0.0-10.0-1.54,"""event"",""trial"",""time""
""blur"",""0"",""0""
""focus"",""0"",""0""
""fullscreenenter"",""0"",""2351""
""fullscreenexit"",""3"",""13332""
""blur"",""3"",""16386""
""focus"",""3"",""21270""
","""event"",""trial"",""time""
""blur"",""0"",""0""
""blur"",""3"",""16386""
","""event"",""trial"",""time""
""focus"",""0"",""0""
""focus"",""3"",""21270""
","""event"",""trial"",""time""
""fullscreenenter"",""0"",""2351""
","""event"",""trial"",""time""
""fullscreenexit"",""3"",""13332""
",2376.250000000233,<img style='border: 4px solid darkgrey;' src='img/tf1_55_M_ss3.jpeg'></img>,2,NA,exp,NA,1,<img src='img/tf1_55_T1_ss3_md.jpeg'></img>,0,FALSE,NA,sub103
NA,html-keyboard-response,123,474685,0.0-10.0-0.55,"""event"",""trial"",""time""
""blur"",""0"",""0""
""focus"",""0"",""0""
""fullscreenenter"",""0"",""2351""
""fullscreenexit"",""3"",""13332""
""blur"",""3"",""16386""
""focus"",""3"",""21270""
","""event"",""trial"",""time""
""blur"",""0"",""0""
""blur"",""3"",""16386""
","""event"",""trial"",""time""
""focus"",""0"",""0""
""focus"",""3"",""21270""
","""event"",""trial"",""time""
""fullscreenenter"",""0"",""2351""
","""event"",""trial"",""time""
""fullscreenexit"",""3"",""13332""
",null,"<div style=""font-size:60px;"">+</div>",NA,null,fixation,2020-06-21T01:20:41Z,NA,NA,NA,NA,NA,sub103
NA,mars-trial,124,476753,0.0-10.0-1.55,"""event"",""trial"",""time""
""blur"",""0"",""0""
""focus"",""0"",""0""
""fullscreenenter"",""0"",""2351""
""fullscreenexit"",""3"",""13332""
""blur"",""3"",""16386""
""focus"",""3"",""21270""
","""event"",""trial"",""time""
""blur"",""0"",""0""
""blur"",""3"",""16386""
","""event"",""trial"",""time""
""focus"",""0"",""0""
""focus"",""3"",""21270""
","""event"",""trial"",""time""
""fullscreenenter"",""0"",""2351""
","""event"",""trial"",""time""
""fullscreenexit"",""3"",""13332""
",1450.0849999999627,<img style='border: 4px solid darkgrey;' src='img/tf1_56_M_ss1.jpeg'></img>,1,NA,exp,NA,1,<img src='img/tf1_56_T1_ss1_md.jpeg'></img>,0,FALSE,NA,sub103
NA,html-keyboard-response,125,477258,0.0-10.0-0.56,"""event"",""trial"",""time""
""blur"",""0"",""0""
""focus"",""0"",""0""
""fullscreenenter"",""0"",""2351""
""fullscreenexit"",""3"",""13332""
""blur"",""3"",""16386""
""focus"",""3"",""21270""
","""event"",""trial"",""time""
""blur"",""0"",""0""
""blur"",""3"",""16386""
","""event"",""trial"",""time""
""focus"",""0"",""0""
""focus"",""3"",""21270""
","""event"",""trial"",""time""
""fullscreenenter"",""0"",""2351""
","""event"",""trial"",""time""
""fullscreenexit"",""3"",""13332""
",null,"<div style=""font-size:60px;"">+</div>",NA,null,fixation,2020-06-21T01:20:44Z,NA,NA,NA,NA,NA,sub103
NA,mars-trial,126,487556,0.0-10.0-1.56,"""event"",""trial"",""time""
""blur"",""0"",""0""
""focus"",""0"",""0""
""fullscreenenter"",""0"",""2351""
""fullscreenexit"",""3"",""13332""
""blur"",""3"",""16386""
""focus"",""3"",""21270""
","""event"",""trial"",""time""
""blur"",""0"",""0""
""blur"",""3"",""16386""
","""event"",""trial"",""time""
""focus"",""0"",""0""
""focus"",""3"",""21270""
","""event"",""trial"",""time""
""fullscreenenter"",""0"",""2351""
","""event"",""trial"",""time""
""fullscreenexit"",""3"",""13332""
",9688.845000000147,<img style='border: 4px solid darkgrey;' src='img/tf1_57_M_ss2.jpeg'></img>,3,NA,exp,NA,0,<img src='img/tf1_57_T1_ss2_md.jpeg'></img>,0,TRUE,NA,sub103
NA,html-keyboard-response,127,488066,0.0-10.0-0.57,"""event"",""trial"",""time""
""blur"",""0"",""0""
""focus"",""0"",""0""
""fullscreenenter"",""0"",""2351""
""fullscreenexit"",""3"",""13332""
""blur"",""3"",""16386""
""focus"",""3"",""21270""
","""event"",""trial"",""time""
""blur"",""0"",""0""
""blur"",""3"",""16386""
","""event"",""trial"",""time""
""focus"",""0"",""0""
""focus"",""3"",""21270""
","""event"",""trial"",""time""
""fullscreenenter"",""0"",""2351""
","""event"",""trial"",""time""
""fullscreenexit"",""3"",""13332""
",null,"<div style=""font-size:60px;"">+</div>",NA,null,fixation,2020-06-21T01:20:54Z,NA,NA,NA,NA,NA,sub103
NA,mars-trial,128,506614,0.0-10.0-1.57,"""event"",""trial"",""time""
""blur"",""0"",""0""
""focus"",""0"",""0""
""fullscreenenter"",""0"",""2351""
""fullscreenexit"",""3"",""13332""
""blur"",""3"",""16386""
""focus"",""3"",""21270""
","""event"",""trial"",""time""
""blur"",""0"",""0""
""blur"",""3"",""16386""
","""event"",""trial"",""time""
""focus"",""0"",""0""
""focus"",""3"",""21270""
","""event"",""trial"",""time""
""fullscreenenter"",""0"",""2351""
","""event"",""trial"",""time""
""fullscreenexit"",""3"",""13332""
",17930.559999999707,<img style='border: 4px solid darkgrey;' src='img/tf1_58_M_ss3.jpeg'></img>,3,NA,exp,NA,0,<img src='img/tf1_58_T1_ss3_md.jpeg'></img>,0,TRUE,NA,sub103
NA,html-keyboard-response,129,507119,0.0-10.0-0.58,"""event"",""trial"",""time""
""blur"",""0"",""0""
""focus"",""0"",""0""
""fullscreenenter"",""0"",""2351""
""fullscreenexit"",""3"",""13332""
""blur"",""3"",""16386""
""focus"",""3"",""21270""
","""event"",""trial"",""time""
""blur"",""0"",""0""
""blur"",""3"",""16386""
","""event"",""trial"",""time""
""focus"",""0"",""0""
""focus"",""3"",""21270""
","""event"",""trial"",""time""
""fullscreenenter"",""0"",""2351""
","""event"",""trial"",""time""
""fullscreenexit"",""3"",""13332""
",null,"<div style=""font-size:60px;"">+</div>",NA,null,fixation,2020-06-21T01:21:13Z,NA,NA,NA,NA,NA,sub103
NA,mars-trial,130,510296,0.0-10.0-1.58,"""event"",""trial"",""time""
""blur"",""0"",""0""
""focus"",""0"",""0""
""fullscreenenter"",""0"",""2351""
""fullscreenexit"",""3"",""13332""
""blur"",""3"",""16386""
""focus"",""3"",""21270""
","""event"",""trial"",""time""
""blur"",""0"",""0""
""blur"",""3"",""16386""
","""event"",""trial"",""time""
""focus"",""0"",""0""
""focus"",""3"",""21270""
","""event"",""trial"",""time""
""fullscreenenter"",""0"",""2351""
","""event"",""trial"",""time""
""fullscreenexit"",""3"",""13332""
",2556.2700000000186,<img style='border: 4px solid darkgrey;' src='img/tf1_59_M_ss1.jpeg'></img>,1,NA,exp,NA,2,<img src='img/tf1_59_T1_ss1_md.jpeg'></img>,0,FALSE,NA,sub103
NA,html-keyboard-response,131,510802,0.0-10.0-0.59,"""event"",""trial"",""time""
""blur"",""0"",""0""
""focus"",""0"",""0""
""fullscreenenter"",""0"",""2351""
""fullscreenexit"",""3"",""13332""
""blur"",""3"",""16386""
""focus"",""3"",""21270""
","""event"",""trial"",""time""
""blur"",""0"",""0""
""blur"",""3"",""16386""
","""event"",""trial"",""time""
""focus"",""0"",""0""
""focus"",""3"",""21270""
","""event"",""trial"",""time""
""fullscreenenter"",""0"",""2351""
","""event"",""trial"",""time""
""fullscreenexit"",""3"",""13332""
",null,"<div style=""font-size:60px;"">+</div>",NA,null,fixation,2020-06-21T01:21:17Z,NA,NA,NA,NA,NA,sub103
NA,mars-trial,132,513702,0.0-10.0-1.59,"""event"",""trial"",""time""
""blur"",""0"",""0""
""focus"",""0"",""0""
""fullscreenenter"",""0"",""2351""
""fullscreenexit"",""3"",""13332""
""blur"",""3"",""16386""
""focus"",""3"",""21270""
","""event"",""trial"",""time""
""blur"",""0"",""0""
""blur"",""3"",""16386""
","""event"",""trial"",""time""
""focus"",""0"",""0""
""focus"",""3"",""21270""
","""event"",""trial"",""time""
""fullscreenenter"",""0"",""2351""
","""event"",""trial"",""time""
""fullscreenexit"",""3"",""13332""
",2291.045000000391,<img style='border: 4px solid darkgrey;' src='img/tf1_60_M_ss2.jpeg'></img>,1,NA,exp,NA,1,<img src='img/tf1_60_T1_ss2_md.jpeg'></img>,0,FALSE,NA,sub103
NA,html-keyboard-response,133,514212,0.0-10.0-0.60,"""event"",""trial"",""time""
""blur"",""0"",""0""
""focus"",""0"",""0""
""fullscreenenter"",""0"",""2351""
""fullscreenexit"",""3"",""13332""
""blur"",""3"",""16386""
""focus"",""3"",""21270""
","""event"",""trial"",""time""
""blur"",""0"",""0""
""blur"",""3"",""16386""
","""event"",""trial"",""time""
""focus"",""0"",""0""
""focus"",""3"",""21270""
","""event"",""trial"",""time""
""fullscreenenter"",""0"",""2351""
","""event"",""trial"",""time""
""fullscreenexit"",""3"",""13332""
",null,"<div style=""font-size:60px;"">+</div>",NA,null,fixation,2020-06-21T01:21:21Z,NA,NA,NA,NA,NA,sub103
NA,mars-trial,134,516752,0.0-10.0-1.60,"""event"",""trial"",""time""
""blur"",""0"",""0""
""focus"",""0"",""0""
""fullscreenenter"",""0"",""2351""
""fullscreenexit"",""3"",""13332""
""blur"",""3"",""16386""
""focus"",""3"",""21270""
","""event"",""trial"",""time""
""blur"",""0"",""0""
""blur"",""3"",""16386""
","""event"",""trial"",""time""
""focus"",""0"",""0""
""focus"",""3"",""21270""
","""event"",""trial"",""time""
""fullscreenenter"",""0"",""2351""
","""event"",""trial"",""time""
""fullscreenexit"",""3"",""13332""
",1930.0600000001723,<img style='border: 4px solid darkgrey;' src='img/tf1_61_M_ss3.jpeg'></img>,0,NA,exp,NA,2,<img src='img/tf1_61_T1_ss3_md.jpeg'></img>,0,FALSE,NA,sub103
NA,html-keyboard-response,135,517260,0.0-10.0-0.61,"""event"",""trial"",""time""
""blur"",""0"",""0""
""focus"",""0"",""0""
""fullscreenenter"",""0"",""2351""
""fullscreenexit"",""3"",""13332""
""blur"",""3"",""16386""
""focus"",""3"",""21270""
","""event"",""trial"",""time""
""blur"",""0"",""0""
""blur"",""3"",""16386""
","""event"",""trial"",""time""
""focus"",""0"",""0""
""focus"",""3"",""21270""
","""event"",""trial"",""time""
""fullscreenenter"",""0"",""2351""
","""event"",""trial"",""time""
""fullscreenexit"",""3"",""13332""
",null,"<div style=""font-size:60px;"">+</div>",NA,null,fixation,2020-06-21T01:21:24Z,NA,NA,NA,NA,NA,sub103
NA,mars-trial,136,525883,0.0-10.0-1.61,"""event"",""trial"",""time""
""blur"",""0"",""0""
""focus"",""0"",""0""
""fullscreenenter"",""0"",""2351""
""fullscreenexit"",""3"",""13332""
""blur"",""3"",""16386""
""focus"",""3"",""21270""
","""event"",""trial"",""time""
""blur"",""0"",""0""
""blur"",""3"",""16386""
","""event"",""trial"",""time""
""focus"",""0"",""0""
""focus"",""3"",""21270""
","""event"",""trial"",""time""
""fullscreenenter"",""0"",""2351""
","""event"",""trial"",""time""
""fullscreenexit"",""3"",""13332""
",8007.749999999651,<img style='border: 4px solid darkgrey;' src='img/tf1_62_M_ss1.jpeg'></img>,3,NA,exp,NA,0,<img src='img/tf1_62_T1_ss1_md.jpeg'></img>,0,TRUE,NA,sub103
NA,html-keyboard-response,137,526392,0.0-10.0-0.62,"""event"",""trial"",""time""
""blur"",""0"",""0""
""focus"",""0"",""0""
""fullscreenenter"",""0"",""2351""
""fullscreenexit"",""3"",""13332""
""blur"",""3"",""16386""
""focus"",""3"",""21270""
","""event"",""trial"",""time""
""blur"",""0"",""0""
""blur"",""3"",""16386""
","""event"",""trial"",""time""
""focus"",""0"",""0""
""focus"",""3"",""21270""
","""event"",""trial"",""time""
""fullscreenenter"",""0"",""2351""
","""event"",""trial"",""time""
""fullscreenexit"",""3"",""13332""
",null,"<div style=""font-size:60px;"">+</div>",NA,null,fixation,2020-06-21T01:21:33Z,NA,NA,NA,NA,NA,sub103
NA,mars-trial,138,533832,0.0-10.0-1.62,"""event"",""trial"",""time""
""blur"",""0"",""0""
""focus"",""0"",""0""
""fullscreenenter"",""0"",""2351""
""fullscreenexit"",""3"",""13332""
""blur"",""3"",""16386""
""focus"",""3"",""21270""
","""event"",""trial"",""time""
""blur"",""0"",""0""
""blur"",""3"",""16386""
","""event"",""trial"",""time""
""focus"",""0"",""0""
""focus"",""3"",""21270""
","""event"",""trial"",""time""
""fullscreenenter"",""0"",""2351""
","""event"",""trial"",""time""
""fullscreenexit"",""3"",""13332""
",6827.290000000154,<img style='border: 4px solid darkgrey;' src='img/tf1_63_M_ss2.jpeg'></img>,2,NA,exp,NA,3,<img src='img/tf1_63_T1_ss2_md.jpeg'></img>,0,FALSE,NA,sub103
NA,html-keyboard-response,139,534341,0.0-10.0-0.63,"""event"",""trial"",""time""
""blur"",""0"",""0""
""focus"",""0"",""0""
""fullscreenenter"",""0"",""2351""
""fullscreenexit"",""3"",""13332""
""blur"",""3"",""16386""
""focus"",""3"",""21270""
","""event"",""trial"",""time""
""blur"",""0"",""0""
""blur"",""3"",""16386""
","""event"",""trial"",""time""
""focus"",""0"",""0""
""focus"",""3"",""21270""
","""event"",""trial"",""time""
""fullscreenenter"",""0"",""2351""
","""event"",""trial"",""time""
""fullscreenexit"",""3"",""13332""
",null,"<div style=""font-size:60px;"">+</div>",NA,null,fixation,2020-06-21T01:21:41Z,NA,NA,NA,NA,NA,sub103
NA,mars-trial,140,537465,0.0-10.0-1.63,"""event"",""trial"",""time""
""blur"",""0"",""0""
""focus"",""0"",""0""
""fullscreenenter"",""0"",""2351""
""fullscreenexit"",""3"",""13332""
""blur"",""3"",""16386""
""focus"",""3"",""21270""
","""event"",""trial"",""time""
""blur"",""0"",""0""
""blur"",""3"",""16386""
","""event"",""trial"",""time""
""focus"",""0"",""0""
""focus"",""3"",""21270""
","""event"",""trial"",""time""
""fullscreenenter"",""0"",""2351""
","""event"",""trial"",""time""
""fullscreenexit"",""3"",""13332""
",2507.814999999944,<img style='border: 4px solid darkgrey;' src='img/tf1_64_M_ss3.jpeg'></img>,3,NA,exp,NA,0,<img src='img/tf1_64_T1_ss3_md.jpeg'></img>,0,TRUE,NA,sub103
NA,html-keyboard-response,141,537975,0.0-10.0-0.64,"""event"",""trial"",""time""
""blur"",""0"",""0""
""focus"",""0"",""0""
""fullscreenenter"",""0"",""2351""
""fullscreenexit"",""3"",""13332""
""blur"",""3"",""16386""
""focus"",""3"",""21270""
","""event"",""trial"",""time""
""blur"",""0"",""0""
""blur"",""3"",""16386""
","""event"",""trial"",""time""
""focus"",""0"",""0""
""focus"",""3"",""21270""
","""event"",""trial"",""time""
""fullscreenenter"",""0"",""2351""
","""event"",""trial"",""time""
""fullscreenexit"",""3"",""13332""
",null,"<div style=""font-size:60px;"">+</div>",NA,null,fixation,2020-06-21T01:21:44Z,NA,NA,NA,NA,NA,sub103
NA,mars-trial,142,543873,0.0-10.0-1.64,"""event"",""trial"",""time""
""blur"",""0"",""0""
""focus"",""0"",""0""
""fullscreenenter"",""0"",""2351""
""fullscreenexit"",""3"",""13332""
""blur"",""3"",""16386""
""focus"",""3"",""21270""
","""event"",""trial"",""time""
""blur"",""0"",""0""
""blur"",""3"",""16386""
","""event"",""trial"",""time""
""focus"",""0"",""0""
""focus"",""3"",""21270""
","""event"",""trial"",""time""
""fullscreenenter"",""0"",""2351""
","""event"",""trial"",""time""
""fullscreenexit"",""3"",""13332""
",NA,NA,NA,NA,exp,NA,NA,<img src='img/tf1_65_T1_ss1_md.jpeg'></img>,0,FALSE,NA,sub103
NA,html-keyboard-response,143,544380,0.0-10.0-0.65,"""event"",""trial"",""time""
""blur"",""0"",""0""
""focus"",""0"",""0""
""fullscreenenter"",""0"",""2351""
""fullscreenexit"",""3"",""13332""
""blur"",""3"",""16386""
""focus"",""3"",""21270""
","""event"",""trial"",""time""
""blur"",""0"",""0""
""blur"",""3"",""16386""
","""event"",""trial"",""time""
""focus"",""0"",""0""
""focus"",""3"",""21270""
","""event"",""trial"",""time""
""fullscreenenter"",""0"",""2351""
","""event"",""trial"",""time""
""fullscreenexit"",""3"",""13332""
",null,"<div style=""font-size:60px;"">+</div>",NA,null,fixation,2020-06-21T01:21:51Z,NA,NA,NA,NA,NA,sub103
NA,audio-button-response,144,549350,0.0-11.0,"""event"",""trial"",""time""
""blur"",""0"",""0""
""focus"",""0"",""0""
""fullscreenenter"",""0"",""2351""
""fullscreenexit"",""3"",""13332""
""blur"",""3"",""16386""
""focus"",""3"",""21270""
","""event"",""trial"",""time""
""blur"",""0"",""0""
""blur"",""3"",""16386""
","""event"",""trial"",""time""
""focus"",""0"",""0""
""focus"",""3"",""21270""
","""event"",""trial"",""time""
""fullscreenenter"",""0"",""2351""
","""event"",""trial"",""time""
""fullscreenexit"",""3"",""13332""
",4865.725000000093,audio/mars_instructions_slide5.wav,0,NA,NA,NA,NA,NA,NA,NA,NA,sub103
