success,trial_type,trial_index,time_elapsed,internal_node_id,interactions,blur_events,focus_events,fullscreenenter_events,fullscreenexit_events,rt,stimulus,button_pressed,key_press,part,timestamp,unshuffled_button,correct_response,correct_button,correct,value,subject_id
TRUE,fullscreen,0,4000,0.0-0.0,"""event"",""trial"",""time""
""fullscreenenter"",""0"",""3009""
","
","
","""event"",""trial"",""time""
""fullscreenenter"",""0"",""3009""
","
",NA,NA,NA,NA,NA,NA,NA,NA,NA,NA,NA,sub128
NA,pavlovia,1,4018,0.0-1.0,"""event"",""trial"",""time""
""fullscreenenter"",""0"",""3009""
","
","
","""event"",""trial"",""time""
""fullscreenenter"",""0"",""3009""
","
",NA,NA,NA,NA,NA,NA,NA,NA,NA,NA,NA,sub128
NA,html-button-response,2,5601,0.0-2.0,"""event"",""trial"",""time""
""fullscreenenter"",""0"",""3009""
","
","
","""event"",""trial"",""time""
""fullscreenenter"",""0"",""3009""
","
",1576.0300000001735,<p>Welcome! Press START to begin.</p><br>,0,NA,NA,NA,NA,NA,NA,NA,NA,sub128
NA,audio-button-response,3,25089,0.0-3.0,"""event"",""trial"",""time""
""fullscreenenter"",""0"",""3009""
","
","
","""event"",""trial"",""time""
""fullscreenenter"",""0"",""3009""
","
",19478.845000000092,audio/mars_instructions_slide2.wav,0,NA,NA,NA,NA,NA,NA,NA,NA,sub128
NA,audio-button-response,4,41745,0.0-4.0,"""event"",""trial"",""time""
""fullscreenenter"",""0"",""3009""
","
","
","""event"",""trial"",""time""
""fullscreenenter"",""0"",""3009""
","
",16652.08999999959,audio/mars_instructions_slide3.wav,0,NA,NA,NA,NA,NA,NA,NA,NA,sub128
NA,html-keyboard-response,5,42255,0.0-5.0-0.0,"""event"",""trial"",""time""
""fullscreenenter"",""0"",""3009""
","
","
","""event"",""trial"",""time""
""fullscreenenter"",""0"",""3009""
","
",null,"<div style=""font-size:60px;"">+</div>",NA,null,fixation,2020-06-20T19:30:59Z,NA,NA,NA,NA,NA,sub128
NA,mars-trial,6,56598,0.0-5.0-1.0,"""event"",""trial"",""time""
""fullscreenenter"",""0"",""3009""
","
","
","""event"",""trial"",""time""
""fullscreenenter"",""0"",""3009""
","
",12218.335000000021,<img style='border: 4px solid darkgrey;' src='practice/pt1_M1.png'></img>,3,NA,practice,NA,0,<img src='practice/pt1_T1.png'></img>,0,TRUE,NA,sub128
NA,html-keyboard-response,7,57104,0.0-6.0-0.0,"""event"",""trial"",""time""
""fullscreenenter"",""0"",""3009""
","
","
","""event"",""trial"",""time""
""fullscreenenter"",""0"",""3009""
","
",null,"<div style=""font-size:60px;"">+</div>",NA,null,fixation,2020-06-20T19:31:14Z,NA,NA,NA,NA,NA,sub128
NA,mars-trial,8,63815,0.0-6.0-1.0,"""event"",""trial"",""time""
""fullscreenenter"",""0"",""3009""
","
","
","""event"",""trial"",""time""
""fullscreenenter"",""0"",""3009""
","
",4590.235000000117,<img style='border: 4px solid darkgrey;' src='practice/pt2_M1.png'></img>,2,NA,practice,NA,0,<img src='practice/pt2_T1.png'></img>,0,TRUE,NA,sub128
NA,html-keyboard-response,9,64322,0.0-7.0-0.0,"""event"",""trial"",""time""
""fullscreenenter"",""0"",""3009""
","
","
","""event"",""trial"",""time""
""fullscreenenter"",""0"",""3009""
","
",null,"<div style=""font-size:60px;"">+</div>",NA,null,fixation,2020-06-20T19:31:21Z,NA,NA,NA,NA,NA,sub128
NA,mars-trial,10,68759,0.0-7.0-1.0,"""event"",""trial"",""time""
""fullscreenenter"",""0"",""3009""
","
","
","""event"",""trial"",""time""
""fullscreenenter"",""0"",""3009""
","
",2319.1400000000576,<img style='border: 4px solid darkgrey;' src='practice/pt3_M1.png'></img>,2,NA,practice,NA,0,<img src='practice/pt3_T1.png'></img>,0,TRUE,NA,sub128
NA,audio-button-response,11,73115,0.0-8.0,"""event"",""trial"",""time""
""fullscreenenter"",""0"",""3009""
","
","
","""event"",""trial"",""time""
""fullscreenenter"",""0"",""3009""
","
",4349.515000000349,audio/mars_instructions_slide4.wav,0,NA,NA,NA,NA,NA,NA,NA,NA,sub128
NA,call-function,12,73118,0.0-9.0,"""event"",""trial"",""time""
""fullscreenenter"",""0"",""3009""
","
","
","""event"",""trial"",""time""
""fullscreenenter"",""0"",""3009""
","
",NA,NA,NA,NA,NA,NA,NA,NA,NA,NA,NA,sub128
NA,html-keyboard-response,13,73643,0.0-10.0-0.0,"""event"",""trial"",""time""
""fullscreenenter"",""0"",""3009""
","
","
","""event"",""trial"",""time""
""fullscreenenter"",""0"",""3009""
","
",null,"<div style=""font-size:60px;"">+</div>",NA,null,fixation,2020-06-20T19:31:30Z,NA,NA,NA,NA,NA,sub128
NA,mars-trial,14,77179,0.0-10.0-1.0,"""event"",""trial"",""time""
""fullscreenenter"",""0"",""3009""
","
","
","""event"",""trial"",""time""
""fullscreenenter"",""0"",""3009""
","
",2917.924999999741,<img style='border: 4px solid darkgrey;' src='img/tf1_1_M_ss3.jpeg'></img>,0,NA,exp,NA,0,<img src='img/tf1_1_T1_ss3_md.jpeg'></img>,0,TRUE,NA,sub128
NA,html-keyboard-response,15,77689,0.0-10.0-0.1,"""event"",""trial"",""time""
""fullscreenenter"",""0"",""3009""
","
","
","""event"",""trial"",""time""
""fullscreenenter"",""0"",""3009""
","
",null,"<div style=""font-size:60px;"">+</div>",NA,null,fixation,2020-06-20T19:31:34Z,NA,NA,NA,NA,NA,sub128
NA,mars-trial,16,81578,0.0-10.0-1.1,"""event"",""trial"",""time""
""fullscreenenter"",""0"",""3009""
","
","
","""event"",""trial"",""time""
""fullscreenenter"",""0"",""3009""
","
",3276.719999999841,<img style='border: 4px solid darkgrey;' src='img/tf1_2_M_ss1.jpeg'></img>,2,NA,exp,NA,0,<img src='img/tf1_2_T1_ss1_md.jpeg'></img>,0,TRUE,NA,sub128
NA,html-keyboard-response,17,82086,0.0-10.0-0.2,"""event"",""trial"",""time""
""fullscreenenter"",""0"",""3009""
","
","
","""event"",""trial"",""time""
""fullscreenenter"",""0"",""3009""
","
",null,"<div style=""font-size:60px;"">+</div>",NA,null,fixation,2020-06-20T19:31:39Z,NA,NA,NA,NA,NA,sub128
NA,mars-trial,18,85657,0.0-10.0-1.2,"""event"",""trial"",""time""
""fullscreenenter"",""0"",""3009""
","
","
","""event"",""trial"",""time""
""fullscreenenter"",""0"",""3009""
","
",2955.9099999996834,<img style='border: 4px solid darkgrey;' src='img/tf1_3_M_ss2.jpeg'></img>,1,NA,exp,NA,0,<img src='img/tf1_3_T1_ss2_md.jpeg'></img>,0,TRUE,NA,sub128
NA,html-keyboard-response,19,86162,0.0-10.0-0.3,"""event"",""trial"",""time""
""fullscreenenter"",""0"",""3009""
","
","
","""event"",""trial"",""time""
""fullscreenenter"",""0"",""3009""
","
",null,"<div style=""font-size:60px;"">+</div>",NA,null,fixation,2020-06-20T19:31:43Z,NA,NA,NA,NA,NA,sub128
NA,mars-trial,20,89931,0.0-10.0-1.3,"""event"",""trial"",""time""
""fullscreenenter"",""0"",""3009""
","
","
","""event"",""trial"",""time""
""fullscreenenter"",""0"",""3009""
","
",3149.355000000025,<img style='border: 4px solid darkgrey;' src='img/tf1_4_M_ss3.jpeg'></img>,3,NA,exp,NA,0,<img src='img/tf1_4_T1_ss3_md.jpeg'></img>,0,TRUE,NA,sub128
NA,html-keyboard-response,21,90438,0.0-10.0-0.4,"""event"",""trial"",""time""
""fullscreenenter"",""0"",""3009""
","
","
","""event"",""trial"",""time""
""fullscreenenter"",""0"",""3009""
","
",null,"<div style=""font-size:60px;"">+</div>",NA,null,fixation,2020-06-20T19:31:47Z,NA,NA,NA,NA,NA,sub128
NA,mars-trial,22,93459,0.0-10.0-1.4,"""event"",""trial"",""time""
""fullscreenenter"",""0"",""3009""
","
","
","""event"",""trial"",""time""
""fullscreenenter"",""0"",""3009""
","
",2404.500000000102,<img style='border: 4px solid darkgrey;' src='img/tf1_5_M_ss1.jpeg'></img>,3,NA,exp,NA,0,<img src='img/tf1_5_T1_ss1_md.jpeg'></img>,0,TRUE,NA,sub128
NA,html-keyboard-response,23,93962,0.0-10.0-0.5,"""event"",""trial"",""time""
""fullscreenenter"",""0"",""3009""
","
","
","""event"",""trial"",""time""
""fullscreenenter"",""0"",""3009""
","
",null,"<div style=""font-size:60px;"">+</div>",NA,null,fixation,2020-06-20T19:31:51Z,NA,NA,NA,NA,NA,sub128
NA,mars-trial,24,103929,0.0-10.0-1.5,"""event"",""trial"",""time""
""fullscreenenter"",""0"",""3009""
","
","
","""event"",""trial"",""time""
""fullscreenenter"",""0"",""3009""
","
",9350.820000000109,<img style='border: 4px solid darkgrey;' src='img/tf1_6_M_ss2.jpeg'></img>,2,NA,exp,NA,1,<img src='img/tf1_6_T1_ss2_md.jpeg'></img>,0,FALSE,NA,sub128
NA,html-keyboard-response,25,104434,0.0-10.0-0.6,"""event"",""trial"",""time""
""fullscreenenter"",""0"",""3009""
","
","
","""event"",""trial"",""time""
""fullscreenenter"",""0"",""3009""
","
",null,"<div style=""font-size:60px;"">+</div>",NA,null,fixation,2020-06-20T19:32:01Z,NA,NA,NA,NA,NA,sub128
NA,mars-trial,26,111708,0.0-10.0-1.6,"""event"",""trial"",""time""
""fullscreenenter"",""0"",""3009""
","
","
","""event"",""trial"",""time""
""fullscreenenter"",""0"",""3009""
","
",6649.890000000145,<img style='border: 4px solid darkgrey;' src='img/tf1_7_M_ss3.jpeg'></img>,0,NA,exp,NA,0,<img src='img/tf1_7_T1_ss3_md.jpeg'></img>,0,TRUE,NA,sub128
NA,html-keyboard-response,27,112214,0.0-10.0-0.7,"""event"",""trial"",""time""
""fullscreenenter"",""0"",""3009""
","
","
","""event"",""trial"",""time""
""fullscreenenter"",""0"",""3009""
","
",null,"<div style=""font-size:60px;"">+</div>",NA,null,fixation,2020-06-20T19:32:09Z,NA,NA,NA,NA,NA,sub128
NA,mars-trial,28,124365,0.0-10.0-1.7,"""event"",""trial"",""time""
""fullscreenenter"",""0"",""3009""
","
","
","""event"",""trial"",""time""
""fullscreenenter"",""0"",""3009""
","
",11533.224999999686,<img style='border: 4px solid darkgrey;' src='img/tf1_8_M_ss1.jpeg'></img>,0,NA,exp,NA,0,<img src='img/tf1_8_T1_ss1_md.jpeg'></img>,0,TRUE,NA,sub128
NA,html-keyboard-response,29,124869,0.0-10.0-0.8,"""event"",""trial"",""time""
""fullscreenenter"",""0"",""3009""
","
","
","""event"",""trial"",""time""
""fullscreenenter"",""0"",""3009""
","
",null,"<div style=""font-size:60px;"">+</div>",NA,null,fixation,2020-06-20T19:32:21Z,NA,NA,NA,NA,NA,sub128
NA,mars-trial,30,129979,0.0-10.0-1.8,"""event"",""trial"",""time""
""fullscreenenter"",""0"",""3009""
","
","
","""event"",""trial"",""time""
""fullscreenenter"",""0"",""3009""
","
",4489.810000000056,<img style='border: 4px solid darkgrey;' src='img/tf1_9_M_ss2.jpeg'></img>,1,NA,exp,NA,0,<img src='img/tf1_9_T1_ss2_md.jpeg'></img>,0,TRUE,NA,sub128
NA,html-keyboard-response,31,130486,0.0-10.0-0.9,"""event"",""trial"",""time""
""fullscreenenter"",""0"",""3009""
","
","
","""event"",""trial"",""time""
""fullscreenenter"",""0"",""3009""
","
",null,"<div style=""font-size:60px;"">+</div>",NA,null,fixation,2020-06-20T19:32:27Z,NA,NA,NA,NA,NA,sub128
NA,mars-trial,32,148341,0.0-10.0-1.9,"""event"",""trial"",""time""
""fullscreenenter"",""0"",""3009""
","
","
","""event"",""trial"",""time""
""fullscreenenter"",""0"",""3009""
","
",17237.994999999966,<img style='border: 4px solid darkgrey;' src='img/tf1_10_M_ss3.jpeg'></img>,0,NA,exp,NA,0,<img src='img/tf1_10_T1_ss3_md.jpeg'></img>,0,TRUE,NA,sub128
NA,html-keyboard-response,33,148848,0.0-10.0-0.10,"""event"",""trial"",""time""
""fullscreenenter"",""0"",""3009""
","
","
","""event"",""trial"",""time""
""fullscreenenter"",""0"",""3009""
","
",null,"<div style=""font-size:60px;"">+</div>",NA,null,fixation,2020-06-20T19:32:45Z,NA,NA,NA,NA,NA,sub128
NA,mars-trial,34,158402,0.0-10.0-1.10,"""event"",""trial"",""time""
""fullscreenenter"",""0"",""3009""
","
","
","""event"",""trial"",""time""
""fullscreenenter"",""0"",""3009""
","
",8932.659999999945,<img style='border: 4px solid darkgrey;' src='img/tf1_11_M_ss1.jpeg'></img>,3,NA,exp,NA,1,<img src='img/tf1_11_T1_ss1_md.jpeg'></img>,0,FALSE,NA,sub128
NA,html-keyboard-response,35,158908,0.0-10.0-0.11,"""event"",""trial"",""time""
""fullscreenenter"",""0"",""3009""
","
","
","""event"",""trial"",""time""
""fullscreenenter"",""0"",""3009""
","
",null,"<div style=""font-size:60px;"">+</div>",NA,null,fixation,2020-06-20T19:32:56Z,NA,NA,NA,NA,NA,sub128
NA,mars-trial,36,164566,0.0-10.0-1.11,"""event"",""trial"",""time""
""fullscreenenter"",""0"",""3009""
","
","
","""event"",""trial"",""time""
""fullscreenenter"",""0"",""3009""
","
",5041.499999999825,<img style='border: 4px solid darkgrey;' src='img/tf1_12_M_ss2.jpeg'></img>,2,NA,exp,NA,1,<img src='img/tf1_12_T1_ss2_md.jpeg'></img>,0,FALSE,NA,sub128
NA,html-keyboard-response,37,165070,0.0-10.0-0.12,"""event"",""trial"",""time""
""fullscreenenter"",""0"",""3009""
","
","
","""event"",""trial"",""time""
""fullscreenenter"",""0"",""3009""
","
",null,"<div style=""font-size:60px;"">+</div>",NA,null,fixation,2020-06-20T19:33:02Z,NA,NA,NA,NA,NA,sub128
NA,mars-trial,38,172856,0.0-10.0-1.12,"""event"",""trial"",""time""
""fullscreenenter"",""0"",""3009""
","
","
","""event"",""trial"",""time""
""fullscreenenter"",""0"",""3009""
","
",7171.414999999775,<img style='border: 4px solid darkgrey;' src='img/tf1_13_M_ss3.jpeg'></img>,0,NA,exp,NA,2,<img src='img/tf1_13_T1_ss3_md.jpeg'></img>,0,FALSE,NA,sub128
NA,html-keyboard-response,39,173364,0.0-10.0-0.13,"""event"",""trial"",""time""
""fullscreenenter"",""0"",""3009""
","
","
","""event"",""trial"",""time""
""fullscreenenter"",""0"",""3009""
","
",null,"<div style=""font-size:60px;"">+</div>",NA,null,fixation,2020-06-20T19:33:10Z,NA,NA,NA,NA,NA,sub128
NA,mars-trial,40,183578,0.0-10.0-1.13,"""event"",""trial"",""time""
""fullscreenenter"",""0"",""3009""
","
","
","""event"",""trial"",""time""
""fullscreenenter"",""0"",""3009""
","
",9590.499999999796,<img style='border: 4px solid darkgrey;' src='img/tf1_14_M_ss1.jpeg'></img>,3,NA,exp,NA,2,<img src='img/tf1_14_T1_ss1_md.jpeg'></img>,0,FALSE,NA,sub128
NA,html-keyboard-response,41,184084,0.0-10.0-0.14,"""event"",""trial"",""time""
""fullscreenenter"",""0"",""3009""
","
","
","""event"",""trial"",""time""
""fullscreenenter"",""0"",""3009""
","
",null,"<div style=""font-size:60px;"">+</div>",NA,null,fixation,2020-06-20T19:33:21Z,NA,NA,NA,NA,NA,sub128
NA,mars-trial,42,196863,0.0-10.0-1.14,"""event"",""trial"",""time""
""fullscreenenter"",""0"",""3009""
","
","
","""event"",""trial"",""time""
""fullscreenenter"",""0"",""3009""
","
",12158.54499999978,<img style='border: 4px solid darkgrey;' src='img/tf1_15_M_ss2.jpeg'></img>,3,NA,exp,NA,0,<img src='img/tf1_15_T1_ss2_md.jpeg'></img>,0,TRUE,NA,sub128
NA,html-keyboard-response,43,197370,0.0-10.0-0.15,"""event"",""trial"",""time""
""fullscreenenter"",""0"",""3009""
","
","
","""event"",""trial"",""time""
""fullscreenenter"",""0"",""3009""
","
",null,"<div style=""font-size:60px;"">+</div>",NA,null,fixation,2020-06-20T19:33:34Z,NA,NA,NA,NA,NA,sub128
NA,mars-trial,44,203278,0.0-10.0-1.15,"""event"",""trial"",""time""
""fullscreenenter"",""0"",""3009""
","
","
","""event"",""trial"",""time""
""fullscreenenter"",""0"",""3009""
","
",5292.165000000299,<img style='border: 4px solid darkgrey;' src='img/tf1_16_M_ss3.jpeg'></img>,1,NA,exp,NA,0,<img src='img/tf1_16_T1_ss3_md.jpeg'></img>,0,TRUE,NA,sub128
NA,html-keyboard-response,45,203785,0.0-10.0-0.16,"""event"",""trial"",""time""
""fullscreenenter"",""0"",""3009""
","
","
","""event"",""trial"",""time""
""fullscreenenter"",""0"",""3009""
","
",null,"<div style=""font-size:60px;"">+</div>",NA,null,fixation,2020-06-20T19:33:40Z,NA,NA,NA,NA,NA,sub128
NA,mars-trial,46,211136,0.0-10.0-1.16,"""event"",""trial"",""time""
""fullscreenenter"",""0"",""3009""
","
","
","""event"",""trial"",""time""
""fullscreenenter"",""0"",""3009""
","
",6734.39499999996,<img style='border: 4px solid darkgrey;' src='img/tf1_17_M_ss1.jpeg'></img>,2,NA,exp,NA,2,<img src='img/tf1_17_T1_ss1_md.jpeg'></img>,0,FALSE,NA,sub128
NA,html-keyboard-response,47,211640,0.0-10.0-0.17,"""event"",""trial"",""time""
""fullscreenenter"",""0"",""3009""
","
","
","""event"",""trial"",""time""
""fullscreenenter"",""0"",""3009""
","
",null,"<div style=""font-size:60px;"">+</div>",NA,null,fixation,2020-06-20T19:33:48Z,NA,NA,NA,NA,NA,sub128
NA,mars-trial,48,213757,0.0-10.0-1.17,"""event"",""trial"",""time""
""fullscreenenter"",""0"",""3009""
","
","
","""event"",""trial"",""time""
""fullscreenenter"",""0"",""3009""
","
",1501.5200000002515,<img style='border: 4px solid darkgrey;' src='img/tf1_18_M_ss2.jpeg'></img>,3,NA,exp,NA,3,<img src='img/tf1_18_T1_ss2_md.jpeg'></img>,0,FALSE,NA,sub128
NA,html-keyboard-response,49,214262,0.0-10.0-0.18,"""event"",""trial"",""time""
""fullscreenenter"",""0"",""3009""
","
","
","""event"",""trial"",""time""
""fullscreenenter"",""0"",""3009""
","
",null,"<div style=""font-size:60px;"">+</div>",NA,null,fixation,2020-06-20T19:33:51Z,NA,NA,NA,NA,NA,sub128
NA,mars-trial,50,218833,0.0-10.0-1.18,"""event"",""trial"",""time""
""fullscreenenter"",""0"",""3009""
","
","
","""event"",""trial"",""time""
""fullscreenenter"",""0"",""3009""
","
",3955.6999999999825,<img style='border: 4px solid darkgrey;' src='img/tf1_19_M_ss3.jpeg'></img>,0,NA,exp,NA,3,<img src='img/tf1_19_T1_ss3_md.jpeg'></img>,0,FALSE,NA,sub128
NA,html-keyboard-response,51,219340,0.0-10.0-0.19,"""event"",""trial"",""time""
""fullscreenenter"",""0"",""3009""
","
","
","""event"",""trial"",""time""
""fullscreenenter"",""0"",""3009""
","
",null,"<div style=""font-size:60px;"">+</div>",NA,null,fixation,2020-06-20T19:33:56Z,NA,NA,NA,NA,NA,sub128
NA,mars-trial,52,225065,0.0-10.0-1.19,"""event"",""trial"",""time""
""fullscreenenter"",""0"",""3009""
","
","
","""event"",""trial"",""time""
""fullscreenenter"",""0"",""3009""
","
",5105.590000000113,<img style='border: 4px solid darkgrey;' src='img/tf1_20_M_ss1.jpeg'></img>,0,NA,exp,NA,0,<img src='img/tf1_20_T1_ss1_md.jpeg'></img>,0,TRUE,NA,sub128
NA,html-keyboard-response,53,225574,0.0-10.0-0.20,"""event"",""trial"",""time""
""fullscreenenter"",""0"",""3009""
","
","
","""event"",""trial"",""time""
""fullscreenenter"",""0"",""3009""
","
",null,"<div style=""font-size:60px;"">+</div>",NA,null,fixation,2020-06-20T19:34:02Z,NA,NA,NA,NA,NA,sub128
NA,mars-trial,54,227495,0.0-10.0-1.20,"""event"",""trial"",""time""
""fullscreenenter"",""0"",""3009""
","
","
","""event"",""trial"",""time""
""fullscreenenter"",""0"",""3009""
","
",1299.505000000412,<img style='border: 4px solid darkgrey;' src='img/tf1_21_M_ss2.jpeg'></img>,2,NA,exp,NA,2,<img src='img/tf1_21_T1_ss2_md.jpeg'></img>,0,FALSE,NA,sub128
NA,html-keyboard-response,55,228002,0.0-10.0-0.21,"""event"",""trial"",""time""
""fullscreenenter"",""0"",""3009""
","
","
","""event"",""trial"",""time""
""fullscreenenter"",""0"",""3009""
","
",null,"<div style=""font-size:60px;"">+</div>",NA,null,fixation,2020-06-20T19:34:05Z,NA,NA,NA,NA,NA,sub128
NA,mars-trial,56,229078,0.0-10.0-1.21,"""event"",""trial"",""time""
""fullscreenenter"",""0"",""3009""
","
","
","""event"",""trial"",""time""
""fullscreenenter"",""0"",""3009""
","
",462.2449999997043,<img style='border: 4px solid darkgrey;' src='img/tf1_22_M_ss3.jpeg'></img>,0,NA,exp,NA,3,<img src='img/tf1_22_T1_ss3_md.jpeg'></img>,0,FALSE,NA,sub128
NA,html-keyboard-response,57,229583,0.0-10.0-0.22,"""event"",""trial"",""time""
""fullscreenenter"",""0"",""3009""
","
","
","""event"",""trial"",""time""
""fullscreenenter"",""0"",""3009""
","
",null,"<div style=""font-size:60px;"">+</div>",NA,null,fixation,2020-06-20T19:34:06Z,NA,NA,NA,NA,NA,sub128
NA,mars-trial,58,230538,0.0-10.0-1.22,"""event"",""trial"",""time""
""fullscreenenter"",""0"",""3009""
","
","
","""event"",""trial"",""time""
""fullscreenenter"",""0"",""3009""
","
",342.2100000002538,<img style='border: 4px solid darkgrey;' src='img/tf1_23_M_ss1.jpeg'></img>,3,NA,exp,NA,3,<img src='img/tf1_23_T1_ss1_md.jpeg'></img>,0,FALSE,NA,sub128
NA,html-keyboard-response,59,231046,0.0-10.0-0.23,"""event"",""trial"",""time""
""fullscreenenter"",""0"",""3009""
","
","
","""event"",""trial"",""time""
""fullscreenenter"",""0"",""3009""
","
",null,"<div style=""font-size:60px;"">+</div>",NA,null,fixation,2020-06-20T19:34:08Z,NA,NA,NA,NA,NA,sub128
NA,mars-trial,60,232110,0.0-10.0-1.23,"""event"",""trial"",""time""
""fullscreenenter"",""0"",""3009""
","
","
","""event"",""trial"",""time""
""fullscreenenter"",""0"",""3009""
","
",448.1549999995914,<img style='border: 4px solid darkgrey;' src='img/tf1_24_M_ss2.jpeg'></img>,2,NA,exp,NA,1,<img src='img/tf1_24_T1_ss2_md.jpeg'></img>,0,FALSE,NA,sub128
NA,html-keyboard-response,61,232615,0.0-10.0-0.24,"""event"",""trial"",""time""
""fullscreenenter"",""0"",""3009""
","
","
","""event"",""trial"",""time""
""fullscreenenter"",""0"",""3009""
","
",null,"<div style=""font-size:60px;"">+</div>",NA,null,fixation,2020-06-20T19:34:09Z,NA,NA,NA,NA,NA,sub128
NA,mars-trial,62,234376,0.0-10.0-1.24,"""event"",""trial"",""time""
""fullscreenenter"",""0"",""3009""
","
","
","""event"",""trial"",""time""
""fullscreenenter"",""0"",""3009""
","
",1147.3449999998556,<img style='border: 4px solid darkgrey;' src='img/tf1_25_M_ss3.jpeg'></img>,1,NA,exp,NA,2,<img src='img/tf1_25_T1_ss3_md.jpeg'></img>,0,FALSE,NA,sub128
NA,html-keyboard-response,63,234882,0.0-10.0-0.25,"""event"",""trial"",""time""
""fullscreenenter"",""0"",""3009""
","
","
","""event"",""trial"",""time""
""fullscreenenter"",""0"",""3009""
","
",null,"<div style=""font-size:60px;"">+</div>",NA,null,fixation,2020-06-20T19:34:11Z,NA,NA,NA,NA,NA,sub128
NA,mars-trial,64,236303,0.0-10.0-1.25,"""event"",""trial"",""time""
""fullscreenenter"",""0"",""3009""
","
","
","""event"",""trial"",""time""
""fullscreenenter"",""0"",""3009""
","
",805.8500000001804,<img style='border: 4px solid darkgrey;' src='img/tf1_26_M_ss1.jpeg'></img>,3,NA,exp,NA,0,<img src='img/tf1_26_T1_ss1_md.jpeg'></img>,0,TRUE,NA,sub128
NA,html-keyboard-response,65,236807,0.0-10.0-0.26,"""event"",""trial"",""time""
""fullscreenenter"",""0"",""3009""
","
","
","""event"",""trial"",""time""
""fullscreenenter"",""0"",""3009""
","
",null,"<div style=""font-size:60px;"">+</div>",NA,null,fixation,2020-06-20T19:34:13Z,NA,NA,NA,NA,NA,sub128
NA,mars-trial,66,237964,0.0-10.0-1.26,"""event"",""trial"",""time""
""fullscreenenter"",""0"",""3009""
","
","
","""event"",""trial"",""time""
""fullscreenenter"",""0"",""3009""
","
",538.514999999752,<img style='border: 4px solid darkgrey;' src='img/tf1_27_M_ss2.jpeg'></img>,2,NA,exp,NA,3,<img src='img/tf1_27_T1_ss2_md.jpeg'></img>,0,FALSE,NA,sub128
NA,html-keyboard-response,67,238470,0.0-10.0-0.27,"""event"",""trial"",""time""
""fullscreenenter"",""0"",""3009""
","
","
","""event"",""trial"",""time""
""fullscreenenter"",""0"",""3009""
","
",null,"<div style=""font-size:60px;"">+</div>",NA,null,fixation,2020-06-20T19:34:15Z,NA,NA,NA,NA,NA,sub128
NA,mars-trial,68,239434,0.0-10.0-1.27,"""event"",""trial"",""time""
""fullscreenenter"",""0"",""3009""
","
","
","""event"",""trial"",""time""
""fullscreenenter"",""0"",""3009""
","
",351.92499999993015,<img style='border: 4px solid darkgrey;' src='img/tf1_28_M_ss3.jpeg'></img>,3,NA,exp,NA,1,<img src='img/tf1_28_T1_ss3_md.jpeg'></img>,0,FALSE,NA,sub128
NA,html-keyboard-response,69,239940,0.0-10.0-0.28,"""event"",""trial"",""time""
""fullscreenenter"",""0"",""3009""
","
","
","""event"",""trial"",""time""
""fullscreenenter"",""0"",""3009""
","
",null,"<div style=""font-size:60px;"">+</div>",NA,null,fixation,2020-06-20T19:34:17Z,NA,NA,NA,NA,NA,sub128
NA,mars-trial,70,240910,0.0-10.0-1.28,"""event"",""trial"",""time""
""fullscreenenter"",""0"",""3009""
","
","
","""event"",""trial"",""time""
""fullscreenenter"",""0"",""3009""
","
",358.66000000035274,<img style='border: 4px solid darkgrey;' src='img/tf1_29_M_ss1.jpeg'></img>,0,NA,exp,NA,0,<img src='img/tf1_29_T1_ss1_md.jpeg'></img>,0,TRUE,NA,sub128
NA,html-keyboard-response,71,241414,0.0-10.0-0.29,"""event"",""trial"",""time""
""fullscreenenter"",""0"",""3009""
","
","
","""event"",""trial"",""time""
""fullscreenenter"",""0"",""3009""
","
",null,"<div style=""font-size:60px;"">+</div>",NA,null,fixation,2020-06-20T19:34:18Z,NA,NA,NA,NA,NA,sub128
NA,mars-trial,72,242608,0.0-10.0-1.29,"""event"",""trial"",""time""
""fullscreenenter"",""0"",""3009""
","
","
","""event"",""trial"",""time""
""fullscreenenter"",""0"",""3009""
","
",578.3949999999895,<img style='border: 4px solid darkgrey;' src='img/tf1_30_M_ss2.jpeg'></img>,1,NA,exp,NA,1,<img src='img/tf1_30_T1_ss2_md.jpeg'></img>,0,FALSE,NA,sub128
NA,html-keyboard-response,73,243115,0.0-10.0-0.30,"""event"",""trial"",""time""
""fullscreenenter"",""0"",""3009""
","
","
","""event"",""trial"",""time""
""fullscreenenter"",""0"",""3009""
","
",null,"<div style=""font-size:60px;"">+</div>",NA,null,fixation,2020-06-20T19:34:20Z,NA,NA,NA,NA,NA,sub128
NA,mars-trial,74,244315,0.0-10.0-1.30,"""event"",""trial"",""time""
""fullscreenenter"",""0"",""3009""
","
","
","""event"",""trial"",""time""
""fullscreenenter"",""0"",""3009""
","
",588.0299999999115,<img style='border: 4px solid darkgrey;' src='img/tf1_31_M_ss3.jpeg'></img>,0,NA,exp,NA,0,<img src='img/tf1_31_T1_ss3_md.jpeg'></img>,0,TRUE,NA,sub128
NA,html-keyboard-response,75,244821,0.0-10.0-0.31,"""event"",""trial"",""time""
""fullscreenenter"",""0"",""3009""
","
","
","""event"",""trial"",""time""
""fullscreenenter"",""0"",""3009""
","
",null,"<div style=""font-size:60px;"">+</div>",NA,null,fixation,2020-06-20T19:34:21Z,NA,NA,NA,NA,NA,sub128
NA,mars-trial,76,245867,0.0-10.0-1.31,"""event"",""trial"",""time""
""fullscreenenter"",""0"",""3009""
","
","
","""event"",""trial"",""time""
""fullscreenenter"",""0"",""3009""
","
",429.7050000000163,<img style='border: 4px solid darkgrey;' src='img/tf1_32_M_ss1.jpeg'></img>,0,NA,exp,NA,1,<img src='img/tf1_32_T1_ss1_md.jpeg'></img>,0,FALSE,NA,sub128
NA,html-keyboard-response,77,246373,0.0-10.0-0.32,"""event"",""trial"",""time""
""fullscreenenter"",""0"",""3009""
","
","
","""event"",""trial"",""time""
""fullscreenenter"",""0"",""3009""
","
",null,"<div style=""font-size:60px;"">+</div>",NA,null,fixation,2020-06-20T19:34:23Z,NA,NA,NA,NA,NA,sub128
NA,mars-trial,78,247291,0.0-10.0-1.32,"""event"",""trial"",""time""
""fullscreenenter"",""0"",""3009""
","
","
","""event"",""trial"",""time""
""fullscreenenter"",""0"",""3009""
","
",306.1749999997555,<img style='border: 4px solid darkgrey;' src='img/tf1_33_M_ss2.jpeg'></img>,1,NA,exp,NA,1,<img src='img/tf1_33_T1_ss2_md.jpeg'></img>,0,FALSE,NA,sub128
NA,html-keyboard-response,79,247797,0.0-10.0-0.33,"""event"",""trial"",""time""
""fullscreenenter"",""0"",""3009""
","
","
","""event"",""trial"",""time""
""fullscreenenter"",""0"",""3009""
","
",null,"<div style=""font-size:60px;"">+</div>",NA,null,fixation,2020-06-20T19:34:24Z,NA,NA,NA,NA,NA,sub128
NA,mars-trial,80,249047,0.0-10.0-1.33,"""event"",""trial"",""time""
""fullscreenenter"",""0"",""3009""
","
","
","""event"",""trial"",""time""
""fullscreenenter"",""0"",""3009""
","
",635.3800000001211,<img style='border: 4px solid darkgrey;' src='img/tf1_34_M_ss3.jpeg'></img>,2,NA,exp,NA,3,<img src='img/tf1_34_T1_ss3_md.jpeg'></img>,0,FALSE,NA,sub128
NA,html-keyboard-response,81,249550,0.0-10.0-0.34,"""event"",""trial"",""time""
""fullscreenenter"",""0"",""3009""
","
","
","""event"",""trial"",""time""
""fullscreenenter"",""0"",""3009""
","
",null,"<div style=""font-size:60px;"">+</div>",NA,null,fixation,2020-06-20T19:34:26Z,NA,NA,NA,NA,NA,sub128
NA,mars-trial,82,250545,0.0-10.0-1.34,"""event"",""trial"",""time""
""fullscreenenter"",""0"",""3009""
","
","
","""event"",""trial"",""time""
""fullscreenenter"",""0"",""3009""
","
",384.5799999998999,<img style='border: 4px solid darkgrey;' src='img/tf1_35_M_ss1.jpeg'></img>,0,NA,exp,NA,3,<img src='img/tf1_35_T1_ss1_md.jpeg'></img>,0,FALSE,NA,sub128
NA,html-keyboard-response,83,251050,0.0-10.0-0.35,"""event"",""trial"",""time""
""fullscreenenter"",""0"",""3009""
","
","
","""event"",""trial"",""time""
""fullscreenenter"",""0"",""3009""
","
",null,"<div style=""font-size:60px;"">+</div>",NA,null,fixation,2020-06-20T19:34:28Z,NA,NA,NA,NA,NA,sub128
NA,mars-trial,84,252091,0.0-10.0-1.35,"""event"",""trial"",""time""
""fullscreenenter"",""0"",""3009""
","
","
","""event"",""trial"",""time""
""fullscreenenter"",""0"",""3009""
","
",423.03499999979977,<img style='border: 4px solid darkgrey;' src='img/tf1_36_M_ss2.jpeg'></img>,3,NA,exp,NA,0,<img src='img/tf1_36_T1_ss2_md.jpeg'></img>,0,TRUE,NA,sub128
NA,html-keyboard-response,85,252600,0.0-10.0-0.36,"""event"",""trial"",""time""
""fullscreenenter"",""0"",""3009""
","
","
","""event"",""trial"",""time""
""fullscreenenter"",""0"",""3009""
","
",null,"<div style=""font-size:60px;"">+</div>",NA,null,fixation,2020-06-20T19:34:29Z,NA,NA,NA,NA,NA,sub128
NA,mars-trial,86,253931,0.0-10.0-1.36,"""event"",""trial"",""time""
""fullscreenenter"",""0"",""3009""
","
","
","""event"",""trial"",""time""
""fullscreenenter"",""0"",""3009""
","
",719.8749999997672,<img style='border: 4px solid darkgrey;' src='img/tf1_37_M_ss3.jpeg'></img>,0,NA,exp,NA,1,<img src='img/tf1_37_T1_ss3_md.jpeg'></img>,0,FALSE,NA,sub128
NA,html-keyboard-response,87,254438,0.0-10.0-0.37,"""event"",""trial"",""time""
""fullscreenenter"",""0"",""3009""
","
","
","""event"",""trial"",""time""
""fullscreenenter"",""0"",""3009""
","
",null,"<div style=""font-size:60px;"">+</div>",NA,null,fixation,2020-06-20T19:34:31Z,NA,NA,NA,NA,NA,sub128
NA,mars-trial,88,255191,0.0-10.0-1.37,"""event"",""trial"",""time""
""fullscreenenter"",""0"",""3009""
","
","
","""event"",""trial"",""time""
""fullscreenenter"",""0"",""3009""
","
",136.47999999969034,<img style='border: 4px solid darkgrey;' src='img/tf1_38_M_ss1.jpeg'></img>,3,NA,exp,NA,0,<img src='img/tf1_38_T1_ss1_md.jpeg'></img>,0,TRUE,NA,sub128
NA,html-keyboard-response,89,255698,0.0-10.0-0.38,"""event"",""trial"",""time""
""fullscreenenter"",""0"",""3009""
","
","
","""event"",""trial"",""time""
""fullscreenenter"",""0"",""3009""
","
",null,"<div style=""font-size:60px;"">+</div>",NA,null,fixation,2020-06-20T19:34:32Z,NA,NA,NA,NA,NA,sub128
NA,mars-trial,90,256665,0.0-10.0-1.38,"""event"",""trial"",""time""
""fullscreenenter"",""0"",""3009""
","
","
","""event"",""trial"",""time""
""fullscreenenter"",""0"",""3009""
","
",354.9049999996787,<img style='border: 4px solid darkgrey;' src='img/tf1_39_M_ss2.jpeg'></img>,0,NA,exp,NA,3,<img src='img/tf1_39_T1_ss2_md.jpeg'></img>,0,FALSE,NA,sub128
NA,html-keyboard-response,91,257168,0.0-10.0-0.39,"""event"",""trial"",""time""
""fullscreenenter"",""0"",""3009""
","
","
","""event"",""trial"",""time""
""fullscreenenter"",""0"",""3009""
","
",null,"<div style=""font-size:60px;"">+</div>",NA,null,fixation,2020-06-20T19:34:34Z,NA,NA,NA,NA,NA,sub128
NA,mars-trial,92,258088,0.0-10.0-1.39,"""event"",""trial"",""time""
""fullscreenenter"",""0"",""3009""
","
","
","""event"",""trial"",""time""
""fullscreenenter"",""0"",""3009""
","
",307.85000000015134,<img style='border: 4px solid darkgrey;' src='img/tf1_40_M_ss3.jpeg'></img>,3,NA,exp,NA,2,<img src='img/tf1_40_T1_ss3_md.jpeg'></img>,0,FALSE,NA,sub128
NA,html-keyboard-response,93,258593,0.0-10.0-0.40,"""event"",""trial"",""time""
""fullscreenenter"",""0"",""3009""
","
","
","""event"",""trial"",""time""
""fullscreenenter"",""0"",""3009""
","
",null,"<div style=""font-size:60px;"">+</div>",NA,null,fixation,2020-06-20T19:34:35Z,NA,NA,NA,NA,NA,sub128
NA,mars-trial,94,259440,0.0-10.0-1.40,"""event"",""trial"",""time""
""fullscreenenter"",""0"",""3009""
","
","
","""event"",""trial"",""time""
""fullscreenenter"",""0"",""3009""
","
",238.24499999999534,<img style='border: 4px solid darkgrey;' src='img/tf1_41_M_ss1.jpeg'></img>,0,NA,exp,NA,0,<img src='img/tf1_41_T1_ss1_md.jpeg'></img>,0,TRUE,NA,sub128
NA,html-keyboard-response,95,259945,0.0-10.0-0.41,"""event"",""trial"",""time""
""fullscreenenter"",""0"",""3009""
","
","
","""event"",""trial"",""time""
""fullscreenenter"",""0"",""3009""
","
",null,"<div style=""font-size:60px;"">+</div>",NA,null,fixation,2020-06-20T19:34:37Z,NA,NA,NA,NA,NA,sub128
NA,mars-trial,96,260835,0.0-10.0-1.41,"""event"",""trial"",""time""
""fullscreenenter"",""0"",""3009""
","
","
","""event"",""trial"",""time""
""fullscreenenter"",""0"",""3009""
","
",269.7050000001327,<img style='border: 4px solid darkgrey;' src='img/tf1_42_M_ss2.jpeg'></img>,0,NA,exp,NA,2,<img src='img/tf1_42_T1_ss2_md.jpeg'></img>,0,FALSE,NA,sub128
NA,html-keyboard-response,97,261340,0.0-10.0-0.42,"""event"",""trial"",""time""
""fullscreenenter"",""0"",""3009""
","
","
","""event"",""trial"",""time""
""fullscreenenter"",""0"",""3009""
","
",null,"<div style=""font-size:60px;"">+</div>",NA,null,fixation,2020-06-20T19:34:38Z,NA,NA,NA,NA,NA,sub128
NA,mars-trial,98,262193,0.0-10.0-1.42,"""event"",""trial"",""time""
""fullscreenenter"",""0"",""3009""
","
","
","""event"",""trial"",""time""
""fullscreenenter"",""0"",""3009""
","
",234.35000000015134,<img style='border: 4px solid darkgrey;' src='img/tf1_43_M_ss3.jpeg'></img>,0,NA,exp,NA,3,<img src='img/tf1_43_T1_ss3_md.jpeg'></img>,0,FALSE,NA,sub128
NA,html-keyboard-response,99,262704,0.0-10.0-0.43,"""event"",""trial"",""time""
""fullscreenenter"",""0"",""3009""
","
","
","""event"",""trial"",""time""
""fullscreenenter"",""0"",""3009""
","
",null,"<div style=""font-size:60px;"">+</div>",NA,null,fixation,2020-06-20T19:34:39Z,NA,NA,NA,NA,NA,sub128
NA,mars-trial,100,263816,0.0-10.0-1.43,"""event"",""trial"",""time""
""fullscreenenter"",""0"",""3009""
","
","
","""event"",""trial"",""time""
""fullscreenenter"",""0"",""3009""
","
",500.61000000004424,<img style='border: 4px solid darkgrey;' src='img/tf1_44_M_ss1.jpeg'></img>,0,NA,exp,NA,1,<img src='img/tf1_44_T1_ss1_md.jpeg'></img>,0,FALSE,NA,sub128
NA,html-keyboard-response,101,264320,0.0-10.0-0.44,"""event"",""trial"",""time""
""fullscreenenter"",""0"",""3009""
","
","
","""event"",""trial"",""time""
""fullscreenenter"",""0"",""3009""
","
",null,"<div style=""font-size:60px;"">+</div>",NA,null,fixation,2020-06-20T19:34:41Z,NA,NA,NA,NA,NA,sub128
NA,mars-trial,102,265419,0.0-10.0-1.44,"""event"",""trial"",""time""
""fullscreenenter"",""0"",""3009""
","
","
","""event"",""trial"",""time""
""fullscreenenter"",""0"",""3009""
","
",487.18499999993946,<img style='border: 4px solid darkgrey;' src='img/tf1_45_M_ss2.jpeg'></img>,3,NA,exp,NA,3,<img src='img/tf1_45_T1_ss2_md.jpeg'></img>,0,FALSE,NA,sub128
NA,html-keyboard-response,103,265926,0.0-10.0-0.45,"""event"",""trial"",""time""
""fullscreenenter"",""0"",""3009""
","
","
","""event"",""trial"",""time""
""fullscreenenter"",""0"",""3009""
","
",null,"<div style=""font-size:60px;"">+</div>",NA,null,fixation,2020-06-20T19:34:43Z,NA,NA,NA,NA,NA,sub128
NA,mars-trial,104,266931,0.0-10.0-1.45,"""event"",""trial"",""time""
""fullscreenenter"",""0"",""3009""
","
","
","""event"",""trial"",""time""
""fullscreenenter"",""0"",""3009""
","
",392.4949999995879,<img style='border: 4px solid darkgrey;' src='img/tf1_46_M_ss3.jpeg'></img>,0,NA,exp,NA,0,<img src='img/tf1_46_T1_ss3_md.jpeg'></img>,0,TRUE,NA,sub128
NA,html-keyboard-response,105,267434,0.0-10.0-0.46,"""event"",""trial"",""time""
""fullscreenenter"",""0"",""3009""
","
","
","""event"",""trial"",""time""
""fullscreenenter"",""0"",""3009""
","
",null,"<div style=""font-size:60px;"">+</div>",NA,null,fixation,2020-06-20T19:34:44Z,NA,NA,NA,NA,NA,sub128
NA,mars-trial,106,268734,0.0-10.0-1.46,"""event"",""trial"",""time""
""fullscreenenter"",""0"",""3009""
","
","
","""event"",""trial"",""time""
""fullscreenenter"",""0"",""3009""
","
",690.7849999997998,<img style='border: 4px solid darkgrey;' src='img/tf1_47_M_ss1.jpeg'></img>,2,NA,exp,NA,2,<img src='img/tf1_47_T1_ss1_md.jpeg'></img>,0,FALSE,NA,sub128
NA,html-keyboard-response,107,269239,0.0-10.0-0.47,"""event"",""trial"",""time""
""fullscreenenter"",""0"",""3009""
","
","
","""event"",""trial"",""time""
""fullscreenenter"",""0"",""3009""
","
",null,"<div style=""font-size:60px;"">+</div>",NA,null,fixation,2020-06-20T19:34:46Z,NA,NA,NA,NA,NA,sub128
NA,mars-trial,108,270098,0.0-10.0-1.47,"""event"",""trial"",""time""
""fullscreenenter"",""0"",""3009""
","
","
","""event"",""trial"",""time""
""fullscreenenter"",""0"",""3009""
","
",245.0549999998766,<img style='border: 4px solid darkgrey;' src='img/tf1_48_M_ss2.jpeg'></img>,1,NA,exp,NA,2,<img src='img/tf1_48_T1_ss2_md.jpeg'></img>,0,FALSE,NA,sub128
NA,html-keyboard-response,109,270604,0.0-10.0-0.48,"""event"",""trial"",""time""
""fullscreenenter"",""0"",""3009""
","
","
","""event"",""trial"",""time""
""fullscreenenter"",""0"",""3009""
","
",null,"<div style=""font-size:60px;"">+</div>",NA,null,fixation,2020-06-20T19:34:47Z,NA,NA,NA,NA,NA,sub128
NA,mars-trial,110,271300,0.0-10.0-1.48,"""event"",""trial"",""time""
""fullscreenenter"",""0"",""3009""
","
","
","""event"",""trial"",""time""
""fullscreenenter"",""0"",""3009""
","
",78.05000000010477,<img style='border: 4px solid darkgrey;' src='img/tf1_49_M_ss3.jpeg'></img>,3,NA,exp,NA,3,<img src='img/tf1_49_T1_ss3_md.jpeg'></img>,0,FALSE,NA,sub128
NA,html-keyboard-response,111,271804,0.0-10.0-0.49,"""event"",""trial"",""time""
""fullscreenenter"",""0"",""3009""
","
","
","""event"",""trial"",""time""
""fullscreenenter"",""0"",""3009""
","
",null,"<div style=""font-size:60px;"">+</div>",NA,null,fixation,2020-06-20T19:34:48Z,NA,NA,NA,NA,NA,sub128
NA,mars-trial,112,272706,0.0-10.0-1.49,"""event"",""trial"",""time""
""fullscreenenter"",""0"",""3009""
","
","
","""event"",""trial"",""time""
""fullscreenenter"",""0"",""3009""
","
",284.8800000001793,<img style='border: 4px solid darkgrey;' src='img/tf1_50_M_ss1.jpeg'></img>,0,NA,exp,NA,2,<img src='img/tf1_50_T1_ss1_md.jpeg'></img>,0,FALSE,NA,sub128
NA,html-keyboard-response,113,273209,0.0-10.0-0.50,"""event"",""trial"",""time""
""fullscreenenter"",""0"",""3009""
","
","
","""event"",""trial"",""time""
""fullscreenenter"",""0"",""3009""
","
",null,"<div style=""font-size:60px;"">+</div>",NA,null,fixation,2020-06-20T19:34:50Z,NA,NA,NA,NA,NA,sub128
NA,mars-trial,114,274810,0.0-10.0-1.50,"""event"",""trial"",""time""
""fullscreenenter"",""0"",""3009""
","
","
","""event"",""trial"",""time""
""fullscreenenter"",""0"",""3009""
","
",987.5849999998463,<img style='border: 4px solid darkgrey;' src='img/tf1_51_M_ss2.jpeg'></img>,3,NA,exp,NA,0,<img src='img/tf1_51_T1_ss2_md.jpeg'></img>,0,TRUE,NA,sub128
NA,html-keyboard-response,115,275322,0.0-10.0-0.51,"""event"",""trial"",""time""
""fullscreenenter"",""0"",""3009""
","
","
","""event"",""trial"",""time""
""fullscreenenter"",""0"",""3009""
","
",null,"<div style=""font-size:60px;"">+</div>",NA,null,fixation,2020-06-20T19:34:52Z,NA,NA,NA,NA,NA,sub128
NA,mars-trial,116,276156,0.0-10.0-1.51,"""event"",""trial"",""time""
""fullscreenenter"",""0"",""3009""
","
","
","""event"",""trial"",""time""
""fullscreenenter"",""0"",""3009""
","
",222.02999999991152,<img style='border: 4px solid darkgrey;' src='img/tf1_52_M_ss3.jpeg'></img>,3,NA,exp,NA,3,<img src='img/tf1_52_T1_ss3_md.jpeg'></img>,0,FALSE,NA,sub128
NA,html-keyboard-response,117,276662,0.0-10.0-0.52,"""event"",""trial"",""time""
""fullscreenenter"",""0"",""3009""
","
","
","""event"",""trial"",""time""
""fullscreenenter"",""0"",""3009""
","
",null,"<div style=""font-size:60px;"">+</div>",NA,null,fixation,2020-06-20T19:34:53Z,NA,NA,NA,NA,NA,sub128
NA,mars-trial,118,277422,0.0-10.0-1.52,"""event"",""trial"",""time""
""fullscreenenter"",""0"",""3009""
","
","
","""event"",""trial"",""time""
""fullscreenenter"",""0"",""3009""
","
",145.79000000003725,<img style='border: 4px solid darkgrey;' src='img/tf1_53_M_ss1.jpeg'></img>,3,NA,exp,NA,0,<img src='img/tf1_53_T1_ss1_md.jpeg'></img>,0,TRUE,NA,sub128
NA,html-keyboard-response,119,277925,0.0-10.0-0.53,"""event"",""trial"",""time""
""fullscreenenter"",""0"",""3009""
","
","
","""event"",""trial"",""time""
""fullscreenenter"",""0"",""3009""
","
",null,"<div style=""font-size:60px;"">+</div>",NA,null,fixation,2020-06-20T19:34:55Z,NA,NA,NA,NA,NA,sub128
NA,mars-trial,120,279038,0.0-10.0-1.53,"""event"",""trial"",""time""
""fullscreenenter"",""0"",""3009""
","
","
","""event"",""trial"",""time""
""fullscreenenter"",""0"",""3009""
","
",502.64999999990687,<img style='border: 4px solid darkgrey;' src='img/tf1_54_M_ss2.jpeg'></img>,0,NA,exp,NA,0,<img src='img/tf1_54_T1_ss2_md.jpeg'></img>,0,TRUE,NA,sub128
NA,html-keyboard-response,121,279543,0.0-10.0-0.54,"""event"",""trial"",""time""
""fullscreenenter"",""0"",""3009""
","
","
","""event"",""trial"",""time""
""fullscreenenter"",""0"",""3009""
","
",null,"<div style=""font-size:60px;"">+</div>",NA,null,fixation,2020-06-20T19:34:56Z,NA,NA,NA,NA,NA,sub128
NA,mars-trial,122,280386,0.0-10.0-1.54,"""event"",""trial"",""time""
""fullscreenenter"",""0"",""3009""
","
","
","""event"",""trial"",""time""
""fullscreenenter"",""0"",""3009""
","
",229.76500000001397,<img style='border: 4px solid darkgrey;' src='img/tf1_55_M_ss3.jpeg'></img>,3,NA,exp,NA,1,<img src='img/tf1_55_T1_ss3_md.jpeg'></img>,0,FALSE,NA,sub128
NA,html-keyboard-response,123,280890,0.0-10.0-0.55,"""event"",""trial"",""time""
""fullscreenenter"",""0"",""3009""
","
","
","""event"",""trial"",""time""
""fullscreenenter"",""0"",""3009""
","
",null,"<div style=""font-size:60px;"">+</div>",NA,null,fixation,2020-06-20T19:34:57Z,NA,NA,NA,NA,NA,sub128
NA,mars-trial,124,282082,0.0-10.0-1.55,"""event"",""trial"",""time""
""fullscreenenter"",""0"",""3009""
","
","
","""event"",""trial"",""time""
""fullscreenenter"",""0"",""3009""
","
",577.2999999999302,<img style='border: 4px solid darkgrey;' src='img/tf1_56_M_ss1.jpeg'></img>,3,NA,exp,NA,1,<img src='img/tf1_56_T1_ss1_md.jpeg'></img>,0,FALSE,NA,sub128
NA,html-keyboard-response,125,282587,0.0-10.0-0.56,"""event"",""trial"",""time""
""fullscreenenter"",""0"",""3009""
","
","
","""event"",""trial"",""time""
""fullscreenenter"",""0"",""3009""
","
",null,"<div style=""font-size:60px;"">+</div>",NA,null,fixation,2020-06-20T19:34:59Z,NA,NA,NA,NA,NA,sub128
NA,mars-trial,126,283655,0.0-10.0-1.56,"""event"",""trial"",""time""
""fullscreenenter"",""0"",""3009""
","
","
","""event"",""trial"",""time""
""fullscreenenter"",""0"",""3009""
","
",454.6850000001723,<img style='border: 4px solid darkgrey;' src='img/tf1_57_M_ss2.jpeg'></img>,2,NA,exp,NA,3,<img src='img/tf1_57_T1_ss2_md.jpeg'></img>,0,FALSE,NA,sub128
NA,html-keyboard-response,127,284162,0.0-10.0-0.57,"""event"",""trial"",""time""
""fullscreenenter"",""0"",""3009""
","
","
","""event"",""trial"",""time""
""fullscreenenter"",""0"",""3009""
","
",null,"<div style=""font-size:60px;"">+</div>",NA,null,fixation,2020-06-20T19:35:01Z,NA,NA,NA,NA,NA,sub128
NA,mars-trial,128,285564,0.0-10.0-1.57,"""event"",""trial"",""time""
""fullscreenenter"",""0"",""3009""
","
","
","""event"",""trial"",""time""
""fullscreenenter"",""0"",""3009""
","
",792.1499999997322,<img style='border: 4px solid darkgrey;' src='img/tf1_58_M_ss3.jpeg'></img>,1,NA,exp,NA,2,<img src='img/tf1_58_T1_ss3_md.jpeg'></img>,0,FALSE,NA,sub128
NA,html-keyboard-response,129,286072,0.0-10.0-0.58,"""event"",""trial"",""time""
""fullscreenenter"",""0"",""3009""
","
","
","""event"",""trial"",""time""
""fullscreenenter"",""0"",""3009""
","
",null,"<div style=""font-size:60px;"">+</div>",NA,null,fixation,2020-06-20T19:35:03Z,NA,NA,NA,NA,NA,sub128
NA,mars-trial,130,289711,0.0-10.0-1.58,"""event"",""trial"",""time""
""fullscreenenter"",""0"",""3009""
","
","
","""event"",""trial"",""time""
""fullscreenenter"",""0"",""3009""
","
",3022.500000000058,<img style='border: 4px solid darkgrey;' src='img/tf1_59_M_ss1.jpeg'></img>,3,NA,exp,NA,3,<img src='img/tf1_59_T1_ss1_md.jpeg'></img>,0,FALSE,NA,sub128
NA,html-keyboard-response,131,290217,0.0-10.0-0.59,"""event"",""trial"",""time""
""fullscreenenter"",""0"",""3009""
","
","
","""event"",""trial"",""time""
""fullscreenenter"",""0"",""3009""
","
",null,"<div style=""font-size:60px;"">+</div>",NA,null,fixation,2020-06-20T19:35:07Z,NA,NA,NA,NA,NA,sub128
NA,mars-trial,132,291613,0.0-10.0-1.59,"""event"",""trial"",""time""
""fullscreenenter"",""0"",""3009""
","
","
","""event"",""trial"",""time""
""fullscreenenter"",""0"",""3009""
","
",778.5100000000675,<img style='border: 4px solid darkgrey;' src='img/tf1_60_M_ss2.jpeg'></img>,0,NA,exp,NA,0,<img src='img/tf1_60_T1_ss2_md.jpeg'></img>,0,TRUE,NA,sub128
NA,html-keyboard-response,133,292119,0.0-10.0-0.60,"""event"",""trial"",""time""
""fullscreenenter"",""0"",""3009""
","
","
","""event"",""trial"",""time""
""fullscreenenter"",""0"",""3009""
","
",null,"<div style=""font-size:60px;"">+</div>",NA,null,fixation,2020-06-20T19:35:09Z,NA,NA,NA,NA,NA,sub128
NA,mars-trial,134,293616,0.0-10.0-1.60,"""event"",""trial"",""time""
""fullscreenenter"",""0"",""3009""
","
","
","""event"",""trial"",""time""
""fullscreenenter"",""0"",""3009""
","
",880.5050000000629,<img style='border: 4px solid darkgrey;' src='img/tf1_61_M_ss3.jpeg'></img>,1,NA,exp,NA,0,<img src='img/tf1_61_T1_ss3_md.jpeg'></img>,0,TRUE,NA,sub128
NA,html-keyboard-response,135,294121,0.0-10.0-0.61,"""event"",""trial"",""time""
""fullscreenenter"",""0"",""3009""
","
","
","""event"",""trial"",""time""
""fullscreenenter"",""0"",""3009""
","
",null,"<div style=""font-size:60px;"">+</div>",NA,null,fixation,2020-06-20T19:35:11Z,NA,NA,NA,NA,NA,sub128
NA,mars-trial,136,295206,0.0-10.0-1.61,"""event"",""trial"",""time""
""fullscreenenter"",""0"",""3009""
","
","
","""event"",""trial"",""time""
""fullscreenenter"",""0"",""3009""
","
",473.6950000001816,<img style='border: 4px solid darkgrey;' src='img/tf1_62_M_ss1.jpeg'></img>,1,NA,exp,NA,3,<img src='img/tf1_62_T1_ss1_md.jpeg'></img>,0,FALSE,NA,sub128
NA,html-keyboard-response,137,295712,0.0-10.0-0.62,"""event"",""trial"",""time""
""fullscreenenter"",""0"",""3009""
","
","
","""event"",""trial"",""time""
""fullscreenenter"",""0"",""3009""
","
",null,"<div style=""font-size:60px;"">+</div>",NA,null,fixation,2020-06-20T19:35:12Z,NA,NA,NA,NA,NA,sub128
NA,mars-trial,138,297257,0.0-10.0-1.62,"""event"",""trial"",""time""
""fullscreenenter"",""0"",""3009""
","
","
","""event"",""trial"",""time""
""fullscreenenter"",""0"",""3009""
","
",932.2099999999627,<img style='border: 4px solid darkgrey;' src='img/tf1_63_M_ss2.jpeg'></img>,2,NA,exp,NA,0,<img src='img/tf1_63_T1_ss2_md.jpeg'></img>,0,TRUE,NA,sub128
NA,html-keyboard-response,139,297761,0.0-10.0-0.63,"""event"",""trial"",""time""
""fullscreenenter"",""0"",""3009""
","
","
","""event"",""trial"",""time""
""fullscreenenter"",""0"",""3009""
","
",null,"<div style=""font-size:60px;"">+</div>",NA,null,fixation,2020-06-20T19:35:14Z,NA,NA,NA,NA,NA,sub128
NA,mars-trial,140,299195,0.0-10.0-1.63,"""event"",""trial"",""time""
""fullscreenenter"",""0"",""3009""
","
","
","""event"",""trial"",""time""
""fullscreenenter"",""0"",""3009""
","
",815.3999999999651,<img style='border: 4px solid darkgrey;' src='img/tf1_64_M_ss3.jpeg'></img>,3,NA,exp,NA,1,<img src='img/tf1_64_T1_ss3_md.jpeg'></img>,0,FALSE,NA,sub128
NA,html-keyboard-response,141,299700,0.0-10.0-0.64,"""event"",""trial"",""time""
""fullscreenenter"",""0"",""3009""
","
","
","""event"",""trial"",""time""
""fullscreenenter"",""0"",""3009""
","
",null,"<div style=""font-size:60px;"">+</div>",NA,null,fixation,2020-06-20T19:35:16Z,NA,NA,NA,NA,NA,sub128
NA,mars-trial,142,300746,0.0-10.0-1.64,"""event"",""trial"",""time""
""fullscreenenter"",""0"",""3009""
","
","
","""event"",""trial"",""time""
""fullscreenenter"",""0"",""3009""
","
",435.1400000000722,<img style='border: 4px solid darkgrey;' src='img/tf1_65_M_ss1.jpeg'></img>,0,NA,exp,NA,1,<img src='img/tf1_65_T1_ss1_md.jpeg'></img>,0,FALSE,NA,sub128
NA,html-keyboard-response,143,301251,0.0-10.0-0.65,"""event"",""trial"",""time""
""fullscreenenter"",""0"",""3009""
","
","
","""event"",""trial"",""time""
""fullscreenenter"",""0"",""3009""
","
",null,"<div style=""font-size:60px;"">+</div>",NA,null,fixation,2020-06-20T19:35:18Z,NA,NA,NA,NA,NA,sub128
NA,mars-trial,144,302186,0.0-10.0-1.65,"""event"",""trial"",""time""
""fullscreenenter"",""0"",""3009""
","
","
","""event"",""trial"",""time""
""fullscreenenter"",""0"",""3009""
","
",323.1799999998766,<img style='border: 4px solid darkgrey;' src='img/tf1_66_M_ss2.jpeg'></img>,1,NA,exp,NA,3,<img src='img/tf1_66_T1_ss2_md.jpeg'></img>,0,FALSE,NA,sub128
NA,html-keyboard-response,145,302690,0.0-10.0-0.66,"""event"",""trial"",""time""
""fullscreenenter"",""0"",""3009""
","
","
","""event"",""trial"",""time""
""fullscreenenter"",""0"",""3009""
","
",null,"<div style=""font-size:60px;"">+</div>",NA,null,fixation,2020-06-20T19:35:19Z,NA,NA,NA,NA,NA,sub128
NA,mars-trial,146,303629,0.0-10.0-1.66,"""event"",""trial"",""time""
""fullscreenenter"",""0"",""3009""
","
","
","""event"",""trial"",""time""
""fullscreenenter"",""0"",""3009""
","
",323.90500000020256,<img style='border: 4px solid darkgrey;' src='img/tf1_67_M_ss3.jpeg'></img>,1,NA,exp,NA,1,<img src='img/tf1_67_T1_ss3_md.jpeg'></img>,0,FALSE,NA,sub128
NA,html-keyboard-response,147,304134,0.0-10.0-0.67,"""event"",""trial"",""time""
""fullscreenenter"",""0"",""3009""
","
","
","""event"",""trial"",""time""
""fullscreenenter"",""0"",""3009""
","
",null,"<div style=""font-size:60px;"">+</div>",NA,null,fixation,2020-06-20T19:35:21Z,NA,NA,NA,NA,NA,sub128
NA,mars-trial,148,304984,0.0-10.0-1.67,"""event"",""trial"",""time""
""fullscreenenter"",""0"",""3009""
","
","
","""event"",""trial"",""time""
""fullscreenenter"",""0"",""3009""
","
",236.38500000012573,<img style='border: 4px solid darkgrey;' src='img/tf1_68_M_ss1.jpeg'></img>,3,NA,exp,NA,1,<img src='img/tf1_68_T1_ss1_md.jpeg'></img>,0,FALSE,NA,sub128
NA,html-keyboard-response,149,305492,0.0-10.0-0.68,"""event"",""trial"",""time""
""fullscreenenter"",""0"",""3009""
","
","
","""event"",""trial"",""time""
""fullscreenenter"",""0"",""3009""
","
",null,"<div style=""font-size:60px;"">+</div>",NA,null,fixation,2020-06-20T19:35:22Z,NA,NA,NA,NA,NA,sub128
NA,mars-trial,150,312130,0.0-10.0-1.68,"""event"",""trial"",""time""
""fullscreenenter"",""0"",""3009""
","
","
","""event"",""trial"",""time""
""fullscreenenter"",""0"",""3009""
","
",6022.574999999953,<img style='border: 4px solid darkgrey;' src='img/tf1_69_M_ss2.jpeg'></img>,3,NA,exp,NA,2,<img src='img/tf1_69_T1_ss2_md.jpeg'></img>,0,FALSE,NA,sub128
NA,html-keyboard-response,151,312640,0.0-10.0-0.69,"""event"",""trial"",""time""
""fullscreenenter"",""0"",""3009""
","
","
","""event"",""trial"",""time""
""fullscreenenter"",""0"",""3009""
","
",null,"<div style=""font-size:60px;"">+</div>",NA,null,fixation,2020-06-20T19:35:29Z,NA,NA,NA,NA,NA,sub128
NA,mars-trial,152,315870,0.0-10.0-1.69,"""event"",""trial"",""time""
""fullscreenenter"",""0"",""3009""
","
","
","""event"",""trial"",""time""
""fullscreenenter"",""0"",""3009""
","
",2610.1100000001024,<img style='border: 4px solid darkgrey;' src='img/tf1_70_M_ss3.jpeg'></img>,1,NA,exp,NA,3,<img src='img/tf1_70_T1_ss3_md.jpeg'></img>,0,FALSE,NA,sub128
NA,html-keyboard-response,153,316378,0.0-10.0-0.70,"""event"",""trial"",""time""
""fullscreenenter"",""0"",""3009""
","
","
","""event"",""trial"",""time""
""fullscreenenter"",""0"",""3009""
","
",null,"<div style=""font-size:60px;"">+</div>",NA,null,fixation,2020-06-20T19:35:33Z,NA,NA,NA,NA,NA,sub128
NA,mars-trial,154,320092,0.0-10.0-1.70,"""event"",""trial"",""time""
""fullscreenenter"",""0"",""3009""
","
","
","""event"",""trial"",""time""
""fullscreenenter"",""0"",""3009""
","
",3091.914999999979,<img style='border: 4px solid darkgrey;' src='img/tf1_71_M_ss1.jpeg'></img>,2,NA,exp,NA,2,<img src='img/tf1_71_T1_ss1_md.jpeg'></img>,0,FALSE,NA,sub128
NA,html-keyboard-response,155,320599,0.0-10.0-0.71,"""event"",""trial"",""time""
""fullscreenenter"",""0"",""3009""
","
","
","""event"",""trial"",""time""
""fullscreenenter"",""0"",""3009""
","
",null,"<div style=""font-size:60px;"">+</div>",NA,null,fixation,2020-06-20T19:35:37Z,NA,NA,NA,NA,NA,sub128
NA,mars-trial,156,321922,0.0-10.0-1.71,"""event"",""trial"",""time""
""fullscreenenter"",""0"",""3009""
","
","
","""event"",""trial"",""time""
""fullscreenenter"",""0"",""3009""
","
",704.1150000000489,<img style='border: 4px solid darkgrey;' src='img/tf1_72_M_ss2.jpeg'></img>,0,NA,exp,NA,2,<img src='img/tf1_72_T1_ss2_md.jpeg'></img>,0,FALSE,NA,sub128
NA,html-keyboard-response,157,322430,0.0-10.0-0.72,"""event"",""trial"",""time""
""fullscreenenter"",""0"",""3009""
","
","
","""event"",""trial"",""time""
""fullscreenenter"",""0"",""3009""
","
",null,"<div style=""font-size:60px;"">+</div>",NA,null,fixation,2020-06-20T19:35:39Z,NA,NA,NA,NA,NA,sub128
NA,mars-trial,158,323405,0.0-10.0-1.72,"""event"",""trial"",""time""
""fullscreenenter"",""0"",""3009""
","
","
","""event"",""trial"",""time""
""fullscreenenter"",""0"",""3009""
","
",360.5100000000093,<img style='border: 4px solid darkgrey;' src='img/tf1_73_M_ss3.jpeg'></img>,1,NA,exp,NA,3,<img src='img/tf1_73_T1_ss3_md.jpeg'></img>,0,FALSE,NA,sub128
NA,html-keyboard-response,159,323909,0.0-10.0-0.73,"""event"",""trial"",""time""
""fullscreenenter"",""0"",""3009""
","
","
","""event"",""trial"",""time""
""fullscreenenter"",""0"",""3009""
","
",null,"<div style=""font-size:60px;"">+</div>",NA,null,fixation,2020-06-20T19:35:41Z,NA,NA,NA,NA,NA,sub128
NA,mars-trial,160,324987,0.0-10.0-1.73,"""event"",""trial"",""time""
""fullscreenenter"",""0"",""3009""
","
","
","""event"",""trial"",""time""
""fullscreenenter"",""0"",""3009""
","
",464.5200000000186,<img style='border: 4px solid darkgrey;' src='img/tf1_74_M_ss1.jpeg'></img>,3,NA,exp,NA,1,<img src='img/tf1_74_T1_ss1_md.jpeg'></img>,0,FALSE,NA,sub128
NA,html-keyboard-response,161,325493,0.0-10.0-0.74,"""event"",""trial"",""time""
""fullscreenenter"",""0"",""3009""
","
","
","""event"",""trial"",""time""
""fullscreenenter"",""0"",""3009""
","
",null,"<div style=""font-size:60px;"">+</div>",NA,null,fixation,2020-06-20T19:35:42Z,NA,NA,NA,NA,NA,sub128
NA,mars-trial,162,326807,0.0-10.0-1.74,"""event"",""trial"",""time""
""fullscreenenter"",""0"",""3009""
","
","
","""event"",""trial"",""time""
""fullscreenenter"",""0"",""3009""
","
",698.4000000001979,<img style='border: 4px solid darkgrey;' src='img/tf1_75_M_ss2.jpeg'></img>,2,NA,exp,NA,3,<img src='img/tf1_75_T1_ss2_md.jpeg'></img>,0,FALSE,NA,sub128
NA,html-keyboard-response,163,327312,0.0-10.0-0.75,"""event"",""trial"",""time""
""fullscreenenter"",""0"",""3009""
","
","
","""event"",""trial"",""time""
""fullscreenenter"",""0"",""3009""
","
",null,"<div style=""font-size:60px;"">+</div>",NA,null,fixation,2020-06-20T19:35:44Z,NA,NA,NA,NA,NA,sub128
NA,mars-trial,164,327952,0.0-10.0-1.75,"""event"",""trial"",""time""
""fullscreenenter"",""0"",""3009""
","
","
","""event"",""trial"",""time""
""fullscreenenter"",""0"",""3009""
","
",27.47499999991851,<img style='border: 4px solid darkgrey;' src='img/tf1_76_M_ss3.jpeg'></img>,2,NA,exp,NA,2,<img src='img/tf1_76_T1_ss3_md.jpeg'></img>,0,FALSE,NA,sub128
NA,html-keyboard-response,165,328460,0.0-10.0-0.76,"""event"",""trial"",""time""
""fullscreenenter"",""0"",""3009""
","
","
","""event"",""trial"",""time""
""fullscreenenter"",""0"",""3009""
","
",null,"<div style=""font-size:60px;"">+</div>",NA,null,fixation,2020-06-20T19:35:45Z,NA,NA,NA,NA,NA,sub128
NA,mars-trial,166,329411,0.0-10.0-1.76,"""event"",""trial"",""time""
""fullscreenenter"",""0"",""3009""
","
","
","""event"",""trial"",""time""
""fullscreenenter"",""0"",""3009""
","
",333.06500000029337,<img style='border: 4px solid darkgrey;' src='img/tf1_77_M_ss1.jpeg'></img>,2,NA,exp,NA,1,<img src='img/tf1_77_T1_ss1_md.jpeg'></img>,0,FALSE,NA,sub128
NA,html-keyboard-response,167,329916,0.0-10.0-0.77,"""event"",""trial"",""time""
""fullscreenenter"",""0"",""3009""
","
","
","""event"",""trial"",""time""
""fullscreenenter"",""0"",""3009""
","
",null,"<div style=""font-size:60px;"">+</div>",NA,null,fixation,2020-06-20T19:35:47Z,NA,NA,NA,NA,NA,sub128
NA,mars-trial,168,330783,0.0-10.0-1.77,"""event"",""trial"",""time""
""fullscreenenter"",""0"",""3009""
","
","
","""event"",""trial"",""time""
""fullscreenenter"",""0"",""3009""
","
",254.83999999961816,<img style='border: 4px solid darkgrey;' src='img/tf1_78_M_ss2.jpeg'></img>,2,NA,exp,NA,2,<img src='img/tf1_78_T1_ss2_md.jpeg'></img>,0,FALSE,NA,sub128
NA,html-keyboard-response,169,331287,0.0-10.0-0.78,"""event"",""trial"",""time""
""fullscreenenter"",""0"",""3009""
","
","
","""event"",""trial"",""time""
""fullscreenenter"",""0"",""3009""
","
",null,"<div style=""font-size:60px;"">+</div>",NA,null,fixation,2020-06-20T19:35:48Z,NA,NA,NA,NA,NA,sub128
NA,mars-trial,170,332033,0.0-10.0-1.78,"""event"",""trial"",""time""
""fullscreenenter"",""0"",""3009""
","
","
","""event"",""trial"",""time""
""fullscreenenter"",""0"",""3009""
","
",130.11499999993248,<img style='border: 4px solid darkgrey;' src='img/tf1_79_M_ss3.jpeg'></img>,3,NA,exp,NA,2,<img src='img/tf1_79_T1_ss3_md.jpeg'></img>,0,FALSE,NA,sub128
NA,html-keyboard-response,171,332539,0.0-10.0-0.79,"""event"",""trial"",""time""
""fullscreenenter"",""0"",""3009""
","
","
","""event"",""trial"",""time""
""fullscreenenter"",""0"",""3009""
","
",null,"<div style=""font-size:60px;"">+</div>",NA,null,fixation,2020-06-20T19:35:49Z,NA,NA,NA,NA,NA,sub128
NA,mars-trial,172,333206,0.0-10.0-1.79,"""event"",""trial"",""time""
""fullscreenenter"",""0"",""3009""
","
","
","""event"",""trial"",""time""
""fullscreenenter"",""0"",""3009""
","
",47.63999999978114,<img style='border: 4px solid darkgrey;' src='img/tf1_80_M_ss1.jpeg'></img>,3,NA,exp,NA,2,<img src='img/tf1_80_T1_ss1_md.jpeg'></img>,0,FALSE,NA,sub128
NA,audio-button-response,173,338556,0.0-11.0,"""event"",""trial"",""time""
""fullscreenenter"",""0"",""3009""
","
","
","""event"",""trial"",""time""
""fullscreenenter"",""0"",""3009""
","
",5344.854999999807,audio/mars_instructions_slide5.wav,0,NA,NA,NA,NA,NA,NA,NA,NA,sub128
