success,trial_type,trial_index,time_elapsed,internal_node_id,interactions,blur_events,focus_events,fullscreenenter_events,fullscreenexit_events,rt,stimulus,button_pressed,key_press,part,timestamp,unshuffled_button,correct_response,correct_button,correct,value,subject_id
TRUE,fullscreen,0,9561,0.0-0.0,"""event"",""trial"",""time""
""focus"",""0"",""0""
""fullscreenenter"",""0"",""8612""
","
","""event"",""trial"",""time""
""focus"",""0"",""0""
","""event"",""trial"",""time""
""fullscreenenter"",""0"",""8612""
","
",NA,NA,NA,NA,NA,NA,NA,NA,NA,NA,NA,sub3
NA,pavlovia,1,9565,0.0-1.0,"""event"",""trial"",""time""
""focus"",""0"",""0""
""fullscreenenter"",""0"",""8612""
","
","""event"",""trial"",""time""
""focus"",""0"",""0""
","""event"",""trial"",""time""
""fullscreenenter"",""0"",""8612""
","
",NA,NA,NA,NA,NA,NA,NA,NA,NA,NA,NA,sub3
NA,html-button-response,2,11776,0.0-2.0,"""event"",""trial"",""time""
""focus"",""0"",""0""
""fullscreenenter"",""0"",""8612""
","
","""event"",""trial"",""time""
""focus"",""0"",""0""
","""event"",""trial"",""time""
""fullscreenenter"",""0"",""8612""
","
",2208,<p>Welcome! Press START to begin.</p><br>,0,NA,NA,NA,NA,NA,NA,NA,NA,sub3
NA,audio-button-response,3,35857,0.0-3.0,"""event"",""trial"",""time""
""focus"",""0"",""0""
""fullscreenenter"",""0"",""8612""
","
","""event"",""trial"",""time""
""focus"",""0"",""0""
","""event"",""trial"",""time""
""fullscreenenter"",""0"",""8612""
","
",24070,audio/mars_instructions_slide2.wav,0,NA,NA,NA,NA,NA,NA,NA,NA,sub3
NA,audio-button-response,4,51516,0.0-4.0,"""event"",""trial"",""time""
""focus"",""0"",""0""
""fullscreenenter"",""0"",""8612""
","
","""event"",""trial"",""time""
""focus"",""0"",""0""
","""event"",""trial"",""time""
""fullscreenenter"",""0"",""8612""
","
",15658,audio/mars_instructions_slide3.wav,0,NA,NA,NA,NA,NA,NA,NA,NA,sub3
NA,html-keyboard-response,5,52018,0.0-5.0-0.0,"""event"",""trial"",""time""
""focus"",""0"",""0""
""fullscreenenter"",""0"",""8612""
","
","""event"",""trial"",""time""
""focus"",""0"",""0""
","""event"",""trial"",""time""
""fullscreenenter"",""0"",""8612""
","
",null,"<div style=""font-size:60px;"">+</div>",NA,null,fixation,2020-06-11T23:00:49Z,NA,NA,NA,NA,NA,sub3
NA,mars-trial,6,67100,0.0-5.0-1.0,"""event"",""trial"",""time""
""focus"",""0"",""0""
""fullscreenenter"",""0"",""8612""
","
","""event"",""trial"",""time""
""focus"",""0"",""0""
","""event"",""trial"",""time""
""fullscreenenter"",""0"",""8612""
","
",12978,<img style='border: 4px solid darkgrey;' src='practice/pt1_M1.png'></img>,2,NA,practice,NA,0,<img src='practice/pt1_T1.png'></img>,0,TRUE,NA,sub3
NA,html-keyboard-response,7,67602,0.0-6.0-0.0,"""event"",""trial"",""time""
""focus"",""0"",""0""
""fullscreenenter"",""0"",""8612""
","
","""event"",""trial"",""time""
""focus"",""0"",""0""
","""event"",""trial"",""time""
""fullscreenenter"",""0"",""8612""
","
",null,"<div style=""font-size:60px;"">+</div>",NA,null,fixation,2020-06-11T23:01:05Z,NA,NA,NA,NA,NA,sub3
NA,mars-trial,8,71830,0.0-6.0-1.0,"""event"",""trial"",""time""
""focus"",""0"",""0""
""fullscreenenter"",""0"",""8612""
","
","""event"",""trial"",""time""
""focus"",""0"",""0""
","""event"",""trial"",""time""
""fullscreenenter"",""0"",""8612""
","
",2125,<img style='border: 4px solid darkgrey;' src='practice/pt2_M1.png'></img>,2,NA,practice,NA,0,<img src='practice/pt2_T1.png'></img>,0,TRUE,NA,sub3
NA,html-keyboard-response,9,72332,0.0-7.0-0.0,"""event"",""trial"",""time""
""focus"",""0"",""0""
""fullscreenenter"",""0"",""8612""
","
","""event"",""trial"",""time""
""focus"",""0"",""0""
","""event"",""trial"",""time""
""fullscreenenter"",""0"",""8612""
","
",null,"<div style=""font-size:60px;"">+</div>",NA,null,fixation,2020-06-11T23:01:09Z,NA,NA,NA,NA,NA,sub3
NA,mars-trial,10,75960,0.0-7.0-1.0,"""event"",""trial"",""time""
""focus"",""0"",""0""
""fullscreenenter"",""0"",""8612""
","
","""event"",""trial"",""time""
""focus"",""0"",""0""
","""event"",""trial"",""time""
""fullscreenenter"",""0"",""8612""
","
",1525,<img style='border: 4px solid darkgrey;' src='practice/pt3_M1.png'></img>,3,NA,practice,NA,0,<img src='practice/pt3_T1.png'></img>,0,TRUE,NA,sub3
NA,audio-button-response,11,83118,0.0-8.0,"""event"",""trial"",""time""
""focus"",""0"",""0""
""fullscreenenter"",""0"",""8612""
","
","""event"",""trial"",""time""
""focus"",""0"",""0""
","""event"",""trial"",""time""
""fullscreenenter"",""0"",""8612""
","
",7157,audio/mars_instructions_slide4.wav,0,NA,NA,NA,NA,NA,NA,NA,NA,sub3
NA,call-function,12,83118,0.0-9.0,"""event"",""trial"",""time""
""focus"",""0"",""0""
""fullscreenenter"",""0"",""8612""
","
","""event"",""trial"",""time""
""focus"",""0"",""0""
","""event"",""trial"",""time""
""fullscreenenter"",""0"",""8612""
","
",NA,NA,NA,NA,NA,NA,NA,NA,NA,NA,NA,sub3
NA,html-keyboard-response,13,83620,0.0-10.0-0.0,"""event"",""trial"",""time""
""focus"",""0"",""0""
""fullscreenenter"",""0"",""8612""
","
","""event"",""trial"",""time""
""focus"",""0"",""0""
","""event"",""trial"",""time""
""fullscreenenter"",""0"",""8612""
","
",null,"<div style=""font-size:60px;"">+</div>",NA,null,fixation,2020-06-11T23:01:21Z,NA,NA,NA,NA,NA,sub3
NA,mars-trial,14,85992,0.0-10.0-1.0,"""event"",""trial"",""time""
""focus"",""0"",""0""
""fullscreenenter"",""0"",""8612""
","
","""event"",""trial"",""time""
""focus"",""0"",""0""
","""event"",""trial"",""time""
""fullscreenenter"",""0"",""8612""
","
",1771,<img style='border: 4px solid darkgrey;' src='img/tf1_1_M_ss3.jpeg'></img>,3,NA,exp,NA,0,<img src='img/tf1_1_T1_ss3_md.jpeg'></img>,0,TRUE,NA,sub3
NA,html-keyboard-response,15,86493,0.0-10.0-0.1,"""event"",""trial"",""time""
""focus"",""0"",""0""
""fullscreenenter"",""0"",""8612""
","
","""event"",""trial"",""time""
""focus"",""0"",""0""
","""event"",""trial"",""time""
""fullscreenenter"",""0"",""8612""
","
",null,"<div style=""font-size:60px;"">+</div>",NA,null,fixation,2020-06-11T23:01:24Z,NA,NA,NA,NA,NA,sub3
NA,mars-trial,16,90553,0.0-10.0-1.1,"""event"",""trial"",""time""
""focus"",""0"",""0""
""fullscreenenter"",""0"",""8612""
","
","""event"",""trial"",""time""
""focus"",""0"",""0""
","""event"",""trial"",""time""
""fullscreenenter"",""0"",""8612""
","
",3456.0000000000146,<img style='border: 4px solid darkgrey;' src='img/tf1_2_M_ss1.jpeg'></img>,1,NA,exp,NA,0,<img src='img/tf1_2_T1_ss1_md.jpeg'></img>,0,TRUE,NA,sub3
NA,html-keyboard-response,17,91055,0.0-10.0-0.2,"""event"",""trial"",""time""
""focus"",""0"",""0""
""fullscreenenter"",""0"",""8612""
","
","""event"",""trial"",""time""
""focus"",""0"",""0""
","""event"",""trial"",""time""
""fullscreenenter"",""0"",""8612""
","
",null,"<div style=""font-size:60px;"">+</div>",NA,null,fixation,2020-06-11T23:01:28Z,NA,NA,NA,NA,NA,sub3
NA,mars-trial,18,94032,0.0-10.0-1.2,"""event"",""trial"",""time""
""focus"",""0"",""0""
""fullscreenenter"",""0"",""8612""
","
","""event"",""trial"",""time""
""focus"",""0"",""0""
","""event"",""trial"",""time""
""fullscreenenter"",""0"",""8612""
","
",2374.0000000000146,<img style='border: 4px solid darkgrey;' src='img/tf1_3_M_ss2.jpeg'></img>,2,NA,exp,NA,2,<img src='img/tf1_3_T1_ss2_md.jpeg'></img>,0,FALSE,NA,sub3
NA,html-keyboard-response,19,94533,0.0-10.0-0.3,"""event"",""trial"",""time""
""focus"",""0"",""0""
""fullscreenenter"",""0"",""8612""
","
","""event"",""trial"",""time""
""focus"",""0"",""0""
","""event"",""trial"",""time""
""fullscreenenter"",""0"",""8612""
","
",null,"<div style=""font-size:60px;"">+</div>",NA,null,fixation,2020-06-11T23:01:32Z,NA,NA,NA,NA,NA,sub3
NA,mars-trial,20,100136,0.0-10.0-1.3,"""event"",""trial"",""time""
""focus"",""0"",""0""
""fullscreenenter"",""0"",""8612""
","
","""event"",""trial"",""time""
""focus"",""0"",""0""
","""event"",""trial"",""time""
""fullscreenenter"",""0"",""8612""
","
",5000,<img style='border: 4px solid darkgrey;' src='img/tf1_4_M_ss3.jpeg'></img>,0,NA,exp,NA,0,<img src='img/tf1_4_T1_ss3_md.jpeg'></img>,0,TRUE,NA,sub3
NA,html-keyboard-response,21,100638,0.0-10.0-0.4,"""event"",""trial"",""time""
""focus"",""0"",""0""
""fullscreenenter"",""0"",""8612""
","
","""event"",""trial"",""time""
""focus"",""0"",""0""
","""event"",""trial"",""time""
""fullscreenenter"",""0"",""8612""
","
",null,"<div style=""font-size:60px;"">+</div>",NA,null,fixation,2020-06-11T23:01:38Z,NA,NA,NA,NA,NA,sub3
NA,mars-trial,22,104210,0.0-10.0-1.4,"""event"",""trial"",""time""
""focus"",""0"",""0""
""fullscreenenter"",""0"",""8612""
","
","""event"",""trial"",""time""
""focus"",""0"",""0""
","""event"",""trial"",""time""
""fullscreenenter"",""0"",""8612""
","
",2969,<img style='border: 4px solid darkgrey;' src='img/tf1_5_M_ss1.jpeg'></img>,0,NA,exp,NA,0,<img src='img/tf1_5_T1_ss1_md.jpeg'></img>,0,TRUE,NA,sub3
NA,html-keyboard-response,23,104712,0.0-10.0-0.5,"""event"",""trial"",""time""
""focus"",""0"",""0""
""fullscreenenter"",""0"",""8612""
","
","""event"",""trial"",""time""
""focus"",""0"",""0""
","""event"",""trial"",""time""
""fullscreenenter"",""0"",""8612""
","
",null,"<div style=""font-size:60px;"">+</div>",NA,null,fixation,2020-06-11T23:01:42Z,NA,NA,NA,NA,NA,sub3
NA,mars-trial,24,113168,0.0-10.0-1.5,"""event"",""trial"",""time""
""focus"",""0"",""0""
""fullscreenenter"",""0"",""8612""
","
","""event"",""trial"",""time""
""focus"",""0"",""0""
","""event"",""trial"",""time""
""fullscreenenter"",""0"",""8612""
","
",7851.999999999985,<img style='border: 4px solid darkgrey;' src='img/tf1_6_M_ss2.jpeg'></img>,2,NA,exp,NA,0,<img src='img/tf1_6_T1_ss2_md.jpeg'></img>,0,TRUE,NA,sub3
NA,html-keyboard-response,25,113669,0.0-10.0-0.6,"""event"",""trial"",""time""
""focus"",""0"",""0""
""fullscreenenter"",""0"",""8612""
","
","""event"",""trial"",""time""
""focus"",""0"",""0""
","""event"",""trial"",""time""
""fullscreenenter"",""0"",""8612""
","
",null,"<div style=""font-size:60px;"">+</div>",NA,null,fixation,2020-06-11T23:01:51Z,NA,NA,NA,NA,NA,sub3
NA,mars-trial,26,117842,0.0-10.0-1.6,"""event"",""trial"",""time""
""focus"",""0"",""0""
""fullscreenenter"",""0"",""8612""
","
","""event"",""trial"",""time""
""focus"",""0"",""0""
","""event"",""trial"",""time""
""fullscreenenter"",""0"",""8612""
","
",3569,<img style='border: 4px solid darkgrey;' src='img/tf1_7_M_ss3.jpeg'></img>,2,NA,exp,NA,0,<img src='img/tf1_7_T1_ss3_md.jpeg'></img>,0,TRUE,NA,sub3
NA,html-keyboard-response,27,118344,0.0-10.0-0.7,"""event"",""trial"",""time""
""focus"",""0"",""0""
""fullscreenenter"",""0"",""8612""
","
","""event"",""trial"",""time""
""focus"",""0"",""0""
","""event"",""trial"",""time""
""fullscreenenter"",""0"",""8612""
","
",null,"<div style=""font-size:60px;"">+</div>",NA,null,fixation,2020-06-11T23:01:55Z,NA,NA,NA,NA,NA,sub3
NA,mars-trial,28,129995,0.0-10.0-1.7,"""event"",""trial"",""time""
""focus"",""0"",""0""
""fullscreenenter"",""0"",""8612""
","
","""event"",""trial"",""time""
""focus"",""0"",""0""
","""event"",""trial"",""time""
""fullscreenenter"",""0"",""8612""
","
",11047,<img style='border: 4px solid darkgrey;' src='img/tf1_8_M_ss1.jpeg'></img>,2,NA,exp,NA,2,<img src='img/tf1_8_T1_ss1_md.jpeg'></img>,0,FALSE,NA,sub3
NA,html-keyboard-response,29,130496,0.0-10.0-0.8,"""event"",""trial"",""time""
""focus"",""0"",""0""
""fullscreenenter"",""0"",""8612""
","
","""event"",""trial"",""time""
""focus"",""0"",""0""
","""event"",""trial"",""time""
""fullscreenenter"",""0"",""8612""
","
",null,"<div style=""font-size:60px;"">+</div>",NA,null,fixation,2020-06-11T23:02:08Z,NA,NA,NA,NA,NA,sub3
NA,mars-trial,30,141295,0.0-10.0-1.8,"""event"",""trial"",""time""
""focus"",""0"",""0""
""fullscreenenter"",""0"",""8612""
","
","""event"",""trial"",""time""
""focus"",""0"",""0""
","""event"",""trial"",""time""
""fullscreenenter"",""0"",""8612""
","
",10193.99999999997,<img style='border: 4px solid darkgrey;' src='img/tf1_9_M_ss2.jpeg'></img>,3,NA,exp,NA,0,<img src='img/tf1_9_T1_ss2_md.jpeg'></img>,0,TRUE,NA,sub3
NA,html-keyboard-response,31,141797,0.0-10.0-0.9,"""event"",""trial"",""time""
""focus"",""0"",""0""
""fullscreenenter"",""0"",""8612""
","
","""event"",""trial"",""time""
""focus"",""0"",""0""
","""event"",""trial"",""time""
""fullscreenenter"",""0"",""8612""
","
",null,"<div style=""font-size:60px;"">+</div>",NA,null,fixation,2020-06-11T23:02:19Z,NA,NA,NA,NA,NA,sub3
NA,mars-trial,32,150725,0.0-10.0-1.9,"""event"",""trial"",""time""
""focus"",""0"",""0""
""fullscreenenter"",""0"",""8612""
","
","""event"",""trial"",""time""
""focus"",""0"",""0""
","""event"",""trial"",""time""
""fullscreenenter"",""0"",""8612""
","
",8323,<img style='border: 4px solid darkgrey;' src='img/tf1_10_M_ss3.jpeg'></img>,2,NA,exp,NA,1,<img src='img/tf1_10_T1_ss3_md.jpeg'></img>,0,FALSE,NA,sub3
NA,html-keyboard-response,33,151227,0.0-10.0-0.10,"""event"",""trial"",""time""
""focus"",""0"",""0""
""fullscreenenter"",""0"",""8612""
","
","""event"",""trial"",""time""
""focus"",""0"",""0""
","""event"",""trial"",""time""
""fullscreenenter"",""0"",""8612""
","
",null,"<div style=""font-size:60px;"">+</div>",NA,null,fixation,2020-06-11T23:02:28Z,NA,NA,NA,NA,NA,sub3
NA,mars-trial,34,161827,0.0-10.0-1.10,"""event"",""trial"",""time""
""focus"",""0"",""0""
""fullscreenenter"",""0"",""8612""
","
","""event"",""trial"",""time""
""focus"",""0"",""0""
","""event"",""trial"",""time""
""fullscreenenter"",""0"",""8612""
","
",9998,<img style='border: 4px solid darkgrey;' src='img/tf1_11_M_ss1.jpeg'></img>,2,NA,exp,NA,2,<img src='img/tf1_11_T1_ss1_md.jpeg'></img>,0,FALSE,NA,sub3
NA,html-keyboard-response,35,162329,0.0-10.0-0.11,"""event"",""trial"",""time""
""focus"",""0"",""0""
""fullscreenenter"",""0"",""8612""
","
","""event"",""trial"",""time""
""focus"",""0"",""0""
","""event"",""trial"",""time""
""fullscreenenter"",""0"",""8612""
","
",null,"<div style=""font-size:60px;"">+</div>",NA,null,fixation,2020-06-11T23:02:39Z,NA,NA,NA,NA,NA,sub3
NA,mars-trial,36,171062,0.0-10.0-1.11,"""event"",""trial"",""time""
""focus"",""0"",""0""
""fullscreenenter"",""0"",""8612""
","
","""event"",""trial"",""time""
""focus"",""0"",""0""
","""event"",""trial"",""time""
""fullscreenenter"",""0"",""8612""
","
",8129,<img style='border: 4px solid darkgrey;' src='img/tf1_12_M_ss2.jpeg'></img>,0,NA,exp,NA,1,<img src='img/tf1_12_T1_ss2_md.jpeg'></img>,0,FALSE,NA,sub3
NA,html-keyboard-response,37,171563,0.0-10.0-0.12,"""event"",""trial"",""time""
""focus"",""0"",""0""
""fullscreenenter"",""0"",""8612""
","
","""event"",""trial"",""time""
""focus"",""0"",""0""
","""event"",""trial"",""time""
""fullscreenenter"",""0"",""8612""
","
",null,"<div style=""font-size:60px;"">+</div>",NA,null,fixation,2020-06-11T23:02:49Z,NA,NA,NA,NA,NA,sub3
NA,mars-trial,38,179142,0.0-10.0-1.12,"""event"",""trial"",""time""
""focus"",""0"",""0""
""fullscreenenter"",""0"",""8612""
","
","""event"",""trial"",""time""
""focus"",""0"",""0""
","""event"",""trial"",""time""
""fullscreenenter"",""0"",""8612""
","
",6975,<img style='border: 4px solid darkgrey;' src='img/tf1_13_M_ss3.jpeg'></img>,2,NA,exp,NA,0,<img src='img/tf1_13_T1_ss3_md.jpeg'></img>,0,TRUE,NA,sub3
NA,html-keyboard-response,39,179643,0.0-10.0-0.13,"""event"",""trial"",""time""
""focus"",""0"",""0""
""fullscreenenter"",""0"",""8612""
","
","""event"",""trial"",""time""
""focus"",""0"",""0""
","""event"",""trial"",""time""
""fullscreenenter"",""0"",""8612""
","
",null,"<div style=""font-size:60px;"">+</div>",NA,null,fixation,2020-06-11T23:02:57Z,NA,NA,NA,NA,NA,sub3
NA,mars-trial,40,197036,0.0-10.0-1.13,"""event"",""trial"",""time""
""focus"",""0"",""0""
""fullscreenenter"",""0"",""8612""
","
","""event"",""trial"",""time""
""focus"",""0"",""0""
","""event"",""trial"",""time""
""fullscreenenter"",""0"",""8612""
","
",16789,<img style='border: 4px solid darkgrey;' src='img/tf1_14_M_ss1.jpeg'></img>,2,NA,exp,NA,0,<img src='img/tf1_14_T1_ss1_md.jpeg'></img>,0,TRUE,NA,sub3
NA,html-keyboard-response,41,197537,0.0-10.0-0.14,"""event"",""trial"",""time""
""focus"",""0"",""0""
""fullscreenenter"",""0"",""8612""
","
","""event"",""trial"",""time""
""focus"",""0"",""0""
","""event"",""trial"",""time""
""fullscreenenter"",""0"",""8612""
","
",null,"<div style=""font-size:60px;"">+</div>",NA,null,fixation,2020-06-11T23:03:15Z,NA,NA,NA,NA,NA,sub3
NA,mars-trial,42,211230,0.0-10.0-1.14,"""event"",""trial"",""time""
""focus"",""0"",""0""
""fullscreenenter"",""0"",""8612""
","
","""event"",""trial"",""time""
""focus"",""0"",""0""
","""event"",""trial"",""time""
""fullscreenenter"",""0"",""8612""
","
",13090,<img style='border: 4px solid darkgrey;' src='img/tf1_15_M_ss2.jpeg'></img>,0,NA,exp,NA,2,<img src='img/tf1_15_T1_ss2_md.jpeg'></img>,0,FALSE,NA,sub3
NA,html-keyboard-response,43,211732,0.0-10.0-0.15,"""event"",""trial"",""time""
""focus"",""0"",""0""
""fullscreenenter"",""0"",""8612""
","
","""event"",""trial"",""time""
""focus"",""0"",""0""
","""event"",""trial"",""time""
""fullscreenenter"",""0"",""8612""
","
",null,"<div style=""font-size:60px;"">+</div>",NA,null,fixation,2020-06-11T23:03:29Z,NA,NA,NA,NA,NA,sub3
NA,mars-trial,44,217977,0.0-10.0-1.15,"""event"",""trial"",""time""
""focus"",""0"",""0""
""fullscreenenter"",""0"",""8612""
","
","""event"",""trial"",""time""
""focus"",""0"",""0""
","""event"",""trial"",""time""
""fullscreenenter"",""0"",""8612""
","
",5641,<img style='border: 4px solid darkgrey;' src='img/tf1_16_M_ss3.jpeg'></img>,3,NA,exp,NA,1,<img src='img/tf1_16_T1_ss3_md.jpeg'></img>,0,FALSE,NA,sub3
NA,html-keyboard-response,45,218478,0.0-10.0-0.16,"""event"",""trial"",""time""
""focus"",""0"",""0""
""fullscreenenter"",""0"",""8612""
","
","""event"",""trial"",""time""
""focus"",""0"",""0""
","""event"",""trial"",""time""
""fullscreenenter"",""0"",""8612""
","
",null,"<div style=""font-size:60px;"">+</div>",NA,null,fixation,2020-06-11T23:03:36Z,NA,NA,NA,NA,NA,sub3
NA,mars-trial,46,228065,0.0-10.0-1.16,"""event"",""trial"",""time""
""focus"",""0"",""0""
""fullscreenenter"",""0"",""8612""
","
","""event"",""trial"",""time""
""focus"",""0"",""0""
","""event"",""trial"",""time""
""fullscreenenter"",""0"",""8612""
","
",8983,<img style='border: 4px solid darkgrey;' src='img/tf1_17_M_ss1.jpeg'></img>,3,NA,exp,NA,3,<img src='img/tf1_17_T1_ss1_md.jpeg'></img>,0,FALSE,NA,sub3
NA,html-keyboard-response,47,228566,0.0-10.0-0.17,"""event"",""trial"",""time""
""focus"",""0"",""0""
""fullscreenenter"",""0"",""8612""
","
","""event"",""trial"",""time""
""focus"",""0"",""0""
","""event"",""trial"",""time""
""fullscreenenter"",""0"",""8612""
","
",null,"<div style=""font-size:60px;"">+</div>",NA,null,fixation,2020-06-11T23:03:46Z,NA,NA,NA,NA,NA,sub3
NA,mars-trial,48,233966,0.0-10.0-1.17,"""event"",""trial"",""time""
""focus"",""0"",""0""
""fullscreenenter"",""0"",""8612""
","
","""event"",""trial"",""time""
""focus"",""0"",""0""
","""event"",""trial"",""time""
""fullscreenenter"",""0"",""8612""
","
",4796,<img style='border: 4px solid darkgrey;' src='img/tf1_18_M_ss2.jpeg'></img>,2,NA,exp,NA,0,<img src='img/tf1_18_T1_ss2_md.jpeg'></img>,0,TRUE,NA,sub3
NA,html-keyboard-response,49,234468,0.0-10.0-0.18,"""event"",""trial"",""time""
""focus"",""0"",""0""
""fullscreenenter"",""0"",""8612""
","
","""event"",""trial"",""time""
""focus"",""0"",""0""
","""event"",""trial"",""time""
""fullscreenenter"",""0"",""8612""
","
",null,"<div style=""font-size:60px;"">+</div>",NA,null,fixation,2020-06-11T23:03:52Z,NA,NA,NA,NA,NA,sub3
NA,mars-trial,50,240751,0.0-10.0-1.18,"""event"",""trial"",""time""
""focus"",""0"",""0""
""fullscreenenter"",""0"",""8612""
","
","""event"",""trial"",""time""
""focus"",""0"",""0""
","""event"",""trial"",""time""
""fullscreenenter"",""0"",""8612""
","
",5679,<img style='border: 4px solid darkgrey;' src='img/tf1_19_M_ss3.jpeg'></img>,2,NA,exp,NA,2,<img src='img/tf1_19_T1_ss3_md.jpeg'></img>,0,FALSE,NA,sub3
NA,html-keyboard-response,51,241252,0.0-10.0-0.19,"""event"",""trial"",""time""
""focus"",""0"",""0""
""fullscreenenter"",""0"",""8612""
","
","""event"",""trial"",""time""
""focus"",""0"",""0""
","""event"",""trial"",""time""
""fullscreenenter"",""0"",""8612""
","
",null,"<div style=""font-size:60px;"">+</div>",NA,null,fixation,2020-06-11T23:03:58Z,NA,NA,NA,NA,NA,sub3
NA,mars-trial,52,249455,0.0-10.0-1.19,"""event"",""trial"",""time""
""focus"",""0"",""0""
""fullscreenenter"",""0"",""8612""
","
","""event"",""trial"",""time""
""focus"",""0"",""0""
","""event"",""trial"",""time""
""fullscreenenter"",""0"",""8612""
","
",7601.000000000029,<img style='border: 4px solid darkgrey;' src='img/tf1_20_M_ss1.jpeg'></img>,0,NA,exp,NA,0,<img src='img/tf1_20_T1_ss1_md.jpeg'></img>,0,TRUE,NA,sub3
NA,html-keyboard-response,53,249956,0.0-10.0-0.20,"""event"",""trial"",""time""
""focus"",""0"",""0""
""fullscreenenter"",""0"",""8612""
","
","""event"",""trial"",""time""
""focus"",""0"",""0""
","""event"",""trial"",""time""
""fullscreenenter"",""0"",""8612""
","
",null,"<div style=""font-size:60px;"">+</div>",NA,null,fixation,2020-06-11T23:04:07Z,NA,NA,NA,NA,NA,sub3
NA,mars-trial,54,256430,0.0-10.0-1.20,"""event"",""trial"",""time""
""focus"",""0"",""0""
""fullscreenenter"",""0"",""8612""
","
","""event"",""trial"",""time""
""focus"",""0"",""0""
","""event"",""trial"",""time""
""fullscreenenter"",""0"",""8612""
","
",5869.000000000029,<img style='border: 4px solid darkgrey;' src='img/tf1_21_M_ss2.jpeg'></img>,3,NA,exp,NA,3,<img src='img/tf1_21_T1_ss2_md.jpeg'></img>,0,FALSE,NA,sub3
NA,html-keyboard-response,55,256930,0.0-10.0-0.21,"""event"",""trial"",""time""
""focus"",""0"",""0""
""fullscreenenter"",""0"",""8612""
","
","""event"",""trial"",""time""
""focus"",""0"",""0""
","""event"",""trial"",""time""
""fullscreenenter"",""0"",""8612""
","
",null,"<div style=""font-size:60px;"">+</div>",NA,null,fixation,2020-06-11T23:04:14Z,NA,NA,NA,NA,NA,sub3
NA,mars-trial,56,261706,0.0-10.0-1.21,"""event"",""trial"",""time""
""focus"",""0"",""0""
""fullscreenenter"",""0"",""8612""
","
","""event"",""trial"",""time""
""focus"",""0"",""0""
","""event"",""trial"",""time""
""fullscreenenter"",""0"",""8612""
","
",4171.999999999971,<img style='border: 4px solid darkgrey;' src='img/tf1_22_M_ss3.jpeg'></img>,0,NA,exp,NA,0,<img src='img/tf1_22_T1_ss3_md.jpeg'></img>,0,TRUE,NA,sub3
NA,html-keyboard-response,57,262207,0.0-10.0-0.22,"""event"",""trial"",""time""
""focus"",""0"",""0""
""fullscreenenter"",""0"",""8612""
","
","""event"",""trial"",""time""
""focus"",""0"",""0""
","""event"",""trial"",""time""
""fullscreenenter"",""0"",""8612""
","
",null,"<div style=""font-size:60px;"">+</div>",NA,null,fixation,2020-06-11T23:04:19Z,NA,NA,NA,NA,NA,sub3
NA,mars-trial,58,264916,0.0-10.0-1.22,"""event"",""trial"",""time""
""focus"",""0"",""0""
""fullscreenenter"",""0"",""8612""
","
","""event"",""trial"",""time""
""focus"",""0"",""0""
","""event"",""trial"",""time""
""fullscreenenter"",""0"",""8612""
","
",2105,<img style='border: 4px solid darkgrey;' src='img/tf1_23_M_ss1.jpeg'></img>,3,NA,exp,NA,2,<img src='img/tf1_23_T1_ss1_md.jpeg'></img>,0,FALSE,NA,sub3
NA,html-keyboard-response,59,265418,0.0-10.0-0.23,"""event"",""trial"",""time""
""focus"",""0"",""0""
""fullscreenenter"",""0"",""8612""
","
","""event"",""trial"",""time""
""focus"",""0"",""0""
","""event"",""trial"",""time""
""fullscreenenter"",""0"",""8612""
","
",null,"<div style=""font-size:60px;"">+</div>",NA,null,fixation,2020-06-11T23:04:23Z,NA,NA,NA,NA,NA,sub3
NA,mars-trial,60,272487,0.0-10.0-1.23,"""event"",""trial"",""time""
""focus"",""0"",""0""
""fullscreenenter"",""0"",""8612""
","
","""event"",""trial"",""time""
""focus"",""0"",""0""
","""event"",""trial"",""time""
""fullscreenenter"",""0"",""8612""
","
",6466,<img style='border: 4px solid darkgrey;' src='img/tf1_24_M_ss2.jpeg'></img>,2,NA,exp,NA,1,<img src='img/tf1_24_T1_ss2_md.jpeg'></img>,0,FALSE,NA,sub3
NA,html-keyboard-response,61,272988,0.0-10.0-0.24,"""event"",""trial"",""time""
""focus"",""0"",""0""
""fullscreenenter"",""0"",""8612""
","
","""event"",""trial"",""time""
""focus"",""0"",""0""
","""event"",""trial"",""time""
""fullscreenenter"",""0"",""8612""
","
",null,"<div style=""font-size:60px;"">+</div>",NA,null,fixation,2020-06-11T23:04:30Z,NA,NA,NA,NA,NA,sub3
NA,mars-trial,62,279311,0.0-10.0-1.24,"""event"",""trial"",""time""
""focus"",""0"",""0""
""fullscreenenter"",""0"",""8612""
","
","""event"",""trial"",""time""
""focus"",""0"",""0""
","""event"",""trial"",""time""
""fullscreenenter"",""0"",""8612""
","
",5719.999999999942,<img style='border: 4px solid darkgrey;' src='img/tf1_25_M_ss3.jpeg'></img>,3,NA,exp,NA,0,<img src='img/tf1_25_T1_ss3_md.jpeg'></img>,0,TRUE,NA,sub3
NA,html-keyboard-response,63,279813,0.0-10.0-0.25,"""event"",""trial"",""time""
""focus"",""0"",""0""
""fullscreenenter"",""0"",""8612""
","
","""event"",""trial"",""time""
""focus"",""0"",""0""
","""event"",""trial"",""time""
""fullscreenenter"",""0"",""8612""
","
",null,"<div style=""font-size:60px;"">+</div>",NA,null,fixation,2020-06-11T23:04:37Z,NA,NA,NA,NA,NA,sub3
NA,mars-trial,64,282830,0.0-10.0-1.25,"""event"",""trial"",""time""
""focus"",""0"",""0""
""fullscreenenter"",""0"",""8612""
","
","""event"",""trial"",""time""
""focus"",""0"",""0""
","""event"",""trial"",""time""
""fullscreenenter"",""0"",""8612""
","
",2414,<img style='border: 4px solid darkgrey;' src='img/tf1_26_M_ss1.jpeg'></img>,3,NA,exp,NA,1,<img src='img/tf1_26_T1_ss1_md.jpeg'></img>,0,FALSE,NA,sub3
NA,html-keyboard-response,65,283331,0.0-10.0-0.26,"""event"",""trial"",""time""
""focus"",""0"",""0""
""fullscreenenter"",""0"",""8612""
","
","""event"",""trial"",""time""
""focus"",""0"",""0""
","""event"",""trial"",""time""
""fullscreenenter"",""0"",""8612""
","
",null,"<div style=""font-size:60px;"">+</div>",NA,null,fixation,2020-06-11T23:04:40Z,NA,NA,NA,NA,NA,sub3
NA,mars-trial,66,286699,0.0-10.0-1.26,"""event"",""trial"",""time""
""focus"",""0"",""0""
""fullscreenenter"",""0"",""8612""
","
","""event"",""trial"",""time""
""focus"",""0"",""0""
","""event"",""trial"",""time""
""fullscreenenter"",""0"",""8612""
","
",2764,<img style='border: 4px solid darkgrey;' src='img/tf1_27_M_ss2.jpeg'></img>,2,NA,exp,NA,3,<img src='img/tf1_27_T1_ss2_md.jpeg'></img>,0,FALSE,NA,sub3
NA,html-keyboard-response,67,287201,0.0-10.0-0.27,"""event"",""trial"",""time""
""focus"",""0"",""0""
""fullscreenenter"",""0"",""8612""
","
","""event"",""trial"",""time""
""focus"",""0"",""0""
","""event"",""trial"",""time""
""fullscreenenter"",""0"",""8612""
","
",null,"<div style=""font-size:60px;"">+</div>",NA,null,fixation,2020-06-11T23:04:44Z,NA,NA,NA,NA,NA,sub3
NA,mars-trial,68,292617,0.0-10.0-1.27,"""event"",""trial"",""time""
""focus"",""0"",""0""
""fullscreenenter"",""0"",""8612""
","
","""event"",""trial"",""time""
""focus"",""0"",""0""
","""event"",""trial"",""time""
""fullscreenenter"",""0"",""8612""
","
",4810.999999999942,<img style='border: 4px solid darkgrey;' src='img/tf1_28_M_ss3.jpeg'></img>,2,NA,exp,NA,1,<img src='img/tf1_28_T1_ss3_md.jpeg'></img>,0,FALSE,NA,sub3
NA,html-keyboard-response,69,293117,0.0-10.0-0.28,"""event"",""trial"",""time""
""focus"",""0"",""0""
""fullscreenenter"",""0"",""8612""
","
","""event"",""trial"",""time""
""focus"",""0"",""0""
","""event"",""trial"",""time""
""fullscreenenter"",""0"",""8612""
","
",null,"<div style=""font-size:60px;"">+</div>",NA,null,fixation,2020-06-11T23:04:50Z,NA,NA,NA,NA,NA,sub3
NA,mars-trial,70,297655,0.0-10.0-1.28,"""event"",""trial"",""time""
""focus"",""0"",""0""
""fullscreenenter"",""0"",""8612""
","
","""event"",""trial"",""time""
""focus"",""0"",""0""
","""event"",""trial"",""time""
""fullscreenenter"",""0"",""8612""
","
",3935,<img style='border: 4px solid darkgrey;' src='img/tf1_29_M_ss1.jpeg'></img>,3,NA,exp,NA,1,<img src='img/tf1_29_T1_ss1_md.jpeg'></img>,0,FALSE,NA,sub3
NA,html-keyboard-response,71,298156,0.0-10.0-0.29,"""event"",""trial"",""time""
""focus"",""0"",""0""
""fullscreenenter"",""0"",""8612""
","
","""event"",""trial"",""time""
""focus"",""0"",""0""
","""event"",""trial"",""time""
""fullscreenenter"",""0"",""8612""
","
",null,"<div style=""font-size:60px;"">+</div>",NA,null,fixation,2020-06-11T23:04:55Z,NA,NA,NA,NA,NA,sub3
NA,mars-trial,72,303735,0.0-10.0-1.29,"""event"",""trial"",""time""
""focus"",""0"",""0""
""fullscreenenter"",""0"",""8612""
","
","""event"",""trial"",""time""
""focus"",""0"",""0""
","""event"",""trial"",""time""
""fullscreenenter"",""0"",""8612""
","
",4975,<img style='border: 4px solid darkgrey;' src='img/tf1_30_M_ss2.jpeg'></img>,3,NA,exp,NA,3,<img src='img/tf1_30_T1_ss2_md.jpeg'></img>,0,FALSE,NA,sub3
NA,html-keyboard-response,73,304237,0.0-10.0-0.30,"""event"",""trial"",""time""
""focus"",""0"",""0""
""fullscreenenter"",""0"",""8612""
","
","""event"",""trial"",""time""
""focus"",""0"",""0""
","""event"",""trial"",""time""
""fullscreenenter"",""0"",""8612""
","
",null,"<div style=""font-size:60px;"">+</div>",NA,null,fixation,2020-06-11T23:05:01Z,NA,NA,NA,NA,NA,sub3
NA,mars-trial,74,308514,0.0-10.0-1.30,"""event"",""trial"",""time""
""focus"",""0"",""0""
""fullscreenenter"",""0"",""8612""
","
","""event"",""trial"",""time""
""focus"",""0"",""0""
","""event"",""trial"",""time""
""fullscreenenter"",""0"",""8612""
","
",3675,<img style='border: 4px solid darkgrey;' src='img/tf1_31_M_ss3.jpeg'></img>,2,NA,exp,NA,2,<img src='img/tf1_31_T1_ss3_md.jpeg'></img>,0,FALSE,NA,sub3
NA,html-keyboard-response,75,309015,0.0-10.0-0.31,"""event"",""trial"",""time""
""focus"",""0"",""0""
""fullscreenenter"",""0"",""8612""
","
","""event"",""trial"",""time""
""focus"",""0"",""0""
","""event"",""trial"",""time""
""fullscreenenter"",""0"",""8612""
","
",null,"<div style=""font-size:60px;"">+</div>",NA,null,fixation,2020-06-11T23:05:06Z,NA,NA,NA,NA,NA,sub3
NA,mars-trial,76,311237,0.0-10.0-1.31,"""event"",""trial"",""time""
""focus"",""0"",""0""
""fullscreenenter"",""0"",""8612""
","
","""event"",""trial"",""time""
""focus"",""0"",""0""
","""event"",""trial"",""time""
""fullscreenenter"",""0"",""8612""
","
",1618,<img style='border: 4px solid darkgrey;' src='img/tf1_32_M_ss1.jpeg'></img>,3,NA,exp,NA,0,<img src='img/tf1_32_T1_ss1_md.jpeg'></img>,0,TRUE,NA,sub3
NA,html-keyboard-response,77,311738,0.0-10.0-0.32,"""event"",""trial"",""time""
""focus"",""0"",""0""
""fullscreenenter"",""0"",""8612""
","
","""event"",""trial"",""time""
""focus"",""0"",""0""
","""event"",""trial"",""time""
""fullscreenenter"",""0"",""8612""
","
",null,"<div style=""font-size:60px;"">+</div>",NA,null,fixation,2020-06-11T23:05:09Z,NA,NA,NA,NA,NA,sub3
NA,mars-trial,78,315862,0.0-10.0-1.32,"""event"",""trial"",""time""
""focus"",""0"",""0""
""fullscreenenter"",""0"",""8612""
","
","""event"",""trial"",""time""
""focus"",""0"",""0""
","""event"",""trial"",""time""
""fullscreenenter"",""0"",""8612""
","
",3519.999999999942,<img style='border: 4px solid darkgrey;' src='img/tf1_33_M_ss2.jpeg'></img>,2,NA,exp,NA,0,<img src='img/tf1_33_T1_ss2_md.jpeg'></img>,0,TRUE,NA,sub3
NA,html-keyboard-response,79,316363,0.0-10.0-0.33,"""event"",""trial"",""time""
""focus"",""0"",""0""
""fullscreenenter"",""0"",""8612""
","
","""event"",""trial"",""time""
""focus"",""0"",""0""
","""event"",""trial"",""time""
""fullscreenenter"",""0"",""8612""
","
",null,"<div style=""font-size:60px;"">+</div>",NA,null,fixation,2020-06-11T23:05:13Z,NA,NA,NA,NA,NA,sub3
NA,mars-trial,80,318610,0.0-10.0-1.33,"""event"",""trial"",""time""
""focus"",""0"",""0""
""fullscreenenter"",""0"",""8612""
","
","""event"",""trial"",""time""
""focus"",""0"",""0""
","""event"",""trial"",""time""
""fullscreenenter"",""0"",""8612""
","
",1643,<img style='border: 4px solid darkgrey;' src='img/tf1_34_M_ss3.jpeg'></img>,2,NA,exp,NA,1,<img src='img/tf1_34_T1_ss3_md.jpeg'></img>,0,FALSE,NA,sub3
NA,html-keyboard-response,81,319112,0.0-10.0-0.34,"""event"",""trial"",""time""
""focus"",""0"",""0""
""fullscreenenter"",""0"",""8612""
","
","""event"",""trial"",""time""
""focus"",""0"",""0""
","""event"",""trial"",""time""
""fullscreenenter"",""0"",""8612""
","
",null,"<div style=""font-size:60px;"">+</div>",NA,null,fixation,2020-06-11T23:05:16Z,NA,NA,NA,NA,NA,sub3
NA,mars-trial,82,326298,0.0-10.0-1.34,"""event"",""trial"",""time""
""focus"",""0"",""0""
""fullscreenenter"",""0"",""8612""
","
","""event"",""trial"",""time""
""focus"",""0"",""0""
","""event"",""trial"",""time""
""fullscreenenter"",""0"",""8612""
","
",6583,<img style='border: 4px solid darkgrey;' src='img/tf1_35_M_ss1.jpeg'></img>,1,NA,exp,NA,1,<img src='img/tf1_35_T1_ss1_md.jpeg'></img>,0,FALSE,NA,sub3
NA,html-keyboard-response,83,326799,0.0-10.0-0.35,"""event"",""trial"",""time""
""focus"",""0"",""0""
""fullscreenenter"",""0"",""8612""
","
","""event"",""trial"",""time""
""focus"",""0"",""0""
","""event"",""trial"",""time""
""fullscreenenter"",""0"",""8612""
","
",null,"<div style=""font-size:60px;"">+</div>",NA,null,fixation,2020-06-11T23:05:24Z,NA,NA,NA,NA,NA,sub3
NA,mars-trial,84,336444,0.0-10.0-1.35,"""event"",""trial"",""time""
""focus"",""0"",""0""
""fullscreenenter"",""0"",""8612""
","
","""event"",""trial"",""time""
""focus"",""0"",""0""
","""event"",""trial"",""time""
""fullscreenenter"",""0"",""8612""
","
",9041.000000000058,<img style='border: 4px solid darkgrey;' src='img/tf1_36_M_ss2.jpeg'></img>,0,NA,exp,NA,1,<img src='img/tf1_36_T1_ss2_md.jpeg'></img>,0,FALSE,NA,sub3
NA,html-keyboard-response,85,336946,0.0-10.0-0.36,"""event"",""trial"",""time""
""focus"",""0"",""0""
""fullscreenenter"",""0"",""8612""
","
","""event"",""trial"",""time""
""focus"",""0"",""0""
","""event"",""trial"",""time""
""fullscreenenter"",""0"",""8612""
","
",null,"<div style=""font-size:60px;"">+</div>",NA,null,fixation,2020-06-11T23:05:34Z,NA,NA,NA,NA,NA,sub3
NA,mars-trial,86,340597,0.0-10.0-1.36,"""event"",""trial"",""time""
""focus"",""0"",""0""
""fullscreenenter"",""0"",""8612""
","
","""event"",""trial"",""time""
""focus"",""0"",""0""
","""event"",""trial"",""time""
""fullscreenenter"",""0"",""8612""
","
",3047,<img style='border: 4px solid darkgrey;' src='img/tf1_37_M_ss3.jpeg'></img>,2,NA,exp,NA,3,<img src='img/tf1_37_T1_ss3_md.jpeg'></img>,0,FALSE,NA,sub3
NA,html-keyboard-response,87,341098,0.0-10.0-0.37,"""event"",""trial"",""time""
""focus"",""0"",""0""
""fullscreenenter"",""0"",""8612""
","
","""event"",""trial"",""time""
""focus"",""0"",""0""
","""event"",""trial"",""time""
""fullscreenenter"",""0"",""8612""
","
",null,"<div style=""font-size:60px;"">+</div>",NA,null,fixation,2020-06-11T23:05:38Z,NA,NA,NA,NA,NA,sub3
NA,mars-trial,88,348620,0.0-10.0-1.37,"""event"",""trial"",""time""
""focus"",""0"",""0""
""fullscreenenter"",""0"",""8612""
","
","""event"",""trial"",""time""
""focus"",""0"",""0""
","""event"",""trial"",""time""
""fullscreenenter"",""0"",""8612""
","
",6918,<img style='border: 4px solid darkgrey;' src='img/tf1_38_M_ss1.jpeg'></img>,0,NA,exp,NA,0,<img src='img/tf1_38_T1_ss1_md.jpeg'></img>,0,TRUE,NA,sub3
NA,html-keyboard-response,89,349122,0.0-10.0-0.38,"""event"",""trial"",""time""
""focus"",""0"",""0""
""fullscreenenter"",""0"",""8612""
","
","""event"",""trial"",""time""
""focus"",""0"",""0""
","""event"",""trial"",""time""
""fullscreenenter"",""0"",""8612""
","
",null,"<div style=""font-size:60px;"">+</div>",NA,null,fixation,2020-06-11T23:05:46Z,NA,NA,NA,NA,NA,sub3
NA,mars-trial,90,352204,0.0-10.0-1.38,"""event"",""trial"",""time""
""focus"",""0"",""0""
""fullscreenenter"",""0"",""8612""
","
","""event"",""trial"",""time""
""focus"",""0"",""0""
","""event"",""trial"",""time""
""fullscreenenter"",""0"",""8612""
","
",2478,<img style='border: 4px solid darkgrey;' src='img/tf1_39_M_ss2.jpeg'></img>,1,NA,exp,NA,3,<img src='img/tf1_39_T1_ss2_md.jpeg'></img>,0,FALSE,NA,sub3
NA,html-keyboard-response,91,352706,0.0-10.0-0.39,"""event"",""trial"",""time""
""focus"",""0"",""0""
""fullscreenenter"",""0"",""8612""
","
","""event"",""trial"",""time""
""focus"",""0"",""0""
","""event"",""trial"",""time""
""fullscreenenter"",""0"",""8612""
","
",null,"<div style=""font-size:60px;"">+</div>",NA,null,fixation,2020-06-11T23:05:50Z,NA,NA,NA,NA,NA,sub3
NA,mars-trial,92,355397,0.0-10.0-1.39,"""event"",""trial"",""time""
""focus"",""0"",""0""
""fullscreenenter"",""0"",""8612""
","
","""event"",""trial"",""time""
""focus"",""0"",""0""
","""event"",""trial"",""time""
""fullscreenenter"",""0"",""8612""
","
",2088,<img style='border: 4px solid darkgrey;' src='img/tf1_40_M_ss3.jpeg'></img>,2,NA,exp,NA,2,<img src='img/tf1_40_T1_ss3_md.jpeg'></img>,0,FALSE,NA,sub3
NA,html-keyboard-response,93,355898,0.0-10.0-0.40,"""event"",""trial"",""time""
""focus"",""0"",""0""
""fullscreenenter"",""0"",""8612""
","
","""event"",""trial"",""time""
""focus"",""0"",""0""
","""event"",""trial"",""time""
""fullscreenenter"",""0"",""8612""
","
",null,"<div style=""font-size:60px;"">+</div>",NA,null,fixation,2020-06-11T23:05:53Z,NA,NA,NA,NA,NA,sub3
NA,mars-trial,94,365589,0.0-10.0-1.40,"""event"",""trial"",""time""
""focus"",""0"",""0""
""fullscreenenter"",""0"",""8612""
","
","""event"",""trial"",""time""
""focus"",""0"",""0""
","""event"",""trial"",""time""
""fullscreenenter"",""0"",""8612""
","
",9087,<img style='border: 4px solid darkgrey;' src='img/tf1_41_M_ss1.jpeg'></img>,3,NA,exp,NA,0,<img src='img/tf1_41_T1_ss1_md.jpeg'></img>,0,TRUE,NA,sub3
NA,html-keyboard-response,95,366090,0.0-10.0-0.41,"""event"",""trial"",""time""
""focus"",""0"",""0""
""fullscreenenter"",""0"",""8612""
","
","""event"",""trial"",""time""
""focus"",""0"",""0""
","""event"",""trial"",""time""
""fullscreenenter"",""0"",""8612""
","
",null,"<div style=""font-size:60px;"">+</div>",NA,null,fixation,2020-06-11T23:06:03Z,NA,NA,NA,NA,NA,sub3
NA,mars-trial,96,369882,0.0-10.0-1.41,"""event"",""trial"",""time""
""focus"",""0"",""0""
""fullscreenenter"",""0"",""8612""
","
","""event"",""trial"",""time""
""focus"",""0"",""0""
","""event"",""trial"",""time""
""fullscreenenter"",""0"",""8612""
","
",3186.999999999942,<img style='border: 4px solid darkgrey;' src='img/tf1_42_M_ss2.jpeg'></img>,3,NA,exp,NA,3,<img src='img/tf1_42_T1_ss2_md.jpeg'></img>,0,FALSE,NA,sub3
NA,html-keyboard-response,97,370384,0.0-10.0-0.42,"""event"",""trial"",""time""
""focus"",""0"",""0""
""fullscreenenter"",""0"",""8612""
","
","""event"",""trial"",""time""
""focus"",""0"",""0""
","""event"",""trial"",""time""
""fullscreenenter"",""0"",""8612""
","
",null,"<div style=""font-size:60px;"">+</div>",NA,null,fixation,2020-06-11T23:06:07Z,NA,NA,NA,NA,NA,sub3
NA,mars-trial,98,373335,0.0-10.0-1.42,"""event"",""trial"",""time""
""focus"",""0"",""0""
""fullscreenenter"",""0"",""8612""
","
","""event"",""trial"",""time""
""focus"",""0"",""0""
","""event"",""trial"",""time""
""fullscreenenter"",""0"",""8612""
","
",2348,<img style='border: 4px solid darkgrey;' src='img/tf1_43_M_ss3.jpeg'></img>,2,NA,exp,NA,0,<img src='img/tf1_43_T1_ss3_md.jpeg'></img>,0,TRUE,NA,sub3
NA,html-keyboard-response,99,373837,0.0-10.0-0.43,"""event"",""trial"",""time""
""focus"",""0"",""0""
""fullscreenenter"",""0"",""8612""
","
","""event"",""trial"",""time""
""focus"",""0"",""0""
","""event"",""trial"",""time""
""fullscreenenter"",""0"",""8612""
","
",null,"<div style=""font-size:60px;"">+</div>",NA,null,fixation,2020-06-11T23:06:11Z,NA,NA,NA,NA,NA,sub3
NA,mars-trial,100,381699,0.0-10.0-1.43,"""event"",""trial"",""time""
""focus"",""0"",""0""
""fullscreenenter"",""0"",""8612""
","
","""event"",""trial"",""time""
""focus"",""0"",""0""
","""event"",""trial"",""time""
""fullscreenenter"",""0"",""8612""
","
",7259,<img style='border: 4px solid darkgrey;' src='img/tf1_44_M_ss1.jpeg'></img>,2,NA,exp,NA,2,<img src='img/tf1_44_T1_ss1_md.jpeg'></img>,0,FALSE,NA,sub3
NA,html-keyboard-response,101,382200,0.0-10.0-0.44,"""event"",""trial"",""time""
""focus"",""0"",""0""
""fullscreenenter"",""0"",""8612""
","
","""event"",""trial"",""time""
""focus"",""0"",""0""
","""event"",""trial"",""time""
""fullscreenenter"",""0"",""8612""
","
",null,"<div style=""font-size:60px;"">+</div>",NA,null,fixation,2020-06-11T23:06:19Z,NA,NA,NA,NA,NA,sub3
NA,mars-trial,102,384423,0.0-10.0-1.44,"""event"",""trial"",""time""
""focus"",""0"",""0""
""fullscreenenter"",""0"",""8612""
","
","""event"",""trial"",""time""
""focus"",""0"",""0""
","""event"",""trial"",""time""
""fullscreenenter"",""0"",""8612""
","
",1619,<img style='border: 4px solid darkgrey;' src='img/tf1_45_M_ss2.jpeg'></img>,2,NA,exp,NA,1,<img src='img/tf1_45_T1_ss2_md.jpeg'></img>,0,FALSE,NA,sub3
NA,html-keyboard-response,103,384924,0.0-10.0-0.45,"""event"",""trial"",""time""
""focus"",""0"",""0""
""fullscreenenter"",""0"",""8612""
","
","""event"",""trial"",""time""
""focus"",""0"",""0""
","""event"",""trial"",""time""
""fullscreenenter"",""0"",""8612""
","
",null,"<div style=""font-size:60px;"">+</div>",NA,null,fixation,2020-06-11T23:06:22Z,NA,NA,NA,NA,NA,sub3
NA,mars-trial,104,390907,0.0-10.0-1.45,"""event"",""trial"",""time""
""focus"",""0"",""0""
""fullscreenenter"",""0"",""8612""
","
","""event"",""trial"",""time""
""focus"",""0"",""0""
","""event"",""trial"",""time""
""fullscreenenter"",""0"",""8612""
","
",5381,<img style='border: 4px solid darkgrey;' src='img/tf1_46_M_ss3.jpeg'></img>,3,NA,exp,NA,3,<img src='img/tf1_46_T1_ss3_md.jpeg'></img>,0,FALSE,NA,sub3
NA,html-keyboard-response,105,391407,0.0-10.0-0.46,"""event"",""trial"",""time""
""focus"",""0"",""0""
""fullscreenenter"",""0"",""8612""
","
","""event"",""trial"",""time""
""focus"",""0"",""0""
","""event"",""trial"",""time""
""fullscreenenter"",""0"",""8612""
","
",null,"<div style=""font-size:60px;"">+</div>",NA,null,fixation,2020-06-11T23:06:29Z,NA,NA,NA,NA,NA,sub3
NA,mars-trial,106,393304,0.0-10.0-1.46,"""event"",""trial"",""time""
""focus"",""0"",""0""
""fullscreenenter"",""0"",""8612""
","
","""event"",""trial"",""time""
""focus"",""0"",""0""
","""event"",""trial"",""time""
""fullscreenenter"",""0"",""8612""
","
",1294,<img style='border: 4px solid darkgrey;' src='img/tf1_47_M_ss1.jpeg'></img>,2,NA,exp,NA,1,<img src='img/tf1_47_T1_ss1_md.jpeg'></img>,0,FALSE,NA,sub3
NA,html-keyboard-response,107,393805,0.0-10.0-0.47,"""event"",""trial"",""time""
""focus"",""0"",""0""
""fullscreenenter"",""0"",""8612""
","
","""event"",""trial"",""time""
""focus"",""0"",""0""
","""event"",""trial"",""time""
""fullscreenenter"",""0"",""8612""
","
",null,"<div style=""font-size:60px;"">+</div>",NA,null,fixation,2020-06-11T23:06:31Z,NA,NA,NA,NA,NA,sub3
NA,mars-trial,108,396418,0.0-10.0-1.47,"""event"",""trial"",""time""
""focus"",""0"",""0""
""fullscreenenter"",""0"",""8612""
","
","""event"",""trial"",""time""
""focus"",""0"",""0""
","""event"",""trial"",""time""
""fullscreenenter"",""0"",""8612""
","
",2007.9999999999418,<img style='border: 4px solid darkgrey;' src='img/tf1_48_M_ss2.jpeg'></img>,0,NA,exp,NA,3,<img src='img/tf1_48_T1_ss2_md.jpeg'></img>,0,FALSE,NA,sub3
NA,html-keyboard-response,109,396919,0.0-10.0-0.48,"""event"",""trial"",""time""
""focus"",""0"",""0""
""fullscreenenter"",""0"",""8612""
","
","""event"",""trial"",""time""
""focus"",""0"",""0""
","""event"",""trial"",""time""
""fullscreenenter"",""0"",""8612""
","
",null,"<div style=""font-size:60px;"">+</div>",NA,null,fixation,2020-06-11T23:06:34Z,NA,NA,NA,NA,NA,sub3
NA,mars-trial,110,407338,0.0-10.0-1.48,"""event"",""trial"",""time""
""focus"",""0"",""0""
""fullscreenenter"",""0"",""8612""
","
","""event"",""trial"",""time""
""focus"",""0"",""0""
","""event"",""trial"",""time""
""fullscreenenter"",""0"",""8612""
","
",9817,<img style='border: 4px solid darkgrey;' src='img/tf1_49_M_ss3.jpeg'></img>,3,NA,exp,NA,0,<img src='img/tf1_49_T1_ss3_md.jpeg'></img>,0,TRUE,NA,sub3
NA,html-keyboard-response,111,407840,0.0-10.0-0.49,"""event"",""trial"",""time""
""focus"",""0"",""0""
""fullscreenenter"",""0"",""8612""
","
","""event"",""trial"",""time""
""focus"",""0"",""0""
","""event"",""trial"",""time""
""fullscreenenter"",""0"",""8612""
","
",null,"<div style=""font-size:60px;"">+</div>",NA,null,fixation,2020-06-11T23:06:45Z,NA,NA,NA,NA,NA,sub3
NA,mars-trial,112,412037,0.0-10.0-1.49,"""event"",""trial"",""time""
""focus"",""0"",""0""
""fullscreenenter"",""0"",""8612""
","
","""event"",""trial"",""time""
""focus"",""0"",""0""
","""event"",""trial"",""time""
""fullscreenenter"",""0"",""8612""
","
",3593,<img style='border: 4px solid darkgrey;' src='img/tf1_50_M_ss1.jpeg'></img>,2,NA,exp,NA,3,<img src='img/tf1_50_T1_ss1_md.jpeg'></img>,0,FALSE,NA,sub3
NA,html-keyboard-response,113,412539,0.0-10.0-0.50,"""event"",""trial"",""time""
""focus"",""0"",""0""
""fullscreenenter"",""0"",""8612""
","
","""event"",""trial"",""time""
""focus"",""0"",""0""
","""event"",""trial"",""time""
""fullscreenenter"",""0"",""8612""
","
",null,"<div style=""font-size:60px;"">+</div>",NA,null,fixation,2020-06-11T23:06:50Z,NA,NA,NA,NA,NA,sub3
NA,mars-trial,114,414328,0.0-10.0-1.50,"""event"",""trial"",""time""
""focus"",""0"",""0""
""fullscreenenter"",""0"",""8612""
","
","""event"",""trial"",""time""
""focus"",""0"",""0""
","""event"",""trial"",""time""
""fullscreenenter"",""0"",""8612""
","
",1184.9999999999418,<img style='border: 4px solid darkgrey;' src='img/tf1_51_M_ss2.jpeg'></img>,3,NA,exp,NA,2,<img src='img/tf1_51_T1_ss2_md.jpeg'></img>,0,FALSE,NA,sub3
NA,html-keyboard-response,115,414829,0.0-10.0-0.51,"""event"",""trial"",""time""
""focus"",""0"",""0""
""fullscreenenter"",""0"",""8612""
","
","""event"",""trial"",""time""
""focus"",""0"",""0""
","""event"",""trial"",""time""
""fullscreenenter"",""0"",""8612""
","
",null,"<div style=""font-size:60px;"">+</div>",NA,null,fixation,2020-06-11T23:06:52Z,NA,NA,NA,NA,NA,sub3
NA,mars-trial,116,416743,0.0-10.0-1.51,"""event"",""trial"",""time""
""focus"",""0"",""0""
""fullscreenenter"",""0"",""8612""
","
","""event"",""trial"",""time""
""focus"",""0"",""0""
","""event"",""trial"",""time""
""fullscreenenter"",""0"",""8612""
","
",1310,<img style='border: 4px solid darkgrey;' src='img/tf1_52_M_ss3.jpeg'></img>,1,NA,exp,NA,3,<img src='img/tf1_52_T1_ss3_md.jpeg'></img>,0,FALSE,NA,sub3
NA,html-keyboard-response,117,417245,0.0-10.0-0.52,"""event"",""trial"",""time""
""focus"",""0"",""0""
""fullscreenenter"",""0"",""8612""
","
","""event"",""trial"",""time""
""focus"",""0"",""0""
","""event"",""trial"",""time""
""fullscreenenter"",""0"",""8612""
","
",null,"<div style=""font-size:60px;"">+</div>",NA,null,fixation,2020-06-11T23:06:54Z,NA,NA,NA,NA,NA,sub3
NA,mars-trial,118,419238,0.0-10.0-1.52,"""event"",""trial"",""time""
""focus"",""0"",""0""
""fullscreenenter"",""0"",""8612""
","
","""event"",""trial"",""time""
""focus"",""0"",""0""
","""event"",""trial"",""time""
""fullscreenenter"",""0"",""8612""
","
",1389,<img style='border: 4px solid darkgrey;' src='img/tf1_53_M_ss1.jpeg'></img>,2,NA,exp,NA,0,<img src='img/tf1_53_T1_ss1_md.jpeg'></img>,0,TRUE,NA,sub3
NA,html-keyboard-response,119,419739,0.0-10.0-0.53,"""event"",""trial"",""time""
""focus"",""0"",""0""
""fullscreenenter"",""0"",""8612""
","
","""event"",""trial"",""time""
""focus"",""0"",""0""
","""event"",""trial"",""time""
""fullscreenenter"",""0"",""8612""
","
",null,"<div style=""font-size:60px;"">+</div>",NA,null,fixation,2020-06-11T23:06:57Z,NA,NA,NA,NA,NA,sub3
NA,mars-trial,120,421522,0.0-10.0-1.53,"""event"",""trial"",""time""
""focus"",""0"",""0""
""fullscreenenter"",""0"",""8612""
","
","""event"",""trial"",""time""
""focus"",""0"",""0""
","""event"",""trial"",""time""
""fullscreenenter"",""0"",""8612""
","
",1179,<img style='border: 4px solid darkgrey;' src='img/tf1_54_M_ss2.jpeg'></img>,3,NA,exp,NA,2,<img src='img/tf1_54_T1_ss2_md.jpeg'></img>,0,FALSE,NA,sub3
NA,html-keyboard-response,121,422024,0.0-10.0-0.54,"""event"",""trial"",""time""
""focus"",""0"",""0""
""fullscreenenter"",""0"",""8612""
","
","""event"",""trial"",""time""
""focus"",""0"",""0""
","""event"",""trial"",""time""
""fullscreenenter"",""0"",""8612""
","
",null,"<div style=""font-size:60px;"">+</div>",NA,null,fixation,2020-06-11T23:06:59Z,NA,NA,NA,NA,NA,sub3
NA,mars-trial,122,424504,0.0-10.0-1.54,"""event"",""trial"",""time""
""focus"",""0"",""0""
""fullscreenenter"",""0"",""8612""
","
","""event"",""trial"",""time""
""focus"",""0"",""0""
","""event"",""trial"",""time""
""fullscreenenter"",""0"",""8612""
","
",1878,<img style='border: 4px solid darkgrey;' src='img/tf1_55_M_ss3.jpeg'></img>,1,NA,exp,NA,2,<img src='img/tf1_55_T1_ss3_md.jpeg'></img>,0,FALSE,NA,sub3
NA,html-keyboard-response,123,425006,0.0-10.0-0.55,"""event"",""trial"",""time""
""focus"",""0"",""0""
""fullscreenenter"",""0"",""8612""
","
","""event"",""trial"",""time""
""focus"",""0"",""0""
","""event"",""trial"",""time""
""fullscreenenter"",""0"",""8612""
","
",null,"<div style=""font-size:60px;"">+</div>",NA,null,fixation,2020-06-11T23:07:02Z,NA,NA,NA,NA,NA,sub3
NA,mars-trial,124,427512,0.0-10.0-1.55,"""event"",""trial"",""time""
""focus"",""0"",""0""
""fullscreenenter"",""0"",""8612""
","
","""event"",""trial"",""time""
""focus"",""0"",""0""
","""event"",""trial"",""time""
""fullscreenenter"",""0"",""8612""
","
",1904,<img style='border: 4px solid darkgrey;' src='img/tf1_56_M_ss1.jpeg'></img>,0,NA,exp,NA,3,<img src='img/tf1_56_T1_ss1_md.jpeg'></img>,0,FALSE,NA,sub3
NA,html-keyboard-response,125,428014,0.0-10.0-0.56,"""event"",""trial"",""time""
""focus"",""0"",""0""
""fullscreenenter"",""0"",""8612""
","
","""event"",""trial"",""time""
""focus"",""0"",""0""
","""event"",""trial"",""time""
""fullscreenenter"",""0"",""8612""
","
",null,"<div style=""font-size:60px;"">+</div>",NA,null,fixation,2020-06-11T23:07:05Z,NA,NA,NA,NA,NA,sub3
NA,mars-trial,126,438574,0.0-10.0-1.56,"""event"",""trial"",""time""
""focus"",""0"",""0""
""fullscreenenter"",""0"",""8612""
","
","""event"",""trial"",""time""
""focus"",""0"",""0""
","""event"",""trial"",""time""
""fullscreenenter"",""0"",""8612""
","
",9958,<img style='border: 4px solid darkgrey;' src='img/tf1_57_M_ss2.jpeg'></img>,3,NA,exp,NA,2,<img src='img/tf1_57_T1_ss2_md.jpeg'></img>,0,FALSE,NA,sub3
NA,html-keyboard-response,127,439075,0.0-10.0-0.57,"""event"",""trial"",""time""
""focus"",""0"",""0""
""fullscreenenter"",""0"",""8612""
","
","""event"",""trial"",""time""
""focus"",""0"",""0""
","""event"",""trial"",""time""
""fullscreenenter"",""0"",""8612""
","
",null,"<div style=""font-size:60px;"">+</div>",NA,null,fixation,2020-06-11T23:07:16Z,NA,NA,NA,NA,NA,sub3
NA,mars-trial,128,445774,0.0-10.0-1.57,"""event"",""trial"",""time""
""focus"",""0"",""0""
""fullscreenenter"",""0"",""8612""
","
","""event"",""trial"",""time""
""focus"",""0"",""0""
","""event"",""trial"",""time""
""fullscreenenter"",""0"",""8612""
","
",6096,<img style='border: 4px solid darkgrey;' src='img/tf1_58_M_ss3.jpeg'></img>,3,NA,exp,NA,1,<img src='img/tf1_58_T1_ss3_md.jpeg'></img>,0,FALSE,NA,sub3
NA,html-keyboard-response,129,446275,0.0-10.0-0.58,"""event"",""trial"",""time""
""focus"",""0"",""0""
""fullscreenenter"",""0"",""8612""
","
","""event"",""trial"",""time""
""focus"",""0"",""0""
","""event"",""trial"",""time""
""fullscreenenter"",""0"",""8612""
","
",null,"<div style=""font-size:60px;"">+</div>",NA,null,fixation,2020-06-11T23:07:23Z,NA,NA,NA,NA,NA,sub3
NA,mars-trial,130,449057,0.0-10.0-1.58,"""event"",""trial"",""time""
""focus"",""0"",""0""
""fullscreenenter"",""0"",""8612""
","
","""event"",""trial"",""time""
""focus"",""0"",""0""
","""event"",""trial"",""time""
""fullscreenenter"",""0"",""8612""
","
",2180,<img style='border: 4px solid darkgrey;' src='img/tf1_59_M_ss1.jpeg'></img>,2,NA,exp,NA,1,<img src='img/tf1_59_T1_ss1_md.jpeg'></img>,0,FALSE,NA,sub3
NA,html-keyboard-response,131,449557,0.0-10.0-0.59,"""event"",""trial"",""time""
""focus"",""0"",""0""
""fullscreenenter"",""0"",""8612""
","
","""event"",""trial"",""time""
""focus"",""0"",""0""
","""event"",""trial"",""time""
""fullscreenenter"",""0"",""8612""
","
",null,"<div style=""font-size:60px;"">+</div>",NA,null,fixation,2020-06-11T23:07:27Z,NA,NA,NA,NA,NA,sub3
NA,mars-trial,132,451789,0.0-10.0-1.59,"""event"",""trial"",""time""
""focus"",""0"",""0""
""fullscreenenter"",""0"",""8612""
","
","""event"",""trial"",""time""
""focus"",""0"",""0""
","""event"",""trial"",""time""
""fullscreenenter"",""0"",""8612""
","
",1629,<img style='border: 4px solid darkgrey;' src='img/tf1_60_M_ss2.jpeg'></img>,1,NA,exp,NA,0,<img src='img/tf1_60_T1_ss2_md.jpeg'></img>,0,TRUE,NA,sub3
NA,html-keyboard-response,133,452291,0.0-10.0-0.60,"""event"",""trial"",""time""
""focus"",""0"",""0""
""fullscreenenter"",""0"",""8612""
","
","""event"",""trial"",""time""
""focus"",""0"",""0""
","""event"",""trial"",""time""
""fullscreenenter"",""0"",""8612""
","
",null,"<div style=""font-size:60px;"">+</div>",NA,null,fixation,2020-06-11T23:07:29Z,NA,NA,NA,NA,NA,sub3
NA,mars-trial,134,455560,0.0-10.0-1.60,"""event"",""trial"",""time""
""focus"",""0"",""0""
""fullscreenenter"",""0"",""8612""
","
","""event"",""trial"",""time""
""focus"",""0"",""0""
","""event"",""trial"",""time""
""fullscreenenter"",""0"",""8612""
","
",2666,<img style='border: 4px solid darkgrey;' src='img/tf1_61_M_ss3.jpeg'></img>,2,NA,exp,NA,2,<img src='img/tf1_61_T1_ss3_md.jpeg'></img>,0,FALSE,NA,sub3
NA,html-keyboard-response,135,456061,0.0-10.0-0.61,"""event"",""trial"",""time""
""focus"",""0"",""0""
""fullscreenenter"",""0"",""8612""
","
","""event"",""trial"",""time""
""focus"",""0"",""0""
","""event"",""trial"",""time""
""fullscreenenter"",""0"",""8612""
","
",null,"<div style=""font-size:60px;"">+</div>",NA,null,fixation,2020-06-11T23:07:33Z,NA,NA,NA,NA,NA,sub3
NA,mars-trial,136,459217,0.0-10.0-1.61,"""event"",""trial"",""time""
""focus"",""0"",""0""
""fullscreenenter"",""0"",""8612""
","
","""event"",""trial"",""time""
""focus"",""0"",""0""
","""event"",""trial"",""time""
""fullscreenenter"",""0"",""8612""
","
",2553,<img style='border: 4px solid darkgrey;' src='img/tf1_62_M_ss1.jpeg'></img>,1,NA,exp,NA,1,<img src='img/tf1_62_T1_ss1_md.jpeg'></img>,0,FALSE,NA,sub3
NA,html-keyboard-response,137,459718,0.0-10.0-0.62,"""event"",""trial"",""time""
""focus"",""0"",""0""
""fullscreenenter"",""0"",""8612""
","
","""event"",""trial"",""time""
""focus"",""0"",""0""
","""event"",""trial"",""time""
""fullscreenenter"",""0"",""8612""
","
",null,"<div style=""font-size:60px;"">+</div>",NA,null,fixation,2020-06-11T23:07:37Z,NA,NA,NA,NA,NA,sub3
NA,mars-trial,138,462169,0.0-10.0-1.62,"""event"",""trial"",""time""
""focus"",""0"",""0""
""fullscreenenter"",""0"",""8612""
","
","""event"",""trial"",""time""
""focus"",""0"",""0""
","""event"",""trial"",""time""
""fullscreenenter"",""0"",""8612""
","
",1847.0000000000582,<img style='border: 4px solid darkgrey;' src='img/tf1_63_M_ss2.jpeg'></img>,3,NA,exp,NA,1,<img src='img/tf1_63_T1_ss2_md.jpeg'></img>,0,FALSE,NA,sub3
NA,html-keyboard-response,139,462670,0.0-10.0-0.63,"""event"",""trial"",""time""
""focus"",""0"",""0""
""fullscreenenter"",""0"",""8612""
","
","""event"",""trial"",""time""
""focus"",""0"",""0""
","""event"",""trial"",""time""
""fullscreenenter"",""0"",""8612""
","
",null,"<div style=""font-size:60px;"">+</div>",NA,null,fixation,2020-06-11T23:07:40Z,NA,NA,NA,NA,NA,sub3
NA,mars-trial,140,464590,0.0-10.0-1.63,"""event"",""trial"",""time""
""focus"",""0"",""0""
""fullscreenenter"",""0"",""8612""
","
","""event"",""trial"",""time""
""focus"",""0"",""0""
","""event"",""trial"",""time""
""fullscreenenter"",""0"",""8612""
","
",1317,<img style='border: 4px solid darkgrey;' src='img/tf1_64_M_ss3.jpeg'></img>,1,NA,exp,NA,0,<img src='img/tf1_64_T1_ss3_md.jpeg'></img>,0,TRUE,NA,sub3
NA,html-keyboard-response,141,465092,0.0-10.0-0.64,"""event"",""trial"",""time""
""focus"",""0"",""0""
""fullscreenenter"",""0"",""8612""
","
","""event"",""trial"",""time""
""focus"",""0"",""0""
","""event"",""trial"",""time""
""fullscreenenter"",""0"",""8612""
","
",null,"<div style=""font-size:60px;"">+</div>",NA,null,fixation,2020-06-11T23:07:42Z,NA,NA,NA,NA,NA,sub3
NA,mars-trial,142,472540,0.0-10.0-1.64,"""event"",""trial"",""time""
""focus"",""0"",""0""
""fullscreenenter"",""0"",""8612""
","
","""event"",""trial"",""time""
""focus"",""0"",""0""
","""event"",""trial"",""time""
""fullscreenenter"",""0"",""8612""
","
",6844,<img style='border: 4px solid darkgrey;' src='img/tf1_65_M_ss1.jpeg'></img>,2,NA,exp,NA,2,<img src='img/tf1_65_T1_ss1_md.jpeg'></img>,0,FALSE,NA,sub3
NA,html-keyboard-response,143,473041,0.0-10.0-0.65,"""event"",""trial"",""time""
""focus"",""0"",""0""
""fullscreenenter"",""0"",""8612""
","
","""event"",""trial"",""time""
""focus"",""0"",""0""
","""event"",""trial"",""time""
""fullscreenenter"",""0"",""8612""
","
",null,"<div style=""font-size:60px;"">+</div>",NA,null,fixation,2020-06-11T23:07:50Z,NA,NA,NA,NA,NA,sub3
NA,mars-trial,144,485567,0.0-10.0-1.65,"""event"",""trial"",""time""
""focus"",""0"",""0""
""fullscreenenter"",""0"",""8612""
","
","""event"",""trial"",""time""
""focus"",""0"",""0""
","""event"",""trial"",""time""
""fullscreenenter"",""0"",""8612""
","
",11924.000000000058,<img style='border: 4px solid darkgrey;' src='img/tf1_66_M_ss2.jpeg'></img>,2,NA,exp,NA,0,<img src='img/tf1_66_T1_ss2_md.jpeg'></img>,0,TRUE,NA,sub3
NA,html-keyboard-response,145,486069,0.0-10.0-0.66,"""event"",""trial"",""time""
""focus"",""0"",""0""
""fullscreenenter"",""0"",""8612""
","
","""event"",""trial"",""time""
""focus"",""0"",""0""
","""event"",""trial"",""time""
""fullscreenenter"",""0"",""8612""
","
",null,"<div style=""font-size:60px;"">+</div>",NA,null,fixation,2020-06-11T23:08:03Z,NA,NA,NA,NA,NA,sub3
NA,mars-trial,146,488502,0.0-10.0-1.66,"""event"",""trial"",""time""
""focus"",""0"",""0""
""fullscreenenter"",""0"",""8612""
","
","""event"",""trial"",""time""
""focus"",""0"",""0""
","""event"",""trial"",""time""
""fullscreenenter"",""0"",""8612""
","
",1829,<img style='border: 4px solid darkgrey;' src='img/tf1_67_M_ss3.jpeg'></img>,3,NA,exp,NA,3,<img src='img/tf1_67_T1_ss3_md.jpeg'></img>,0,FALSE,NA,sub3
NA,html-keyboard-response,147,489004,0.0-10.0-0.67,"""event"",""trial"",""time""
""focus"",""0"",""0""
""fullscreenenter"",""0"",""8612""
","
","""event"",""trial"",""time""
""focus"",""0"",""0""
","""event"",""trial"",""time""
""fullscreenenter"",""0"",""8612""
","
",null,"<div style=""font-size:60px;"">+</div>",NA,null,fixation,2020-06-11T23:08:06Z,NA,NA,NA,NA,NA,sub3
NA,mars-trial,148,493240,0.0-10.0-1.67,"""event"",""trial"",""time""
""focus"",""0"",""0""
""fullscreenenter"",""0"",""8612""
","
","""event"",""trial"",""time""
""focus"",""0"",""0""
","""event"",""trial"",""time""
""fullscreenenter"",""0"",""8612""
","
",3634,<img style='border: 4px solid darkgrey;' src='img/tf1_68_M_ss1.jpeg'></img>,1,NA,exp,NA,0,<img src='img/tf1_68_T1_ss1_md.jpeg'></img>,0,TRUE,NA,sub3
NA,html-keyboard-response,149,493741,0.0-10.0-0.68,"""event"",""trial"",""time""
""focus"",""0"",""0""
""fullscreenenter"",""0"",""8612""
","
","""event"",""trial"",""time""
""focus"",""0"",""0""
","""event"",""trial"",""time""
""fullscreenenter"",""0"",""8612""
","
",null,"<div style=""font-size:60px;"">+</div>",NA,null,fixation,2020-06-11T23:08:11Z,NA,NA,NA,NA,NA,sub3
NA,mars-trial,150,495800,0.0-10.0-1.68,"""event"",""trial"",""time""
""focus"",""0"",""0""
""fullscreenenter"",""0"",""8612""
","
","""event"",""trial"",""time""
""focus"",""0"",""0""
","""event"",""trial"",""time""
""fullscreenenter"",""0"",""8612""
","
",1456,<img style='border: 4px solid darkgrey;' src='img/tf1_69_M_ss2.jpeg'></img>,2,NA,exp,NA,3,<img src='img/tf1_69_T1_ss2_md.jpeg'></img>,0,FALSE,NA,sub3
NA,html-keyboard-response,151,496302,0.0-10.0-0.69,"""event"",""trial"",""time""
""focus"",""0"",""0""
""fullscreenenter"",""0"",""8612""
","
","""event"",""trial"",""time""
""focus"",""0"",""0""
","""event"",""trial"",""time""
""fullscreenenter"",""0"",""8612""
","
",null,"<div style=""font-size:60px;"">+</div>",NA,null,fixation,2020-06-11T23:08:13Z,NA,NA,NA,NA,NA,sub3
NA,mars-trial,152,499352,0.0-10.0-1.69,"""event"",""trial"",""time""
""focus"",""0"",""0""
""fullscreenenter"",""0"",""8612""
","
","""event"",""trial"",""time""
""focus"",""0"",""0""
","""event"",""trial"",""time""
""fullscreenenter"",""0"",""8612""
","
",2448,<img style='border: 4px solid darkgrey;' src='img/tf1_70_M_ss3.jpeg'></img>,3,NA,exp,NA,2,<img src='img/tf1_70_T1_ss3_md.jpeg'></img>,0,FALSE,NA,sub3
NA,html-keyboard-response,153,499853,0.0-10.0-0.70,"""event"",""trial"",""time""
""focus"",""0"",""0""
""fullscreenenter"",""0"",""8612""
","
","""event"",""trial"",""time""
""focus"",""0"",""0""
","""event"",""trial"",""time""
""fullscreenenter"",""0"",""8612""
","
",null,"<div style=""font-size:60px;"">+</div>",NA,null,fixation,2020-06-11T23:08:17Z,NA,NA,NA,NA,NA,sub3
NA,mars-trial,154,504798,0.0-10.0-1.70,"""event"",""trial"",""time""
""focus"",""0"",""0""
""fullscreenenter"",""0"",""8612""
","
","""event"",""trial"",""time""
""focus"",""0"",""0""
","""event"",""trial"",""time""
""fullscreenenter"",""0"",""8612""
","
",4341,<img style='border: 4px solid darkgrey;' src='img/tf1_71_M_ss1.jpeg'></img>,1,NA,exp,NA,1,<img src='img/tf1_71_T1_ss1_md.jpeg'></img>,0,FALSE,NA,sub3
NA,html-keyboard-response,155,505299,0.0-10.0-0.71,"""event"",""trial"",""time""
""focus"",""0"",""0""
""fullscreenenter"",""0"",""8612""
","
","""event"",""trial"",""time""
""focus"",""0"",""0""
","""event"",""trial"",""time""
""fullscreenenter"",""0"",""8612""
","
",null,"<div style=""font-size:60px;"">+</div>",NA,null,fixation,2020-06-11T23:08:22Z,NA,NA,NA,NA,NA,sub3
NA,mars-trial,156,512884,0.0-10.0-1.71,"""event"",""trial"",""time""
""focus"",""0"",""0""
""fullscreenenter"",""0"",""8612""
","
","""event"",""trial"",""time""
""focus"",""0"",""0""
","""event"",""trial"",""time""
""fullscreenenter"",""0"",""8612""
","
",6981.000000000058,<img style='border: 4px solid darkgrey;' src='img/tf1_72_M_ss2.jpeg'></img>,2,NA,exp,NA,2,<img src='img/tf1_72_T1_ss2_md.jpeg'></img>,0,FALSE,NA,sub3
NA,html-keyboard-response,157,513385,0.0-10.0-0.72,"""event"",""trial"",""time""
""focus"",""0"",""0""
""fullscreenenter"",""0"",""8612""
","
","""event"",""trial"",""time""
""focus"",""0"",""0""
","""event"",""trial"",""time""
""fullscreenenter"",""0"",""8612""
","
",null,"<div style=""font-size:60px;"">+</div>",NA,null,fixation,2020-06-11T23:08:30Z,NA,NA,NA,NA,NA,sub3
NA,mars-trial,158,516184,0.0-10.0-1.72,"""event"",""trial"",""time""
""focus"",""0"",""0""
""fullscreenenter"",""0"",""8612""
","
","""event"",""trial"",""time""
""focus"",""0"",""0""
","""event"",""trial"",""time""
""fullscreenenter"",""0"",""8612""
","
",2194.999999999942,<img style='border: 4px solid darkgrey;' src='img/tf1_73_M_ss3.jpeg'></img>,2,NA,exp,NA,2,<img src='img/tf1_73_T1_ss3_md.jpeg'></img>,0,FALSE,NA,sub3
NA,html-keyboard-response,159,516685,0.0-10.0-0.73,"""event"",""trial"",""time""
""focus"",""0"",""0""
""fullscreenenter"",""0"",""8612""
","
","""event"",""trial"",""time""
""focus"",""0"",""0""
","""event"",""trial"",""time""
""fullscreenenter"",""0"",""8612""
","
",null,"<div style=""font-size:60px;"">+</div>",NA,null,fixation,2020-06-11T23:08:34Z,NA,NA,NA,NA,NA,sub3
NA,mars-trial,160,522298,0.0-10.0-1.73,"""event"",""trial"",""time""
""focus"",""0"",""0""
""fullscreenenter"",""0"",""8612""
","
","""event"",""trial"",""time""
""focus"",""0"",""0""
","""event"",""trial"",""time""
""fullscreenenter"",""0"",""8612""
","
",5014,<img style='border: 4px solid darkgrey;' src='img/tf1_74_M_ss1.jpeg'></img>,3,NA,exp,NA,0,<img src='img/tf1_74_T1_ss1_md.jpeg'></img>,0,TRUE,NA,sub3
NA,html-keyboard-response,161,522799,0.0-10.0-0.74,"""event"",""trial"",""time""
""focus"",""0"",""0""
""fullscreenenter"",""0"",""8612""
","
","""event"",""trial"",""time""
""focus"",""0"",""0""
","""event"",""trial"",""time""
""fullscreenenter"",""0"",""8612""
","
",null,"<div style=""font-size:60px;"">+</div>",NA,null,fixation,2020-06-11T23:08:40Z,NA,NA,NA,NA,NA,sub3
NA,mars-trial,162,526237,0.0-10.0-1.74,"""event"",""trial"",""time""
""focus"",""0"",""0""
""fullscreenenter"",""0"",""8612""
","
","""event"",""trial"",""time""
""focus"",""0"",""0""
","""event"",""trial"",""time""
""fullscreenenter"",""0"",""8612""
","
",2837,<img style='border: 4px solid darkgrey;' src='img/tf1_75_M_ss2.jpeg'></img>,1,NA,exp,NA,3,<img src='img/tf1_75_T1_ss2_md.jpeg'></img>,0,FALSE,NA,sub3
NA,html-keyboard-response,163,526738,0.0-10.0-0.75,"""event"",""trial"",""time""
""focus"",""0"",""0""
""fullscreenenter"",""0"",""8612""
","
","""event"",""trial"",""time""
""focus"",""0"",""0""
","""event"",""trial"",""time""
""fullscreenenter"",""0"",""8612""
","
",null,"<div style=""font-size:60px;"">+</div>",NA,null,fixation,2020-06-11T23:08:44Z,NA,NA,NA,NA,NA,sub3
NA,mars-trial,164,532345,0.0-10.0-1.75,"""event"",""trial"",""time""
""focus"",""0"",""0""
""fullscreenenter"",""0"",""8612""
","
","""event"",""trial"",""time""
""focus"",""0"",""0""
","""event"",""trial"",""time""
""fullscreenenter"",""0"",""8612""
","
",5008,<img style='border: 4px solid darkgrey;' src='img/tf1_76_M_ss3.jpeg'></img>,3,NA,exp,NA,0,<img src='img/tf1_76_T1_ss3_md.jpeg'></img>,0,TRUE,NA,sub3
NA,html-keyboard-response,165,532846,0.0-10.0-0.76,"""event"",""trial"",""time""
""focus"",""0"",""0""
""fullscreenenter"",""0"",""8612""
","
","""event"",""trial"",""time""
""focus"",""0"",""0""
","""event"",""trial"",""time""
""fullscreenenter"",""0"",""8612""
","
",null,"<div style=""font-size:60px;"">+</div>",NA,null,fixation,2020-06-11T23:08:50Z,NA,NA,NA,NA,NA,sub3
NA,mars-trial,166,540650,0.0-10.0-1.76,"""event"",""trial"",""time""
""focus"",""0"",""0""
""fullscreenenter"",""0"",""8612""
","
","""event"",""trial"",""time""
""focus"",""0"",""0""
","""event"",""trial"",""time""
""fullscreenenter"",""0"",""8612""
","
",7204,<img style='border: 4px solid darkgrey;' src='img/tf1_77_M_ss1.jpeg'></img>,3,NA,exp,NA,3,<img src='img/tf1_77_T1_ss1_md.jpeg'></img>,0,FALSE,NA,sub3
NA,html-keyboard-response,167,541151,0.0-10.0-0.77,"""event"",""trial"",""time""
""focus"",""0"",""0""
""fullscreenenter"",""0"",""8612""
","
","""event"",""trial"",""time""
""focus"",""0"",""0""
","""event"",""trial"",""time""
""fullscreenenter"",""0"",""8612""
","
",null,"<div style=""font-size:60px;"">+</div>",NA,null,fixation,2020-06-11T23:08:58Z,NA,NA,NA,NA,NA,sub3
NA,mars-trial,168,544615,0.0-10.0-1.77,"""event"",""trial"",""time""
""focus"",""0"",""0""
""fullscreenenter"",""0"",""8612""
","
","""event"",""trial"",""time""
""focus"",""0"",""0""
","""event"",""trial"",""time""
""fullscreenenter"",""0"",""8612""
","
",2861,<img style='border: 4px solid darkgrey;' src='img/tf1_78_M_ss2.jpeg'></img>,2,NA,exp,NA,0,<img src='img/tf1_78_T1_ss2_md.jpeg'></img>,0,TRUE,NA,sub3
NA,html-keyboard-response,169,545116,0.0-10.0-0.78,"""event"",""trial"",""time""
""focus"",""0"",""0""
""fullscreenenter"",""0"",""8612""
","
","""event"",""trial"",""time""
""focus"",""0"",""0""
","""event"",""trial"",""time""
""fullscreenenter"",""0"",""8612""
","
",null,"<div style=""font-size:60px;"">+</div>",NA,null,fixation,2020-06-11T23:09:02Z,NA,NA,NA,NA,NA,sub3
NA,mars-trial,170,550247,0.0-10.0-1.78,"""event"",""trial"",""time""
""focus"",""0"",""0""
""fullscreenenter"",""0"",""8612""
","
","""event"",""trial"",""time""
""focus"",""0"",""0""
","""event"",""trial"",""time""
""fullscreenenter"",""0"",""8612""
","
",4529,<img style='border: 4px solid darkgrey;' src='img/tf1_79_M_ss3.jpeg'></img>,1,NA,exp,NA,1,<img src='img/tf1_79_T1_ss3_md.jpeg'></img>,0,FALSE,NA,sub3
NA,html-keyboard-response,171,550749,0.0-10.0-0.79,"""event"",""trial"",""time""
""focus"",""0"",""0""
""fullscreenenter"",""0"",""8612""
","
","""event"",""trial"",""time""
""focus"",""0"",""0""
","""event"",""trial"",""time""
""fullscreenenter"",""0"",""8612""
","
",null,"<div style=""font-size:60px;"">+</div>",NA,null,fixation,2020-06-11T23:09:08Z,NA,NA,NA,NA,NA,sub3
NA,mars-trial,172,554880,0.0-10.0-1.79,"""event"",""trial"",""time""
""focus"",""0"",""0""
""fullscreenenter"",""0"",""8612""
","
","""event"",""trial"",""time""
""focus"",""0"",""0""
","""event"",""trial"",""time""
""fullscreenenter"",""0"",""8612""
","
",3528.0000000001164,<img style='border: 4px solid darkgrey;' src='img/tf1_80_M_ss1.jpeg'></img>,1,NA,exp,NA,2,<img src='img/tf1_80_T1_ss1_md.jpeg'></img>,0,FALSE,NA,sub3
NA,audio-button-response,173,561757,0.0-11.0,"""event"",""trial"",""time""
""focus"",""0"",""0""
""fullscreenenter"",""0"",""8612""
","
","""event"",""trial"",""time""
""focus"",""0"",""0""
","""event"",""trial"",""time""
""fullscreenenter"",""0"",""8612""
","
",6877,audio/mars_instructions_slide5.wav,0,NA,NA,NA,NA,NA,NA,NA,NA,sub3
