success,trial_type,trial_index,time_elapsed,internal_node_id,interactions,blur_events,focus_events,fullscreenenter_events,fullscreenexit_events,rt,stimulus,button_pressed,key_press,part,timestamp,unshuffled_button,correct_response,correct_button,correct,value,subject_id
TRUE,fullscreen,0,3177,0.0-0.0,"""event"",""trial"",""time""
""fullscreenenter"",""0"",""2219""
","
","
","""event"",""trial"",""time""
""fullscreenenter"",""0"",""2219""
","
",NA,NA,NA,NA,NA,NA,NA,NA,NA,NA,NA,sub61
NA,pavlovia,1,3188,0.0-1.0,"""event"",""trial"",""time""
""fullscreenenter"",""0"",""2219""
","
","
","""event"",""trial"",""time""
""fullscreenenter"",""0"",""2219""
","
",NA,NA,NA,NA,NA,NA,NA,NA,NA,NA,NA,sub61
NA,html-button-response,2,4596,0.0-2.0,"""event"",""trial"",""time""
""fullscreenenter"",""0"",""2219""
","
","
","""event"",""trial"",""time""
""fullscreenenter"",""0"",""2219""
","
",1405.3100002929568,<p>Welcome! Press START to begin.</p><br>,0,NA,NA,NA,NA,NA,NA,NA,NA,sub61
NA,audio-button-response,3,19120,0.0-3.0,"""event"",""trial"",""time""
""fullscreenenter"",""0"",""2219""
","
","
","""event"",""trial"",""time""
""fullscreenenter"",""0"",""2219""
","
",14518.000000156462,audio/mars_instructions_slide2.wav,0,NA,NA,NA,NA,NA,NA,NA,NA,sub61
NA,audio-button-response,4,29256,0.0-4.0,"""event"",""trial"",""time""
""fullscreenenter"",""0"",""2219""
","
","
","""event"",""trial"",""time""
""fullscreenenter"",""0"",""2219""
","
",10134.04000038281,audio/mars_instructions_slide3.wav,0,NA,NA,NA,NA,NA,NA,NA,NA,sub61
NA,html-keyboard-response,5,29759,0.0-5.0-0.0,"""event"",""trial"",""time""
""fullscreenenter"",""0"",""2219""
","
","
","""event"",""trial"",""time""
""fullscreenenter"",""0"",""2219""
","
",null,"<div style=""font-size:60px;"">+</div>",NA,null,fixation,2020-06-09T20:23:58Z,NA,NA,NA,NA,NA,sub61
NA,mars-trial,6,36282,0.0-5.0-1.0,"""event"",""trial"",""time""
""fullscreenenter"",""0"",""2219""
","
","
","""event"",""trial"",""time""
""fullscreenenter"",""0"",""2219""
","
",4411.645000334829,<img style='border: 4px solid darkgrey;' src='practice/pt1_M1.png'></img>,1,NA,practice,NA,2,<img src='practice/pt1_T1.png'></img>,0,FALSE,NA,sub61
NA,html-keyboard-response,7,36788,0.0-5.1-0.1,"""event"",""trial"",""time""
""fullscreenenter"",""0"",""2219""
","
","
","""event"",""trial"",""time""
""fullscreenenter"",""0"",""2219""
","
",null,"<div style=""font-size:60px;"">+</div>",NA,null,fixation,2020-06-09T20:24:05Z,NA,NA,NA,NA,NA,sub61
NA,mars-trial,8,41938,0.0-5.1-1.1,"""event"",""trial"",""time""
""fullscreenenter"",""0"",""2219""
","
","
","""event"",""trial"",""time""
""fullscreenenter"",""0"",""2219""
","
",3043.3149999007583,<img style='border: 4px solid darkgrey;' src='practice/pt1_M1.png'></img>,3,NA,practice,NA,0,<img src='practice/pt1_T1.png'></img>,0,TRUE,NA,sub61
NA,html-keyboard-response,9,42441,0.0-6.0-0.0,"""event"",""trial"",""time""
""fullscreenenter"",""0"",""2219""
","
","
","""event"",""trial"",""time""
""fullscreenenter"",""0"",""2219""
","
",null,"<div style=""font-size:60px;"">+</div>",NA,null,fixation,2020-06-09T20:24:10Z,NA,NA,NA,NA,NA,sub61
NA,mars-trial,10,47428,0.0-6.0-1.0,"""event"",""trial"",""time""
""fullscreenenter"",""0"",""2219""
","
","
","""event"",""trial"",""time""
""fullscreenenter"",""0"",""2219""
","
",2877.135000191629,<img style='border: 4px solid darkgrey;' src='practice/pt2_M1.png'></img>,2,NA,practice,NA,0,<img src='practice/pt2_T1.png'></img>,0,TRUE,NA,sub61
NA,html-keyboard-response,11,47932,0.0-7.0-0.0,"""event"",""trial"",""time""
""fullscreenenter"",""0"",""2219""
","
","
","""event"",""trial"",""time""
""fullscreenenter"",""0"",""2219""
","
",null,"<div style=""font-size:60px;"">+</div>",NA,null,fixation,2020-06-09T20:24:16Z,NA,NA,NA,NA,NA,sub61
NA,mars-trial,12,51424,0.0-7.0-1.0,"""event"",""trial"",""time""
""fullscreenenter"",""0"",""2219""
","
","
","""event"",""trial"",""time""
""fullscreenenter"",""0"",""2219""
","
",1383.0849998630583,<img style='border: 4px solid darkgrey;' src='practice/pt3_M1.png'></img>,2,NA,practice,NA,0,<img src='practice/pt3_T1.png'></img>,0,TRUE,NA,sub61
NA,audio-button-response,13,54025,0.0-8.0,"""event"",""trial"",""time""
""fullscreenenter"",""0"",""2219""
","
","
","""event"",""trial"",""time""
""fullscreenenter"",""0"",""2219""
","
",2597.1850003115833,audio/mars_instructions_slide4.wav,0,NA,NA,NA,NA,NA,NA,NA,NA,sub61
NA,call-function,14,54026,0.0-9.0,"""event"",""trial"",""time""
""fullscreenenter"",""0"",""2219""
","
","
","""event"",""trial"",""time""
""fullscreenenter"",""0"",""2219""
","
",NA,NA,NA,NA,NA,NA,NA,NA,NA,NA,NA,sub61
NA,html-keyboard-response,15,54528,0.0-10.0-0.0,"""event"",""trial"",""time""
""fullscreenenter"",""0"",""2219""
","
","
","""event"",""trial"",""time""
""fullscreenenter"",""0"",""2219""
","
",null,"<div style=""font-size:60px;"">+</div>",NA,null,fixation,2020-06-09T20:24:22Z,NA,NA,NA,NA,NA,sub61
NA,mars-trial,16,56708,0.0-10.0-1.0,"""event"",""trial"",""time""
""fullscreenenter"",""0"",""2219""
","
","
","""event"",""trial"",""time""
""fullscreenenter"",""0"",""2219""
","
",1573.355000000447,<img style='border: 4px solid darkgrey;' src='img/tf1_1_M_ss3.jpeg'></img>,1,NA,exp,NA,0,<img src='img/tf1_1_T1_ss3_md.jpeg'></img>,0,TRUE,NA,sub61
NA,html-keyboard-response,17,57210,0.0-10.0-0.1,"""event"",""trial"",""time""
""fullscreenenter"",""0"",""2219""
","
","
","""event"",""trial"",""time""
""fullscreenenter"",""0"",""2219""
","
",null,"<div style=""font-size:60px;"">+</div>",NA,null,fixation,2020-06-09T20:24:25Z,NA,NA,NA,NA,NA,sub61
NA,mars-trial,18,59357,0.0-10.0-1.1,"""event"",""trial"",""time""
""fullscreenenter"",""0"",""2219""
","
","
","""event"",""trial"",""time""
""fullscreenenter"",""0"",""2219""
","
",1541.1499999463558,<img style='border: 4px solid darkgrey;' src='img/tf1_2_M_ss1.jpeg'></img>,3,NA,exp,NA,0,<img src='img/tf1_2_T1_ss1_md.jpeg'></img>,0,TRUE,NA,sub61
NA,html-keyboard-response,19,59860,0.0-10.0-0.2,"""event"",""trial"",""time""
""fullscreenenter"",""0"",""2219""
","
","
","""event"",""trial"",""time""
""fullscreenenter"",""0"",""2219""
","
",null,"<div style=""font-size:60px;"">+</div>",NA,null,fixation,2020-06-09T20:24:28Z,NA,NA,NA,NA,NA,sub61
NA,mars-trial,20,63063,0.0-10.0-1.2,"""event"",""trial"",""time""
""fullscreenenter"",""0"",""2219""
","
","
","""event"",""trial"",""time""
""fullscreenenter"",""0"",""2219""
","
",2597.099999897182,<img style='border: 4px solid darkgrey;' src='img/tf1_3_M_ss2.jpeg'></img>,3,NA,exp,NA,0,<img src='img/tf1_3_T1_ss2_md.jpeg'></img>,0,TRUE,NA,sub61
NA,html-keyboard-response,21,63565,0.0-10.0-0.3,"""event"",""trial"",""time""
""fullscreenenter"",""0"",""2219""
","
","
","""event"",""trial"",""time""
""fullscreenenter"",""0"",""2219""
","
",null,"<div style=""font-size:60px;"">+</div>",NA,null,fixation,2020-06-09T20:24:31Z,NA,NA,NA,NA,NA,sub61
NA,mars-trial,22,66118,0.0-10.0-1.3,"""event"",""trial"",""time""
""fullscreenenter"",""0"",""2219""
","
","
","""event"",""trial"",""time""
""fullscreenenter"",""0"",""2219""
","
",1944.9500003829598,<img style='border: 4px solid darkgrey;' src='img/tf1_4_M_ss3.jpeg'></img>,3,NA,exp,NA,0,<img src='img/tf1_4_T1_ss3_md.jpeg'></img>,0,TRUE,NA,sub61
NA,html-keyboard-response,23,66621,0.0-10.0-0.4,"""event"",""trial"",""time""
""fullscreenenter"",""0"",""2219""
","
","
","""event"",""trial"",""time""
""fullscreenenter"",""0"",""2219""
","
",null,"<div style=""font-size:60px;"">+</div>",NA,null,fixation,2020-06-09T20:24:34Z,NA,NA,NA,NA,NA,sub61
NA,mars-trial,24,69228,0.0-10.0-1.4,"""event"",""trial"",""time""
""fullscreenenter"",""0"",""2219""
","
","
","""event"",""trial"",""time""
""fullscreenenter"",""0"",""2219""
","
",1999.6799998916686,<img style='border: 4px solid darkgrey;' src='img/tf1_5_M_ss1.jpeg'></img>,2,NA,exp,NA,0,<img src='img/tf1_5_T1_ss1_md.jpeg'></img>,0,TRUE,NA,sub61
NA,html-keyboard-response,25,69729,0.0-10.0-0.5,"""event"",""trial"",""time""
""fullscreenenter"",""0"",""2219""
","
","
","""event"",""trial"",""time""
""fullscreenenter"",""0"",""2219""
","
",null,"<div style=""font-size:60px;"">+</div>",NA,null,fixation,2020-06-09T20:24:38Z,NA,NA,NA,NA,NA,sub61
NA,mars-trial,26,76112,0.0-10.0-1.5,"""event"",""trial"",""time""
""fullscreenenter"",""0"",""2219""
","
","
","""event"",""trial"",""time""
""fullscreenenter"",""0"",""2219""
","
",5774.684999603778,<img style='border: 4px solid darkgrey;' src='img/tf1_6_M_ss2.jpeg'></img>,0,NA,exp,NA,3,<img src='img/tf1_6_T1_ss2_md.jpeg'></img>,0,FALSE,NA,sub61
NA,html-keyboard-response,27,76614,0.0-10.0-0.6,"""event"",""trial"",""time""
""fullscreenenter"",""0"",""2219""
","
","
","""event"",""trial"",""time""
""fullscreenenter"",""0"",""2219""
","
",null,"<div style=""font-size:60px;"">+</div>",NA,null,fixation,2020-06-09T20:24:44Z,NA,NA,NA,NA,NA,sub61
NA,mars-trial,28,81133,0.0-10.0-1.6,"""event"",""trial"",""time""
""fullscreenenter"",""0"",""2219""
","
","
","""event"",""trial"",""time""
""fullscreenenter"",""0"",""2219""
","
",3909.450000151992,<img style='border: 4px solid darkgrey;' src='img/tf1_7_M_ss3.jpeg'></img>,3,NA,exp,NA,2,<img src='img/tf1_7_T1_ss3_md.jpeg'></img>,0,FALSE,NA,sub61
NA,html-keyboard-response,29,81636,0.0-10.0-0.7,"""event"",""trial"",""time""
""fullscreenenter"",""0"",""2219""
","
","
","""event"",""trial"",""time""
""fullscreenenter"",""0"",""2219""
","
",null,"<div style=""font-size:60px;"">+</div>",NA,null,fixation,2020-06-09T20:24:50Z,NA,NA,NA,NA,NA,sub61
NA,mars-trial,30,87384,0.0-10.0-1.7,"""event"",""trial"",""time""
""fullscreenenter"",""0"",""2219""
","
","
","""event"",""trial"",""time""
""fullscreenenter"",""0"",""2219""
","
",5135.499999858439,<img style='border: 4px solid darkgrey;' src='img/tf1_8_M_ss1.jpeg'></img>,3,NA,exp,NA,1,<img src='img/tf1_8_T1_ss1_md.jpeg'></img>,0,FALSE,NA,sub61
NA,html-keyboard-response,31,87887,0.0-10.0-0.8,"""event"",""trial"",""time""
""fullscreenenter"",""0"",""2219""
","
","
","""event"",""trial"",""time""
""fullscreenenter"",""0"",""2219""
","
",null,"<div style=""font-size:60px;"">+</div>",NA,null,fixation,2020-06-09T20:24:56Z,NA,NA,NA,NA,NA,sub61
NA,mars-trial,32,94315,0.0-10.0-1.8,"""event"",""trial"",""time""
""fullscreenenter"",""0"",""2219""
","
","
","""event"",""trial"",""time""
""fullscreenenter"",""0"",""2219""
","
",5818.734999746084,<img style='border: 4px solid darkgrey;' src='img/tf1_9_M_ss2.jpeg'></img>,2,NA,exp,NA,0,<img src='img/tf1_9_T1_ss2_md.jpeg'></img>,0,TRUE,NA,sub61
NA,html-keyboard-response,33,94817,0.0-10.0-0.9,"""event"",""trial"",""time""
""fullscreenenter"",""0"",""2219""
","
","
","""event"",""trial"",""time""
""fullscreenenter"",""0"",""2219""
","
",null,"<div style=""font-size:60px;"">+</div>",NA,null,fixation,2020-06-09T20:25:03Z,NA,NA,NA,NA,NA,sub61
NA,mars-trial,34,100181,0.0-10.0-1.9,"""event"",""trial"",""time""
""fullscreenenter"",""0"",""2219""
","
","
","""event"",""trial"",""time""
""fullscreenenter"",""0"",""2219""
","
",4754.829999990761,<img style='border: 4px solid darkgrey;' src='img/tf1_10_M_ss3.jpeg'></img>,3,NA,exp,NA,0,<img src='img/tf1_10_T1_ss3_md.jpeg'></img>,0,TRUE,NA,sub61
NA,html-keyboard-response,35,100684,0.0-10.0-0.10,"""event"",""trial"",""time""
""fullscreenenter"",""0"",""2219""
","
","
","""event"",""trial"",""time""
""fullscreenenter"",""0"",""2219""
","
",null,"<div style=""font-size:60px;"">+</div>",NA,null,fixation,2020-06-09T20:25:09Z,NA,NA,NA,NA,NA,sub61
NA,mars-trial,36,107257,0.0-10.0-1.10,"""event"",""trial"",""time""
""fullscreenenter"",""0"",""2219""
","
","
","""event"",""trial"",""time""
""fullscreenenter"",""0"",""2219""
","
",5964.060000143945,<img style='border: 4px solid darkgrey;' src='img/tf1_11_M_ss1.jpeg'></img>,0,NA,exp,NA,2,<img src='img/tf1_11_T1_ss1_md.jpeg'></img>,0,FALSE,NA,sub61
NA,html-keyboard-response,37,107764,0.0-10.0-0.11,"""event"",""trial"",""time""
""fullscreenenter"",""0"",""2219""
","
","
","""event"",""trial"",""time""
""fullscreenenter"",""0"",""2219""
","
",null,"<div style=""font-size:60px;"">+</div>",NA,null,fixation,2020-06-09T20:25:16Z,NA,NA,NA,NA,NA,sub61
NA,mars-trial,38,112311,0.0-10.0-1.11,"""event"",""trial"",""time""
""fullscreenenter"",""0"",""2219""
","
","
","""event"",""trial"",""time""
""fullscreenenter"",""0"",""2219""
","
",3938.384999986738,<img style='border: 4px solid darkgrey;' src='img/tf1_12_M_ss2.jpeg'></img>,2,NA,exp,NA,1,<img src='img/tf1_12_T1_ss2_md.jpeg'></img>,0,FALSE,NA,sub61
NA,html-keyboard-response,39,112813,0.0-10.0-0.12,"""event"",""trial"",""time""
""fullscreenenter"",""0"",""2219""
","
","
","""event"",""trial"",""time""
""fullscreenenter"",""0"",""2219""
","
",null,"<div style=""font-size:60px;"">+</div>",NA,null,fixation,2020-06-09T20:25:21Z,NA,NA,NA,NA,NA,sub61
NA,mars-trial,40,119055,0.0-10.0-1.12,"""event"",""trial"",""time""
""fullscreenenter"",""0"",""2219""
","
","
","""event"",""trial"",""time""
""fullscreenenter"",""0"",""2219""
","
",5632.524999789894,<img style='border: 4px solid darkgrey;' src='img/tf1_13_M_ss3.jpeg'></img>,1,NA,exp,NA,2,<img src='img/tf1_13_T1_ss3_md.jpeg'></img>,0,FALSE,NA,sub61
NA,html-keyboard-response,41,119558,0.0-10.0-0.13,"""event"",""trial"",""time""
""fullscreenenter"",""0"",""2219""
","
","
","""event"",""trial"",""time""
""fullscreenenter"",""0"",""2219""
","
",null,"<div style=""font-size:60px;"">+</div>",NA,null,fixation,2020-06-09T20:25:27Z,NA,NA,NA,NA,NA,sub61
NA,mars-trial,42,126197,0.0-10.0-1.13,"""event"",""trial"",""time""
""fullscreenenter"",""0"",""2219""
","
","
","""event"",""trial"",""time""
""fullscreenenter"",""0"",""2219""
","
",6029.2650000192225,<img style='border: 4px solid darkgrey;' src='img/tf1_14_M_ss1.jpeg'></img>,0,NA,exp,NA,1,<img src='img/tf1_14_T1_ss1_md.jpeg'></img>,0,FALSE,NA,sub61
NA,html-keyboard-response,43,126700,0.0-10.0-0.14,"""event"",""trial"",""time""
""fullscreenenter"",""0"",""2219""
","
","
","""event"",""trial"",""time""
""fullscreenenter"",""0"",""2219""
","
",null,"<div style=""font-size:60px;"">+</div>",NA,null,fixation,2020-06-09T20:25:35Z,NA,NA,NA,NA,NA,sub61
NA,mars-trial,44,131837,0.0-10.0-1.14,"""event"",""trial"",""time""
""fullscreenenter"",""0"",""2219""
","
","
","""event"",""trial"",""time""
""fullscreenenter"",""0"",""2219""
","
",4527.125000022352,<img style='border: 4px solid darkgrey;' src='img/tf1_15_M_ss2.jpeg'></img>,0,NA,exp,NA,3,<img src='img/tf1_15_T1_ss2_md.jpeg'></img>,0,FALSE,NA,sub61
NA,html-keyboard-response,45,132340,0.0-10.0-0.15,"""event"",""trial"",""time""
""fullscreenenter"",""0"",""2219""
","
","
","""event"",""trial"",""time""
""fullscreenenter"",""0"",""2219""
","
",null,"<div style=""font-size:60px;"">+</div>",NA,null,fixation,2020-06-09T20:25:40Z,NA,NA,NA,NA,NA,sub61
NA,mars-trial,46,142904,0.0-10.0-1.15,"""event"",""trial"",""time""
""fullscreenenter"",""0"",""2219""
","
","
","""event"",""trial"",""time""
""fullscreenenter"",""0"",""2219""
","
",9955.975000280887,<img style='border: 4px solid darkgrey;' src='img/tf1_16_M_ss3.jpeg'></img>,1,NA,exp,NA,2,<img src='img/tf1_16_T1_ss3_md.jpeg'></img>,0,FALSE,NA,sub61
NA,html-keyboard-response,47,143408,0.0-10.0-0.16,"""event"",""trial"",""time""
""fullscreenenter"",""0"",""2219""
","
","
","""event"",""trial"",""time""
""fullscreenenter"",""0"",""2219""
","
",null,"<div style=""font-size:60px;"">+</div>",NA,null,fixation,2020-06-09T20:25:51Z,NA,NA,NA,NA,NA,sub61
NA,mars-trial,48,152910,0.0-10.0-1.16,"""event"",""trial"",""time""
""fullscreenenter"",""0"",""2219""
","
","
","""event"",""trial"",""time""
""fullscreenenter"",""0"",""2219""
","
",8891.919999849051,<img style='border: 4px solid darkgrey;' src='img/tf1_17_M_ss1.jpeg'></img>,2,NA,exp,NA,0,<img src='img/tf1_17_T1_ss1_md.jpeg'></img>,0,TRUE,NA,sub61
NA,html-keyboard-response,49,153413,0.0-10.0-0.17,"""event"",""trial"",""time""
""fullscreenenter"",""0"",""2219""
","
","
","""event"",""trial"",""time""
""fullscreenenter"",""0"",""2219""
","
",null,"<div style=""font-size:60px;"">+</div>",NA,null,fixation,2020-06-09T20:26:01Z,NA,NA,NA,NA,NA,sub61
NA,mars-trial,50,160452,0.0-10.0-1.17,"""event"",""trial"",""time""
""fullscreenenter"",""0"",""2219""
","
","
","""event"",""trial"",""time""
""fullscreenenter"",""0"",""2219""
","
",6433.004999998957,<img style='border: 4px solid darkgrey;' src='img/tf1_18_M_ss2.jpeg'></img>,3,NA,exp,NA,1,<img src='img/tf1_18_T1_ss2_md.jpeg'></img>,0,FALSE,NA,sub61
NA,html-keyboard-response,51,160955,0.0-10.0-0.18,"""event"",""trial"",""time""
""fullscreenenter"",""0"",""2219""
","
","
","""event"",""trial"",""time""
""fullscreenenter"",""0"",""2219""
","
",null,"<div style=""font-size:60px;"">+</div>",NA,null,fixation,2020-06-09T20:26:09Z,NA,NA,NA,NA,NA,sub61
NA,mars-trial,52,163982,0.0-10.0-1.18,"""event"",""trial"",""time""
""fullscreenenter"",""0"",""2219""
","
","
","""event"",""trial"",""time""
""fullscreenenter"",""0"",""2219""
","
",2418.0250000208616,<img style='border: 4px solid darkgrey;' src='img/tf1_19_M_ss3.jpeg'></img>,2,NA,exp,NA,1,<img src='img/tf1_19_T1_ss3_md.jpeg'></img>,0,FALSE,NA,sub61
NA,html-keyboard-response,53,164486,0.0-10.0-0.19,"""event"",""trial"",""time""
""fullscreenenter"",""0"",""2219""
","
","
","""event"",""trial"",""time""
""fullscreenenter"",""0"",""2219""
","
",null,"<div style=""font-size:60px;"">+</div>",NA,null,fixation,2020-06-09T20:26:12Z,NA,NA,NA,NA,NA,sub61
NA,mars-trial,54,168247,0.0-10.0-1.19,"""event"",""trial"",""time""
""fullscreenenter"",""0"",""2219""
","
","
","""event"",""trial"",""time""
""fullscreenenter"",""0"",""2219""
","
",3151.145000010729,<img style='border: 4px solid darkgrey;' src='img/tf1_20_M_ss1.jpeg'></img>,2,NA,exp,NA,3,<img src='img/tf1_20_T1_ss1_md.jpeg'></img>,0,FALSE,NA,sub61
NA,html-keyboard-response,55,168751,0.0-10.0-0.20,"""event"",""trial"",""time""
""fullscreenenter"",""0"",""2219""
","
","
","""event"",""trial"",""time""
""fullscreenenter"",""0"",""2219""
","
",null,"<div style=""font-size:60px;"">+</div>",NA,null,fixation,2020-06-09T20:26:17Z,NA,NA,NA,NA,NA,sub61
NA,mars-trial,56,176802,0.0-10.0-1.20,"""event"",""trial"",""time""
""fullscreenenter"",""0"",""2219""
","
","
","""event"",""trial"",""time""
""fullscreenenter"",""0"",""2219""
","
",7442.684999667108,<img style='border: 4px solid darkgrey;' src='img/tf1_21_M_ss2.jpeg'></img>,2,NA,exp,NA,2,<img src='img/tf1_21_T1_ss2_md.jpeg'></img>,0,FALSE,NA,sub61
NA,html-keyboard-response,57,177306,0.0-10.0-0.21,"""event"",""trial"",""time""
""fullscreenenter"",""0"",""2219""
","
","
","""event"",""trial"",""time""
""fullscreenenter"",""0"",""2219""
","
",null,"<div style=""font-size:60px;"">+</div>",NA,null,fixation,2020-06-09T20:26:25Z,NA,NA,NA,NA,NA,sub61
NA,mars-trial,58,180822,0.0-10.0-1.21,"""event"",""trial"",""time""
""fullscreenenter"",""0"",""2219""
","
","
","""event"",""trial"",""time""
""fullscreenenter"",""0"",""2219""
","
",2905.1600000821054,<img style='border: 4px solid darkgrey;' src='img/tf1_22_M_ss3.jpeg'></img>,3,NA,exp,NA,2,<img src='img/tf1_22_T1_ss3_md.jpeg'></img>,0,FALSE,NA,sub61
NA,html-keyboard-response,59,181324,0.0-10.0-0.22,"""event"",""trial"",""time""
""fullscreenenter"",""0"",""2219""
","
","
","""event"",""trial"",""time""
""fullscreenenter"",""0"",""2219""
","
",null,"<div style=""font-size:60px;"">+</div>",NA,null,fixation,2020-06-09T20:26:29Z,NA,NA,NA,NA,NA,sub61
NA,mars-trial,60,188171,0.0-10.0-1.22,"""event"",""trial"",""time""
""fullscreenenter"",""0"",""2219""
","
","
","""event"",""trial"",""time""
""fullscreenenter"",""0"",""2219""
","
",6239.860000088811,<img style='border: 4px solid darkgrey;' src='img/tf1_23_M_ss1.jpeg'></img>,3,NA,exp,NA,0,<img src='img/tf1_23_T1_ss1_md.jpeg'></img>,0,TRUE,NA,sub61
NA,html-keyboard-response,61,188673,0.0-10.0-0.23,"""event"",""trial"",""time""
""fullscreenenter"",""0"",""2219""
","
","
","""event"",""trial"",""time""
""fullscreenenter"",""0"",""2219""
","
",null,"<div style=""font-size:60px;"">+</div>",NA,null,fixation,2020-06-09T20:26:37Z,NA,NA,NA,NA,NA,sub61
NA,mars-trial,62,191721,0.0-10.0-1.23,"""event"",""trial"",""time""
""fullscreenenter"",""0"",""2219""
","
","
","""event"",""trial"",""time""
""fullscreenenter"",""0"",""2219""
","
",2437.64999974519,<img style='border: 4px solid darkgrey;' src='img/tf1_24_M_ss2.jpeg'></img>,2,NA,exp,NA,2,<img src='img/tf1_24_T1_ss2_md.jpeg'></img>,0,FALSE,NA,sub61
NA,html-keyboard-response,63,192224,0.0-10.0-0.24,"""event"",""trial"",""time""
""fullscreenenter"",""0"",""2219""
","
","
","""event"",""trial"",""time""
""fullscreenenter"",""0"",""2219""
","
",null,"<div style=""font-size:60px;"">+</div>",NA,null,fixation,2020-06-09T20:26:40Z,NA,NA,NA,NA,NA,sub61
NA,mars-trial,64,198429,0.0-10.0-1.24,"""event"",""trial"",""time""
""fullscreenenter"",""0"",""2219""
","
","
","""event"",""trial"",""time""
""fullscreenenter"",""0"",""2219""
","
",5595.764999743551,<img style='border: 4px solid darkgrey;' src='img/tf1_25_M_ss3.jpeg'></img>,3,NA,exp,NA,3,<img src='img/tf1_25_T1_ss3_md.jpeg'></img>,0,FALSE,NA,sub61
NA,html-keyboard-response,65,198932,0.0-10.0-0.25,"""event"",""trial"",""time""
""fullscreenenter"",""0"",""2219""
","
","
","""event"",""trial"",""time""
""fullscreenenter"",""0"",""2219""
","
",null,"<div style=""font-size:60px;"">+</div>",NA,null,fixation,2020-06-09T20:26:47Z,NA,NA,NA,NA,NA,sub61
NA,mars-trial,66,213313,0.0-10.0-1.25,"""event"",""trial"",""time""
""fullscreenenter"",""0"",""2219""
","
","
","""event"",""trial"",""time""
""fullscreenenter"",""0"",""2219""
","
",13772.755000274628,<img style='border: 4px solid darkgrey;' src='img/tf1_26_M_ss1.jpeg'></img>,0,NA,exp,NA,2,<img src='img/tf1_26_T1_ss1_md.jpeg'></img>,0,FALSE,NA,sub61
NA,html-keyboard-response,67,213815,0.0-10.0-0.26,"""event"",""trial"",""time""
""fullscreenenter"",""0"",""2219""
","
","
","""event"",""trial"",""time""
""fullscreenenter"",""0"",""2219""
","
",null,"<div style=""font-size:60px;"">+</div>",NA,null,fixation,2020-06-09T20:27:02Z,NA,NA,NA,NA,NA,sub61
NA,mars-trial,68,219732,0.0-10.0-1.26,"""event"",""trial"",""time""
""fullscreenenter"",""0"",""2219""
","
","
","""event"",""trial"",""time""
""fullscreenenter"",""0"",""2219""
","
",5306.855000089854,<img style='border: 4px solid darkgrey;' src='img/tf1_27_M_ss2.jpeg'></img>,1,NA,exp,NA,2,<img src='img/tf1_27_T1_ss2_md.jpeg'></img>,0,FALSE,NA,sub61
NA,html-keyboard-response,69,220235,0.0-10.0-0.27,"""event"",""trial"",""time""
""fullscreenenter"",""0"",""2219""
","
","
","""event"",""trial"",""time""
""fullscreenenter"",""0"",""2219""
","
",null,"<div style=""font-size:60px;"">+</div>",NA,null,fixation,2020-06-09T20:27:08Z,NA,NA,NA,NA,NA,sub61
NA,mars-trial,70,235613,0.0-10.0-1.27,"""event"",""trial"",""time""
""fullscreenenter"",""0"",""2219""
","
","
","""event"",""trial"",""time""
""fullscreenenter"",""0"",""2219""
","
",14768.009999766946,<img style='border: 4px solid darkgrey;' src='img/tf1_28_M_ss3.jpeg'></img>,2,NA,exp,NA,3,<img src='img/tf1_28_T1_ss3_md.jpeg'></img>,0,FALSE,NA,sub61
NA,html-keyboard-response,71,236116,0.0-10.0-0.28,"""event"",""trial"",""time""
""fullscreenenter"",""0"",""2219""
","
","
","""event"",""trial"",""time""
""fullscreenenter"",""0"",""2219""
","
",null,"<div style=""font-size:60px;"">+</div>",NA,null,fixation,2020-06-09T20:27:24Z,NA,NA,NA,NA,NA,sub61
NA,mars-trial,72,241844,0.0-10.0-1.28,"""event"",""trial"",""time""
""fullscreenenter"",""0"",""2219""
","
","
","""event"",""trial"",""time""
""fullscreenenter"",""0"",""2219""
","
",5117.480000015348,<img style='border: 4px solid darkgrey;' src='img/tf1_29_M_ss1.jpeg'></img>,1,NA,exp,NA,2,<img src='img/tf1_29_T1_ss1_md.jpeg'></img>,0,FALSE,NA,sub61
NA,html-keyboard-response,73,242347,0.0-10.0-0.29,"""event"",""trial"",""time""
""fullscreenenter"",""0"",""2219""
","
","
","""event"",""trial"",""time""
""fullscreenenter"",""0"",""2219""
","
",null,"<div style=""font-size:60px;"">+</div>",NA,null,fixation,2020-06-09T20:27:30Z,NA,NA,NA,NA,NA,sub61
NA,mars-trial,74,248896,0.0-10.0-1.29,"""event"",""trial"",""time""
""fullscreenenter"",""0"",""2219""
","
","
","""event"",""trial"",""time""
""fullscreenenter"",""0"",""2219""
","
",5939.354999922216,<img style='border: 4px solid darkgrey;' src='img/tf1_30_M_ss2.jpeg'></img>,1,NA,exp,NA,2,<img src='img/tf1_30_T1_ss2_md.jpeg'></img>,0,FALSE,NA,sub61
NA,html-keyboard-response,75,249398,0.0-10.0-0.30,"""event"",""trial"",""time""
""fullscreenenter"",""0"",""2219""
","
","
","""event"",""trial"",""time""
""fullscreenenter"",""0"",""2219""
","
",null,"<div style=""font-size:60px;"">+</div>",NA,null,fixation,2020-06-09T20:27:37Z,NA,NA,NA,NA,NA,sub61
NA,mars-trial,76,254782,0.0-10.0-1.30,"""event"",""trial"",""time""
""fullscreenenter"",""0"",""2219""
","
","
","""event"",""trial"",""time""
""fullscreenenter"",""0"",""2219""
","
",4775.029999669641,<img style='border: 4px solid darkgrey;' src='img/tf1_31_M_ss3.jpeg'></img>,1,NA,exp,NA,1,<img src='img/tf1_31_T1_ss3_md.jpeg'></img>,0,FALSE,NA,sub61
NA,html-keyboard-response,77,255286,0.0-10.0-0.31,"""event"",""trial"",""time""
""fullscreenenter"",""0"",""2219""
","
","
","""event"",""trial"",""time""
""fullscreenenter"",""0"",""2219""
","
",null,"<div style=""font-size:60px;"">+</div>",NA,null,fixation,2020-06-09T20:27:43Z,NA,NA,NA,NA,NA,sub61
NA,mars-trial,78,259359,0.0-10.0-1.31,"""event"",""trial"",""time""
""fullscreenenter"",""0"",""2219""
","
","
","""event"",""trial"",""time""
""fullscreenenter"",""0"",""2219""
","
",3458.7849997915328,<img style='border: 4px solid darkgrey;' src='img/tf1_32_M_ss1.jpeg'></img>,2,NA,exp,NA,0,<img src='img/tf1_32_T1_ss1_md.jpeg'></img>,0,TRUE,NA,sub61
NA,html-keyboard-response,79,259862,0.0-10.0-0.32,"""event"",""trial"",""time""
""fullscreenenter"",""0"",""2219""
","
","
","""event"",""trial"",""time""
""fullscreenenter"",""0"",""2219""
","
",null,"<div style=""font-size:60px;"">+</div>",NA,null,fixation,2020-06-09T20:27:48Z,NA,NA,NA,NA,NA,sub61
NA,mars-trial,80,263707,0.0-10.0-1.32,"""event"",""trial"",""time""
""fullscreenenter"",""0"",""2219""
","
","
","""event"",""trial"",""time""
""fullscreenenter"",""0"",""2219""
","
",3236.670000012964,<img style='border: 4px solid darkgrey;' src='img/tf1_33_M_ss2.jpeg'></img>,1,NA,exp,NA,2,<img src='img/tf1_33_T1_ss2_md.jpeg'></img>,0,FALSE,NA,sub61
NA,html-keyboard-response,81,264211,0.0-10.0-0.33,"""event"",""trial"",""time""
""fullscreenenter"",""0"",""2219""
","
","
","""event"",""trial"",""time""
""fullscreenenter"",""0"",""2219""
","
",null,"<div style=""font-size:60px;"">+</div>",NA,null,fixation,2020-06-09T20:27:52Z,NA,NA,NA,NA,NA,sub61
NA,mars-trial,82,269339,0.0-10.0-1.33,"""event"",""trial"",""time""
""fullscreenenter"",""0"",""2219""
","
","
","""event"",""trial"",""time""
""fullscreenenter"",""0"",""2219""
","
",4519.505000207573,<img style='border: 4px solid darkgrey;' src='img/tf1_34_M_ss3.jpeg'></img>,1,NA,exp,NA,1,<img src='img/tf1_34_T1_ss3_md.jpeg'></img>,0,FALSE,NA,sub61
NA,html-keyboard-response,83,269841,0.0-10.0-0.34,"""event"",""trial"",""time""
""fullscreenenter"",""0"",""2219""
","
","
","""event"",""trial"",""time""
""fullscreenenter"",""0"",""2219""
","
",null,"<div style=""font-size:60px;"">+</div>",NA,null,fixation,2020-06-09T20:27:58Z,NA,NA,NA,NA,NA,sub61
NA,mars-trial,84,272881,0.0-10.0-1.34,"""event"",""trial"",""time""
""fullscreenenter"",""0"",""2219""
","
","
","""event"",""trial"",""time""
""fullscreenenter"",""0"",""2219""
","
",2432.0650002919137,<img style='border: 4px solid darkgrey;' src='img/tf1_35_M_ss1.jpeg'></img>,1,NA,exp,NA,0,<img src='img/tf1_35_T1_ss1_md.jpeg'></img>,0,TRUE,NA,sub61
NA,html-keyboard-response,85,273386,0.0-10.0-0.35,"""event"",""trial"",""time""
""fullscreenenter"",""0"",""2219""
","
","
","""event"",""trial"",""time""
""fullscreenenter"",""0"",""2219""
","
",null,"<div style=""font-size:60px;"">+</div>",NA,null,fixation,2020-06-09T20:28:01Z,NA,NA,NA,NA,NA,sub61
NA,mars-trial,86,279969,0.0-10.0-1.35,"""event"",""trial"",""time""
""fullscreenenter"",""0"",""2219""
","
","
","""event"",""trial"",""time""
""fullscreenenter"",""0"",""2219""
","
",5970.625000074506,<img style='border: 4px solid darkgrey;' src='img/tf1_36_M_ss2.jpeg'></img>,1,NA,exp,NA,1,<img src='img/tf1_36_T1_ss2_md.jpeg'></img>,0,FALSE,NA,sub61
NA,html-keyboard-response,87,280472,0.0-10.0-0.36,"""event"",""trial"",""time""
""fullscreenenter"",""0"",""2219""
","
","
","""event"",""trial"",""time""
""fullscreenenter"",""0"",""2219""
","
",null,"<div style=""font-size:60px;"">+</div>",NA,null,fixation,2020-06-09T20:28:08Z,NA,NA,NA,NA,NA,sub61
NA,mars-trial,88,295227,0.0-10.0-1.36,"""event"",""trial"",""time""
""fullscreenenter"",""0"",""2219""
","
","
","""event"",""trial"",""time""
""fullscreenenter"",""0"",""2219""
","
",14144.845000002533,<img style='border: 4px solid darkgrey;' src='img/tf1_37_M_ss3.jpeg'></img>,3,NA,exp,NA,3,<img src='img/tf1_37_T1_ss3_md.jpeg'></img>,0,FALSE,NA,sub61
NA,html-keyboard-response,89,295728,0.0-10.0-0.37,"""event"",""trial"",""time""
""fullscreenenter"",""0"",""2219""
","
","
","""event"",""trial"",""time""
""fullscreenenter"",""0"",""2219""
","
",null,"<div style=""font-size:60px;"">+</div>",NA,null,fixation,2020-06-09T20:28:24Z,NA,NA,NA,NA,NA,sub61
NA,mars-trial,90,300353,0.0-10.0-1.37,"""event"",""trial"",""time""
""fullscreenenter"",""0"",""2219""
","
","
","""event"",""trial"",""time""
""fullscreenenter"",""0"",""2219""
","
",4014.410000294447,<img style='border: 4px solid darkgrey;' src='img/tf1_38_M_ss1.jpeg'></img>,1,NA,exp,NA,0,<img src='img/tf1_38_T1_ss1_md.jpeg'></img>,0,TRUE,NA,sub61
NA,html-keyboard-response,91,300855,0.0-10.0-0.38,"""event"",""trial"",""time""
""fullscreenenter"",""0"",""2219""
","
","
","""event"",""trial"",""time""
""fullscreenenter"",""0"",""2219""
","
",null,"<div style=""font-size:60px;"">+</div>",NA,null,fixation,2020-06-09T20:28:29Z,NA,NA,NA,NA,NA,sub61
NA,mars-trial,92,306242,0.0-10.0-1.38,"""event"",""trial"",""time""
""fullscreenenter"",""0"",""2219""
","
","
","""event"",""trial"",""time""
""fullscreenenter"",""0"",""2219""
","
",4777.239999733865,<img style='border: 4px solid darkgrey;' src='img/tf1_39_M_ss2.jpeg'></img>,2,NA,exp,NA,1,<img src='img/tf1_39_T1_ss2_md.jpeg'></img>,0,FALSE,NA,sub61
NA,html-keyboard-response,93,306745,0.0-10.0-0.39,"""event"",""trial"",""time""
""fullscreenenter"",""0"",""2219""
","
","
","""event"",""trial"",""time""
""fullscreenenter"",""0"",""2219""
","
",null,"<div style=""font-size:60px;"">+</div>",NA,null,fixation,2020-06-09T20:28:35Z,NA,NA,NA,NA,NA,sub61
NA,mars-trial,94,311696,0.0-10.0-1.39,"""event"",""trial"",""time""
""fullscreenenter"",""0"",""2219""
","
","
","""event"",""trial"",""time""
""fullscreenenter"",""0"",""2219""
","
",4341.679999604821,<img style='border: 4px solid darkgrey;' src='img/tf1_40_M_ss3.jpeg'></img>,1,NA,exp,NA,1,<img src='img/tf1_40_T1_ss3_md.jpeg'></img>,0,FALSE,NA,sub61
NA,html-keyboard-response,95,312199,0.0-10.0-0.40,"""event"",""trial"",""time""
""fullscreenenter"",""0"",""2219""
","
","
","""event"",""trial"",""time""
""fullscreenenter"",""0"",""2219""
","
",null,"<div style=""font-size:60px;"">+</div>",NA,null,fixation,2020-06-09T20:28:40Z,NA,NA,NA,NA,NA,sub61
NA,mars-trial,96,314621,0.0-10.0-1.40,"""event"",""trial"",""time""
""fullscreenenter"",""0"",""2219""
","
","
","""event"",""trial"",""time""
""fullscreenenter"",""0"",""2219""
","
",1815.0800000876188,<img style='border: 4px solid darkgrey;' src='img/tf1_41_M_ss1.jpeg'></img>,3,NA,exp,NA,0,<img src='img/tf1_41_T1_ss1_md.jpeg'></img>,0,TRUE,NA,sub61
NA,html-keyboard-response,97,315124,0.0-10.0-0.41,"""event"",""trial"",""time""
""fullscreenenter"",""0"",""2219""
","
","
","""event"",""trial"",""time""
""fullscreenenter"",""0"",""2219""
","
",null,"<div style=""font-size:60px;"">+</div>",NA,null,fixation,2020-06-09T20:28:43Z,NA,NA,NA,NA,NA,sub61
NA,mars-trial,98,323217,0.0-10.0-1.41,"""event"",""trial"",""time""
""fullscreenenter"",""0"",""2219""
","
","
","""event"",""trial"",""time""
""fullscreenenter"",""0"",""2219""
","
",7486.169999931008,<img style='border: 4px solid darkgrey;' src='img/tf1_42_M_ss2.jpeg'></img>,0,NA,exp,NA,1,<img src='img/tf1_42_T1_ss2_md.jpeg'></img>,0,FALSE,NA,sub61
NA,html-keyboard-response,99,323720,0.0-10.0-0.42,"""event"",""trial"",""time""
""fullscreenenter"",""0"",""2219""
","
","
","""event"",""trial"",""time""
""fullscreenenter"",""0"",""2219""
","
",null,"<div style=""font-size:60px;"">+</div>",NA,null,fixation,2020-06-09T20:28:52Z,NA,NA,NA,NA,NA,sub61
NA,mars-trial,100,332043,0.0-10.0-1.42,"""event"",""trial"",""time""
""fullscreenenter"",""0"",""2219""
","
","
","""event"",""trial"",""time""
""fullscreenenter"",""0"",""2219""
","
",7718.00999995321,<img style='border: 4px solid darkgrey;' src='img/tf1_43_M_ss3.jpeg'></img>,3,NA,exp,NA,3,<img src='img/tf1_43_T1_ss3_md.jpeg'></img>,0,FALSE,NA,sub61
NA,html-keyboard-response,101,332546,0.0-10.0-0.43,"""event"",""trial"",""time""
""fullscreenenter"",""0"",""2219""
","
","
","""event"",""trial"",""time""
""fullscreenenter"",""0"",""2219""
","
",null,"<div style=""font-size:60px;"">+</div>",NA,null,fixation,2020-06-09T20:29:00Z,NA,NA,NA,NA,NA,sub61
NA,mars-trial,102,338251,0.0-10.0-1.43,"""event"",""trial"",""time""
""fullscreenenter"",""0"",""2219""
","
","
","""event"",""trial"",""time""
""fullscreenenter"",""0"",""2219""
","
",5096.135000232607,<img style='border: 4px solid darkgrey;' src='img/tf1_44_M_ss1.jpeg'></img>,2,NA,exp,NA,0,<img src='img/tf1_44_T1_ss1_md.jpeg'></img>,0,TRUE,NA,sub61
NA,html-keyboard-response,103,338754,0.0-10.0-0.44,"""event"",""trial"",""time""
""fullscreenenter"",""0"",""2219""
","
","
","""event"",""trial"",""time""
""fullscreenenter"",""0"",""2219""
","
",null,"<div style=""font-size:60px;"">+</div>",NA,null,fixation,2020-06-09T20:29:07Z,NA,NA,NA,NA,NA,sub61
NA,mars-trial,104,348516,0.0-10.0-1.44,"""event"",""trial"",""time""
""fullscreenenter"",""0"",""2219""
","
","
","""event"",""trial"",""time""
""fullscreenenter"",""0"",""2219""
","
",9154.97999964282,<img style='border: 4px solid darkgrey;' src='img/tf1_45_M_ss2.jpeg'></img>,0,NA,exp,NA,0,<img src='img/tf1_45_T1_ss2_md.jpeg'></img>,0,TRUE,NA,sub61
NA,html-keyboard-response,105,349019,0.0-10.0-0.45,"""event"",""trial"",""time""
""fullscreenenter"",""0"",""2219""
","
","
","""event"",""trial"",""time""
""fullscreenenter"",""0"",""2219""
","
",null,"<div style=""font-size:60px;"">+</div>",NA,null,fixation,2020-06-09T20:29:17Z,NA,NA,NA,NA,NA,sub61
NA,mars-trial,106,357223,0.0-10.0-1.45,"""event"",""trial"",""time""
""fullscreenenter"",""0"",""2219""
","
","
","""event"",""trial"",""time""
""fullscreenenter"",""0"",""2219""
","
",7594.25999969244,<img style='border: 4px solid darkgrey;' src='img/tf1_46_M_ss3.jpeg'></img>,2,NA,exp,NA,0,<img src='img/tf1_46_T1_ss3_md.jpeg'></img>,0,TRUE,NA,sub61
NA,html-keyboard-response,107,357727,0.0-10.0-0.46,"""event"",""trial"",""time""
""fullscreenenter"",""0"",""2219""
","
","
","""event"",""trial"",""time""
""fullscreenenter"",""0"",""2219""
","
",null,"<div style=""font-size:60px;"">+</div>",NA,null,fixation,2020-06-09T20:29:26Z,NA,NA,NA,NA,NA,sub61
NA,mars-trial,108,363106,0.0-10.0-1.46,"""event"",""trial"",""time""
""fullscreenenter"",""0"",""2219""
","
","
","""event"",""trial"",""time""
""fullscreenenter"",""0"",""2219""
","
",4770.310000050813,<img style='border: 4px solid darkgrey;' src='img/tf1_47_M_ss1.jpeg'></img>,2,NA,exp,NA,2,<img src='img/tf1_47_T1_ss1_md.jpeg'></img>,0,FALSE,NA,sub61
NA,html-keyboard-response,109,363609,0.0-10.0-0.47,"""event"",""trial"",""time""
""fullscreenenter"",""0"",""2219""
","
","
","""event"",""trial"",""time""
""fullscreenenter"",""0"",""2219""
","
",null,"<div style=""font-size:60px;"">+</div>",NA,null,fixation,2020-06-09T20:29:31Z,NA,NA,NA,NA,NA,sub61
NA,mars-trial,110,367661,0.0-10.0-1.47,"""event"",""trial"",""time""
""fullscreenenter"",""0"",""2219""
","
","
","""event"",""trial"",""time""
""fullscreenenter"",""0"",""2219""
","
",3444.9299997650087,<img style='border: 4px solid darkgrey;' src='img/tf1_48_M_ss2.jpeg'></img>,3,NA,exp,NA,1,<img src='img/tf1_48_T1_ss2_md.jpeg'></img>,0,FALSE,NA,sub61
NA,html-keyboard-response,111,368163,0.0-10.0-0.48,"""event"",""trial"",""time""
""fullscreenenter"",""0"",""2219""
","
","
","""event"",""trial"",""time""
""fullscreenenter"",""0"",""2219""
","
",null,"<div style=""font-size:60px;"">+</div>",NA,null,fixation,2020-06-09T20:29:36Z,NA,NA,NA,NA,NA,sub61
NA,mars-trial,112,382041,0.0-10.0-1.48,"""event"",""trial"",""time""
""fullscreenenter"",""0"",""2219""
","
","
","""event"",""trial"",""time""
""fullscreenenter"",""0"",""2219""
","
",13271.759999915957,<img style='border: 4px solid darkgrey;' src='img/tf1_49_M_ss3.jpeg'></img>,1,NA,exp,NA,0,<img src='img/tf1_49_T1_ss3_md.jpeg'></img>,0,TRUE,NA,sub61
NA,html-keyboard-response,113,382544,0.0-10.0-0.49,"""event"",""trial"",""time""
""fullscreenenter"",""0"",""2219""
","
","
","""event"",""trial"",""time""
""fullscreenenter"",""0"",""2219""
","
",null,"<div style=""font-size:60px;"">+</div>",NA,null,fixation,2020-06-09T20:29:50Z,NA,NA,NA,NA,NA,sub61
NA,mars-trial,114,386525,0.0-10.0-1.49,"""event"",""trial"",""time""
""fullscreenenter"",""0"",""2219""
","
","
","""event"",""trial"",""time""
""fullscreenenter"",""0"",""2219""
","
",3373.2499997131526,<img style='border: 4px solid darkgrey;' src='img/tf1_50_M_ss1.jpeg'></img>,3,NA,exp,NA,0,<img src='img/tf1_50_T1_ss1_md.jpeg'></img>,0,TRUE,NA,sub61
NA,html-keyboard-response,115,387029,0.0-10.0-0.50,"""event"",""trial"",""time""
""fullscreenenter"",""0"",""2219""
","
","
","""event"",""trial"",""time""
""fullscreenenter"",""0"",""2219""
","
",null,"<div style=""font-size:60px;"">+</div>",NA,null,fixation,2020-06-09T20:29:55Z,NA,NA,NA,NA,NA,sub61
NA,mars-trial,116,391525,0.0-10.0-1.50,"""event"",""trial"",""time""
""fullscreenenter"",""0"",""2219""
","
","
","""event"",""trial"",""time""
""fullscreenenter"",""0"",""2219""
","
",3887.27999990806,<img style='border: 4px solid darkgrey;' src='img/tf1_51_M_ss2.jpeg'></img>,1,NA,exp,NA,1,<img src='img/tf1_51_T1_ss2_md.jpeg'></img>,0,FALSE,NA,sub61
NA,html-keyboard-response,117,392029,0.0-10.0-0.51,"""event"",""trial"",""time""
""fullscreenenter"",""0"",""2219""
","
","
","""event"",""trial"",""time""
""fullscreenenter"",""0"",""2219""
","
",null,"<div style=""font-size:60px;"">+</div>",NA,null,fixation,2020-06-09T20:30:00Z,NA,NA,NA,NA,NA,sub61
NA,mars-trial,118,398113,0.0-10.0-1.51,"""event"",""trial"",""time""
""fullscreenenter"",""0"",""2219""
","
","
","""event"",""trial"",""time""
""fullscreenenter"",""0"",""2219""
","
",5473.800000268966,<img style='border: 4px solid darkgrey;' src='img/tf1_52_M_ss3.jpeg'></img>,2,NA,exp,NA,1,<img src='img/tf1_52_T1_ss3_md.jpeg'></img>,0,FALSE,NA,sub61
NA,html-keyboard-response,119,398616,0.0-10.0-0.52,"""event"",""trial"",""time""
""fullscreenenter"",""0"",""2219""
","
","
","""event"",""trial"",""time""
""fullscreenenter"",""0"",""2219""
","
",null,"<div style=""font-size:60px;"">+</div>",NA,null,fixation,2020-06-09T20:30:06Z,NA,NA,NA,NA,NA,sub61
NA,mars-trial,120,404409,0.0-10.0-1.52,"""event"",""trial"",""time""
""fullscreenenter"",""0"",""2219""
","
","
","""event"",""trial"",""time""
""fullscreenenter"",""0"",""2219""
","
",5185.860000085086,<img style='border: 4px solid darkgrey;' src='img/tf1_53_M_ss1.jpeg'></img>,2,NA,exp,NA,2,<img src='img/tf1_53_T1_ss1_md.jpeg'></img>,0,FALSE,NA,sub61
NA,html-keyboard-response,121,404913,0.0-10.0-0.53,"""event"",""trial"",""time""
""fullscreenenter"",""0"",""2219""
","
","
","""event"",""trial"",""time""
""fullscreenenter"",""0"",""2219""
","
",null,"<div style=""font-size:60px;"">+</div>",NA,null,fixation,2020-06-09T20:30:13Z,NA,NA,NA,NA,NA,sub61
NA,mars-trial,122,409544,0.0-10.0-1.53,"""event"",""trial"",""time""
""fullscreenenter"",""0"",""2219""
","
","
","""event"",""trial"",""time""
""fullscreenenter"",""0"",""2219""
","
",4023.554999846965,<img style='border: 4px solid darkgrey;' src='img/tf1_54_M_ss2.jpeg'></img>,2,NA,exp,NA,2,<img src='img/tf1_54_T1_ss2_md.jpeg'></img>,0,FALSE,NA,sub61
NA,html-keyboard-response,123,410046,0.0-10.0-0.54,"""event"",""trial"",""time""
""fullscreenenter"",""0"",""2219""
","
","
","""event"",""trial"",""time""
""fullscreenenter"",""0"",""2219""
","
",null,"<div style=""font-size:60px;"">+</div>",NA,null,fixation,2020-06-09T20:30:18Z,NA,NA,NA,NA,NA,sub61
NA,mars-trial,124,411785,0.0-10.0-1.54,"""event"",""trial"",""time""
""fullscreenenter"",""0"",""2219""
","
","
","""event"",""trial"",""time""
""fullscreenenter"",""0"",""2219""
","
",1121.559999883175,<img style='border: 4px solid darkgrey;' src='img/tf1_55_M_ss3.jpeg'></img>,1,NA,exp,NA,3,<img src='img/tf1_55_T1_ss3_md.jpeg'></img>,0,FALSE,NA,sub61
NA,html-keyboard-response,125,412287,0.0-10.0-0.55,"""event"",""trial"",""time""
""fullscreenenter"",""0"",""2219""
","
","
","""event"",""trial"",""time""
""fullscreenenter"",""0"",""2219""
","
",null,"<div style=""font-size:60px;"">+</div>",NA,null,fixation,2020-06-09T20:30:20Z,NA,NA,NA,NA,NA,sub61
NA,mars-trial,126,420338,0.0-10.0-1.55,"""event"",""trial"",""time""
""fullscreenenter"",""0"",""2219""
","
","
","""event"",""trial"",""time""
""fullscreenenter"",""0"",""2219""
","
",7444.689999800175,<img style='border: 4px solid darkgrey;' src='img/tf1_56_M_ss1.jpeg'></img>,1,NA,exp,NA,1,<img src='img/tf1_56_T1_ss1_md.jpeg'></img>,0,FALSE,NA,sub61
NA,html-keyboard-response,127,420842,0.0-10.0-0.56,"""event"",""trial"",""time""
""fullscreenenter"",""0"",""2219""
","
","
","""event"",""trial"",""time""
""fullscreenenter"",""0"",""2219""
","
",null,"<div style=""font-size:60px;"">+</div>",NA,null,fixation,2020-06-09T20:30:29Z,NA,NA,NA,NA,NA,sub61
NA,mars-trial,128,438198,0.0-10.0-1.56,"""event"",""trial"",""time""
""fullscreenenter"",""0"",""2219""
","
","
","""event"",""trial"",""time""
""fullscreenenter"",""0"",""2219""
","
",16745.55499991402,<img style='border: 4px solid darkgrey;' src='img/tf1_57_M_ss2.jpeg'></img>,3,NA,exp,NA,0,<img src='img/tf1_57_T1_ss2_md.jpeg'></img>,0,TRUE,NA,sub61
NA,html-keyboard-response,129,438701,0.0-10.0-0.57,"""event"",""trial"",""time""
""fullscreenenter"",""0"",""2219""
","
","
","""event"",""trial"",""time""
""fullscreenenter"",""0"",""2219""
","
",null,"<div style=""font-size:60px;"">+</div>",NA,null,fixation,2020-06-09T20:30:47Z,NA,NA,NA,NA,NA,sub61
NA,mars-trial,130,445963,0.0-10.0-1.57,"""event"",""trial"",""time""
""fullscreenenter"",""0"",""2219""
","
","
","""event"",""trial"",""time""
""fullscreenenter"",""0"",""2219""
","
",6651.414999738336,<img style='border: 4px solid darkgrey;' src='img/tf1_58_M_ss3.jpeg'></img>,3,NA,exp,NA,2,<img src='img/tf1_58_T1_ss3_md.jpeg'></img>,0,FALSE,NA,sub61
NA,html-keyboard-response,131,446468,0.0-10.0-0.58,"""event"",""trial"",""time""
""fullscreenenter"",""0"",""2219""
","
","
","""event"",""trial"",""time""
""fullscreenenter"",""0"",""2219""
","
",null,"<div style=""font-size:60px;"">+</div>",NA,null,fixation,2020-06-09T20:30:54Z,NA,NA,NA,NA,NA,sub61
NA,mars-trial,132,452328,0.0-10.0-1.58,"""event"",""trial"",""time""
""fullscreenenter"",""0"",""2219""
","
","
","""event"",""trial"",""time""
""fullscreenenter"",""0"",""2219""
","
",5254.294999875128,<img style='border: 4px solid darkgrey;' src='img/tf1_59_M_ss1.jpeg'></img>,2,NA,exp,NA,3,<img src='img/tf1_59_T1_ss1_md.jpeg'></img>,0,FALSE,NA,sub61
NA,html-keyboard-response,133,452830,0.0-10.0-0.59,"""event"",""trial"",""time""
""fullscreenenter"",""0"",""2219""
","
","
","""event"",""trial"",""time""
""fullscreenenter"",""0"",""2219""
","
",null,"<div style=""font-size:60px;"">+</div>",NA,null,fixation,2020-06-09T20:31:01Z,NA,NA,NA,NA,NA,sub61
NA,mars-trial,134,457130,0.0-10.0-1.59,"""event"",""trial"",""time""
""fullscreenenter"",""0"",""2219""
","
","
","""event"",""trial"",""time""
""fullscreenenter"",""0"",""2219""
","
",3691.2249997258186,<img style='border: 4px solid darkgrey;' src='img/tf1_60_M_ss2.jpeg'></img>,2,NA,exp,NA,1,<img src='img/tf1_60_T1_ss2_md.jpeg'></img>,0,FALSE,NA,sub61
NA,html-keyboard-response,135,457633,0.0-10.0-0.60,"""event"",""trial"",""time""
""fullscreenenter"",""0"",""2219""
","
","
","""event"",""trial"",""time""
""fullscreenenter"",""0"",""2219""
","
",null,"<div style=""font-size:60px;"">+</div>",NA,null,fixation,2020-06-09T20:31:06Z,NA,NA,NA,NA,NA,sub61
NA,mars-trial,136,460765,0.0-10.0-1.60,"""event"",""trial"",""time""
""fullscreenenter"",""0"",""2219""
","
","
","""event"",""trial"",""time""
""fullscreenenter"",""0"",""2219""
","
",2522.520000115037,<img style='border: 4px solid darkgrey;' src='img/tf1_61_M_ss3.jpeg'></img>,2,NA,exp,NA,3,<img src='img/tf1_61_T1_ss3_md.jpeg'></img>,0,FALSE,NA,sub61
NA,html-keyboard-response,137,461267,0.0-10.0-0.61,"""event"",""trial"",""time""
""fullscreenenter"",""0"",""2219""
","
","
","""event"",""trial"",""time""
""fullscreenenter"",""0"",""2219""
","
",null,"<div style=""font-size:60px;"">+</div>",NA,null,fixation,2020-06-09T20:31:09Z,NA,NA,NA,NA,NA,sub61
NA,mars-trial,138,466969,0.0-10.0-1.61,"""event"",""trial"",""time""
""fullscreenenter"",""0"",""2219""
","
","
","""event"",""trial"",""time""
""fullscreenenter"",""0"",""2219""
","
",5097.62499993667,<img style='border: 4px solid darkgrey;' src='img/tf1_62_M_ss1.jpeg'></img>,2,NA,exp,NA,1,<img src='img/tf1_62_T1_ss1_md.jpeg'></img>,0,FALSE,NA,sub61
NA,html-keyboard-response,139,467473,0.0-10.0-0.62,"""event"",""trial"",""time""
""fullscreenenter"",""0"",""2219""
","
","
","""event"",""trial"",""time""
""fullscreenenter"",""0"",""2219""
","
",null,"<div style=""font-size:60px;"">+</div>",NA,null,fixation,2020-06-09T20:31:15Z,NA,NA,NA,NA,NA,sub61
NA,mars-trial,140,469789,0.0-10.0-1.62,"""event"",""trial"",""time""
""fullscreenenter"",""0"",""2219""
","
","
","""event"",""trial"",""time""
""fullscreenenter"",""0"",""2219""
","
",1705.0499999895692,<img style='border: 4px solid darkgrey;' src='img/tf1_63_M_ss2.jpeg'></img>,2,NA,exp,NA,3,<img src='img/tf1_63_T1_ss2_md.jpeg'></img>,0,FALSE,NA,sub61
NA,html-keyboard-response,141,470290,0.0-10.0-0.63,"""event"",""trial"",""time""
""fullscreenenter"",""0"",""2219""
","
","
","""event"",""trial"",""time""
""fullscreenenter"",""0"",""2219""
","
",null,"<div style=""font-size:60px;"">+</div>",NA,null,fixation,2020-06-09T20:31:18Z,NA,NA,NA,NA,NA,sub61
NA,mars-trial,142,473309,0.0-10.0-1.63,"""event"",""trial"",""time""
""fullscreenenter"",""0"",""2219""
","
","
","""event"",""trial"",""time""
""fullscreenenter"",""0"",""2219""
","
",2412.175000179559,<img style='border: 4px solid darkgrey;' src='img/tf1_64_M_ss3.jpeg'></img>,3,NA,exp,NA,3,<img src='img/tf1_64_T1_ss3_md.jpeg'></img>,0,FALSE,NA,sub61
NA,html-keyboard-response,143,473811,0.0-10.0-0.64,"""event"",""trial"",""time""
""fullscreenenter"",""0"",""2219""
","
","
","""event"",""trial"",""time""
""fullscreenenter"",""0"",""2219""
","
",null,"<div style=""font-size:60px;"">+</div>",NA,null,fixation,2020-06-09T20:31:22Z,NA,NA,NA,NA,NA,sub61
NA,mars-trial,144,476769,0.0-10.0-1.64,"""event"",""trial"",""time""
""fullscreenenter"",""0"",""2219""
","
","
","""event"",""trial"",""time""
""fullscreenenter"",""0"",""2219""
","
",2347.7000002749264,<img style='border: 4px solid darkgrey;' src='img/tf1_65_M_ss1.jpeg'></img>,3,NA,exp,NA,1,<img src='img/tf1_65_T1_ss1_md.jpeg'></img>,0,FALSE,NA,sub61
NA,html-keyboard-response,145,477272,0.0-10.0-0.65,"""event"",""trial"",""time""
""fullscreenenter"",""0"",""2219""
","
","
","""event"",""trial"",""time""
""fullscreenenter"",""0"",""2219""
","
",null,"<div style=""font-size:60px;"">+</div>",NA,null,fixation,2020-06-09T20:31:25Z,NA,NA,NA,NA,NA,sub61
NA,mars-trial,146,481159,0.0-10.0-1.65,"""event"",""trial"",""time""
""fullscreenenter"",""0"",""2219""
","
","
","""event"",""trial"",""time""
""fullscreenenter"",""0"",""2219""
","
",3281.25,<img style='border: 4px solid darkgrey;' src='img/tf1_66_M_ss2.jpeg'></img>,2,NA,exp,NA,3,<img src='img/tf1_66_T1_ss2_md.jpeg'></img>,0,FALSE,NA,sub61
NA,html-keyboard-response,147,481663,0.0-10.0-0.66,"""event"",""trial"",""time""
""fullscreenenter"",""0"",""2219""
","
","
","""event"",""trial"",""time""
""fullscreenenter"",""0"",""2219""
","
",null,"<div style=""font-size:60px;"">+</div>",NA,null,fixation,2020-06-09T20:31:30Z,NA,NA,NA,NA,NA,sub61
NA,mars-trial,148,486531,0.0-10.0-1.66,"""event"",""trial"",""time""
""fullscreenenter"",""0"",""2219""
","
","
","""event"",""trial"",""time""
""fullscreenenter"",""0"",""2219""
","
",4257.07000028342,<img style='border: 4px solid darkgrey;' src='img/tf1_67_M_ss3.jpeg'></img>,3,NA,exp,NA,1,<img src='img/tf1_67_T1_ss3_md.jpeg'></img>,0,FALSE,NA,sub61
NA,html-keyboard-response,149,487033,0.0-10.0-0.67,"""event"",""trial"",""time""
""fullscreenenter"",""0"",""2219""
","
","
","""event"",""trial"",""time""
""fullscreenenter"",""0"",""2219""
","
",null,"<div style=""font-size:60px;"">+</div>",NA,null,fixation,2020-06-09T20:31:35Z,NA,NA,NA,NA,NA,sub61
NA,mars-trial,150,489327,0.0-10.0-1.67,"""event"",""trial"",""time""
""fullscreenenter"",""0"",""2219""
","
","
","""event"",""trial"",""time""
""fullscreenenter"",""0"",""2219""
","
",1685.9050001949072,<img style='border: 4px solid darkgrey;' src='img/tf1_68_M_ss1.jpeg'></img>,3,NA,exp,NA,0,<img src='img/tf1_68_T1_ss1_md.jpeg'></img>,0,TRUE,NA,sub61
NA,html-keyboard-response,151,489829,0.0-10.0-0.68,"""event"",""trial"",""time""
""fullscreenenter"",""0"",""2219""
","
","
","""event"",""trial"",""time""
""fullscreenenter"",""0"",""2219""
","
",null,"<div style=""font-size:60px;"">+</div>",NA,null,fixation,2020-06-09T20:31:38Z,NA,NA,NA,NA,NA,sub61
NA,mars-trial,152,493699,0.0-10.0-1.68,"""event"",""trial"",""time""
""fullscreenenter"",""0"",""2219""
","
","
","""event"",""trial"",""time""
""fullscreenenter"",""0"",""2219""
","
",3259.254999924451,<img style='border: 4px solid darkgrey;' src='img/tf1_69_M_ss2.jpeg'></img>,3,NA,exp,NA,3,<img src='img/tf1_69_T1_ss2_md.jpeg'></img>,0,FALSE,NA,sub61
NA,html-keyboard-response,153,494203,0.0-10.0-0.69,"""event"",""trial"",""time""
""fullscreenenter"",""0"",""2219""
","
","
","""event"",""trial"",""time""
""fullscreenenter"",""0"",""2219""
","
",null,"<div style=""font-size:60px;"">+</div>",NA,null,fixation,2020-06-09T20:31:42Z,NA,NA,NA,NA,NA,sub61
NA,mars-trial,154,497543,0.0-10.0-1.69,"""event"",""trial"",""time""
""fullscreenenter"",""0"",""2219""
","
","
","""event"",""trial"",""time""
""fullscreenenter"",""0"",""2219""
","
",2732.3050000704825,<img style='border: 4px solid darkgrey;' src='img/tf1_70_M_ss3.jpeg'></img>,3,NA,exp,NA,0,<img src='img/tf1_70_T1_ss3_md.jpeg'></img>,0,TRUE,NA,sub61
NA,html-keyboard-response,155,498046,0.0-10.0-0.70,"""event"",""trial"",""time""
""fullscreenenter"",""0"",""2219""
","
","
","""event"",""trial"",""time""
""fullscreenenter"",""0"",""2219""
","
",null,"<div style=""font-size:60px;"">+</div>",NA,null,fixation,2020-06-09T20:31:46Z,NA,NA,NA,NA,NA,sub61
NA,mars-trial,156,505920,0.0-10.0-1.70,"""event"",""trial"",""time""
""fullscreenenter"",""0"",""2219""
","
","
","""event"",""trial"",""time""
""fullscreenenter"",""0"",""2219""
","
",7266.5399997495115,<img style='border: 4px solid darkgrey;' src='img/tf1_71_M_ss1.jpeg'></img>,0,NA,exp,NA,0,<img src='img/tf1_71_T1_ss1_md.jpeg'></img>,0,TRUE,NA,sub61
NA,html-keyboard-response,157,506423,0.0-10.0-0.71,"""event"",""trial"",""time""
""fullscreenenter"",""0"",""2219""
","
","
","""event"",""trial"",""time""
""fullscreenenter"",""0"",""2219""
","
",null,"<div style=""font-size:60px;"">+</div>",NA,null,fixation,2020-06-09T20:31:54Z,NA,NA,NA,NA,NA,sub61
NA,mars-trial,158,514193,0.0-10.0-1.71,"""event"",""trial"",""time""
""fullscreenenter"",""0"",""2219""
","
","
","""event"",""trial"",""time""
""fullscreenenter"",""0"",""2219""
","
",7163.559999782592,<img style='border: 4px solid darkgrey;' src='img/tf1_72_M_ss2.jpeg'></img>,1,NA,exp,NA,1,<img src='img/tf1_72_T1_ss2_md.jpeg'></img>,0,FALSE,NA,sub61
NA,html-keyboard-response,159,514697,0.0-10.0-0.72,"""event"",""trial"",""time""
""fullscreenenter"",""0"",""2219""
","
","
","""event"",""trial"",""time""
""fullscreenenter"",""0"",""2219""
","
",null,"<div style=""font-size:60px;"">+</div>",NA,null,fixation,2020-06-09T20:32:03Z,NA,NA,NA,NA,NA,sub61
NA,mars-trial,160,527594,0.0-10.0-1.72,"""event"",""trial"",""time""
""fullscreenenter"",""0"",""2219""
","
","
","""event"",""trial"",""time""
""fullscreenenter"",""0"",""2219""
","
",12285.25000018999,<img style='border: 4px solid darkgrey;' src='img/tf1_73_M_ss3.jpeg'></img>,2,NA,exp,NA,0,<img src='img/tf1_73_T1_ss3_md.jpeg'></img>,0,TRUE,NA,sub61
NA,html-keyboard-response,161,528098,0.0-10.0-0.73,"""event"",""trial"",""time""
""fullscreenenter"",""0"",""2219""
","
","
","""event"",""trial"",""time""
""fullscreenenter"",""0"",""2219""
","
",null,"<div style=""font-size:60px;"">+</div>",NA,null,fixation,2020-06-09T20:32:16Z,NA,NA,NA,NA,NA,sub61
NA,mars-trial,162,532162,0.0-10.0-1.73,"""event"",""trial"",""time""
""fullscreenenter"",""0"",""2219""
","
","
","""event"",""trial"",""time""
""fullscreenenter"",""0"",""2219""
","
",3453.20999994874,<img style='border: 4px solid darkgrey;' src='img/tf1_74_M_ss1.jpeg'></img>,1,NA,exp,NA,2,<img src='img/tf1_74_T1_ss1_md.jpeg'></img>,0,FALSE,NA,sub61
NA,html-keyboard-response,163,532666,0.0-10.0-0.74,"""event"",""trial"",""time""
""fullscreenenter"",""0"",""2219""
","
","
","""event"",""trial"",""time""
""fullscreenenter"",""0"",""2219""
","
",null,"<div style=""font-size:60px;"">+</div>",NA,null,fixation,2020-06-09T20:32:21Z,NA,NA,NA,NA,NA,sub61
NA,mars-trial,164,534026,0.0-10.0-1.74,"""event"",""trial"",""time""
""fullscreenenter"",""0"",""2219""
","
","
","""event"",""trial"",""time""
""fullscreenenter"",""0"",""2219""
","
",NA,NA,NA,NA,exp,NA,NA,<img src='img/tf1_75_T1_ss2_md.jpeg'></img>,0,FALSE,NA,sub61
NA,html-keyboard-response,165,534530,0.0-10.0-0.75,"""event"",""trial"",""time""
""fullscreenenter"",""0"",""2219""
","
","
","""event"",""trial"",""time""
""fullscreenenter"",""0"",""2219""
","
",null,"<div style=""font-size:60px;"">+</div>",NA,null,fixation,2020-06-09T20:32:22Z,NA,NA,NA,NA,NA,sub61
NA,audio-button-response,166,536665,0.0-11.0,"""event"",""trial"",""time""
""fullscreenenter"",""0"",""2219""
","
","
","""event"",""trial"",""time""
""fullscreenenter"",""0"",""2219""
","
",2032.0950001478195,audio/mars_instructions_slide5.wav,0,NA,NA,NA,NA,NA,NA,NA,NA,sub61
