success,trial_type,trial_index,time_elapsed,internal_node_id,interactions,blur_events,focus_events,fullscreenenter_events,fullscreenexit_events,rt,stimulus,button_pressed,key_press,part,timestamp,unshuffled_button,correct_response,correct_button,correct,value,subject_id
TRUE,fullscreen,0,4196,0.0-0.0,"""event"",""trial"",""time""
""focus"",""0"",""1846""
""fullscreenenter"",""0"",""3205""
","
","""event"",""trial"",""time""
""focus"",""0"",""1846""
","""event"",""trial"",""time""
""fullscreenenter"",""0"",""3205""
","
",NA,NA,NA,NA,NA,NA,NA,NA,NA,NA,NA,sub51
NA,pavlovia,1,4199,0.0-1.0,"""event"",""trial"",""time""
""focus"",""0"",""1846""
""fullscreenenter"",""0"",""3205""
","
","""event"",""trial"",""time""
""focus"",""0"",""1846""
","""event"",""trial"",""time""
""fullscreenenter"",""0"",""3205""
","
",NA,NA,NA,NA,NA,NA,NA,NA,NA,NA,NA,sub51
NA,html-button-response,2,5258,0.0-2.0,"""event"",""trial"",""time""
""focus"",""0"",""1846""
""fullscreenenter"",""0"",""3205""
","
","""event"",""trial"",""time""
""focus"",""0"",""1846""
","""event"",""trial"",""time""
""fullscreenenter"",""0"",""3205""
","
",1058.099999994738,<p>Welcome! Press START to begin.</p><br>,0,NA,NA,NA,NA,NA,NA,NA,NA,sub51
NA,audio-button-response,3,15570,0.0-3.0,"""event"",""trial"",""time""
""focus"",""0"",""1846""
""fullscreenenter"",""0"",""3205""
","
","""event"",""trial"",""time""
""focus"",""0"",""1846""
","""event"",""trial"",""time""
""fullscreenenter"",""0"",""3205""
","
",10309.989999994286,audio/mars_instructions_slide2.wav,0,NA,NA,NA,NA,NA,NA,NA,NA,sub51
NA,audio-button-response,4,20597,0.0-4.0,"""event"",""trial"",""time""
""focus"",""0"",""1846""
""fullscreenenter"",""0"",""3205""
","
","""event"",""trial"",""time""
""focus"",""0"",""1846""
","""event"",""trial"",""time""
""fullscreenenter"",""0"",""3205""
","
",5025.065000008908,audio/mars_instructions_slide3.wav,0,NA,NA,NA,NA,NA,NA,NA,NA,sub51
NA,html-keyboard-response,5,21099,0.0-5.0-0.0,"""event"",""trial"",""time""
""focus"",""0"",""1846""
""fullscreenenter"",""0"",""3205""
","
","""event"",""trial"",""time""
""focus"",""0"",""1846""
","""event"",""trial"",""time""
""fullscreenenter"",""0"",""3205""
","
",null,"<div style=""font-size:60px;"">+</div>",NA,null,fixation,2020-06-10T04:02:39Z,NA,NA,NA,NA,NA,sub51
NA,mars-trial,6,28164,0.0-5.0-1.0,"""event"",""trial"",""time""
""focus"",""0"",""1846""
""fullscreenenter"",""0"",""3205""
","
","""event"",""trial"",""time""
""focus"",""0"",""1846""
","""event"",""trial"",""time""
""fullscreenenter"",""0"",""3205""
","
",4954.744999995455,<img style='border: 4px solid darkgrey;' src='practice/pt1_M1.png'></img>,3,NA,practice,NA,0,<img src='practice/pt1_T1.png'></img>,0,TRUE,NA,sub51
NA,html-keyboard-response,7,28666,0.0-6.0-0.0,"""event"",""trial"",""time""
""focus"",""0"",""1846""
""fullscreenenter"",""0"",""3205""
","
","""event"",""trial"",""time""
""focus"",""0"",""1846""
","""event"",""trial"",""time""
""fullscreenenter"",""0"",""3205""
","
",null,"<div style=""font-size:60px;"">+</div>",NA,null,fixation,2020-06-10T04:02:46Z,NA,NA,NA,NA,NA,sub51
NA,mars-trial,8,34365,0.0-6.0-1.0,"""event"",""trial"",""time""
""focus"",""0"",""1846""
""fullscreenenter"",""0"",""3205""
","
","""event"",""trial"",""time""
""focus"",""0"",""1846""
","""event"",""trial"",""time""
""fullscreenenter"",""0"",""3205""
","
",3591.775000008056,<img style='border: 4px solid darkgrey;' src='practice/pt2_M1.png'></img>,1,NA,practice,NA,0,<img src='practice/pt2_T1.png'></img>,0,TRUE,NA,sub51
NA,html-keyboard-response,9,34871,0.0-7.0-0.0,"""event"",""trial"",""time""
""focus"",""0"",""1846""
""fullscreenenter"",""0"",""3205""
","
","""event"",""trial"",""time""
""focus"",""0"",""1846""
","""event"",""trial"",""time""
""fullscreenenter"",""0"",""3205""
","
",null,"<div style=""font-size:60px;"">+</div>",NA,null,fixation,2020-06-10T04:02:53Z,NA,NA,NA,NA,NA,sub51
NA,mars-trial,10,38815,0.0-7.0-1.0,"""event"",""trial"",""time""
""focus"",""0"",""1846""
""fullscreenenter"",""0"",""3205""
","
","""event"",""trial"",""time""
""focus"",""0"",""1846""
","""event"",""trial"",""time""
""fullscreenenter"",""0"",""3205""
","
",1835.6150000035996,<img style='border: 4px solid darkgrey;' src='practice/pt3_M1.png'></img>,2,NA,practice,NA,0,<img src='practice/pt3_T1.png'></img>,0,TRUE,NA,sub51
NA,audio-button-response,11,40774,0.0-8.0,"""event"",""trial"",""time""
""focus"",""0"",""1846""
""fullscreenenter"",""0"",""3205""
","
","""event"",""trial"",""time""
""focus"",""0"",""1846""
","""event"",""trial"",""time""
""fullscreenenter"",""0"",""3205""
","
",1957.0799999928568,audio/mars_instructions_slide4.wav,0,NA,NA,NA,NA,NA,NA,NA,NA,sub51
NA,call-function,12,40775,0.0-9.0,"""event"",""trial"",""time""
""focus"",""0"",""1846""
""fullscreenenter"",""0"",""3205""
","
","""event"",""trial"",""time""
""focus"",""0"",""1846""
","""event"",""trial"",""time""
""fullscreenenter"",""0"",""3205""
","
",NA,NA,NA,NA,NA,NA,NA,NA,NA,NA,NA,sub51
NA,html-keyboard-response,13,41277,0.0-10.0-0.0,"""event"",""trial"",""time""
""focus"",""0"",""1846""
""fullscreenenter"",""0"",""3205""
","
","""event"",""trial"",""time""
""focus"",""0"",""1846""
","""event"",""trial"",""time""
""fullscreenenter"",""0"",""3205""
","
",null,"<div style=""font-size:60px;"">+</div>",NA,null,fixation,2020-06-10T04:02:59Z,NA,NA,NA,NA,NA,sub51
NA,mars-trial,14,43393,0.0-10.0-1.0,"""event"",""trial"",""time""
""focus"",""0"",""1846""
""fullscreenenter"",""0"",""3205""
","
","""event"",""trial"",""time""
""focus"",""0"",""1846""
","""event"",""trial"",""time""
""fullscreenenter"",""0"",""3205""
","
",1507.4150000000373,<img style='border: 4px solid darkgrey;' src='img/tf1_1_M_ss3.jpeg'></img>,0,NA,exp,NA,0,<img src='img/tf1_1_T1_ss3_md.jpeg'></img>,0,TRUE,NA,sub51
NA,html-keyboard-response,15,43896,0.0-10.0-0.1,"""event"",""trial"",""time""
""focus"",""0"",""1846""
""fullscreenenter"",""0"",""3205""
","
","""event"",""trial"",""time""
""focus"",""0"",""1846""
","""event"",""trial"",""time""
""fullscreenenter"",""0"",""3205""
","
",null,"<div style=""font-size:60px;"">+</div>",NA,null,fixation,2020-06-10T04:03:02Z,NA,NA,NA,NA,NA,sub51
NA,mars-trial,16,46689,0.0-10.0-1.1,"""event"",""trial"",""time""
""focus"",""0"",""1846""
""fullscreenenter"",""0"",""3205""
","
","""event"",""trial"",""time""
""focus"",""0"",""1846""
","""event"",""trial"",""time""
""fullscreenenter"",""0"",""3205""
","
",2184.2800000013085,<img style='border: 4px solid darkgrey;' src='img/tf1_2_M_ss1.jpeg'></img>,0,NA,exp,NA,0,<img src='img/tf1_2_T1_ss1_md.jpeg'></img>,0,TRUE,NA,sub51
NA,html-keyboard-response,17,47193,0.0-10.0-0.2,"""event"",""trial"",""time""
""focus"",""0"",""1846""
""fullscreenenter"",""0"",""3205""
","
","""event"",""trial"",""time""
""focus"",""0"",""1846""
","""event"",""trial"",""time""
""fullscreenenter"",""0"",""3205""
","
",null,"<div style=""font-size:60px;"">+</div>",NA,null,fixation,2020-06-10T04:03:05Z,NA,NA,NA,NA,NA,sub51
NA,mars-trial,18,50758,0.0-10.0-1.2,"""event"",""trial"",""time""
""focus"",""0"",""1846""
""fullscreenenter"",""0"",""3205""
","
","""event"",""trial"",""time""
""focus"",""0"",""1846""
","""event"",""trial"",""time""
""fullscreenenter"",""0"",""3205""
","
",2955.9750000044005,<img style='border: 4px solid darkgrey;' src='img/tf1_3_M_ss2.jpeg'></img>,2,NA,exp,NA,0,<img src='img/tf1_3_T1_ss2_md.jpeg'></img>,0,TRUE,NA,sub51
NA,html-keyboard-response,19,51259,0.0-10.0-0.3,"""event"",""trial"",""time""
""focus"",""0"",""1846""
""fullscreenenter"",""0"",""3205""
","
","""event"",""trial"",""time""
""focus"",""0"",""1846""
","""event"",""trial"",""time""
""fullscreenenter"",""0"",""3205""
","
",null,"<div style=""font-size:60px;"">+</div>",NA,null,fixation,2020-06-10T04:03:09Z,NA,NA,NA,NA,NA,sub51
NA,mars-trial,20,54482,0.0-10.0-1.3,"""event"",""trial"",""time""
""focus"",""0"",""1846""
""fullscreenenter"",""0"",""3205""
","
","""event"",""trial"",""time""
""focus"",""0"",""1846""
","""event"",""trial"",""time""
""fullscreenenter"",""0"",""3205""
","
",2614.7599999967497,<img style='border: 4px solid darkgrey;' src='img/tf1_4_M_ss3.jpeg'></img>,0,NA,exp,NA,0,<img src='img/tf1_4_T1_ss3_md.jpeg'></img>,0,TRUE,NA,sub51
NA,html-keyboard-response,21,54985,0.0-10.0-0.4,"""event"",""trial"",""time""
""focus"",""0"",""1846""
""fullscreenenter"",""0"",""3205""
","
","""event"",""trial"",""time""
""focus"",""0"",""1846""
","""event"",""trial"",""time""
""fullscreenenter"",""0"",""3205""
","
",null,"<div style=""font-size:60px;"">+</div>",NA,null,fixation,2020-06-10T04:03:13Z,NA,NA,NA,NA,NA,sub51
NA,mars-trial,22,56946,0.0-10.0-1.4,"""event"",""trial"",""time""
""focus"",""0"",""1846""
""fullscreenenter"",""0"",""3205""
","
","""event"",""trial"",""time""
""focus"",""0"",""1846""
","""event"",""trial"",""time""
""fullscreenenter"",""0"",""3205""
","
",1352.6100000017323,<img style='border: 4px solid darkgrey;' src='img/tf1_5_M_ss1.jpeg'></img>,1,NA,exp,NA,0,<img src='img/tf1_5_T1_ss1_md.jpeg'></img>,0,TRUE,NA,sub51
NA,html-keyboard-response,23,57449,0.0-10.0-0.5,"""event"",""trial"",""time""
""focus"",""0"",""1846""
""fullscreenenter"",""0"",""3205""
","
","""event"",""trial"",""time""
""focus"",""0"",""1846""
","""event"",""trial"",""time""
""fullscreenenter"",""0"",""3205""
","
",null,"<div style=""font-size:60px;"">+</div>",NA,null,fixation,2020-06-10T04:03:15Z,NA,NA,NA,NA,NA,sub51
NA,mars-trial,24,70642,0.0-10.0-1.5,"""event"",""trial"",""time""
""focus"",""0"",""1846""
""fullscreenenter"",""0"",""3205""
","
","""event"",""trial"",""time""
""focus"",""0"",""1846""
","""event"",""trial"",""time""
""fullscreenenter"",""0"",""3205""
","
",12585.489999997662,<img style='border: 4px solid darkgrey;' src='img/tf1_6_M_ss2.jpeg'></img>,0,NA,exp,NA,1,<img src='img/tf1_6_T1_ss2_md.jpeg'></img>,0,FALSE,NA,sub51
NA,html-keyboard-response,25,71147,0.0-10.0-0.6,"""event"",""trial"",""time""
""focus"",""0"",""1846""
""fullscreenenter"",""0"",""3205""
","
","""event"",""trial"",""time""
""focus"",""0"",""1846""
","""event"",""trial"",""time""
""fullscreenenter"",""0"",""3205""
","
",null,"<div style=""font-size:60px;"">+</div>",NA,null,fixation,2020-06-10T04:03:29Z,NA,NA,NA,NA,NA,sub51
NA,mars-trial,26,75077,0.0-10.0-1.6,"""event"",""trial"",""time""
""focus"",""0"",""1846""
""fullscreenenter"",""0"",""3205""
","
","""event"",""trial"",""time""
""focus"",""0"",""1846""
","""event"",""trial"",""time""
""fullscreenenter"",""0"",""3205""
","
",3325.0200000038603,<img style='border: 4px solid darkgrey;' src='img/tf1_7_M_ss3.jpeg'></img>,0,NA,exp,NA,0,<img src='img/tf1_7_T1_ss3_md.jpeg'></img>,0,TRUE,NA,sub51
NA,html-keyboard-response,27,75580,0.0-10.0-0.7,"""event"",""trial"",""time""
""focus"",""0"",""1846""
""fullscreenenter"",""0"",""3205""
","
","""event"",""trial"",""time""
""focus"",""0"",""1846""
","""event"",""trial"",""time""
""fullscreenenter"",""0"",""3205""
","
",null,"<div style=""font-size:60px;"">+</div>",NA,null,fixation,2020-06-10T04:03:33Z,NA,NA,NA,NA,NA,sub51
NA,mars-trial,28,88037,0.0-10.0-1.7,"""event"",""trial"",""time""
""focus"",""0"",""1846""
""fullscreenenter"",""0"",""3205""
","
","""event"",""trial"",""time""
""focus"",""0"",""1846""
","""event"",""trial"",""time""
""fullscreenenter"",""0"",""3205""
","
",11850.609999994049,<img style='border: 4px solid darkgrey;' src='img/tf1_8_M_ss1.jpeg'></img>,1,NA,exp,NA,1,<img src='img/tf1_8_T1_ss1_md.jpeg'></img>,0,FALSE,NA,sub51
NA,html-keyboard-response,29,88540,0.0-10.0-0.8,"""event"",""trial"",""time""
""focus"",""0"",""1846""
""fullscreenenter"",""0"",""3205""
","
","""event"",""trial"",""time""
""focus"",""0"",""1846""
","""event"",""trial"",""time""
""fullscreenenter"",""0"",""3205""
","
",null,"<div style=""font-size:60px;"">+</div>",NA,null,fixation,2020-06-10T04:03:46Z,NA,NA,NA,NA,NA,sub51
NA,mars-trial,30,90775,0.0-10.0-1.8,"""event"",""trial"",""time""
""focus"",""0"",""1846""
""fullscreenenter"",""0"",""3205""
","
","""event"",""trial"",""time""
""focus"",""0"",""1846""
","""event"",""trial"",""time""
""fullscreenenter"",""0"",""3205""
","
",1624.6700000046985,<img style='border: 4px solid darkgrey;' src='img/tf1_9_M_ss2.jpeg'></img>,1,NA,exp,NA,2,<img src='img/tf1_9_T1_ss2_md.jpeg'></img>,0,FALSE,NA,sub51
NA,html-keyboard-response,31,91280,0.0-10.0-0.9,"""event"",""trial"",""time""
""focus"",""0"",""1846""
""fullscreenenter"",""0"",""3205""
","
","""event"",""trial"",""time""
""focus"",""0"",""1846""
","""event"",""trial"",""time""
""fullscreenenter"",""0"",""3205""
","
",null,"<div style=""font-size:60px;"">+</div>",NA,null,fixation,2020-06-10T04:03:49Z,NA,NA,NA,NA,NA,sub51
NA,mars-trial,32,95898,0.0-10.0-1.9,"""event"",""trial"",""time""
""focus"",""0"",""1846""
""fullscreenenter"",""0"",""3205""
","
","""event"",""trial"",""time""
""focus"",""0"",""1846""
","""event"",""trial"",""time""
""fullscreenenter"",""0"",""3205""
","
",4010.0150000071153,<img style='border: 4px solid darkgrey;' src='img/tf1_10_M_ss3.jpeg'></img>,1,NA,exp,NA,0,<img src='img/tf1_10_T1_ss3_md.jpeg'></img>,0,TRUE,NA,sub51
NA,html-keyboard-response,33,96400,0.0-10.0-0.10,"""event"",""trial"",""time""
""focus"",""0"",""1846""
""fullscreenenter"",""0"",""3205""
","
","""event"",""trial"",""time""
""focus"",""0"",""1846""
","""event"",""trial"",""time""
""fullscreenenter"",""0"",""3205""
","
",null,"<div style=""font-size:60px;"">+</div>",NA,null,fixation,2020-06-10T04:03:54Z,NA,NA,NA,NA,NA,sub51
NA,mars-trial,34,99876,0.0-10.0-1.10,"""event"",""trial"",""time""
""focus"",""0"",""1846""
""fullscreenenter"",""0"",""3205""
","
","""event"",""trial"",""time""
""focus"",""0"",""1846""
","""event"",""trial"",""time""
""fullscreenenter"",""0"",""3205""
","
",2862.9199999995762,<img style='border: 4px solid darkgrey;' src='img/tf1_11_M_ss1.jpeg'></img>,2,NA,exp,NA,0,<img src='img/tf1_11_T1_ss1_md.jpeg'></img>,0,TRUE,NA,sub51
NA,html-keyboard-response,35,100377,0.0-10.0-0.11,"""event"",""trial"",""time""
""focus"",""0"",""1846""
""fullscreenenter"",""0"",""3205""
","
","""event"",""trial"",""time""
""focus"",""0"",""1846""
","""event"",""trial"",""time""
""fullscreenenter"",""0"",""3205""
","
",null,"<div style=""font-size:60px;"">+</div>",NA,null,fixation,2020-06-10T04:03:58Z,NA,NA,NA,NA,NA,sub51
NA,mars-trial,36,103743,0.0-10.0-1.11,"""event"",""trial"",""time""
""focus"",""0"",""1846""
""fullscreenenter"",""0"",""3205""
","
","""event"",""trial"",""time""
""focus"",""0"",""1846""
","""event"",""trial"",""time""
""fullscreenenter"",""0"",""3205""
","
",2756.554999999935,<img style='border: 4px solid darkgrey;' src='img/tf1_12_M_ss2.jpeg'></img>,1,NA,exp,NA,1,<img src='img/tf1_12_T1_ss2_md.jpeg'></img>,0,FALSE,NA,sub51
NA,html-keyboard-response,37,104246,0.0-10.0-0.12,"""event"",""trial"",""time""
""focus"",""0"",""1846""
""fullscreenenter"",""0"",""3205""
","
","""event"",""trial"",""time""
""focus"",""0"",""1846""
","""event"",""trial"",""time""
""fullscreenenter"",""0"",""3205""
","
",null,"<div style=""font-size:60px;"">+</div>",NA,null,fixation,2020-06-10T04:04:02Z,NA,NA,NA,NA,NA,sub51
NA,mars-trial,38,108072,0.0-10.0-1.12,"""event"",""trial"",""time""
""focus"",""0"",""1846""
""fullscreenenter"",""0"",""3205""
","
","""event"",""trial"",""time""
""focus"",""0"",""1846""
","""event"",""trial"",""time""
""fullscreenenter"",""0"",""3205""
","
",3217.339999988326,<img style='border: 4px solid darkgrey;' src='img/tf1_13_M_ss3.jpeg'></img>,2,NA,exp,NA,1,<img src='img/tf1_13_T1_ss3_md.jpeg'></img>,0,FALSE,NA,sub51
NA,html-keyboard-response,39,108574,0.0-10.0-0.13,"""event"",""trial"",""time""
""focus"",""0"",""1846""
""fullscreenenter"",""0"",""3205""
","
","""event"",""trial"",""time""
""focus"",""0"",""1846""
","""event"",""trial"",""time""
""fullscreenenter"",""0"",""3205""
","
",null,"<div style=""font-size:60px;"">+</div>",NA,null,fixation,2020-06-10T04:04:06Z,NA,NA,NA,NA,NA,sub51
NA,mars-trial,40,114463,0.0-10.0-1.13,"""event"",""trial"",""time""
""focus"",""0"",""1846""
""fullscreenenter"",""0"",""3205""
","
","""event"",""trial"",""time""
""focus"",""0"",""1846""
","""event"",""trial"",""time""
""fullscreenenter"",""0"",""3205""
","
",5278.500000000349,<img style='border: 4px solid darkgrey;' src='img/tf1_14_M_ss1.jpeg'></img>,2,NA,exp,NA,1,<img src='img/tf1_14_T1_ss1_md.jpeg'></img>,0,FALSE,NA,sub51
NA,html-keyboard-response,41,114966,0.0-10.0-0.14,"""event"",""trial"",""time""
""focus"",""0"",""1846""
""fullscreenenter"",""0"",""3205""
","
","""event"",""trial"",""time""
""focus"",""0"",""1846""
","""event"",""trial"",""time""
""fullscreenenter"",""0"",""3205""
","
",null,"<div style=""font-size:60px;"">+</div>",NA,null,fixation,2020-06-10T04:04:13Z,NA,NA,NA,NA,NA,sub51
NA,mars-trial,42,118373,0.0-10.0-1.14,"""event"",""trial"",""time""
""focus"",""0"",""1846""
""fullscreenenter"",""0"",""3205""
","
","""event"",""trial"",""time""
""focus"",""0"",""1846""
","""event"",""trial"",""time""
""fullscreenenter"",""0"",""3205""
","
",2795.669999992242,<img style='border: 4px solid darkgrey;' src='img/tf1_15_M_ss2.jpeg'></img>,2,NA,exp,NA,1,<img src='img/tf1_15_T1_ss2_md.jpeg'></img>,0,FALSE,NA,sub51
NA,html-keyboard-response,43,118875,0.0-10.0-0.15,"""event"",""trial"",""time""
""focus"",""0"",""1846""
""fullscreenenter"",""0"",""3205""
","
","""event"",""trial"",""time""
""focus"",""0"",""1846""
","""event"",""trial"",""time""
""fullscreenenter"",""0"",""3205""
","
",null,"<div style=""font-size:60px;"">+</div>",NA,null,fixation,2020-06-10T04:04:17Z,NA,NA,NA,NA,NA,sub51
NA,mars-trial,44,120112,0.0-10.0-1.15,"""event"",""trial"",""time""
""focus"",""0"",""1846""
""fullscreenenter"",""0"",""3205""
","
","""event"",""trial"",""time""
""focus"",""0"",""1846""
","""event"",""trial"",""time""
""fullscreenenter"",""0"",""3205""
","
",628.3750000002328,<img style='border: 4px solid darkgrey;' src='img/tf1_16_M_ss3.jpeg'></img>,3,NA,exp,NA,3,<img src='img/tf1_16_T1_ss3_md.jpeg'></img>,0,FALSE,NA,sub51
NA,html-keyboard-response,45,120614,0.0-10.0-0.16,"""event"",""trial"",""time""
""focus"",""0"",""1846""
""fullscreenenter"",""0"",""3205""
","
","""event"",""trial"",""time""
""focus"",""0"",""1846""
","""event"",""trial"",""time""
""fullscreenenter"",""0"",""3205""
","
",null,"<div style=""font-size:60px;"">+</div>",NA,null,fixation,2020-06-10T04:04:18Z,NA,NA,NA,NA,NA,sub51
NA,mars-trial,46,121880,0.0-10.0-1.16,"""event"",""trial"",""time""
""focus"",""0"",""1846""
""fullscreenenter"",""0"",""3205""
","
","""event"",""trial"",""time""
""focus"",""0"",""1846""
","""event"",""trial"",""time""
""fullscreenenter"",""0"",""3205""
","
",657.2599999926751,<img style='border: 4px solid darkgrey;' src='img/tf1_17_M_ss1.jpeg'></img>,1,NA,exp,NA,2,<img src='img/tf1_17_T1_ss1_md.jpeg'></img>,0,FALSE,NA,sub51
NA,html-keyboard-response,47,122383,0.0-10.0-0.17,"""event"",""trial"",""time""
""focus"",""0"",""1846""
""fullscreenenter"",""0"",""3205""
","
","""event"",""trial"",""time""
""focus"",""0"",""1846""
","""event"",""trial"",""time""
""fullscreenenter"",""0"",""3205""
","
",null,"<div style=""font-size:60px;"">+</div>",NA,null,fixation,2020-06-10T04:04:20Z,NA,NA,NA,NA,NA,sub51
NA,mars-trial,48,123353,0.0-10.0-1.17,"""event"",""trial"",""time""
""focus"",""0"",""1846""
""fullscreenenter"",""0"",""3205""
","
","""event"",""trial"",""time""
""focus"",""0"",""1846""
","""event"",""trial"",""time""
""fullscreenenter"",""0"",""3205""
","
",364.3949999968754,<img style='border: 4px solid darkgrey;' src='img/tf1_18_M_ss2.jpeg'></img>,2,NA,exp,NA,1,<img src='img/tf1_18_T1_ss2_md.jpeg'></img>,0,FALSE,NA,sub51
NA,html-keyboard-response,49,123856,0.0-10.0-0.18,"""event"",""trial"",""time""
""focus"",""0"",""1846""
""fullscreenenter"",""0"",""3205""
","
","""event"",""trial"",""time""
""focus"",""0"",""1846""
","""event"",""trial"",""time""
""fullscreenenter"",""0"",""3205""
","
",null,"<div style=""font-size:60px;"">+</div>",NA,null,fixation,2020-06-10T04:04:22Z,NA,NA,NA,NA,NA,sub51
NA,mars-trial,50,125174,0.0-10.0-1.18,"""event"",""trial"",""time""
""focus"",""0"",""1846""
""fullscreenenter"",""0"",""3205""
","
","""event"",""trial"",""time""
""focus"",""0"",""1846""
","""event"",""trial"",""time""
""fullscreenenter"",""0"",""3205""
","
",711.2550000019837,<img style='border: 4px solid darkgrey;' src='img/tf1_19_M_ss3.jpeg'></img>,0,NA,exp,NA,3,<img src='img/tf1_19_T1_ss3_md.jpeg'></img>,0,FALSE,NA,sub51
NA,html-keyboard-response,51,125676,0.0-10.0-0.19,"""event"",""trial"",""time""
""focus"",""0"",""1846""
""fullscreenenter"",""0"",""3205""
","
","""event"",""trial"",""time""
""focus"",""0"",""1846""
","""event"",""trial"",""time""
""fullscreenenter"",""0"",""3205""
","
",null,"<div style=""font-size:60px;"">+</div>",NA,null,fixation,2020-06-10T04:04:23Z,NA,NA,NA,NA,NA,sub51
NA,mars-trial,52,127041,0.0-10.0-1.19,"""event"",""trial"",""time""
""focus"",""0"",""1846""
""fullscreenenter"",""0"",""3205""
","
","""event"",""trial"",""time""
""focus"",""0"",""1846""
","""event"",""trial"",""time""
""fullscreenenter"",""0"",""3205""
","
",756.2649999890709,<img style='border: 4px solid darkgrey;' src='img/tf1_20_M_ss1.jpeg'></img>,2,NA,exp,NA,0,<img src='img/tf1_20_T1_ss1_md.jpeg'></img>,0,TRUE,NA,sub51
NA,html-keyboard-response,53,127546,0.0-10.0-0.20,"""event"",""trial"",""time""
""focus"",""0"",""1846""
""fullscreenenter"",""0"",""3205""
","
","""event"",""trial"",""time""
""focus"",""0"",""1846""
","""event"",""trial"",""time""
""fullscreenenter"",""0"",""3205""
","
",null,"<div style=""font-size:60px;"">+</div>",NA,null,fixation,2020-06-10T04:04:25Z,NA,NA,NA,NA,NA,sub51
NA,mars-trial,54,129172,0.0-10.0-1.20,"""event"",""trial"",""time""
""focus"",""0"",""1846""
""fullscreenenter"",""0"",""3205""
","
","""event"",""trial"",""time""
""focus"",""0"",""1846""
","""event"",""trial"",""time""
""fullscreenenter"",""0"",""3205""
","
",1017.4350000015693,<img style='border: 4px solid darkgrey;' src='img/tf1_21_M_ss2.jpeg'></img>,1,NA,exp,NA,1,<img src='img/tf1_21_T1_ss2_md.jpeg'></img>,0,FALSE,NA,sub51
NA,html-keyboard-response,55,129674,0.0-10.0-0.21,"""event"",""trial"",""time""
""focus"",""0"",""1846""
""fullscreenenter"",""0"",""3205""
","
","""event"",""trial"",""time""
""focus"",""0"",""1846""
","""event"",""trial"",""time""
""fullscreenenter"",""0"",""3205""
","
",null,"<div style=""font-size:60px;"">+</div>",NA,null,fixation,2020-06-10T04:04:27Z,NA,NA,NA,NA,NA,sub51
NA,mars-trial,56,130867,0.0-10.0-1.21,"""event"",""trial"",""time""
""focus"",""0"",""1846""
""fullscreenenter"",""0"",""3205""
","
","""event"",""trial"",""time""
""focus"",""0"",""1846""
","""event"",""trial"",""time""
""fullscreenenter"",""0"",""3205""
","
",587.6250000001164,<img style='border: 4px solid darkgrey;' src='img/tf1_22_M_ss3.jpeg'></img>,3,NA,exp,NA,3,<img src='img/tf1_22_T1_ss3_md.jpeg'></img>,0,FALSE,NA,sub51
NA,html-keyboard-response,57,131369,0.0-10.0-0.22,"""event"",""trial"",""time""
""focus"",""0"",""1846""
""fullscreenenter"",""0"",""3205""
","
","""event"",""trial"",""time""
""focus"",""0"",""1846""
","""event"",""trial"",""time""
""fullscreenenter"",""0"",""3205""
","
",null,"<div style=""font-size:60px;"">+</div>",NA,null,fixation,2020-06-10T04:04:29Z,NA,NA,NA,NA,NA,sub51
NA,mars-trial,58,132525,0.0-10.0-1.22,"""event"",""trial"",""time""
""focus"",""0"",""1846""
""fullscreenenter"",""0"",""3205""
","
","""event"",""trial"",""time""
""focus"",""0"",""1846""
","""event"",""trial"",""time""
""fullscreenenter"",""0"",""3205""
","
",548.5000000044238,<img style='border: 4px solid darkgrey;' src='img/tf1_23_M_ss1.jpeg'></img>,0,NA,exp,NA,3,<img src='img/tf1_23_T1_ss1_md.jpeg'></img>,0,FALSE,NA,sub51
NA,html-keyboard-response,59,133032,0.0-10.0-0.23,"""event"",""trial"",""time""
""focus"",""0"",""1846""
""fullscreenenter"",""0"",""3205""
","
","""event"",""trial"",""time""
""focus"",""0"",""1846""
","""event"",""trial"",""time""
""fullscreenenter"",""0"",""3205""
","
",null,"<div style=""font-size:60px;"">+</div>",NA,null,fixation,2020-06-10T04:04:31Z,NA,NA,NA,NA,NA,sub51
NA,mars-trial,60,134279,0.0-10.0-1.23,"""event"",""trial"",""time""
""focus"",""0"",""1846""
""fullscreenenter"",""0"",""3205""
","
","""event"",""trial"",""time""
""focus"",""0"",""1846""
","""event"",""trial"",""time""
""fullscreenenter"",""0"",""3205""
","
",641.4800000056857,<img style='border: 4px solid darkgrey;' src='img/tf1_24_M_ss2.jpeg'></img>,1,NA,exp,NA,2,<img src='img/tf1_24_T1_ss2_md.jpeg'></img>,0,FALSE,NA,sub51
NA,html-keyboard-response,61,134781,0.0-10.0-0.24,"""event"",""trial"",""time""
""focus"",""0"",""1846""
""fullscreenenter"",""0"",""3205""
","
","""event"",""trial"",""time""
""focus"",""0"",""1846""
","""event"",""trial"",""time""
""fullscreenenter"",""0"",""3205""
","
",null,"<div style=""font-size:60px;"">+</div>",NA,null,fixation,2020-06-10T04:04:32Z,NA,NA,NA,NA,NA,sub51
NA,mars-trial,62,136036,0.0-10.0-1.24,"""event"",""trial"",""time""
""focus"",""0"",""1846""
""fullscreenenter"",""0"",""3205""
","
","""event"",""trial"",""time""
""focus"",""0"",""1846""
","""event"",""trial"",""time""
""fullscreenenter"",""0"",""3205""
","
",646.8049999966752,<img style='border: 4px solid darkgrey;' src='img/tf1_25_M_ss3.jpeg'></img>,2,NA,exp,NA,3,<img src='img/tf1_25_T1_ss3_md.jpeg'></img>,0,FALSE,NA,sub51
NA,html-keyboard-response,63,136537,0.0-10.0-0.25,"""event"",""trial"",""time""
""focus"",""0"",""1846""
""fullscreenenter"",""0"",""3205""
","
","""event"",""trial"",""time""
""focus"",""0"",""1846""
","""event"",""trial"",""time""
""fullscreenenter"",""0"",""3205""
","
",null,"<div style=""font-size:60px;"">+</div>",NA,null,fixation,2020-06-10T04:04:34Z,NA,NA,NA,NA,NA,sub51
NA,mars-trial,64,137766,0.0-10.0-1.25,"""event"",""trial"",""time""
""focus"",""0"",""1846""
""fullscreenenter"",""0"",""3205""
","
","""event"",""trial"",""time""
""focus"",""0"",""1846""
","""event"",""trial"",""time""
""fullscreenenter"",""0"",""3205""
","
",619.2600000067614,<img style='border: 4px solid darkgrey;' src='img/tf1_26_M_ss1.jpeg'></img>,0,NA,exp,NA,0,<img src='img/tf1_26_T1_ss1_md.jpeg'></img>,0,TRUE,NA,sub51
NA,html-keyboard-response,65,138270,0.0-10.0-0.26,"""event"",""trial"",""time""
""focus"",""0"",""1846""
""fullscreenenter"",""0"",""3205""
","
","""event"",""trial"",""time""
""focus"",""0"",""1846""
","""event"",""trial"",""time""
""fullscreenenter"",""0"",""3205""
","
",null,"<div style=""font-size:60px;"">+</div>",NA,null,fixation,2020-06-10T04:04:36Z,NA,NA,NA,NA,NA,sub51
NA,mars-trial,66,139580,0.0-10.0-1.26,"""event"",""trial"",""time""
""focus"",""0"",""1846""
""fullscreenenter"",""0"",""3205""
","
","""event"",""trial"",""time""
""focus"",""0"",""1846""
","""event"",""trial"",""time""
""fullscreenenter"",""0"",""3205""
","
",704.5499999949243,<img style='border: 4px solid darkgrey;' src='img/tf1_27_M_ss2.jpeg'></img>,2,NA,exp,NA,0,<img src='img/tf1_27_T1_ss2_md.jpeg'></img>,0,TRUE,NA,sub51
NA,html-keyboard-response,67,140083,0.0-10.0-0.27,"""event"",""trial"",""time""
""focus"",""0"",""1846""
""fullscreenenter"",""0"",""3205""
","
","""event"",""trial"",""time""
""focus"",""0"",""1846""
","""event"",""trial"",""time""
""fullscreenenter"",""0"",""3205""
","
",null,"<div style=""font-size:60px;"">+</div>",NA,null,fixation,2020-06-10T04:04:38Z,NA,NA,NA,NA,NA,sub51
NA,mars-trial,68,141408,0.0-10.0-1.27,"""event"",""trial"",""time""
""focus"",""0"",""1846""
""fullscreenenter"",""0"",""3205""
","
","""event"",""trial"",""time""
""focus"",""0"",""1846""
","""event"",""trial"",""time""
""fullscreenenter"",""0"",""3205""
","
",716.4599999960046,<img style='border: 4px solid darkgrey;' src='img/tf1_28_M_ss3.jpeg'></img>,3,NA,exp,NA,1,<img src='img/tf1_28_T1_ss3_md.jpeg'></img>,0,FALSE,NA,sub51
NA,html-keyboard-response,69,141911,0.0-10.0-0.28,"""event"",""trial"",""time""
""focus"",""0"",""1846""
""fullscreenenter"",""0"",""3205""
","
","""event"",""trial"",""time""
""focus"",""0"",""1846""
","""event"",""trial"",""time""
""fullscreenenter"",""0"",""3205""
","
",null,"<div style=""font-size:60px;"">+</div>",NA,null,fixation,2020-06-10T04:04:40Z,NA,NA,NA,NA,NA,sub51
NA,mars-trial,70,142957,0.0-10.0-1.28,"""event"",""trial"",""time""
""focus"",""0"",""1846""
""fullscreenenter"",""0"",""3205""
","
","""event"",""trial"",""time""
""focus"",""0"",""1846""
","""event"",""trial"",""time""
""fullscreenenter"",""0"",""3205""
","
",434.93499999749474,<img style='border: 4px solid darkgrey;' src='img/tf1_29_M_ss1.jpeg'></img>,1,NA,exp,NA,1,<img src='img/tf1_29_T1_ss1_md.jpeg'></img>,0,FALSE,NA,sub51
NA,html-keyboard-response,71,143461,0.0-10.0-0.29,"""event"",""trial"",""time""
""focus"",""0"",""1846""
""fullscreenenter"",""0"",""3205""
","
","""event"",""trial"",""time""
""focus"",""0"",""1846""
","""event"",""trial"",""time""
""fullscreenenter"",""0"",""3205""
","
",null,"<div style=""font-size:60px;"">+</div>",NA,null,fixation,2020-06-10T04:04:41Z,NA,NA,NA,NA,NA,sub51
NA,mars-trial,72,144741,0.0-10.0-1.29,"""event"",""trial"",""time""
""focus"",""0"",""1846""
""fullscreenenter"",""0"",""3205""
","
","""event"",""trial"",""time""
""focus"",""0"",""1846""
","""event"",""trial"",""time""
""fullscreenenter"",""0"",""3205""
","
",671.9199999934062,<img style='border: 4px solid darkgrey;' src='img/tf1_30_M_ss2.jpeg'></img>,2,NA,exp,NA,3,<img src='img/tf1_30_T1_ss2_md.jpeg'></img>,0,FALSE,NA,sub51
NA,html-keyboard-response,73,145243,0.0-10.0-0.30,"""event"",""trial"",""time""
""focus"",""0"",""1846""
""fullscreenenter"",""0"",""3205""
","
","""event"",""trial"",""time""
""focus"",""0"",""1846""
","""event"",""trial"",""time""
""fullscreenenter"",""0"",""3205""
","
",null,"<div style=""font-size:60px;"">+</div>",NA,null,fixation,2020-06-10T04:04:43Z,NA,NA,NA,NA,NA,sub51
NA,mars-trial,74,146618,0.0-10.0-1.30,"""event"",""trial"",""time""
""focus"",""0"",""1846""
""fullscreenenter"",""0"",""3205""
","
","""event"",""trial"",""time""
""focus"",""0"",""1846""
","""event"",""trial"",""time""
""fullscreenenter"",""0"",""3205""
","
",770.394999999553,<img style='border: 4px solid darkgrey;' src='img/tf1_31_M_ss3.jpeg'></img>,0,NA,exp,NA,0,<img src='img/tf1_31_T1_ss3_md.jpeg'></img>,0,TRUE,NA,sub51
NA,html-keyboard-response,75,147121,0.0-10.0-0.31,"""event"",""trial"",""time""
""focus"",""0"",""1846""
""fullscreenenter"",""0"",""3205""
","
","""event"",""trial"",""time""
""focus"",""0"",""1846""
","""event"",""trial"",""time""
""fullscreenenter"",""0"",""3205""
","
",null,"<div style=""font-size:60px;"">+</div>",NA,null,fixation,2020-06-10T04:04:45Z,NA,NA,NA,NA,NA,sub51
NA,mars-trial,76,148644,0.0-10.0-1.31,"""event"",""trial"",""time""
""focus"",""0"",""1846""
""fullscreenenter"",""0"",""3205""
","
","""event"",""trial"",""time""
""focus"",""0"",""1846""
","""event"",""trial"",""time""
""fullscreenenter"",""0"",""3205""
","
",913.7150000024121,<img style='border: 4px solid darkgrey;' src='img/tf1_32_M_ss1.jpeg'></img>,3,NA,exp,NA,0,<img src='img/tf1_32_T1_ss1_md.jpeg'></img>,0,TRUE,NA,sub51
NA,html-keyboard-response,77,149146,0.0-10.0-0.32,"""event"",""trial"",""time""
""focus"",""0"",""1846""
""fullscreenenter"",""0"",""3205""
","
","""event"",""trial"",""time""
""focus"",""0"",""1846""
","""event"",""trial"",""time""
""fullscreenenter"",""0"",""3205""
","
",null,"<div style=""font-size:60px;"">+</div>",NA,null,fixation,2020-06-10T04:04:47Z,NA,NA,NA,NA,NA,sub51
NA,mars-trial,78,151632,0.0-10.0-1.32,"""event"",""trial"",""time""
""focus"",""0"",""1846""
""fullscreenenter"",""0"",""3205""
","
","""event"",""trial"",""time""
""focus"",""0"",""1846""
","""event"",""trial"",""time""
""fullscreenenter"",""0"",""3205""
","
",1875.4550000012387,<img style='border: 4px solid darkgrey;' src='img/tf1_33_M_ss2.jpeg'></img>,2,NA,exp,NA,3,<img src='img/tf1_33_T1_ss2_md.jpeg'></img>,0,FALSE,NA,sub51
NA,html-keyboard-response,79,152134,0.0-10.0-0.33,"""event"",""trial"",""time""
""focus"",""0"",""1846""
""fullscreenenter"",""0"",""3205""
","
","""event"",""trial"",""time""
""focus"",""0"",""1846""
","""event"",""trial"",""time""
""fullscreenenter"",""0"",""3205""
","
",null,"<div style=""font-size:60px;"">+</div>",NA,null,fixation,2020-06-10T04:04:50Z,NA,NA,NA,NA,NA,sub51
NA,mars-trial,80,157399,0.0-10.0-1.33,"""event"",""trial"",""time""
""focus"",""0"",""1846""
""fullscreenenter"",""0"",""3205""
","
","""event"",""trial"",""time""
""focus"",""0"",""1846""
","""event"",""trial"",""time""
""fullscreenenter"",""0"",""3205""
","
",4655.459999994491,<img style='border: 4px solid darkgrey;' src='img/tf1_34_M_ss3.jpeg'></img>,0,NA,exp,NA,0,<img src='img/tf1_34_T1_ss3_md.jpeg'></img>,0,TRUE,NA,sub51
NA,html-keyboard-response,81,157901,0.0-10.0-0.34,"""event"",""trial"",""time""
""focus"",""0"",""1846""
""fullscreenenter"",""0"",""3205""
","
","""event"",""trial"",""time""
""focus"",""0"",""1846""
","""event"",""trial"",""time""
""fullscreenenter"",""0"",""3205""
","
",null,"<div style=""font-size:60px;"">+</div>",NA,null,fixation,2020-06-10T04:04:56Z,NA,NA,NA,NA,NA,sub51
NA,mars-trial,82,160488,0.0-10.0-1.34,"""event"",""trial"",""time""
""focus"",""0"",""1846""
""fullscreenenter"",""0"",""3205""
","
","""event"",""trial"",""time""
""focus"",""0"",""1846""
","""event"",""trial"",""time""
""fullscreenenter"",""0"",""3205""
","
",1975.2950000111014,<img style='border: 4px solid darkgrey;' src='img/tf1_35_M_ss1.jpeg'></img>,2,NA,exp,NA,1,<img src='img/tf1_35_T1_ss1_md.jpeg'></img>,0,FALSE,NA,sub51
NA,html-keyboard-response,83,160990,0.0-10.0-0.35,"""event"",""trial"",""time""
""focus"",""0"",""1846""
""fullscreenenter"",""0"",""3205""
","
","""event"",""trial"",""time""
""focus"",""0"",""1846""
","""event"",""trial"",""time""
""fullscreenenter"",""0"",""3205""
","
",null,"<div style=""font-size:60px;"">+</div>",NA,null,fixation,2020-06-10T04:04:59Z,NA,NA,NA,NA,NA,sub51
NA,mars-trial,84,161918,0.0-10.0-1.35,"""event"",""trial"",""time""
""focus"",""0"",""1846""
""fullscreenenter"",""0"",""3205""
","
","""event"",""trial"",""time""
""focus"",""0"",""1846""
","""event"",""trial"",""time""
""fullscreenenter"",""0"",""3205""
","
",322.7899999910733,<img style='border: 4px solid darkgrey;' src='img/tf1_36_M_ss2.jpeg'></img>,1,NA,exp,NA,2,<img src='img/tf1_36_T1_ss2_md.jpeg'></img>,0,FALSE,NA,sub51
NA,html-keyboard-response,85,162420,0.0-10.0-0.36,"""event"",""trial"",""time""
""focus"",""0"",""1846""
""fullscreenenter"",""0"",""3205""
","
","""event"",""trial"",""time""
""focus"",""0"",""1846""
","""event"",""trial"",""time""
""fullscreenenter"",""0"",""3205""
","
",null,"<div style=""font-size:60px;"">+</div>",NA,null,fixation,2020-06-10T04:05:00Z,NA,NA,NA,NA,NA,sub51
NA,mars-trial,86,164035,0.0-10.0-1.36,"""event"",""trial"",""time""
""focus"",""0"",""1846""
""fullscreenenter"",""0"",""3205""
","
","""event"",""trial"",""time""
""focus"",""0"",""1846""
","""event"",""trial"",""time""
""fullscreenenter"",""0"",""3205""
","
",1009.6000000048662,<img style='border: 4px solid darkgrey;' src='img/tf1_37_M_ss3.jpeg'></img>,2,NA,exp,NA,2,<img src='img/tf1_37_T1_ss3_md.jpeg'></img>,0,FALSE,NA,sub51
NA,html-keyboard-response,87,164537,0.0-10.0-0.37,"""event"",""trial"",""time""
""focus"",""0"",""1846""
""fullscreenenter"",""0"",""3205""
","
","""event"",""trial"",""time""
""focus"",""0"",""1846""
","""event"",""trial"",""time""
""fullscreenenter"",""0"",""3205""
","
",null,"<div style=""font-size:60px;"">+</div>",NA,null,fixation,2020-06-10T04:05:02Z,NA,NA,NA,NA,NA,sub51
NA,mars-trial,88,165795,0.0-10.0-1.37,"""event"",""trial"",""time""
""focus"",""0"",""1846""
""fullscreenenter"",""0"",""3205""
","
","""event"",""trial"",""time""
""focus"",""0"",""1846""
","""event"",""trial"",""time""
""fullscreenenter"",""0"",""3205""
","
",651.110000006156,<img style='border: 4px solid darkgrey;' src='img/tf1_38_M_ss1.jpeg'></img>,2,NA,exp,NA,2,<img src='img/tf1_38_T1_ss1_md.jpeg'></img>,0,FALSE,NA,sub51
NA,html-keyboard-response,89,166298,0.0-10.0-0.38,"""event"",""trial"",""time""
""focus"",""0"",""1846""
""fullscreenenter"",""0"",""3205""
","
","""event"",""trial"",""time""
""focus"",""0"",""1846""
","""event"",""trial"",""time""
""fullscreenenter"",""0"",""3205""
","
",null,"<div style=""font-size:60px;"">+</div>",NA,null,fixation,2020-06-10T04:05:04Z,NA,NA,NA,NA,NA,sub51
NA,mars-trial,90,167434,0.0-10.0-1.38,"""event"",""trial"",""time""
""focus"",""0"",""1846""
""fullscreenenter"",""0"",""3205""
","
","""event"",""trial"",""time""
""focus"",""0"",""1846""
","""event"",""trial"",""time""
""fullscreenenter"",""0"",""3205""
","
",529.515000001993,<img style='border: 4px solid darkgrey;' src='img/tf1_39_M_ss2.jpeg'></img>,1,NA,exp,NA,0,<img src='img/tf1_39_T1_ss2_md.jpeg'></img>,0,TRUE,NA,sub51
NA,html-keyboard-response,91,167938,0.0-10.0-0.39,"""event"",""trial"",""time""
""focus"",""0"",""1846""
""fullscreenenter"",""0"",""3205""
","
","""event"",""trial"",""time""
""focus"",""0"",""1846""
","""event"",""trial"",""time""
""fullscreenenter"",""0"",""3205""
","
",null,"<div style=""font-size:60px;"">+</div>",NA,null,fixation,2020-06-10T04:05:06Z,NA,NA,NA,NA,NA,sub51
NA,mars-trial,92,169238,0.0-10.0-1.39,"""event"",""trial"",""time""
""focus"",""0"",""1846""
""fullscreenenter"",""0"",""3205""
","
","""event"",""trial"",""time""
""focus"",""0"",""1846""
","""event"",""trial"",""time""
""fullscreenenter"",""0"",""3205""
","
",695.2250000031199,<img style='border: 4px solid darkgrey;' src='img/tf1_40_M_ss3.jpeg'></img>,0,NA,exp,NA,0,<img src='img/tf1_40_T1_ss3_md.jpeg'></img>,0,TRUE,NA,sub51
NA,html-keyboard-response,93,169740,0.0-10.0-0.40,"""event"",""trial"",""time""
""focus"",""0"",""1846""
""fullscreenenter"",""0"",""3205""
","
","""event"",""trial"",""time""
""focus"",""0"",""1846""
","""event"",""trial"",""time""
""fullscreenenter"",""0"",""3205""
","
",null,"<div style=""font-size:60px;"">+</div>",NA,null,fixation,2020-06-10T04:05:07Z,NA,NA,NA,NA,NA,sub51
NA,mars-trial,94,172190,0.0-10.0-1.40,"""event"",""trial"",""time""
""focus"",""0"",""1846""
""fullscreenenter"",""0"",""3205""
","
","""event"",""trial"",""time""
""focus"",""0"",""1846""
","""event"",""trial"",""time""
""fullscreenenter"",""0"",""3205""
","
",1843.5299999982817,<img style='border: 4px solid darkgrey;' src='img/tf1_41_M_ss1.jpeg'></img>,2,NA,exp,NA,3,<img src='img/tf1_41_T1_ss1_md.jpeg'></img>,0,FALSE,NA,sub51
NA,html-keyboard-response,95,172692,0.0-10.0-0.41,"""event"",""trial"",""time""
""focus"",""0"",""1846""
""fullscreenenter"",""0"",""3205""
","
","""event"",""trial"",""time""
""focus"",""0"",""1846""
","""event"",""trial"",""time""
""fullscreenenter"",""0"",""3205""
","
",null,"<div style=""font-size:60px;"">+</div>",NA,null,fixation,2020-06-10T04:05:10Z,NA,NA,NA,NA,NA,sub51
NA,mars-trial,96,173862,0.0-10.0-1.41,"""event"",""trial"",""time""
""focus"",""0"",""1846""
""fullscreenenter"",""0"",""3205""
","
","""event"",""trial"",""time""
""focus"",""0"",""1846""
","""event"",""trial"",""time""
""fullscreenenter"",""0"",""3205""
","
",559.0200000006007,<img style='border: 4px solid darkgrey;' src='img/tf1_42_M_ss2.jpeg'></img>,1,NA,exp,NA,2,<img src='img/tf1_42_T1_ss2_md.jpeg'></img>,0,FALSE,NA,sub51
NA,html-keyboard-response,97,174367,0.0-10.0-0.42,"""event"",""trial"",""time""
""focus"",""0"",""1846""
""fullscreenenter"",""0"",""3205""
","
","""event"",""trial"",""time""
""focus"",""0"",""1846""
","""event"",""trial"",""time""
""fullscreenenter"",""0"",""3205""
","
",null,"<div style=""font-size:60px;"">+</div>",NA,null,fixation,2020-06-10T04:05:12Z,NA,NA,NA,NA,NA,sub51
NA,mars-trial,98,175661,0.0-10.0-1.42,"""event"",""trial"",""time""
""focus"",""0"",""1846""
""fullscreenenter"",""0"",""3205""
","
","""event"",""trial"",""time""
""focus"",""0"",""1846""
","""event"",""trial"",""time""
""fullscreenenter"",""0"",""3205""
","
",683.5299999947893,<img style='border: 4px solid darkgrey;' src='img/tf1_43_M_ss3.jpeg'></img>,2,NA,exp,NA,0,<img src='img/tf1_43_T1_ss3_md.jpeg'></img>,0,TRUE,NA,sub51
NA,html-keyboard-response,99,176163,0.0-10.0-0.43,"""event"",""trial"",""time""
""focus"",""0"",""1846""
""fullscreenenter"",""0"",""3205""
","
","""event"",""trial"",""time""
""focus"",""0"",""1846""
","""event"",""trial"",""time""
""fullscreenenter"",""0"",""3205""
","
",null,"<div style=""font-size:60px;"">+</div>",NA,null,fixation,2020-06-10T04:05:14Z,NA,NA,NA,NA,NA,sub51
NA,mars-trial,100,177343,0.0-10.0-1.43,"""event"",""trial"",""time""
""focus"",""0"",""1846""
""fullscreenenter"",""0"",""3205""
","
","""event"",""trial"",""time""
""focus"",""0"",""1846""
","""event"",""trial"",""time""
""fullscreenenter"",""0"",""3205""
","
",573.6949999991339,<img style='border: 4px solid darkgrey;' src='img/tf1_44_M_ss1.jpeg'></img>,1,NA,exp,NA,2,<img src='img/tf1_44_T1_ss1_md.jpeg'></img>,0,FALSE,NA,sub51
NA,html-keyboard-response,101,177846,0.0-10.0-0.44,"""event"",""trial"",""time""
""focus"",""0"",""1846""
""fullscreenenter"",""0"",""3205""
","
","""event"",""trial"",""time""
""focus"",""0"",""1846""
","""event"",""trial"",""time""
""fullscreenenter"",""0"",""3205""
","
",null,"<div style=""font-size:60px;"">+</div>",NA,null,fixation,2020-06-10T04:05:16Z,NA,NA,NA,NA,NA,sub51
NA,mars-trial,102,182025,0.0-10.0-1.44,"""event"",""trial"",""time""
""focus"",""0"",""1846""
""fullscreenenter"",""0"",""3205""
","
","""event"",""trial"",""time""
""focus"",""0"",""1846""
","""event"",""trial"",""time""
""fullscreenenter"",""0"",""3205""
","
",3567.300000009709,<img style='border: 4px solid darkgrey;' src='img/tf1_45_M_ss2.jpeg'></img>,3,NA,exp,NA,1,<img src='img/tf1_45_T1_ss2_md.jpeg'></img>,0,FALSE,NA,sub51
NA,html-keyboard-response,103,182529,0.0-10.0-0.45,"""event"",""trial"",""time""
""focus"",""0"",""1846""
""fullscreenenter"",""0"",""3205""
","
","""event"",""trial"",""time""
""focus"",""0"",""1846""
","""event"",""trial"",""time""
""fullscreenenter"",""0"",""3205""
","
",null,"<div style=""font-size:60px;"">+</div>",NA,null,fixation,2020-06-10T04:05:20Z,NA,NA,NA,NA,NA,sub51
NA,mars-trial,104,183610,0.0-10.0-1.45,"""event"",""trial"",""time""
""focus"",""0"",""1846""
""fullscreenenter"",""0"",""3205""
","
","""event"",""trial"",""time""
""focus"",""0"",""1846""
","""event"",""trial"",""time""
""fullscreenenter"",""0"",""3205""
","
",471.2450000079116,<img style='border: 4px solid darkgrey;' src='img/tf1_46_M_ss3.jpeg'></img>,1,NA,exp,NA,3,<img src='img/tf1_46_T1_ss3_md.jpeg'></img>,0,FALSE,NA,sub51
NA,html-keyboard-response,105,184112,0.0-10.0-0.46,"""event"",""trial"",""time""
""focus"",""0"",""1846""
""fullscreenenter"",""0"",""3205""
","
","""event"",""trial"",""time""
""focus"",""0"",""1846""
","""event"",""trial"",""time""
""fullscreenenter"",""0"",""3205""
","
",null,"<div style=""font-size:60px;"">+</div>",NA,null,fixation,2020-06-10T04:05:22Z,NA,NA,NA,NA,NA,sub51
NA,mars-trial,106,184886,0.0-10.0-1.46,"""event"",""trial"",""time""
""focus"",""0"",""1846""
""fullscreenenter"",""0"",""3205""
","
","""event"",""trial"",""time""
""focus"",""0"",""1846""
","""event"",""trial"",""time""
""fullscreenenter"",""0"",""3205""
","
",168.0800000031013,<img style='border: 4px solid darkgrey;' src='img/tf1_47_M_ss1.jpeg'></img>,2,NA,exp,NA,2,<img src='img/tf1_47_T1_ss1_md.jpeg'></img>,0,FALSE,NA,sub51
NA,html-keyboard-response,107,185389,0.0-10.0-0.47,"""event"",""trial"",""time""
""focus"",""0"",""1846""
""fullscreenenter"",""0"",""3205""
","
","""event"",""trial"",""time""
""focus"",""0"",""1846""
","""event"",""trial"",""time""
""fullscreenenter"",""0"",""3205""
","
",null,"<div style=""font-size:60px;"">+</div>",NA,null,fixation,2020-06-10T04:05:23Z,NA,NA,NA,NA,NA,sub51
NA,mars-trial,108,186311,0.0-10.0-1.47,"""event"",""trial"",""time""
""focus"",""0"",""1846""
""fullscreenenter"",""0"",""3205""
","
","""event"",""trial"",""time""
""focus"",""0"",""1846""
","""event"",""trial"",""time""
""fullscreenenter"",""0"",""3205""
","
",316.6449999989709,<img style='border: 4px solid darkgrey;' src='img/tf1_48_M_ss2.jpeg'></img>,0,NA,exp,NA,3,<img src='img/tf1_48_T1_ss2_md.jpeg'></img>,0,FALSE,NA,sub51
NA,html-keyboard-response,109,186814,0.0-10.0-0.48,"""event"",""trial"",""time""
""focus"",""0"",""1846""
""fullscreenenter"",""0"",""3205""
","
","""event"",""trial"",""time""
""focus"",""0"",""1846""
","""event"",""trial"",""time""
""fullscreenenter"",""0"",""3205""
","
",null,"<div style=""font-size:60px;"">+</div>",NA,null,fixation,2020-06-10T04:05:24Z,NA,NA,NA,NA,NA,sub51
NA,mars-trial,110,188392,0.0-10.0-1.48,"""event"",""trial"",""time""
""focus"",""0"",""1846""
""fullscreenenter"",""0"",""3205""
","
","""event"",""trial"",""time""
""focus"",""0"",""1846""
","""event"",""trial"",""time""
""fullscreenenter"",""0"",""3205""
","
",973.2000000076368,<img style='border: 4px solid darkgrey;' src='img/tf1_49_M_ss3.jpeg'></img>,3,NA,exp,NA,1,<img src='img/tf1_49_T1_ss3_md.jpeg'></img>,0,FALSE,NA,sub51
NA,html-keyboard-response,111,188895,0.0-10.0-0.49,"""event"",""trial"",""time""
""focus"",""0"",""1846""
""fullscreenenter"",""0"",""3205""
","
","""event"",""trial"",""time""
""focus"",""0"",""1846""
","""event"",""trial"",""time""
""fullscreenenter"",""0"",""3205""
","
",null,"<div style=""font-size:60px;"">+</div>",NA,null,fixation,2020-06-10T04:05:27Z,NA,NA,NA,NA,NA,sub51
NA,mars-trial,112,190588,0.0-10.0-1.49,"""event"",""trial"",""time""
""focus"",""0"",""1846""
""fullscreenenter"",""0"",""3205""
","
","""event"",""trial"",""time""
""focus"",""0"",""1846""
","""event"",""trial"",""time""
""fullscreenenter"",""0"",""3205""
","
",1084.774999995716,<img style='border: 4px solid darkgrey;' src='img/tf1_50_M_ss1.jpeg'></img>,1,NA,exp,NA,3,<img src='img/tf1_50_T1_ss1_md.jpeg'></img>,0,FALSE,NA,sub51
NA,html-keyboard-response,113,191092,0.0-10.0-0.50,"""event"",""trial"",""time""
""focus"",""0"",""1846""
""fullscreenenter"",""0"",""3205""
","
","""event"",""trial"",""time""
""focus"",""0"",""1846""
","""event"",""trial"",""time""
""fullscreenenter"",""0"",""3205""
","
",null,"<div style=""font-size:60px;"">+</div>",NA,null,fixation,2020-06-10T04:05:29Z,NA,NA,NA,NA,NA,sub51
NA,mars-trial,114,192195,0.0-10.0-1.50,"""event"",""trial"",""time""
""focus"",""0"",""1846""
""fullscreenenter"",""0"",""3205""
","
","""event"",""trial"",""time""
""focus"",""0"",""1846""
","""event"",""trial"",""time""
""fullscreenenter"",""0"",""3205""
","
",497.21499999577645,<img style='border: 4px solid darkgrey;' src='img/tf1_51_M_ss2.jpeg'></img>,1,NA,exp,NA,1,<img src='img/tf1_51_T1_ss2_md.jpeg'></img>,0,FALSE,NA,sub51
NA,html-keyboard-response,115,192700,0.0-10.0-0.51,"""event"",""trial"",""time""
""focus"",""0"",""1846""
""fullscreenenter"",""0"",""3205""
","
","""event"",""trial"",""time""
""focus"",""0"",""1846""
","""event"",""trial"",""time""
""fullscreenenter"",""0"",""3205""
","
",null,"<div style=""font-size:60px;"">+</div>",NA,null,fixation,2020-06-10T04:05:30Z,NA,NA,NA,NA,NA,sub51
NA,mars-trial,116,193911,0.0-10.0-1.51,"""event"",""trial"",""time""
""focus"",""0"",""1846""
""fullscreenenter"",""0"",""3205""
","
","""event"",""trial"",""time""
""focus"",""0"",""1846""
","""event"",""trial"",""time""
""fullscreenenter"",""0"",""3205""
","
",604.364999991958,<img style='border: 4px solid darkgrey;' src='img/tf1_52_M_ss3.jpeg'></img>,2,NA,exp,NA,1,<img src='img/tf1_52_T1_ss3_md.jpeg'></img>,0,FALSE,NA,sub51
NA,html-keyboard-response,117,194418,0.0-10.0-0.52,"""event"",""trial"",""time""
""focus"",""0"",""1846""
""fullscreenenter"",""0"",""3205""
","
","""event"",""trial"",""time""
""focus"",""0"",""1846""
","""event"",""trial"",""time""
""fullscreenenter"",""0"",""3205""
","
",null,"<div style=""font-size:60px;"">+</div>",NA,null,fixation,2020-06-10T04:05:32Z,NA,NA,NA,NA,NA,sub51
NA,mars-trial,118,195734,0.0-10.0-1.52,"""event"",""trial"",""time""
""focus"",""0"",""1846""
""fullscreenenter"",""0"",""3205""
","
","""event"",""trial"",""time""
""focus"",""0"",""1846""
","""event"",""trial"",""time""
""fullscreenenter"",""0"",""3205""
","
",711.2900000065565,<img style='border: 4px solid darkgrey;' src='img/tf1_53_M_ss1.jpeg'></img>,1,NA,exp,NA,0,<img src='img/tf1_53_T1_ss1_md.jpeg'></img>,0,TRUE,NA,sub51
NA,html-keyboard-response,119,196236,0.0-10.0-0.53,"""event"",""trial"",""time""
""focus"",""0"",""1846""
""fullscreenenter"",""0"",""3205""
","
","""event"",""trial"",""time""
""focus"",""0"",""1846""
","""event"",""trial"",""time""
""fullscreenenter"",""0"",""3205""
","
",null,"<div style=""font-size:60px;"">+</div>",NA,null,fixation,2020-06-10T04:05:34Z,NA,NA,NA,NA,NA,sub51
NA,mars-trial,120,197427,0.0-10.0-1.53,"""event"",""trial"",""time""
""focus"",""0"",""1846""
""fullscreenenter"",""0"",""3205""
","
","""event"",""trial"",""time""
""focus"",""0"",""1846""
","""event"",""trial"",""time""
""fullscreenenter"",""0"",""3205""
","
",583.8649999932386,<img style='border: 4px solid darkgrey;' src='img/tf1_54_M_ss2.jpeg'></img>,2,NA,exp,NA,1,<img src='img/tf1_54_T1_ss2_md.jpeg'></img>,0,FALSE,NA,sub51
NA,html-keyboard-response,121,197931,0.0-10.0-0.54,"""event"",""trial"",""time""
""focus"",""0"",""1846""
""fullscreenenter"",""0"",""3205""
","
","""event"",""trial"",""time""
""focus"",""0"",""1846""
","""event"",""trial"",""time""
""fullscreenenter"",""0"",""3205""
","
",null,"<div style=""font-size:60px;"">+</div>",NA,null,fixation,2020-06-10T04:05:36Z,NA,NA,NA,NA,NA,sub51
NA,mars-trial,122,199033,0.0-10.0-1.54,"""event"",""trial"",""time""
""focus"",""0"",""1846""
""fullscreenenter"",""0"",""3205""
","
","""event"",""trial"",""time""
""focus"",""0"",""1846""
","""event"",""trial"",""time""
""fullscreenenter"",""0"",""3205""
","
",493.4650000068359,<img style='border: 4px solid darkgrey;' src='img/tf1_55_M_ss3.jpeg'></img>,0,NA,exp,NA,0,<img src='img/tf1_55_T1_ss3_md.jpeg'></img>,0,TRUE,NA,sub51
NA,html-keyboard-response,123,199535,0.0-10.0-0.55,"""event"",""trial"",""time""
""focus"",""0"",""1846""
""fullscreenenter"",""0"",""3205""
","
","""event"",""trial"",""time""
""focus"",""0"",""1846""
","""event"",""trial"",""time""
""fullscreenenter"",""0"",""3205""
","
",null,"<div style=""font-size:60px;"">+</div>",NA,null,fixation,2020-06-10T04:05:37Z,NA,NA,NA,NA,NA,sub51
NA,mars-trial,124,201206,0.0-10.0-1.55,"""event"",""trial"",""time""
""focus"",""0"",""1846""
""fullscreenenter"",""0"",""3205""
","
","""event"",""trial"",""time""
""focus"",""0"",""1846""
","""event"",""trial"",""time""
""fullscreenenter"",""0"",""3205""
","
",1064.024999999674,<img style='border: 4px solid darkgrey;' src='img/tf1_56_M_ss1.jpeg'></img>,2,NA,exp,NA,3,<img src='img/tf1_56_T1_ss1_md.jpeg'></img>,0,FALSE,NA,sub51
NA,html-keyboard-response,125,201709,0.0-10.0-0.56,"""event"",""trial"",""time""
""focus"",""0"",""1846""
""fullscreenenter"",""0"",""3205""
","
","""event"",""trial"",""time""
""focus"",""0"",""1846""
","""event"",""trial"",""time""
""fullscreenenter"",""0"",""3205""
","
",null,"<div style=""font-size:60px;"">+</div>",NA,null,fixation,2020-06-10T04:05:39Z,NA,NA,NA,NA,NA,sub51
NA,mars-trial,126,203037,0.0-10.0-1.56,"""event"",""trial"",""time""
""focus"",""0"",""1846""
""fullscreenenter"",""0"",""3205""
","
","""event"",""trial"",""time""
""focus"",""0"",""1846""
","""event"",""trial"",""time""
""fullscreenenter"",""0"",""3205""
","
",722.8049999976065,<img style='border: 4px solid darkgrey;' src='img/tf1_57_M_ss2.jpeg'></img>,1,NA,exp,NA,2,<img src='img/tf1_57_T1_ss2_md.jpeg'></img>,0,FALSE,NA,sub51
NA,html-keyboard-response,127,203541,0.0-10.0-0.57,"""event"",""trial"",""time""
""focus"",""0"",""1846""
""fullscreenenter"",""0"",""3205""
","
","""event"",""trial"",""time""
""focus"",""0"",""1846""
","""event"",""trial"",""time""
""fullscreenenter"",""0"",""3205""
","
",null,"<div style=""font-size:60px;"">+</div>",NA,null,fixation,2020-06-10T04:05:41Z,NA,NA,NA,NA,NA,sub51
NA,mars-trial,128,204784,0.0-10.0-1.57,"""event"",""trial"",""time""
""focus"",""0"",""1846""
""fullscreenenter"",""0"",""3205""
","
","""event"",""trial"",""time""
""focus"",""0"",""1846""
","""event"",""trial"",""time""
""fullscreenenter"",""0"",""3205""
","
",637.8750000003492,<img style='border: 4px solid darkgrey;' src='img/tf1_58_M_ss3.jpeg'></img>,3,NA,exp,NA,2,<img src='img/tf1_58_T1_ss3_md.jpeg'></img>,0,FALSE,NA,sub51
NA,html-keyboard-response,129,205287,0.0-10.0-0.58,"""event"",""trial"",""time""
""focus"",""0"",""1846""
""fullscreenenter"",""0"",""3205""
","
","""event"",""trial"",""time""
""focus"",""0"",""1846""
","""event"",""trial"",""time""
""fullscreenenter"",""0"",""3205""
","
",null,"<div style=""font-size:60px;"">+</div>",NA,null,fixation,2020-06-10T04:05:43Z,NA,NA,NA,NA,NA,sub51
NA,mars-trial,130,214606,0.0-10.0-1.58,"""event"",""trial"",""time""
""focus"",""0"",""1846""
""fullscreenenter"",""0"",""3205""
","
","""event"",""trial"",""time""
""focus"",""0"",""1846""
","""event"",""trial"",""time""
""fullscreenenter"",""0"",""3205""
","
",8705.17000000109,<img style='border: 4px solid darkgrey;' src='img/tf1_59_M_ss1.jpeg'></img>,2,NA,exp,NA,1,<img src='img/tf1_59_T1_ss1_md.jpeg'></img>,0,FALSE,NA,sub51
NA,html-keyboard-response,131,215108,0.0-10.0-0.59,"""event"",""trial"",""time""
""focus"",""0"",""1846""
""fullscreenenter"",""0"",""3205""
","
","""event"",""trial"",""time""
""focus"",""0"",""1846""
","""event"",""trial"",""time""
""fullscreenenter"",""0"",""3205""
","
",null,"<div style=""font-size:60px;"">+</div>",NA,null,fixation,2020-06-10T04:05:53Z,NA,NA,NA,NA,NA,sub51
NA,mars-trial,132,215961,0.0-10.0-1.59,"""event"",""trial"",""time""
""focus"",""0"",""1846""
""fullscreenenter"",""0"",""3205""
","
","""event"",""trial"",""time""
""focus"",""0"",""1846""
","""event"",""trial"",""time""
""fullscreenenter"",""0"",""3205""
","
",245.77500000305008,<img style='border: 4px solid darkgrey;' src='img/tf1_60_M_ss2.jpeg'></img>,1,NA,exp,NA,3,<img src='img/tf1_60_T1_ss2_md.jpeg'></img>,0,FALSE,NA,sub51
NA,html-keyboard-response,133,216463,0.0-10.0-0.60,"""event"",""trial"",""time""
""focus"",""0"",""1846""
""fullscreenenter"",""0"",""3205""
","
","""event"",""trial"",""time""
""focus"",""0"",""1846""
","""event"",""trial"",""time""
""fullscreenenter"",""0"",""3205""
","
",null,"<div style=""font-size:60px;"">+</div>",NA,null,fixation,2020-06-10T04:05:54Z,NA,NA,NA,NA,NA,sub51
NA,mars-trial,134,217504,0.0-10.0-1.60,"""event"",""trial"",""time""
""focus"",""0"",""1846""
""fullscreenenter"",""0"",""3205""
","
","""event"",""trial"",""time""
""focus"",""0"",""1846""
","""event"",""trial"",""time""
""fullscreenenter"",""0"",""3205""
","
",432.6900000014575,<img style='border: 4px solid darkgrey;' src='img/tf1_61_M_ss3.jpeg'></img>,3,NA,exp,NA,3,<img src='img/tf1_61_T1_ss3_md.jpeg'></img>,0,FALSE,NA,sub51
NA,html-keyboard-response,135,218007,0.0-10.0-0.61,"""event"",""trial"",""time""
""focus"",""0"",""1846""
""fullscreenenter"",""0"",""3205""
","
","""event"",""trial"",""time""
""focus"",""0"",""1846""
","""event"",""trial"",""time""
""fullscreenenter"",""0"",""3205""
","
",null,"<div style=""font-size:60px;"">+</div>",NA,null,fixation,2020-06-10T04:05:56Z,NA,NA,NA,NA,NA,sub51
NA,mars-trial,136,218760,0.0-10.0-1.61,"""event"",""trial"",""time""
""focus"",""0"",""1846""
""fullscreenenter"",""0"",""3205""
","
","""event"",""trial"",""time""
""focus"",""0"",""1846""
","""event"",""trial"",""time""
""fullscreenenter"",""0"",""3205""
","
",143.20500000030734,<img style='border: 4px solid darkgrey;' src='img/tf1_62_M_ss1.jpeg'></img>,0,NA,exp,NA,2,<img src='img/tf1_62_T1_ss1_md.jpeg'></img>,0,FALSE,NA,sub51
NA,html-keyboard-response,137,219263,0.0-10.0-0.62,"""event"",""trial"",""time""
""focus"",""0"",""1846""
""fullscreenenter"",""0"",""3205""
","
","""event"",""trial"",""time""
""focus"",""0"",""1846""
","""event"",""trial"",""time""
""fullscreenenter"",""0"",""3205""
","
",null,"<div style=""font-size:60px;"">+</div>",NA,null,fixation,2020-06-10T04:05:57Z,NA,NA,NA,NA,NA,sub51
NA,mars-trial,138,220006,0.0-10.0-1.62,"""event"",""trial"",""time""
""focus"",""0"",""1846""
""fullscreenenter"",""0"",""3205""
","
","""event"",""trial"",""time""
""focus"",""0"",""1846""
","""event"",""trial"",""time""
""fullscreenenter"",""0"",""3205""
","
",133.43499999609776,<img style='border: 4px solid darkgrey;' src='img/tf1_63_M_ss2.jpeg'></img>,1,NA,exp,NA,0,<img src='img/tf1_63_T1_ss2_md.jpeg'></img>,0,TRUE,NA,sub51
NA,html-keyboard-response,139,220508,0.0-10.0-0.63,"""event"",""trial"",""time""
""focus"",""0"",""1846""
""fullscreenenter"",""0"",""3205""
","
","""event"",""trial"",""time""
""focus"",""0"",""1846""
","""event"",""trial"",""time""
""fullscreenenter"",""0"",""3205""
","
",null,"<div style=""font-size:60px;"">+</div>",NA,null,fixation,2020-06-10T04:05:58Z,NA,NA,NA,NA,NA,sub51
NA,mars-trial,140,221361,0.0-10.0-1.63,"""event"",""trial"",""time""
""focus"",""0"",""1846""
""fullscreenenter"",""0"",""3205""
","
","""event"",""trial"",""time""
""focus"",""0"",""1846""
","""event"",""trial"",""time""
""fullscreenenter"",""0"",""3205""
","
",245.56000001030043,<img style='border: 4px solid darkgrey;' src='img/tf1_64_M_ss3.jpeg'></img>,2,NA,exp,NA,3,<img src='img/tf1_64_T1_ss3_md.jpeg'></img>,0,FALSE,NA,sub51
NA,html-keyboard-response,141,221862,0.0-10.0-0.64,"""event"",""trial"",""time""
""focus"",""0"",""1846""
""fullscreenenter"",""0"",""3205""
","
","""event"",""trial"",""time""
""focus"",""0"",""1846""
","""event"",""trial"",""time""
""fullscreenenter"",""0"",""3205""
","
",null,"<div style=""font-size:60px;"">+</div>",NA,null,fixation,2020-06-10T04:06:00Z,NA,NA,NA,NA,NA,sub51
NA,mars-trial,142,223187,0.0-10.0-1.64,"""event"",""trial"",""time""
""focus"",""0"",""1846""
""fullscreenenter"",""0"",""3205""
","
","""event"",""trial"",""time""
""focus"",""0"",""1846""
","""event"",""trial"",""time""
""fullscreenenter"",""0"",""3205""
","
",718.6599999986356,<img style='border: 4px solid darkgrey;' src='img/tf1_65_M_ss1.jpeg'></img>,0,NA,exp,NA,0,<img src='img/tf1_65_T1_ss1_md.jpeg'></img>,0,TRUE,NA,sub51
NA,html-keyboard-response,143,223690,0.0-10.0-0.65,"""event"",""trial"",""time""
""focus"",""0"",""1846""
""fullscreenenter"",""0"",""3205""
","
","""event"",""trial"",""time""
""focus"",""0"",""1846""
","""event"",""trial"",""time""
""fullscreenenter"",""0"",""3205""
","
",null,"<div style=""font-size:60px;"">+</div>",NA,null,fixation,2020-06-10T04:06:01Z,NA,NA,NA,NA,NA,sub51
NA,mars-trial,144,225000,0.0-10.0-1.65,"""event"",""trial"",""time""
""focus"",""0"",""1846""
""fullscreenenter"",""0"",""3205""
","
","""event"",""trial"",""time""
""focus"",""0"",""1846""
","""event"",""trial"",""time""
""fullscreenenter"",""0"",""3205""
","
",706.239999999525,<img style='border: 4px solid darkgrey;' src='img/tf1_66_M_ss2.jpeg'></img>,3,NA,exp,NA,2,<img src='img/tf1_66_T1_ss2_md.jpeg'></img>,0,FALSE,NA,sub51
NA,html-keyboard-response,145,225501,0.0-10.0-0.66,"""event"",""trial"",""time""
""focus"",""0"",""1846""
""fullscreenenter"",""0"",""3205""
","
","""event"",""trial"",""time""
""focus"",""0"",""1846""
","""event"",""trial"",""time""
""fullscreenenter"",""0"",""3205""
","
",null,"<div style=""font-size:60px;"">+</div>",NA,null,fixation,2020-06-10T04:06:03Z,NA,NA,NA,NA,NA,sub51
NA,mars-trial,146,226239,0.0-10.0-1.66,"""event"",""trial"",""time""
""focus"",""0"",""1846""
""fullscreenenter"",""0"",""3205""
","
","""event"",""trial"",""time""
""focus"",""0"",""1846""
","""event"",""trial"",""time""
""fullscreenenter"",""0"",""3205""
","
",128.68999999773223,<img style='border: 4px solid darkgrey;' src='img/tf1_67_M_ss3.jpeg'></img>,0,NA,exp,NA,1,<img src='img/tf1_67_T1_ss3_md.jpeg'></img>,0,FALSE,NA,sub51
NA,html-keyboard-response,147,226741,0.0-10.0-0.67,"""event"",""trial"",""time""
""focus"",""0"",""1846""
""fullscreenenter"",""0"",""3205""
","
","""event"",""trial"",""time""
""focus"",""0"",""1846""
","""event"",""trial"",""time""
""fullscreenenter"",""0"",""3205""
","
",null,"<div style=""font-size:60px;"">+</div>",NA,null,fixation,2020-06-10T04:06:04Z,NA,NA,NA,NA,NA,sub51
NA,mars-trial,148,227759,0.0-10.0-1.67,"""event"",""trial"",""time""
""focus"",""0"",""1846""
""fullscreenenter"",""0"",""3205""
","
","""event"",""trial"",""time""
""focus"",""0"",""1846""
","""event"",""trial"",""time""
""fullscreenenter"",""0"",""3205""
","
",411.73999999591615,<img style='border: 4px solid darkgrey;' src='img/tf1_68_M_ss1.jpeg'></img>,1,NA,exp,NA,3,<img src='img/tf1_68_T1_ss1_md.jpeg'></img>,0,FALSE,NA,sub51
NA,html-keyboard-response,149,228262,0.0-10.0-0.68,"""event"",""trial"",""time""
""focus"",""0"",""1846""
""fullscreenenter"",""0"",""3205""
","
","""event"",""trial"",""time""
""focus"",""0"",""1846""
","""event"",""trial"",""time""
""fullscreenenter"",""0"",""3205""
","
",null,"<div style=""font-size:60px;"">+</div>",NA,null,fixation,2020-06-10T04:06:06Z,NA,NA,NA,NA,NA,sub51
NA,mars-trial,150,230219,0.0-10.0-1.68,"""event"",""trial"",""time""
""focus"",""0"",""1846""
""fullscreenenter"",""0"",""3205""
","
","""event"",""trial"",""time""
""focus"",""0"",""1846""
","""event"",""trial"",""time""
""fullscreenenter"",""0"",""3205""
","
",1350.0700000004144,<img style='border: 4px solid darkgrey;' src='img/tf1_69_M_ss2.jpeg'></img>,2,NA,exp,NA,3,<img src='img/tf1_69_T1_ss2_md.jpeg'></img>,0,FALSE,NA,sub51
NA,html-keyboard-response,151,230723,0.0-10.0-0.69,"""event"",""trial"",""time""
""focus"",""0"",""1846""
""fullscreenenter"",""0"",""3205""
","
","""event"",""trial"",""time""
""focus"",""0"",""1846""
","""event"",""trial"",""time""
""fullscreenenter"",""0"",""3205""
","
",null,"<div style=""font-size:60px;"">+</div>",NA,null,fixation,2020-06-10T04:06:08Z,NA,NA,NA,NA,NA,sub51
NA,mars-trial,152,232083,0.0-10.0-1.69,"""event"",""trial"",""time""
""focus"",""0"",""1846""
""fullscreenenter"",""0"",""3205""
","
","""event"",""trial"",""time""
""focus"",""0"",""1846""
","""event"",""trial"",""time""
""fullscreenenter"",""0"",""3205""
","
",753.629999991972,<img style='border: 4px solid darkgrey;' src='img/tf1_70_M_ss3.jpeg'></img>,3,NA,exp,NA,1,<img src='img/tf1_70_T1_ss3_md.jpeg'></img>,0,FALSE,NA,sub51
NA,html-keyboard-response,153,232585,0.0-10.0-0.70,"""event"",""trial"",""time""
""focus"",""0"",""1846""
""fullscreenenter"",""0"",""3205""
","
","""event"",""trial"",""time""
""focus"",""0"",""1846""
","""event"",""trial"",""time""
""fullscreenenter"",""0"",""3205""
","
",null,"<div style=""font-size:60px;"">+</div>",NA,null,fixation,2020-06-10T04:06:10Z,NA,NA,NA,NA,NA,sub51
NA,mars-trial,154,233795,0.0-10.0-1.70,"""event"",""trial"",""time""
""focus"",""0"",""1846""
""fullscreenenter"",""0"",""3205""
","
","""event"",""trial"",""time""
""focus"",""0"",""1846""
","""event"",""trial"",""time""
""fullscreenenter"",""0"",""3205""
","
",603.3750000060536,<img style='border: 4px solid darkgrey;' src='img/tf1_71_M_ss1.jpeg'></img>,1,NA,exp,NA,2,<img src='img/tf1_71_T1_ss1_md.jpeg'></img>,0,FALSE,NA,sub51
NA,html-keyboard-response,155,234299,0.0-10.0-0.71,"""event"",""trial"",""time""
""focus"",""0"",""1846""
""fullscreenenter"",""0"",""3205""
","
","""event"",""trial"",""time""
""focus"",""0"",""1846""
","""event"",""trial"",""time""
""fullscreenenter"",""0"",""3205""
","
",null,"<div style=""font-size:60px;"">+</div>",NA,null,fixation,2020-06-10T04:06:12Z,NA,NA,NA,NA,NA,sub51
NA,mars-trial,156,235761,0.0-10.0-1.71,"""event"",""trial"",""time""
""focus"",""0"",""1846""
""fullscreenenter"",""0"",""3205""
","
","""event"",""trial"",""time""
""focus"",""0"",""1846""
","""event"",""trial"",""time""
""fullscreenenter"",""0"",""3205""
","
",852.4849999957951,<img style='border: 4px solid darkgrey;' src='img/tf1_72_M_ss2.jpeg'></img>,1,NA,exp,NA,1,<img src='img/tf1_72_T1_ss2_md.jpeg'></img>,0,FALSE,NA,sub51
NA,html-keyboard-response,157,236262,0.0-10.0-0.72,"""event"",""trial"",""time""
""focus"",""0"",""1846""
""fullscreenenter"",""0"",""3205""
","
","""event"",""trial"",""time""
""focus"",""0"",""1846""
","""event"",""trial"",""time""
""fullscreenenter"",""0"",""3205""
","
",null,"<div style=""font-size:60px;"">+</div>",NA,null,fixation,2020-06-10T04:06:14Z,NA,NA,NA,NA,NA,sub51
NA,mars-trial,158,237362,0.0-10.0-1.72,"""event"",""trial"",""time""
""focus"",""0"",""1846""
""fullscreenenter"",""0"",""3205""
","
","""event"",""trial"",""time""
""focus"",""0"",""1846""
","""event"",""trial"",""time""
""fullscreenenter"",""0"",""3205""
","
",494.82500000158325,<img style='border: 4px solid darkgrey;' src='img/tf1_73_M_ss3.jpeg'></img>,2,NA,exp,NA,1,<img src='img/tf1_73_T1_ss3_md.jpeg'></img>,0,FALSE,NA,sub51
NA,html-keyboard-response,159,237868,0.0-10.0-0.73,"""event"",""trial"",""time""
""focus"",""0"",""1846""
""fullscreenenter"",""0"",""3205""
","
","""event"",""trial"",""time""
""focus"",""0"",""1846""
","""event"",""trial"",""time""
""fullscreenenter"",""0"",""3205""
","
",null,"<div style=""font-size:60px;"">+</div>",NA,null,fixation,2020-06-10T04:06:16Z,NA,NA,NA,NA,NA,sub51
NA,mars-trial,160,239151,0.0-10.0-1.73,"""event"",""trial"",""time""
""focus"",""0"",""1846""
""fullscreenenter"",""0"",""3205""
","
","""event"",""trial"",""time""
""focus"",""0"",""1846""
","""event"",""trial"",""time""
""fullscreenenter"",""0"",""3205""
","
",677.9149999929359,<img style='border: 4px solid darkgrey;' src='img/tf1_74_M_ss1.jpeg'></img>,2,NA,exp,NA,3,<img src='img/tf1_74_T1_ss1_md.jpeg'></img>,0,FALSE,NA,sub51
NA,html-keyboard-response,161,239652,0.0-10.0-0.74,"""event"",""trial"",""time""
""focus"",""0"",""1846""
""fullscreenenter"",""0"",""3205""
","
","""event"",""trial"",""time""
""focus"",""0"",""1846""
","""event"",""trial"",""time""
""fullscreenenter"",""0"",""3205""
","
",null,"<div style=""font-size:60px;"">+</div>",NA,null,fixation,2020-06-10T04:06:17Z,NA,NA,NA,NA,NA,sub51
NA,mars-trial,162,240578,0.0-10.0-1.74,"""event"",""trial"",""time""
""focus"",""0"",""1846""
""fullscreenenter"",""0"",""3205""
","
","""event"",""trial"",""time""
""focus"",""0"",""1846""
","""event"",""trial"",""time""
""fullscreenenter"",""0"",""3205""
","
",319.3700000119861,<img style='border: 4px solid darkgrey;' src='img/tf1_75_M_ss2.jpeg'></img>,1,NA,exp,NA,1,<img src='img/tf1_75_T1_ss2_md.jpeg'></img>,0,FALSE,NA,sub51
NA,html-keyboard-response,163,241081,0.0-10.0-0.75,"""event"",""trial"",""time""
""focus"",""0"",""1846""
""fullscreenenter"",""0"",""3205""
","
","""event"",""trial"",""time""
""focus"",""0"",""1846""
","""event"",""trial"",""time""
""fullscreenenter"",""0"",""3205""
","
",null,"<div style=""font-size:60px;"">+</div>",NA,null,fixation,2020-06-10T04:06:19Z,NA,NA,NA,NA,NA,sub51
NA,mars-trial,164,242144,0.0-10.0-1.75,"""event"",""trial"",""time""
""focus"",""0"",""1846""
""fullscreenenter"",""0"",""3205""
","
","""event"",""trial"",""time""
""focus"",""0"",""1846""
","""event"",""trial"",""time""
""fullscreenenter"",""0"",""3205""
","
",458.33500000298955,<img style='border: 4px solid darkgrey;' src='img/tf1_76_M_ss3.jpeg'></img>,0,NA,exp,NA,0,<img src='img/tf1_76_T1_ss3_md.jpeg'></img>,0,TRUE,NA,sub51
NA,html-keyboard-response,165,242646,0.0-10.0-0.76,"""event"",""trial"",""time""
""focus"",""0"",""1846""
""fullscreenenter"",""0"",""3205""
","
","""event"",""trial"",""time""
""focus"",""0"",""1846""
","""event"",""trial"",""time""
""fullscreenenter"",""0"",""3205""
","
",null,"<div style=""font-size:60px;"">+</div>",NA,null,fixation,2020-06-10T04:06:20Z,NA,NA,NA,NA,NA,sub51
NA,mars-trial,166,243597,0.0-10.0-1.76,"""event"",""trial"",""time""
""focus"",""0"",""1846""
""fullscreenenter"",""0"",""3205""
","
","""event"",""trial"",""time""
""focus"",""0"",""1846""
","""event"",""trial"",""time""
""fullscreenenter"",""0"",""3205""
","
",341.6750000033062,<img style='border: 4px solid darkgrey;' src='img/tf1_77_M_ss1.jpeg'></img>,1,NA,exp,NA,3,<img src='img/tf1_77_T1_ss1_md.jpeg'></img>,0,FALSE,NA,sub51
NA,html-keyboard-response,167,244098,0.0-10.0-0.77,"""event"",""trial"",""time""
""focus"",""0"",""1846""
""fullscreenenter"",""0"",""3205""
","
","""event"",""trial"",""time""
""focus"",""0"",""1846""
","""event"",""trial"",""time""
""fullscreenenter"",""0"",""3205""
","
",null,"<div style=""font-size:60px;"">+</div>",NA,null,fixation,2020-06-10T04:06:22Z,NA,NA,NA,NA,NA,sub51
NA,mars-trial,168,245125,0.0-10.0-1.77,"""event"",""trial"",""time""
""focus"",""0"",""1846""
""fullscreenenter"",""0"",""3205""
","
","""event"",""trial"",""time""
""focus"",""0"",""1846""
","""event"",""trial"",""time""
""fullscreenenter"",""0"",""3205""
","
",417.394999996759,<img style='border: 4px solid darkgrey;' src='img/tf1_78_M_ss2.jpeg'></img>,3,NA,exp,NA,0,<img src='img/tf1_78_T1_ss2_md.jpeg'></img>,0,TRUE,NA,sub51
NA,html-keyboard-response,169,245627,0.0-10.0-0.78,"""event"",""trial"",""time""
""focus"",""0"",""1846""
""fullscreenenter"",""0"",""3205""
","
","""event"",""trial"",""time""
""focus"",""0"",""1846""
","""event"",""trial"",""time""
""fullscreenenter"",""0"",""3205""
","
",null,"<div style=""font-size:60px;"">+</div>",NA,null,fixation,2020-06-10T04:06:23Z,NA,NA,NA,NA,NA,sub51
NA,mars-trial,170,246625,0.0-10.0-1.78,"""event"",""trial"",""time""
""focus"",""0"",""1846""
""fullscreenenter"",""0"",""3205""
","
","""event"",""trial"",""time""
""focus"",""0"",""1846""
","""event"",""trial"",""time""
""fullscreenenter"",""0"",""3205""
","
",387.52000000386033,<img style='border: 4px solid darkgrey;' src='img/tf1_79_M_ss3.jpeg'></img>,2,NA,exp,NA,0,<img src='img/tf1_79_T1_ss3_md.jpeg'></img>,0,TRUE,NA,sub51
NA,html-keyboard-response,171,247127,0.0-10.0-0.79,"""event"",""trial"",""time""
""focus"",""0"",""1846""
""fullscreenenter"",""0"",""3205""
","
","""event"",""trial"",""time""
""focus"",""0"",""1846""
","""event"",""trial"",""time""
""fullscreenenter"",""0"",""3205""
","
",null,"<div style=""font-size:60px;"">+</div>",NA,null,fixation,2020-06-10T04:06:25Z,NA,NA,NA,NA,NA,sub51
NA,mars-trial,172,248109,0.0-10.0-1.79,"""event"",""trial"",""time""
""focus"",""0"",""1846""
""fullscreenenter"",""0"",""3205""
","
","""event"",""trial"",""time""
""focus"",""0"",""1846""
","""event"",""trial"",""time""
""fullscreenenter"",""0"",""3205""
","
",372.9049999965355,<img style='border: 4px solid darkgrey;' src='img/tf1_80_M_ss1.jpeg'></img>,2,NA,exp,NA,1,<img src='img/tf1_80_T1_ss1_md.jpeg'></img>,0,FALSE,NA,sub51
NA,audio-button-response,173,251085,0.0-11.0,"""event"",""trial"",""time""
""focus"",""0"",""1846""
""fullscreenenter"",""0"",""3205""
","
","""event"",""trial"",""time""
""focus"",""0"",""1846""
","""event"",""trial"",""time""
""fullscreenenter"",""0"",""3205""
","
",2973.790000003646,audio/mars_instructions_slide5.wav,0,NA,NA,NA,NA,NA,NA,NA,NA,sub51
