success,trial_type,trial_index,time_elapsed,internal_node_id,interactions,blur_events,focus_events,fullscreenenter_events,fullscreenexit_events,rt,stimulus,button_pressed,key_press,part,timestamp,unshuffled_button,correct_response,correct_button,correct,value,subject_id
TRUE,fullscreen,0,4337,0.0-0.0,"""event"",""trial"",""time""
""fullscreenenter"",""0"",""3343""
","
","
","""event"",""trial"",""time""
""fullscreenenter"",""0"",""3343""
","
",NA,NA,NA,NA,NA,NA,NA,NA,NA,NA,NA,sub37
NA,pavlovia,1,4406,0.0-1.0,"""event"",""trial"",""time""
""fullscreenenter"",""0"",""3343""
","
","
","""event"",""trial"",""time""
""fullscreenenter"",""0"",""3343""
","
",NA,NA,NA,NA,NA,NA,NA,NA,NA,NA,NA,sub37
NA,html-button-response,2,6820,0.0-2.0,"""event"",""trial"",""time""
""fullscreenenter"",""0"",""3343""
","
","
","""event"",""trial"",""time""
""fullscreenenter"",""0"",""3343""
","
",2411.7599999999584,<p>Welcome! Press START to begin.</p><br>,0,NA,NA,NA,NA,NA,NA,NA,NA,sub37
NA,audio-button-response,3,21859,0.0-3.0,"""event"",""trial"",""time""
""fullscreenenter"",""0"",""3343""
","
","
","""event"",""trial"",""time""
""fullscreenenter"",""0"",""3343""
","
",15034.719999999652,audio/mars_instructions_slide2.wav,0,NA,NA,NA,NA,NA,NA,NA,NA,sub37
NA,audio-button-response,4,38016,0.0-4.0,"""event"",""trial"",""time""
""fullscreenenter"",""0"",""3343""
","
","
","""event"",""trial"",""time""
""fullscreenenter"",""0"",""3343""
","
",16154.190000000199,audio/mars_instructions_slide3.wav,0,NA,NA,NA,NA,NA,NA,NA,NA,sub37
NA,html-keyboard-response,5,38520,0.0-5.0-0.0,"""event"",""trial"",""time""
""fullscreenenter"",""0"",""3343""
","
","
","""event"",""trial"",""time""
""fullscreenenter"",""0"",""3343""
","
",null,"<div style=""font-size:60px;"">+</div>",NA,null,fixation,2020-06-09T20:31:07Z,NA,NA,NA,NA,NA,sub37
NA,mars-trial,6,52353,0.0-5.0-1.0,"""event"",""trial"",""time""
""fullscreenenter"",""0"",""3343""
","
","
","""event"",""trial"",""time""
""fullscreenenter"",""0"",""3343""
","
",11719.445000000182,<img style='border: 4px solid darkgrey;' src='practice/pt1_M1.png'></img>,2,NA,practice,NA,0,<img src='practice/pt1_T1.png'></img>,0,TRUE,NA,sub37
NA,html-keyboard-response,7,52857,0.0-6.0-0.0,"""event"",""trial"",""time""
""fullscreenenter"",""0"",""3343""
","
","
","""event"",""trial"",""time""
""fullscreenenter"",""0"",""3343""
","
",null,"<div style=""font-size:60px;"">+</div>",NA,null,fixation,2020-06-09T20:31:21Z,NA,NA,NA,NA,NA,sub37
NA,mars-trial,8,57349,0.0-6.0-1.0,"""event"",""trial"",""time""
""fullscreenenter"",""0"",""3343""
","
","
","""event"",""trial"",""time""
""fullscreenenter"",""0"",""3343""
","
",2384.7100000002683,<img style='border: 4px solid darkgrey;' src='practice/pt2_M1.png'></img>,3,NA,practice,NA,0,<img src='practice/pt2_T1.png'></img>,0,TRUE,NA,sub37
NA,html-keyboard-response,9,57851,0.0-7.0-0.0,"""event"",""trial"",""time""
""fullscreenenter"",""0"",""3343""
","
","
","""event"",""trial"",""time""
""fullscreenenter"",""0"",""3343""
","
",null,"<div style=""font-size:60px;"">+</div>",NA,null,fixation,2020-06-09T20:31:26Z,NA,NA,NA,NA,NA,sub37
NA,mars-trial,10,61669,0.0-7.0-1.0,"""event"",""trial"",""time""
""fullscreenenter"",""0"",""3343""
","
","
","""event"",""trial"",""time""
""fullscreenenter"",""0"",""3343""
","
",1710.550000000243,<img style='border: 4px solid darkgrey;' src='practice/pt3_M1.png'></img>,1,NA,practice,NA,0,<img src='practice/pt3_T1.png'></img>,0,TRUE,NA,sub37
NA,audio-button-response,11,65920,0.0-8.0,"""event"",""trial"",""time""
""fullscreenenter"",""0"",""3343""
","
","
","""event"",""trial"",""time""
""fullscreenenter"",""0"",""3343""
","
",4247.914999999921,audio/mars_instructions_slide4.wav,0,NA,NA,NA,NA,NA,NA,NA,NA,sub37
NA,call-function,12,65921,0.0-9.0,"""event"",""trial"",""time""
""fullscreenenter"",""0"",""3343""
","
","
","""event"",""trial"",""time""
""fullscreenenter"",""0"",""3343""
","
",NA,NA,NA,NA,NA,NA,NA,NA,NA,NA,NA,sub37
NA,html-keyboard-response,13,66423,0.0-10.0-0.0,"""event"",""trial"",""time""
""fullscreenenter"",""0"",""3343""
","
","
","""event"",""trial"",""time""
""fullscreenenter"",""0"",""3343""
","
",null,"<div style=""font-size:60px;"">+</div>",NA,null,fixation,2020-06-09T20:31:34Z,NA,NA,NA,NA,NA,sub37
NA,mars-trial,14,68627,0.0-10.0-1.0,"""event"",""trial"",""time""
""fullscreenenter"",""0"",""3343""
","
","
","""event"",""trial"",""time""
""fullscreenenter"",""0"",""3343""
","
",1595.3500000000495,<img style='border: 4px solid darkgrey;' src='img/tf1_1_M_ss3.jpeg'></img>,3,NA,exp,NA,0,<img src='img/tf1_1_T1_ss3_md.jpeg'></img>,0,TRUE,NA,sub37
NA,html-keyboard-response,15,69129,0.0-10.0-0.1,"""event"",""trial"",""time""
""fullscreenenter"",""0"",""3343""
","
","
","""event"",""trial"",""time""
""fullscreenenter"",""0"",""3343""
","
",null,"<div style=""font-size:60px;"">+</div>",NA,null,fixation,2020-06-09T20:31:37Z,NA,NA,NA,NA,NA,sub37
NA,mars-trial,16,72468,0.0-10.0-1.1,"""event"",""trial"",""time""
""fullscreenenter"",""0"",""3343""
","
","
","""event"",""trial"",""time""
""fullscreenenter"",""0"",""3343""
","
",2731.8399999999237,<img style='border: 4px solid darkgrey;' src='img/tf1_2_M_ss1.jpeg'></img>,2,NA,exp,NA,0,<img src='img/tf1_2_T1_ss1_md.jpeg'></img>,0,TRUE,NA,sub37
NA,html-keyboard-response,17,72970,0.0-10.0-0.2,"""event"",""trial"",""time""
""fullscreenenter"",""0"",""3343""
","
","
","""event"",""trial"",""time""
""fullscreenenter"",""0"",""3343""
","
",null,"<div style=""font-size:60px;"">+</div>",NA,null,fixation,2020-06-09T20:31:41Z,NA,NA,NA,NA,NA,sub37
NA,mars-trial,18,76673,0.0-10.0-1.2,"""event"",""trial"",""time""
""fullscreenenter"",""0"",""3343""
","
","
","""event"",""trial"",""time""
""fullscreenenter"",""0"",""3343""
","
",3095.399999999703,<img style='border: 4px solid darkgrey;' src='img/tf1_3_M_ss2.jpeg'></img>,0,NA,exp,NA,0,<img src='img/tf1_3_T1_ss2_md.jpeg'></img>,0,TRUE,NA,sub37
NA,html-keyboard-response,19,77175,0.0-10.0-0.3,"""event"",""trial"",""time""
""fullscreenenter"",""0"",""3343""
","
","
","""event"",""trial"",""time""
""fullscreenenter"",""0"",""3343""
","
",null,"<div style=""font-size:60px;"">+</div>",NA,null,fixation,2020-06-09T20:31:45Z,NA,NA,NA,NA,NA,sub37
NA,mars-trial,20,81126,0.0-10.0-1.3,"""event"",""trial"",""time""
""fullscreenenter"",""0"",""3343""
","
","
","""event"",""trial"",""time""
""fullscreenenter"",""0"",""3343""
","
",3342.775000000067,<img style='border: 4px solid darkgrey;' src='img/tf1_4_M_ss3.jpeg'></img>,3,NA,exp,NA,0,<img src='img/tf1_4_T1_ss3_md.jpeg'></img>,0,TRUE,NA,sub37
NA,html-keyboard-response,21,81629,0.0-10.0-0.4,"""event"",""trial"",""time""
""fullscreenenter"",""0"",""3343""
","
","
","""event"",""trial"",""time""
""fullscreenenter"",""0"",""3343""
","
",null,"<div style=""font-size:60px;"">+</div>",NA,null,fixation,2020-06-09T20:31:50Z,NA,NA,NA,NA,NA,sub37
NA,mars-trial,22,84144,0.0-10.0-1.4,"""event"",""trial"",""time""
""fullscreenenter"",""0"",""3343""
","
","
","""event"",""trial"",""time""
""fullscreenenter"",""0"",""3343""
","
",1907.424999999872,<img style='border: 4px solid darkgrey;' src='img/tf1_5_M_ss1.jpeg'></img>,1,NA,exp,NA,0,<img src='img/tf1_5_T1_ss1_md.jpeg'></img>,0,TRUE,NA,sub37
NA,html-keyboard-response,23,84646,0.0-10.0-0.5,"""event"",""trial"",""time""
""fullscreenenter"",""0"",""3343""
","
","
","""event"",""trial"",""time""
""fullscreenenter"",""0"",""3343""
","
",null,"<div style=""font-size:60px;"">+</div>",NA,null,fixation,2020-06-09T20:31:53Z,NA,NA,NA,NA,NA,sub37
NA,mars-trial,24,88796,0.0-10.0-1.5,"""event"",""trial"",""time""
""fullscreenenter"",""0"",""3343""
","
","
","""event"",""trial"",""time""
""fullscreenenter"",""0"",""3343""
","
",3542.5149999996356,<img style='border: 4px solid darkgrey;' src='img/tf1_6_M_ss2.jpeg'></img>,2,NA,exp,NA,0,<img src='img/tf1_6_T1_ss2_md.jpeg'></img>,0,TRUE,NA,sub37
NA,html-keyboard-response,25,89299,0.0-10.0-0.6,"""event"",""trial"",""time""
""fullscreenenter"",""0"",""3343""
","
","
","""event"",""trial"",""time""
""fullscreenenter"",""0"",""3343""
","
",null,"<div style=""font-size:60px;"">+</div>",NA,null,fixation,2020-06-09T20:31:57Z,NA,NA,NA,NA,NA,sub37
NA,mars-trial,26,93334,0.0-10.0-1.6,"""event"",""trial"",""time""
""fullscreenenter"",""0"",""3343""
","
","
","""event"",""trial"",""time""
""fullscreenenter"",""0"",""3343""
","
",3427.3650000000052,<img style='border: 4px solid darkgrey;' src='img/tf1_7_M_ss3.jpeg'></img>,0,NA,exp,NA,0,<img src='img/tf1_7_T1_ss3_md.jpeg'></img>,0,TRUE,NA,sub37
NA,html-keyboard-response,27,93837,0.0-10.0-0.7,"""event"",""trial"",""time""
""fullscreenenter"",""0"",""3343""
","
","
","""event"",""trial"",""time""
""fullscreenenter"",""0"",""3343""
","
",null,"<div style=""font-size:60px;"">+</div>",NA,null,fixation,2020-06-09T20:32:02Z,NA,NA,NA,NA,NA,sub37
NA,mars-trial,28,97561,0.0-10.0-1.7,"""event"",""trial"",""time""
""fullscreenenter"",""0"",""3343""
","
","
","""event"",""trial"",""time""
""fullscreenenter"",""0"",""3343""
","
",3116.805000000124,<img style='border: 4px solid darkgrey;' src='img/tf1_8_M_ss1.jpeg'></img>,2,NA,exp,NA,0,<img src='img/tf1_8_T1_ss1_md.jpeg'></img>,0,TRUE,NA,sub37
NA,html-keyboard-response,29,98064,0.0-10.0-0.8,"""event"",""trial"",""time""
""fullscreenenter"",""0"",""3343""
","
","
","""event"",""trial"",""time""
""fullscreenenter"",""0"",""3343""
","
",null,"<div style=""font-size:60px;"">+</div>",NA,null,fixation,2020-06-09T20:32:06Z,NA,NA,NA,NA,NA,sub37
NA,mars-trial,30,104253,0.0-10.0-1.8,"""event"",""trial"",""time""
""fullscreenenter"",""0"",""3343""
","
","
","""event"",""trial"",""time""
""fullscreenenter"",""0"",""3343""
","
",5581.445000000254,<img style='border: 4px solid darkgrey;' src='img/tf1_9_M_ss2.jpeg'></img>,0,NA,exp,NA,0,<img src='img/tf1_9_T1_ss2_md.jpeg'></img>,0,TRUE,NA,sub37
NA,html-keyboard-response,31,104756,0.0-10.0-0.9,"""event"",""trial"",""time""
""fullscreenenter"",""0"",""3343""
","
","
","""event"",""trial"",""time""
""fullscreenenter"",""0"",""3343""
","
",null,"<div style=""font-size:60px;"">+</div>",NA,null,fixation,2020-06-09T20:32:13Z,NA,NA,NA,NA,NA,sub37
NA,mars-trial,32,117563,0.0-10.0-1.9,"""event"",""trial"",""time""
""fullscreenenter"",""0"",""3343""
","
","
","""event"",""trial"",""time""
""fullscreenenter"",""0"",""3343""
","
",12196.794999999838,<img style='border: 4px solid darkgrey;' src='img/tf1_10_M_ss3.jpeg'></img>,0,NA,exp,NA,2,<img src='img/tf1_10_T1_ss3_md.jpeg'></img>,0,FALSE,NA,sub37
NA,html-keyboard-response,33,118066,0.0-10.0-0.10,"""event"",""trial"",""time""
""fullscreenenter"",""0"",""3343""
","
","
","""event"",""trial"",""time""
""fullscreenenter"",""0"",""3343""
","
",null,"<div style=""font-size:60px;"">+</div>",NA,null,fixation,2020-06-09T20:32:26Z,NA,NA,NA,NA,NA,sub37
NA,mars-trial,34,125186,0.0-10.0-1.10,"""event"",""trial"",""time""
""fullscreenenter"",""0"",""3343""
","
","
","""event"",""trial"",""time""
""fullscreenenter"",""0"",""3343""
","
",6513.014999999985,<img style='border: 4px solid darkgrey;' src='img/tf1_11_M_ss1.jpeg'></img>,0,NA,exp,NA,2,<img src='img/tf1_11_T1_ss1_md.jpeg'></img>,0,FALSE,NA,sub37
NA,html-keyboard-response,35,125689,0.0-10.0-0.11,"""event"",""trial"",""time""
""fullscreenenter"",""0"",""3343""
","
","
","""event"",""trial"",""time""
""fullscreenenter"",""0"",""3343""
","
",null,"<div style=""font-size:60px;"">+</div>",NA,null,fixation,2020-06-09T20:32:34Z,NA,NA,NA,NA,NA,sub37
NA,mars-trial,36,134234,0.0-10.0-1.11,"""event"",""trial"",""time""
""fullscreenenter"",""0"",""3343""
","
","
","""event"",""trial"",""time""
""fullscreenenter"",""0"",""3343""
","
",7937.51999999996,<img style='border: 4px solid darkgrey;' src='img/tf1_12_M_ss2.jpeg'></img>,1,NA,exp,NA,2,<img src='img/tf1_12_T1_ss2_md.jpeg'></img>,0,FALSE,NA,sub37
NA,html-keyboard-response,37,134737,0.0-10.0-0.12,"""event"",""trial"",""time""
""fullscreenenter"",""0"",""3343""
","
","
","""event"",""trial"",""time""
""fullscreenenter"",""0"",""3343""
","
",null,"<div style=""font-size:60px;"">+</div>",NA,null,fixation,2020-06-09T20:32:43Z,NA,NA,NA,NA,NA,sub37
NA,mars-trial,38,139518,0.0-10.0-1.12,"""event"",""trial"",""time""
""fullscreenenter"",""0"",""3343""
","
","
","""event"",""trial"",""time""
""fullscreenenter"",""0"",""3343""
","
",4173.3300000000745,<img style='border: 4px solid darkgrey;' src='img/tf1_13_M_ss3.jpeg'></img>,3,NA,exp,NA,0,<img src='img/tf1_13_T1_ss3_md.jpeg'></img>,0,TRUE,NA,sub37
NA,html-keyboard-response,39,140021,0.0-10.0-0.13,"""event"",""trial"",""time""
""fullscreenenter"",""0"",""3343""
","
","
","""event"",""trial"",""time""
""fullscreenenter"",""0"",""3343""
","
",null,"<div style=""font-size:60px;"">+</div>",NA,null,fixation,2020-06-09T20:32:48Z,NA,NA,NA,NA,NA,sub37
NA,mars-trial,40,148613,0.0-10.0-1.13,"""event"",""trial"",""time""
""fullscreenenter"",""0"",""3343""
","
","
","""event"",""trial"",""time""
""fullscreenenter"",""0"",""3343""
","
",7983.085000000283,<img style='border: 4px solid darkgrey;' src='img/tf1_14_M_ss1.jpeg'></img>,0,NA,exp,NA,3,<img src='img/tf1_14_T1_ss1_md.jpeg'></img>,0,FALSE,NA,sub37
NA,html-keyboard-response,41,149115,0.0-10.0-0.14,"""event"",""trial"",""time""
""fullscreenenter"",""0"",""3343""
","
","
","""event"",""trial"",""time""
""fullscreenenter"",""0"",""3343""
","
",null,"<div style=""font-size:60px;"">+</div>",NA,null,fixation,2020-06-09T20:32:57Z,NA,NA,NA,NA,NA,sub37
NA,mars-trial,42,157802,0.0-10.0-1.14,"""event"",""trial"",""time""
""fullscreenenter"",""0"",""3343""
","
","
","""event"",""trial"",""time""
""fullscreenenter"",""0"",""3343""
","
",8078.260000000242,<img style='border: 4px solid darkgrey;' src='img/tf1_15_M_ss2.jpeg'></img>,1,NA,exp,NA,2,<img src='img/tf1_15_T1_ss2_md.jpeg'></img>,0,FALSE,NA,sub37
NA,html-keyboard-response,43,158304,0.0-10.0-0.15,"""event"",""trial"",""time""
""fullscreenenter"",""0"",""3343""
","
","
","""event"",""trial"",""time""
""fullscreenenter"",""0"",""3343""
","
",null,"<div style=""font-size:60px;"">+</div>",NA,null,fixation,2020-06-09T20:33:06Z,NA,NA,NA,NA,NA,sub37
NA,mars-trial,44,164431,0.0-10.0-1.15,"""event"",""trial"",""time""
""fullscreenenter"",""0"",""3343""
","
","
","""event"",""trial"",""time""
""fullscreenenter"",""0"",""3343""
","
",5518.914999999659,<img style='border: 4px solid darkgrey;' src='img/tf1_16_M_ss3.jpeg'></img>,2,NA,exp,NA,3,<img src='img/tf1_16_T1_ss3_md.jpeg'></img>,0,FALSE,NA,sub37
NA,html-keyboard-response,45,164933,0.0-10.0-0.16,"""event"",""trial"",""time""
""fullscreenenter"",""0"",""3343""
","
","
","""event"",""trial"",""time""
""fullscreenenter"",""0"",""3343""
","
",null,"<div style=""font-size:60px;"">+</div>",NA,null,fixation,2020-06-09T20:33:13Z,NA,NA,NA,NA,NA,sub37
NA,mars-trial,46,171096,0.0-10.0-1.16,"""event"",""trial"",""time""
""fullscreenenter"",""0"",""3343""
","
","
","""event"",""trial"",""time""
""fullscreenenter"",""0"",""3343""
","
",5551.590000000026,<img style='border: 4px solid darkgrey;' src='img/tf1_17_M_ss1.jpeg'></img>,1,NA,exp,NA,3,<img src='img/tf1_17_T1_ss1_md.jpeg'></img>,0,FALSE,NA,sub37
NA,html-keyboard-response,47,171599,0.0-10.0-0.17,"""event"",""trial"",""time""
""fullscreenenter"",""0"",""3343""
","
","
","""event"",""trial"",""time""
""fullscreenenter"",""0"",""3343""
","
",null,"<div style=""font-size:60px;"">+</div>",NA,null,fixation,2020-06-09T20:33:20Z,NA,NA,NA,NA,NA,sub37
NA,mars-trial,48,179141,0.0-10.0-1.17,"""event"",""trial"",""time""
""fullscreenenter"",""0"",""3343""
","
","
","""event"",""trial"",""time""
""fullscreenenter"",""0"",""3343""
","
",6934.96000000005,<img style='border: 4px solid darkgrey;' src='img/tf1_18_M_ss2.jpeg'></img>,3,NA,exp,NA,0,<img src='img/tf1_18_T1_ss2_md.jpeg'></img>,0,TRUE,NA,sub37
NA,html-keyboard-response,49,179644,0.0-10.0-0.18,"""event"",""trial"",""time""
""fullscreenenter"",""0"",""3343""
","
","
","""event"",""trial"",""time""
""fullscreenenter"",""0"",""3343""
","
",null,"<div style=""font-size:60px;"">+</div>",NA,null,fixation,2020-06-09T20:33:28Z,NA,NA,NA,NA,NA,sub37
NA,mars-trial,50,184571,0.0-10.0-1.18,"""event"",""trial"",""time""
""fullscreenenter"",""0"",""3343""
","
","
","""event"",""trial"",""time""
""fullscreenenter"",""0"",""3343""
","
",4319.8299999999,<img style='border: 4px solid darkgrey;' src='img/tf1_19_M_ss3.jpeg'></img>,2,NA,exp,NA,1,<img src='img/tf1_19_T1_ss3_md.jpeg'></img>,0,FALSE,NA,sub37
NA,html-keyboard-response,51,185074,0.0-10.0-0.19,"""event"",""trial"",""time""
""fullscreenenter"",""0"",""3343""
","
","
","""event"",""trial"",""time""
""fullscreenenter"",""0"",""3343""
","
",null,"<div style=""font-size:60px;"">+</div>",NA,null,fixation,2020-06-09T20:33:33Z,NA,NA,NA,NA,NA,sub37
NA,mars-trial,52,192864,0.0-10.0-1.19,"""event"",""trial"",""time""
""fullscreenenter"",""0"",""3343""
","
","
","""event"",""trial"",""time""
""fullscreenenter"",""0"",""3343""
","
",7183.410000000091,<img style='border: 4px solid darkgrey;' src='img/tf1_20_M_ss1.jpeg'></img>,2,NA,exp,NA,0,<img src='img/tf1_20_T1_ss1_md.jpeg'></img>,0,TRUE,NA,sub37
NA,html-keyboard-response,53,193367,0.0-10.0-0.20,"""event"",""trial"",""time""
""fullscreenenter"",""0"",""3343""
","
","
","""event"",""trial"",""time""
""fullscreenenter"",""0"",""3343""
","
",null,"<div style=""font-size:60px;"">+</div>",NA,null,fixation,2020-06-09T20:33:41Z,NA,NA,NA,NA,NA,sub37
NA,mars-trial,54,202066,0.0-10.0-1.20,"""event"",""trial"",""time""
""fullscreenenter"",""0"",""3343""
","
","
","""event"",""trial"",""time""
""fullscreenenter"",""0"",""3343""
","
",8091.829999999842,<img style='border: 4px solid darkgrey;' src='img/tf1_21_M_ss2.jpeg'></img>,3,NA,exp,NA,2,<img src='img/tf1_21_T1_ss2_md.jpeg'></img>,0,FALSE,NA,sub37
NA,html-keyboard-response,55,202569,0.0-10.0-0.21,"""event"",""trial"",""time""
""fullscreenenter"",""0"",""3343""
","
","
","""event"",""trial"",""time""
""fullscreenenter"",""0"",""3343""
","
",null,"<div style=""font-size:60px;"">+</div>",NA,null,fixation,2020-06-09T20:33:51Z,NA,NA,NA,NA,NA,sub37
NA,mars-trial,56,209182,0.0-10.0-1.21,"""event"",""trial"",""time""
""fullscreenenter"",""0"",""3343""
","
","
","""event"",""trial"",""time""
""fullscreenenter"",""0"",""3343""
","
",6005.240000000427,<img style='border: 4px solid darkgrey;' src='img/tf1_22_M_ss3.jpeg'></img>,3,NA,exp,NA,0,<img src='img/tf1_22_T1_ss3_md.jpeg'></img>,0,TRUE,NA,sub37
NA,html-keyboard-response,57,209685,0.0-10.0-0.22,"""event"",""trial"",""time""
""fullscreenenter"",""0"",""3343""
","
","
","""event"",""trial"",""time""
""fullscreenenter"",""0"",""3343""
","
",null,"<div style=""font-size:60px;"">+</div>",NA,null,fixation,2020-06-09T20:33:58Z,NA,NA,NA,NA,NA,sub37
NA,mars-trial,58,220950,0.0-10.0-1.22,"""event"",""trial"",""time""
""fullscreenenter"",""0"",""3343""
","
","
","""event"",""trial"",""time""
""fullscreenenter"",""0"",""3343""
","
",10658.014999999985,<img style='border: 4px solid darkgrey;' src='img/tf1_23_M_ss1.jpeg'></img>,1,NA,exp,NA,3,<img src='img/tf1_23_T1_ss1_md.jpeg'></img>,0,FALSE,NA,sub37
NA,html-keyboard-response,59,221452,0.0-10.0-0.23,"""event"",""trial"",""time""
""fullscreenenter"",""0"",""3343""
","
","
","""event"",""trial"",""time""
""fullscreenenter"",""0"",""3343""
","
",null,"<div style=""font-size:60px;"">+</div>",NA,null,fixation,2020-06-09T20:34:09Z,NA,NA,NA,NA,NA,sub37
NA,mars-trial,60,231439,0.0-10.0-1.23,"""event"",""trial"",""time""
""fullscreenenter"",""0"",""3343""
","
","
","""event"",""trial"",""time""
""fullscreenenter"",""0"",""3343""
","
",9377.184999999823,<img style='border: 4px solid darkgrey;' src='img/tf1_24_M_ss2.jpeg'></img>,1,NA,exp,NA,1,<img src='img/tf1_24_T1_ss2_md.jpeg'></img>,0,FALSE,NA,sub37
NA,html-keyboard-response,61,231942,0.0-10.0-0.24,"""event"",""trial"",""time""
""fullscreenenter"",""0"",""3343""
","
","
","""event"",""trial"",""time""
""fullscreenenter"",""0"",""3343""
","
",null,"<div style=""font-size:60px;"">+</div>",NA,null,fixation,2020-06-09T20:34:20Z,NA,NA,NA,NA,NA,sub37
NA,mars-trial,62,242196,0.0-10.0-1.24,"""event"",""trial"",""time""
""fullscreenenter"",""0"",""3343""
","
","
","""event"",""trial"",""time""
""fullscreenenter"",""0"",""3343""
","
",9641.599999999919,<img style='border: 4px solid darkgrey;' src='img/tf1_25_M_ss3.jpeg'></img>,0,NA,exp,NA,0,<img src='img/tf1_25_T1_ss3_md.jpeg'></img>,0,TRUE,NA,sub37
NA,html-keyboard-response,63,242698,0.0-10.0-0.25,"""event"",""trial"",""time""
""fullscreenenter"",""0"",""3343""
","
","
","""event"",""trial"",""time""
""fullscreenenter"",""0"",""3343""
","
",null,"<div style=""font-size:60px;"">+</div>",NA,null,fixation,2020-06-09T20:34:31Z,NA,NA,NA,NA,NA,sub37
NA,mars-trial,64,253313,0.0-10.0-1.25,"""event"",""trial"",""time""
""fullscreenenter"",""0"",""3343""
","
","
","""event"",""trial"",""time""
""fullscreenenter"",""0"",""3343""
","
",10006.960000000166,<img style='border: 4px solid darkgrey;' src='img/tf1_26_M_ss1.jpeg'></img>,2,NA,exp,NA,2,<img src='img/tf1_26_T1_ss1_md.jpeg'></img>,0,FALSE,NA,sub37
NA,html-keyboard-response,65,253815,0.0-10.0-0.26,"""event"",""trial"",""time""
""fullscreenenter"",""0"",""3343""
","
","
","""event"",""trial"",""time""
""fullscreenenter"",""0"",""3343""
","
",null,"<div style=""font-size:60px;"">+</div>",NA,null,fixation,2020-06-09T20:34:42Z,NA,NA,NA,NA,NA,sub37
NA,mars-trial,66,262617,0.0-10.0-1.26,"""event"",""trial"",""time""
""fullscreenenter"",""0"",""3343""
","
","
","""event"",""trial"",""time""
""fullscreenenter"",""0"",""3343""
","
",8191.720000000292,<img style='border: 4px solid darkgrey;' src='img/tf1_27_M_ss2.jpeg'></img>,0,NA,exp,NA,1,<img src='img/tf1_27_T1_ss2_md.jpeg'></img>,0,FALSE,NA,sub37
NA,html-keyboard-response,67,263119,0.0-10.0-0.27,"""event"",""trial"",""time""
""fullscreenenter"",""0"",""3343""
","
","
","""event"",""trial"",""time""
""fullscreenenter"",""0"",""3343""
","
",null,"<div style=""font-size:60px;"">+</div>",NA,null,fixation,2020-06-09T20:34:51Z,NA,NA,NA,NA,NA,sub37
NA,mars-trial,68,272356,0.0-10.0-1.27,"""event"",""trial"",""time""
""fullscreenenter"",""0"",""3343""
","
","
","""event"",""trial"",""time""
""fullscreenenter"",""0"",""3343""
","
",8628.619999999937,<img style='border: 4px solid darkgrey;' src='img/tf1_28_M_ss3.jpeg'></img>,1,NA,exp,NA,0,<img src='img/tf1_28_T1_ss3_md.jpeg'></img>,0,TRUE,NA,sub37
NA,html-keyboard-response,69,272859,0.0-10.0-0.28,"""event"",""trial"",""time""
""fullscreenenter"",""0"",""3343""
","
","
","""event"",""trial"",""time""
""fullscreenenter"",""0"",""3343""
","
",null,"<div style=""font-size:60px;"">+</div>",NA,null,fixation,2020-06-09T20:35:01Z,NA,NA,NA,NA,NA,sub37
NA,mars-trial,70,280016,0.0-10.0-1.28,"""event"",""trial"",""time""
""fullscreenenter"",""0"",""3343""
","
","
","""event"",""trial"",""time""
""fullscreenenter"",""0"",""3343""
","
",6549.445000000123,<img style='border: 4px solid darkgrey;' src='img/tf1_29_M_ss1.jpeg'></img>,3,NA,exp,NA,0,<img src='img/tf1_29_T1_ss1_md.jpeg'></img>,0,TRUE,NA,sub37
NA,html-keyboard-response,71,280518,0.0-10.0-0.29,"""event"",""trial"",""time""
""fullscreenenter"",""0"",""3343""
","
","
","""event"",""trial"",""time""
""fullscreenenter"",""0"",""3343""
","
",null,"<div style=""font-size:60px;"">+</div>",NA,null,fixation,2020-06-09T20:35:09Z,NA,NA,NA,NA,NA,sub37
NA,mars-trial,72,287862,0.0-10.0-1.29,"""event"",""trial"",""time""
""fullscreenenter"",""0"",""3343""
","
","
","""event"",""trial"",""time""
""fullscreenenter"",""0"",""3343""
","
",6735.929999999818,<img style='border: 4px solid darkgrey;' src='img/tf1_30_M_ss2.jpeg'></img>,1,NA,exp,NA,0,<img src='img/tf1_30_T1_ss2_md.jpeg'></img>,0,TRUE,NA,sub37
NA,html-keyboard-response,73,288365,0.0-10.0-0.30,"""event"",""trial"",""time""
""fullscreenenter"",""0"",""3343""
","
","
","""event"",""trial"",""time""
""fullscreenenter"",""0"",""3343""
","
",null,"<div style=""font-size:60px;"">+</div>",NA,null,fixation,2020-06-09T20:35:16Z,NA,NA,NA,NA,NA,sub37
NA,mars-trial,74,298036,0.0-10.0-1.30,"""event"",""trial"",""time""
""fullscreenenter"",""0"",""3343""
","
","
","""event"",""trial"",""time""
""fullscreenenter"",""0"",""3343""
","
",9060.315000000177,<img style='border: 4px solid darkgrey;' src='img/tf1_31_M_ss3.jpeg'></img>,1,NA,exp,NA,0,<img src='img/tf1_31_T1_ss3_md.jpeg'></img>,0,TRUE,NA,sub37
NA,html-keyboard-response,75,298538,0.0-10.0-0.31,"""event"",""trial"",""time""
""fullscreenenter"",""0"",""3343""
","
","
","""event"",""trial"",""time""
""fullscreenenter"",""0"",""3343""
","
",null,"<div style=""font-size:60px;"">+</div>",NA,null,fixation,2020-06-09T20:35:27Z,NA,NA,NA,NA,NA,sub37
NA,mars-trial,76,304925,0.0-10.0-1.31,"""event"",""trial"",""time""
""fullscreenenter"",""0"",""3343""
","
","
","""event"",""trial"",""time""
""fullscreenenter"",""0"",""3343""
","
",5780.049999999872,<img style='border: 4px solid darkgrey;' src='img/tf1_32_M_ss1.jpeg'></img>,1,NA,exp,NA,0,<img src='img/tf1_32_T1_ss1_md.jpeg'></img>,0,TRUE,NA,sub37
NA,html-keyboard-response,77,305428,0.0-10.0-0.32,"""event"",""trial"",""time""
""fullscreenenter"",""0"",""3343""
","
","
","""event"",""trial"",""time""
""fullscreenenter"",""0"",""3343""
","
",null,"<div style=""font-size:60px;"">+</div>",NA,null,fixation,2020-06-09T20:35:33Z,NA,NA,NA,NA,NA,sub37
NA,mars-trial,78,311293,0.0-10.0-1.32,"""event"",""trial"",""time""
""fullscreenenter"",""0"",""3343""
","
","
","""event"",""trial"",""time""
""fullscreenenter"",""0"",""3343""
","
",5257.674999999814,<img style='border: 4px solid darkgrey;' src='img/tf1_33_M_ss2.jpeg'></img>,1,NA,exp,NA,0,<img src='img/tf1_33_T1_ss2_md.jpeg'></img>,0,TRUE,NA,sub37
NA,html-keyboard-response,79,311795,0.0-10.0-0.33,"""event"",""trial"",""time""
""fullscreenenter"",""0"",""3343""
","
","
","""event"",""trial"",""time""
""fullscreenenter"",""0"",""3343""
","
",null,"<div style=""font-size:60px;"">+</div>",NA,null,fixation,2020-06-09T20:35:40Z,NA,NA,NA,NA,NA,sub37
NA,mars-trial,80,321216,0.0-10.0-1.33,"""event"",""trial"",""time""
""fullscreenenter"",""0"",""3343""
","
","
","""event"",""trial"",""time""
""fullscreenenter"",""0"",""3343""
","
",8813.964999999793,<img style='border: 4px solid darkgrey;' src='img/tf1_34_M_ss3.jpeg'></img>,3,NA,exp,NA,0,<img src='img/tf1_34_T1_ss3_md.jpeg'></img>,0,TRUE,NA,sub37
NA,html-keyboard-response,81,321719,0.0-10.0-0.34,"""event"",""trial"",""time""
""fullscreenenter"",""0"",""3343""
","
","
","""event"",""trial"",""time""
""fullscreenenter"",""0"",""3343""
","
",null,"<div style=""font-size:60px;"">+</div>",NA,null,fixation,2020-06-09T20:35:50Z,NA,NA,NA,NA,NA,sub37
NA,mars-trial,82,332286,0.0-10.0-1.34,"""event"",""trial"",""time""
""fullscreenenter"",""0"",""3343""
","
","
","""event"",""trial"",""time""
""fullscreenenter"",""0"",""3343""
","
",9959.4899999997,<img style='border: 4px solid darkgrey;' src='img/tf1_35_M_ss1.jpeg'></img>,3,NA,exp,NA,2,<img src='img/tf1_35_T1_ss1_md.jpeg'></img>,0,FALSE,NA,sub37
NA,html-keyboard-response,83,332788,0.0-10.0-0.35,"""event"",""trial"",""time""
""fullscreenenter"",""0"",""3343""
","
","
","""event"",""trial"",""time""
""fullscreenenter"",""0"",""3343""
","
",null,"<div style=""font-size:60px;"">+</div>",NA,null,fixation,2020-06-09T20:36:01Z,NA,NA,NA,NA,NA,sub37
NA,mars-trial,84,338689,0.0-10.0-1.35,"""event"",""trial"",""time""
""fullscreenenter"",""0"",""3343""
","
","
","""event"",""trial"",""time""
""fullscreenenter"",""0"",""3343""
","
",5294.1300000002375,<img style='border: 4px solid darkgrey;' src='img/tf1_36_M_ss2.jpeg'></img>,0,NA,exp,NA,2,<img src='img/tf1_36_T1_ss2_md.jpeg'></img>,0,FALSE,NA,sub37
NA,html-keyboard-response,85,339192,0.0-10.0-0.36,"""event"",""trial"",""time""
""fullscreenenter"",""0"",""3343""
","
","
","""event"",""trial"",""time""
""fullscreenenter"",""0"",""3343""
","
",null,"<div style=""font-size:60px;"">+</div>",NA,null,fixation,2020-06-09T20:36:07Z,NA,NA,NA,NA,NA,sub37
NA,mars-trial,86,347112,0.0-10.0-1.36,"""event"",""trial"",""time""
""fullscreenenter"",""0"",""3343""
","
","
","""event"",""trial"",""time""
""fullscreenenter"",""0"",""3343""
","
",7311.599999999977,<img style='border: 4px solid darkgrey;' src='img/tf1_37_M_ss3.jpeg'></img>,1,NA,exp,NA,2,<img src='img/tf1_37_T1_ss3_md.jpeg'></img>,0,FALSE,NA,sub37
NA,html-keyboard-response,87,347613,0.0-10.0-0.37,"""event"",""trial"",""time""
""fullscreenenter"",""0"",""3343""
","
","
","""event"",""trial"",""time""
""fullscreenenter"",""0"",""3343""
","
",null,"<div style=""font-size:60px;"">+</div>",NA,null,fixation,2020-06-09T20:36:16Z,NA,NA,NA,NA,NA,sub37
NA,mars-trial,88,354719,0.0-10.0-1.37,"""event"",""trial"",""time""
""fullscreenenter"",""0"",""3343""
","
","
","""event"",""trial"",""time""
""fullscreenenter"",""0"",""3343""
","
",6496.1199999997625,<img style='border: 4px solid darkgrey;' src='img/tf1_38_M_ss1.jpeg'></img>,0,NA,exp,NA,0,<img src='img/tf1_38_T1_ss1_md.jpeg'></img>,0,TRUE,NA,sub37
NA,html-keyboard-response,89,355221,0.0-10.0-0.38,"""event"",""trial"",""time""
""fullscreenenter"",""0"",""3343""
","
","
","""event"",""trial"",""time""
""fullscreenenter"",""0"",""3343""
","
",null,"<div style=""font-size:60px;"">+</div>",NA,null,fixation,2020-06-09T20:36:23Z,NA,NA,NA,NA,NA,sub37
NA,mars-trial,90,366921,0.0-10.0-1.38,"""event"",""trial"",""time""
""fullscreenenter"",""0"",""3343""
","
","
","""event"",""trial"",""time""
""fullscreenenter"",""0"",""3343""
","
",11092.525000000023,<img style='border: 4px solid darkgrey;' src='img/tf1_39_M_ss2.jpeg'></img>,2,NA,exp,NA,0,<img src='img/tf1_39_T1_ss2_md.jpeg'></img>,0,TRUE,NA,sub37
NA,html-keyboard-response,91,367424,0.0-10.0-0.39,"""event"",""trial"",""time""
""fullscreenenter"",""0"",""3343""
","
","
","""event"",""trial"",""time""
""fullscreenenter"",""0"",""3343""
","
",null,"<div style=""font-size:60px;"">+</div>",NA,null,fixation,2020-06-09T20:36:35Z,NA,NA,NA,NA,NA,sub37
NA,mars-trial,92,375582,0.0-10.0-1.39,"""event"",""trial"",""time""
""fullscreenenter"",""0"",""3343""
","
","
","""event"",""trial"",""time""
""fullscreenenter"",""0"",""3343""
","
",7550.894999999844,<img style='border: 4px solid darkgrey;' src='img/tf1_40_M_ss3.jpeg'></img>,3,NA,exp,NA,1,<img src='img/tf1_40_T1_ss3_md.jpeg'></img>,0,FALSE,NA,sub37
NA,html-keyboard-response,93,376084,0.0-10.0-0.40,"""event"",""trial"",""time""
""fullscreenenter"",""0"",""3343""
","
","
","""event"",""trial"",""time""
""fullscreenenter"",""0"",""3343""
","
",null,"<div style=""font-size:60px;"">+</div>",NA,null,fixation,2020-06-09T20:36:44Z,NA,NA,NA,NA,NA,sub37
NA,mars-trial,94,381670,0.0-10.0-1.40,"""event"",""trial"",""time""
""fullscreenenter"",""0"",""3343""
","
","
","""event"",""trial"",""time""
""fullscreenenter"",""0"",""3343""
","
",4978.564999999886,<img style='border: 4px solid darkgrey;' src='img/tf1_41_M_ss1.jpeg'></img>,3,NA,exp,NA,0,<img src='img/tf1_41_T1_ss1_md.jpeg'></img>,0,TRUE,NA,sub37
NA,html-keyboard-response,95,382173,0.0-10.0-0.41,"""event"",""trial"",""time""
""fullscreenenter"",""0"",""3343""
","
","
","""event"",""trial"",""time""
""fullscreenenter"",""0"",""3343""
","
",null,"<div style=""font-size:60px;"">+</div>",NA,null,fixation,2020-06-09T20:36:50Z,NA,NA,NA,NA,NA,sub37
NA,mars-trial,96,388082,0.0-10.0-1.41,"""event"",""trial"",""time""
""fullscreenenter"",""0"",""3343""
","
","
","""event"",""trial"",""time""
""fullscreenenter"",""0"",""3343""
","
",5301.265000000072,<img style='border: 4px solid darkgrey;' src='img/tf1_42_M_ss2.jpeg'></img>,1,NA,exp,NA,2,<img src='img/tf1_42_T1_ss2_md.jpeg'></img>,0,FALSE,NA,sub37
NA,html-keyboard-response,97,388584,0.0-10.0-0.42,"""event"",""trial"",""time""
""fullscreenenter"",""0"",""3343""
","
","
","""event"",""trial"",""time""
""fullscreenenter"",""0"",""3343""
","
",null,"<div style=""font-size:60px;"">+</div>",NA,null,fixation,2020-06-09T20:36:57Z,NA,NA,NA,NA,NA,sub37
NA,mars-trial,98,401332,0.0-10.0-1.42,"""event"",""trial"",""time""
""fullscreenenter"",""0"",""3343""
","
","
","""event"",""trial"",""time""
""fullscreenenter"",""0"",""3343""
","
",12139.354999999749,<img style='border: 4px solid darkgrey;' src='img/tf1_43_M_ss3.jpeg'></img>,1,NA,exp,NA,0,<img src='img/tf1_43_T1_ss3_md.jpeg'></img>,0,TRUE,NA,sub37
NA,html-keyboard-response,99,401834,0.0-10.0-0.43,"""event"",""trial"",""time""
""fullscreenenter"",""0"",""3343""
","
","
","""event"",""trial"",""time""
""fullscreenenter"",""0"",""3343""
","
",null,"<div style=""font-size:60px;"">+</div>",NA,null,fixation,2020-06-09T20:37:10Z,NA,NA,NA,NA,NA,sub37
NA,mars-trial,100,413017,0.0-10.0-1.43,"""event"",""trial"",""time""
""fullscreenenter"",""0"",""3343""
","
","
","""event"",""trial"",""time""
""fullscreenenter"",""0"",""3343""
","
",10574.834999999905,<img style='border: 4px solid darkgrey;' src='img/tf1_44_M_ss1.jpeg'></img>,0,NA,exp,NA,0,<img src='img/tf1_44_T1_ss1_md.jpeg'></img>,0,TRUE,NA,sub37
NA,html-keyboard-response,101,413520,0.0-10.0-0.44,"""event"",""trial"",""time""
""fullscreenenter"",""0"",""3343""
","
","
","""event"",""trial"",""time""
""fullscreenenter"",""0"",""3343""
","
",null,"<div style=""font-size:60px;"">+</div>",NA,null,fixation,2020-06-09T20:37:22Z,NA,NA,NA,NA,NA,sub37
NA,mars-trial,102,421797,0.0-10.0-1.44,"""event"",""trial"",""time""
""fullscreenenter"",""0"",""3343""
","
","
","""event"",""trial"",""time""
""fullscreenenter"",""0"",""3343""
","
",7667.23499999987,<img style='border: 4px solid darkgrey;' src='img/tf1_45_M_ss2.jpeg'></img>,0,NA,exp,NA,0,<img src='img/tf1_45_T1_ss2_md.jpeg'></img>,0,TRUE,NA,sub37
NA,html-keyboard-response,103,422300,0.0-10.0-0.45,"""event"",""trial"",""time""
""fullscreenenter"",""0"",""3343""
","
","
","""event"",""trial"",""time""
""fullscreenenter"",""0"",""3343""
","
",null,"<div style=""font-size:60px;"">+</div>",NA,null,fixation,2020-06-09T20:37:30Z,NA,NA,NA,NA,NA,sub37
NA,mars-trial,104,430919,0.0-10.0-1.45,"""event"",""trial"",""time""
""fullscreenenter"",""0"",""3343""
","
","
","""event"",""trial"",""time""
""fullscreenenter"",""0"",""3343""
","
",8011.7049999999,<img style='border: 4px solid darkgrey;' src='img/tf1_46_M_ss3.jpeg'></img>,2,NA,exp,NA,1,<img src='img/tf1_46_T1_ss3_md.jpeg'></img>,0,FALSE,NA,sub37
NA,html-keyboard-response,105,431422,0.0-10.0-0.46,"""event"",""trial"",""time""
""fullscreenenter"",""0"",""3343""
","
","
","""event"",""trial"",""time""
""fullscreenenter"",""0"",""3343""
","
",null,"<div style=""font-size:60px;"">+</div>",NA,null,fixation,2020-06-09T20:37:39Z,NA,NA,NA,NA,NA,sub37
NA,mars-trial,106,443012,0.0-10.0-1.46,"""event"",""trial"",""time""
""fullscreenenter"",""0"",""3343""
","
","
","""event"",""trial"",""time""
""fullscreenenter"",""0"",""3343""
","
",10983.320000000298,<img style='border: 4px solid darkgrey;' src='img/tf1_47_M_ss1.jpeg'></img>,0,NA,exp,NA,2,<img src='img/tf1_47_T1_ss1_md.jpeg'></img>,0,FALSE,NA,sub37
NA,html-keyboard-response,107,443514,0.0-10.0-0.47,"""event"",""trial"",""time""
""fullscreenenter"",""0"",""3343""
","
","
","""event"",""trial"",""time""
""fullscreenenter"",""0"",""3343""
","
",null,"<div style=""font-size:60px;"">+</div>",NA,null,fixation,2020-06-09T20:37:51Z,NA,NA,NA,NA,NA,sub37
NA,mars-trial,108,452796,0.0-10.0-1.47,"""event"",""trial"",""time""
""fullscreenenter"",""0"",""3343""
","
","
","""event"",""trial"",""time""
""fullscreenenter"",""0"",""3343""
","
",8674.730000000156,<img style='border: 4px solid darkgrey;' src='img/tf1_48_M_ss2.jpeg'></img>,1,NA,exp,NA,0,<img src='img/tf1_48_T1_ss2_md.jpeg'></img>,0,TRUE,NA,sub37
NA,html-keyboard-response,109,453300,0.0-10.0-0.48,"""event"",""trial"",""time""
""fullscreenenter"",""0"",""3343""
","
","
","""event"",""trial"",""time""
""fullscreenenter"",""0"",""3343""
","
",null,"<div style=""font-size:60px;"">+</div>",NA,null,fixation,2020-06-09T20:38:01Z,NA,NA,NA,NA,NA,sub37
NA,mars-trial,110,458961,0.0-10.0-1.48,"""event"",""trial"",""time""
""fullscreenenter"",""0"",""3343""
","
","
","""event"",""trial"",""time""
""fullscreenenter"",""0"",""3343""
","
",5053.935000000347,<img style='border: 4px solid darkgrey;' src='img/tf1_49_M_ss3.jpeg'></img>,0,NA,exp,NA,0,<img src='img/tf1_49_T1_ss3_md.jpeg'></img>,0,TRUE,NA,sub37
NA,html-keyboard-response,111,459464,0.0-10.0-0.49,"""event"",""trial"",""time""
""fullscreenenter"",""0"",""3343""
","
","
","""event"",""trial"",""time""
""fullscreenenter"",""0"",""3343""
","
",null,"<div style=""font-size:60px;"">+</div>",NA,null,fixation,2020-06-09T20:38:07Z,NA,NA,NA,NA,NA,sub37
NA,mars-trial,112,466035,0.0-10.0-1.49,"""event"",""trial"",""time""
""fullscreenenter"",""0"",""3343""
","
","
","""event"",""trial"",""time""
""fullscreenenter"",""0"",""3343""
","
",5963.864999999758,<img style='border: 4px solid darkgrey;' src='img/tf1_50_M_ss1.jpeg'></img>,0,NA,exp,NA,0,<img src='img/tf1_50_T1_ss1_md.jpeg'></img>,0,TRUE,NA,sub37
NA,html-keyboard-response,113,466538,0.0-10.0-0.50,"""event"",""trial"",""time""
""fullscreenenter"",""0"",""3343""
","
","
","""event"",""trial"",""time""
""fullscreenenter"",""0"",""3343""
","
",null,"<div style=""font-size:60px;"">+</div>",NA,null,fixation,2020-06-09T20:38:15Z,NA,NA,NA,NA,NA,sub37
NA,mars-trial,114,473381,0.0-10.0-1.50,"""event"",""trial"",""time""
""fullscreenenter"",""0"",""3343""
","
","
","""event"",""trial"",""time""
""fullscreenenter"",""0"",""3343""
","
",6235.194999999774,<img style='border: 4px solid darkgrey;' src='img/tf1_51_M_ss2.jpeg'></img>,1,NA,exp,NA,2,<img src='img/tf1_51_T1_ss2_md.jpeg'></img>,0,FALSE,NA,sub37
NA,html-keyboard-response,115,473883,0.0-10.0-0.51,"""event"",""trial"",""time""
""fullscreenenter"",""0"",""3343""
","
","
","""event"",""trial"",""time""
""fullscreenenter"",""0"",""3343""
","
",null,"<div style=""font-size:60px;"">+</div>",NA,null,fixation,2020-06-09T20:38:22Z,NA,NA,NA,NA,NA,sub37
NA,mars-trial,116,485398,0.0-10.0-1.51,"""event"",""trial"",""time""
""fullscreenenter"",""0"",""3343""
","
","
","""event"",""trial"",""time""
""fullscreenenter"",""0"",""3343""
","
",10903.414999999804,<img style='border: 4px solid darkgrey;' src='img/tf1_52_M_ss3.jpeg'></img>,3,NA,exp,NA,2,<img src='img/tf1_52_T1_ss3_md.jpeg'></img>,0,FALSE,NA,sub37
NA,html-keyboard-response,117,485900,0.0-10.0-0.52,"""event"",""trial"",""time""
""fullscreenenter"",""0"",""3343""
","
","
","""event"",""trial"",""time""
""fullscreenenter"",""0"",""3343""
","
",null,"<div style=""font-size:60px;"">+</div>",NA,null,fixation,2020-06-09T20:38:34Z,NA,NA,NA,NA,NA,sub37
NA,mars-trial,118,504571,0.0-10.0-1.52,"""event"",""trial"",""time""
""fullscreenenter"",""0"",""3343""
","
","
","""event"",""trial"",""time""
""fullscreenenter"",""0"",""3343""
","
",18063.05999999994,<img style='border: 4px solid darkgrey;' src='img/tf1_53_M_ss1.jpeg'></img>,2,NA,exp,NA,0,<img src='img/tf1_53_T1_ss1_md.jpeg'></img>,0,TRUE,NA,sub37
NA,html-keyboard-response,119,505074,0.0-10.0-0.53,"""event"",""trial"",""time""
""fullscreenenter"",""0"",""3343""
","
","
","""event"",""trial"",""time""
""fullscreenenter"",""0"",""3343""
","
",null,"<div style=""font-size:60px;"">+</div>",NA,null,fixation,2020-06-09T20:38:53Z,NA,NA,NA,NA,NA,sub37
NA,mars-trial,120,518988,0.0-10.0-1.53,"""event"",""trial"",""time""
""fullscreenenter"",""0"",""3343""
","
","
","""event"",""trial"",""time""
""fullscreenenter"",""0"",""3343""
","
",13307.080000000016,<img style='border: 4px solid darkgrey;' src='img/tf1_54_M_ss2.jpeg'></img>,2,NA,exp,NA,3,<img src='img/tf1_54_T1_ss2_md.jpeg'></img>,0,FALSE,NA,sub37
NA,html-keyboard-response,121,519491,0.0-10.0-0.54,"""event"",""trial"",""time""
""fullscreenenter"",""0"",""3343""
","
","
","""event"",""trial"",""time""
""fullscreenenter"",""0"",""3343""
","
",null,"<div style=""font-size:60px;"">+</div>",NA,null,fixation,2020-06-09T20:39:07Z,NA,NA,NA,NA,NA,sub37
NA,mars-trial,122,538526,0.0-10.0-1.54,"""event"",""trial"",""time""
""fullscreenenter"",""0"",""3343""
","
","
","""event"",""trial"",""time""
""fullscreenenter"",""0"",""3343""
","
",18425.060000000056,<img style='border: 4px solid darkgrey;' src='img/tf1_55_M_ss3.jpeg'></img>,3,NA,exp,NA,3,<img src='img/tf1_55_T1_ss3_md.jpeg'></img>,0,FALSE,NA,sub37
NA,html-keyboard-response,123,539028,0.0-10.0-0.55,"""event"",""trial"",""time""
""fullscreenenter"",""0"",""3343""
","
","
","""event"",""trial"",""time""
""fullscreenenter"",""0"",""3343""
","
",null,"<div style=""font-size:60px;"">+</div>",NA,null,fixation,2020-06-09T20:39:27Z,NA,NA,NA,NA,NA,sub37
NA,mars-trial,124,545944,0.0-10.0-1.55,"""event"",""trial"",""time""
""fullscreenenter"",""0"",""3343""
","
","
","""event"",""trial"",""time""
""fullscreenenter"",""0"",""3343""
","
",NA,NA,NA,NA,exp,NA,NA,<img src='img/tf1_56_T1_ss1_md.jpeg'></img>,0,FALSE,NA,sub37
NA,html-keyboard-response,125,546446,0.0-10.0-0.56,"""event"",""trial"",""time""
""fullscreenenter"",""0"",""3343""
","
","
","""event"",""trial"",""time""
""fullscreenenter"",""0"",""3343""
","
",null,"<div style=""font-size:60px;"">+</div>",NA,null,fixation,2020-06-09T20:39:34Z,NA,NA,NA,NA,NA,sub37
NA,audio-button-response,126,551668,0.0-11.0,"""event"",""trial"",""time""
""fullscreenenter"",""0"",""3343""
","
","
","""event"",""trial"",""time""
""fullscreenenter"",""0"",""3343""
","
",5119.849999999977,audio/mars_instructions_slide5.wav,0,NA,NA,NA,NA,NA,NA,NA,NA,sub37
