success,trial_type,trial_index,time_elapsed,internal_node_id,interactions,blur_events,focus_events,fullscreenenter_events,fullscreenexit_events,rt,stimulus,button_pressed,key_press,part,timestamp,unshuffled_button,correct_response,correct_button,correct,value,subject_id
TRUE,fullscreen,0,8787,0.0-0.0,"""event"",""trial"",""time""
""fullscreenenter"",""0"",""7823""
","
","
","""event"",""trial"",""time""
""fullscreenenter"",""0"",""7823""
","
",NA,NA,NA,NA,NA,NA,NA,NA,NA,NA,NA,sub20
NA,pavlovia,1,8791,0.0-1.0,"""event"",""trial"",""time""
""fullscreenenter"",""0"",""7823""
","
","
","""event"",""trial"",""time""
""fullscreenenter"",""0"",""7823""
","
",NA,NA,NA,NA,NA,NA,NA,NA,NA,NA,NA,sub20
NA,html-button-response,2,17151,0.0-2.0,"""event"",""trial"",""time""
""fullscreenenter"",""0"",""7823""
","
","
","""event"",""trial"",""time""
""fullscreenenter"",""0"",""7823""
","
",8358.26999999972,<p>Welcome! Press START to begin.</p><br>,0,NA,NA,NA,NA,NA,NA,NA,NA,sub20
NA,audio-button-response,3,34311,0.0-3.0,"""event"",""trial"",""time""
""fullscreenenter"",""0"",""7823""
","
","
","""event"",""trial"",""time""
""fullscreenenter"",""0"",""7823""
","
",17157.239999999547,audio/mars_instructions_slide2.wav,0,NA,NA,NA,NA,NA,NA,NA,NA,sub20
NA,audio-button-response,4,42226,0.0-4.0,"""event"",""trial"",""time""
""fullscreenenter"",""0"",""7823""
","
","
","""event"",""trial"",""time""
""fullscreenenter"",""0"",""7823""
","
",7912.3600000002625,audio/mars_instructions_slide3.wav,0,NA,NA,NA,NA,NA,NA,NA,NA,sub20
NA,html-keyboard-response,5,42729,0.0-5.0-0.0,"""event"",""trial"",""time""
""fullscreenenter"",""0"",""7823""
","
","
","""event"",""trial"",""time""
""fullscreenenter"",""0"",""7823""
","
",null,"<div style=""font-size:60px;"">+</div>",NA,null,fixation,2020-06-12T02:29:35Z,NA,NA,NA,NA,NA,sub20
NA,mars-trial,6,47958,0.0-5.0-1.0,"""event"",""trial"",""time""
""fullscreenenter"",""0"",""7823""
","
","
","""event"",""trial"",""time""
""fullscreenenter"",""0"",""7823""
","
",3122.659999999996,<img style='border: 4px solid darkgrey;' src='practice/pt1_M1.png'></img>,0,NA,practice,NA,2,<img src='practice/pt1_T1.png'></img>,0,FALSE,NA,sub20
NA,html-keyboard-response,7,48460,0.0-5.1-0.1,"""event"",""trial"",""time""
""fullscreenenter"",""0"",""7823""
","
","
","""event"",""trial"",""time""
""fullscreenenter"",""0"",""7823""
","
",null,"<div style=""font-size:60px;"">+</div>",NA,null,fixation,2020-06-12T02:29:40Z,NA,NA,NA,NA,NA,sub20
NA,mars-trial,8,60776,0.0-5.1-1.1,"""event"",""trial"",""time""
""fullscreenenter"",""0"",""7823""
","
","
","""event"",""trial"",""time""
""fullscreenenter"",""0"",""7823""
","
",10211.24500000041,<img style='border: 4px solid darkgrey;' src='practice/pt1_M1.png'></img>,1,NA,practice,NA,3,<img src='practice/pt1_T1.png'></img>,0,FALSE,NA,sub20
NA,html-keyboard-response,9,61278,0.0-5.2-0.2,"""event"",""trial"",""time""
""fullscreenenter"",""0"",""7823""
","
","
","""event"",""trial"",""time""
""fullscreenenter"",""0"",""7823""
","
",null,"<div style=""font-size:60px;"">+</div>",NA,null,fixation,2020-06-12T02:29:53Z,NA,NA,NA,NA,NA,sub20
NA,mars-trial,10,68056,0.0-5.2-1.2,"""event"",""trial"",""time""
""fullscreenenter"",""0"",""7823""
","
","
","""event"",""trial"",""time""
""fullscreenenter"",""0"",""7823""
","
",4672.4899999999325,<img style='border: 4px solid darkgrey;' src='practice/pt1_M1.png'></img>,1,NA,practice,NA,0,<img src='practice/pt1_T1.png'></img>,0,TRUE,NA,sub20
NA,html-keyboard-response,11,68558,0.0-6.0-0.0,"""event"",""trial"",""time""
""fullscreenenter"",""0"",""7823""
","
","
","""event"",""trial"",""time""
""fullscreenenter"",""0"",""7823""
","
",null,"<div style=""font-size:60px;"">+</div>",NA,null,fixation,2020-06-12T02:30:00Z,NA,NA,NA,NA,NA,sub20
NA,mars-trial,12,74096,0.0-6.0-1.0,"""event"",""trial"",""time""
""fullscreenenter"",""0"",""7823""
","
","
","""event"",""trial"",""time""
""fullscreenenter"",""0"",""7823""
","
",3432.9600000000937,<img style='border: 4px solid darkgrey;' src='practice/pt2_M1.png'></img>,3,NA,practice,NA,0,<img src='practice/pt2_T1.png'></img>,0,TRUE,NA,sub20
NA,html-keyboard-response,13,74599,0.0-7.0-0.0,"""event"",""trial"",""time""
""fullscreenenter"",""0"",""7823""
","
","
","""event"",""trial"",""time""
""fullscreenenter"",""0"",""7823""
","
",null,"<div style=""font-size:60px;"">+</div>",NA,null,fixation,2020-06-12T02:30:07Z,NA,NA,NA,NA,NA,sub20
NA,mars-trial,14,79206,0.0-7.0-1.0,"""event"",""trial"",""time""
""fullscreenenter"",""0"",""7823""
","
","
","""event"",""trial"",""time""
""fullscreenenter"",""0"",""7823""
","
",2503.9200000001147,<img style='border: 4px solid darkgrey;' src='practice/pt3_M1.png'></img>,2,NA,practice,NA,0,<img src='practice/pt3_T1.png'></img>,0,TRUE,NA,sub20
NA,audio-button-response,15,81069,0.0-8.0,"""event"",""trial"",""time""
""fullscreenenter"",""0"",""7823""
","
","
","""event"",""trial"",""time""
""fullscreenenter"",""0"",""7823""
","
",1861.490000000238,audio/mars_instructions_slide4.wav,0,NA,NA,NA,NA,NA,NA,NA,NA,sub20
NA,call-function,16,81070,0.0-9.0,"""event"",""trial"",""time""
""fullscreenenter"",""0"",""7823""
","
","
","""event"",""trial"",""time""
""fullscreenenter"",""0"",""7823""
","
",NA,NA,NA,NA,NA,NA,NA,NA,NA,NA,NA,sub20
NA,html-keyboard-response,17,81572,0.0-10.0-0.0,"""event"",""trial"",""time""
""fullscreenenter"",""0"",""7823""
","
","
","""event"",""trial"",""time""
""fullscreenenter"",""0"",""7823""
","
",null,"<div style=""font-size:60px;"">+</div>",NA,null,fixation,2020-06-12T02:30:13Z,NA,NA,NA,NA,NA,sub20
NA,mars-trial,18,84110,0.0-10.0-1.0,"""event"",""trial"",""time""
""fullscreenenter"",""0"",""7823""
","
","
","""event"",""trial"",""time""
""fullscreenenter"",""0"",""7823""
","
",1932.8500000001513,<img style='border: 4px solid darkgrey;' src='img/tf1_1_M_ss3.jpeg'></img>,2,NA,exp,NA,0,<img src='img/tf1_1_T1_ss3_md.jpeg'></img>,0,TRUE,NA,sub20
NA,html-keyboard-response,19,84612,0.0-10.0-0.1,"""event"",""trial"",""time""
""fullscreenenter"",""0"",""7823""
","
","
","""event"",""trial"",""time""
""fullscreenenter"",""0"",""7823""
","
",null,"<div style=""font-size:60px;"">+</div>",NA,null,fixation,2020-06-12T02:30:17Z,NA,NA,NA,NA,NA,sub20
NA,mars-trial,20,87796,0.0-10.0-1.1,"""event"",""trial"",""time""
""fullscreenenter"",""0"",""7823""
","
","
","""event"",""trial"",""time""
""fullscreenenter"",""0"",""7823""
","
",2580.4950000001554,<img style='border: 4px solid darkgrey;' src='img/tf1_2_M_ss1.jpeg'></img>,1,NA,exp,NA,0,<img src='img/tf1_2_T1_ss1_md.jpeg'></img>,0,TRUE,NA,sub20
NA,html-keyboard-response,21,88299,0.0-10.0-0.2,"""event"",""trial"",""time""
""fullscreenenter"",""0"",""7823""
","
","
","""event"",""trial"",""time""
""fullscreenenter"",""0"",""7823""
","
",null,"<div style=""font-size:60px;"">+</div>",NA,null,fixation,2020-06-12T02:30:20Z,NA,NA,NA,NA,NA,sub20
NA,mars-trial,22,92765,0.0-10.0-1.2,"""event"",""trial"",""time""
""fullscreenenter"",""0"",""7823""
","
","
","""event"",""trial"",""time""
""fullscreenenter"",""0"",""7823""
","
",3862.059999999474,<img style='border: 4px solid darkgrey;' src='img/tf1_3_M_ss2.jpeg'></img>,3,NA,exp,NA,0,<img src='img/tf1_3_T1_ss2_md.jpeg'></img>,0,TRUE,NA,sub20
NA,html-keyboard-response,23,93267,0.0-10.0-0.3,"""event"",""trial"",""time""
""fullscreenenter"",""0"",""7823""
","
","
","""event"",""trial"",""time""
""fullscreenenter"",""0"",""7823""
","
",null,"<div style=""font-size:60px;"">+</div>",NA,null,fixation,2020-06-12T02:30:25Z,NA,NA,NA,NA,NA,sub20
NA,mars-trial,24,97593,0.0-10.0-1.3,"""event"",""trial"",""time""
""fullscreenenter"",""0"",""7823""
","
","
","""event"",""trial"",""time""
""fullscreenenter"",""0"",""7823""
","
",3721.4850000000442,<img style='border: 4px solid darkgrey;' src='img/tf1_4_M_ss3.jpeg'></img>,1,NA,exp,NA,3,<img src='img/tf1_4_T1_ss3_md.jpeg'></img>,0,FALSE,NA,sub20
NA,html-keyboard-response,25,98096,0.0-10.0-0.4,"""event"",""trial"",""time""
""fullscreenenter"",""0"",""7823""
","
","
","""event"",""trial"",""time""
""fullscreenenter"",""0"",""7823""
","
",null,"<div style=""font-size:60px;"">+</div>",NA,null,fixation,2020-06-12T02:30:30Z,NA,NA,NA,NA,NA,sub20
NA,mars-trial,26,103176,0.0-10.0-1.4,"""event"",""trial"",""time""
""fullscreenenter"",""0"",""7823""
","
","
","""event"",""trial"",""time""
""fullscreenenter"",""0"",""7823""
","
",4476.07499999959,<img style='border: 4px solid darkgrey;' src='img/tf1_5_M_ss1.jpeg'></img>,0,NA,exp,NA,0,<img src='img/tf1_5_T1_ss1_md.jpeg'></img>,0,TRUE,NA,sub20
NA,html-keyboard-response,27,103679,0.0-10.0-0.5,"""event"",""trial"",""time""
""fullscreenenter"",""0"",""7823""
","
","
","""event"",""trial"",""time""
""fullscreenenter"",""0"",""7823""
","
",null,"<div style=""font-size:60px;"">+</div>",NA,null,fixation,2020-06-12T02:30:36Z,NA,NA,NA,NA,NA,sub20
NA,mars-trial,28,107925,0.0-10.0-1.5,"""event"",""trial"",""time""
""fullscreenenter"",""0"",""7823""
","
","
","""event"",""trial"",""time""
""fullscreenenter"",""0"",""7823""
","
",3640.489999999787,<img style='border: 4px solid darkgrey;' src='img/tf1_6_M_ss2.jpeg'></img>,1,NA,exp,NA,2,<img src='img/tf1_6_T1_ss2_md.jpeg'></img>,0,FALSE,NA,sub20
NA,html-keyboard-response,29,108427,0.0-10.0-0.6,"""event"",""trial"",""time""
""fullscreenenter"",""0"",""7823""
","
","
","""event"",""trial"",""time""
""fullscreenenter"",""0"",""7823""
","
",null,"<div style=""font-size:60px;"">+</div>",NA,null,fixation,2020-06-12T02:30:40Z,NA,NA,NA,NA,NA,sub20
NA,mars-trial,30,116223,0.0-10.0-1.6,"""event"",""trial"",""time""
""fullscreenenter"",""0"",""7823""
","
","
","""event"",""trial"",""time""
""fullscreenenter"",""0"",""7823""
","
",7189.279999999606,<img style='border: 4px solid darkgrey;' src='img/tf1_7_M_ss3.jpeg'></img>,1,NA,exp,NA,0,<img src='img/tf1_7_T1_ss3_md.jpeg'></img>,0,TRUE,NA,sub20
NA,html-keyboard-response,31,116725,0.0-10.0-0.7,"""event"",""trial"",""time""
""fullscreenenter"",""0"",""7823""
","
","
","""event"",""trial"",""time""
""fullscreenenter"",""0"",""7823""
","
",null,"<div style=""font-size:60px;"">+</div>",NA,null,fixation,2020-06-12T02:30:49Z,NA,NA,NA,NA,NA,sub20
NA,mars-trial,32,119878,0.0-10.0-1.7,"""event"",""trial"",""time""
""fullscreenenter"",""0"",""7823""
","
","
","""event"",""trial"",""time""
""fullscreenenter"",""0"",""7823""
","
",2548.000000000684,<img style='border: 4px solid darkgrey;' src='img/tf1_8_M_ss1.jpeg'></img>,2,NA,exp,NA,3,<img src='img/tf1_8_T1_ss1_md.jpeg'></img>,0,FALSE,NA,sub20
NA,html-keyboard-response,33,120380,0.0-10.0-0.8,"""event"",""trial"",""time""
""fullscreenenter"",""0"",""7823""
","
","
","""event"",""trial"",""time""
""fullscreenenter"",""0"",""7823""
","
",null,"<div style=""font-size:60px;"">+</div>",NA,null,fixation,2020-06-12T02:30:52Z,NA,NA,NA,NA,NA,sub20
NA,mars-trial,34,123422,0.0-10.0-1.8,"""event"",""trial"",""time""
""fullscreenenter"",""0"",""7823""
","
","
","""event"",""trial"",""time""
""fullscreenenter"",""0"",""7823""
","
",2436.1699999999546,<img style='border: 4px solid darkgrey;' src='img/tf1_9_M_ss2.jpeg'></img>,1,NA,exp,NA,2,<img src='img/tf1_9_T1_ss2_md.jpeg'></img>,0,FALSE,NA,sub20
NA,html-keyboard-response,35,123923,0.0-10.0-0.9,"""event"",""trial"",""time""
""fullscreenenter"",""0"",""7823""
","
","
","""event"",""trial"",""time""
""fullscreenenter"",""0"",""7823""
","
",null,"<div style=""font-size:60px;"">+</div>",NA,null,fixation,2020-06-12T02:30:56Z,NA,NA,NA,NA,NA,sub20
NA,mars-trial,36,126706,0.0-10.0-1.9,"""event"",""trial"",""time""
""fullscreenenter"",""0"",""7823""
","
","
","""event"",""trial"",""time""
""fullscreenenter"",""0"",""7823""
","
",2178.7600000006787,<img style='border: 4px solid darkgrey;' src='img/tf1_10_M_ss3.jpeg'></img>,2,NA,exp,NA,1,<img src='img/tf1_10_T1_ss3_md.jpeg'></img>,0,FALSE,NA,sub20
NA,html-keyboard-response,37,127208,0.0-10.0-0.10,"""event"",""trial"",""time""
""fullscreenenter"",""0"",""7823""
","
","
","""event"",""trial"",""time""
""fullscreenenter"",""0"",""7823""
","
",null,"<div style=""font-size:60px;"">+</div>",NA,null,fixation,2020-06-12T02:30:59Z,NA,NA,NA,NA,NA,sub20
NA,mars-trial,38,130702,0.0-10.0-1.10,"""event"",""trial"",""time""
""fullscreenenter"",""0"",""7823""
","
","
","""event"",""trial"",""time""
""fullscreenenter"",""0"",""7823""
","
",2887.225000000384,<img style='border: 4px solid darkgrey;' src='img/tf1_11_M_ss1.jpeg'></img>,3,NA,exp,NA,0,<img src='img/tf1_11_T1_ss1_md.jpeg'></img>,0,TRUE,NA,sub20
NA,html-keyboard-response,39,131204,0.0-10.0-0.11,"""event"",""trial"",""time""
""fullscreenenter"",""0"",""7823""
","
","
","""event"",""trial"",""time""
""fullscreenenter"",""0"",""7823""
","
",null,"<div style=""font-size:60px;"">+</div>",NA,null,fixation,2020-06-12T02:31:03Z,NA,NA,NA,NA,NA,sub20
NA,mars-trial,40,135067,0.0-10.0-1.11,"""event"",""trial"",""time""
""fullscreenenter"",""0"",""7823""
","
","
","""event"",""trial"",""time""
""fullscreenenter"",""0"",""7823""
","
",3258.8100000002596,<img style='border: 4px solid darkgrey;' src='img/tf1_12_M_ss2.jpeg'></img>,3,NA,exp,NA,2,<img src='img/tf1_12_T1_ss2_md.jpeg'></img>,0,FALSE,NA,sub20
NA,html-keyboard-response,41,135569,0.0-10.0-0.12,"""event"",""trial"",""time""
""fullscreenenter"",""0"",""7823""
","
","
","""event"",""trial"",""time""
""fullscreenenter"",""0"",""7823""
","
",null,"<div style=""font-size:60px;"">+</div>",NA,null,fixation,2020-06-12T02:31:07Z,NA,NA,NA,NA,NA,sub20
NA,mars-trial,42,140846,0.0-10.0-1.12,"""event"",""trial"",""time""
""fullscreenenter"",""0"",""7823""
","
","
","""event"",""trial"",""time""
""fullscreenenter"",""0"",""7823""
","
",4672.035000000527,<img style='border: 4px solid darkgrey;' src='img/tf1_13_M_ss3.jpeg'></img>,3,NA,exp,NA,2,<img src='img/tf1_13_T1_ss3_md.jpeg'></img>,0,FALSE,NA,sub20
NA,html-keyboard-response,43,141347,0.0-10.0-0.13,"""event"",""trial"",""time""
""fullscreenenter"",""0"",""7823""
","
","
","""event"",""trial"",""time""
""fullscreenenter"",""0"",""7823""
","
",null,"<div style=""font-size:60px;"">+</div>",NA,null,fixation,2020-06-12T02:31:13Z,NA,NA,NA,NA,NA,sub20
NA,mars-trial,44,146481,0.0-10.0-1.13,"""event"",""trial"",""time""
""fullscreenenter"",""0"",""7823""
","
","
","""event"",""trial"",""time""
""fullscreenenter"",""0"",""7823""
","
",4530.044999999518,<img style='border: 4px solid darkgrey;' src='img/tf1_14_M_ss1.jpeg'></img>,0,NA,exp,NA,3,<img src='img/tf1_14_T1_ss1_md.jpeg'></img>,0,FALSE,NA,sub20
NA,html-keyboard-response,45,146983,0.0-10.0-0.14,"""event"",""trial"",""time""
""fullscreenenter"",""0"",""7823""
","
","
","""event"",""trial"",""time""
""fullscreenenter"",""0"",""7823""
","
",null,"<div style=""font-size:60px;"">+</div>",NA,null,fixation,2020-06-12T02:31:19Z,NA,NA,NA,NA,NA,sub20
NA,mars-trial,46,151778,0.0-10.0-1.14,"""event"",""trial"",""time""
""fullscreenenter"",""0"",""7823""
","
","
","""event"",""trial"",""time""
""fullscreenenter"",""0"",""7823""
","
",4190.175000000629,<img style='border: 4px solid darkgrey;' src='img/tf1_15_M_ss2.jpeg'></img>,1,NA,exp,NA,1,<img src='img/tf1_15_T1_ss2_md.jpeg'></img>,0,FALSE,NA,sub20
NA,html-keyboard-response,47,152281,0.0-10.0-0.15,"""event"",""trial"",""time""
""fullscreenenter"",""0"",""7823""
","
","
","""event"",""trial"",""time""
""fullscreenenter"",""0"",""7823""
","
",null,"<div style=""font-size:60px;"">+</div>",NA,null,fixation,2020-06-12T02:31:24Z,NA,NA,NA,NA,NA,sub20
NA,mars-trial,48,157228,0.0-10.0-1.15,"""event"",""trial"",""time""
""fullscreenenter"",""0"",""7823""
","
","
","""event"",""trial"",""time""
""fullscreenenter"",""0"",""7823""
","
",4342.494999999879,<img style='border: 4px solid darkgrey;' src='img/tf1_16_M_ss3.jpeg'></img>,3,NA,exp,NA,0,<img src='img/tf1_16_T1_ss3_md.jpeg'></img>,0,TRUE,NA,sub20
NA,html-keyboard-response,49,157730,0.0-10.0-0.16,"""event"",""trial"",""time""
""fullscreenenter"",""0"",""7823""
","
","
","""event"",""trial"",""time""
""fullscreenenter"",""0"",""7823""
","
",null,"<div style=""font-size:60px;"">+</div>",NA,null,fixation,2020-06-12T02:31:30Z,NA,NA,NA,NA,NA,sub20
NA,mars-trial,50,163138,0.0-10.0-1.16,"""event"",""trial"",""time""
""fullscreenenter"",""0"",""7823""
","
","
","""event"",""trial"",""time""
""fullscreenenter"",""0"",""7823""
","
",4803.219999999797,<img style='border: 4px solid darkgrey;' src='img/tf1_17_M_ss1.jpeg'></img>,3,NA,exp,NA,2,<img src='img/tf1_17_T1_ss1_md.jpeg'></img>,0,FALSE,NA,sub20
NA,html-keyboard-response,51,163641,0.0-10.0-0.17,"""event"",""trial"",""time""
""fullscreenenter"",""0"",""7823""
","
","
","""event"",""trial"",""time""
""fullscreenenter"",""0"",""7823""
","
",null,"<div style=""font-size:60px;"">+</div>",NA,null,fixation,2020-06-12T02:31:36Z,NA,NA,NA,NA,NA,sub20
NA,mars-trial,52,171500,0.0-10.0-1.17,"""event"",""trial"",""time""
""fullscreenenter"",""0"",""7823""
","
","
","""event"",""trial"",""time""
""fullscreenenter"",""0"",""7823""
","
",7253.5250000000815,<img style='border: 4px solid darkgrey;' src='img/tf1_18_M_ss2.jpeg'></img>,1,NA,exp,NA,1,<img src='img/tf1_18_T1_ss2_md.jpeg'></img>,0,FALSE,NA,sub20
NA,html-keyboard-response,53,172002,0.0-10.0-0.18,"""event"",""trial"",""time""
""fullscreenenter"",""0"",""7823""
","
","
","""event"",""trial"",""time""
""fullscreenenter"",""0"",""7823""
","
",null,"<div style=""font-size:60px;"">+</div>",NA,null,fixation,2020-06-12T02:31:44Z,NA,NA,NA,NA,NA,sub20
NA,mars-trial,54,178470,0.0-10.0-1.18,"""event"",""trial"",""time""
""fullscreenenter"",""0"",""7823""
","
","
","""event"",""trial"",""time""
""fullscreenenter"",""0"",""7823""
","
",5864.054999999993,<img style='border: 4px solid darkgrey;' src='img/tf1_19_M_ss3.jpeg'></img>,3,NA,exp,NA,2,<img src='img/tf1_19_T1_ss3_md.jpeg'></img>,0,FALSE,NA,sub20
NA,html-keyboard-response,55,178972,0.0-10.0-0.19,"""event"",""trial"",""time""
""fullscreenenter"",""0"",""7823""
","
","
","""event"",""trial"",""time""
""fullscreenenter"",""0"",""7823""
","
",null,"<div style=""font-size:60px;"">+</div>",NA,null,fixation,2020-06-12T02:31:51Z,NA,NA,NA,NA,NA,sub20
NA,mars-trial,56,185542,0.0-10.0-1.19,"""event"",""trial"",""time""
""fullscreenenter"",""0"",""7823""
","
","
","""event"",""trial"",""time""
""fullscreenenter"",""0"",""7823""
","
",5965.099999999424,<img style='border: 4px solid darkgrey;' src='img/tf1_20_M_ss1.jpeg'></img>,1,NA,exp,NA,3,<img src='img/tf1_20_T1_ss1_md.jpeg'></img>,0,FALSE,NA,sub20
NA,html-keyboard-response,57,186044,0.0-10.0-0.20,"""event"",""trial"",""time""
""fullscreenenter"",""0"",""7823""
","
","
","""event"",""trial"",""time""
""fullscreenenter"",""0"",""7823""
","
",null,"<div style=""font-size:60px;"">+</div>",NA,null,fixation,2020-06-12T02:31:58Z,NA,NA,NA,NA,NA,sub20
NA,mars-trial,58,187928,0.0-10.0-1.20,"""event"",""trial"",""time""
""fullscreenenter"",""0"",""7823""
","
","
","""event"",""trial"",""time""
""fullscreenenter"",""0"",""7823""
","
",1279.4249999997264,<img style='border: 4px solid darkgrey;' src='img/tf1_21_M_ss2.jpeg'></img>,2,NA,exp,NA,1,<img src='img/tf1_21_T1_ss2_md.jpeg'></img>,0,FALSE,NA,sub20
NA,html-keyboard-response,59,188430,0.0-10.0-0.21,"""event"",""trial"",""time""
""fullscreenenter"",""0"",""7823""
","
","
","""event"",""trial"",""time""
""fullscreenenter"",""0"",""7823""
","
",null,"<div style=""font-size:60px;"">+</div>",NA,null,fixation,2020-06-12T02:32:00Z,NA,NA,NA,NA,NA,sub20
NA,mars-trial,60,191122,0.0-10.0-1.21,"""event"",""trial"",""time""
""fullscreenenter"",""0"",""7823""
","
","
","""event"",""trial"",""time""
""fullscreenenter"",""0"",""7823""
","
",2087.190000000206,<img style='border: 4px solid darkgrey;' src='img/tf1_22_M_ss3.jpeg'></img>,0,NA,exp,NA,2,<img src='img/tf1_22_T1_ss3_md.jpeg'></img>,0,FALSE,NA,sub20
NA,html-keyboard-response,61,191624,0.0-10.0-0.22,"""event"",""trial"",""time""
""fullscreenenter"",""0"",""7823""
","
","
","""event"",""trial"",""time""
""fullscreenenter"",""0"",""7823""
","
",null,"<div style=""font-size:60px;"">+</div>",NA,null,fixation,2020-06-12T02:32:04Z,NA,NA,NA,NA,NA,sub20
NA,mars-trial,62,193242,0.0-10.0-1.22,"""event"",""trial"",""time""
""fullscreenenter"",""0"",""7823""
","
","
","""event"",""trial"",""time""
""fullscreenenter"",""0"",""7823""
","
",1012.265000000305,<img style='border: 4px solid darkgrey;' src='img/tf1_23_M_ss1.jpeg'></img>,3,NA,exp,NA,2,<img src='img/tf1_23_T1_ss1_md.jpeg'></img>,0,FALSE,NA,sub20
NA,html-keyboard-response,63,193744,0.0-10.0-0.23,"""event"",""trial"",""time""
""fullscreenenter"",""0"",""7823""
","
","
","""event"",""trial"",""time""
""fullscreenenter"",""0"",""7823""
","
",null,"<div style=""font-size:60px;"">+</div>",NA,null,fixation,2020-06-12T02:32:06Z,NA,NA,NA,NA,NA,sub20
NA,mars-trial,64,194664,0.0-10.0-1.23,"""event"",""trial"",""time""
""fullscreenenter"",""0"",""7823""
","
","
","""event"",""trial"",""time""
""fullscreenenter"",""0"",""7823""
","
",314.71999999939,<img style='border: 4px solid darkgrey;' src='img/tf1_24_M_ss2.jpeg'></img>,1,NA,exp,NA,2,<img src='img/tf1_24_T1_ss2_md.jpeg'></img>,0,FALSE,NA,sub20
NA,html-keyboard-response,65,195165,0.0-10.0-0.24,"""event"",""trial"",""time""
""fullscreenenter"",""0"",""7823""
","
","
","""event"",""trial"",""time""
""fullscreenenter"",""0"",""7823""
","
",null,"<div style=""font-size:60px;"">+</div>",NA,null,fixation,2020-06-12T02:32:07Z,NA,NA,NA,NA,NA,sub20
NA,mars-trial,66,195944,0.0-10.0-1.24,"""event"",""trial"",""time""
""fullscreenenter"",""0"",""7823""
","
","
","""event"",""trial"",""time""
""fullscreenenter"",""0"",""7823""
","
",174.9850000005681,<img style='border: 4px solid darkgrey;' src='img/tf1_25_M_ss3.jpeg'></img>,2,NA,exp,NA,2,<img src='img/tf1_25_T1_ss3_md.jpeg'></img>,0,FALSE,NA,sub20
NA,html-keyboard-response,67,196446,0.0-10.0-0.25,"""event"",""trial"",""time""
""fullscreenenter"",""0"",""7823""
","
","
","""event"",""trial"",""time""
""fullscreenenter"",""0"",""7823""
","
",null,"<div style=""font-size:60px;"">+</div>",NA,null,fixation,2020-06-12T02:32:08Z,NA,NA,NA,NA,NA,sub20
NA,mars-trial,68,197499,0.0-10.0-1.25,"""event"",""trial"",""time""
""fullscreenenter"",""0"",""7823""
","
","
","""event"",""trial"",""time""
""fullscreenenter"",""0"",""7823""
","
",447.8099999996484,<img style='border: 4px solid darkgrey;' src='img/tf1_26_M_ss1.jpeg'></img>,2,NA,exp,NA,2,<img src='img/tf1_26_T1_ss1_md.jpeg'></img>,0,FALSE,NA,sub20
NA,html-keyboard-response,69,198001,0.0-10.0-0.26,"""event"",""trial"",""time""
""fullscreenenter"",""0"",""7823""
","
","
","""event"",""trial"",""time""
""fullscreenenter"",""0"",""7823""
","
",null,"<div style=""font-size:60px;"">+</div>",NA,null,fixation,2020-06-12T02:32:10Z,NA,NA,NA,NA,NA,sub20
NA,mars-trial,70,199216,0.0-10.0-1.26,"""event"",""trial"",""time""
""fullscreenenter"",""0"",""7823""
","
","
","""event"",""trial"",""time""
""fullscreenenter"",""0"",""7823""
","
",609.5350000004983,<img style='border: 4px solid darkgrey;' src='img/tf1_27_M_ss2.jpeg'></img>,3,NA,exp,NA,2,<img src='img/tf1_27_T1_ss2_md.jpeg'></img>,0,FALSE,NA,sub20
NA,html-keyboard-response,71,199718,0.0-10.0-0.27,"""event"",""trial"",""time""
""fullscreenenter"",""0"",""7823""
","
","
","""event"",""trial"",""time""
""fullscreenenter"",""0"",""7823""
","
",null,"<div style=""font-size:60px;"">+</div>",NA,null,fixation,2020-06-12T02:32:12Z,NA,NA,NA,NA,NA,sub20
NA,mars-trial,72,202654,0.0-10.0-1.27,"""event"",""trial"",""time""
""fullscreenenter"",""0"",""7823""
","
","
","""event"",""trial"",""time""
""fullscreenenter"",""0"",""7823""
","
",2330.764999999723,<img style='border: 4px solid darkgrey;' src='img/tf1_28_M_ss3.jpeg'></img>,1,NA,exp,NA,2,<img src='img/tf1_28_T1_ss3_md.jpeg'></img>,0,FALSE,NA,sub20
NA,html-keyboard-response,73,203157,0.0-10.0-0.28,"""event"",""trial"",""time""
""fullscreenenter"",""0"",""7823""
","
","
","""event"",""trial"",""time""
""fullscreenenter"",""0"",""7823""
","
",null,"<div style=""font-size:60px;"">+</div>",NA,null,fixation,2020-06-12T02:32:15Z,NA,NA,NA,NA,NA,sub20
NA,mars-trial,74,204131,0.0-10.0-1.28,"""event"",""trial"",""time""
""fullscreenenter"",""0"",""7823""
","
","
","""event"",""trial"",""time""
""fullscreenenter"",""0"",""7823""
","
",369.20999999984633,<img style='border: 4px solid darkgrey;' src='img/tf1_29_M_ss1.jpeg'></img>,2,NA,exp,NA,0,<img src='img/tf1_29_T1_ss1_md.jpeg'></img>,0,TRUE,NA,sub20
NA,html-keyboard-response,75,204633,0.0-10.0-0.29,"""event"",""trial"",""time""
""fullscreenenter"",""0"",""7823""
","
","
","""event"",""trial"",""time""
""fullscreenenter"",""0"",""7823""
","
",null,"<div style=""font-size:60px;"">+</div>",NA,null,fixation,2020-06-12T02:32:17Z,NA,NA,NA,NA,NA,sub20
NA,mars-trial,76,206176,0.0-10.0-1.29,"""event"",""trial"",""time""
""fullscreenenter"",""0"",""7823""
","
","
","""event"",""trial"",""time""
""fullscreenenter"",""0"",""7823""
","
",938.664999999688,<img style='border: 4px solid darkgrey;' src='img/tf1_30_M_ss2.jpeg'></img>,1,NA,exp,NA,0,<img src='img/tf1_30_T1_ss2_md.jpeg'></img>,0,TRUE,NA,sub20
NA,html-keyboard-response,77,206678,0.0-10.0-0.30,"""event"",""trial"",""time""
""fullscreenenter"",""0"",""7823""
","
","
","""event"",""trial"",""time""
""fullscreenenter"",""0"",""7823""
","
",null,"<div style=""font-size:60px;"">+</div>",NA,null,fixation,2020-06-12T02:32:19Z,NA,NA,NA,NA,NA,sub20
NA,mars-trial,78,208069,0.0-10.0-1.30,"""event"",""trial"",""time""
""fullscreenenter"",""0"",""7823""
","
","
","""event"",""trial"",""time""
""fullscreenenter"",""0"",""7823""
","
",786.1350000003004,<img style='border: 4px solid darkgrey;' src='img/tf1_31_M_ss3.jpeg'></img>,3,NA,exp,NA,0,<img src='img/tf1_31_T1_ss3_md.jpeg'></img>,0,TRUE,NA,sub20
NA,html-keyboard-response,79,208571,0.0-10.0-0.31,"""event"",""trial"",""time""
""fullscreenenter"",""0"",""7823""
","
","
","""event"",""trial"",""time""
""fullscreenenter"",""0"",""7823""
","
",null,"<div style=""font-size:60px;"">+</div>",NA,null,fixation,2020-06-12T02:32:20Z,NA,NA,NA,NA,NA,sub20
NA,mars-trial,80,210257,0.0-10.0-1.31,"""event"",""trial"",""time""
""fullscreenenter"",""0"",""7823""
","
","
","""event"",""trial"",""time""
""fullscreenenter"",""0"",""7823""
","
",1081.259999999922,<img style='border: 4px solid darkgrey;' src='img/tf1_32_M_ss1.jpeg'></img>,0,NA,exp,NA,3,<img src='img/tf1_32_T1_ss1_md.jpeg'></img>,0,FALSE,NA,sub20
NA,html-keyboard-response,81,210758,0.0-10.0-0.32,"""event"",""trial"",""time""
""fullscreenenter"",""0"",""7823""
","
","
","""event"",""trial"",""time""
""fullscreenenter"",""0"",""7823""
","
",null,"<div style=""font-size:60px;"">+</div>",NA,null,fixation,2020-06-12T02:32:23Z,NA,NA,NA,NA,NA,sub20
NA,mars-trial,82,212050,0.0-10.0-1.32,"""event"",""trial"",""time""
""fullscreenenter"",""0"",""7823""
","
","
","""event"",""trial"",""time""
""fullscreenenter"",""0"",""7823""
","
",687.65000000078,<img style='border: 4px solid darkgrey;' src='img/tf1_33_M_ss2.jpeg'></img>,2,NA,exp,NA,0,<img src='img/tf1_33_T1_ss2_md.jpeg'></img>,0,TRUE,NA,sub20
NA,html-keyboard-response,83,212553,0.0-10.0-0.33,"""event"",""trial"",""time""
""fullscreenenter"",""0"",""7823""
","
","
","""event"",""trial"",""time""
""fullscreenenter"",""0"",""7823""
","
",null,"<div style=""font-size:60px;"">+</div>",NA,null,fixation,2020-06-12T02:32:24Z,NA,NA,NA,NA,NA,sub20
NA,mars-trial,84,213693,0.0-10.0-1.33,"""event"",""trial"",""time""
""fullscreenenter"",""0"",""7823""
","
","
","""event"",""trial"",""time""
""fullscreenenter"",""0"",""7823""
","
",535.7749999993539,<img style='border: 4px solid darkgrey;' src='img/tf1_34_M_ss3.jpeg'></img>,1,NA,exp,NA,1,<img src='img/tf1_34_T1_ss3_md.jpeg'></img>,0,FALSE,NA,sub20
NA,html-keyboard-response,85,214196,0.0-10.0-0.34,"""event"",""trial"",""time""
""fullscreenenter"",""0"",""7823""
","
","
","""event"",""trial"",""time""
""fullscreenenter"",""0"",""7823""
","
",null,"<div style=""font-size:60px;"">+</div>",NA,null,fixation,2020-06-12T02:32:26Z,NA,NA,NA,NA,NA,sub20
NA,mars-trial,86,215410,0.0-10.0-1.34,"""event"",""trial"",""time""
""fullscreenenter"",""0"",""7823""
","
","
","""event"",""trial"",""time""
""fullscreenenter"",""0"",""7823""
","
",609.9300000005169,<img style='border: 4px solid darkgrey;' src='img/tf1_35_M_ss1.jpeg'></img>,3,NA,exp,NA,1,<img src='img/tf1_35_T1_ss1_md.jpeg'></img>,0,FALSE,NA,sub20
NA,html-keyboard-response,87,215912,0.0-10.0-0.35,"""event"",""trial"",""time""
""fullscreenenter"",""0"",""7823""
","
","
","""event"",""trial"",""time""
""fullscreenenter"",""0"",""7823""
","
",null,"<div style=""font-size:60px;"">+</div>",NA,null,fixation,2020-06-12T02:32:28Z,NA,NA,NA,NA,NA,sub20
NA,mars-trial,88,217107,0.0-10.0-1.35,"""event"",""trial"",""time""
""fullscreenenter"",""0"",""7823""
","
","
","""event"",""trial"",""time""
""fullscreenenter"",""0"",""7823""
","
",590.7250000000349,<img style='border: 4px solid darkgrey;' src='img/tf1_36_M_ss2.jpeg'></img>,2,NA,exp,NA,2,<img src='img/tf1_36_T1_ss2_md.jpeg'></img>,0,FALSE,NA,sub20
NA,html-keyboard-response,89,217608,0.0-10.0-0.36,"""event"",""trial"",""time""
""fullscreenenter"",""0"",""7823""
","
","
","""event"",""trial"",""time""
""fullscreenenter"",""0"",""7823""
","
",null,"<div style=""font-size:60px;"">+</div>",NA,null,fixation,2020-06-12T02:32:30Z,NA,NA,NA,NA,NA,sub20
NA,mars-trial,90,218627,0.0-10.0-1.36,"""event"",""trial"",""time""
""fullscreenenter"",""0"",""7823""
","
","
","""event"",""trial"",""time""
""fullscreenenter"",""0"",""7823""
","
",414.2400000000489,<img style='border: 4px solid darkgrey;' src='img/tf1_37_M_ss3.jpeg'></img>,2,NA,exp,NA,0,<img src='img/tf1_37_T1_ss3_md.jpeg'></img>,0,TRUE,NA,sub20
NA,html-keyboard-response,91,219129,0.0-10.0-0.37,"""event"",""trial"",""time""
""fullscreenenter"",""0"",""7823""
","
","
","""event"",""trial"",""time""
""fullscreenenter"",""0"",""7823""
","
",null,"<div style=""font-size:60px;"">+</div>",NA,null,fixation,2020-06-12T02:32:31Z,NA,NA,NA,NA,NA,sub20
NA,mars-trial,92,220357,0.0-10.0-1.37,"""event"",""trial"",""time""
""fullscreenenter"",""0"",""7823""
","
","
","""event"",""trial"",""time""
""fullscreenenter"",""0"",""7823""
","
",624.3899999999558,<img style='border: 4px solid darkgrey;' src='img/tf1_38_M_ss1.jpeg'></img>,0,NA,exp,NA,2,<img src='img/tf1_38_T1_ss1_md.jpeg'></img>,0,FALSE,NA,sub20
NA,html-keyboard-response,93,220859,0.0-10.0-0.38,"""event"",""trial"",""time""
""fullscreenenter"",""0"",""7823""
","
","
","""event"",""trial"",""time""
""fullscreenenter"",""0"",""7823""
","
",null,"<div style=""font-size:60px;"">+</div>",NA,null,fixation,2020-06-12T02:32:33Z,NA,NA,NA,NA,NA,sub20
NA,mars-trial,94,222043,0.0-10.0-1.38,"""event"",""trial"",""time""
""fullscreenenter"",""0"",""7823""
","
","
","""event"",""trial"",""time""
""fullscreenenter"",""0"",""7823""
","
",577.4400000000314,<img style='border: 4px solid darkgrey;' src='img/tf1_39_M_ss2.jpeg'></img>,3,NA,exp,NA,3,<img src='img/tf1_39_T1_ss2_md.jpeg'></img>,0,FALSE,NA,sub20
NA,html-keyboard-response,95,222544,0.0-10.0-0.39,"""event"",""trial"",""time""
""fullscreenenter"",""0"",""7823""
","
","
","""event"",""trial"",""time""
""fullscreenenter"",""0"",""7823""
","
",null,"<div style=""font-size:60px;"">+</div>",NA,null,fixation,2020-06-12T02:32:34Z,NA,NA,NA,NA,NA,sub20
NA,mars-trial,96,223824,0.0-10.0-1.39,"""event"",""trial"",""time""
""fullscreenenter"",""0"",""7823""
","
","
","""event"",""trial"",""time""
""fullscreenenter"",""0"",""7823""
","
",675.3749999997963,<img style='border: 4px solid darkgrey;' src='img/tf1_40_M_ss3.jpeg'></img>,0,NA,exp,NA,1,<img src='img/tf1_40_T1_ss3_md.jpeg'></img>,0,FALSE,NA,sub20
NA,html-keyboard-response,97,224326,0.0-10.0-0.40,"""event"",""trial"",""time""
""fullscreenenter"",""0"",""7823""
","
","
","""event"",""trial"",""time""
""fullscreenenter"",""0"",""7823""
","
",null,"<div style=""font-size:60px;"">+</div>",NA,null,fixation,2020-06-12T02:32:36Z,NA,NA,NA,NA,NA,sub20
NA,mars-trial,98,225750,0.0-10.0-1.40,"""event"",""trial"",""time""
""fullscreenenter"",""0"",""7823""
","
","
","""event"",""trial"",""time""
""fullscreenenter"",""0"",""7823""
","
",819.6750000006286,<img style='border: 4px solid darkgrey;' src='img/tf1_41_M_ss1.jpeg'></img>,1,NA,exp,NA,3,<img src='img/tf1_41_T1_ss1_md.jpeg'></img>,0,FALSE,NA,sub20
NA,html-keyboard-response,99,226253,0.0-10.0-0.41,"""event"",""trial"",""time""
""fullscreenenter"",""0"",""7823""
","
","
","""event"",""trial"",""time""
""fullscreenenter"",""0"",""7823""
","
",null,"<div style=""font-size:60px;"">+</div>",NA,null,fixation,2020-06-12T02:32:38Z,NA,NA,NA,NA,NA,sub20
NA,mars-trial,100,228277,0.0-10.0-1.41,"""event"",""trial"",""time""
""fullscreenenter"",""0"",""7823""
","
","
","""event"",""trial"",""time""
""fullscreenenter"",""0"",""7823""
","
",1418.829999999638,<img style='border: 4px solid darkgrey;' src='img/tf1_42_M_ss2.jpeg'></img>,2,NA,exp,NA,0,<img src='img/tf1_42_T1_ss2_md.jpeg'></img>,0,TRUE,NA,sub20
NA,html-keyboard-response,101,228779,0.0-10.0-0.42,"""event"",""trial"",""time""
""fullscreenenter"",""0"",""7823""
","
","
","""event"",""trial"",""time""
""fullscreenenter"",""0"",""7823""
","
",null,"<div style=""font-size:60px;"">+</div>",NA,null,fixation,2020-06-12T02:32:41Z,NA,NA,NA,NA,NA,sub20
NA,mars-trial,102,231046,0.0-10.0-1.42,"""event"",""trial"",""time""
""fullscreenenter"",""0"",""7823""
","
","
","""event"",""trial"",""time""
""fullscreenenter"",""0"",""7823""
","
",1662.9350000002887,<img style='border: 4px solid darkgrey;' src='img/tf1_43_M_ss3.jpeg'></img>,1,NA,exp,NA,1,<img src='img/tf1_43_T1_ss3_md.jpeg'></img>,0,FALSE,NA,sub20
NA,html-keyboard-response,103,231548,0.0-10.0-0.43,"""event"",""trial"",""time""
""fullscreenenter"",""0"",""7823""
","
","
","""event"",""trial"",""time""
""fullscreenenter"",""0"",""7823""
","
",null,"<div style=""font-size:60px;"">+</div>",NA,null,fixation,2020-06-12T02:32:43Z,NA,NA,NA,NA,NA,sub20
NA,mars-trial,104,233979,0.0-10.0-1.43,"""event"",""trial"",""time""
""fullscreenenter"",""0"",""7823""
","
","
","""event"",""trial"",""time""
""fullscreenenter"",""0"",""7823""
","
",1823.494999999646,<img style='border: 4px solid darkgrey;' src='img/tf1_44_M_ss1.jpeg'></img>,2,NA,exp,NA,1,<img src='img/tf1_44_T1_ss1_md.jpeg'></img>,0,FALSE,NA,sub20
NA,html-keyboard-response,105,234482,0.0-10.0-0.44,"""event"",""trial"",""time""
""fullscreenenter"",""0"",""7823""
","
","
","""event"",""trial"",""time""
""fullscreenenter"",""0"",""7823""
","
",null,"<div style=""font-size:60px;"">+</div>",NA,null,fixation,2020-06-12T02:32:46Z,NA,NA,NA,NA,NA,sub20
NA,mars-trial,106,238181,0.0-10.0-1.44,"""event"",""trial"",""time""
""fullscreenenter"",""0"",""7823""
","
","
","""event"",""trial"",""time""
""fullscreenenter"",""0"",""7823""
","
",3093.765000000538,<img style='border: 4px solid darkgrey;' src='img/tf1_45_M_ss2.jpeg'></img>,1,NA,exp,NA,3,<img src='img/tf1_45_T1_ss2_md.jpeg'></img>,0,FALSE,NA,sub20
NA,html-keyboard-response,107,238683,0.0-10.0-0.45,"""event"",""trial"",""time""
""fullscreenenter"",""0"",""7823""
","
","
","""event"",""trial"",""time""
""fullscreenenter"",""0"",""7823""
","
",null,"<div style=""font-size:60px;"">+</div>",NA,null,fixation,2020-06-12T02:32:51Z,NA,NA,NA,NA,NA,sub20
NA,mars-trial,108,242975,0.0-10.0-1.45,"""event"",""trial"",""time""
""fullscreenenter"",""0"",""7823""
","
","
","""event"",""trial"",""time""
""fullscreenenter"",""0"",""7823""
","
",3686.6849999996775,<img style='border: 4px solid darkgrey;' src='img/tf1_46_M_ss3.jpeg'></img>,0,NA,exp,NA,0,<img src='img/tf1_46_T1_ss3_md.jpeg'></img>,0,TRUE,NA,sub20
NA,html-keyboard-response,109,243477,0.0-10.0-0.46,"""event"",""trial"",""time""
""fullscreenenter"",""0"",""7823""
","
","
","""event"",""trial"",""time""
""fullscreenenter"",""0"",""7823""
","
",null,"<div style=""font-size:60px;"">+</div>",NA,null,fixation,2020-06-12T02:32:55Z,NA,NA,NA,NA,NA,sub20
NA,mars-trial,110,247745,0.0-10.0-1.46,"""event"",""trial"",""time""
""fullscreenenter"",""0"",""7823""
","
","
","""event"",""trial"",""time""
""fullscreenenter"",""0"",""7823""
","
",3662.984999999928,<img style='border: 4px solid darkgrey;' src='img/tf1_47_M_ss1.jpeg'></img>,3,NA,exp,NA,0,<img src='img/tf1_47_T1_ss1_md.jpeg'></img>,0,TRUE,NA,sub20
NA,html-keyboard-response,111,248248,0.0-10.0-0.47,"""event"",""trial"",""time""
""fullscreenenter"",""0"",""7823""
","
","
","""event"",""trial"",""time""
""fullscreenenter"",""0"",""7823""
","
",null,"<div style=""font-size:60px;"">+</div>",NA,null,fixation,2020-06-12T02:33:00Z,NA,NA,NA,NA,NA,sub20
NA,mars-trial,112,254783,0.0-10.0-1.47,"""event"",""trial"",""time""
""fullscreenenter"",""0"",""7823""
","
","
","""event"",""trial"",""time""
""fullscreenenter"",""0"",""7823""
","
",5930.879999999859,<img style='border: 4px solid darkgrey;' src='img/tf1_48_M_ss2.jpeg'></img>,3,NA,exp,NA,2,<img src='img/tf1_48_T1_ss2_md.jpeg'></img>,0,FALSE,NA,sub20
NA,html-keyboard-response,113,255285,0.0-10.0-0.48,"""event"",""trial"",""time""
""fullscreenenter"",""0"",""7823""
","
","
","""event"",""trial"",""time""
""fullscreenenter"",""0"",""7823""
","
",null,"<div style=""font-size:60px;"">+</div>",NA,null,fixation,2020-06-12T02:33:07Z,NA,NA,NA,NA,NA,sub20
NA,mars-trial,114,259446,0.0-10.0-1.48,"""event"",""trial"",""time""
""fullscreenenter"",""0"",""7823""
","
","
","""event"",""trial"",""time""
""fullscreenenter"",""0"",""7823""
","
",3555.6850000002887,<img style='border: 4px solid darkgrey;' src='img/tf1_49_M_ss3.jpeg'></img>,0,NA,exp,NA,1,<img src='img/tf1_49_T1_ss3_md.jpeg'></img>,0,FALSE,NA,sub20
NA,html-keyboard-response,115,259947,0.0-10.0-0.49,"""event"",""trial"",""time""
""fullscreenenter"",""0"",""7823""
","
","
","""event"",""trial"",""time""
""fullscreenenter"",""0"",""7823""
","
",null,"<div style=""font-size:60px;"">+</div>",NA,null,fixation,2020-06-12T02:33:12Z,NA,NA,NA,NA,NA,sub20
NA,mars-trial,116,261166,0.0-10.0-1.49,"""event"",""trial"",""time""
""fullscreenenter"",""0"",""7823""
","
","
","""event"",""trial"",""time""
""fullscreenenter"",""0"",""7823""
","
",613.094999999681,<img style='border: 4px solid darkgrey;' src='img/tf1_50_M_ss1.jpeg'></img>,1,NA,exp,NA,0,<img src='img/tf1_50_T1_ss1_md.jpeg'></img>,0,TRUE,NA,sub20
NA,html-keyboard-response,117,261668,0.0-10.0-0.50,"""event"",""trial"",""time""
""fullscreenenter"",""0"",""7823""
","
","
","""event"",""trial"",""time""
""fullscreenenter"",""0"",""7823""
","
",null,"<div style=""font-size:60px;"">+</div>",NA,null,fixation,2020-06-12T02:33:14Z,NA,NA,NA,NA,NA,sub20
NA,mars-trial,118,263231,0.0-10.0-1.50,"""event"",""trial"",""time""
""fullscreenenter"",""0"",""7823""
","
","
","""event"",""trial"",""time""
""fullscreenenter"",""0"",""7823""
","
",959.214999999851,<img style='border: 4px solid darkgrey;' src='img/tf1_51_M_ss2.jpeg'></img>,2,NA,exp,NA,2,<img src='img/tf1_51_T1_ss2_md.jpeg'></img>,0,FALSE,NA,sub20
NA,html-keyboard-response,119,263733,0.0-10.0-0.51,"""event"",""trial"",""time""
""fullscreenenter"",""0"",""7823""
","
","
","""event"",""trial"",""time""
""fullscreenenter"",""0"",""7823""
","
",null,"<div style=""font-size:60px;"">+</div>",NA,null,fixation,2020-06-12T02:33:16Z,NA,NA,NA,NA,NA,sub20
NA,mars-trial,120,265411,0.0-10.0-1.51,"""event"",""trial"",""time""
""fullscreenenter"",""0"",""7823""
","
","
","""event"",""trial"",""time""
""fullscreenenter"",""0"",""7823""
","
",1075.0000000006985,<img style='border: 4px solid darkgrey;' src='img/tf1_52_M_ss3.jpeg'></img>,0,NA,exp,NA,1,<img src='img/tf1_52_T1_ss3_md.jpeg'></img>,0,FALSE,NA,sub20
NA,html-keyboard-response,121,265913,0.0-10.0-0.52,"""event"",""trial"",""time""
""fullscreenenter"",""0"",""7823""
","
","
","""event"",""trial"",""time""
""fullscreenenter"",""0"",""7823""
","
",null,"<div style=""font-size:60px;"">+</div>",NA,null,fixation,2020-06-12T02:33:18Z,NA,NA,NA,NA,NA,sub20
NA,mars-trial,122,267105,0.0-10.0-1.52,"""event"",""trial"",""time""
""fullscreenenter"",""0"",""7823""
","
","
","""event"",""trial"",""time""
""fullscreenenter"",""0"",""7823""
","
",587.8149999998859,<img style='border: 4px solid darkgrey;' src='img/tf1_53_M_ss1.jpeg'></img>,3,NA,exp,NA,1,<img src='img/tf1_53_T1_ss1_md.jpeg'></img>,0,FALSE,NA,sub20
NA,html-keyboard-response,123,267608,0.0-10.0-0.53,"""event"",""trial"",""time""
""fullscreenenter"",""0"",""7823""
","
","
","""event"",""trial"",""time""
""fullscreenenter"",""0"",""7823""
","
",null,"<div style=""font-size:60px;"">+</div>",NA,null,fixation,2020-06-12T02:33:20Z,NA,NA,NA,NA,NA,sub20
NA,mars-trial,124,270257,0.0-10.0-1.53,"""event"",""trial"",""time""
""fullscreenenter"",""0"",""7823""
","
","
","""event"",""trial"",""time""
""fullscreenenter"",""0"",""7823""
","
",2043.649999999674,<img style='border: 4px solid darkgrey;' src='img/tf1_54_M_ss2.jpeg'></img>,1,NA,exp,NA,3,<img src='img/tf1_54_T1_ss2_md.jpeg'></img>,0,FALSE,NA,sub20
NA,html-keyboard-response,125,270759,0.0-10.0-0.54,"""event"",""trial"",""time""
""fullscreenenter"",""0"",""7823""
","
","
","""event"",""trial"",""time""
""fullscreenenter"",""0"",""7823""
","
",null,"<div style=""font-size:60px;"">+</div>",NA,null,fixation,2020-06-12T02:33:23Z,NA,NA,NA,NA,NA,sub20
NA,mars-trial,126,272707,0.0-10.0-1.54,"""event"",""trial"",""time""
""fullscreenenter"",""0"",""7823""
","
","
","""event"",""trial"",""time""
""fullscreenenter"",""0"",""7823""
","
",1343.5649999991874,<img style='border: 4px solid darkgrey;' src='img/tf1_55_M_ss3.jpeg'></img>,0,NA,exp,NA,2,<img src='img/tf1_55_T1_ss3_md.jpeg'></img>,0,FALSE,NA,sub20
NA,html-keyboard-response,127,273209,0.0-10.0-0.55,"""event"",""trial"",""time""
""fullscreenenter"",""0"",""7823""
","
","
","""event"",""trial"",""time""
""fullscreenenter"",""0"",""7823""
","
",null,"<div style=""font-size:60px;"">+</div>",NA,null,fixation,2020-06-12T02:33:25Z,NA,NA,NA,NA,NA,sub20
NA,mars-trial,128,275323,0.0-10.0-1.55,"""event"",""trial"",""time""
""fullscreenenter"",""0"",""7823""
","
","
","""event"",""trial"",""time""
""fullscreenenter"",""0"",""7823""
","
",1508.1149999996414,<img style='border: 4px solid darkgrey;' src='img/tf1_56_M_ss1.jpeg'></img>,3,NA,exp,NA,1,<img src='img/tf1_56_T1_ss1_md.jpeg'></img>,0,FALSE,NA,sub20
NA,html-keyboard-response,129,275825,0.0-10.0-0.56,"""event"",""trial"",""time""
""fullscreenenter"",""0"",""7823""
","
","
","""event"",""trial"",""time""
""fullscreenenter"",""0"",""7823""
","
",null,"<div style=""font-size:60px;"">+</div>",NA,null,fixation,2020-06-12T02:33:28Z,NA,NA,NA,NA,NA,sub20
NA,mars-trial,130,279787,0.0-10.0-1.56,"""event"",""trial"",""time""
""fullscreenenter"",""0"",""7823""
","
","
","""event"",""trial"",""time""
""fullscreenenter"",""0"",""7823""
","
",3357.8399999996764,<img style='border: 4px solid darkgrey;' src='img/tf1_57_M_ss2.jpeg'></img>,0,NA,exp,NA,0,<img src='img/tf1_57_T1_ss2_md.jpeg'></img>,0,TRUE,NA,sub20
NA,html-keyboard-response,131,280288,0.0-10.0-0.57,"""event"",""trial"",""time""
""fullscreenenter"",""0"",""7823""
","
","
","""event"",""trial"",""time""
""fullscreenenter"",""0"",""7823""
","
",null,"<div style=""font-size:60px;"">+</div>",NA,null,fixation,2020-06-12T02:33:32Z,NA,NA,NA,NA,NA,sub20
NA,mars-trial,132,284210,0.0-10.0-1.57,"""event"",""trial"",""time""
""fullscreenenter"",""0"",""7823""
","
","
","""event"",""trial"",""time""
""fullscreenenter"",""0"",""7823""
","
",3316.5200000003097,<img style='border: 4px solid darkgrey;' src='img/tf1_58_M_ss3.jpeg'></img>,2,NA,exp,NA,3,<img src='img/tf1_58_T1_ss3_md.jpeg'></img>,0,FALSE,NA,sub20
NA,html-keyboard-response,133,284712,0.0-10.0-0.58,"""event"",""trial"",""time""
""fullscreenenter"",""0"",""7823""
","
","
","""event"",""trial"",""time""
""fullscreenenter"",""0"",""7823""
","
",null,"<div style=""font-size:60px;"">+</div>",NA,null,fixation,2020-06-12T02:33:37Z,NA,NA,NA,NA,NA,sub20
NA,mars-trial,134,286539,0.0-10.0-1.58,"""event"",""trial"",""time""
""fullscreenenter"",""0"",""7823""
","
","
","""event"",""trial"",""time""
""fullscreenenter"",""0"",""7823""
","
",1223.24500000017,<img style='border: 4px solid darkgrey;' src='img/tf1_59_M_ss1.jpeg'></img>,3,NA,exp,NA,0,<img src='img/tf1_59_T1_ss1_md.jpeg'></img>,0,TRUE,NA,sub20
NA,html-keyboard-response,135,287041,0.0-10.0-0.59,"""event"",""trial"",""time""
""fullscreenenter"",""0"",""7823""
","
","
","""event"",""trial"",""time""
""fullscreenenter"",""0"",""7823""
","
",null,"<div style=""font-size:60px;"">+</div>",NA,null,fixation,2020-06-12T02:33:39Z,NA,NA,NA,NA,NA,sub20
NA,mars-trial,136,288916,0.0-10.0-1.59,"""event"",""trial"",""time""
""fullscreenenter"",""0"",""7823""
","
","
","""event"",""trial"",""time""
""fullscreenenter"",""0"",""7823""
","
",1269.5299999995623,<img style='border: 4px solid darkgrey;' src='img/tf1_60_M_ss2.jpeg'></img>,1,NA,exp,NA,2,<img src='img/tf1_60_T1_ss2_md.jpeg'></img>,0,FALSE,NA,sub20
NA,html-keyboard-response,137,289418,0.0-10.0-0.60,"""event"",""trial"",""time""
""fullscreenenter"",""0"",""7823""
","
","
","""event"",""trial"",""time""
""fullscreenenter"",""0"",""7823""
","
",null,"<div style=""font-size:60px;"">+</div>",NA,null,fixation,2020-06-12T02:33:41Z,NA,NA,NA,NA,NA,sub20
NA,mars-trial,138,291266,0.0-10.0-1.60,"""event"",""trial"",""time""
""fullscreenenter"",""0"",""7823""
","
","
","""event"",""trial"",""time""
""fullscreenenter"",""0"",""7823""
","
",1241.3550000000978,<img style='border: 4px solid darkgrey;' src='img/tf1_61_M_ss3.jpeg'></img>,1,NA,exp,NA,0,<img src='img/tf1_61_T1_ss3_md.jpeg'></img>,0,TRUE,NA,sub20
NA,html-keyboard-response,139,291768,0.0-10.0-0.61,"""event"",""trial"",""time""
""fullscreenenter"",""0"",""7823""
","
","
","""event"",""trial"",""time""
""fullscreenenter"",""0"",""7823""
","
",null,"<div style=""font-size:60px;"">+</div>",NA,null,fixation,2020-06-12T02:33:44Z,NA,NA,NA,NA,NA,sub20
NA,mars-trial,140,293522,0.0-10.0-1.61,"""event"",""trial"",""time""
""fullscreenenter"",""0"",""7823""
","
","
","""event"",""trial"",""time""
""fullscreenenter"",""0"",""7823""
","
",1150.1549999993877,<img style='border: 4px solid darkgrey;' src='img/tf1_62_M_ss1.jpeg'></img>,0,NA,exp,NA,3,<img src='img/tf1_62_T1_ss1_md.jpeg'></img>,0,FALSE,NA,sub20
NA,html-keyboard-response,141,294024,0.0-10.0-0.62,"""event"",""trial"",""time""
""fullscreenenter"",""0"",""7823""
","
","
","""event"",""trial"",""time""
""fullscreenenter"",""0"",""7823""
","
",null,"<div style=""font-size:60px;"">+</div>",NA,null,fixation,2020-06-12T02:33:46Z,NA,NA,NA,NA,NA,sub20
NA,mars-trial,142,295457,0.0-10.0-1.62,"""event"",""trial"",""time""
""fullscreenenter"",""0"",""7823""
","
","
","""event"",""trial"",""time""
""fullscreenenter"",""0"",""7823""
","
",828.6650000000373,<img style='border: 4px solid darkgrey;' src='img/tf1_63_M_ss2.jpeg'></img>,3,NA,exp,NA,2,<img src='img/tf1_63_T1_ss2_md.jpeg'></img>,0,FALSE,NA,sub20
NA,html-keyboard-response,143,295958,0.0-10.0-0.63,"""event"",""trial"",""time""
""fullscreenenter"",""0"",""7823""
","
","
","""event"",""trial"",""time""
""fullscreenenter"",""0"",""7823""
","
",null,"<div style=""font-size:60px;"">+</div>",NA,null,fixation,2020-06-12T02:33:48Z,NA,NA,NA,NA,NA,sub20
NA,mars-trial,144,297505,0.0-10.0-1.63,"""event"",""trial"",""time""
""fullscreenenter"",""0"",""7823""
","
","
","""event"",""trial"",""time""
""fullscreenenter"",""0"",""7823""
","
",941.8249999998952,<img style='border: 4px solid darkgrey;' src='img/tf1_64_M_ss3.jpeg'></img>,2,NA,exp,NA,3,<img src='img/tf1_64_T1_ss3_md.jpeg'></img>,0,FALSE,NA,sub20
NA,html-keyboard-response,145,298007,0.0-10.0-0.64,"""event"",""trial"",""time""
""fullscreenenter"",""0"",""7823""
","
","
","""event"",""trial"",""time""
""fullscreenenter"",""0"",""7823""
","
",null,"<div style=""font-size:60px;"">+</div>",NA,null,fixation,2020-06-12T02:33:50Z,NA,NA,NA,NA,NA,sub20
NA,mars-trial,146,299585,0.0-10.0-1.64,"""event"",""trial"",""time""
""fullscreenenter"",""0"",""7823""
","
","
","""event"",""trial"",""time""
""fullscreenenter"",""0"",""7823""
","
",972.3299999995506,<img style='border: 4px solid darkgrey;' src='img/tf1_65_M_ss1.jpeg'></img>,2,NA,exp,NA,3,<img src='img/tf1_65_T1_ss1_md.jpeg'></img>,0,FALSE,NA,sub20
NA,html-keyboard-response,147,300087,0.0-10.0-0.65,"""event"",""trial"",""time""
""fullscreenenter"",""0"",""7823""
","
","
","""event"",""trial"",""time""
""fullscreenenter"",""0"",""7823""
","
",null,"<div style=""font-size:60px;"">+</div>",NA,null,fixation,2020-06-12T02:33:52Z,NA,NA,NA,NA,NA,sub20
NA,mars-trial,148,301267,0.0-10.0-1.65,"""event"",""trial"",""time""
""fullscreenenter"",""0"",""7823""
","
","
","""event"",""trial"",""time""
""fullscreenenter"",""0"",""7823""
","
",575.0450000005076,<img style='border: 4px solid darkgrey;' src='img/tf1_66_M_ss2.jpeg'></img>,0,NA,exp,NA,2,<img src='img/tf1_66_T1_ss2_md.jpeg'></img>,0,FALSE,NA,sub20
NA,html-keyboard-response,149,301769,0.0-10.0-0.66,"""event"",""trial"",""time""
""fullscreenenter"",""0"",""7823""
","
","
","""event"",""trial"",""time""
""fullscreenenter"",""0"",""7823""
","
",null,"<div style=""font-size:60px;"">+</div>",NA,null,fixation,2020-06-12T02:33:54Z,NA,NA,NA,NA,NA,sub20
NA,mars-trial,150,302592,0.0-10.0-1.66,"""event"",""trial"",""time""
""fullscreenenter"",""0"",""7823""
","
","
","""event"",""trial"",""time""
""fullscreenenter"",""0"",""7823""
","
",218.65500000061002,<img style='border: 4px solid darkgrey;' src='img/tf1_67_M_ss3.jpeg'></img>,1,NA,exp,NA,1,<img src='img/tf1_67_T1_ss3_md.jpeg'></img>,0,FALSE,NA,sub20
NA,html-keyboard-response,151,303094,0.0-10.0-0.67,"""event"",""trial"",""time""
""fullscreenenter"",""0"",""7823""
","
","
","""event"",""trial"",""time""
""fullscreenenter"",""0"",""7823""
","
",null,"<div style=""font-size:60px;"">+</div>",NA,null,fixation,2020-06-12T02:33:55Z,NA,NA,NA,NA,NA,sub20
NA,mars-trial,152,306663,0.0-10.0-1.67,"""event"",""trial"",""time""
""fullscreenenter"",""0"",""7823""
","
","
","""event"",""trial"",""time""
""fullscreenenter"",""0"",""7823""
","
",2964.140000000014,<img style='border: 4px solid darkgrey;' src='img/tf1_68_M_ss1.jpeg'></img>,3,NA,exp,NA,0,<img src='img/tf1_68_T1_ss1_md.jpeg'></img>,0,TRUE,NA,sub20
NA,html-keyboard-response,153,307165,0.0-10.0-0.68,"""event"",""trial"",""time""
""fullscreenenter"",""0"",""7823""
","
","
","""event"",""trial"",""time""
""fullscreenenter"",""0"",""7823""
","
",null,"<div style=""font-size:60px;"">+</div>",NA,null,fixation,2020-06-12T02:33:59Z,NA,NA,NA,NA,NA,sub20
NA,mars-trial,154,312059,0.0-10.0-1.68,"""event"",""trial"",""time""
""fullscreenenter"",""0"",""7823""
","
","
","""event"",""trial"",""time""
""fullscreenenter"",""0"",""7823""
","
",4289.870000000519,<img style='border: 4px solid darkgrey;' src='img/tf1_69_M_ss2.jpeg'></img>,3,NA,exp,NA,3,<img src='img/tf1_69_T1_ss2_md.jpeg'></img>,0,FALSE,NA,sub20
NA,html-keyboard-response,155,312562,0.0-10.0-0.69,"""event"",""trial"",""time""
""fullscreenenter"",""0"",""7823""
","
","
","""event"",""trial"",""time""
""fullscreenenter"",""0"",""7823""
","
",null,"<div style=""font-size:60px;"">+</div>",NA,null,fixation,2020-06-12T02:34:04Z,NA,NA,NA,NA,NA,sub20
NA,mars-trial,156,318514,0.0-10.0-1.69,"""event"",""trial"",""time""
""fullscreenenter"",""0"",""7823""
","
","
","""event"",""trial"",""time""
""fullscreenenter"",""0"",""7823""
","
",5348.340000000433,<img style='border: 4px solid darkgrey;' src='img/tf1_70_M_ss3.jpeg'></img>,3,NA,exp,NA,0,<img src='img/tf1_70_T1_ss3_md.jpeg'></img>,0,TRUE,NA,sub20
NA,html-keyboard-response,157,319017,0.0-10.0-0.70,"""event"",""trial"",""time""
""fullscreenenter"",""0"",""7823""
","
","
","""event"",""trial"",""time""
""fullscreenenter"",""0"",""7823""
","
",null,"<div style=""font-size:60px;"">+</div>",NA,null,fixation,2020-06-12T02:34:11Z,NA,NA,NA,NA,NA,sub20
NA,mars-trial,158,322510,0.0-10.0-1.70,"""event"",""trial"",""time""
""fullscreenenter"",""0"",""7823""
","
","
","""event"",""trial"",""time""
""fullscreenenter"",""0"",""7823""
","
",2887.5449999996345,<img style='border: 4px solid darkgrey;' src='img/tf1_71_M_ss1.jpeg'></img>,3,NA,exp,NA,0,<img src='img/tf1_71_T1_ss1_md.jpeg'></img>,0,TRUE,NA,sub20
NA,html-keyboard-response,159,323011,0.0-10.0-0.71,"""event"",""trial"",""time""
""fullscreenenter"",""0"",""7823""
","
","
","""event"",""trial"",""time""
""fullscreenenter"",""0"",""7823""
","
",null,"<div style=""font-size:60px;"">+</div>",NA,null,fixation,2020-06-12T02:34:15Z,NA,NA,NA,NA,NA,sub20
NA,mars-trial,160,326768,0.0-10.0-1.71,"""event"",""trial"",""time""
""fullscreenenter"",""0"",""7823""
","
","
","""event"",""trial"",""time""
""fullscreenenter"",""0"",""7823""
","
",3151.3549999999814,<img style='border: 4px solid darkgrey;' src='img/tf1_72_M_ss2.jpeg'></img>,3,NA,exp,NA,0,<img src='img/tf1_72_T1_ss2_md.jpeg'></img>,0,TRUE,NA,sub20
NA,html-keyboard-response,161,327270,0.0-10.0-0.72,"""event"",""trial"",""time""
""fullscreenenter"",""0"",""7823""
","
","
","""event"",""trial"",""time""
""fullscreenenter"",""0"",""7823""
","
",null,"<div style=""font-size:60px;"">+</div>",NA,null,fixation,2020-06-12T02:34:19Z,NA,NA,NA,NA,NA,sub20
NA,mars-trial,162,332000,0.0-10.0-1.72,"""event"",""trial"",""time""
""fullscreenenter"",""0"",""7823""
","
","
","""event"",""trial"",""time""
""fullscreenenter"",""0"",""7823""
","
",4125.815000000352,<img style='border: 4px solid darkgrey;' src='img/tf1_73_M_ss3.jpeg'></img>,2,NA,exp,NA,1,<img src='img/tf1_73_T1_ss3_md.jpeg'></img>,0,FALSE,NA,sub20
NA,html-keyboard-response,163,332502,0.0-10.0-0.73,"""event"",""trial"",""time""
""fullscreenenter"",""0"",""7823""
","
","
","""event"",""trial"",""time""
""fullscreenenter"",""0"",""7823""
","
",null,"<div style=""font-size:60px;"">+</div>",NA,null,fixation,2020-06-12T02:34:24Z,NA,NA,NA,NA,NA,sub20
NA,mars-trial,164,341314,0.0-10.0-1.73,"""event"",""trial"",""time""
""fullscreenenter"",""0"",""7823""
","
","
","""event"",""trial"",""time""
""fullscreenenter"",""0"",""7823""
","
",8208.329999999434,<img style='border: 4px solid darkgrey;' src='img/tf1_74_M_ss1.jpeg'></img>,0,NA,exp,NA,1,<img src='img/tf1_74_T1_ss1_md.jpeg'></img>,0,FALSE,NA,sub20
NA,html-keyboard-response,165,341816,0.0-10.0-0.74,"""event"",""trial"",""time""
""fullscreenenter"",""0"",""7823""
","
","
","""event"",""trial"",""time""
""fullscreenenter"",""0"",""7823""
","
",null,"<div style=""font-size:60px;"">+</div>",NA,null,fixation,2020-06-12T02:34:34Z,NA,NA,NA,NA,NA,sub20
NA,mars-trial,166,346916,0.0-10.0-1.74,"""event"",""trial"",""time""
""fullscreenenter"",""0"",""7823""
","
","
","""event"",""trial"",""time""
""fullscreenenter"",""0"",""7823""
","
",4496.014999999723,<img style='border: 4px solid darkgrey;' src='img/tf1_75_M_ss2.jpeg'></img>,3,NA,exp,NA,3,<img src='img/tf1_75_T1_ss2_md.jpeg'></img>,0,FALSE,NA,sub20
NA,html-keyboard-response,167,347418,0.0-10.0-0.75,"""event"",""trial"",""time""
""fullscreenenter"",""0"",""7823""
","
","
","""event"",""trial"",""time""
""fullscreenenter"",""0"",""7823""
","
",null,"<div style=""font-size:60px;"">+</div>",NA,null,fixation,2020-06-12T02:34:39Z,NA,NA,NA,NA,NA,sub20
NA,mars-trial,168,353098,0.0-10.0-1.75,"""event"",""trial"",""time""
""fullscreenenter"",""0"",""7823""
","
","
","""event"",""trial"",""time""
""fullscreenenter"",""0"",""7823""
","
",5075.824999999895,<img style='border: 4px solid darkgrey;' src='img/tf1_76_M_ss3.jpeg'></img>,1,NA,exp,NA,0,<img src='img/tf1_76_T1_ss3_md.jpeg'></img>,0,TRUE,NA,sub20
NA,html-keyboard-response,169,353600,0.0-10.0-0.76,"""event"",""trial"",""time""
""fullscreenenter"",""0"",""7823""
","
","
","""event"",""trial"",""time""
""fullscreenenter"",""0"",""7823""
","
",null,"<div style=""font-size:60px;"">+</div>",NA,null,fixation,2020-06-12T02:34:46Z,NA,NA,NA,NA,NA,sub20
NA,mars-trial,170,358101,0.0-10.0-1.76,"""event"",""trial"",""time""
""fullscreenenter"",""0"",""7823""
","
","
","""event"",""trial"",""time""
""fullscreenenter"",""0"",""7823""
","
",3895.8650000004563,<img style='border: 4px solid darkgrey;' src='img/tf1_77_M_ss1.jpeg'></img>,0,NA,exp,NA,1,<img src='img/tf1_77_T1_ss1_md.jpeg'></img>,0,FALSE,NA,sub20
NA,html-keyboard-response,171,358604,0.0-10.0-0.77,"""event"",""trial"",""time""
""fullscreenenter"",""0"",""7823""
","
","
","""event"",""trial"",""time""
""fullscreenenter"",""0"",""7823""
","
",null,"<div style=""font-size:60px;"">+</div>",NA,null,fixation,2020-06-12T02:34:51Z,NA,NA,NA,NA,NA,sub20
NA,mars-trial,172,360278,0.0-10.0-1.77,"""event"",""trial"",""time""
""fullscreenenter"",""0"",""7823""
","
","
","""event"",""trial"",""time""
""fullscreenenter"",""0"",""7823""
","
",1069.505000000354,<img style='border: 4px solid darkgrey;' src='img/tf1_78_M_ss2.jpeg'></img>,1,NA,exp,NA,1,<img src='img/tf1_78_T1_ss2_md.jpeg'></img>,0,FALSE,NA,sub20
NA,html-keyboard-response,173,360780,0.0-10.0-0.78,"""event"",""trial"",""time""
""fullscreenenter"",""0"",""7823""
","
","
","""event"",""trial"",""time""
""fullscreenenter"",""0"",""7823""
","
",null,"<div style=""font-size:60px;"">+</div>",NA,null,fixation,2020-06-12T02:34:53Z,NA,NA,NA,NA,NA,sub20
NA,mars-trial,174,361907,0.0-10.0-1.78,"""event"",""trial"",""time""
""fullscreenenter"",""0"",""7823""
","
","
","""event"",""trial"",""time""
""fullscreenenter"",""0"",""7823""
","
",522.2849999999744,<img style='border: 4px solid darkgrey;' src='img/tf1_79_M_ss3.jpeg'></img>,2,NA,exp,NA,1,<img src='img/tf1_79_T1_ss3_md.jpeg'></img>,0,FALSE,NA,sub20
NA,html-keyboard-response,175,362408,0.0-10.0-0.79,"""event"",""trial"",""time""
""fullscreenenter"",""0"",""7823""
","
","
","""event"",""trial"",""time""
""fullscreenenter"",""0"",""7823""
","
",null,"<div style=""font-size:60px;"">+</div>",NA,null,fixation,2020-06-12T02:34:54Z,NA,NA,NA,NA,NA,sub20
NA,mars-trial,176,365036,0.0-10.0-1.79,"""event"",""trial"",""time""
""fullscreenenter"",""0"",""7823""
","
","
","""event"",""trial"",""time""
""fullscreenenter"",""0"",""7823""
","
",2023.8799999997136,<img style='border: 4px solid darkgrey;' src='img/tf1_80_M_ss1.jpeg'></img>,3,NA,exp,NA,3,<img src='img/tf1_80_T1_ss1_md.jpeg'></img>,0,FALSE,NA,sub20
NA,audio-button-response,177,373432,0.0-11.0,"""event"",""trial"",""time""
""fullscreenenter"",""0"",""7823""
","
","
","""event"",""trial"",""time""
""fullscreenenter"",""0"",""7823""
","
",8393.874999999767,audio/mars_instructions_slide5.wav,0,NA,NA,NA,NA,NA,NA,NA,NA,sub20
