success,trial_type,trial_index,time_elapsed,internal_node_id,interactions,blur_events,focus_events,fullscreenenter_events,fullscreenexit_events,rt,stimulus,button_pressed,key_press,part,timestamp,unshuffled_button,correct_response,correct_button,correct,value,subject_id
TRUE,fullscreen,0,3332,0.0-0.0,"""event"",""trial"",""time""
""focus"",""0"",""0""
""fullscreenenter"",""0"",""2381""
","
","""event"",""trial"",""time""
""focus"",""0"",""0""
","""event"",""trial"",""time""
""fullscreenenter"",""0"",""2381""
","
",NA,NA,NA,NA,NA,NA,NA,NA,NA,NA,NA,sub134
NA,pavlovia,1,3334,0.0-1.0,"""event"",""trial"",""time""
""focus"",""0"",""0""
""fullscreenenter"",""0"",""2381""
","
","""event"",""trial"",""time""
""focus"",""0"",""0""
","""event"",""trial"",""time""
""fullscreenenter"",""0"",""2381""
","
",NA,NA,NA,NA,NA,NA,NA,NA,NA,NA,NA,sub134
NA,html-button-response,2,4483,0.0-2.0,"""event"",""trial"",""time""
""focus"",""0"",""0""
""fullscreenenter"",""0"",""2381""
","
","""event"",""trial"",""time""
""focus"",""0"",""0""
","""event"",""trial"",""time""
""fullscreenenter"",""0"",""2381""
","
",1148.0000000000018,<p>Welcome! Press START to begin.</p><br>,0,NA,NA,NA,NA,NA,NA,NA,NA,sub134
NA,audio-button-response,3,18741,0.0-3.0,"""event"",""trial"",""time""
""focus"",""0"",""0""
""fullscreenenter"",""0"",""2381""
","
","""event"",""trial"",""time""
""focus"",""0"",""0""
","""event"",""trial"",""time""
""fullscreenenter"",""0"",""2381""
","
",14250,audio/mars_instructions_slide2.wav,0,NA,NA,NA,NA,NA,NA,NA,NA,sub134
NA,audio-button-response,4,29487,0.0-4.0,"""event"",""trial"",""time""
""focus"",""0"",""0""
""fullscreenenter"",""0"",""2381""
","
","""event"",""trial"",""time""
""focus"",""0"",""0""
","""event"",""trial"",""time""
""fullscreenenter"",""0"",""2381""
","
",10745.999999999996,audio/mars_instructions_slide3.wav,0,NA,NA,NA,NA,NA,NA,NA,NA,sub134
NA,html-keyboard-response,5,29989,0.0-5.0-0.0,"""event"",""trial"",""time""
""focus"",""0"",""0""
""fullscreenenter"",""0"",""2381""
","
","""event"",""trial"",""time""
""focus"",""0"",""0""
","""event"",""trial"",""time""
""fullscreenenter"",""0"",""2381""
","
",null,"<div style=""font-size:60px;"">+</div>",NA,null,fixation,2020-06-26T18:01:18Z,NA,NA,NA,NA,NA,sub134
NA,mars-trial,6,35921,0.0-5.0-1.0,"""event"",""trial"",""time""
""focus"",""0"",""0""
""fullscreenenter"",""0"",""2381""
","
","""event"",""trial"",""time""
""focus"",""0"",""0""
","""event"",""trial"",""time""
""fullscreenenter"",""0"",""2381""
","
",3828,<img style='border: 4px solid darkgrey;' src='practice/pt1_M1.png'></img>,3,NA,practice,NA,2,<img src='practice/pt1_T1.png'></img>,0,FALSE,NA,sub134
NA,html-keyboard-response,7,36423,0.0-5.1-0.1,"""event"",""trial"",""time""
""focus"",""0"",""0""
""fullscreenenter"",""0"",""2381""
","
","""event"",""trial"",""time""
""focus"",""0"",""0""
","""event"",""trial"",""time""
""fullscreenenter"",""0"",""2381""
","
",null,"<div style=""font-size:60px;"">+</div>",NA,null,fixation,2020-06-26T18:01:24Z,NA,NA,NA,NA,NA,sub134
NA,mars-trial,8,42728,0.0-5.1-1.1,"""event"",""trial"",""time""
""focus"",""0"",""0""
""fullscreenenter"",""0"",""2381""
","
","""event"",""trial"",""time""
""focus"",""0"",""0""
","""event"",""trial"",""time""
""fullscreenenter"",""0"",""2381""
","
",4201.999999999993,<img style='border: 4px solid darkgrey;' src='practice/pt1_M1.png'></img>,1,NA,practice,NA,0,<img src='practice/pt1_T1.png'></img>,0,TRUE,NA,sub134
NA,html-keyboard-response,9,43230,0.0-6.0-0.0,"""event"",""trial"",""time""
""focus"",""0"",""0""
""fullscreenenter"",""0"",""2381""
","
","""event"",""trial"",""time""
""focus"",""0"",""0""
","""event"",""trial"",""time""
""fullscreenenter"",""0"",""2381""
","
",null,"<div style=""font-size:60px;"">+</div>",NA,null,fixation,2020-06-26T18:01:31Z,NA,NA,NA,NA,NA,sub134
NA,mars-trial,10,47424,0.0-6.0-1.0,"""event"",""trial"",""time""
""focus"",""0"",""0""
""fullscreenenter"",""0"",""2381""
","
","""event"",""trial"",""time""
""focus"",""0"",""0""
","""event"",""trial"",""time""
""fullscreenenter"",""0"",""2381""
","
",2090,<img style='border: 4px solid darkgrey;' src='practice/pt2_M1.png'></img>,2,NA,practice,NA,0,<img src='practice/pt2_T1.png'></img>,0,TRUE,NA,sub134
NA,html-keyboard-response,11,47926,0.0-7.0-0.0,"""event"",""trial"",""time""
""focus"",""0"",""0""
""fullscreenenter"",""0"",""2381""
","
","""event"",""trial"",""time""
""focus"",""0"",""0""
","""event"",""trial"",""time""
""fullscreenenter"",""0"",""2381""
","
",null,"<div style=""font-size:60px;"">+</div>",NA,null,fixation,2020-06-26T18:01:36Z,NA,NA,NA,NA,NA,sub134
NA,mars-trial,12,51449,0.0-7.0-1.0,"""event"",""trial"",""time""
""focus"",""0"",""0""
""fullscreenenter"",""0"",""2381""
","
","""event"",""trial"",""time""
""focus"",""0"",""0""
","""event"",""trial"",""time""
""fullscreenenter"",""0"",""2381""
","
",1418.9999999999927,<img style='border: 4px solid darkgrey;' src='practice/pt3_M1.png'></img>,0,NA,practice,NA,0,<img src='practice/pt3_T1.png'></img>,0,TRUE,NA,sub134
NA,audio-button-response,13,54071,0.0-8.0,"""event"",""trial"",""time""
""focus"",""0"",""0""
""fullscreenenter"",""0"",""2381""
","
","""event"",""trial"",""time""
""focus"",""0"",""0""
","""event"",""trial"",""time""
""fullscreenenter"",""0"",""2381""
","
",2622,audio/mars_instructions_slide4.wav,0,NA,NA,NA,NA,NA,NA,NA,NA,sub134
NA,call-function,14,54072,0.0-9.0,"""event"",""trial"",""time""
""focus"",""0"",""0""
""fullscreenenter"",""0"",""2381""
","
","""event"",""trial"",""time""
""focus"",""0"",""0""
","""event"",""trial"",""time""
""fullscreenenter"",""0"",""2381""
","
",NA,NA,NA,NA,NA,NA,NA,NA,NA,NA,NA,sub134
NA,html-keyboard-response,15,54573,0.0-10.0-0.0,"""event"",""trial"",""time""
""focus"",""0"",""0""
""fullscreenenter"",""0"",""2381""
","
","""event"",""trial"",""time""
""focus"",""0"",""0""
","""event"",""trial"",""time""
""fullscreenenter"",""0"",""2381""
","
",null,"<div style=""font-size:60px;"">+</div>",NA,null,fixation,2020-06-26T18:01:43Z,NA,NA,NA,NA,NA,sub134
NA,mars-trial,16,56538,0.0-10.0-1.0,"""event"",""trial"",""time""
""focus"",""0"",""0""
""fullscreenenter"",""0"",""2381""
","
","""event"",""trial"",""time""
""focus"",""0"",""0""
","""event"",""trial"",""time""
""fullscreenenter"",""0"",""2381""
","
",1361,<img style='border: 4px solid darkgrey;' src='img/tf1_1_M_ss3.jpeg'></img>,0,NA,exp,NA,0,<img src='img/tf1_1_T1_ss3_md.jpeg'></img>,0,TRUE,NA,sub134
NA,html-keyboard-response,17,57040,0.0-10.0-0.1,"""event"",""trial"",""time""
""focus"",""0"",""0""
""fullscreenenter"",""0"",""2381""
","
","""event"",""trial"",""time""
""focus"",""0"",""0""
","""event"",""trial"",""time""
""fullscreenenter"",""0"",""2381""
","
",null,"<div style=""font-size:60px;"">+</div>",NA,null,fixation,2020-06-26T18:01:45Z,NA,NA,NA,NA,NA,sub134
NA,mars-trial,18,59408,0.0-10.0-1.1,"""event"",""trial"",""time""
""focus"",""0"",""0""
""fullscreenenter"",""0"",""2381""
","
","""event"",""trial"",""time""
""focus"",""0"",""0""
","""event"",""trial"",""time""
""fullscreenenter"",""0"",""2381""
","
",1766,<img style='border: 4px solid darkgrey;' src='img/tf1_2_M_ss1.jpeg'></img>,3,NA,exp,NA,0,<img src='img/tf1_2_T1_ss1_md.jpeg'></img>,0,TRUE,NA,sub134
NA,html-keyboard-response,19,59909,0.0-10.0-0.2,"""event"",""trial"",""time""
""focus"",""0"",""0""
""fullscreenenter"",""0"",""2381""
","
","""event"",""trial"",""time""
""focus"",""0"",""0""
","""event"",""trial"",""time""
""fullscreenenter"",""0"",""2381""
","
",null,"<div style=""font-size:60px;"">+</div>",NA,null,fixation,2020-06-26T18:01:48Z,NA,NA,NA,NA,NA,sub134
NA,mars-trial,20,62311,0.0-10.0-1.2,"""event"",""trial"",""time""
""focus"",""0"",""0""
""fullscreenenter"",""0"",""2381""
","
","""event"",""trial"",""time""
""focus"",""0"",""0""
","""event"",""trial"",""time""
""fullscreenenter"",""0"",""2381""
","
",1799.0000000000146,<img style='border: 4px solid darkgrey;' src='img/tf1_3_M_ss2.jpeg'></img>,2,NA,exp,NA,0,<img src='img/tf1_3_T1_ss2_md.jpeg'></img>,0,TRUE,NA,sub134
NA,html-keyboard-response,21,62813,0.0-10.0-0.3,"""event"",""trial"",""time""
""focus"",""0"",""0""
""fullscreenenter"",""0"",""2381""
","
","""event"",""trial"",""time""
""focus"",""0"",""0""
","""event"",""trial"",""time""
""fullscreenenter"",""0"",""2381""
","
",null,"<div style=""font-size:60px;"">+</div>",NA,null,fixation,2020-06-26T18:01:51Z,NA,NA,NA,NA,NA,sub134
NA,mars-trial,22,65037,0.0-10.0-1.3,"""event"",""trial"",""time""
""focus"",""0"",""0""
""fullscreenenter"",""0"",""2381""
","
","""event"",""trial"",""time""
""focus"",""0"",""0""
","""event"",""trial"",""time""
""fullscreenenter"",""0"",""2381""
","
",1620,<img style='border: 4px solid darkgrey;' src='img/tf1_4_M_ss3.jpeg'></img>,2,NA,exp,NA,0,<img src='img/tf1_4_T1_ss3_md.jpeg'></img>,0,TRUE,NA,sub134
NA,html-keyboard-response,23,65539,0.0-10.0-0.4,"""event"",""trial"",""time""
""focus"",""0"",""0""
""fullscreenenter"",""0"",""2381""
","
","""event"",""trial"",""time""
""focus"",""0"",""0""
","""event"",""trial"",""time""
""fullscreenenter"",""0"",""2381""
","
",null,"<div style=""font-size:60px;"">+</div>",NA,null,fixation,2020-06-26T18:01:54Z,NA,NA,NA,NA,NA,sub134
NA,mars-trial,24,67408,0.0-10.0-1.4,"""event"",""trial"",""time""
""focus"",""0"",""0""
""fullscreenenter"",""0"",""2381""
","
","""event"",""trial"",""time""
""focus"",""0"",""0""
","""event"",""trial"",""time""
""fullscreenenter"",""0"",""2381""
","
",1266,<img style='border: 4px solid darkgrey;' src='img/tf1_5_M_ss1.jpeg'></img>,3,NA,exp,NA,0,<img src='img/tf1_5_T1_ss1_md.jpeg'></img>,0,TRUE,NA,sub134
NA,html-keyboard-response,25,67910,0.0-10.0-0.5,"""event"",""trial"",""time""
""focus"",""0"",""0""
""fullscreenenter"",""0"",""2381""
","
","""event"",""trial"",""time""
""focus"",""0"",""0""
","""event"",""trial"",""time""
""fullscreenenter"",""0"",""2381""
","
",null,"<div style=""font-size:60px;"">+</div>",NA,null,fixation,2020-06-26T18:01:56Z,NA,NA,NA,NA,NA,sub134
NA,mars-trial,26,71475,0.0-10.0-1.5,"""event"",""trial"",""time""
""focus"",""0"",""0""
""fullscreenenter"",""0"",""2381""
","
","""event"",""trial"",""time""
""focus"",""0"",""0""
","""event"",""trial"",""time""
""fullscreenenter"",""0"",""2381""
","
",2961,<img style='border: 4px solid darkgrey;' src='img/tf1_6_M_ss2.jpeg'></img>,2,NA,exp,NA,0,<img src='img/tf1_6_T1_ss2_md.jpeg'></img>,0,TRUE,NA,sub134
NA,html-keyboard-response,27,71977,0.0-10.0-0.6,"""event"",""trial"",""time""
""focus"",""0"",""0""
""fullscreenenter"",""0"",""2381""
","
","""event"",""trial"",""time""
""focus"",""0"",""0""
","""event"",""trial"",""time""
""fullscreenenter"",""0"",""2381""
","
",null,"<div style=""font-size:60px;"">+</div>",NA,null,fixation,2020-06-26T18:02:00Z,NA,NA,NA,NA,NA,sub134
NA,mars-trial,28,74354,0.0-10.0-1.6,"""event"",""trial"",""time""
""focus"",""0"",""0""
""fullscreenenter"",""0"",""2381""
","
","""event"",""trial"",""time""
""focus"",""0"",""0""
","""event"",""trial"",""time""
""fullscreenenter"",""0"",""2381""
","
",1774,<img style='border: 4px solid darkgrey;' src='img/tf1_7_M_ss3.jpeg'></img>,2,NA,exp,NA,0,<img src='img/tf1_7_T1_ss3_md.jpeg'></img>,0,TRUE,NA,sub134
NA,html-keyboard-response,29,74856,0.0-10.0-0.7,"""event"",""trial"",""time""
""focus"",""0"",""0""
""fullscreenenter"",""0"",""2381""
","
","""event"",""trial"",""time""
""focus"",""0"",""0""
","""event"",""trial"",""time""
""fullscreenenter"",""0"",""2381""
","
",null,"<div style=""font-size:60px;"">+</div>",NA,null,fixation,2020-06-26T18:02:03Z,NA,NA,NA,NA,NA,sub134
NA,mars-trial,30,78488,0.0-10.0-1.7,"""event"",""trial"",""time""
""focus"",""0"",""0""
""fullscreenenter"",""0"",""2381""
","
","""event"",""trial"",""time""
""focus"",""0"",""0""
","""event"",""trial"",""time""
""fullscreenenter"",""0"",""2381""
","
",3028,<img style='border: 4px solid darkgrey;' src='img/tf1_8_M_ss1.jpeg'></img>,2,NA,exp,NA,0,<img src='img/tf1_8_T1_ss1_md.jpeg'></img>,0,TRUE,NA,sub134
NA,html-keyboard-response,31,78990,0.0-10.0-0.8,"""event"",""trial"",""time""
""focus"",""0"",""0""
""fullscreenenter"",""0"",""2381""
","
","""event"",""trial"",""time""
""focus"",""0"",""0""
","""event"",""trial"",""time""
""fullscreenenter"",""0"",""2381""
","
",null,"<div style=""font-size:60px;"">+</div>",NA,null,fixation,2020-06-26T18:02:07Z,NA,NA,NA,NA,NA,sub134
NA,mars-trial,32,81343,0.0-10.0-1.8,"""event"",""trial"",""time""
""focus"",""0"",""0""
""fullscreenenter"",""0"",""2381""
","
","""event"",""trial"",""time""
""focus"",""0"",""0""
","""event"",""trial"",""time""
""fullscreenenter"",""0"",""2381""
","
",1750,<img style='border: 4px solid darkgrey;' src='img/tf1_9_M_ss2.jpeg'></img>,3,NA,exp,NA,2,<img src='img/tf1_9_T1_ss2_md.jpeg'></img>,0,FALSE,NA,sub134
NA,html-keyboard-response,33,81844,0.0-10.0-0.9,"""event"",""trial"",""time""
""focus"",""0"",""0""
""fullscreenenter"",""0"",""2381""
","
","""event"",""trial"",""time""
""focus"",""0"",""0""
","""event"",""trial"",""time""
""fullscreenenter"",""0"",""2381""
","
",null,"<div style=""font-size:60px;"">+</div>",NA,null,fixation,2020-06-26T18:02:10Z,NA,NA,NA,NA,NA,sub134
NA,mars-trial,34,86034,0.0-10.0-1.9,"""event"",""trial"",""time""
""focus"",""0"",""0""
""fullscreenenter"",""0"",""2381""
","
","""event"",""trial"",""time""
""focus"",""0"",""0""
","""event"",""trial"",""time""
""fullscreenenter"",""0"",""2381""
","
",3586,<img style='border: 4px solid darkgrey;' src='img/tf1_10_M_ss3.jpeg'></img>,2,NA,exp,NA,0,<img src='img/tf1_10_T1_ss3_md.jpeg'></img>,0,TRUE,NA,sub134
NA,html-keyboard-response,35,86536,0.0-10.0-0.10,"""event"",""trial"",""time""
""focus"",""0"",""0""
""fullscreenenter"",""0"",""2381""
","
","""event"",""trial"",""time""
""focus"",""0"",""0""
","""event"",""trial"",""time""
""fullscreenenter"",""0"",""2381""
","
",null,"<div style=""font-size:60px;"">+</div>",NA,null,fixation,2020-06-26T18:02:15Z,NA,NA,NA,NA,NA,sub134
NA,mars-trial,36,91165,0.0-10.0-1.10,"""event"",""trial"",""time""
""focus"",""0"",""0""
""fullscreenenter"",""0"",""2381""
","
","""event"",""trial"",""time""
""focus"",""0"",""0""
","""event"",""trial"",""time""
""fullscreenenter"",""0"",""2381""
","
",4025,<img style='border: 4px solid darkgrey;' src='img/tf1_11_M_ss1.jpeg'></img>,2,NA,exp,NA,1,<img src='img/tf1_11_T1_ss1_md.jpeg'></img>,0,FALSE,NA,sub134
NA,html-keyboard-response,37,91667,0.0-10.0-0.11,"""event"",""trial"",""time""
""focus"",""0"",""0""
""fullscreenenter"",""0"",""2381""
","
","""event"",""trial"",""time""
""focus"",""0"",""0""
","""event"",""trial"",""time""
""fullscreenenter"",""0"",""2381""
","
",null,"<div style=""font-size:60px;"">+</div>",NA,null,fixation,2020-06-26T18:02:20Z,NA,NA,NA,NA,NA,sub134
NA,mars-trial,38,96924,0.0-10.0-1.11,"""event"",""trial"",""time""
""focus"",""0"",""0""
""fullscreenenter"",""0"",""2381""
","
","""event"",""trial"",""time""
""focus"",""0"",""0""
","""event"",""trial"",""time""
""fullscreenenter"",""0"",""2381""
","
",4653,<img style='border: 4px solid darkgrey;' src='img/tf1_12_M_ss2.jpeg'></img>,0,NA,exp,NA,1,<img src='img/tf1_12_T1_ss2_md.jpeg'></img>,0,FALSE,NA,sub134
NA,html-keyboard-response,39,97424,0.0-10.0-0.12,"""event"",""trial"",""time""
""focus"",""0"",""0""
""fullscreenenter"",""0"",""2381""
","
","""event"",""trial"",""time""
""focus"",""0"",""0""
","""event"",""trial"",""time""
""fullscreenenter"",""0"",""2381""
","
",null,"<div style=""font-size:60px;"">+</div>",NA,null,fixation,2020-06-26T18:02:25Z,NA,NA,NA,NA,NA,sub134
NA,mars-trial,40,100851,0.0-10.0-1.12,"""event"",""trial"",""time""
""focus"",""0"",""0""
""fullscreenenter"",""0"",""2381""
","
","""event"",""trial"",""time""
""focus"",""0"",""0""
","""event"",""trial"",""time""
""fullscreenenter"",""0"",""2381""
","
",2823,<img style='border: 4px solid darkgrey;' src='img/tf1_13_M_ss3.jpeg'></img>,1,NA,exp,NA,2,<img src='img/tf1_13_T1_ss3_md.jpeg'></img>,0,FALSE,NA,sub134
NA,html-keyboard-response,41,101353,0.0-10.0-0.13,"""event"",""trial"",""time""
""focus"",""0"",""0""
""fullscreenenter"",""0"",""2381""
","
","""event"",""trial"",""time""
""focus"",""0"",""0""
","""event"",""trial"",""time""
""fullscreenenter"",""0"",""2381""
","
",null,"<div style=""font-size:60px;"">+</div>",NA,null,fixation,2020-06-26T18:02:29Z,NA,NA,NA,NA,NA,sub134
NA,mars-trial,42,109717,0.0-10.0-1.13,"""event"",""trial"",""time""
""focus"",""0"",""0""
""fullscreenenter"",""0"",""2381""
","
","""event"",""trial"",""time""
""focus"",""0"",""0""
","""event"",""trial"",""time""
""fullscreenenter"",""0"",""2381""
","
",7761.000000000015,<img style='border: 4px solid darkgrey;' src='img/tf1_14_M_ss1.jpeg'></img>,2,NA,exp,NA,3,<img src='img/tf1_14_T1_ss1_md.jpeg'></img>,0,FALSE,NA,sub134
NA,html-keyboard-response,43,110219,0.0-10.0-0.14,"""event"",""trial"",""time""
""focus"",""0"",""0""
""fullscreenenter"",""0"",""2381""
","
","""event"",""trial"",""time""
""focus"",""0"",""0""
","""event"",""trial"",""time""
""fullscreenenter"",""0"",""2381""
","
",null,"<div style=""font-size:60px;"">+</div>",NA,null,fixation,2020-06-26T18:02:38Z,NA,NA,NA,NA,NA,sub134
NA,mars-trial,44,115123,0.0-10.0-1.14,"""event"",""trial"",""time""
""focus"",""0"",""0""
""fullscreenenter"",""0"",""2381""
","
","""event"",""trial"",""time""
""focus"",""0"",""0""
","""event"",""trial"",""time""
""fullscreenenter"",""0"",""2381""
","
",4299,<img style='border: 4px solid darkgrey;' src='img/tf1_15_M_ss2.jpeg'></img>,3,NA,exp,NA,2,<img src='img/tf1_15_T1_ss2_md.jpeg'></img>,0,FALSE,NA,sub134
NA,html-keyboard-response,45,115625,0.0-10.0-0.15,"""event"",""trial"",""time""
""focus"",""0"",""0""
""fullscreenenter"",""0"",""2381""
","
","""event"",""trial"",""time""
""focus"",""0"",""0""
","""event"",""trial"",""time""
""fullscreenenter"",""0"",""2381""
","
",null,"<div style=""font-size:60px;"">+</div>",NA,null,fixation,2020-06-26T18:02:44Z,NA,NA,NA,NA,NA,sub134
NA,mars-trial,46,123194,0.0-10.0-1.15,"""event"",""trial"",""time""
""focus"",""0"",""0""
""fullscreenenter"",""0"",""2381""
","
","""event"",""trial"",""time""
""focus"",""0"",""0""
","""event"",""trial"",""time""
""fullscreenenter"",""0"",""2381""
","
",6966,<img style='border: 4px solid darkgrey;' src='img/tf1_16_M_ss3.jpeg'></img>,1,NA,exp,NA,3,<img src='img/tf1_16_T1_ss3_md.jpeg'></img>,0,FALSE,NA,sub134
NA,html-keyboard-response,47,123696,0.0-10.0-0.16,"""event"",""trial"",""time""
""focus"",""0"",""0""
""fullscreenenter"",""0"",""2381""
","
","""event"",""trial"",""time""
""focus"",""0"",""0""
","""event"",""trial"",""time""
""fullscreenenter"",""0"",""2381""
","
",null,"<div style=""font-size:60px;"">+</div>",NA,null,fixation,2020-06-26T18:02:52Z,NA,NA,NA,NA,NA,sub134
NA,mars-trial,48,126534,0.0-10.0-1.16,"""event"",""trial"",""time""
""focus"",""0"",""0""
""fullscreenenter"",""0"",""2381""
","
","""event"",""trial"",""time""
""focus"",""0"",""0""
","""event"",""trial"",""time""
""fullscreenenter"",""0"",""2381""
","
",2233,<img style='border: 4px solid darkgrey;' src='img/tf1_17_M_ss1.jpeg'></img>,3,NA,exp,NA,0,<img src='img/tf1_17_T1_ss1_md.jpeg'></img>,0,TRUE,NA,sub134
NA,html-keyboard-response,49,127036,0.0-10.0-0.17,"""event"",""trial"",""time""
""focus"",""0"",""0""
""fullscreenenter"",""0"",""2381""
","
","""event"",""trial"",""time""
""focus"",""0"",""0""
","""event"",""trial"",""time""
""fullscreenenter"",""0"",""2381""
","
",null,"<div style=""font-size:60px;"">+</div>",NA,null,fixation,2020-06-26T18:02:55Z,NA,NA,NA,NA,NA,sub134
NA,mars-trial,50,132517,0.0-10.0-1.17,"""event"",""trial"",""time""
""focus"",""0"",""0""
""fullscreenenter"",""0"",""2381""
","
","""event"",""trial"",""time""
""focus"",""0"",""0""
","""event"",""trial"",""time""
""fullscreenenter"",""0"",""2381""
","
",4878.000000000029,<img style='border: 4px solid darkgrey;' src='img/tf1_18_M_ss2.jpeg'></img>,1,NA,exp,NA,0,<img src='img/tf1_18_T1_ss2_md.jpeg'></img>,0,TRUE,NA,sub134
NA,html-keyboard-response,51,133019,0.0-10.0-0.18,"""event"",""trial"",""time""
""focus"",""0"",""0""
""fullscreenenter"",""0"",""2381""
","
","""event"",""trial"",""time""
""focus"",""0"",""0""
","""event"",""trial"",""time""
""fullscreenenter"",""0"",""2381""
","
",null,"<div style=""font-size:60px;"">+</div>",NA,null,fixation,2020-06-26T18:03:01Z,NA,NA,NA,NA,NA,sub134
NA,mars-trial,52,138598,0.0-10.0-1.18,"""event"",""trial"",""time""
""focus"",""0"",""0""
""fullscreenenter"",""0"",""2381""
","
","""event"",""trial"",""time""
""focus"",""0"",""0""
","""event"",""trial"",""time""
""fullscreenenter"",""0"",""2381""
","
",4974.999999999971,<img style='border: 4px solid darkgrey;' src='img/tf1_19_M_ss3.jpeg'></img>,2,NA,exp,NA,0,<img src='img/tf1_19_T1_ss3_md.jpeg'></img>,0,TRUE,NA,sub134
NA,html-keyboard-response,53,139100,0.0-10.0-0.19,"""event"",""trial"",""time""
""focus"",""0"",""0""
""fullscreenenter"",""0"",""2381""
","
","""event"",""trial"",""time""
""focus"",""0"",""0""
","""event"",""trial"",""time""
""fullscreenenter"",""0"",""2381""
","
",null,"<div style=""font-size:60px;"">+</div>",NA,null,fixation,2020-06-26T18:03:07Z,NA,NA,NA,NA,NA,sub134
NA,mars-trial,54,144772,0.0-10.0-1.19,"""event"",""trial"",""time""
""focus"",""0"",""0""
""fullscreenenter"",""0"",""2381""
","
","""event"",""trial"",""time""
""focus"",""0"",""0""
","""event"",""trial"",""time""
""fullscreenenter"",""0"",""2381""
","
",5069.000000000029,<img style='border: 4px solid darkgrey;' src='img/tf1_20_M_ss1.jpeg'></img>,1,NA,exp,NA,2,<img src='img/tf1_20_T1_ss1_md.jpeg'></img>,0,FALSE,NA,sub134
NA,html-keyboard-response,55,145273,0.0-10.0-0.20,"""event"",""trial"",""time""
""focus"",""0"",""0""
""fullscreenenter"",""0"",""2381""
","
","""event"",""trial"",""time""
""focus"",""0"",""0""
","""event"",""trial"",""time""
""fullscreenenter"",""0"",""2381""
","
",null,"<div style=""font-size:60px;"">+</div>",NA,null,fixation,2020-06-26T18:03:13Z,NA,NA,NA,NA,NA,sub134
NA,mars-trial,56,151007,0.0-10.0-1.20,"""event"",""trial"",""time""
""focus"",""0"",""0""
""fullscreenenter"",""0"",""2381""
","
","""event"",""trial"",""time""
""focus"",""0"",""0""
","""event"",""trial"",""time""
""fullscreenenter"",""0"",""2381""
","
",5130,<img style='border: 4px solid darkgrey;' src='img/tf1_21_M_ss2.jpeg'></img>,2,NA,exp,NA,0,<img src='img/tf1_21_T1_ss2_md.jpeg'></img>,0,TRUE,NA,sub134
NA,html-keyboard-response,57,151508,0.0-10.0-0.21,"""event"",""trial"",""time""
""focus"",""0"",""0""
""fullscreenenter"",""0"",""2381""
","
","""event"",""trial"",""time""
""focus"",""0"",""0""
","""event"",""trial"",""time""
""fullscreenenter"",""0"",""2381""
","
",null,"<div style=""font-size:60px;"">+</div>",NA,null,fixation,2020-06-26T18:03:20Z,NA,NA,NA,NA,NA,sub134
NA,mars-trial,58,159248,0.0-10.0-1.21,"""event"",""trial"",""time""
""focus"",""0"",""0""
""fullscreenenter"",""0"",""2381""
","
","""event"",""trial"",""time""
""focus"",""0"",""0""
","""event"",""trial"",""time""
""fullscreenenter"",""0"",""2381""
","
",7135,<img style='border: 4px solid darkgrey;' src='img/tf1_22_M_ss3.jpeg'></img>,1,NA,exp,NA,0,<img src='img/tf1_22_T1_ss3_md.jpeg'></img>,0,TRUE,NA,sub134
NA,html-keyboard-response,59,159749,0.0-10.0-0.22,"""event"",""trial"",""time""
""focus"",""0"",""0""
""fullscreenenter"",""0"",""2381""
","
","""event"",""trial"",""time""
""focus"",""0"",""0""
","""event"",""trial"",""time""
""fullscreenenter"",""0"",""2381""
","
",null,"<div style=""font-size:60px;"">+</div>",NA,null,fixation,2020-06-26T18:03:28Z,NA,NA,NA,NA,NA,sub134
NA,mars-trial,60,165539,0.0-10.0-1.22,"""event"",""trial"",""time""
""focus"",""0"",""0""
""fullscreenenter"",""0"",""2381""
","
","""event"",""trial"",""time""
""focus"",""0"",""0""
","""event"",""trial"",""time""
""fullscreenenter"",""0"",""2381""
","
",5187,<img style='border: 4px solid darkgrey;' src='img/tf1_23_M_ss1.jpeg'></img>,1,NA,exp,NA,3,<img src='img/tf1_23_T1_ss1_md.jpeg'></img>,0,FALSE,NA,sub134
NA,html-keyboard-response,61,166041,0.0-10.0-0.23,"""event"",""trial"",""time""
""focus"",""0"",""0""
""fullscreenenter"",""0"",""2381""
","
","""event"",""trial"",""time""
""focus"",""0"",""0""
","""event"",""trial"",""time""
""fullscreenenter"",""0"",""2381""
","
",null,"<div style=""font-size:60px;"">+</div>",NA,null,fixation,2020-06-26T18:03:34Z,NA,NA,NA,NA,NA,sub134
NA,mars-trial,62,168224,0.0-10.0-1.23,"""event"",""trial"",""time""
""focus"",""0"",""0""
""fullscreenenter"",""0"",""2381""
","
","""event"",""trial"",""time""
""focus"",""0"",""0""
","""event"",""trial"",""time""
""fullscreenenter"",""0"",""2381""
","
",1579,<img style='border: 4px solid darkgrey;' src='img/tf1_24_M_ss2.jpeg'></img>,3,NA,exp,NA,3,<img src='img/tf1_24_T1_ss2_md.jpeg'></img>,0,FALSE,NA,sub134
NA,html-keyboard-response,63,168725,0.0-10.0-0.24,"""event"",""trial"",""time""
""focus"",""0"",""0""
""fullscreenenter"",""0"",""2381""
","
","""event"",""trial"",""time""
""focus"",""0"",""0""
","""event"",""trial"",""time""
""fullscreenenter"",""0"",""2381""
","
",null,"<div style=""font-size:60px;"">+</div>",NA,null,fixation,2020-06-26T18:03:37Z,NA,NA,NA,NA,NA,sub134
NA,mars-trial,64,169832,0.0-10.0-1.24,"""event"",""trial"",""time""
""focus"",""0"",""0""
""fullscreenenter"",""0"",""2381""
","
","""event"",""trial"",""time""
""focus"",""0"",""0""
","""event"",""trial"",""time""
""fullscreenenter"",""0"",""2381""
","
",504,<img style='border: 4px solid darkgrey;' src='img/tf1_25_M_ss3.jpeg'></img>,1,NA,exp,NA,3,<img src='img/tf1_25_T1_ss3_md.jpeg'></img>,0,FALSE,NA,sub134
NA,html-keyboard-response,65,170334,0.0-10.0-0.25,"""event"",""trial"",""time""
""focus"",""0"",""0""
""fullscreenenter"",""0"",""2381""
","
","""event"",""trial"",""time""
""focus"",""0"",""0""
","""event"",""trial"",""time""
""fullscreenenter"",""0"",""2381""
","
",null,"<div style=""font-size:60px;"">+</div>",NA,null,fixation,2020-06-26T18:03:38Z,NA,NA,NA,NA,NA,sub134
NA,mars-trial,66,171677,0.0-10.0-1.25,"""event"",""trial"",""time""
""focus"",""0"",""0""
""fullscreenenter"",""0"",""2381""
","
","""event"",""trial"",""time""
""focus"",""0"",""0""
","""event"",""trial"",""time""
""fullscreenenter"",""0"",""2381""
","
",740,<img style='border: 4px solid darkgrey;' src='img/tf1_26_M_ss1.jpeg'></img>,3,NA,exp,NA,0,<img src='img/tf1_26_T1_ss1_md.jpeg'></img>,0,TRUE,NA,sub134
NA,html-keyboard-response,67,172179,0.0-10.0-0.26,"""event"",""trial"",""time""
""focus"",""0"",""0""
""fullscreenenter"",""0"",""2381""
","
","""event"",""trial"",""time""
""focus"",""0"",""0""
","""event"",""trial"",""time""
""fullscreenenter"",""0"",""2381""
","
",null,"<div style=""font-size:60px;"">+</div>",NA,null,fixation,2020-06-26T18:03:40Z,NA,NA,NA,NA,NA,sub134
NA,mars-trial,68,175179,0.0-10.0-1.26,"""event"",""trial"",""time""
""focus"",""0"",""0""
""fullscreenenter"",""0"",""2381""
","
","""event"",""trial"",""time""
""focus"",""0"",""0""
","""event"",""trial"",""time""
""fullscreenenter"",""0"",""2381""
","
",2396,<img style='border: 4px solid darkgrey;' src='img/tf1_27_M_ss2.jpeg'></img>,2,NA,exp,NA,2,<img src='img/tf1_27_T1_ss2_md.jpeg'></img>,0,FALSE,NA,sub134
NA,html-keyboard-response,69,175681,0.0-10.0-0.27,"""event"",""trial"",""time""
""focus"",""0"",""0""
""fullscreenenter"",""0"",""2381""
","
","""event"",""trial"",""time""
""focus"",""0"",""0""
","""event"",""trial"",""time""
""fullscreenenter"",""0"",""2381""
","
",null,"<div style=""font-size:60px;"">+</div>",NA,null,fixation,2020-06-26T18:03:44Z,NA,NA,NA,NA,NA,sub134
NA,mars-trial,70,177572,0.0-10.0-1.27,"""event"",""trial"",""time""
""focus"",""0"",""0""
""fullscreenenter"",""0"",""2381""
","
","""event"",""trial"",""time""
""focus"",""0"",""0""
","""event"",""trial"",""time""
""fullscreenenter"",""0"",""2381""
","
",1289,<img style='border: 4px solid darkgrey;' src='img/tf1_28_M_ss3.jpeg'></img>,1,NA,exp,NA,2,<img src='img/tf1_28_T1_ss3_md.jpeg'></img>,0,FALSE,NA,sub134
NA,html-keyboard-response,71,178073,0.0-10.0-0.28,"""event"",""trial"",""time""
""focus"",""0"",""0""
""fullscreenenter"",""0"",""2381""
","
","""event"",""trial"",""time""
""focus"",""0"",""0""
","""event"",""trial"",""time""
""fullscreenenter"",""0"",""2381""
","
",null,"<div style=""font-size:60px;"">+</div>",NA,null,fixation,2020-06-26T18:03:46Z,NA,NA,NA,NA,NA,sub134
NA,mars-trial,72,179157,0.0-10.0-1.28,"""event"",""trial"",""time""
""focus"",""0"",""0""
""fullscreenenter"",""0"",""2381""
","
","""event"",""trial"",""time""
""focus"",""0"",""0""
","""event"",""trial"",""time""
""fullscreenenter"",""0"",""2381""
","
",481,<img style='border: 4px solid darkgrey;' src='img/tf1_29_M_ss1.jpeg'></img>,3,NA,exp,NA,1,<img src='img/tf1_29_T1_ss1_md.jpeg'></img>,0,FALSE,NA,sub134
NA,html-keyboard-response,73,179659,0.0-10.0-0.29,"""event"",""trial"",""time""
""focus"",""0"",""0""
""fullscreenenter"",""0"",""2381""
","
","""event"",""trial"",""time""
""focus"",""0"",""0""
","""event"",""trial"",""time""
""fullscreenenter"",""0"",""2381""
","
",null,"<div style=""font-size:60px;"">+</div>",NA,null,fixation,2020-06-26T18:03:48Z,NA,NA,NA,NA,NA,sub134
NA,mars-trial,74,181049,0.0-10.0-1.29,"""event"",""trial"",""time""
""focus"",""0"",""0""
""fullscreenenter"",""0"",""2381""
","
","""event"",""trial"",""time""
""focus"",""0"",""0""
","""event"",""trial"",""time""
""fullscreenenter"",""0"",""2381""
","
",787,<img style='border: 4px solid darkgrey;' src='img/tf1_30_M_ss2.jpeg'></img>,0,NA,exp,NA,0,<img src='img/tf1_30_T1_ss2_md.jpeg'></img>,0,TRUE,NA,sub134
NA,html-keyboard-response,75,181551,0.0-10.0-0.30,"""event"",""trial"",""time""
""focus"",""0"",""0""
""fullscreenenter"",""0"",""2381""
","
","""event"",""trial"",""time""
""focus"",""0"",""0""
","""event"",""trial"",""time""
""fullscreenenter"",""0"",""2381""
","
",null,"<div style=""font-size:60px;"">+</div>",NA,null,fixation,2020-06-26T18:03:50Z,NA,NA,NA,NA,NA,sub134
NA,mars-trial,76,182715,0.0-10.0-1.30,"""event"",""trial"",""time""
""focus"",""0"",""0""
""fullscreenenter"",""0"",""2381""
","
","""event"",""trial"",""time""
""focus"",""0"",""0""
","""event"",""trial"",""time""
""fullscreenenter"",""0"",""2381""
","
",559,<img style='border: 4px solid darkgrey;' src='img/tf1_31_M_ss3.jpeg'></img>,1,NA,exp,NA,0,<img src='img/tf1_31_T1_ss3_md.jpeg'></img>,0,TRUE,NA,sub134
NA,html-keyboard-response,77,183217,0.0-10.0-0.31,"""event"",""trial"",""time""
""focus"",""0"",""0""
""fullscreenenter"",""0"",""2381""
","
","""event"",""trial"",""time""
""focus"",""0"",""0""
","""event"",""trial"",""time""
""fullscreenenter"",""0"",""2381""
","
",null,"<div style=""font-size:60px;"">+</div>",NA,null,fixation,2020-06-26T18:03:51Z,NA,NA,NA,NA,NA,sub134
NA,mars-trial,78,184777,0.0-10.0-1.31,"""event"",""trial"",""time""
""focus"",""0"",""0""
""fullscreenenter"",""0"",""2381""
","
","""event"",""trial"",""time""
""focus"",""0"",""0""
","""event"",""trial"",""time""
""fullscreenenter"",""0"",""2381""
","
",955.9999999999709,<img style='border: 4px solid darkgrey;' src='img/tf1_32_M_ss1.jpeg'></img>,3,NA,exp,NA,2,<img src='img/tf1_32_T1_ss1_md.jpeg'></img>,0,FALSE,NA,sub134
NA,html-keyboard-response,79,185280,0.0-10.0-0.32,"""event"",""trial"",""time""
""focus"",""0"",""0""
""fullscreenenter"",""0"",""2381""
","
","""event"",""trial"",""time""
""focus"",""0"",""0""
","""event"",""trial"",""time""
""fullscreenenter"",""0"",""2381""
","
",null,"<div style=""font-size:60px;"">+</div>",NA,null,fixation,2020-06-26T18:03:53Z,NA,NA,NA,NA,NA,sub134
NA,mars-trial,80,187462,0.0-10.0-1.32,"""event"",""trial"",""time""
""focus"",""0"",""0""
""fullscreenenter"",""0"",""2381""
","
","""event"",""trial"",""time""
""focus"",""0"",""0""
","""event"",""trial"",""time""
""fullscreenenter"",""0"",""2381""
","
",1579,<img style='border: 4px solid darkgrey;' src='img/tf1_33_M_ss2.jpeg'></img>,0,NA,exp,NA,1,<img src='img/tf1_33_T1_ss2_md.jpeg'></img>,0,FALSE,NA,sub134
NA,html-keyboard-response,81,187964,0.0-10.0-0.33,"""event"",""trial"",""time""
""focus"",""0"",""0""
""fullscreenenter"",""0"",""2381""
","
","""event"",""trial"",""time""
""focus"",""0"",""0""
","""event"",""trial"",""time""
""fullscreenenter"",""0"",""2381""
","
",null,"<div style=""font-size:60px;"">+</div>",NA,null,fixation,2020-06-26T18:03:56Z,NA,NA,NA,NA,NA,sub134
NA,mars-trial,82,189597,0.0-10.0-1.33,"""event"",""trial"",""time""
""focus"",""0"",""0""
""fullscreenenter"",""0"",""2381""
","
","""event"",""trial"",""time""
""focus"",""0"",""0""
","""event"",""trial"",""time""
""fullscreenenter"",""0"",""2381""
","
",1030,<img style='border: 4px solid darkgrey;' src='img/tf1_34_M_ss3.jpeg'></img>,3,NA,exp,NA,1,<img src='img/tf1_34_T1_ss3_md.jpeg'></img>,0,FALSE,NA,sub134
NA,html-keyboard-response,83,190099,0.0-10.0-0.34,"""event"",""trial"",""time""
""focus"",""0"",""0""
""fullscreenenter"",""0"",""2381""
","
","""event"",""trial"",""time""
""focus"",""0"",""0""
","""event"",""trial"",""time""
""fullscreenenter"",""0"",""2381""
","
",null,"<div style=""font-size:60px;"">+</div>",NA,null,fixation,2020-06-26T18:03:58Z,NA,NA,NA,NA,NA,sub134
NA,mars-trial,84,191109,0.0-10.0-1.34,"""event"",""trial"",""time""
""focus"",""0"",""0""
""fullscreenenter"",""0"",""2381""
","
","""event"",""trial"",""time""
""focus"",""0"",""0""
","""event"",""trial"",""time""
""fullscreenenter"",""0"",""2381""
","
",408,<img style='border: 4px solid darkgrey;' src='img/tf1_35_M_ss1.jpeg'></img>,1,NA,exp,NA,2,<img src='img/tf1_35_T1_ss1_md.jpeg'></img>,0,FALSE,NA,sub134
NA,html-keyboard-response,85,191610,0.0-10.0-0.35,"""event"",""trial"",""time""
""focus"",""0"",""0""
""fullscreenenter"",""0"",""2381""
","
","""event"",""trial"",""time""
""focus"",""0"",""0""
","""event"",""trial"",""time""
""fullscreenenter"",""0"",""2381""
","
",null,"<div style=""font-size:60px;"">+</div>",NA,null,fixation,2020-06-26T18:04:00Z,NA,NA,NA,NA,NA,sub134
NA,mars-trial,86,192653,0.0-10.0-1.35,"""event"",""trial"",""time""
""focus"",""0"",""0""
""fullscreenenter"",""0"",""2381""
","
","""event"",""trial"",""time""
""focus"",""0"",""0""
","""event"",""trial"",""time""
""fullscreenenter"",""0"",""2381""
","
",441.0000000000291,<img style='border: 4px solid darkgrey;' src='img/tf1_36_M_ss2.jpeg'></img>,0,NA,exp,NA,3,<img src='img/tf1_36_T1_ss2_md.jpeg'></img>,0,FALSE,NA,sub134
NA,html-keyboard-response,87,193154,0.0-10.0-0.36,"""event"",""trial"",""time""
""focus"",""0"",""0""
""fullscreenenter"",""0"",""2381""
","
","""event"",""trial"",""time""
""focus"",""0"",""0""
","""event"",""trial"",""time""
""fullscreenenter"",""0"",""2381""
","
",null,"<div style=""font-size:60px;"">+</div>",NA,null,fixation,2020-06-26T18:04:01Z,NA,NA,NA,NA,NA,sub134
NA,mars-trial,88,194077,0.0-10.0-1.36,"""event"",""trial"",""time""
""focus"",""0"",""0""
""fullscreenenter"",""0"",""2381""
","
","""event"",""trial"",""time""
""focus"",""0"",""0""
","""event"",""trial"",""time""
""fullscreenenter"",""0"",""2381""
","
",321,<img style='border: 4px solid darkgrey;' src='img/tf1_37_M_ss3.jpeg'></img>,2,NA,exp,NA,1,<img src='img/tf1_37_T1_ss3_md.jpeg'></img>,0,FALSE,NA,sub134
NA,html-keyboard-response,89,194578,0.0-10.0-0.37,"""event"",""trial"",""time""
""focus"",""0"",""0""
""fullscreenenter"",""0"",""2381""
","
","""event"",""trial"",""time""
""focus"",""0"",""0""
","""event"",""trial"",""time""
""fullscreenenter"",""0"",""2381""
","
",null,"<div style=""font-size:60px;"">+</div>",NA,null,fixation,2020-06-26T18:04:03Z,NA,NA,NA,NA,NA,sub134
NA,mars-trial,90,195437,0.0-10.0-1.37,"""event"",""trial"",""time""
""focus"",""0"",""0""
""fullscreenenter"",""0"",""2381""
","
","""event"",""trial"",""time""
""focus"",""0"",""0""
","""event"",""trial"",""time""
""fullscreenenter"",""0"",""2381""
","
",256,<img style='border: 4px solid darkgrey;' src='img/tf1_38_M_ss1.jpeg'></img>,0,NA,exp,NA,0,<img src='img/tf1_38_T1_ss1_md.jpeg'></img>,0,TRUE,NA,sub134
NA,html-keyboard-response,91,195939,0.0-10.0-0.38,"""event"",""trial"",""time""
""focus"",""0"",""0""
""fullscreenenter"",""0"",""2381""
","
","""event"",""trial"",""time""
""focus"",""0"",""0""
","""event"",""trial"",""time""
""fullscreenenter"",""0"",""2381""
","
",null,"<div style=""font-size:60px;"">+</div>",NA,null,fixation,2020-06-26T18:04:04Z,NA,NA,NA,NA,NA,sub134
NA,mars-trial,92,196940,0.0-10.0-1.38,"""event"",""trial"",""time""
""focus"",""0"",""0""
""fullscreenenter"",""0"",""2381""
","
","""event"",""trial"",""time""
""focus"",""0"",""0""
","""event"",""trial"",""time""
""fullscreenenter"",""0"",""2381""
","
",399,<img style='border: 4px solid darkgrey;' src='img/tf1_39_M_ss2.jpeg'></img>,3,NA,exp,NA,1,<img src='img/tf1_39_T1_ss2_md.jpeg'></img>,0,FALSE,NA,sub134
NA,html-keyboard-response,93,197441,0.0-10.0-0.39,"""event"",""trial"",""time""
""focus"",""0"",""0""
""fullscreenenter"",""0"",""2381""
","
","""event"",""trial"",""time""
""focus"",""0"",""0""
","""event"",""trial"",""time""
""fullscreenenter"",""0"",""2381""
","
",null,"<div style=""font-size:60px;"">+</div>",NA,null,fixation,2020-06-26T18:04:05Z,NA,NA,NA,NA,NA,sub134
NA,mars-trial,94,198444,0.0-10.0-1.39,"""event"",""trial"",""time""
""focus"",""0"",""0""
""fullscreenenter"",""0"",""2381""
","
","""event"",""trial"",""time""
""focus"",""0"",""0""
","""event"",""trial"",""time""
""fullscreenenter"",""0"",""2381""
","
",401,<img style='border: 4px solid darkgrey;' src='img/tf1_40_M_ss3.jpeg'></img>,1,NA,exp,NA,0,<img src='img/tf1_40_T1_ss3_md.jpeg'></img>,0,TRUE,NA,sub134
NA,html-keyboard-response,95,198945,0.0-10.0-0.40,"""event"",""trial"",""time""
""focus"",""0"",""0""
""fullscreenenter"",""0"",""2381""
","
","""event"",""trial"",""time""
""focus"",""0"",""0""
","""event"",""trial"",""time""
""fullscreenenter"",""0"",""2381""
","
",null,"<div style=""font-size:60px;"">+</div>",NA,null,fixation,2020-06-26T18:04:07Z,NA,NA,NA,NA,NA,sub134
NA,mars-trial,96,200207,0.0-10.0-1.40,"""event"",""trial"",""time""
""focus"",""0"",""0""
""fullscreenenter"",""0"",""2381""
","
","""event"",""trial"",""time""
""focus"",""0"",""0""
","""event"",""trial"",""time""
""fullscreenenter"",""0"",""2381""
","
",659,<img style='border: 4px solid darkgrey;' src='img/tf1_41_M_ss1.jpeg'></img>,2,NA,exp,NA,2,<img src='img/tf1_41_T1_ss1_md.jpeg'></img>,0,FALSE,NA,sub134
NA,html-keyboard-response,97,200708,0.0-10.0-0.41,"""event"",""trial"",""time""
""focus"",""0"",""0""
""fullscreenenter"",""0"",""2381""
","
","""event"",""trial"",""time""
""focus"",""0"",""0""
","""event"",""trial"",""time""
""fullscreenenter"",""0"",""2381""
","
",null,"<div style=""font-size:60px;"">+</div>",NA,null,fixation,2020-06-26T18:04:09Z,NA,NA,NA,NA,NA,sub134
NA,mars-trial,98,202335,0.0-10.0-1.41,"""event"",""trial"",""time""
""focus"",""0"",""0""
""fullscreenenter"",""0"",""2381""
","
","""event"",""trial"",""time""
""focus"",""0"",""0""
","""event"",""trial"",""time""
""fullscreenenter"",""0"",""2381""
","
",1022,<img style='border: 4px solid darkgrey;' src='img/tf1_42_M_ss2.jpeg'></img>,0,NA,exp,NA,3,<img src='img/tf1_42_T1_ss2_md.jpeg'></img>,0,FALSE,NA,sub134
NA,html-keyboard-response,99,202836,0.0-10.0-0.42,"""event"",""trial"",""time""
""focus"",""0"",""0""
""fullscreenenter"",""0"",""2381""
","
","""event"",""trial"",""time""
""focus"",""0"",""0""
","""event"",""trial"",""time""
""fullscreenenter"",""0"",""2381""
","
",null,"<div style=""font-size:60px;"">+</div>",NA,null,fixation,2020-06-26T18:04:11Z,NA,NA,NA,NA,NA,sub134
NA,mars-trial,100,204210,0.0-10.0-1.42,"""event"",""trial"",""time""
""focus"",""0"",""0""
""fullscreenenter"",""0"",""2381""
","
","""event"",""trial"",""time""
""focus"",""0"",""0""
","""event"",""trial"",""time""
""fullscreenenter"",""0"",""2381""
","
",769.9999999999709,<img style='border: 4px solid darkgrey;' src='img/tf1_43_M_ss3.jpeg'></img>,2,NA,exp,NA,3,<img src='img/tf1_43_T1_ss3_md.jpeg'></img>,0,FALSE,NA,sub134
NA,html-keyboard-response,101,204710,0.0-10.0-0.43,"""event"",""trial"",""time""
""focus"",""0"",""0""
""fullscreenenter"",""0"",""2381""
","
","""event"",""trial"",""time""
""focus"",""0"",""0""
","""event"",""trial"",""time""
""fullscreenenter"",""0"",""2381""
","
",null,"<div style=""font-size:60px;"">+</div>",NA,null,fixation,2020-06-26T18:04:13Z,NA,NA,NA,NA,NA,sub134
NA,mars-trial,102,205690,0.0-10.0-1.43,"""event"",""trial"",""time""
""focus"",""0"",""0""
""fullscreenenter"",""0"",""2381""
","
","""event"",""trial"",""time""
""focus"",""0"",""0""
","""event"",""trial"",""time""
""fullscreenenter"",""0"",""2381""
","
",376.0000000000291,<img style='border: 4px solid darkgrey;' src='img/tf1_44_M_ss1.jpeg'></img>,1,NA,exp,NA,3,<img src='img/tf1_44_T1_ss1_md.jpeg'></img>,0,FALSE,NA,sub134
NA,html-keyboard-response,103,206191,0.0-10.0-0.44,"""event"",""trial"",""time""
""focus"",""0"",""0""
""fullscreenenter"",""0"",""2381""
","
","""event"",""trial"",""time""
""focus"",""0"",""0""
","""event"",""trial"",""time""
""fullscreenenter"",""0"",""2381""
","
",null,"<div style=""font-size:60px;"">+</div>",NA,null,fixation,2020-06-26T18:04:14Z,NA,NA,NA,NA,NA,sub134
NA,mars-trial,104,207147,0.0-10.0-1.44,"""event"",""trial"",""time""
""focus"",""0"",""0""
""fullscreenenter"",""0"",""2381""
","
","""event"",""trial"",""time""
""focus"",""0"",""0""
","""event"",""trial"",""time""
""fullscreenenter"",""0"",""2381""
","
",352,<img style='border: 4px solid darkgrey;' src='img/tf1_45_M_ss2.jpeg'></img>,3,NA,exp,NA,3,<img src='img/tf1_45_T1_ss2_md.jpeg'></img>,0,FALSE,NA,sub134
NA,html-keyboard-response,105,207649,0.0-10.0-0.45,"""event"",""trial"",""time""
""focus"",""0"",""0""
""fullscreenenter"",""0"",""2381""
","
","""event"",""trial"",""time""
""focus"",""0"",""0""
","""event"",""trial"",""time""
""fullscreenenter"",""0"",""2381""
","
",null,"<div style=""font-size:60px;"">+</div>",NA,null,fixation,2020-06-26T18:04:16Z,NA,NA,NA,NA,NA,sub134
NA,mars-trial,106,208602,0.0-10.0-1.45,"""event"",""trial"",""time""
""focus"",""0"",""0""
""fullscreenenter"",""0"",""2381""
","
","""event"",""trial"",""time""
""focus"",""0"",""0""
","""event"",""trial"",""time""
""fullscreenenter"",""0"",""2381""
","
",350,<img style='border: 4px solid darkgrey;' src='img/tf1_46_M_ss3.jpeg'></img>,0,NA,exp,NA,2,<img src='img/tf1_46_T1_ss3_md.jpeg'></img>,0,FALSE,NA,sub134
NA,html-keyboard-response,107,209102,0.0-10.0-0.46,"""event"",""trial"",""time""
""focus"",""0"",""0""
""fullscreenenter"",""0"",""2381""
","
","""event"",""trial"",""time""
""focus"",""0"",""0""
","""event"",""trial"",""time""
""fullscreenenter"",""0"",""2381""
","
",null,"<div style=""font-size:60px;"">+</div>",NA,null,fixation,2020-06-26T18:04:17Z,NA,NA,NA,NA,NA,sub134
NA,mars-trial,108,209879,0.0-10.0-1.46,"""event"",""trial"",""time""
""focus"",""0"",""0""
""fullscreenenter"",""0"",""2381""
","
","""event"",""trial"",""time""
""focus"",""0"",""0""
","""event"",""trial"",""time""
""fullscreenenter"",""0"",""2381""
","
",174,<img style='border: 4px solid darkgrey;' src='img/tf1_47_M_ss1.jpeg'></img>,0,NA,exp,NA,1,<img src='img/tf1_47_T1_ss1_md.jpeg'></img>,0,FALSE,NA,sub134
NA,html-keyboard-response,109,210380,0.0-10.0-0.47,"""event"",""trial"",""time""
""focus"",""0"",""0""
""fullscreenenter"",""0"",""2381""
","
","""event"",""trial"",""time""
""focus"",""0"",""0""
","""event"",""trial"",""time""
""fullscreenenter"",""0"",""2381""
","
",null,"<div style=""font-size:60px;"">+</div>",NA,null,fixation,2020-06-26T18:04:18Z,NA,NA,NA,NA,NA,sub134
NA,mars-trial,110,212047,0.0-10.0-1.47,"""event"",""trial"",""time""
""focus"",""0"",""0""
""fullscreenenter"",""0"",""2381""
","
","""event"",""trial"",""time""
""focus"",""0"",""0""
","""event"",""trial"",""time""
""fullscreenenter"",""0"",""2381""
","
",1064.000000000029,<img style='border: 4px solid darkgrey;' src='img/tf1_48_M_ss2.jpeg'></img>,2,NA,exp,NA,3,<img src='img/tf1_48_T1_ss2_md.jpeg'></img>,0,FALSE,NA,sub134
NA,html-keyboard-response,111,212548,0.0-10.0-0.48,"""event"",""trial"",""time""
""focus"",""0"",""0""
""fullscreenenter"",""0"",""2381""
","
","""event"",""trial"",""time""
""focus"",""0"",""0""
","""event"",""trial"",""time""
""fullscreenenter"",""0"",""2381""
","
",null,"<div style=""font-size:60px;"">+</div>",NA,null,fixation,2020-06-26T18:04:21Z,NA,NA,NA,NA,NA,sub134
NA,mars-trial,112,217834,0.0-10.0-1.48,"""event"",""trial"",""time""
""focus"",""0"",""0""
""fullscreenenter"",""0"",""2381""
","
","""event"",""trial"",""time""
""focus"",""0"",""0""
","""event"",""trial"",""time""
""fullscreenenter"",""0"",""2381""
","
",4682,<img style='border: 4px solid darkgrey;' src='img/tf1_49_M_ss3.jpeg'></img>,1,NA,exp,NA,1,<img src='img/tf1_49_T1_ss3_md.jpeg'></img>,0,FALSE,NA,sub134
NA,html-keyboard-response,113,218336,0.0-10.0-0.49,"""event"",""trial"",""time""
""focus"",""0"",""0""
""fullscreenenter"",""0"",""2381""
","
","""event"",""trial"",""time""
""focus"",""0"",""0""
","""event"",""trial"",""time""
""fullscreenenter"",""0"",""2381""
","
",null,"<div style=""font-size:60px;"">+</div>",NA,null,fixation,2020-06-26T18:04:26Z,NA,NA,NA,NA,NA,sub134
NA,mars-trial,114,220925,0.0-10.0-1.49,"""event"",""trial"",""time""
""focus"",""0"",""0""
""fullscreenenter"",""0"",""2381""
","
","""event"",""trial"",""time""
""focus"",""0"",""0""
","""event"",""trial"",""time""
""fullscreenenter"",""0"",""2381""
","
",1985,<img style='border: 4px solid darkgrey;' src='img/tf1_50_M_ss1.jpeg'></img>,0,NA,exp,NA,3,<img src='img/tf1_50_T1_ss1_md.jpeg'></img>,0,FALSE,NA,sub134
NA,html-keyboard-response,115,221426,0.0-10.0-0.50,"""event"",""trial"",""time""
""focus"",""0"",""0""
""fullscreenenter"",""0"",""2381""
","
","""event"",""trial"",""time""
""focus"",""0"",""0""
","""event"",""trial"",""time""
""fullscreenenter"",""0"",""2381""
","
",null,"<div style=""font-size:60px;"">+</div>",NA,null,fixation,2020-06-26T18:04:29Z,NA,NA,NA,NA,NA,sub134
NA,mars-trial,116,222735,0.0-10.0-1.50,"""event"",""trial"",""time""
""focus"",""0"",""0""
""fullscreenenter"",""0"",""2381""
","
","""event"",""trial"",""time""
""focus"",""0"",""0""
","""event"",""trial"",""time""
""fullscreenenter"",""0"",""2381""
","
",705.9999999999709,<img style='border: 4px solid darkgrey;' src='img/tf1_51_M_ss2.jpeg'></img>,3,NA,exp,NA,0,<img src='img/tf1_51_T1_ss2_md.jpeg'></img>,0,TRUE,NA,sub134
NA,html-keyboard-response,117,223236,0.0-10.0-0.51,"""event"",""trial"",""time""
""focus"",""0"",""0""
""fullscreenenter"",""0"",""2381""
","
","""event"",""trial"",""time""
""focus"",""0"",""0""
","""event"",""trial"",""time""
""fullscreenenter"",""0"",""2381""
","
",null,"<div style=""font-size:60px;"">+</div>",NA,null,fixation,2020-06-26T18:04:31Z,NA,NA,NA,NA,NA,sub134
NA,mars-trial,118,227521,0.0-10.0-1.51,"""event"",""trial"",""time""
""focus"",""0"",""0""
""fullscreenenter"",""0"",""2381""
","
","""event"",""trial"",""time""
""focus"",""0"",""0""
","""event"",""trial"",""time""
""fullscreenenter"",""0"",""2381""
","
",3684,<img style='border: 4px solid darkgrey;' src='img/tf1_52_M_ss3.jpeg'></img>,1,NA,exp,NA,2,<img src='img/tf1_52_T1_ss3_md.jpeg'></img>,0,FALSE,NA,sub134
NA,html-keyboard-response,119,228022,0.0-10.0-0.52,"""event"",""trial"",""time""
""focus"",""0"",""0""
""fullscreenenter"",""0"",""2381""
","
","""event"",""trial"",""time""
""focus"",""0"",""0""
","""event"",""trial"",""time""
""fullscreenenter"",""0"",""2381""
","
",null,"<div style=""font-size:60px;"">+</div>",NA,null,fixation,2020-06-26T18:04:36Z,NA,NA,NA,NA,NA,sub134
NA,mars-trial,120,229730,0.0-10.0-1.52,"""event"",""trial"",""time""
""focus"",""0"",""0""
""fullscreenenter"",""0"",""2381""
","
","""event"",""trial"",""time""
""focus"",""0"",""0""
","""event"",""trial"",""time""
""fullscreenenter"",""0"",""2381""
","
",1104,<img style='border: 4px solid darkgrey;' src='img/tf1_53_M_ss1.jpeg'></img>,3,NA,exp,NA,0,<img src='img/tf1_53_T1_ss1_md.jpeg'></img>,0,TRUE,NA,sub134
NA,html-keyboard-response,121,230231,0.0-10.0-0.53,"""event"",""trial"",""time""
""focus"",""0"",""0""
""fullscreenenter"",""0"",""2381""
","
","""event"",""trial"",""time""
""focus"",""0"",""0""
","""event"",""trial"",""time""
""fullscreenenter"",""0"",""2381""
","
",null,"<div style=""font-size:60px;"">+</div>",NA,null,fixation,2020-06-26T18:04:38Z,NA,NA,NA,NA,NA,sub134
NA,mars-trial,122,231881,0.0-10.0-1.53,"""event"",""trial"",""time""
""focus"",""0"",""0""
""fullscreenenter"",""0"",""2381""
","
","""event"",""trial"",""time""
""focus"",""0"",""0""
","""event"",""trial"",""time""
""fullscreenenter"",""0"",""2381""
","
",1046.000000000029,<img style='border: 4px solid darkgrey;' src='img/tf1_54_M_ss2.jpeg'></img>,3,NA,exp,NA,3,<img src='img/tf1_54_T1_ss2_md.jpeg'></img>,0,FALSE,NA,sub134
NA,html-keyboard-response,123,232383,0.0-10.0-0.54,"""event"",""trial"",""time""
""focus"",""0"",""0""
""fullscreenenter"",""0"",""2381""
","
","""event"",""trial"",""time""
""focus"",""0"",""0""
","""event"",""trial"",""time""
""fullscreenenter"",""0"",""2381""
","
",null,"<div style=""font-size:60px;"">+</div>",NA,null,fixation,2020-06-26T18:04:40Z,NA,NA,NA,NA,NA,sub134
NA,mars-trial,124,233773,0.0-10.0-1.54,"""event"",""trial"",""time""
""focus"",""0"",""0""
""fullscreenenter"",""0"",""2381""
","
","""event"",""trial"",""time""
""focus"",""0"",""0""
","""event"",""trial"",""time""
""fullscreenenter"",""0"",""2381""
","
",787.0000000000291,<img style='border: 4px solid darkgrey;' src='img/tf1_55_M_ss3.jpeg'></img>,2,NA,exp,NA,1,<img src='img/tf1_55_T1_ss3_md.jpeg'></img>,0,FALSE,NA,sub134
NA,html-keyboard-response,125,234274,0.0-10.0-0.55,"""event"",""trial"",""time""
""focus"",""0"",""0""
""fullscreenenter"",""0"",""2381""
","
","""event"",""trial"",""time""
""focus"",""0"",""0""
","""event"",""trial"",""time""
""fullscreenenter"",""0"",""2381""
","
",null,"<div style=""font-size:60px;"">+</div>",NA,null,fixation,2020-06-26T18:04:42Z,NA,NA,NA,NA,NA,sub134
NA,mars-trial,126,239240,0.0-10.0-1.55,"""event"",""trial"",""time""
""focus"",""0"",""0""
""fullscreenenter"",""0"",""2381""
","
","""event"",""trial"",""time""
""focus"",""0"",""0""
","""event"",""trial"",""time""
""fullscreenenter"",""0"",""2381""
","
",4362,<img style='border: 4px solid darkgrey;' src='img/tf1_56_M_ss1.jpeg'></img>,2,NA,exp,NA,2,<img src='img/tf1_56_T1_ss1_md.jpeg'></img>,0,FALSE,NA,sub134
NA,html-keyboard-response,127,239742,0.0-10.0-0.56,"""event"",""trial"",""time""
""focus"",""0"",""0""
""fullscreenenter"",""0"",""2381""
","
","""event"",""trial"",""time""
""focus"",""0"",""0""
","""event"",""trial"",""time""
""fullscreenenter"",""0"",""2381""
","
",null,"<div style=""font-size:60px;"">+</div>",NA,null,fixation,2020-06-26T18:04:48Z,NA,NA,NA,NA,NA,sub134
NA,mars-trial,128,243444,0.0-10.0-1.56,"""event"",""trial"",""time""
""focus"",""0"",""0""
""fullscreenenter"",""0"",""2381""
","
","""event"",""trial"",""time""
""focus"",""0"",""0""
","""event"",""trial"",""time""
""fullscreenenter"",""0"",""2381""
","
",3098.999999999971,<img style='border: 4px solid darkgrey;' src='img/tf1_57_M_ss2.jpeg'></img>,1,NA,exp,NA,1,<img src='img/tf1_57_T1_ss2_md.jpeg'></img>,0,FALSE,NA,sub134
NA,html-keyboard-response,129,243945,0.0-10.0-0.57,"""event"",""trial"",""time""
""focus"",""0"",""0""
""fullscreenenter"",""0"",""2381""
","
","""event"",""trial"",""time""
""focus"",""0"",""0""
","""event"",""trial"",""time""
""fullscreenenter"",""0"",""2381""
","
",null,"<div style=""font-size:60px;"">+</div>",NA,null,fixation,2020-06-26T18:04:52Z,NA,NA,NA,NA,NA,sub134
NA,mars-trial,130,248014,0.0-10.0-1.57,"""event"",""trial"",""time""
""focus"",""0"",""0""
""fullscreenenter"",""0"",""2381""
","
","""event"",""trial"",""time""
""focus"",""0"",""0""
","""event"",""trial"",""time""
""fullscreenenter"",""0"",""2381""
","
",3465,<img style='border: 4px solid darkgrey;' src='img/tf1_58_M_ss3.jpeg'></img>,2,NA,exp,NA,0,<img src='img/tf1_58_T1_ss3_md.jpeg'></img>,0,TRUE,NA,sub134
NA,html-keyboard-response,131,248516,0.0-10.0-0.58,"""event"",""trial"",""time""
""focus"",""0"",""0""
""fullscreenenter"",""0"",""2381""
","
","""event"",""trial"",""time""
""focus"",""0"",""0""
","""event"",""trial"",""time""
""fullscreenenter"",""0"",""2381""
","
",null,"<div style=""font-size:60px;"">+</div>",NA,null,fixation,2020-06-26T18:04:57Z,NA,NA,NA,NA,NA,sub134
NA,mars-trial,132,250415,0.0-10.0-1.58,"""event"",""trial"",""time""
""focus"",""0"",""0""
""fullscreenenter"",""0"",""2381""
","
","""event"",""trial"",""time""
""focus"",""0"",""0""
","""event"",""trial"",""time""
""fullscreenenter"",""0"",""2381""
","
",1295.999999999971,<img style='border: 4px solid darkgrey;' src='img/tf1_59_M_ss1.jpeg'></img>,1,NA,exp,NA,2,<img src='img/tf1_59_T1_ss1_md.jpeg'></img>,0,FALSE,NA,sub134
NA,html-keyboard-response,133,250917,0.0-10.0-0.59,"""event"",""trial"",""time""
""focus"",""0"",""0""
""fullscreenenter"",""0"",""2381""
","
","""event"",""trial"",""time""
""focus"",""0"",""0""
","""event"",""trial"",""time""
""fullscreenenter"",""0"",""2381""
","
",null,"<div style=""font-size:60px;"">+</div>",NA,null,fixation,2020-06-26T18:04:59Z,NA,NA,NA,NA,NA,sub134
NA,mars-trial,134,253561,0.0-10.0-1.59,"""event"",""trial"",""time""
""focus"",""0"",""0""
""fullscreenenter"",""0"",""2381""
","
","""event"",""trial"",""time""
""focus"",""0"",""0""
","""event"",""trial"",""time""
""fullscreenenter"",""0"",""2381""
","
",2040,<img style='border: 4px solid darkgrey;' src='img/tf1_60_M_ss2.jpeg'></img>,3,NA,exp,NA,3,<img src='img/tf1_60_T1_ss2_md.jpeg'></img>,0,FALSE,NA,sub134
NA,html-keyboard-response,135,254063,0.0-10.0-0.60,"""event"",""trial"",""time""
""focus"",""0"",""0""
""fullscreenenter"",""0"",""2381""
","
","""event"",""trial"",""time""
""focus"",""0"",""0""
","""event"",""trial"",""time""
""fullscreenenter"",""0"",""2381""
","
",null,"<div style=""font-size:60px;"">+</div>",NA,null,fixation,2020-06-26T18:05:02Z,NA,NA,NA,NA,NA,sub134
NA,mars-trial,136,255849,0.0-10.0-1.60,"""event"",""trial"",""time""
""focus"",""0"",""0""
""fullscreenenter"",""0"",""2381""
","
","""event"",""trial"",""time""
""focus"",""0"",""0""
","""event"",""trial"",""time""
""fullscreenenter"",""0"",""2381""
","
",1183,<img style='border: 4px solid darkgrey;' src='img/tf1_61_M_ss3.jpeg'></img>,1,NA,exp,NA,3,<img src='img/tf1_61_T1_ss3_md.jpeg'></img>,0,FALSE,NA,sub134
NA,html-keyboard-response,137,256350,0.0-10.0-0.61,"""event"",""trial"",""time""
""focus"",""0"",""0""
""fullscreenenter"",""0"",""2381""
","
","""event"",""trial"",""time""
""focus"",""0"",""0""
","""event"",""trial"",""time""
""fullscreenenter"",""0"",""2381""
","
",null,"<div style=""font-size:60px;"">+</div>",NA,null,fixation,2020-06-26T18:05:04Z,NA,NA,NA,NA,NA,sub134
NA,mars-trial,138,259554,0.0-10.0-1.61,"""event"",""trial"",""time""
""focus"",""0"",""0""
""fullscreenenter"",""0"",""2381""
","
","""event"",""trial"",""time""
""focus"",""0"",""0""
","""event"",""trial"",""time""
""fullscreenenter"",""0"",""2381""
","
",2601,<img style='border: 4px solid darkgrey;' src='img/tf1_62_M_ss1.jpeg'></img>,2,NA,exp,NA,2,<img src='img/tf1_62_T1_ss1_md.jpeg'></img>,0,FALSE,NA,sub134
NA,html-keyboard-response,139,260056,0.0-10.0-0.62,"""event"",""trial"",""time""
""focus"",""0"",""0""
""fullscreenenter"",""0"",""2381""
","
","""event"",""trial"",""time""
""focus"",""0"",""0""
","""event"",""trial"",""time""
""fullscreenenter"",""0"",""2381""
","
",null,"<div style=""font-size:60px;"">+</div>",NA,null,fixation,2020-06-26T18:05:08Z,NA,NA,NA,NA,NA,sub134
NA,mars-trial,140,261923,0.0-10.0-1.62,"""event"",""trial"",""time""
""focus"",""0"",""0""
""fullscreenenter"",""0"",""2381""
","
","""event"",""trial"",""time""
""focus"",""0"",""0""
","""event"",""trial"",""time""
""fullscreenenter"",""0"",""2381""
","
",1264,<img style='border: 4px solid darkgrey;' src='img/tf1_63_M_ss2.jpeg'></img>,0,NA,exp,NA,3,<img src='img/tf1_63_T1_ss2_md.jpeg'></img>,0,FALSE,NA,sub134
NA,html-keyboard-response,141,262425,0.0-10.0-0.63,"""event"",""trial"",""time""
""focus"",""0"",""0""
""fullscreenenter"",""0"",""2381""
","
","""event"",""trial"",""time""
""focus"",""0"",""0""
","""event"",""trial"",""time""
""fullscreenenter"",""0"",""2381""
","
",null,"<div style=""font-size:60px;"">+</div>",NA,null,fixation,2020-06-26T18:05:10Z,NA,NA,NA,NA,NA,sub134
NA,mars-trial,142,265247,0.0-10.0-1.63,"""event"",""trial"",""time""
""focus"",""0"",""0""
""fullscreenenter"",""0"",""2381""
","
","""event"",""trial"",""time""
""focus"",""0"",""0""
","""event"",""trial"",""time""
""fullscreenenter"",""0"",""2381""
","
",2218,<img style='border: 4px solid darkgrey;' src='img/tf1_64_M_ss3.jpeg'></img>,3,NA,exp,NA,0,<img src='img/tf1_64_T1_ss3_md.jpeg'></img>,0,TRUE,NA,sub134
NA,html-keyboard-response,143,265749,0.0-10.0-0.64,"""event"",""trial"",""time""
""focus"",""0"",""0""
""fullscreenenter"",""0"",""2381""
","
","""event"",""trial"",""time""
""focus"",""0"",""0""
","""event"",""trial"",""time""
""fullscreenenter"",""0"",""2381""
","
",null,"<div style=""font-size:60px;"">+</div>",NA,null,fixation,2020-06-26T18:05:14Z,NA,NA,NA,NA,NA,sub134
NA,mars-trial,144,267462,0.0-10.0-1.64,"""event"",""trial"",""time""
""focus"",""0"",""0""
""fullscreenenter"",""0"",""2381""
","
","""event"",""trial"",""time""
""focus"",""0"",""0""
","""event"",""trial"",""time""
""fullscreenenter"",""0"",""2381""
","
",1111,<img style='border: 4px solid darkgrey;' src='img/tf1_65_M_ss1.jpeg'></img>,3,NA,exp,NA,1,<img src='img/tf1_65_T1_ss1_md.jpeg'></img>,0,FALSE,NA,sub134
NA,html-keyboard-response,145,267963,0.0-10.0-0.65,"""event"",""trial"",""time""
""focus"",""0"",""0""
""fullscreenenter"",""0"",""2381""
","
","""event"",""trial"",""time""
""focus"",""0"",""0""
","""event"",""trial"",""time""
""fullscreenenter"",""0"",""2381""
","
",null,"<div style=""font-size:60px;"">+</div>",NA,null,fixation,2020-06-26T18:05:16Z,NA,NA,NA,NA,NA,sub134
NA,mars-trial,146,269089,0.0-10.0-1.65,"""event"",""trial"",""time""
""focus"",""0"",""0""
""fullscreenenter"",""0"",""2381""
","
","""event"",""trial"",""time""
""focus"",""0"",""0""
","""event"",""trial"",""time""
""fullscreenenter"",""0"",""2381""
","
",523,<img style='border: 4px solid darkgrey;' src='img/tf1_66_M_ss2.jpeg'></img>,1,NA,exp,NA,1,<img src='img/tf1_66_T1_ss2_md.jpeg'></img>,0,FALSE,NA,sub134
NA,html-keyboard-response,147,269591,0.0-10.0-0.66,"""event"",""trial"",""time""
""focus"",""0"",""0""
""fullscreenenter"",""0"",""2381""
","
","""event"",""trial"",""time""
""focus"",""0"",""0""
","""event"",""trial"",""time""
""fullscreenenter"",""0"",""2381""
","
",null,"<div style=""font-size:60px;"">+</div>",NA,null,fixation,2020-06-26T18:05:18Z,NA,NA,NA,NA,NA,sub134
NA,mars-trial,148,272687,0.0-10.0-1.66,"""event"",""trial"",""time""
""focus"",""0"",""0""
""fullscreenenter"",""0"",""2381""
","
","""event"",""trial"",""time""
""focus"",""0"",""0""
","""event"",""trial"",""time""
""fullscreenenter"",""0"",""2381""
","
",2492,<img style='border: 4px solid darkgrey;' src='img/tf1_67_M_ss3.jpeg'></img>,0,NA,exp,NA,2,<img src='img/tf1_67_T1_ss3_md.jpeg'></img>,0,FALSE,NA,sub134
NA,html-keyboard-response,149,273188,0.0-10.0-0.67,"""event"",""trial"",""time""
""focus"",""0"",""0""
""fullscreenenter"",""0"",""2381""
","
","""event"",""trial"",""time""
""focus"",""0"",""0""
","""event"",""trial"",""time""
""fullscreenenter"",""0"",""2381""
","
",null,"<div style=""font-size:60px;"">+</div>",NA,null,fixation,2020-06-26T18:05:21Z,NA,NA,NA,NA,NA,sub134
NA,mars-trial,150,276302,0.0-10.0-1.67,"""event"",""trial"",""time""
""focus"",""0"",""0""
""fullscreenenter"",""0"",""2381""
","
","""event"",""trial"",""time""
""focus"",""0"",""0""
","""event"",""trial"",""time""
""fullscreenenter"",""0"",""2381""
","
",2510,<img style='border: 4px solid darkgrey;' src='img/tf1_68_M_ss1.jpeg'></img>,2,NA,exp,NA,0,<img src='img/tf1_68_T1_ss1_md.jpeg'></img>,0,TRUE,NA,sub134
NA,html-keyboard-response,151,276804,0.0-10.0-0.68,"""event"",""trial"",""time""
""focus"",""0"",""0""
""fullscreenenter"",""0"",""2381""
","
","""event"",""trial"",""time""
""focus"",""0"",""0""
","""event"",""trial"",""time""
""fullscreenenter"",""0"",""2381""
","
",null,"<div style=""font-size:60px;"">+</div>",NA,null,fixation,2020-06-26T18:05:25Z,NA,NA,NA,NA,NA,sub134
NA,mars-trial,152,282891,0.0-10.0-1.68,"""event"",""trial"",""time""
""focus"",""0"",""0""
""fullscreenenter"",""0"",""2381""
","
","""event"",""trial"",""time""
""focus"",""0"",""0""
","""event"",""trial"",""time""
""fullscreenenter"",""0"",""2381""
","
",5484,<img style='border: 4px solid darkgrey;' src='img/tf1_69_M_ss2.jpeg'></img>,1,NA,exp,NA,0,<img src='img/tf1_69_T1_ss2_md.jpeg'></img>,0,TRUE,NA,sub134
NA,html-keyboard-response,153,283393,0.0-10.0-0.69,"""event"",""trial"",""time""
""focus"",""0"",""0""
""fullscreenenter"",""0"",""2381""
","
","""event"",""trial"",""time""
""focus"",""0"",""0""
","""event"",""trial"",""time""
""fullscreenenter"",""0"",""2381""
","
",null,"<div style=""font-size:60px;"">+</div>",NA,null,fixation,2020-06-26T18:05:31Z,NA,NA,NA,NA,NA,sub134
NA,mars-trial,154,289840,0.0-10.0-1.69,"""event"",""trial"",""time""
""focus"",""0"",""0""
""fullscreenenter"",""0"",""2381""
","
","""event"",""trial"",""time""
""focus"",""0"",""0""
","""event"",""trial"",""time""
""fullscreenenter"",""0"",""2381""
","
",5843,<img style='border: 4px solid darkgrey;' src='img/tf1_70_M_ss3.jpeg'></img>,3,NA,exp,NA,2,<img src='img/tf1_70_T1_ss3_md.jpeg'></img>,0,FALSE,NA,sub134
NA,html-keyboard-response,155,290342,0.0-10.0-0.70,"""event"",""trial"",""time""
""focus"",""0"",""0""
""fullscreenenter"",""0"",""2381""
","
","""event"",""trial"",""time""
""focus"",""0"",""0""
","""event"",""trial"",""time""
""fullscreenenter"",""0"",""2381""
","
",null,"<div style=""font-size:60px;"">+</div>",NA,null,fixation,2020-06-26T18:05:38Z,NA,NA,NA,NA,NA,sub134
NA,mars-trial,156,295244,0.0-10.0-1.70,"""event"",""trial"",""time""
""focus"",""0"",""0""
""fullscreenenter"",""0"",""2381""
","
","""event"",""trial"",""time""
""focus"",""0"",""0""
","""event"",""trial"",""time""
""fullscreenenter"",""0"",""2381""
","
",4298,<img style='border: 4px solid darkgrey;' src='img/tf1_71_M_ss1.jpeg'></img>,0,NA,exp,NA,1,<img src='img/tf1_71_T1_ss1_md.jpeg'></img>,0,FALSE,NA,sub134
NA,html-keyboard-response,157,295746,0.0-10.0-0.71,"""event"",""trial"",""time""
""focus"",""0"",""0""
""fullscreenenter"",""0"",""2381""
","
","""event"",""trial"",""time""
""focus"",""0"",""0""
","""event"",""trial"",""time""
""fullscreenenter"",""0"",""2381""
","
",null,"<div style=""font-size:60px;"">+</div>",NA,null,fixation,2020-06-26T18:05:44Z,NA,NA,NA,NA,NA,sub134
NA,mars-trial,158,297799,0.0-10.0-1.71,"""event"",""trial"",""time""
""focus"",""0"",""0""
""fullscreenenter"",""0"",""2381""
","
","""event"",""trial"",""time""
""focus"",""0"",""0""
","""event"",""trial"",""time""
""fullscreenenter"",""0"",""2381""
","
",1450.9999999999418,<img style='border: 4px solid darkgrey;' src='img/tf1_72_M_ss2.jpeg'></img>,1,NA,exp,NA,3,<img src='img/tf1_72_T1_ss2_md.jpeg'></img>,0,FALSE,NA,sub134
NA,html-keyboard-response,159,298301,0.0-10.0-0.72,"""event"",""trial"",""time""
""focus"",""0"",""0""
""fullscreenenter"",""0"",""2381""
","
","""event"",""trial"",""time""
""focus"",""0"",""0""
","""event"",""trial"",""time""
""fullscreenenter"",""0"",""2381""
","
",null,"<div style=""font-size:60px;"">+</div>",NA,null,fixation,2020-06-26T18:05:46Z,NA,NA,NA,NA,NA,sub134
NA,mars-trial,160,303357,0.0-10.0-1.72,"""event"",""trial"",""time""
""focus"",""0"",""0""
""fullscreenenter"",""0"",""2381""
","
","""event"",""trial"",""time""
""focus"",""0"",""0""
","""event"",""trial"",""time""
""fullscreenenter"",""0"",""2381""
","
",4453,<img style='border: 4px solid darkgrey;' src='img/tf1_73_M_ss3.jpeg'></img>,3,NA,exp,NA,0,<img src='img/tf1_73_T1_ss3_md.jpeg'></img>,0,TRUE,NA,sub134
NA,html-keyboard-response,161,303859,0.0-10.0-0.73,"""event"",""trial"",""time""
""focus"",""0"",""0""
""fullscreenenter"",""0"",""2381""
","
","""event"",""trial"",""time""
""focus"",""0"",""0""
","""event"",""trial"",""time""
""fullscreenenter"",""0"",""2381""
","
",null,"<div style=""font-size:60px;"">+</div>",NA,null,fixation,2020-06-26T18:05:52Z,NA,NA,NA,NA,NA,sub134
NA,mars-trial,162,307101,0.0-10.0-1.73,"""event"",""trial"",""time""
""focus"",""0"",""0""
""fullscreenenter"",""0"",""2381""
","
","""event"",""trial"",""time""
""focus"",""0"",""0""
","""event"",""trial"",""time""
""fullscreenenter"",""0"",""2381""
","
",2640,<img style='border: 4px solid darkgrey;' src='img/tf1_74_M_ss1.jpeg'></img>,1,NA,exp,NA,2,<img src='img/tf1_74_T1_ss1_md.jpeg'></img>,0,FALSE,NA,sub134
NA,html-keyboard-response,163,307603,0.0-10.0-0.74,"""event"",""trial"",""time""
""focus"",""0"",""0""
""fullscreenenter"",""0"",""2381""
","
","""event"",""trial"",""time""
""focus"",""0"",""0""
","""event"",""trial"",""time""
""fullscreenenter"",""0"",""2381""
","
",null,"<div style=""font-size:60px;"">+</div>",NA,null,fixation,2020-06-26T18:05:56Z,NA,NA,NA,NA,NA,sub134
NA,mars-trial,164,312084,0.0-10.0-1.74,"""event"",""trial"",""time""
""focus"",""0"",""0""
""fullscreenenter"",""0"",""2381""
","
","""event"",""trial"",""time""
""focus"",""0"",""0""
","""event"",""trial"",""time""
""fullscreenenter"",""0"",""2381""
","
",3878,<img style='border: 4px solid darkgrey;' src='img/tf1_75_M_ss2.jpeg'></img>,3,NA,exp,NA,3,<img src='img/tf1_75_T1_ss2_md.jpeg'></img>,0,FALSE,NA,sub134
NA,html-keyboard-response,165,312586,0.0-10.0-0.75,"""event"",""trial"",""time""
""focus"",""0"",""0""
""fullscreenenter"",""0"",""2381""
","
","""event"",""trial"",""time""
""focus"",""0"",""0""
","""event"",""trial"",""time""
""fullscreenenter"",""0"",""2381""
","
",null,"<div style=""font-size:60px;"">+</div>",NA,null,fixation,2020-06-26T18:06:01Z,NA,NA,NA,NA,NA,sub134
NA,mars-trial,166,313911,0.0-10.0-1.75,"""event"",""trial"",""time""
""focus"",""0"",""0""
""fullscreenenter"",""0"",""2381""
","
","""event"",""trial"",""time""
""focus"",""0"",""0""
","""event"",""trial"",""time""
""fullscreenenter"",""0"",""2381""
","
",722,<img style='border: 4px solid darkgrey;' src='img/tf1_76_M_ss3.jpeg'></img>,1,NA,exp,NA,0,<img src='img/tf1_76_T1_ss3_md.jpeg'></img>,0,TRUE,NA,sub134
NA,html-keyboard-response,167,314412,0.0-10.0-0.76,"""event"",""trial"",""time""
""focus"",""0"",""0""
""fullscreenenter"",""0"",""2381""
","
","""event"",""trial"",""time""
""focus"",""0"",""0""
","""event"",""trial"",""time""
""fullscreenenter"",""0"",""2381""
","
",null,"<div style=""font-size:60px;"">+</div>",NA,null,fixation,2020-06-26T18:06:02Z,NA,NA,NA,NA,NA,sub134
NA,mars-trial,168,321768,0.0-10.0-1.76,"""event"",""trial"",""time""
""focus"",""0"",""0""
""fullscreenenter"",""0"",""2381""
","
","""event"",""trial"",""time""
""focus"",""0"",""0""
","""event"",""trial"",""time""
""fullscreenenter"",""0"",""2381""
","
",6752,<img style='border: 4px solid darkgrey;' src='img/tf1_77_M_ss1.jpeg'></img>,2,NA,exp,NA,0,<img src='img/tf1_77_T1_ss1_md.jpeg'></img>,0,TRUE,NA,sub134
NA,html-keyboard-response,169,322270,0.0-10.0-0.77,"""event"",""trial"",""time""
""focus"",""0"",""0""
""fullscreenenter"",""0"",""2381""
","
","""event"",""trial"",""time""
""focus"",""0"",""0""
","""event"",""trial"",""time""
""fullscreenenter"",""0"",""2381""
","
",null,"<div style=""font-size:60px;"">+</div>",NA,null,fixation,2020-06-26T18:06:10Z,NA,NA,NA,NA,NA,sub134
NA,mars-trial,170,330781,0.0-10.0-1.77,"""event"",""trial"",""time""
""focus"",""0"",""0""
""fullscreenenter"",""0"",""2381""
","
","""event"",""trial"",""time""
""focus"",""0"",""0""
","""event"",""trial"",""time""
""fullscreenenter"",""0"",""2381""
","
",7908.999999999942,<img style='border: 4px solid darkgrey;' src='img/tf1_78_M_ss2.jpeg'></img>,0,NA,exp,NA,2,<img src='img/tf1_78_T1_ss2_md.jpeg'></img>,0,FALSE,NA,sub134
NA,html-keyboard-response,171,331282,0.0-10.0-0.78,"""event"",""trial"",""time""
""focus"",""0"",""0""
""fullscreenenter"",""0"",""2381""
","
","""event"",""trial"",""time""
""focus"",""0"",""0""
","""event"",""trial"",""time""
""fullscreenenter"",""0"",""2381""
","
",null,"<div style=""font-size:60px;"">+</div>",NA,null,fixation,2020-06-26T18:06:19Z,NA,NA,NA,NA,NA,sub134
NA,mars-trial,172,335497,0.0-10.0-1.78,"""event"",""trial"",""time""
""focus"",""0"",""0""
""fullscreenenter"",""0"",""2381""
","
","""event"",""trial"",""time""
""focus"",""0"",""0""
","""event"",""trial"",""time""
""fullscreenenter"",""0"",""2381""
","
",3610.999999999942,<img style='border: 4px solid darkgrey;' src='img/tf1_79_M_ss3.jpeg'></img>,3,NA,exp,NA,1,<img src='img/tf1_79_T1_ss3_md.jpeg'></img>,0,FALSE,NA,sub134
NA,html-keyboard-response,173,335999,0.0-10.0-0.79,"""event"",""trial"",""time""
""focus"",""0"",""0""
""fullscreenenter"",""0"",""2381""
","
","""event"",""trial"",""time""
""focus"",""0"",""0""
","""event"",""trial"",""time""
""fullscreenenter"",""0"",""2381""
","
",null,"<div style=""font-size:60px;"">+</div>",NA,null,fixation,2020-06-26T18:06:24Z,NA,NA,NA,NA,NA,sub134
NA,mars-trial,174,338506,0.0-10.0-1.79,"""event"",""trial"",""time""
""focus"",""0"",""0""
""fullscreenenter"",""0"",""2381""
","
","""event"",""trial"",""time""
""focus"",""0"",""0""
","""event"",""trial"",""time""
""fullscreenenter"",""0"",""2381""
","
",1903,<img style='border: 4px solid darkgrey;' src='img/tf1_80_M_ss1.jpeg'></img>,1,NA,exp,NA,0,<img src='img/tf1_80_T1_ss1_md.jpeg'></img>,0,TRUE,NA,sub134
NA,audio-button-response,175,340399,0.0-11.0,"""event"",""trial"",""time""
""focus"",""0"",""0""
""fullscreenenter"",""0"",""2381""
","
","""event"",""trial"",""time""
""focus"",""0"",""0""
","""event"",""trial"",""time""
""fullscreenenter"",""0"",""2381""
","
",1893,audio/mars_instructions_slide5.wav,0,NA,NA,NA,NA,NA,NA,NA,NA,sub134
