success,trial_type,trial_index,time_elapsed,internal_node_id,interactions,blur_events,focus_events,fullscreenenter_events,fullscreenexit_events,rt,stimulus,button_pressed,key_press,part,timestamp,unshuffled_button,correct_response,correct_button,correct,value,subject_id
TRUE,fullscreen,0,4352,0.0-0.0,"""event"",""trial"",""time""
""fullscreenenter"",""0"",""3388""
","
","
","""event"",""trial"",""time""
""fullscreenenter"",""0"",""3388""
","
",NA,NA,NA,NA,NA,NA,NA,NA,NA,NA,NA,sub57
NA,pavlovia,1,4368,0.0-1.0,"""event"",""trial"",""time""
""fullscreenenter"",""0"",""3388""
","
","
","""event"",""trial"",""time""
""fullscreenenter"",""0"",""3388""
","
",NA,NA,NA,NA,NA,NA,NA,NA,NA,NA,NA,sub57
NA,html-button-response,2,6849,0.0-2.0,"""event"",""trial"",""time""
""fullscreenenter"",""0"",""3388""
""blur"",""3"",""13179""
""focus"",""3"",""18165""
","""event"",""trial"",""time""
""blur"",""3"",""13179""
","""event"",""trial"",""time""
""focus"",""3"",""18165""
","""event"",""trial"",""time""
""fullscreenenter"",""0"",""3388""
","
",2473.020000004908,<p>Welcome! Press START to begin.</p><br>,0,NA,NA,NA,NA,NA,NA,NA,NA,sub57
NA,audio-button-response,3,28961,0.0-3.0,"""event"",""trial"",""time""
""fullscreenenter"",""0"",""3388""
""blur"",""3"",""13179""
""focus"",""3"",""18165""
","""event"",""trial"",""time""
""blur"",""3"",""13179""
","""event"",""trial"",""time""
""focus"",""3"",""18165""
","""event"",""trial"",""time""
""fullscreenenter"",""0"",""3388""
","
",22102.59500000393,audio/mars_instructions_slide2.wav,0,NA,NA,NA,NA,NA,NA,NA,NA,sub57
NA,audio-button-response,4,44971,0.0-4.0,"""event"",""trial"",""time""
""fullscreenenter"",""0"",""3388""
""blur"",""3"",""13179""
""focus"",""3"",""18165""
","""event"",""trial"",""time""
""blur"",""3"",""13179""
","""event"",""trial"",""time""
""focus"",""3"",""18165""
","""event"",""trial"",""time""
""fullscreenenter"",""0"",""3388""
","
",16001.35500000033,audio/mars_instructions_slide3.wav,0,NA,NA,NA,NA,NA,NA,NA,NA,sub57
NA,html-keyboard-response,5,45491,0.0-5.0-0.0,"""event"",""trial"",""time""
""fullscreenenter"",""0"",""3388""
""blur"",""3"",""13179""
""focus"",""3"",""18165""
","""event"",""trial"",""time""
""blur"",""3"",""13179""
","""event"",""trial"",""time""
""focus"",""3"",""18165""
","""event"",""trial"",""time""
""fullscreenenter"",""0"",""3388""
","
",null,"<div style=""font-size:60px;"">+</div>",NA,null,fixation,2020-06-15T20:09:31Z,NA,NA,NA,NA,NA,sub57
NA,mars-trial,6,51432,0.0-5.0-1.0,"""event"",""trial"",""time""
""fullscreenenter"",""0"",""3388""
""blur"",""3"",""13179""
""focus"",""3"",""18165""
","""event"",""trial"",""time""
""blur"",""3"",""13179""
","""event"",""trial"",""time""
""focus"",""3"",""18165""
","""event"",""trial"",""time""
""fullscreenenter"",""0"",""3388""
","
",3803.5449999879347,<img style='border: 4px solid darkgrey;' src='practice/pt1_M1.png'></img>,1,NA,practice,NA,0,<img src='practice/pt1_T1.png'></img>,0,TRUE,NA,sub57
NA,html-keyboard-response,7,51950,0.0-6.0-0.0,"""event"",""trial"",""time""
""fullscreenenter"",""0"",""3388""
""blur"",""3"",""13179""
""focus"",""3"",""18165""
","""event"",""trial"",""time""
""blur"",""3"",""13179""
","""event"",""trial"",""time""
""focus"",""3"",""18165""
","""event"",""trial"",""time""
""fullscreenenter"",""0"",""3388""
","
",null,"<div style=""font-size:60px;"">+</div>",NA,null,fixation,2020-06-15T20:09:37Z,NA,NA,NA,NA,NA,sub57
NA,mars-trial,8,57381,0.0-6.0-1.0,"""event"",""trial"",""time""
""fullscreenenter"",""0"",""3388""
""blur"",""3"",""13179""
""focus"",""3"",""18165""
","""event"",""trial"",""time""
""blur"",""3"",""13179""
","""event"",""trial"",""time""
""focus"",""3"",""18165""
","""event"",""trial"",""time""
""fullscreenenter"",""0"",""3388""
","
",3308.404999988852,<img style='border: 4px solid darkgrey;' src='practice/pt2_M1.png'></img>,2,NA,practice,NA,0,<img src='practice/pt2_T1.png'></img>,0,TRUE,NA,sub57
NA,html-keyboard-response,9,57900,0.0-7.0-0.0,"""event"",""trial"",""time""
""fullscreenenter"",""0"",""3388""
""blur"",""3"",""13179""
""focus"",""3"",""18165""
","""event"",""trial"",""time""
""blur"",""3"",""13179""
","""event"",""trial"",""time""
""focus"",""3"",""18165""
","""event"",""trial"",""time""
""fullscreenenter"",""0"",""3388""
","
",null,"<div style=""font-size:60px;"">+</div>",NA,null,fixation,2020-06-15T20:09:43Z,NA,NA,NA,NA,NA,sub57
NA,mars-trial,10,61741,0.0-7.0-1.0,"""event"",""trial"",""time""
""fullscreenenter"",""0"",""3388""
""blur"",""3"",""13179""
""focus"",""3"",""18165""
","""event"",""trial"",""time""
""blur"",""3"",""13179""
","""event"",""trial"",""time""
""focus"",""3"",""18165""
","""event"",""trial"",""time""
""fullscreenenter"",""0"",""3388""
","
",1704.8499999946216,<img style='border: 4px solid darkgrey;' src='practice/pt3_M1.png'></img>,3,NA,practice,NA,0,<img src='practice/pt3_T1.png'></img>,0,TRUE,NA,sub57
NA,audio-button-response,11,65639,0.0-8.0,"""event"",""trial"",""time""
""fullscreenenter"",""0"",""3388""
""blur"",""3"",""13179""
""focus"",""3"",""18165""
","""event"",""trial"",""time""
""blur"",""3"",""13179""
","""event"",""trial"",""time""
""focus"",""3"",""18165""
","""event"",""trial"",""time""
""fullscreenenter"",""0"",""3388""
","
",3894.369999994524,audio/mars_instructions_slide4.wav,0,NA,NA,NA,NA,NA,NA,NA,NA,sub57
NA,call-function,12,65642,0.0-9.0,"""event"",""trial"",""time""
""fullscreenenter"",""0"",""3388""
""blur"",""3"",""13179""
""focus"",""3"",""18165""
","""event"",""trial"",""time""
""blur"",""3"",""13179""
","""event"",""trial"",""time""
""focus"",""3"",""18165""
","""event"",""trial"",""time""
""fullscreenenter"",""0"",""3388""
","
",NA,NA,NA,NA,NA,NA,NA,NA,NA,NA,NA,sub57
NA,html-keyboard-response,13,66160,0.0-10.0-0.0,"""event"",""trial"",""time""
""fullscreenenter"",""0"",""3388""
""blur"",""3"",""13179""
""focus"",""3"",""18165""
","""event"",""trial"",""time""
""blur"",""3"",""13179""
","""event"",""trial"",""time""
""focus"",""3"",""18165""
","""event"",""trial"",""time""
""fullscreenenter"",""0"",""3388""
","
",null,"<div style=""font-size:60px;"">+</div>",NA,null,fixation,2020-06-15T20:09:51Z,NA,NA,NA,NA,NA,sub57
NA,mars-trial,14,72181,0.0-10.0-1.0,"""event"",""trial"",""time""
""fullscreenenter"",""0"",""3388""
""blur"",""3"",""13179""
""focus"",""3"",""18165""
","""event"",""trial"",""time""
""blur"",""3"",""13179""
","""event"",""trial"",""time""
""focus"",""3"",""18165""
","""event"",""trial"",""time""
""fullscreenenter"",""0"",""3388""
","
",5396.469999992405,<img style='border: 4px solid darkgrey;' src='img/tf1_1_M_ss3.jpeg'></img>,2,NA,exp,NA,0,<img src='img/tf1_1_T1_ss3_md.jpeg'></img>,0,TRUE,NA,sub57
NA,html-keyboard-response,15,72686,0.0-10.0-0.1,"""event"",""trial"",""time""
""fullscreenenter"",""0"",""3388""
""blur"",""3"",""13179""
""focus"",""3"",""18165""
","""event"",""trial"",""time""
""blur"",""3"",""13179""
","""event"",""trial"",""time""
""focus"",""3"",""18165""
","""event"",""trial"",""time""
""fullscreenenter"",""0"",""3388""
","
",null,"<div style=""font-size:60px;"">+</div>",NA,null,fixation,2020-06-15T20:09:58Z,NA,NA,NA,NA,NA,sub57
NA,mars-trial,16,75441,0.0-10.0-1.1,"""event"",""trial"",""time""
""fullscreenenter"",""0"",""3388""
""blur"",""3"",""13179""
""focus"",""3"",""18165""
","""event"",""trial"",""time""
""blur"",""3"",""13179""
","""event"",""trial"",""time""
""focus"",""3"",""18165""
","""event"",""trial"",""time""
""fullscreenenter"",""0"",""3388""
","
",2141.1749999970198,<img style='border: 4px solid darkgrey;' src='img/tf1_2_M_ss1.jpeg'></img>,3,NA,exp,NA,0,<img src='img/tf1_2_T1_ss1_md.jpeg'></img>,0,TRUE,NA,sub57
NA,html-keyboard-response,17,75960,0.0-10.0-0.2,"""event"",""trial"",""time""
""fullscreenenter"",""0"",""3388""
""blur"",""3"",""13179""
""focus"",""3"",""18165""
","""event"",""trial"",""time""
""blur"",""3"",""13179""
","""event"",""trial"",""time""
""focus"",""3"",""18165""
","""event"",""trial"",""time""
""fullscreenenter"",""0"",""3388""
","
",null,"<div style=""font-size:60px;"">+</div>",NA,null,fixation,2020-06-15T20:10:01Z,NA,NA,NA,NA,NA,sub57
NA,mars-trial,18,78650,0.0-10.0-1.2,"""event"",""trial"",""time""
""fullscreenenter"",""0"",""3388""
""blur"",""3"",""13179""
""focus"",""3"",""18165""
","""event"",""trial"",""time""
""blur"",""3"",""13179""
","""event"",""trial"",""time""
""focus"",""3"",""18165""
","""event"",""trial"",""time""
""fullscreenenter"",""0"",""3388""
","
",2056.059999988065,<img style='border: 4px solid darkgrey;' src='img/tf1_3_M_ss2.jpeg'></img>,2,NA,exp,NA,0,<img src='img/tf1_3_T1_ss2_md.jpeg'></img>,0,TRUE,NA,sub57
NA,html-keyboard-response,19,79160,0.0-10.0-0.3,"""event"",""trial"",""time""
""fullscreenenter"",""0"",""3388""
""blur"",""3"",""13179""
""focus"",""3"",""18165""
","""event"",""trial"",""time""
""blur"",""3"",""13179""
","""event"",""trial"",""time""
""focus"",""3"",""18165""
","""event"",""trial"",""time""
""fullscreenenter"",""0"",""3388""
","
",null,"<div style=""font-size:60px;"">+</div>",NA,null,fixation,2020-06-15T20:10:04Z,NA,NA,NA,NA,NA,sub57
NA,mars-trial,20,83170,0.0-10.0-1.3,"""event"",""trial"",""time""
""fullscreenenter"",""0"",""3388""
""blur"",""3"",""13179""
""focus"",""3"",""18165""
","""event"",""trial"",""time""
""blur"",""3"",""13179""
","""event"",""trial"",""time""
""focus"",""3"",""18165""
","""event"",""trial"",""time""
""fullscreenenter"",""0"",""3388""
","
",3389.164999985951,<img style='border: 4px solid darkgrey;' src='img/tf1_4_M_ss3.jpeg'></img>,1,NA,exp,NA,0,<img src='img/tf1_4_T1_ss3_md.jpeg'></img>,0,TRUE,NA,sub57
NA,html-keyboard-response,21,83680,0.0-10.0-0.4,"""event"",""trial"",""time""
""fullscreenenter"",""0"",""3388""
""blur"",""3"",""13179""
""focus"",""3"",""18165""
","""event"",""trial"",""time""
""blur"",""3"",""13179""
","""event"",""trial"",""time""
""focus"",""3"",""18165""
","""event"",""trial"",""time""
""fullscreenenter"",""0"",""3388""
","
",null,"<div style=""font-size:60px;"">+</div>",NA,null,fixation,2020-06-15T20:10:09Z,NA,NA,NA,NA,NA,sub57
NA,mars-trial,22,86110,0.0-10.0-1.4,"""event"",""trial"",""time""
""fullscreenenter"",""0"",""3388""
""blur"",""3"",""13179""
""focus"",""3"",""18165""
","""event"",""trial"",""time""
""blur"",""3"",""13179""
","""event"",""trial"",""time""
""focus"",""3"",""18165""
","""event"",""trial"",""time""
""fullscreenenter"",""0"",""3388""
","
",1797.5549999973737,<img style='border: 4px solid darkgrey;' src='img/tf1_5_M_ss1.jpeg'></img>,2,NA,exp,NA,0,<img src='img/tf1_5_T1_ss1_md.jpeg'></img>,0,TRUE,NA,sub57
NA,html-keyboard-response,23,86620,0.0-10.0-0.5,"""event"",""trial"",""time""
""fullscreenenter"",""0"",""3388""
""blur"",""3"",""13179""
""focus"",""3"",""18165""
","""event"",""trial"",""time""
""blur"",""3"",""13179""
","""event"",""trial"",""time""
""focus"",""3"",""18165""
","""event"",""trial"",""time""
""fullscreenenter"",""0"",""3388""
","
",null,"<div style=""font-size:60px;"">+</div>",NA,null,fixation,2020-06-15T20:10:12Z,NA,NA,NA,NA,NA,sub57
NA,mars-trial,24,95120,0.0-10.0-1.5,"""event"",""trial"",""time""
""fullscreenenter"",""0"",""3388""
""blur"",""3"",""13179""
""focus"",""3"",""18165""
","""event"",""trial"",""time""
""blur"",""3"",""13179""
","""event"",""trial"",""time""
""focus"",""3"",""18165""
","""event"",""trial"",""time""
""fullscreenenter"",""0"",""3388""
","
",7866.919999985839,<img style='border: 4px solid darkgrey;' src='img/tf1_6_M_ss2.jpeg'></img>,3,NA,exp,NA,0,<img src='img/tf1_6_T1_ss2_md.jpeg'></img>,0,TRUE,NA,sub57
NA,html-keyboard-response,25,95640,0.0-10.0-0.6,"""event"",""trial"",""time""
""fullscreenenter"",""0"",""3388""
""blur"",""3"",""13179""
""focus"",""3"",""18165""
","""event"",""trial"",""time""
""blur"",""3"",""13179""
","""event"",""trial"",""time""
""focus"",""3"",""18165""
","""event"",""trial"",""time""
""fullscreenenter"",""0"",""3388""
","
",null,"<div style=""font-size:60px;"">+</div>",NA,null,fixation,2020-06-15T20:10:21Z,NA,NA,NA,NA,NA,sub57
NA,mars-trial,26,100400,0.0-10.0-1.6,"""event"",""trial"",""time""
""fullscreenenter"",""0"",""3388""
""blur"",""3"",""13179""
""focus"",""3"",""18165""
","""event"",""trial"",""time""
""blur"",""3"",""13179""
","""event"",""trial"",""time""
""focus"",""3"",""18165""
","""event"",""trial"",""time""
""fullscreenenter"",""0"",""3388""
","
",4146.994999988237,<img style='border: 4px solid darkgrey;' src='img/tf1_7_M_ss3.jpeg'></img>,3,NA,exp,NA,0,<img src='img/tf1_7_T1_ss3_md.jpeg'></img>,0,TRUE,NA,sub57
NA,html-keyboard-response,27,100904,0.0-10.0-0.7,"""event"",""trial"",""time""
""fullscreenenter"",""0"",""3388""
""blur"",""3"",""13179""
""focus"",""3"",""18165""
","""event"",""trial"",""time""
""blur"",""3"",""13179""
","""event"",""trial"",""time""
""focus"",""3"",""18165""
","""event"",""trial"",""time""
""fullscreenenter"",""0"",""3388""
","
",null,"<div style=""font-size:60px;"">+</div>",NA,null,fixation,2020-06-15T20:10:26Z,NA,NA,NA,NA,NA,sub57
NA,mars-trial,28,107888,0.0-10.0-1.7,"""event"",""trial"",""time""
""fullscreenenter"",""0"",""3388""
""blur"",""3"",""13179""
""focus"",""3"",""18165""
","""event"",""trial"",""time""
""blur"",""3"",""13179""
","""event"",""trial"",""time""
""focus"",""3"",""18165""
","""event"",""trial"",""time""
""fullscreenenter"",""0"",""3388""
","
",6372.340000001714,<img style='border: 4px solid darkgrey;' src='img/tf1_8_M_ss1.jpeg'></img>,0,NA,exp,NA,0,<img src='img/tf1_8_T1_ss1_md.jpeg'></img>,0,TRUE,NA,sub57
NA,html-keyboard-response,29,108392,0.0-10.0-0.8,"""event"",""trial"",""time""
""fullscreenenter"",""0"",""3388""
""blur"",""3"",""13179""
""focus"",""3"",""18165""
","""event"",""trial"",""time""
""blur"",""3"",""13179""
","""event"",""trial"",""time""
""focus"",""3"",""18165""
","""event"",""trial"",""time""
""fullscreenenter"",""0"",""3388""
","
",null,"<div style=""font-size:60px;"">+</div>",NA,null,fixation,2020-06-15T20:10:33Z,NA,NA,NA,NA,NA,sub57
NA,mars-trial,30,114866,0.0-10.0-1.8,"""event"",""trial"",""time""
""fullscreenenter"",""0"",""3388""
""blur"",""3"",""13179""
""focus"",""3"",""18165""
","""event"",""trial"",""time""
""blur"",""3"",""13179""
","""event"",""trial"",""time""
""focus"",""3"",""18165""
","""event"",""trial"",""time""
""fullscreenenter"",""0"",""3388""
","
",5862.940000006347,<img style='border: 4px solid darkgrey;' src='img/tf1_9_M_ss2.jpeg'></img>,1,NA,exp,NA,0,<img src='img/tf1_9_T1_ss2_md.jpeg'></img>,0,TRUE,NA,sub57
NA,html-keyboard-response,31,115370,0.0-10.0-0.9,"""event"",""trial"",""time""
""fullscreenenter"",""0"",""3388""
""blur"",""3"",""13179""
""focus"",""3"",""18165""
","""event"",""trial"",""time""
""blur"",""3"",""13179""
","""event"",""trial"",""time""
""focus"",""3"",""18165""
","""event"",""trial"",""time""
""fullscreenenter"",""0"",""3388""
","
",null,"<div style=""font-size:60px;"">+</div>",NA,null,fixation,2020-06-15T20:10:40Z,NA,NA,NA,NA,NA,sub57
NA,mars-trial,32,138698,0.0-10.0-1.9,"""event"",""trial"",""time""
""fullscreenenter"",""0"",""3388""
""blur"",""3"",""13179""
""focus"",""3"",""18165""
","""event"",""trial"",""time""
""blur"",""3"",""13179""
","""event"",""trial"",""time""
""focus"",""3"",""18165""
","""event"",""trial"",""time""
""fullscreenenter"",""0"",""3388""
","
",22718.169999992824,<img style='border: 4px solid darkgrey;' src='img/tf1_10_M_ss3.jpeg'></img>,0,NA,exp,NA,0,<img src='img/tf1_10_T1_ss3_md.jpeg'></img>,0,TRUE,NA,sub57
NA,html-keyboard-response,33,139201,0.0-10.0-0.10,"""event"",""trial"",""time""
""fullscreenenter"",""0"",""3388""
""blur"",""3"",""13179""
""focus"",""3"",""18165""
","""event"",""trial"",""time""
""blur"",""3"",""13179""
","""event"",""trial"",""time""
""focus"",""3"",""18165""
","""event"",""trial"",""time""
""fullscreenenter"",""0"",""3388""
","
",null,"<div style=""font-size:60px;"">+</div>",NA,null,fixation,2020-06-15T20:11:04Z,NA,NA,NA,NA,NA,sub57
NA,mars-trial,34,157199,0.0-10.0-1.10,"""event"",""trial"",""time""
""fullscreenenter"",""0"",""3388""
""blur"",""3"",""13179""
""focus"",""3"",""18165""
","""event"",""trial"",""time""
""blur"",""3"",""13179""
","""event"",""trial"",""time""
""focus"",""3"",""18165""
","""event"",""trial"",""time""
""fullscreenenter"",""0"",""3388""
","
",17382.379999995464,<img style='border: 4px solid darkgrey;' src='img/tf1_11_M_ss1.jpeg'></img>,2,NA,exp,NA,0,<img src='img/tf1_11_T1_ss1_md.jpeg'></img>,0,TRUE,NA,sub57
NA,html-keyboard-response,35,157704,0.0-10.0-0.11,"""event"",""trial"",""time""
""fullscreenenter"",""0"",""3388""
""blur"",""3"",""13179""
""focus"",""3"",""18165""
","""event"",""trial"",""time""
""blur"",""3"",""13179""
","""event"",""trial"",""time""
""focus"",""3"",""18165""
","""event"",""trial"",""time""
""fullscreenenter"",""0"",""3388""
","
",null,"<div style=""font-size:60px;"">+</div>",NA,null,fixation,2020-06-15T20:11:23Z,NA,NA,NA,NA,NA,sub57
NA,mars-trial,36,177138,0.0-10.0-1.11,"""event"",""trial"",""time""
""fullscreenenter"",""0"",""3388""
""blur"",""3"",""13179""
""focus"",""3"",""18165""
","""event"",""trial"",""time""
""blur"",""3"",""13179""
","""event"",""trial"",""time""
""focus"",""3"",""18165""
","""event"",""trial"",""time""
""fullscreenenter"",""0"",""3388""
","
",18822.965000013937,<img style='border: 4px solid darkgrey;' src='img/tf1_12_M_ss2.jpeg'></img>,0,NA,exp,NA,0,<img src='img/tf1_12_T1_ss2_md.jpeg'></img>,0,TRUE,NA,sub57
NA,html-keyboard-response,37,177642,0.0-10.0-0.12,"""event"",""trial"",""time""
""fullscreenenter"",""0"",""3388""
""blur"",""3"",""13179""
""focus"",""3"",""18165""
","""event"",""trial"",""time""
""blur"",""3"",""13179""
","""event"",""trial"",""time""
""focus"",""3"",""18165""
","""event"",""trial"",""time""
""fullscreenenter"",""0"",""3388""
","
",null,"<div style=""font-size:60px;"">+</div>",NA,null,fixation,2020-06-15T20:11:43Z,NA,NA,NA,NA,NA,sub57
NA,mars-trial,38,190533,0.0-10.0-1.12,"""event"",""trial"",""time""
""fullscreenenter"",""0"",""3388""
""blur"",""3"",""13179""
""focus"",""3"",""18165""
","""event"",""trial"",""time""
""blur"",""3"",""13179""
","""event"",""trial"",""time""
""focus"",""3"",""18165""
","""event"",""trial"",""time""
""fullscreenenter"",""0"",""3388""
","
",12278.76999998989,<img style='border: 4px solid darkgrey;' src='img/tf1_13_M_ss3.jpeg'></img>,0,NA,exp,NA,0,<img src='img/tf1_13_T1_ss3_md.jpeg'></img>,0,TRUE,NA,sub57
NA,html-keyboard-response,39,191038,0.0-10.0-0.13,"""event"",""trial"",""time""
""fullscreenenter"",""0"",""3388""
""blur"",""3"",""13179""
""focus"",""3"",""18165""
","""event"",""trial"",""time""
""blur"",""3"",""13179""
","""event"",""trial"",""time""
""focus"",""3"",""18165""
","""event"",""trial"",""time""
""fullscreenenter"",""0"",""3388""
","
",null,"<div style=""font-size:60px;"">+</div>",NA,null,fixation,2020-06-15T20:11:56Z,NA,NA,NA,NA,NA,sub57
NA,mars-trial,40,219790,0.0-10.0-1.13,"""event"",""trial"",""time""
""fullscreenenter"",""0"",""3388""
""blur"",""3"",""13179""
""focus"",""3"",""18165""
","""event"",""trial"",""time""
""blur"",""3"",""13179""
","""event"",""trial"",""time""
""focus"",""3"",""18165""
","""event"",""trial"",""time""
""fullscreenenter"",""0"",""3388""
","
",28135.604999988573,<img style='border: 4px solid darkgrey;' src='img/tf1_14_M_ss1.jpeg'></img>,1,NA,exp,NA,0,<img src='img/tf1_14_T1_ss1_md.jpeg'></img>,0,TRUE,NA,sub57
NA,html-keyboard-response,41,220294,0.0-10.0-0.14,"""event"",""trial"",""time""
""fullscreenenter"",""0"",""3388""
""blur"",""3"",""13179""
""focus"",""3"",""18165""
","""event"",""trial"",""time""
""blur"",""3"",""13179""
","""event"",""trial"",""time""
""focus"",""3"",""18165""
","""event"",""trial"",""time""
""fullscreenenter"",""0"",""3388""
","
",null,"<div style=""font-size:60px;"">+</div>",NA,null,fixation,2020-06-15T20:12:25Z,NA,NA,NA,NA,NA,sub57
NA,mars-trial,42,234522,0.0-10.0-1.14,"""event"",""trial"",""time""
""fullscreenenter"",""0"",""3388""
""blur"",""3"",""13179""
""focus"",""3"",""18165""
","""event"",""trial"",""time""
""blur"",""3"",""13179""
","""event"",""trial"",""time""
""focus"",""3"",""18165""
","""event"",""trial"",""time""
""fullscreenenter"",""0"",""3388""
","
",13605.2500000078,<img style='border: 4px solid darkgrey;' src='img/tf1_15_M_ss2.jpeg'></img>,2,NA,exp,NA,0,<img src='img/tf1_15_T1_ss2_md.jpeg'></img>,0,TRUE,NA,sub57
NA,html-keyboard-response,43,235026,0.0-10.0-0.15,"""event"",""trial"",""time""
""fullscreenenter"",""0"",""3388""
""blur"",""3"",""13179""
""focus"",""3"",""18165""
","""event"",""trial"",""time""
""blur"",""3"",""13179""
","""event"",""trial"",""time""
""focus"",""3"",""18165""
","""event"",""trial"",""time""
""fullscreenenter"",""0"",""3388""
","
",null,"<div style=""font-size:60px;"">+</div>",NA,null,fixation,2020-06-15T20:12:40Z,NA,NA,NA,NA,NA,sub57
NA,mars-trial,44,254564,0.0-10.0-1.15,"""event"",""trial"",""time""
""fullscreenenter"",""0"",""3388""
""blur"",""3"",""13179""
""focus"",""3"",""18165""
","""event"",""trial"",""time""
""blur"",""3"",""13179""
","""event"",""trial"",""time""
""focus"",""3"",""18165""
","""event"",""trial"",""time""
""fullscreenenter"",""0"",""3388""
","
",18927.759999991395,<img style='border: 4px solid darkgrey;' src='img/tf1_16_M_ss3.jpeg'></img>,0,NA,exp,NA,3,<img src='img/tf1_16_T1_ss3_md.jpeg'></img>,0,FALSE,NA,sub57
NA,html-keyboard-response,45,255067,0.0-10.0-0.16,"""event"",""trial"",""time""
""fullscreenenter"",""0"",""3388""
""blur"",""3"",""13179""
""focus"",""3"",""18165""
","""event"",""trial"",""time""
""blur"",""3"",""13179""
","""event"",""trial"",""time""
""focus"",""3"",""18165""
","""event"",""trial"",""time""
""fullscreenenter"",""0"",""3388""
","
",null,"<div style=""font-size:60px;"">+</div>",NA,null,fixation,2020-06-15T20:13:00Z,NA,NA,NA,NA,NA,sub57
NA,mars-trial,46,283467,0.0-10.0-1.16,"""event"",""trial"",""time""
""fullscreenenter"",""0"",""3388""
""blur"",""3"",""13179""
""focus"",""3"",""18165""
","""event"",""trial"",""time""
""blur"",""3"",""13179""
","""event"",""trial"",""time""
""focus"",""3"",""18165""
","""event"",""trial"",""time""
""fullscreenenter"",""0"",""3388""
","
",27788.31999999238,<img style='border: 4px solid darkgrey;' src='img/tf1_17_M_ss1.jpeg'></img>,2,NA,exp,NA,3,<img src='img/tf1_17_T1_ss1_md.jpeg'></img>,0,FALSE,NA,sub57
NA,html-keyboard-response,47,283970,0.0-10.0-0.17,"""event"",""trial"",""time""
""fullscreenenter"",""0"",""3388""
""blur"",""3"",""13179""
""focus"",""3"",""18165""
","""event"",""trial"",""time""
""blur"",""3"",""13179""
","""event"",""trial"",""time""
""focus"",""3"",""18165""
","""event"",""trial"",""time""
""fullscreenenter"",""0"",""3388""
","
",null,"<div style=""font-size:60px;"">+</div>",NA,null,fixation,2020-06-15T20:13:29Z,NA,NA,NA,NA,NA,sub57
NA,mars-trial,48,297550,0.0-10.0-1.17,"""event"",""trial"",""time""
""fullscreenenter"",""0"",""3388""
""blur"",""3"",""13179""
""focus"",""3"",""18165""
","""event"",""trial"",""time""
""blur"",""3"",""13179""
","""event"",""trial"",""time""
""focus"",""3"",""18165""
","""event"",""trial"",""time""
""fullscreenenter"",""0"",""3388""
","
",12969.710000004852,<img style='border: 4px solid darkgrey;' src='img/tf1_18_M_ss2.jpeg'></img>,2,NA,exp,NA,0,<img src='img/tf1_18_T1_ss2_md.jpeg'></img>,0,TRUE,NA,sub57
NA,html-keyboard-response,49,298054,0.0-10.0-0.18,"""event"",""trial"",""time""
""fullscreenenter"",""0"",""3388""
""blur"",""3"",""13179""
""focus"",""3"",""18165""
","""event"",""trial"",""time""
""blur"",""3"",""13179""
","""event"",""trial"",""time""
""focus"",""3"",""18165""
","""event"",""trial"",""time""
""fullscreenenter"",""0"",""3388""
","
",null,"<div style=""font-size:60px;"">+</div>",NA,null,fixation,2020-06-15T20:13:43Z,NA,NA,NA,NA,NA,sub57
NA,mars-trial,50,304329,0.0-10.0-1.18,"""event"",""trial"",""time""
""fullscreenenter"",""0"",""3388""
""blur"",""3"",""13179""
""focus"",""3"",""18165""
","""event"",""trial"",""time""
""blur"",""3"",""13179""
","""event"",""trial"",""time""
""focus"",""3"",""18165""
","""event"",""trial"",""time""
""fullscreenenter"",""0"",""3388""
","
",5665.630000003148,<img style='border: 4px solid darkgrey;' src='img/tf1_19_M_ss3.jpeg'></img>,0,NA,exp,NA,3,<img src='img/tf1_19_T1_ss3_md.jpeg'></img>,0,FALSE,NA,sub57
NA,html-keyboard-response,51,304834,0.0-10.0-0.19,"""event"",""trial"",""time""
""fullscreenenter"",""0"",""3388""
""blur"",""3"",""13179""
""focus"",""3"",""18165""
","""event"",""trial"",""time""
""blur"",""3"",""13179""
","""event"",""trial"",""time""
""focus"",""3"",""18165""
","""event"",""trial"",""time""
""fullscreenenter"",""0"",""3388""
","
",null,"<div style=""font-size:60px;"">+</div>",NA,null,fixation,2020-06-15T20:13:50Z,NA,NA,NA,NA,NA,sub57
NA,mars-trial,52,315955,0.0-10.0-1.19,"""event"",""trial"",""time""
""fullscreenenter"",""0"",""3388""
""blur"",""3"",""13179""
""focus"",""3"",""18165""
","""event"",""trial"",""time""
""blur"",""3"",""13179""
","""event"",""trial"",""time""
""focus"",""3"",""18165""
","""event"",""trial"",""time""
""fullscreenenter"",""0"",""3388""
","
",10510.86999999825,<img style='border: 4px solid darkgrey;' src='img/tf1_20_M_ss1.jpeg'></img>,1,NA,exp,NA,0,<img src='img/tf1_20_T1_ss1_md.jpeg'></img>,0,TRUE,NA,sub57
NA,html-keyboard-response,53,316459,0.0-10.0-0.20,"""event"",""trial"",""time""
""fullscreenenter"",""0"",""3388""
""blur"",""3"",""13179""
""focus"",""3"",""18165""
","""event"",""trial"",""time""
""blur"",""3"",""13179""
","""event"",""trial"",""time""
""focus"",""3"",""18165""
","""event"",""trial"",""time""
""fullscreenenter"",""0"",""3388""
","
",null,"<div style=""font-size:60px;"">+</div>",NA,null,fixation,2020-06-15T20:14:02Z,NA,NA,NA,NA,NA,sub57
NA,mars-trial,54,329732,0.0-10.0-1.20,"""event"",""trial"",""time""
""fullscreenenter"",""0"",""3388""
""blur"",""3"",""13179""
""focus"",""3"",""18165""
","""event"",""trial"",""time""
""blur"",""3"",""13179""
","""event"",""trial"",""time""
""focus"",""3"",""18165""
","""event"",""trial"",""time""
""fullscreenenter"",""0"",""3388""
","
",12663.730000000214,<img style='border: 4px solid darkgrey;' src='img/tf1_21_M_ss2.jpeg'></img>,0,NA,exp,NA,0,<img src='img/tf1_21_T1_ss2_md.jpeg'></img>,0,TRUE,NA,sub57
NA,html-keyboard-response,55,330235,0.0-10.0-0.21,"""event"",""trial"",""time""
""fullscreenenter"",""0"",""3388""
""blur"",""3"",""13179""
""focus"",""3"",""18165""
","""event"",""trial"",""time""
""blur"",""3"",""13179""
","""event"",""trial"",""time""
""focus"",""3"",""18165""
","""event"",""trial"",""time""
""fullscreenenter"",""0"",""3388""
","
",null,"<div style=""font-size:60px;"">+</div>",NA,null,fixation,2020-06-15T20:14:15Z,NA,NA,NA,NA,NA,sub57
NA,mars-trial,56,339488,0.0-10.0-1.21,"""event"",""trial"",""time""
""fullscreenenter"",""0"",""3388""
""blur"",""3"",""13179""
""focus"",""3"",""18165""
","""event"",""trial"",""time""
""blur"",""3"",""13179""
","""event"",""trial"",""time""
""focus"",""3"",""18165""
","""event"",""trial"",""time""
""fullscreenenter"",""0"",""3388""
","
",8636.639999996987,<img style='border: 4px solid darkgrey;' src='img/tf1_22_M_ss3.jpeg'></img>,0,NA,exp,NA,3,<img src='img/tf1_22_T1_ss3_md.jpeg'></img>,0,FALSE,NA,sub57
NA,html-keyboard-response,57,339992,0.0-10.0-0.22,"""event"",""trial"",""time""
""fullscreenenter"",""0"",""3388""
""blur"",""3"",""13179""
""focus"",""3"",""18165""
","""event"",""trial"",""time""
""blur"",""3"",""13179""
","""event"",""trial"",""time""
""focus"",""3"",""18165""
","""event"",""trial"",""time""
""fullscreenenter"",""0"",""3388""
","
",null,"<div style=""font-size:60px;"">+</div>",NA,null,fixation,2020-06-15T20:14:25Z,NA,NA,NA,NA,NA,sub57
NA,mars-trial,58,357216,0.0-10.0-1.22,"""event"",""trial"",""time""
""fullscreenenter"",""0"",""3388""
""blur"",""3"",""13179""
""focus"",""3"",""18165""
","""event"",""trial"",""time""
""blur"",""3"",""13179""
","""event"",""trial"",""time""
""focus"",""3"",""18165""
","""event"",""trial"",""time""
""fullscreenenter"",""0"",""3388""
","
",16610.545000003185,<img style='border: 4px solid darkgrey;' src='img/tf1_23_M_ss1.jpeg'></img>,3,NA,exp,NA,3,<img src='img/tf1_23_T1_ss1_md.jpeg'></img>,0,FALSE,NA,sub57
NA,html-keyboard-response,59,357719,0.0-10.0-0.23,"""event"",""trial"",""time""
""fullscreenenter"",""0"",""3388""
""blur"",""3"",""13179""
""focus"",""3"",""18165""
","""event"",""trial"",""time""
""blur"",""3"",""13179""
","""event"",""trial"",""time""
""focus"",""3"",""18165""
","""event"",""trial"",""time""
""fullscreenenter"",""0"",""3388""
","
",null,"<div style=""font-size:60px;"">+</div>",NA,null,fixation,2020-06-15T20:14:43Z,NA,NA,NA,NA,NA,sub57
NA,mars-trial,60,370967,0.0-10.0-1.23,"""event"",""trial"",""time""
""fullscreenenter"",""0"",""3388""
""blur"",""3"",""13179""
""focus"",""3"",""18165""
","""event"",""trial"",""time""
""blur"",""3"",""13179""
","""event"",""trial"",""time""
""focus"",""3"",""18165""
","""event"",""trial"",""time""
""fullscreenenter"",""0"",""3388""
","
",12635.61500000651,<img style='border: 4px solid darkgrey;' src='img/tf1_24_M_ss2.jpeg'></img>,2,NA,exp,NA,1,<img src='img/tf1_24_T1_ss2_md.jpeg'></img>,0,FALSE,NA,sub57
NA,html-keyboard-response,61,371472,0.0-10.0-0.24,"""event"",""trial"",""time""
""fullscreenenter"",""0"",""3388""
""blur"",""3"",""13179""
""focus"",""3"",""18165""
","""event"",""trial"",""time""
""blur"",""3"",""13179""
","""event"",""trial"",""time""
""focus"",""3"",""18165""
","""event"",""trial"",""time""
""fullscreenenter"",""0"",""3388""
","
",null,"<div style=""font-size:60px;"">+</div>",NA,null,fixation,2020-06-15T20:14:57Z,NA,NA,NA,NA,NA,sub57
NA,mars-trial,62,383516,0.0-10.0-1.24,"""event"",""trial"",""time""
""fullscreenenter"",""0"",""3388""
""blur"",""3"",""13179""
""focus"",""3"",""18165""
","""event"",""trial"",""time""
""blur"",""3"",""13179""
","""event"",""trial"",""time""
""focus"",""3"",""18165""
","""event"",""trial"",""time""
""fullscreenenter"",""0"",""3388""
","
",11433.915000001434,<img style='border: 4px solid darkgrey;' src='img/tf1_25_M_ss3.jpeg'></img>,2,NA,exp,NA,0,<img src='img/tf1_25_T1_ss3_md.jpeg'></img>,0,TRUE,NA,sub57
NA,html-keyboard-response,63,384019,0.0-10.0-0.25,"""event"",""trial"",""time""
""fullscreenenter"",""0"",""3388""
""blur"",""3"",""13179""
""focus"",""3"",""18165""
","""event"",""trial"",""time""
""blur"",""3"",""13179""
","""event"",""trial"",""time""
""focus"",""3"",""18165""
","""event"",""trial"",""time""
""fullscreenenter"",""0"",""3388""
","
",null,"<div style=""font-size:60px;"">+</div>",NA,null,fixation,2020-06-15T20:15:09Z,NA,NA,NA,NA,NA,sub57
NA,mars-trial,64,410899,0.0-10.0-1.25,"""event"",""trial"",""time""
""fullscreenenter"",""0"",""3388""
""blur"",""3"",""13179""
""focus"",""3"",""18165""
","""event"",""trial"",""time""
""blur"",""3"",""13179""
","""event"",""trial"",""time""
""focus"",""3"",""18165""
","""event"",""trial"",""time""
""fullscreenenter"",""0"",""3388""
","
",26269.27999999316,<img style='border: 4px solid darkgrey;' src='img/tf1_26_M_ss1.jpeg'></img>,3,NA,exp,NA,2,<img src='img/tf1_26_T1_ss1_md.jpeg'></img>,0,FALSE,NA,sub57
NA,html-keyboard-response,65,411402,0.0-10.0-0.26,"""event"",""trial"",""time""
""fullscreenenter"",""0"",""3388""
""blur"",""3"",""13179""
""focus"",""3"",""18165""
","""event"",""trial"",""time""
""blur"",""3"",""13179""
","""event"",""trial"",""time""
""focus"",""3"",""18165""
","""event"",""trial"",""time""
""fullscreenenter"",""0"",""3388""
","
",null,"<div style=""font-size:60px;"">+</div>",NA,null,fixation,2020-06-15T20:15:36Z,NA,NA,NA,NA,NA,sub57
NA,mars-trial,66,427398,0.0-10.0-1.26,"""event"",""trial"",""time""
""fullscreenenter"",""0"",""3388""
""blur"",""3"",""13179""
""focus"",""3"",""18165""
","""event"",""trial"",""time""
""blur"",""3"",""13179""
","""event"",""trial"",""time""
""focus"",""3"",""18165""
","""event"",""trial"",""time""
""fullscreenenter"",""0"",""3388""
","
",15383.835000000545,<img style='border: 4px solid darkgrey;' src='img/tf1_27_M_ss2.jpeg'></img>,2,NA,exp,NA,0,<img src='img/tf1_27_T1_ss2_md.jpeg'></img>,0,TRUE,NA,sub57
NA,html-keyboard-response,67,427902,0.0-10.0-0.27,"""event"",""trial"",""time""
""fullscreenenter"",""0"",""3388""
""blur"",""3"",""13179""
""focus"",""3"",""18165""
","""event"",""trial"",""time""
""blur"",""3"",""13179""
","""event"",""trial"",""time""
""focus"",""3"",""18165""
","""event"",""trial"",""time""
""fullscreenenter"",""0"",""3388""
","
",null,"<div style=""font-size:60px;"">+</div>",NA,null,fixation,2020-06-15T20:15:53Z,NA,NA,NA,NA,NA,sub57
NA,mars-trial,68,446373,0.0-10.0-1.27,"""event"",""trial"",""time""
""fullscreenenter"",""0"",""3388""
""blur"",""3"",""13179""
""focus"",""3"",""18165""
","""event"",""trial"",""time""
""blur"",""3"",""13179""
","""event"",""trial"",""time""
""focus"",""3"",""18165""
","""event"",""trial"",""time""
""fullscreenenter"",""0"",""3388""
","
",17859.044999990147,<img style='border: 4px solid darkgrey;' src='img/tf1_28_M_ss3.jpeg'></img>,3,NA,exp,NA,0,<img src='img/tf1_28_T1_ss3_md.jpeg'></img>,0,TRUE,NA,sub57
NA,html-keyboard-response,69,446876,0.0-10.0-0.28,"""event"",""trial"",""time""
""fullscreenenter"",""0"",""3388""
""blur"",""3"",""13179""
""focus"",""3"",""18165""
","""event"",""trial"",""time""
""blur"",""3"",""13179""
","""event"",""trial"",""time""
""focus"",""3"",""18165""
","""event"",""trial"",""time""
""fullscreenenter"",""0"",""3388""
","
",null,"<div style=""font-size:60px;"">+</div>",NA,null,fixation,2020-06-15T20:16:12Z,NA,NA,NA,NA,NA,sub57
NA,mars-trial,70,468424,0.0-10.0-1.28,"""event"",""trial"",""time""
""fullscreenenter"",""0"",""3388""
""blur"",""3"",""13179""
""focus"",""3"",""18165""
","""event"",""trial"",""time""
""blur"",""3"",""13179""
","""event"",""trial"",""time""
""focus"",""3"",""18165""
","""event"",""trial"",""time""
""fullscreenenter"",""0"",""3388""
","
",20937.09000000672,<img style='border: 4px solid darkgrey;' src='img/tf1_29_M_ss1.jpeg'></img>,2,NA,exp,NA,0,<img src='img/tf1_29_T1_ss1_md.jpeg'></img>,0,TRUE,NA,sub57
NA,html-keyboard-response,71,468927,0.0-10.0-0.29,"""event"",""trial"",""time""
""fullscreenenter"",""0"",""3388""
""blur"",""3"",""13179""
""focus"",""3"",""18165""
","""event"",""trial"",""time""
""blur"",""3"",""13179""
","""event"",""trial"",""time""
""focus"",""3"",""18165""
","""event"",""trial"",""time""
""fullscreenenter"",""0"",""3388""
","
",null,"<div style=""font-size:60px;"">+</div>",NA,null,fixation,2020-06-15T20:16:34Z,NA,NA,NA,NA,NA,sub57
NA,mars-trial,72,485187,0.0-10.0-1.29,"""event"",""trial"",""time""
""fullscreenenter"",""0"",""3388""
""blur"",""3"",""13179""
""focus"",""3"",""18165""
","""event"",""trial"",""time""
""blur"",""3"",""13179""
","""event"",""trial"",""time""
""focus"",""3"",""18165""
","""event"",""trial"",""time""
""fullscreenenter"",""0"",""3388""
","
",15631.494999994175,<img style='border: 4px solid darkgrey;' src='img/tf1_30_M_ss2.jpeg'></img>,2,NA,exp,NA,0,<img src='img/tf1_30_T1_ss2_md.jpeg'></img>,0,TRUE,NA,sub57
NA,html-keyboard-response,73,485692,0.0-10.0-0.30,"""event"",""trial"",""time""
""fullscreenenter"",""0"",""3388""
""blur"",""3"",""13179""
""focus"",""3"",""18165""
","""event"",""trial"",""time""
""blur"",""3"",""13179""
","""event"",""trial"",""time""
""focus"",""3"",""18165""
","""event"",""trial"",""time""
""fullscreenenter"",""0"",""3388""
","
",null,"<div style=""font-size:60px;"">+</div>",NA,null,fixation,2020-06-15T20:16:51Z,NA,NA,NA,NA,NA,sub57
NA,mars-trial,74,501470,0.0-10.0-1.30,"""event"",""trial"",""time""
""fullscreenenter"",""0"",""3388""
""blur"",""3"",""13179""
""focus"",""3"",""18165""
","""event"",""trial"",""time""
""blur"",""3"",""13179""
","""event"",""trial"",""time""
""focus"",""3"",""18165""
","""event"",""trial"",""time""
""fullscreenenter"",""0"",""3388""
","
",15161.739999995916,<img style='border: 4px solid darkgrey;' src='img/tf1_31_M_ss3.jpeg'></img>,3,NA,exp,NA,0,<img src='img/tf1_31_T1_ss3_md.jpeg'></img>,0,TRUE,NA,sub57
NA,html-keyboard-response,75,501973,0.0-10.0-0.31,"""event"",""trial"",""time""
""fullscreenenter"",""0"",""3388""
""blur"",""3"",""13179""
""focus"",""3"",""18165""
","""event"",""trial"",""time""
""blur"",""3"",""13179""
","""event"",""trial"",""time""
""focus"",""3"",""18165""
","""event"",""trial"",""time""
""fullscreenenter"",""0"",""3388""
","
",null,"<div style=""font-size:60px;"">+</div>",NA,null,fixation,2020-06-15T20:17:07Z,NA,NA,NA,NA,NA,sub57
NA,mars-trial,76,513337,0.0-10.0-1.31,"""event"",""trial"",""time""
""fullscreenenter"",""0"",""3388""
""blur"",""3"",""13179""
""focus"",""3"",""18165""
","""event"",""trial"",""time""
""blur"",""3"",""13179""
","""event"",""trial"",""time""
""focus"",""3"",""18165""
","""event"",""trial"",""time""
""fullscreenenter"",""0"",""3388""
","
",10753.969999990659,<img style='border: 4px solid darkgrey;' src='img/tf1_32_M_ss1.jpeg'></img>,2,NA,exp,NA,0,<img src='img/tf1_32_T1_ss1_md.jpeg'></img>,0,TRUE,NA,sub57
NA,html-keyboard-response,77,513842,0.0-10.0-0.32,"""event"",""trial"",""time""
""fullscreenenter"",""0"",""3388""
""blur"",""3"",""13179""
""focus"",""3"",""18165""
","""event"",""trial"",""time""
""blur"",""3"",""13179""
","""event"",""trial"",""time""
""focus"",""3"",""18165""
","""event"",""trial"",""time""
""fullscreenenter"",""0"",""3388""
","
",null,"<div style=""font-size:60px;"">+</div>",NA,null,fixation,2020-06-15T20:17:19Z,NA,NA,NA,NA,NA,sub57
NA,mars-trial,78,517399,0.0-10.0-1.32,"""event"",""trial"",""time""
""fullscreenenter"",""0"",""3388""
""blur"",""3"",""13179""
""focus"",""3"",""18165""
","""event"",""trial"",""time""
""blur"",""3"",""13179""
","""event"",""trial"",""time""
""focus"",""3"",""18165""
","""event"",""trial"",""time""
""fullscreenenter"",""0"",""3388""
","
",2945.7950000069104,<img style='border: 4px solid darkgrey;' src='img/tf1_33_M_ss2.jpeg'></img>,3,NA,exp,NA,0,<img src='img/tf1_33_T1_ss2_md.jpeg'></img>,0,TRUE,NA,sub57
NA,html-keyboard-response,79,517904,0.0-10.0-0.33,"""event"",""trial"",""time""
""fullscreenenter"",""0"",""3388""
""blur"",""3"",""13179""
""focus"",""3"",""18165""
","""event"",""trial"",""time""
""blur"",""3"",""13179""
","""event"",""trial"",""time""
""focus"",""3"",""18165""
","""event"",""trial"",""time""
""fullscreenenter"",""0"",""3388""
","
",null,"<div style=""font-size:60px;"">+</div>",NA,null,fixation,2020-06-15T20:17:23Z,NA,NA,NA,NA,NA,sub57
NA,mars-trial,80,545643,0.0-10.0-1.33,"""event"",""trial"",""time""
""fullscreenenter"",""0"",""3388""
""blur"",""3"",""13179""
""focus"",""3"",""18165""
","""event"",""trial"",""time""
""blur"",""3"",""13179""
","""event"",""trial"",""time""
""focus"",""3"",""18165""
","""event"",""trial"",""time""
""fullscreenenter"",""0"",""3388""
","
",NA,NA,NA,NA,exp,NA,NA,<img src='img/tf1_34_T1_ss3_md.jpeg'></img>,0,FALSE,NA,sub57
NA,html-keyboard-response,81,546029,0.0-10.0-0.34,"""event"",""trial"",""time""
""fullscreenenter"",""0"",""3388""
""blur"",""3"",""13179""
""focus"",""3"",""18165""
","""event"",""trial"",""time""
""blur"",""3"",""13179""
","""event"",""trial"",""time""
""focus"",""3"",""18165""
","""event"",""trial"",""time""
""fullscreenenter"",""0"",""3388""
","
",27514.08999999694,<img style='border: 4px solid darkgrey;' src='img/tf1_34_M_ss3.jpeg'></img>,2,NA,fixation,2020-06-15T20:17:51Z,1,NA,NA,NA,NA,sub57
NA,audio-button-response,82,549405,0.0-11.0,"""event"",""trial"",""time""
""fullscreenenter"",""0"",""3388""
""blur"",""3"",""13179""
""focus"",""3"",""18165""
","""event"",""trial"",""time""
""blur"",""3"",""13179""
","""event"",""trial"",""time""
""focus"",""3"",""18165""
","""event"",""trial"",""time""
""fullscreenenter"",""0"",""3388""
","
",3272.735000005923,audio/mars_instructions_slide5.wav,0,NA,NA,NA,NA,NA,NA,NA,NA,sub57
