success,trial_type,trial_index,time_elapsed,internal_node_id,interactions,blur_events,focus_events,fullscreenenter_events,fullscreenexit_events,rt,stimulus,button_pressed,key_press,part,timestamp,unshuffled_button,correct_response,correct_button,correct,value,subject_id
TRUE,fullscreen,0,5561,0.0-0.0,"""event"",""trial"",""time""
""focus"",""0"",""1813""
""fullscreenenter"",""0"",""5157""
","
","""event"",""trial"",""time""
""focus"",""0"",""1813""
","""event"",""trial"",""time""
""fullscreenenter"",""0"",""5157""
","
",NA,NA,NA,NA,NA,NA,NA,NA,NA,NA,NA,sub16
NA,pavlovia,1,5564,0.0-1.0,"""event"",""trial"",""time""
""focus"",""0"",""1813""
""fullscreenenter"",""0"",""5157""
","
","""event"",""trial"",""time""
""focus"",""0"",""1813""
","""event"",""trial"",""time""
""fullscreenenter"",""0"",""5157""
","
",NA,NA,NA,NA,NA,NA,NA,NA,NA,NA,NA,sub16
NA,html-button-response,2,6750,0.0-2.0,"""event"",""trial"",""time""
""focus"",""0"",""1813""
""fullscreenenter"",""0"",""5157""
","
","""event"",""trial"",""time""
""focus"",""0"",""1813""
","""event"",""trial"",""time""
""fullscreenenter"",""0"",""5157""
","
",1185.33499998739,<p>Welcome! Press START to begin.</p><br>,0,NA,NA,NA,NA,NA,NA,NA,NA,sub16
NA,audio-button-response,3,19397,0.0-3.0,"""event"",""trial"",""time""
""focus"",""0"",""1813""
""fullscreenenter"",""0"",""5157""
","
","""event"",""trial"",""time""
""focus"",""0"",""1813""
","""event"",""trial"",""time""
""fullscreenenter"",""0"",""5157""
","
",12644.91000000271,audio/mars_instructions_slide2.wav,0,NA,NA,NA,NA,NA,NA,NA,NA,sub16
NA,audio-button-response,4,30709,0.0-4.0,"""event"",""trial"",""time""
""focus"",""0"",""1813""
""fullscreenenter"",""0"",""5157""
","
","""event"",""trial"",""time""
""focus"",""0"",""1813""
","""event"",""trial"",""time""
""fullscreenenter"",""0"",""5157""
","
",11311.790000007022,audio/mars_instructions_slide3.wav,0,NA,NA,NA,NA,NA,NA,NA,NA,sub16
NA,html-keyboard-response,5,31214,0.0-5.0-0.0,"""event"",""trial"",""time""
""focus"",""0"",""1813""
""fullscreenenter"",""0"",""5157""
","
","""event"",""trial"",""time""
""focus"",""0"",""1813""
","""event"",""trial"",""time""
""fullscreenenter"",""0"",""5157""
","
",null,"<div style=""font-size:60px;"">+</div>",NA,null,fixation,2020-06-12T20:19:22Z,NA,NA,NA,NA,NA,sub16
NA,mars-trial,6,35886,0.0-5.0-1.0,"""event"",""trial"",""time""
""focus"",""0"",""1813""
""fullscreenenter"",""0"",""5157""
","
","""event"",""trial"",""time""
""focus"",""0"",""1813""
","""event"",""trial"",""time""
""fullscreenenter"",""0"",""5157""
","
",2564.7250000038184,<img style='border: 4px solid darkgrey;' src='practice/pt1_M1.png'></img>,1,NA,practice,NA,0,<img src='practice/pt1_T1.png'></img>,0,TRUE,NA,sub16
NA,html-keyboard-response,7,36392,0.0-6.0-0.0,"""event"",""trial"",""time""
""focus"",""0"",""1813""
""fullscreenenter"",""0"",""5157""
","
","""event"",""trial"",""time""
""focus"",""0"",""1813""
","""event"",""trial"",""time""
""fullscreenenter"",""0"",""5157""
","
",null,"<div style=""font-size:60px;"">+</div>",NA,null,fixation,2020-06-12T20:19:27Z,NA,NA,NA,NA,NA,sub16
NA,mars-trial,8,41544,0.0-6.0-1.0,"""event"",""trial"",""time""
""focus"",""0"",""1813""
""fullscreenenter"",""0"",""5157""
","
","""event"",""trial"",""time""
""focus"",""0"",""1813""
","""event"",""trial"",""time""
""fullscreenenter"",""0"",""5157""
","
",3042.4199999833945,<img style='border: 4px solid darkgrey;' src='practice/pt2_M1.png'></img>,3,NA,practice,NA,0,<img src='practice/pt2_T1.png'></img>,0,TRUE,NA,sub16
NA,html-keyboard-response,9,42045,0.0-7.0-0.0,"""event"",""trial"",""time""
""focus"",""0"",""1813""
""fullscreenenter"",""0"",""5157""
","
","""event"",""trial"",""time""
""focus"",""0"",""1813""
","""event"",""trial"",""time""
""fullscreenenter"",""0"",""5157""
","
",null,"<div style=""font-size:60px;"">+</div>",NA,null,fixation,2020-06-12T20:19:33Z,NA,NA,NA,NA,NA,sub16
NA,mars-trial,10,45864,0.0-7.0-1.0,"""event"",""trial"",""time""
""focus"",""0"",""1813""
""fullscreenenter"",""0"",""5157""
","
","""event"",""trial"",""time""
""focus"",""0"",""1813""
","""event"",""trial"",""time""
""fullscreenenter"",""0"",""5157""
","
",1713.5399999970105,<img style='border: 4px solid darkgrey;' src='practice/pt3_M1.png'></img>,0,NA,practice,NA,0,<img src='practice/pt3_T1.png'></img>,0,TRUE,NA,sub16
NA,audio-button-response,11,48206,0.0-8.0,"""event"",""trial"",""time""
""focus"",""0"",""1813""
""fullscreenenter"",""0"",""5157""
","
","""event"",""trial"",""time""
""focus"",""0"",""1813""
","""event"",""trial"",""time""
""fullscreenenter"",""0"",""5157""
","
",2340.30999999959,audio/mars_instructions_slide4.wav,0,NA,NA,NA,NA,NA,NA,NA,NA,sub16
NA,call-function,12,48206,0.0-9.0,"""event"",""trial"",""time""
""focus"",""0"",""1813""
""fullscreenenter"",""0"",""5157""
","
","""event"",""trial"",""time""
""focus"",""0"",""1813""
","""event"",""trial"",""time""
""fullscreenenter"",""0"",""5157""
","
",NA,NA,NA,NA,NA,NA,NA,NA,NA,NA,NA,sub16
NA,html-keyboard-response,13,48712,0.0-10.0-0.0,"""event"",""trial"",""time""
""focus"",""0"",""1813""
""fullscreenenter"",""0"",""5157""
","
","""event"",""trial"",""time""
""focus"",""0"",""1813""
","""event"",""trial"",""time""
""fullscreenenter"",""0"",""5157""
","
",null,"<div style=""font-size:60px;"">+</div>",NA,null,fixation,2020-06-12T20:19:40Z,NA,NA,NA,NA,NA,sub16
NA,mars-trial,14,50960,0.0-10.0-1.0,"""event"",""trial"",""time""
""focus"",""0"",""1813""
""fullscreenenter"",""0"",""5157""
","
","""event"",""trial"",""time""
""focus"",""0"",""1813""
","""event"",""trial"",""time""
""fullscreenenter"",""0"",""5157""
","
",1643.8600000110455,<img style='border: 4px solid darkgrey;' src='img/tf1_1_M_ss3.jpeg'></img>,3,NA,exp,NA,0,<img src='img/tf1_1_T1_ss3_md.jpeg'></img>,0,TRUE,NA,sub16
NA,html-keyboard-response,15,51466,0.0-10.0-0.1,"""event"",""trial"",""time""
""focus"",""0"",""1813""
""fullscreenenter"",""0"",""5157""
","
","""event"",""trial"",""time""
""focus"",""0"",""1813""
","""event"",""trial"",""time""
""fullscreenenter"",""0"",""5157""
","
",null,"<div style=""font-size:60px;"">+</div>",NA,null,fixation,2020-06-12T20:19:42Z,NA,NA,NA,NA,NA,sub16
NA,mars-trial,16,54260,0.0-10.0-1.1,"""event"",""trial"",""time""
""focus"",""0"",""1813""
""fullscreenenter"",""0"",""5157""
","
","""event"",""trial"",""time""
""focus"",""0"",""1813""
","""event"",""trial"",""time""
""fullscreenenter"",""0"",""5157""
","
",2190.634999977192,<img style='border: 4px solid darkgrey;' src='img/tf1_2_M_ss1.jpeg'></img>,3,NA,exp,NA,0,<img src='img/tf1_2_T1_ss1_md.jpeg'></img>,0,TRUE,NA,sub16
NA,html-keyboard-response,17,54761,0.0-10.0-0.2,"""event"",""trial"",""time""
""focus"",""0"",""1813""
""fullscreenenter"",""0"",""5157""
","
","""event"",""trial"",""time""
""focus"",""0"",""1813""
","""event"",""trial"",""time""
""fullscreenenter"",""0"",""5157""
","
",null,"<div style=""font-size:60px;"">+</div>",NA,null,fixation,2020-06-12T20:19:46Z,NA,NA,NA,NA,NA,sub16
NA,mars-trial,18,57519,0.0-10.0-1.2,"""event"",""trial"",""time""
""focus"",""0"",""1813""
""fullscreenenter"",""0"",""5157""
","
","""event"",""trial"",""time""
""focus"",""0"",""1813""
","""event"",""trial"",""time""
""fullscreenenter"",""0"",""5157""
","
",2155.7299999985844,<img style='border: 4px solid darkgrey;' src='img/tf1_3_M_ss2.jpeg'></img>,0,NA,exp,NA,0,<img src='img/tf1_3_T1_ss2_md.jpeg'></img>,0,TRUE,NA,sub16
NA,html-keyboard-response,19,58020,0.0-10.0-0.3,"""event"",""trial"",""time""
""focus"",""0"",""1813""
""fullscreenenter"",""0"",""5157""
","
","""event"",""trial"",""time""
""focus"",""0"",""1813""
","""event"",""trial"",""time""
""fullscreenenter"",""0"",""5157""
","
",null,"<div style=""font-size:60px;"">+</div>",NA,null,fixation,2020-06-12T20:19:49Z,NA,NA,NA,NA,NA,sub16
NA,mars-trial,20,61429,0.0-10.0-1.3,"""event"",""trial"",""time""
""focus"",""0"",""1813""
""fullscreenenter"",""0"",""5157""
","
","""event"",""trial"",""time""
""focus"",""0"",""1813""
","""event"",""trial"",""time""
""fullscreenenter"",""0"",""5157""
","
",2799.5850000006612,<img style='border: 4px solid darkgrey;' src='img/tf1_4_M_ss3.jpeg'></img>,3,NA,exp,NA,0,<img src='img/tf1_4_T1_ss3_md.jpeg'></img>,0,TRUE,NA,sub16
NA,html-keyboard-response,21,61932,0.0-10.0-0.4,"""event"",""trial"",""time""
""focus"",""0"",""1813""
""fullscreenenter"",""0"",""5157""
","
","""event"",""trial"",""time""
""focus"",""0"",""1813""
","""event"",""trial"",""time""
""fullscreenenter"",""0"",""5157""
","
",null,"<div style=""font-size:60px;"">+</div>",NA,null,fixation,2020-06-12T20:19:53Z,NA,NA,NA,NA,NA,sub16
NA,mars-trial,22,64369,0.0-10.0-1.4,"""event"",""trial"",""time""
""focus"",""0"",""1813""
""fullscreenenter"",""0"",""5157""
","
","""event"",""trial"",""time""
""focus"",""0"",""1813""
","""event"",""trial"",""time""
""fullscreenenter"",""0"",""5157""
","
",1833.2099999825004,<img style='border: 4px solid darkgrey;' src='img/tf1_5_M_ss1.jpeg'></img>,2,NA,exp,NA,0,<img src='img/tf1_5_T1_ss1_md.jpeg'></img>,0,TRUE,NA,sub16
NA,html-keyboard-response,23,64872,0.0-10.0-0.5,"""event"",""trial"",""time""
""focus"",""0"",""1813""
""fullscreenenter"",""0"",""5157""
","
","""event"",""trial"",""time""
""focus"",""0"",""1813""
","""event"",""trial"",""time""
""fullscreenenter"",""0"",""5157""
","
",null,"<div style=""font-size:60px;"">+</div>",NA,null,fixation,2020-06-12T20:19:56Z,NA,NA,NA,NA,NA,sub16
NA,mars-trial,24,70664,0.0-10.0-1.5,"""event"",""trial"",""time""
""focus"",""0"",""1813""
""fullscreenenter"",""0"",""5157""
","
","""event"",""trial"",""time""
""focus"",""0"",""1813""
","""event"",""trial"",""time""
""fullscreenenter"",""0"",""5157""
","
",5184.340000007069,<img style='border: 4px solid darkgrey;' src='img/tf1_6_M_ss2.jpeg'></img>,2,NA,exp,NA,0,<img src='img/tf1_6_T1_ss2_md.jpeg'></img>,0,TRUE,NA,sub16
NA,html-keyboard-response,25,71165,0.0-10.0-0.6,"""event"",""trial"",""time""
""focus"",""0"",""1813""
""fullscreenenter"",""0"",""5157""
","
","""event"",""trial"",""time""
""focus"",""0"",""1813""
","""event"",""trial"",""time""
""fullscreenenter"",""0"",""5157""
","
",null,"<div style=""font-size:60px;"">+</div>",NA,null,fixation,2020-06-12T20:20:02Z,NA,NA,NA,NA,NA,sub16
NA,mars-trial,26,75469,0.0-10.0-1.6,"""event"",""trial"",""time""
""focus"",""0"",""1813""
""fullscreenenter"",""0"",""5157""
","
","""event"",""trial"",""time""
""focus"",""0"",""1813""
","""event"",""trial"",""time""
""fullscreenenter"",""0"",""5157""
","
",3696.8699999852106,<img style='border: 4px solid darkgrey;' src='img/tf1_7_M_ss3.jpeg'></img>,2,NA,exp,NA,0,<img src='img/tf1_7_T1_ss3_md.jpeg'></img>,0,TRUE,NA,sub16
NA,html-keyboard-response,27,75970,0.0-10.0-0.7,"""event"",""trial"",""time""
""focus"",""0"",""1813""
""fullscreenenter"",""0"",""5157""
","
","""event"",""trial"",""time""
""focus"",""0"",""1813""
","""event"",""trial"",""time""
""fullscreenenter"",""0"",""5157""
","
",null,"<div style=""font-size:60px;"">+</div>",NA,null,fixation,2020-06-12T20:20:07Z,NA,NA,NA,NA,NA,sub16
NA,mars-trial,28,81514,0.0-10.0-1.7,"""event"",""trial"",""time""
""focus"",""0"",""1813""
""fullscreenenter"",""0"",""5157""
","
","""event"",""trial"",""time""
""focus"",""0"",""1813""
","""event"",""trial"",""time""
""fullscreenenter"",""0"",""5157""
","
",4935.83000000217,<img style='border: 4px solid darkgrey;' src='img/tf1_8_M_ss1.jpeg'></img>,1,NA,exp,NA,0,<img src='img/tf1_8_T1_ss1_md.jpeg'></img>,0,TRUE,NA,sub16
NA,html-keyboard-response,29,82021,0.0-10.0-0.8,"""event"",""trial"",""time""
""focus"",""0"",""1813""
""fullscreenenter"",""0"",""5157""
","
","""event"",""trial"",""time""
""focus"",""0"",""1813""
","""event"",""trial"",""time""
""fullscreenenter"",""0"",""5157""
","
",null,"<div style=""font-size:60px;"">+</div>",NA,null,fixation,2020-06-12T20:20:13Z,NA,NA,NA,NA,NA,sub16
NA,mars-trial,30,87263,0.0-10.0-1.8,"""event"",""trial"",""time""
""focus"",""0"",""1813""
""fullscreenenter"",""0"",""5157""
","
","""event"",""trial"",""time""
""focus"",""0"",""1813""
","""event"",""trial"",""time""
""fullscreenenter"",""0"",""5157""
","
",4628.490000002785,<img style='border: 4px solid darkgrey;' src='img/tf1_9_M_ss2.jpeg'></img>,3,NA,exp,NA,0,<img src='img/tf1_9_T1_ss2_md.jpeg'></img>,0,TRUE,NA,sub16
NA,html-keyboard-response,31,87769,0.0-10.0-0.9,"""event"",""trial"",""time""
""focus"",""0"",""1813""
""fullscreenenter"",""0"",""5157""
","
","""event"",""trial"",""time""
""focus"",""0"",""1813""
","""event"",""trial"",""time""
""fullscreenenter"",""0"",""5157""
","
",null,"<div style=""font-size:60px;"">+</div>",NA,null,fixation,2020-06-12T20:20:19Z,NA,NA,NA,NA,NA,sub16
NA,mars-trial,32,100986,0.0-10.0-1.9,"""event"",""trial"",""time""
""focus"",""0"",""1813""
""fullscreenenter"",""0"",""5157""
","
","""event"",""trial"",""time""
""focus"",""0"",""1813""
","""event"",""trial"",""time""
""fullscreenenter"",""0"",""5157""
","
",12605.944999988424,<img style='border: 4px solid darkgrey;' src='img/tf1_10_M_ss3.jpeg'></img>,1,NA,exp,NA,0,<img src='img/tf1_10_T1_ss3_md.jpeg'></img>,0,TRUE,NA,sub16
NA,html-keyboard-response,33,101489,0.0-10.0-0.10,"""event"",""trial"",""time""
""focus"",""0"",""1813""
""fullscreenenter"",""0"",""5157""
","
","""event"",""trial"",""time""
""focus"",""0"",""1813""
","""event"",""trial"",""time""
""fullscreenenter"",""0"",""5157""
","
",null,"<div style=""font-size:60px;"">+</div>",NA,null,fixation,2020-06-12T20:20:32Z,NA,NA,NA,NA,NA,sub16
NA,mars-trial,34,115370,0.0-10.0-1.10,"""event"",""trial"",""time""
""focus"",""0"",""1813""
""fullscreenenter"",""0"",""5157""
","
","""event"",""trial"",""time""
""focus"",""0"",""1813""
","""event"",""trial"",""time""
""fullscreenenter"",""0"",""5157""
","
",13271.640000020852,<img style='border: 4px solid darkgrey;' src='img/tf1_11_M_ss1.jpeg'></img>,1,NA,exp,NA,0,<img src='img/tf1_11_T1_ss1_md.jpeg'></img>,0,TRUE,NA,sub16
NA,html-keyboard-response,35,115872,0.0-10.0-0.11,"""event"",""trial"",""time""
""focus"",""0"",""1813""
""fullscreenenter"",""0"",""5157""
","
","""event"",""trial"",""time""
""focus"",""0"",""1813""
","""event"",""trial"",""time""
""fullscreenenter"",""0"",""5157""
","
",null,"<div style=""font-size:60px;"">+</div>",NA,null,fixation,2020-06-12T20:20:47Z,NA,NA,NA,NA,NA,sub16
NA,mars-trial,36,137749,0.0-10.0-1.11,"""event"",""trial"",""time""
""focus"",""0"",""1813""
""fullscreenenter"",""0"",""5157""
","
","""event"",""trial"",""time""
""focus"",""0"",""1813""
","""event"",""trial"",""time""
""fullscreenenter"",""0"",""5157""
","
",21265.405000012834,<img style='border: 4px solid darkgrey;' src='img/tf1_12_M_ss2.jpeg'></img>,2,NA,exp,NA,2,<img src='img/tf1_12_T1_ss2_md.jpeg'></img>,0,FALSE,NA,sub16
NA,html-keyboard-response,37,138253,0.0-10.0-0.12,"""event"",""trial"",""time""
""focus"",""0"",""1813""
""fullscreenenter"",""0"",""5157""
","
","""event"",""trial"",""time""
""focus"",""0"",""1813""
","""event"",""trial"",""time""
""fullscreenenter"",""0"",""5157""
","
",null,"<div style=""font-size:60px;"">+</div>",NA,null,fixation,2020-06-12T20:21:09Z,NA,NA,NA,NA,NA,sub16
NA,mars-trial,38,152849,0.0-10.0-1.12,"""event"",""trial"",""time""
""focus"",""0"",""1813""
""fullscreenenter"",""0"",""5157""
","
","""event"",""trial"",""time""
""focus"",""0"",""1813""
","""event"",""trial"",""time""
""fullscreenenter"",""0"",""5157""
","
",13990.144999988843,<img style='border: 4px solid darkgrey;' src='img/tf1_13_M_ss3.jpeg'></img>,0,NA,exp,NA,0,<img src='img/tf1_13_T1_ss3_md.jpeg'></img>,0,TRUE,NA,sub16
NA,html-keyboard-response,39,153351,0.0-10.0-0.13,"""event"",""trial"",""time""
""focus"",""0"",""1813""
""fullscreenenter"",""0"",""5157""
","
","""event"",""trial"",""time""
""focus"",""0"",""1813""
","""event"",""trial"",""time""
""fullscreenenter"",""0"",""5157""
","
",null,"<div style=""font-size:60px;"">+</div>",NA,null,fixation,2020-06-12T20:21:24Z,NA,NA,NA,NA,NA,sub16
NA,mars-trial,40,172815,0.0-10.0-1.13,"""event"",""trial"",""time""
""focus"",""0"",""1813""
""fullscreenenter"",""0"",""5157""
","
","""event"",""trial"",""time""
""focus"",""0"",""1813""
","""event"",""trial"",""time""
""fullscreenenter"",""0"",""5157""
","
",18851.639999978943,<img style='border: 4px solid darkgrey;' src='img/tf1_14_M_ss1.jpeg'></img>,2,NA,exp,NA,3,<img src='img/tf1_14_T1_ss1_md.jpeg'></img>,0,FALSE,NA,sub16
NA,html-keyboard-response,41,173318,0.0-10.0-0.14,"""event"",""trial"",""time""
""focus"",""0"",""1813""
""fullscreenenter"",""0"",""5157""
","
","""event"",""trial"",""time""
""focus"",""0"",""1813""
","""event"",""trial"",""time""
""fullscreenenter"",""0"",""5157""
","
",null,"<div style=""font-size:60px;"">+</div>",NA,null,fixation,2020-06-12T20:21:44Z,NA,NA,NA,NA,NA,sub16
NA,mars-trial,42,185648,0.0-10.0-1.14,"""event"",""trial"",""time""
""focus"",""0"",""1813""
""fullscreenenter"",""0"",""5157""
","
","""event"",""trial"",""time""
""focus"",""0"",""1813""
","""event"",""trial"",""time""
""fullscreenenter"",""0"",""5157""
","
",11718.024999980116,<img style='border: 4px solid darkgrey;' src='img/tf1_15_M_ss2.jpeg'></img>,0,NA,exp,NA,3,<img src='img/tf1_15_T1_ss2_md.jpeg'></img>,0,FALSE,NA,sub16
NA,html-keyboard-response,43,186150,0.0-10.0-0.15,"""event"",""trial"",""time""
""focus"",""0"",""1813""
""fullscreenenter"",""0"",""5157""
","
","""event"",""trial"",""time""
""focus"",""0"",""1813""
","""event"",""trial"",""time""
""fullscreenenter"",""0"",""5157""
","
",null,"<div style=""font-size:60px;"">+</div>",NA,null,fixation,2020-06-12T20:21:57Z,NA,NA,NA,NA,NA,sub16
NA,mars-trial,44,199606,0.0-10.0-1.15,"""event"",""trial"",""time""
""focus"",""0"",""1813""
""fullscreenenter"",""0"",""5157""
","
","""event"",""trial"",""time""
""focus"",""0"",""1813""
","""event"",""trial"",""time""
""fullscreenenter"",""0"",""5157""
","
",12846.099999995204,<img style='border: 4px solid darkgrey;' src='img/tf1_16_M_ss3.jpeg'></img>,0,NA,exp,NA,0,<img src='img/tf1_16_T1_ss3_md.jpeg'></img>,0,TRUE,NA,sub16
NA,html-keyboard-response,45,200113,0.0-10.0-0.16,"""event"",""trial"",""time""
""focus"",""0"",""1813""
""fullscreenenter"",""0"",""5157""
","
","""event"",""trial"",""time""
""focus"",""0"",""1813""
","""event"",""trial"",""time""
""fullscreenenter"",""0"",""5157""
","
",null,"<div style=""font-size:60px;"">+</div>",NA,null,fixation,2020-06-12T20:22:11Z,NA,NA,NA,NA,NA,sub16
NA,mars-trial,46,220269,0.0-10.0-1.16,"""event"",""trial"",""time""
""focus"",""0"",""1813""
""fullscreenenter"",""0"",""5157""
","
","""event"",""trial"",""time""
""focus"",""0"",""1813""
","""event"",""trial"",""time""
""fullscreenenter"",""0"",""5157""
","
",19544.269999983953,<img style='border: 4px solid darkgrey;' src='img/tf1_17_M_ss1.jpeg'></img>,2,NA,exp,NA,2,<img src='img/tf1_17_T1_ss1_md.jpeg'></img>,0,FALSE,NA,sub16
NA,html-keyboard-response,47,220776,0.0-10.0-0.17,"""event"",""trial"",""time""
""focus"",""0"",""1813""
""fullscreenenter"",""0"",""5157""
","
","""event"",""trial"",""time""
""focus"",""0"",""1813""
","""event"",""trial"",""time""
""fullscreenenter"",""0"",""5157""
","
",null,"<div style=""font-size:60px;"">+</div>",NA,null,fixation,2020-06-12T20:22:32Z,NA,NA,NA,NA,NA,sub16
NA,mars-trial,48,239671,0.0-10.0-1.17,"""event"",""trial"",""time""
""focus"",""0"",""1813""
""fullscreenenter"",""0"",""5157""
","
","""event"",""trial"",""time""
""focus"",""0"",""1813""
","""event"",""trial"",""time""
""fullscreenenter"",""0"",""5157""
","
",18275.005000003148,<img style='border: 4px solid darkgrey;' src='img/tf1_18_M_ss2.jpeg'></img>,3,NA,exp,NA,0,<img src='img/tf1_18_T1_ss2_md.jpeg'></img>,0,TRUE,NA,sub16
NA,html-keyboard-response,49,240178,0.0-10.0-0.18,"""event"",""trial"",""time""
""focus"",""0"",""1813""
""fullscreenenter"",""0"",""5157""
","
","""event"",""trial"",""time""
""focus"",""0"",""1813""
","""event"",""trial"",""time""
""fullscreenenter"",""0"",""5157""
","
",null,"<div style=""font-size:60px;"">+</div>",NA,null,fixation,2020-06-12T20:22:51Z,NA,NA,NA,NA,NA,sub16
NA,mars-trial,50,248444,0.0-10.0-1.18,"""event"",""trial"",""time""
""focus"",""0"",""1813""
""fullscreenenter"",""0"",""5157""
","
","""event"",""trial"",""time""
""focus"",""0"",""1813""
","""event"",""trial"",""time""
""fullscreenenter"",""0"",""5157""
","
",7651.554999989457,<img style='border: 4px solid darkgrey;' src='img/tf1_19_M_ss3.jpeg'></img>,1,NA,exp,NA,3,<img src='img/tf1_19_T1_ss3_md.jpeg'></img>,0,FALSE,NA,sub16
NA,html-keyboard-response,51,248951,0.0-10.0-0.19,"""event"",""trial"",""time""
""focus"",""0"",""1813""
""fullscreenenter"",""0"",""5157""
","
","""event"",""trial"",""time""
""focus"",""0"",""1813""
","""event"",""trial"",""time""
""fullscreenenter"",""0"",""5157""
","
",null,"<div style=""font-size:60px;"">+</div>",NA,null,fixation,2020-06-12T20:23:00Z,NA,NA,NA,NA,NA,sub16
NA,mars-trial,52,262074,0.0-10.0-1.19,"""event"",""trial"",""time""
""focus"",""0"",""1813""
""fullscreenenter"",""0"",""5157""
","
","""event"",""trial"",""time""
""focus"",""0"",""1813""
","""event"",""trial"",""time""
""fullscreenenter"",""0"",""5157""
","
",12507.62499999837,<img style='border: 4px solid darkgrey;' src='img/tf1_20_M_ss1.jpeg'></img>,2,NA,exp,NA,0,<img src='img/tf1_20_T1_ss1_md.jpeg'></img>,0,TRUE,NA,sub16
NA,html-keyboard-response,53,262581,0.0-10.0-0.20,"""event"",""trial"",""time""
""focus"",""0"",""1813""
""fullscreenenter"",""0"",""5157""
","
","""event"",""trial"",""time""
""focus"",""0"",""1813""
","""event"",""trial"",""time""
""fullscreenenter"",""0"",""5157""
","
",null,"<div style=""font-size:60px;"">+</div>",NA,null,fixation,2020-06-12T20:23:13Z,NA,NA,NA,NA,NA,sub16
NA,mars-trial,54,288855,0.0-10.0-1.20,"""event"",""trial"",""time""
""focus"",""0"",""1813""
""fullscreenenter"",""0"",""5157""
","
","""event"",""trial"",""time""
""focus"",""0"",""1813""
","""event"",""trial"",""time""
""fullscreenenter"",""0"",""5157""
","
",25661.16499999771,<img style='border: 4px solid darkgrey;' src='img/tf1_21_M_ss2.jpeg'></img>,2,NA,exp,NA,2,<img src='img/tf1_21_T1_ss2_md.jpeg'></img>,0,FALSE,NA,sub16
NA,html-keyboard-response,55,289357,0.0-10.0-0.21,"""event"",""trial"",""time""
""focus"",""0"",""1813""
""fullscreenenter"",""0"",""5157""
","
","""event"",""trial"",""time""
""focus"",""0"",""1813""
","""event"",""trial"",""time""
""fullscreenenter"",""0"",""5157""
","
",null,"<div style=""font-size:60px;"">+</div>",NA,null,fixation,2020-06-12T20:23:40Z,NA,NA,NA,NA,NA,sub16
NA,mars-trial,56,294018,0.0-10.0-1.21,"""event"",""trial"",""time""
""focus"",""0"",""1813""
""fullscreenenter"",""0"",""5157""
","
","""event"",""trial"",""time""
""focus"",""0"",""1813""
","""event"",""trial"",""time""
""fullscreenenter"",""0"",""5157""
","
",4049.9199999903794,<img style='border: 4px solid darkgrey;' src='img/tf1_22_M_ss3.jpeg'></img>,3,NA,exp,NA,3,<img src='img/tf1_22_T1_ss3_md.jpeg'></img>,0,FALSE,NA,sub16
NA,html-keyboard-response,57,294520,0.0-10.0-0.22,"""event"",""trial"",""time""
""focus"",""0"",""1813""
""fullscreenenter"",""0"",""5157""
","
","""event"",""trial"",""time""
""focus"",""0"",""1813""
","""event"",""trial"",""time""
""fullscreenenter"",""0"",""5157""
","
",null,"<div style=""font-size:60px;"">+</div>",NA,null,fixation,2020-06-12T20:23:45Z,NA,NA,NA,NA,NA,sub16
NA,mars-trial,58,308756,0.0-10.0-1.22,"""event"",""trial"",""time""
""focus"",""0"",""1813""
""fullscreenenter"",""0"",""5157""
","
","""event"",""trial"",""time""
""focus"",""0"",""1813""
","""event"",""trial"",""time""
""fullscreenenter"",""0"",""5157""
","
",13624.655000021448,<img style='border: 4px solid darkgrey;' src='img/tf1_23_M_ss1.jpeg'></img>,1,NA,exp,NA,0,<img src='img/tf1_23_T1_ss1_md.jpeg'></img>,0,TRUE,NA,sub16
NA,html-keyboard-response,59,309265,0.0-10.0-0.23,"""event"",""trial"",""time""
""focus"",""0"",""1813""
""fullscreenenter"",""0"",""5157""
","
","""event"",""trial"",""time""
""focus"",""0"",""1813""
","""event"",""trial"",""time""
""fullscreenenter"",""0"",""5157""
","
",null,"<div style=""font-size:60px;"">+</div>",NA,null,fixation,2020-06-12T20:24:00Z,NA,NA,NA,NA,NA,sub16
NA,mars-trial,60,327342,0.0-10.0-1.23,"""event"",""trial"",""time""
""focus"",""0"",""1813""
""fullscreenenter"",""0"",""5157""
","
","""event"",""trial"",""time""
""focus"",""0"",""1813""
","""event"",""trial"",""time""
""fullscreenenter"",""0"",""5157""
","
",17467.55500001018,<img style='border: 4px solid darkgrey;' src='img/tf1_24_M_ss2.jpeg'></img>,2,NA,exp,NA,2,<img src='img/tf1_24_T1_ss2_md.jpeg'></img>,0,FALSE,NA,sub16
NA,html-keyboard-response,61,327849,0.0-10.0-0.24,"""event"",""trial"",""time""
""focus"",""0"",""1813""
""fullscreenenter"",""0"",""5157""
","
","""event"",""trial"",""time""
""focus"",""0"",""1813""
","""event"",""trial"",""time""
""fullscreenenter"",""0"",""5157""
","
",null,"<div style=""font-size:60px;"">+</div>",NA,null,fixation,2020-06-12T20:24:19Z,NA,NA,NA,NA,NA,sub16
NA,mars-trial,62,335000,0.0-10.0-1.24,"""event"",""trial"",""time""
""focus"",""0"",""1813""
""fullscreenenter"",""0"",""5157""
","
","""event"",""trial"",""time""
""focus"",""0"",""1813""
","""event"",""trial"",""time""
""fullscreenenter"",""0"",""5157""
","
",6538.694999995641,<img style='border: 4px solid darkgrey;' src='img/tf1_25_M_ss3.jpeg'></img>,1,NA,exp,NA,0,<img src='img/tf1_25_T1_ss3_md.jpeg'></img>,0,TRUE,NA,sub16
NA,html-keyboard-response,63,335502,0.0-10.0-0.25,"""event"",""trial"",""time""
""focus"",""0"",""1813""
""fullscreenenter"",""0"",""5157""
","
","""event"",""trial"",""time""
""focus"",""0"",""1813""
","""event"",""trial"",""time""
""fullscreenenter"",""0"",""5157""
","
",null,"<div style=""font-size:60px;"">+</div>",NA,null,fixation,2020-06-12T20:24:26Z,NA,NA,NA,NA,NA,sub16
NA,mars-trial,64,361641,0.0-10.0-1.25,"""event"",""trial"",""time""
""focus"",""0"",""1813""
""fullscreenenter"",""0"",""5157""
","
","""event"",""trial"",""time""
""focus"",""0"",""1813""
","""event"",""trial"",""time""
""fullscreenenter"",""0"",""5157""
","
",25527.85000001313,<img style='border: 4px solid darkgrey;' src='img/tf1_26_M_ss1.jpeg'></img>,0,NA,exp,NA,0,<img src='img/tf1_26_T1_ss1_md.jpeg'></img>,0,TRUE,NA,sub16
NA,html-keyboard-response,65,362142,0.0-10.0-0.26,"""event"",""trial"",""time""
""focus"",""0"",""1813""
""fullscreenenter"",""0"",""5157""
","
","""event"",""trial"",""time""
""focus"",""0"",""1813""
","""event"",""trial"",""time""
""fullscreenenter"",""0"",""5157""
","
",null,"<div style=""font-size:60px;"">+</div>",NA,null,fixation,2020-06-12T20:24:53Z,NA,NA,NA,NA,NA,sub16
NA,mars-trial,66,374652,0.0-10.0-1.26,"""event"",""trial"",""time""
""focus"",""0"",""1813""
""fullscreenenter"",""0"",""5157""
","
","""event"",""trial"",""time""
""focus"",""0"",""1813""
","""event"",""trial"",""time""
""fullscreenenter"",""0"",""5157""
","
",11900.079999992158,<img style='border: 4px solid darkgrey;' src='img/tf1_27_M_ss2.jpeg'></img>,1,NA,exp,NA,0,<img src='img/tf1_27_T1_ss2_md.jpeg'></img>,0,TRUE,NA,sub16
NA,html-keyboard-response,67,375159,0.0-10.0-0.27,"""event"",""trial"",""time""
""focus"",""0"",""1813""
""fullscreenenter"",""0"",""5157""
","
","""event"",""trial"",""time""
""focus"",""0"",""1813""
","""event"",""trial"",""time""
""fullscreenenter"",""0"",""5157""
","
",null,"<div style=""font-size:60px;"">+</div>",NA,null,fixation,2020-06-12T20:25:06Z,NA,NA,NA,NA,NA,sub16
NA,mars-trial,68,393092,0.0-10.0-1.27,"""event"",""trial"",""time""
""focus"",""0"",""1813""
""fullscreenenter"",""0"",""5157""
","
","""event"",""trial"",""time""
""focus"",""0"",""1813""
","""event"",""trial"",""time""
""fullscreenenter"",""0"",""5157""
","
",17321.885000012117,<img style='border: 4px solid darkgrey;' src='img/tf1_28_M_ss3.jpeg'></img>,1,NA,exp,NA,0,<img src='img/tf1_28_T1_ss3_md.jpeg'></img>,0,TRUE,NA,sub16
NA,html-keyboard-response,69,393599,0.0-10.0-0.28,"""event"",""trial"",""time""
""focus"",""0"",""1813""
""fullscreenenter"",""0"",""5157""
","
","""event"",""trial"",""time""
""focus"",""0"",""1813""
","""event"",""trial"",""time""
""fullscreenenter"",""0"",""5157""
","
",null,"<div style=""font-size:60px;"">+</div>",NA,null,fixation,2020-06-12T20:25:24Z,NA,NA,NA,NA,NA,sub16
NA,mars-trial,70,409802,0.0-10.0-1.28,"""event"",""trial"",""time""
""focus"",""0"",""1813""
""fullscreenenter"",""0"",""5157""
","
","""event"",""trial"",""time""
""focus"",""0"",""1813""
","""event"",""trial"",""time""
""fullscreenenter"",""0"",""5157""
","
",15588.569999992615,<img style='border: 4px solid darkgrey;' src='img/tf1_29_M_ss1.jpeg'></img>,3,NA,exp,NA,0,<img src='img/tf1_29_T1_ss1_md.jpeg'></img>,0,TRUE,NA,sub16
NA,html-keyboard-response,71,410303,0.0-10.0-0.29,"""event"",""trial"",""time""
""focus"",""0"",""1813""
""fullscreenenter"",""0"",""5157""
","
","""event"",""trial"",""time""
""focus"",""0"",""1813""
","""event"",""trial"",""time""
""fullscreenenter"",""0"",""5157""
","
",null,"<div style=""font-size:60px;"">+</div>",NA,null,fixation,2020-06-12T20:25:41Z,NA,NA,NA,NA,NA,sub16
NA,mars-trial,72,427103,0.0-10.0-1.29,"""event"",""trial"",""time""
""focus"",""0"",""1813""
""fullscreenenter"",""0"",""5157""
","
","""event"",""trial"",""time""
""focus"",""0"",""1813""
","""event"",""trial"",""time""
""fullscreenenter"",""0"",""5157""
","
",16192.904999974417,<img style='border: 4px solid darkgrey;' src='img/tf1_30_M_ss2.jpeg'></img>,3,NA,exp,NA,1,<img src='img/tf1_30_T1_ss2_md.jpeg'></img>,0,FALSE,NA,sub16
NA,html-keyboard-response,73,427609,0.0-10.0-0.30,"""event"",""trial"",""time""
""focus"",""0"",""1813""
""fullscreenenter"",""0"",""5157""
","
","""event"",""trial"",""time""
""focus"",""0"",""1813""
","""event"",""trial"",""time""
""fullscreenenter"",""0"",""5157""
","
",null,"<div style=""font-size:60px;"">+</div>",NA,null,fixation,2020-06-12T20:25:58Z,NA,NA,NA,NA,NA,sub16
NA,mars-trial,74,442770,0.0-10.0-1.30,"""event"",""trial"",""time""
""focus"",""0"",""1813""
""fullscreenenter"",""0"",""5157""
","
","""event"",""trial"",""time""
""focus"",""0"",""1813""
","""event"",""trial"",""time""
""fullscreenenter"",""0"",""5157""
","
",14549.16999998386,<img style='border: 4px solid darkgrey;' src='img/tf1_31_M_ss3.jpeg'></img>,0,NA,exp,NA,0,<img src='img/tf1_31_T1_ss3_md.jpeg'></img>,0,TRUE,NA,sub16
NA,html-keyboard-response,75,443276,0.0-10.0-0.31,"""event"",""trial"",""time""
""focus"",""0"",""1813""
""fullscreenenter"",""0"",""5157""
","
","""event"",""trial"",""time""
""focus"",""0"",""1813""
","""event"",""trial"",""time""
""fullscreenenter"",""0"",""5157""
","
",null,"<div style=""font-size:60px;"">+</div>",NA,null,fixation,2020-06-12T20:26:14Z,NA,NA,NA,NA,NA,sub16
NA,mars-trial,76,454185,0.0-10.0-1.31,"""event"",""trial"",""time""
""focus"",""0"",""1813""
""fullscreenenter"",""0"",""5157""
","
","""event"",""trial"",""time""
""focus"",""0"",""1813""
","""event"",""trial"",""time""
""fullscreenenter"",""0"",""5157""
","
",10298.105000023497,<img style='border: 4px solid darkgrey;' src='img/tf1_32_M_ss1.jpeg'></img>,2,NA,exp,NA,0,<img src='img/tf1_32_T1_ss1_md.jpeg'></img>,0,TRUE,NA,sub16
NA,html-keyboard-response,77,454688,0.0-10.0-0.32,"""event"",""trial"",""time""
""focus"",""0"",""1813""
""fullscreenenter"",""0"",""5157""
","
","""event"",""trial"",""time""
""focus"",""0"",""1813""
","""event"",""trial"",""time""
""fullscreenenter"",""0"",""5157""
","
",null,"<div style=""font-size:60px;"">+</div>",NA,null,fixation,2020-06-12T20:26:26Z,NA,NA,NA,NA,NA,sub16
NA,mars-trial,78,462182,0.0-10.0-1.32,"""event"",""trial"",""time""
""focus"",""0"",""1813""
""fullscreenenter"",""0"",""5157""
","
","""event"",""trial"",""time""
""focus"",""0"",""1813""
","""event"",""trial"",""time""
""fullscreenenter"",""0"",""5157""
","
",6887.919999979204,<img style='border: 4px solid darkgrey;' src='img/tf1_33_M_ss2.jpeg'></img>,1,NA,exp,NA,0,<img src='img/tf1_33_T1_ss2_md.jpeg'></img>,0,TRUE,NA,sub16
NA,html-keyboard-response,79,462687,0.0-10.0-0.33,"""event"",""trial"",""time""
""focus"",""0"",""1813""
""fullscreenenter"",""0"",""5157""
","
","""event"",""trial"",""time""
""focus"",""0"",""1813""
","""event"",""trial"",""time""
""fullscreenenter"",""0"",""5157""
","
",null,"<div style=""font-size:60px;"">+</div>",NA,null,fixation,2020-06-12T20:26:33Z,NA,NA,NA,NA,NA,sub16
NA,mars-trial,80,487257,0.0-10.0-1.33,"""event"",""trial"",""time""
""focus"",""0"",""1813""
""fullscreenenter"",""0"",""5157""
","
","""event"",""trial"",""time""
""focus"",""0"",""1813""
","""event"",""trial"",""time""
""fullscreenenter"",""0"",""5157""
","
",23962.92999997968,<img style='border: 4px solid darkgrey;' src='img/tf1_34_M_ss3.jpeg'></img>,1,NA,exp,NA,0,<img src='img/tf1_34_T1_ss3_md.jpeg'></img>,0,TRUE,NA,sub16
NA,html-keyboard-response,81,487764,0.0-10.0-0.34,"""event"",""trial"",""time""
""focus"",""0"",""1813""
""fullscreenenter"",""0"",""5157""
","
","""event"",""trial"",""time""
""focus"",""0"",""1813""
","""event"",""trial"",""time""
""fullscreenenter"",""0"",""5157""
","
",null,"<div style=""font-size:60px;"">+</div>",NA,null,fixation,2020-06-12T20:26:59Z,NA,NA,NA,NA,NA,sub16
NA,mars-trial,82,504017,0.0-10.0-1.34,"""event"",""trial"",""time""
""focus"",""0"",""1813""
""fullscreenenter"",""0"",""5157""
","
","""event"",""trial"",""time""
""focus"",""0"",""1813""
","""event"",""trial"",""time""
""fullscreenenter"",""0"",""5157""
","
",15640.355000010459,<img style='border: 4px solid darkgrey;' src='img/tf1_35_M_ss1.jpeg'></img>,0,NA,exp,NA,0,<img src='img/tf1_35_T1_ss1_md.jpeg'></img>,0,TRUE,NA,sub16
NA,html-keyboard-response,83,504519,0.0-10.0-0.35,"""event"",""trial"",""time""
""focus"",""0"",""1813""
""fullscreenenter"",""0"",""5157""
","
","""event"",""trial"",""time""
""focus"",""0"",""1813""
","""event"",""trial"",""time""
""fullscreenenter"",""0"",""5157""
","
",null,"<div style=""font-size:60px;"">+</div>",NA,null,fixation,2020-06-12T20:27:15Z,NA,NA,NA,NA,NA,sub16
NA,mars-trial,84,528232,0.0-10.0-1.35,"""event"",""trial"",""time""
""focus"",""0"",""1813""
""fullscreenenter"",""0"",""5157""
","
","""event"",""trial"",""time""
""focus"",""0"",""1813""
","""event"",""trial"",""time""
""fullscreenenter"",""0"",""5157""
","
",NA,NA,NA,NA,exp,NA,NA,<img src='img/tf1_36_T1_ss2_md.jpeg'></img>,0,FALSE,NA,sub16
NA,html-keyboard-response,85,528738,0.0-10.0-0.36,"""event"",""trial"",""time""
""focus"",""0"",""1813""
""fullscreenenter"",""0"",""5157""
","
","""event"",""trial"",""time""
""focus"",""0"",""1813""
","""event"",""trial"",""time""
""fullscreenenter"",""0"",""5157""
","
",null,"<div style=""font-size:60px;"">+</div>",NA,null,fixation,2020-06-12T20:27:40Z,NA,NA,NA,NA,NA,sub16
NA,audio-button-response,86,532226,0.0-11.0,"""event"",""trial"",""time""
""focus"",""0"",""1813""
""fullscreenenter"",""0"",""5157""
","
","""event"",""trial"",""time""
""focus"",""0"",""1813""
","""event"",""trial"",""time""
""fullscreenenter"",""0"",""5157""
","
",3381.889999989653,audio/mars_instructions_slide5.wav,0,NA,NA,NA,NA,NA,NA,NA,NA,sub16
