success,trial_type,trial_index,time_elapsed,internal_node_id,interactions,blur_events,focus_events,fullscreenenter_events,fullscreenexit_events,rt,stimulus,button_pressed,key_press,part,timestamp,unshuffled_button,correct_response,correct_button,correct,value,subject_id
TRUE,fullscreen,0,4044,0.0-0.0,"""event"",""trial"",""time""
""focus"",""0"",""1479""
""fullscreenenter"",""0"",""3066""
","
","""event"",""trial"",""time""
""focus"",""0"",""1479""
","""event"",""trial"",""time""
""fullscreenenter"",""0"",""3066""
","
",NA,NA,NA,NA,NA,NA,NA,NA,NA,NA,NA,sub111
NA,pavlovia,1,4047,0.0-1.0,"""event"",""trial"",""time""
""focus"",""0"",""1479""
""fullscreenenter"",""0"",""3066""
","
","""event"",""trial"",""time""
""focus"",""0"",""1479""
","""event"",""trial"",""time""
""fullscreenenter"",""0"",""3066""
","
",NA,NA,NA,NA,NA,NA,NA,NA,NA,NA,NA,sub111
NA,html-button-response,2,5647,0.0-2.0,"""event"",""trial"",""time""
""focus"",""0"",""1479""
""fullscreenenter"",""0"",""3066""
","
","""event"",""trial"",""time""
""focus"",""0"",""1479""
","""event"",""trial"",""time""
""fullscreenenter"",""0"",""3066""
","
",1599.1999999969266,<p>Welcome! Press START to begin.</p><br>,0,NA,NA,NA,NA,NA,NA,NA,NA,sub111
NA,audio-button-response,3,20266,0.0-3.0,"""event"",""trial"",""time""
""focus"",""0"",""1479""
""fullscreenenter"",""0"",""3066""
","
","""event"",""trial"",""time""
""focus"",""0"",""1479""
","""event"",""trial"",""time""
""fullscreenenter"",""0"",""3066""
","
",14617.635000002338,audio/mars_instructions_slide2.wav,0,NA,NA,NA,NA,NA,NA,NA,NA,sub111
NA,audio-button-response,4,26656,0.0-4.0,"""event"",""trial"",""time""
""focus"",""0"",""1479""
""fullscreenenter"",""0"",""3066""
","
","""event"",""trial"",""time""
""focus"",""0"",""1479""
","""event"",""trial"",""time""
""fullscreenenter"",""0"",""3066""
","
",6389.035000000149,audio/mars_instructions_slide3.wav,0,NA,NA,NA,NA,NA,NA,NA,NA,sub111
NA,html-keyboard-response,5,27160,0.0-5.0-0.0,"""event"",""trial"",""time""
""focus"",""0"",""1479""
""fullscreenenter"",""0"",""3066""
","
","""event"",""trial"",""time""
""focus"",""0"",""1479""
","""event"",""trial"",""time""
""fullscreenenter"",""0"",""3066""
","
",null,"<div style=""font-size:60px;"">+</div>",NA,null,fixation,2020-06-20T19:45:33Z,NA,NA,NA,NA,NA,sub111
NA,mars-trial,6,36472,0.0-5.0-1.0,"""event"",""trial"",""time""
""focus"",""0"",""1479""
""fullscreenenter"",""0"",""3066""
","
","""event"",""trial"",""time""
""focus"",""0"",""1479""
","""event"",""trial"",""time""
""fullscreenenter"",""0"",""3066""
","
",7202.95000000624,<img style='border: 4px solid darkgrey;' src='practice/pt1_M1.png'></img>,3,NA,practice,NA,0,<img src='practice/pt1_T1.png'></img>,0,TRUE,NA,sub111
NA,html-keyboard-response,7,36976,0.0-6.0-0.0,"""event"",""trial"",""time""
""focus"",""0"",""1479""
""fullscreenenter"",""0"",""3066""
","
","""event"",""trial"",""time""
""focus"",""0"",""1479""
","""event"",""trial"",""time""
""fullscreenenter"",""0"",""3066""
","
",null,"<div style=""font-size:60px;"">+</div>",NA,null,fixation,2020-06-20T19:45:43Z,NA,NA,NA,NA,NA,sub111
NA,mars-trial,8,41468,0.0-6.0-1.0,"""event"",""trial"",""time""
""focus"",""0"",""1479""
""fullscreenenter"",""0"",""3066""
","
","""event"",""trial"",""time""
""focus"",""0"",""1479""
","""event"",""trial"",""time""
""fullscreenenter"",""0"",""3066""
","
",2380.654999986291,<img style='border: 4px solid darkgrey;' src='practice/pt2_M1.png'></img>,3,NA,practice,NA,0,<img src='practice/pt2_T1.png'></img>,0,TRUE,NA,sub111
NA,html-keyboard-response,9,41969,0.0-7.0-0.0,"""event"",""trial"",""time""
""focus"",""0"",""1479""
""fullscreenenter"",""0"",""3066""
","
","""event"",""trial"",""time""
""focus"",""0"",""1479""
","""event"",""trial"",""time""
""fullscreenenter"",""0"",""3066""
","
",null,"<div style=""font-size:60px;"">+</div>",NA,null,fixation,2020-06-20T19:45:48Z,NA,NA,NA,NA,NA,sub111
NA,mars-trial,10,46143,0.0-7.0-1.0,"""event"",""trial"",""time""
""focus"",""0"",""1479""
""fullscreenenter"",""0"",""3066""
","
","""event"",""trial"",""time""
""focus"",""0"",""1479""
","""event"",""trial"",""time""
""fullscreenenter"",""0"",""3066""
","
",2063.255000015488,<img style='border: 4px solid darkgrey;' src='practice/pt3_M1.png'></img>,0,NA,practice,NA,0,<img src='practice/pt3_T1.png'></img>,0,TRUE,NA,sub111
NA,audio-button-response,11,47602,0.0-8.0,"""event"",""trial"",""time""
""focus"",""0"",""1479""
""fullscreenenter"",""0"",""3066""
","
","""event"",""trial"",""time""
""focus"",""0"",""1479""
","""event"",""trial"",""time""
""fullscreenenter"",""0"",""3066""
","
",1458.409999992,audio/mars_instructions_slide4.wav,0,NA,NA,NA,NA,NA,NA,NA,NA,sub111
NA,call-function,12,47603,0.0-9.0,"""event"",""trial"",""time""
""focus"",""0"",""1479""
""fullscreenenter"",""0"",""3066""
","
","""event"",""trial"",""time""
""focus"",""0"",""1479""
","""event"",""trial"",""time""
""fullscreenenter"",""0"",""3066""
","
",NA,NA,NA,NA,NA,NA,NA,NA,NA,NA,NA,sub111
NA,html-keyboard-response,13,48105,0.0-10.0-0.0,"""event"",""trial"",""time""
""focus"",""0"",""1479""
""fullscreenenter"",""0"",""3066""
","
","""event"",""trial"",""time""
""focus"",""0"",""1479""
","""event"",""trial"",""time""
""fullscreenenter"",""0"",""3066""
","
",null,"<div style=""font-size:60px;"">+</div>",NA,null,fixation,2020-06-20T19:45:54Z,NA,NA,NA,NA,NA,sub111
NA,mars-trial,14,50286,0.0-10.0-1.0,"""event"",""trial"",""time""
""focus"",""0"",""1479""
""fullscreenenter"",""0"",""3066""
","
","""event"",""trial"",""time""
""focus"",""0"",""1479""
","""event"",""trial"",""time""
""fullscreenenter"",""0"",""3066""
","
",1569.4099999964237,<img style='border: 4px solid darkgrey;' src='img/tf1_1_M_ss3.jpeg'></img>,3,NA,exp,NA,0,<img src='img/tf1_1_T1_ss3_md.jpeg'></img>,0,TRUE,NA,sub111
NA,html-keyboard-response,15,50789,0.0-10.0-0.1,"""event"",""trial"",""time""
""focus"",""0"",""1479""
""fullscreenenter"",""0"",""3066""
","
","""event"",""trial"",""time""
""focus"",""0"",""1479""
","""event"",""trial"",""time""
""fullscreenenter"",""0"",""3066""
","
",null,"<div style=""font-size:60px;"">+</div>",NA,null,fixation,2020-06-20T19:45:57Z,NA,NA,NA,NA,NA,sub111
NA,mars-trial,16,53939,0.0-10.0-1.1,"""event"",""trial"",""time""
""focus"",""0"",""1479""
""fullscreenenter"",""0"",""3066""
","
","""event"",""trial"",""time""
""focus"",""0"",""1479""
","""event"",""trial"",""time""
""fullscreenenter"",""0"",""3066""
","
",2541.9500000134576,<img style='border: 4px solid darkgrey;' src='img/tf1_2_M_ss1.jpeg'></img>,3,NA,exp,NA,0,<img src='img/tf1_2_T1_ss1_md.jpeg'></img>,0,TRUE,NA,sub111
NA,html-keyboard-response,17,54444,0.0-10.0-0.2,"""event"",""trial"",""time""
""focus"",""0"",""1479""
""fullscreenenter"",""0"",""3066""
","
","""event"",""trial"",""time""
""focus"",""0"",""1479""
","""event"",""trial"",""time""
""fullscreenenter"",""0"",""3066""
","
",null,"<div style=""font-size:60px;"">+</div>",NA,null,fixation,2020-06-20T19:46:00Z,NA,NA,NA,NA,NA,sub111
NA,mars-trial,18,56975,0.0-10.0-1.2,"""event"",""trial"",""time""
""focus"",""0"",""1479""
""fullscreenenter"",""0"",""3066""
","
","""event"",""trial"",""time""
""focus"",""0"",""1479""
","""event"",""trial"",""time""
""fullscreenenter"",""0"",""3066""
","
",1923.434999975143,<img style='border: 4px solid darkgrey;' src='img/tf1_3_M_ss2.jpeg'></img>,3,NA,exp,NA,0,<img src='img/tf1_3_T1_ss2_md.jpeg'></img>,0,TRUE,NA,sub111
NA,html-keyboard-response,19,57480,0.0-10.0-0.3,"""event"",""trial"",""time""
""focus"",""0"",""1479""
""fullscreenenter"",""0"",""3066""
","
","""event"",""trial"",""time""
""focus"",""0"",""1479""
","""event"",""trial"",""time""
""fullscreenenter"",""0"",""3066""
","
",null,"<div style=""font-size:60px;"">+</div>",NA,null,fixation,2020-06-20T19:46:03Z,NA,NA,NA,NA,NA,sub111
NA,mars-trial,20,62516,0.0-10.0-1.3,"""event"",""trial"",""time""
""focus"",""0"",""1479""
""fullscreenenter"",""0"",""3066""
","
","""event"",""trial"",""time""
""focus"",""0"",""1479""
","""event"",""trial"",""time""
""fullscreenenter"",""0"",""3066""
","
",4427.169999980833,<img style='border: 4px solid darkgrey;' src='img/tf1_4_M_ss3.jpeg'></img>,0,NA,exp,NA,0,<img src='img/tf1_4_T1_ss3_md.jpeg'></img>,0,TRUE,NA,sub111
NA,html-keyboard-response,21,63018,0.0-10.0-0.4,"""event"",""trial"",""time""
""focus"",""0"",""1479""
""fullscreenenter"",""0"",""3066""
","
","""event"",""trial"",""time""
""focus"",""0"",""1479""
","""event"",""trial"",""time""
""fullscreenenter"",""0"",""3066""
","
",null,"<div style=""font-size:60px;"">+</div>",NA,null,fixation,2020-06-20T19:46:09Z,NA,NA,NA,NA,NA,sub111
NA,mars-trial,22,65358,0.0-10.0-1.4,"""event"",""trial"",""time""
""focus"",""0"",""1479""
""fullscreenenter"",""0"",""3066""
","
","""event"",""trial"",""time""
""focus"",""0"",""1479""
","""event"",""trial"",""time""
""fullscreenenter"",""0"",""3066""
","
",1732.545000006212,<img style='border: 4px solid darkgrey;' src='img/tf1_5_M_ss1.jpeg'></img>,2,NA,exp,NA,0,<img src='img/tf1_5_T1_ss1_md.jpeg'></img>,0,TRUE,NA,sub111
NA,html-keyboard-response,23,65863,0.0-10.0-0.5,"""event"",""trial"",""time""
""focus"",""0"",""1479""
""fullscreenenter"",""0"",""3066""
","
","""event"",""trial"",""time""
""focus"",""0"",""1479""
","""event"",""trial"",""time""
""fullscreenenter"",""0"",""3066""
","
",null,"<div style=""font-size:60px;"">+</div>",NA,null,fixation,2020-06-20T19:46:12Z,NA,NA,NA,NA,NA,sub111
NA,mars-trial,24,72312,0.0-10.0-1.5,"""event"",""trial"",""time""
""focus"",""0"",""1479""
""fullscreenenter"",""0"",""3066""
","
","""event"",""trial"",""time""
""focus"",""0"",""1479""
","""event"",""trial"",""time""
""fullscreenenter"",""0"",""3066""
","
",5839.8400000005495,<img style='border: 4px solid darkgrey;' src='img/tf1_6_M_ss2.jpeg'></img>,1,NA,exp,NA,2,<img src='img/tf1_6_T1_ss2_md.jpeg'></img>,0,FALSE,NA,sub111
NA,html-keyboard-response,25,72817,0.0-10.0-0.6,"""event"",""trial"",""time""
""focus"",""0"",""1479""
""fullscreenenter"",""0"",""3066""
","
","""event"",""trial"",""time""
""focus"",""0"",""1479""
","""event"",""trial"",""time""
""fullscreenenter"",""0"",""3066""
","
",null,"<div style=""font-size:60px;"">+</div>",NA,null,fixation,2020-06-20T19:46:19Z,NA,NA,NA,NA,NA,sub111
NA,mars-trial,26,76591,0.0-10.0-1.6,"""event"",""trial"",""time""
""focus"",""0"",""1479""
""fullscreenenter"",""0"",""3066""
","
","""event"",""trial"",""time""
""focus"",""0"",""1479""
","""event"",""trial"",""time""
""fullscreenenter"",""0"",""3066""
","
",3162.1549999981653,<img style='border: 4px solid darkgrey;' src='img/tf1_7_M_ss3.jpeg'></img>,0,NA,exp,NA,0,<img src='img/tf1_7_T1_ss3_md.jpeg'></img>,0,TRUE,NA,sub111
NA,html-keyboard-response,27,77096,0.0-10.0-0.7,"""event"",""trial"",""time""
""focus"",""0"",""1479""
""fullscreenenter"",""0"",""3066""
","
","""event"",""trial"",""time""
""focus"",""0"",""1479""
","""event"",""trial"",""time""
""fullscreenenter"",""0"",""3066""
","
",null,"<div style=""font-size:60px;"">+</div>",NA,null,fixation,2020-06-20T19:46:23Z,NA,NA,NA,NA,NA,sub111
NA,mars-trial,28,80853,0.0-10.0-1.7,"""event"",""trial"",""time""
""focus"",""0"",""1479""
""fullscreenenter"",""0"",""3066""
","
","""event"",""trial"",""time""
""focus"",""0"",""1479""
","""event"",""trial"",""time""
""fullscreenenter"",""0"",""3066""
","
",3144.6949999954086,<img style='border: 4px solid darkgrey;' src='img/tf1_8_M_ss1.jpeg'></img>,0,NA,exp,NA,0,<img src='img/tf1_8_T1_ss1_md.jpeg'></img>,0,TRUE,NA,sub111
NA,html-keyboard-response,29,81358,0.0-10.0-0.8,"""event"",""trial"",""time""
""focus"",""0"",""1479""
""fullscreenenter"",""0"",""3066""
","
","""event"",""trial"",""time""
""focus"",""0"",""1479""
","""event"",""trial"",""time""
""fullscreenenter"",""0"",""3066""
","
",null,"<div style=""font-size:60px;"">+</div>",NA,null,fixation,2020-06-20T19:46:27Z,NA,NA,NA,NA,NA,sub111
NA,mars-trial,30,85577,0.0-10.0-1.8,"""event"",""trial"",""time""
""focus"",""0"",""1479""
""fullscreenenter"",""0"",""3066""
","
","""event"",""trial"",""time""
""focus"",""0"",""1479""
","""event"",""trial"",""time""
""fullscreenenter"",""0"",""3066""
","
",3606.9050000223797,<img style='border: 4px solid darkgrey;' src='img/tf1_9_M_ss2.jpeg'></img>,2,NA,exp,NA,0,<img src='img/tf1_9_T1_ss2_md.jpeg'></img>,0,TRUE,NA,sub111
NA,html-keyboard-response,31,86083,0.0-10.0-0.9,"""event"",""trial"",""time""
""focus"",""0"",""1479""
""fullscreenenter"",""0"",""3066""
","
","""event"",""trial"",""time""
""focus"",""0"",""1479""
","""event"",""trial"",""time""
""fullscreenenter"",""0"",""3066""
","
",null,"<div style=""font-size:60px;"">+</div>",NA,null,fixation,2020-06-20T19:46:32Z,NA,NA,NA,NA,NA,sub111
NA,mars-trial,32,93429,0.0-10.0-1.9,"""event"",""trial"",""time""
""focus"",""0"",""1479""
""fullscreenenter"",""0"",""3066""
","
","""event"",""trial"",""time""
""focus"",""0"",""1479""
","""event"",""trial"",""time""
""fullscreenenter"",""0"",""3066""
","
",6729.940000019269,<img style='border: 4px solid darkgrey;' src='img/tf1_10_M_ss3.jpeg'></img>,2,NA,exp,NA,2,<img src='img/tf1_10_T1_ss3_md.jpeg'></img>,0,FALSE,NA,sub111
NA,html-keyboard-response,33,93935,0.0-10.0-0.10,"""event"",""trial"",""time""
""focus"",""0"",""1479""
""fullscreenenter"",""0"",""3066""
""blur"",""34"",""95750""
""focus"",""34"",""98973""
","""event"",""trial"",""time""
""blur"",""34"",""95750""
","""event"",""trial"",""time""
""focus"",""0"",""1479""
""focus"",""34"",""98973""
","""event"",""trial"",""time""
""fullscreenenter"",""0"",""3066""
","
",null,"<div style=""font-size:60px;"">+</div>",NA,null,fixation,2020-06-20T19:46:40Z,NA,NA,NA,NA,NA,sub111
NA,mars-trial,34,109020,0.0-10.0-1.10,"""event"",""trial"",""time""
""focus"",""0"",""1479""
""fullscreenenter"",""0"",""3066""
""blur"",""34"",""95750""
""focus"",""34"",""98973""
","""event"",""trial"",""time""
""blur"",""34"",""95750""
","""event"",""trial"",""time""
""focus"",""0"",""1479""
""focus"",""34"",""98973""
","""event"",""trial"",""time""
""fullscreenenter"",""0"",""3066""
","
",14478.300000017043,<img style='border: 4px solid darkgrey;' src='img/tf1_11_M_ss1.jpeg'></img>,1,NA,exp,NA,3,<img src='img/tf1_11_T1_ss1_md.jpeg'></img>,0,FALSE,NA,sub111
NA,html-keyboard-response,35,109524,0.0-10.0-0.11,"""event"",""trial"",""time""
""focus"",""0"",""1479""
""fullscreenenter"",""0"",""3066""
""blur"",""34"",""95750""
""focus"",""34"",""98973""
","""event"",""trial"",""time""
""blur"",""34"",""95750""
","""event"",""trial"",""time""
""focus"",""0"",""1479""
""focus"",""34"",""98973""
","""event"",""trial"",""time""
""fullscreenenter"",""0"",""3066""
","
",null,"<div style=""font-size:60px;"">+</div>",NA,null,fixation,2020-06-20T19:46:55Z,NA,NA,NA,NA,NA,sub111
NA,mars-trial,36,123157,0.0-10.0-1.11,"""event"",""trial"",""time""
""focus"",""0"",""1479""
""fullscreenenter"",""0"",""3066""
""blur"",""34"",""95750""
""focus"",""34"",""98973""
","""event"",""trial"",""time""
""blur"",""34"",""95750""
","""event"",""trial"",""time""
""focus"",""0"",""1479""
""focus"",""34"",""98973""
","""event"",""trial"",""time""
""fullscreenenter"",""0"",""3066""
","
",13021.070000017062,<img style='border: 4px solid darkgrey;' src='img/tf1_12_M_ss2.jpeg'></img>,0,NA,exp,NA,1,<img src='img/tf1_12_T1_ss2_md.jpeg'></img>,0,FALSE,NA,sub111
NA,html-keyboard-response,37,123660,0.0-10.0-0.12,"""event"",""trial"",""time""
""focus"",""0"",""1479""
""fullscreenenter"",""0"",""3066""
""blur"",""34"",""95750""
""focus"",""34"",""98973""
","""event"",""trial"",""time""
""blur"",""34"",""95750""
","""event"",""trial"",""time""
""focus"",""0"",""1479""
""focus"",""34"",""98973""
","""event"",""trial"",""time""
""fullscreenenter"",""0"",""3066""
","
",null,"<div style=""font-size:60px;"">+</div>",NA,null,fixation,2020-06-20T19:47:09Z,NA,NA,NA,NA,NA,sub111
NA,mars-trial,38,135694,0.0-10.0-1.12,"""event"",""trial"",""time""
""focus"",""0"",""1479""
""fullscreenenter"",""0"",""3066""
""blur"",""34"",""95750""
""focus"",""34"",""98973""
","""event"",""trial"",""time""
""blur"",""34"",""95750""
","""event"",""trial"",""time""
""focus"",""0"",""1479""
""focus"",""34"",""98973""
","""event"",""trial"",""time""
""fullscreenenter"",""0"",""3066""
","
",11422.320000012405,<img style='border: 4px solid darkgrey;' src='img/tf1_13_M_ss3.jpeg'></img>,2,NA,exp,NA,2,<img src='img/tf1_13_T1_ss3_md.jpeg'></img>,0,FALSE,NA,sub111
NA,html-keyboard-response,39,136200,0.0-10.0-0.13,"""event"",""trial"",""time""
""focus"",""0"",""1479""
""fullscreenenter"",""0"",""3066""
""blur"",""34"",""95750""
""focus"",""34"",""98973""
","""event"",""trial"",""time""
""blur"",""34"",""95750""
","""event"",""trial"",""time""
""focus"",""0"",""1479""
""focus"",""34"",""98973""
","""event"",""trial"",""time""
""fullscreenenter"",""0"",""3066""
","
",null,"<div style=""font-size:60px;"">+</div>",NA,null,fixation,2020-06-20T19:47:22Z,NA,NA,NA,NA,NA,sub111
NA,mars-trial,40,149952,0.0-10.0-1.13,"""event"",""trial"",""time""
""focus"",""0"",""1479""
""fullscreenenter"",""0"",""3066""
""blur"",""34"",""95750""
""focus"",""34"",""98973""
","""event"",""trial"",""time""
""blur"",""34"",""95750""
","""event"",""trial"",""time""
""focus"",""0"",""1479""
""focus"",""34"",""98973""
","""event"",""trial"",""time""
""fullscreenenter"",""0"",""3066""
","
",13139.165000000503,<img style='border: 4px solid darkgrey;' src='img/tf1_14_M_ss1.jpeg'></img>,2,NA,exp,NA,0,<img src='img/tf1_14_T1_ss1_md.jpeg'></img>,0,TRUE,NA,sub111
NA,html-keyboard-response,41,150455,0.0-10.0-0.14,"""event"",""trial"",""time""
""focus"",""0"",""1479""
""fullscreenenter"",""0"",""3066""
""blur"",""34"",""95750""
""focus"",""34"",""98973""
","""event"",""trial"",""time""
""blur"",""34"",""95750""
","""event"",""trial"",""time""
""focus"",""0"",""1479""
""focus"",""34"",""98973""
","""event"",""trial"",""time""
""fullscreenenter"",""0"",""3066""
","
",null,"<div style=""font-size:60px;"">+</div>",NA,null,fixation,2020-06-20T19:47:36Z,NA,NA,NA,NA,NA,sub111
NA,mars-trial,42,167530,0.0-10.0-1.14,"""event"",""trial"",""time""
""focus"",""0"",""1479""
""fullscreenenter"",""0"",""3066""
""blur"",""34"",""95750""
""focus"",""34"",""98973""
","""event"",""trial"",""time""
""blur"",""34"",""95750""
","""event"",""trial"",""time""
""focus"",""0"",""1479""
""focus"",""34"",""98973""
","""event"",""trial"",""time""
""fullscreenenter"",""0"",""3066""
","
",16462.924999999814,<img style='border: 4px solid darkgrey;' src='img/tf1_15_M_ss2.jpeg'></img>,0,NA,exp,NA,3,<img src='img/tf1_15_T1_ss2_md.jpeg'></img>,0,FALSE,NA,sub111
NA,html-keyboard-response,43,168033,0.0-10.0-0.15,"""event"",""trial"",""time""
""focus"",""0"",""1479""
""fullscreenenter"",""0"",""3066""
""blur"",""34"",""95750""
""focus"",""34"",""98973""
","""event"",""trial"",""time""
""blur"",""34"",""95750""
","""event"",""trial"",""time""
""focus"",""0"",""1479""
""focus"",""34"",""98973""
","""event"",""trial"",""time""
""fullscreenenter"",""0"",""3066""
","
",null,"<div style=""font-size:60px;"">+</div>",NA,null,fixation,2020-06-20T19:47:54Z,NA,NA,NA,NA,NA,sub111
NA,mars-trial,44,178162,0.0-10.0-1.15,"""event"",""trial"",""time""
""focus"",""0"",""1479""
""fullscreenenter"",""0"",""3066""
""blur"",""34"",""95750""
""focus"",""34"",""98973""
","""event"",""trial"",""time""
""blur"",""34"",""95750""
","""event"",""trial"",""time""
""focus"",""0"",""1479""
""focus"",""34"",""98973""
","""event"",""trial"",""time""
""fullscreenenter"",""0"",""3066""
","
",9520.264999999199,<img style='border: 4px solid darkgrey;' src='img/tf1_16_M_ss3.jpeg'></img>,2,NA,exp,NA,3,<img src='img/tf1_16_T1_ss3_md.jpeg'></img>,0,FALSE,NA,sub111
NA,html-keyboard-response,45,178669,0.0-10.0-0.16,"""event"",""trial"",""time""
""focus"",""0"",""1479""
""fullscreenenter"",""0"",""3066""
""blur"",""34"",""95750""
""focus"",""34"",""98973""
","""event"",""trial"",""time""
""blur"",""34"",""95750""
","""event"",""trial"",""time""
""focus"",""0"",""1479""
""focus"",""34"",""98973""
","""event"",""trial"",""time""
""fullscreenenter"",""0"",""3066""
","
",null,"<div style=""font-size:60px;"">+</div>",NA,null,fixation,2020-06-20T19:48:04Z,NA,NA,NA,NA,NA,sub111
NA,mars-trial,46,195508,0.0-10.0-1.16,"""event"",""trial"",""time""
""focus"",""0"",""1479""
""fullscreenenter"",""0"",""3066""
""blur"",""34"",""95750""
""focus"",""34"",""98973""
","""event"",""trial"",""time""
""blur"",""34"",""95750""
","""event"",""trial"",""time""
""focus"",""0"",""1479""
""focus"",""34"",""98973""
","""event"",""trial"",""time""
""fullscreenenter"",""0"",""3066""
","
",16223.695000022417,<img style='border: 4px solid darkgrey;' src='img/tf1_17_M_ss1.jpeg'></img>,2,NA,exp,NA,3,<img src='img/tf1_17_T1_ss1_md.jpeg'></img>,0,FALSE,NA,sub111
NA,html-keyboard-response,47,196015,0.0-10.0-0.17,"""event"",""trial"",""time""
""focus"",""0"",""1479""
""fullscreenenter"",""0"",""3066""
""blur"",""34"",""95750""
""focus"",""34"",""98973""
","""event"",""trial"",""time""
""blur"",""34"",""95750""
","""event"",""trial"",""time""
""focus"",""0"",""1479""
""focus"",""34"",""98973""
","""event"",""trial"",""time""
""fullscreenenter"",""0"",""3066""
","
",null,"<div style=""font-size:60px;"">+</div>",NA,null,fixation,2020-06-20T19:48:22Z,NA,NA,NA,NA,NA,sub111
NA,mars-trial,48,199767,0.0-10.0-1.17,"""event"",""trial"",""time""
""focus"",""0"",""1479""
""fullscreenenter"",""0"",""3066""
""blur"",""34"",""95750""
""focus"",""34"",""98973""
","""event"",""trial"",""time""
""blur"",""34"",""95750""
","""event"",""trial"",""time""
""focus"",""0"",""1479""
""focus"",""34"",""98973""
","""event"",""trial"",""time""
""fullscreenenter"",""0"",""3066""
","
",3136.980000010226,<img style='border: 4px solid darkgrey;' src='img/tf1_18_M_ss2.jpeg'></img>,3,NA,exp,NA,1,<img src='img/tf1_18_T1_ss2_md.jpeg'></img>,0,FALSE,NA,sub111
NA,html-keyboard-response,49,200274,0.0-10.0-0.18,"""event"",""trial"",""time""
""focus"",""0"",""1479""
""fullscreenenter"",""0"",""3066""
""blur"",""34"",""95750""
""focus"",""34"",""98973""
","""event"",""trial"",""time""
""blur"",""34"",""95750""
","""event"",""trial"",""time""
""focus"",""0"",""1479""
""focus"",""34"",""98973""
","""event"",""trial"",""time""
""fullscreenenter"",""0"",""3066""
","
",null,"<div style=""font-size:60px;"">+</div>",NA,null,fixation,2020-06-20T19:48:26Z,NA,NA,NA,NA,NA,sub111
NA,mars-trial,50,208105,0.0-10.0-1.18,"""event"",""trial"",""time""
""focus"",""0"",""1479""
""fullscreenenter"",""0"",""3066""
""blur"",""34"",""95750""
""focus"",""34"",""98973""
","""event"",""trial"",""time""
""blur"",""34"",""95750""
","""event"",""trial"",""time""
""focus"",""0"",""1479""
""focus"",""34"",""98973""
","""event"",""trial"",""time""
""fullscreenenter"",""0"",""3066""
","
",7219.565000006696,<img style='border: 4px solid darkgrey;' src='img/tf1_19_M_ss3.jpeg'></img>,3,NA,exp,NA,0,<img src='img/tf1_19_T1_ss3_md.jpeg'></img>,0,TRUE,NA,sub111
NA,html-keyboard-response,51,208608,0.0-10.0-0.19,"""event"",""trial"",""time""
""focus"",""0"",""1479""
""fullscreenenter"",""0"",""3066""
""blur"",""34"",""95750""
""focus"",""34"",""98973""
""blur"",""52"",""216374""
""focus"",""52"",""218253""
","""event"",""trial"",""time""
""blur"",""34"",""95750""
""blur"",""52"",""216374""
","""event"",""trial"",""time""
""focus"",""0"",""1479""
""focus"",""34"",""98973""
""focus"",""52"",""218253""
","""event"",""trial"",""time""
""fullscreenenter"",""0"",""3066""
","
",null,"<div style=""font-size:60px;"">+</div>",NA,null,fixation,2020-06-20T19:48:34Z,NA,NA,NA,NA,NA,sub111
NA,mars-trial,52,221324,0.0-10.0-1.19,"""event"",""trial"",""time""
""focus"",""0"",""1479""
""fullscreenenter"",""0"",""3066""
""blur"",""34"",""95750""
""focus"",""34"",""98973""
""blur"",""52"",""216374""
""focus"",""52"",""218253""
","""event"",""trial"",""time""
""blur"",""34"",""95750""
""blur"",""52"",""216374""
","""event"",""trial"",""time""
""focus"",""0"",""1479""
""focus"",""34"",""98973""
""focus"",""52"",""218253""
","""event"",""trial"",""time""
""fullscreenenter"",""0"",""3066""
","
",12107.099999993807,<img style='border: 4px solid darkgrey;' src='img/tf1_20_M_ss1.jpeg'></img>,2,NA,exp,NA,1,<img src='img/tf1_20_T1_ss1_md.jpeg'></img>,0,FALSE,NA,sub111
NA,html-keyboard-response,53,221830,0.0-10.0-0.20,"""event"",""trial"",""time""
""focus"",""0"",""1479""
""fullscreenenter"",""0"",""3066""
""blur"",""34"",""95750""
""focus"",""34"",""98973""
""blur"",""52"",""216374""
""focus"",""52"",""218253""
","""event"",""trial"",""time""
""blur"",""34"",""95750""
""blur"",""52"",""216374""
","""event"",""trial"",""time""
""focus"",""0"",""1479""
""focus"",""34"",""98973""
""focus"",""52"",""218253""
","""event"",""trial"",""time""
""fullscreenenter"",""0"",""3066""
","
",null,"<div style=""font-size:60px;"">+</div>",NA,null,fixation,2020-06-20T19:48:48Z,NA,NA,NA,NA,NA,sub111
NA,mars-trial,54,231477,0.0-10.0-1.20,"""event"",""trial"",""time""
""focus"",""0"",""1479""
""fullscreenenter"",""0"",""3066""
""blur"",""34"",""95750""
""focus"",""34"",""98973""
""blur"",""52"",""216374""
""focus"",""52"",""218253""
","""event"",""trial"",""time""
""blur"",""34"",""95750""
""blur"",""52"",""216374""
","""event"",""trial"",""time""
""focus"",""0"",""1479""
""focus"",""34"",""98973""
""focus"",""52"",""218253""
","""event"",""trial"",""time""
""fullscreenenter"",""0"",""3066""
","
",9035.919999994803,<img style='border: 4px solid darkgrey;' src='img/tf1_21_M_ss2.jpeg'></img>,1,NA,exp,NA,1,<img src='img/tf1_21_T1_ss2_md.jpeg'></img>,0,FALSE,NA,sub111
NA,html-keyboard-response,55,231986,0.0-10.0-0.21,"""event"",""trial"",""time""
""focus"",""0"",""1479""
""fullscreenenter"",""0"",""3066""
""blur"",""34"",""95750""
""focus"",""34"",""98973""
""blur"",""52"",""216374""
""focus"",""52"",""218253""
","""event"",""trial"",""time""
""blur"",""34"",""95750""
""blur"",""52"",""216374""
","""event"",""trial"",""time""
""focus"",""0"",""1479""
""focus"",""34"",""98973""
""focus"",""52"",""218253""
","""event"",""trial"",""time""
""fullscreenenter"",""0"",""3066""
","
",null,"<div style=""font-size:60px;"">+</div>",NA,null,fixation,2020-06-20T19:48:58Z,NA,NA,NA,NA,NA,sub111
NA,mars-trial,56,249985,0.0-10.0-1.21,"""event"",""trial"",""time""
""focus"",""0"",""1479""
""fullscreenenter"",""0"",""3066""
""blur"",""34"",""95750""
""focus"",""34"",""98973""
""blur"",""52"",""216374""
""focus"",""52"",""218253""
","""event"",""trial"",""time""
""blur"",""34"",""95750""
""blur"",""52"",""216374""
","""event"",""trial"",""time""
""focus"",""0"",""1479""
""focus"",""34"",""98973""
""focus"",""52"",""218253""
","""event"",""trial"",""time""
""fullscreenenter"",""0"",""3066""
","
",17382.87999999011,<img style='border: 4px solid darkgrey;' src='img/tf1_22_M_ss3.jpeg'></img>,0,NA,exp,NA,0,<img src='img/tf1_22_T1_ss3_md.jpeg'></img>,0,TRUE,NA,sub111
NA,html-keyboard-response,57,250492,0.0-10.0-0.22,"""event"",""trial"",""time""
""focus"",""0"",""1479""
""fullscreenenter"",""0"",""3066""
""blur"",""34"",""95750""
""focus"",""34"",""98973""
""blur"",""52"",""216374""
""focus"",""52"",""218253""
","""event"",""trial"",""time""
""blur"",""34"",""95750""
""blur"",""52"",""216374""
","""event"",""trial"",""time""
""focus"",""0"",""1479""
""focus"",""34"",""98973""
""focus"",""52"",""218253""
","""event"",""trial"",""time""
""fullscreenenter"",""0"",""3066""
","
",null,"<div style=""font-size:60px;"">+</div>",NA,null,fixation,2020-06-20T19:49:16Z,NA,NA,NA,NA,NA,sub111
NA,mars-trial,58,257972,0.0-10.0-1.22,"""event"",""trial"",""time""
""focus"",""0"",""1479""
""fullscreenenter"",""0"",""3066""
""blur"",""34"",""95750""
""focus"",""34"",""98973""
""blur"",""52"",""216374""
""focus"",""52"",""218253""
","""event"",""trial"",""time""
""blur"",""34"",""95750""
""blur"",""52"",""216374""
","""event"",""trial"",""time""
""focus"",""0"",""1479""
""focus"",""34"",""98973""
""focus"",""52"",""218253""
","""event"",""trial"",""time""
""fullscreenenter"",""0"",""3066""
","
",6869.04499999946,<img style='border: 4px solid darkgrey;' src='img/tf1_23_M_ss1.jpeg'></img>,2,NA,exp,NA,2,<img src='img/tf1_23_T1_ss1_md.jpeg'></img>,0,FALSE,NA,sub111
NA,html-keyboard-response,59,258479,0.0-10.0-0.23,"""event"",""trial"",""time""
""focus"",""0"",""1479""
""fullscreenenter"",""0"",""3066""
""blur"",""34"",""95750""
""focus"",""34"",""98973""
""blur"",""52"",""216374""
""focus"",""52"",""218253""
","""event"",""trial"",""time""
""blur"",""34"",""95750""
""blur"",""52"",""216374""
","""event"",""trial"",""time""
""focus"",""0"",""1479""
""focus"",""34"",""98973""
""focus"",""52"",""218253""
","""event"",""trial"",""time""
""fullscreenenter"",""0"",""3066""
","
",null,"<div style=""font-size:60px;"">+</div>",NA,null,fixation,2020-06-20T19:49:24Z,NA,NA,NA,NA,NA,sub111
NA,mars-trial,60,268097,0.0-10.0-1.23,"""event"",""trial"",""time""
""focus"",""0"",""1479""
""fullscreenenter"",""0"",""3066""
""blur"",""34"",""95750""
""focus"",""34"",""98973""
""blur"",""52"",""216374""
""focus"",""52"",""218253""
","""event"",""trial"",""time""
""blur"",""34"",""95750""
""blur"",""52"",""216374""
","""event"",""trial"",""time""
""focus"",""0"",""1479""
""focus"",""34"",""98973""
""focus"",""52"",""218253""
","""event"",""trial"",""time""
""fullscreenenter"",""0"",""3066""
","
",9002.929999987828,<img style='border: 4px solid darkgrey;' src='img/tf1_24_M_ss2.jpeg'></img>,2,NA,exp,NA,1,<img src='img/tf1_24_T1_ss2_md.jpeg'></img>,0,FALSE,NA,sub111
NA,html-keyboard-response,61,268602,0.0-10.0-0.24,"""event"",""trial"",""time""
""focus"",""0"",""1479""
""fullscreenenter"",""0"",""3066""
""blur"",""34"",""95750""
""focus"",""34"",""98973""
""blur"",""52"",""216374""
""focus"",""52"",""218253""
","""event"",""trial"",""time""
""blur"",""34"",""95750""
""blur"",""52"",""216374""
","""event"",""trial"",""time""
""focus"",""0"",""1479""
""focus"",""34"",""98973""
""focus"",""52"",""218253""
","""event"",""trial"",""time""
""fullscreenenter"",""0"",""3066""
","
",null,"<div style=""font-size:60px;"">+</div>",NA,null,fixation,2020-06-20T19:49:34Z,NA,NA,NA,NA,NA,sub111
NA,mars-trial,62,272859,0.0-10.0-1.24,"""event"",""trial"",""time""
""focus"",""0"",""1479""
""fullscreenenter"",""0"",""3066""
""blur"",""34"",""95750""
""focus"",""34"",""98973""
""blur"",""52"",""216374""
""focus"",""52"",""218253""
","""event"",""trial"",""time""
""blur"",""34"",""95750""
""blur"",""52"",""216374""
","""event"",""trial"",""time""
""focus"",""0"",""1479""
""focus"",""34"",""98973""
""focus"",""52"",""218253""
","""event"",""trial"",""time""
""fullscreenenter"",""0"",""3066""
","
",3642.2549999842886,<img style='border: 4px solid darkgrey;' src='img/tf1_25_M_ss3.jpeg'></img>,1,NA,exp,NA,0,<img src='img/tf1_25_T1_ss3_md.jpeg'></img>,0,TRUE,NA,sub111
NA,html-keyboard-response,63,273363,0.0-10.0-0.25,"""event"",""trial"",""time""
""focus"",""0"",""1479""
""fullscreenenter"",""0"",""3066""
""blur"",""34"",""95750""
""focus"",""34"",""98973""
""blur"",""52"",""216374""
""focus"",""52"",""218253""
","""event"",""trial"",""time""
""blur"",""34"",""95750""
""blur"",""52"",""216374""
","""event"",""trial"",""time""
""focus"",""0"",""1479""
""focus"",""34"",""98973""
""focus"",""52"",""218253""
","""event"",""trial"",""time""
""fullscreenenter"",""0"",""3066""
","
",null,"<div style=""font-size:60px;"">+</div>",NA,null,fixation,2020-06-20T19:49:39Z,NA,NA,NA,NA,NA,sub111
NA,mars-trial,64,282415,0.0-10.0-1.25,"""event"",""trial"",""time""
""focus"",""0"",""1479""
""fullscreenenter"",""0"",""3066""
""blur"",""34"",""95750""
""focus"",""34"",""98973""
""blur"",""52"",""216374""
""focus"",""52"",""218253""
","""event"",""trial"",""time""
""blur"",""34"",""95750""
""blur"",""52"",""216374""
","""event"",""trial"",""time""
""focus"",""0"",""1479""
""focus"",""34"",""98973""
""focus"",""52"",""218253""
","""event"",""trial"",""time""
""fullscreenenter"",""0"",""3066""
","
",8442.660000000615,<img style='border: 4px solid darkgrey;' src='img/tf1_26_M_ss1.jpeg'></img>,1,NA,exp,NA,2,<img src='img/tf1_26_T1_ss1_md.jpeg'></img>,0,FALSE,NA,sub111
NA,html-keyboard-response,65,282917,0.0-10.0-0.26,"""event"",""trial"",""time""
""focus"",""0"",""1479""
""fullscreenenter"",""0"",""3066""
""blur"",""34"",""95750""
""focus"",""34"",""98973""
""blur"",""52"",""216374""
""focus"",""52"",""218253""
","""event"",""trial"",""time""
""blur"",""34"",""95750""
""blur"",""52"",""216374""
","""event"",""trial"",""time""
""focus"",""0"",""1479""
""focus"",""34"",""98973""
""focus"",""52"",""218253""
","""event"",""trial"",""time""
""fullscreenenter"",""0"",""3066""
","
",null,"<div style=""font-size:60px;"">+</div>",NA,null,fixation,2020-06-20T19:49:49Z,NA,NA,NA,NA,NA,sub111
NA,mars-trial,66,289255,0.0-10.0-1.26,"""event"",""trial"",""time""
""focus"",""0"",""1479""
""fullscreenenter"",""0"",""3066""
""blur"",""34"",""95750""
""focus"",""34"",""98973""
""blur"",""52"",""216374""
""focus"",""52"",""218253""
","""event"",""trial"",""time""
""blur"",""34"",""95750""
""blur"",""52"",""216374""
","""event"",""trial"",""time""
""focus"",""0"",""1479""
""focus"",""34"",""98973""
""focus"",""52"",""218253""
","""event"",""trial"",""time""
""fullscreenenter"",""0"",""3066""
","
",5727.47499999241,<img style='border: 4px solid darkgrey;' src='img/tf1_27_M_ss2.jpeg'></img>,0,NA,exp,NA,0,<img src='img/tf1_27_T1_ss2_md.jpeg'></img>,0,TRUE,NA,sub111
NA,html-keyboard-response,67,289761,0.0-10.0-0.27,"""event"",""trial"",""time""
""focus"",""0"",""1479""
""fullscreenenter"",""0"",""3066""
""blur"",""34"",""95750""
""focus"",""34"",""98973""
""blur"",""52"",""216374""
""focus"",""52"",""218253""
","""event"",""trial"",""time""
""blur"",""34"",""95750""
""blur"",""52"",""216374""
","""event"",""trial"",""time""
""focus"",""0"",""1479""
""focus"",""34"",""98973""
""focus"",""52"",""218253""
","""event"",""trial"",""time""
""fullscreenenter"",""0"",""3066""
","
",null,"<div style=""font-size:60px;"">+</div>",NA,null,fixation,2020-06-20T19:49:56Z,NA,NA,NA,NA,NA,sub111
NA,mars-trial,68,296943,0.0-10.0-1.27,"""event"",""trial"",""time""
""focus"",""0"",""1479""
""fullscreenenter"",""0"",""3066""
""blur"",""34"",""95750""
""focus"",""34"",""98973""
""blur"",""52"",""216374""
""focus"",""52"",""218253""
","""event"",""trial"",""time""
""blur"",""34"",""95750""
""blur"",""52"",""216374""
","""event"",""trial"",""time""
""focus"",""0"",""1479""
""focus"",""34"",""98973""
""focus"",""52"",""218253""
","""event"",""trial"",""time""
""fullscreenenter"",""0"",""3066""
","
",6573.100000008708,<img style='border: 4px solid darkgrey;' src='img/tf1_28_M_ss3.jpeg'></img>,3,NA,exp,NA,0,<img src='img/tf1_28_T1_ss3_md.jpeg'></img>,0,TRUE,NA,sub111
NA,html-keyboard-response,69,297444,0.0-10.0-0.28,"""event"",""trial"",""time""
""focus"",""0"",""1479""
""fullscreenenter"",""0"",""3066""
""blur"",""34"",""95750""
""focus"",""34"",""98973""
""blur"",""52"",""216374""
""focus"",""52"",""218253""
","""event"",""trial"",""time""
""blur"",""34"",""95750""
""blur"",""52"",""216374""
","""event"",""trial"",""time""
""focus"",""0"",""1479""
""focus"",""34"",""98973""
""focus"",""52"",""218253""
","""event"",""trial"",""time""
""fullscreenenter"",""0"",""3066""
","
",null,"<div style=""font-size:60px;"">+</div>",NA,null,fixation,2020-06-20T19:50:03Z,NA,NA,NA,NA,NA,sub111
NA,mars-trial,70,307729,0.0-10.0-1.28,"""event"",""trial"",""time""
""focus"",""0"",""1479""
""fullscreenenter"",""0"",""3066""
""blur"",""34"",""95750""
""focus"",""34"",""98973""
""blur"",""52"",""216374""
""focus"",""52"",""218253""
","""event"",""trial"",""time""
""blur"",""34"",""95750""
""blur"",""52"",""216374""
","""event"",""trial"",""time""
""focus"",""0"",""1479""
""focus"",""34"",""98973""
""focus"",""52"",""218253""
","""event"",""trial"",""time""
""fullscreenenter"",""0"",""3066""
","
",9668.475000013132,<img style='border: 4px solid darkgrey;' src='img/tf1_29_M_ss1.jpeg'></img>,2,NA,exp,NA,0,<img src='img/tf1_29_T1_ss1_md.jpeg'></img>,0,TRUE,NA,sub111
NA,html-keyboard-response,71,308234,0.0-10.0-0.29,"""event"",""trial"",""time""
""focus"",""0"",""1479""
""fullscreenenter"",""0"",""3066""
""blur"",""34"",""95750""
""focus"",""34"",""98973""
""blur"",""52"",""216374""
""focus"",""52"",""218253""
","""event"",""trial"",""time""
""blur"",""34"",""95750""
""blur"",""52"",""216374""
","""event"",""trial"",""time""
""focus"",""0"",""1479""
""focus"",""34"",""98973""
""focus"",""52"",""218253""
","""event"",""trial"",""time""
""fullscreenenter"",""0"",""3066""
","
",null,"<div style=""font-size:60px;"">+</div>",NA,null,fixation,2020-06-20T19:50:14Z,NA,NA,NA,NA,NA,sub111
NA,mars-trial,72,315436,0.0-10.0-1.29,"""event"",""trial"",""time""
""focus"",""0"",""1479""
""fullscreenenter"",""0"",""3066""
""blur"",""34"",""95750""
""focus"",""34"",""98973""
""blur"",""52"",""216374""
""focus"",""52"",""218253""
","""event"",""trial"",""time""
""blur"",""34"",""95750""
""blur"",""52"",""216374""
","""event"",""trial"",""time""
""focus"",""0"",""1479""
""focus"",""34"",""98973""
""focus"",""52"",""218253""
","""event"",""trial"",""time""
""fullscreenenter"",""0"",""3066""
","
",6586.550000007264,<img style='border: 4px solid darkgrey;' src='img/tf1_30_M_ss2.jpeg'></img>,0,NA,exp,NA,0,<img src='img/tf1_30_T1_ss2_md.jpeg'></img>,0,TRUE,NA,sub111
NA,html-keyboard-response,73,315943,0.0-10.0-0.30,"""event"",""trial"",""time""
""focus"",""0"",""1479""
""fullscreenenter"",""0"",""3066""
""blur"",""34"",""95750""
""focus"",""34"",""98973""
""blur"",""52"",""216374""
""focus"",""52"",""218253""
","""event"",""trial"",""time""
""blur"",""34"",""95750""
""blur"",""52"",""216374""
","""event"",""trial"",""time""
""focus"",""0"",""1479""
""focus"",""34"",""98973""
""focus"",""52"",""218253""
","""event"",""trial"",""time""
""fullscreenenter"",""0"",""3066""
","
",null,"<div style=""font-size:60px;"">+</div>",NA,null,fixation,2020-06-20T19:50:22Z,NA,NA,NA,NA,NA,sub111
NA,mars-trial,74,319418,0.0-10.0-1.30,"""event"",""trial"",""time""
""focus"",""0"",""1479""
""fullscreenenter"",""0"",""3066""
""blur"",""34"",""95750""
""focus"",""34"",""98973""
""blur"",""52"",""216374""
""focus"",""52"",""218253""
","""event"",""trial"",""time""
""blur"",""34"",""95750""
""blur"",""52"",""216374""
","""event"",""trial"",""time""
""focus"",""0"",""1479""
""focus"",""34"",""98973""
""focus"",""52"",""218253""
","""event"",""trial"",""time""
""fullscreenenter"",""0"",""3066""
","
",2859.3999999866355,<img style='border: 4px solid darkgrey;' src='img/tf1_31_M_ss3.jpeg'></img>,1,NA,exp,NA,0,<img src='img/tf1_31_T1_ss3_md.jpeg'></img>,0,TRUE,NA,sub111
NA,html-keyboard-response,75,319925,0.0-10.0-0.31,"""event"",""trial"",""time""
""focus"",""0"",""1479""
""fullscreenenter"",""0"",""3066""
""blur"",""34"",""95750""
""focus"",""34"",""98973""
""blur"",""52"",""216374""
""focus"",""52"",""218253""
","""event"",""trial"",""time""
""blur"",""34"",""95750""
""blur"",""52"",""216374""
","""event"",""trial"",""time""
""focus"",""0"",""1479""
""focus"",""34"",""98973""
""focus"",""52"",""218253""
","""event"",""trial"",""time""
""fullscreenenter"",""0"",""3066""
","
",null,"<div style=""font-size:60px;"">+</div>",NA,null,fixation,2020-06-20T19:50:26Z,NA,NA,NA,NA,NA,sub111
NA,mars-trial,76,326103,0.0-10.0-1.31,"""event"",""trial"",""time""
""focus"",""0"",""1479""
""fullscreenenter"",""0"",""3066""
""blur"",""34"",""95750""
""focus"",""34"",""98973""
""blur"",""52"",""216374""
""focus"",""52"",""218253""
","""event"",""trial"",""time""
""blur"",""34"",""95750""
""blur"",""52"",""216374""
","""event"",""trial"",""time""
""focus"",""0"",""1479""
""focus"",""34"",""98973""
""focus"",""52"",""218253""
","""event"",""trial"",""time""
""fullscreenenter"",""0"",""3066""
","
",5564.0650000132155,<img style='border: 4px solid darkgrey;' src='img/tf1_32_M_ss1.jpeg'></img>,2,NA,exp,NA,1,<img src='img/tf1_32_T1_ss1_md.jpeg'></img>,0,FALSE,NA,sub111
NA,html-keyboard-response,77,326610,0.0-10.0-0.32,"""event"",""trial"",""time""
""focus"",""0"",""1479""
""fullscreenenter"",""0"",""3066""
""blur"",""34"",""95750""
""focus"",""34"",""98973""
""blur"",""52"",""216374""
""focus"",""52"",""218253""
","""event"",""trial"",""time""
""blur"",""34"",""95750""
""blur"",""52"",""216374""
","""event"",""trial"",""time""
""focus"",""0"",""1479""
""focus"",""34"",""98973""
""focus"",""52"",""218253""
","""event"",""trial"",""time""
""fullscreenenter"",""0"",""3066""
","
",null,"<div style=""font-size:60px;"">+</div>",NA,null,fixation,2020-06-20T19:50:32Z,NA,NA,NA,NA,NA,sub111
NA,mars-trial,78,334792,0.0-10.0-1.32,"""event"",""trial"",""time""
""focus"",""0"",""1479""
""fullscreenenter"",""0"",""3066""
""blur"",""34"",""95750""
""focus"",""34"",""98973""
""blur"",""52"",""216374""
""focus"",""52"",""218253""
","""event"",""trial"",""time""
""blur"",""34"",""95750""
""blur"",""52"",""216374""
","""event"",""trial"",""time""
""focus"",""0"",""1479""
""focus"",""34"",""98973""
""focus"",""52"",""218253""
","""event"",""trial"",""time""
""fullscreenenter"",""0"",""3066""
","
",7571.284999983618,<img style='border: 4px solid darkgrey;' src='img/tf1_33_M_ss2.jpeg'></img>,0,NA,exp,NA,0,<img src='img/tf1_33_T1_ss2_md.jpeg'></img>,0,TRUE,NA,sub111
NA,html-keyboard-response,79,335297,0.0-10.0-0.33,"""event"",""trial"",""time""
""focus"",""0"",""1479""
""fullscreenenter"",""0"",""3066""
""blur"",""34"",""95750""
""focus"",""34"",""98973""
""blur"",""52"",""216374""
""focus"",""52"",""218253""
","""event"",""trial"",""time""
""blur"",""34"",""95750""
""blur"",""52"",""216374""
","""event"",""trial"",""time""
""focus"",""0"",""1479""
""focus"",""34"",""98973""
""focus"",""52"",""218253""
","""event"",""trial"",""time""
""fullscreenenter"",""0"",""3066""
","
",null,"<div style=""font-size:60px;"">+</div>",NA,null,fixation,2020-06-20T19:50:41Z,NA,NA,NA,NA,NA,sub111
NA,mars-trial,80,347916,0.0-10.0-1.33,"""event"",""trial"",""time""
""focus"",""0"",""1479""
""fullscreenenter"",""0"",""3066""
""blur"",""34"",""95750""
""focus"",""34"",""98973""
""blur"",""52"",""216374""
""focus"",""52"",""218253""
","""event"",""trial"",""time""
""blur"",""34"",""95750""
""blur"",""52"",""216374""
","""event"",""trial"",""time""
""focus"",""0"",""1479""
""focus"",""34"",""98973""
""focus"",""52"",""218253""
","""event"",""trial"",""time""
""fullscreenenter"",""0"",""3066""
","
",12003.885000012815,<img style='border: 4px solid darkgrey;' src='img/tf1_34_M_ss3.jpeg'></img>,2,NA,exp,NA,0,<img src='img/tf1_34_T1_ss3_md.jpeg'></img>,0,TRUE,NA,sub111
NA,html-keyboard-response,81,348422,0.0-10.0-0.34,"""event"",""trial"",""time""
""focus"",""0"",""1479""
""fullscreenenter"",""0"",""3066""
""blur"",""34"",""95750""
""focus"",""34"",""98973""
""blur"",""52"",""216374""
""focus"",""52"",""218253""
","""event"",""trial"",""time""
""blur"",""34"",""95750""
""blur"",""52"",""216374""
","""event"",""trial"",""time""
""focus"",""0"",""1479""
""focus"",""34"",""98973""
""focus"",""52"",""218253""
","""event"",""trial"",""time""
""fullscreenenter"",""0"",""3066""
","
",null,"<div style=""font-size:60px;"">+</div>",NA,null,fixation,2020-06-20T19:50:54Z,NA,NA,NA,NA,NA,sub111
NA,mars-trial,82,354600,0.0-10.0-1.34,"""event"",""trial"",""time""
""focus"",""0"",""1479""
""fullscreenenter"",""0"",""3066""
""blur"",""34"",""95750""
""focus"",""34"",""98973""
""blur"",""52"",""216374""
""focus"",""52"",""218253""
","""event"",""trial"",""time""
""blur"",""34"",""95750""
""blur"",""52"",""216374""
","""event"",""trial"",""time""
""focus"",""0"",""1479""
""focus"",""34"",""98973""
""focus"",""52"",""218253""
","""event"",""trial"",""time""
""fullscreenenter"",""0"",""3066""
","
",5566.995000001043,<img style='border: 4px solid darkgrey;' src='img/tf1_35_M_ss1.jpeg'></img>,0,NA,exp,NA,3,<img src='img/tf1_35_T1_ss1_md.jpeg'></img>,0,FALSE,NA,sub111
NA,html-keyboard-response,83,355104,0.0-10.0-0.35,"""event"",""trial"",""time""
""focus"",""0"",""1479""
""fullscreenenter"",""0"",""3066""
""blur"",""34"",""95750""
""focus"",""34"",""98973""
""blur"",""52"",""216374""
""focus"",""52"",""218253""
","""event"",""trial"",""time""
""blur"",""34"",""95750""
""blur"",""52"",""216374""
","""event"",""trial"",""time""
""focus"",""0"",""1479""
""focus"",""34"",""98973""
""focus"",""52"",""218253""
","""event"",""trial"",""time""
""fullscreenenter"",""0"",""3066""
","
",null,"<div style=""font-size:60px;"">+</div>",NA,null,fixation,2020-06-20T19:51:01Z,NA,NA,NA,NA,NA,sub111
NA,mars-trial,84,365577,0.0-10.0-1.35,"""event"",""trial"",""time""
""focus"",""0"",""1479""
""fullscreenenter"",""0"",""3066""
""blur"",""34"",""95750""
""focus"",""34"",""98973""
""blur"",""52"",""216374""
""focus"",""52"",""218253""
","""event"",""trial"",""time""
""blur"",""34"",""95750""
""blur"",""52"",""216374""
","""event"",""trial"",""time""
""focus"",""0"",""1479""
""focus"",""34"",""98973""
""focus"",""52"",""218253""
","""event"",""trial"",""time""
""fullscreenenter"",""0"",""3066""
","
",9861.775000026682,<img style='border: 4px solid darkgrey;' src='img/tf1_36_M_ss2.jpeg'></img>,0,NA,exp,NA,0,<img src='img/tf1_36_T1_ss2_md.jpeg'></img>,0,TRUE,NA,sub111
NA,html-keyboard-response,85,366082,0.0-10.0-0.36,"""event"",""trial"",""time""
""focus"",""0"",""1479""
""fullscreenenter"",""0"",""3066""
""blur"",""34"",""95750""
""focus"",""34"",""98973""
""blur"",""52"",""216374""
""focus"",""52"",""218253""
","""event"",""trial"",""time""
""blur"",""34"",""95750""
""blur"",""52"",""216374""
","""event"",""trial"",""time""
""focus"",""0"",""1479""
""focus"",""34"",""98973""
""focus"",""52"",""218253""
","""event"",""trial"",""time""
""fullscreenenter"",""0"",""3066""
","
",null,"<div style=""font-size:60px;"">+</div>",NA,null,fixation,2020-06-20T19:51:12Z,NA,NA,NA,NA,NA,sub111
NA,mars-trial,86,379718,0.0-10.0-1.36,"""event"",""trial"",""time""
""focus"",""0"",""1479""
""fullscreenenter"",""0"",""3066""
""blur"",""34"",""95750""
""focus"",""34"",""98973""
""blur"",""52"",""216374""
""focus"",""52"",""218253""
","""event"",""trial"",""time""
""blur"",""34"",""95750""
""blur"",""52"",""216374""
","""event"",""trial"",""time""
""focus"",""0"",""1479""
""focus"",""34"",""98973""
""focus"",""52"",""218253""
","""event"",""trial"",""time""
""fullscreenenter"",""0"",""3066""
","
",13024.044999998296,<img style='border: 4px solid darkgrey;' src='img/tf1_37_M_ss3.jpeg'></img>,2,NA,exp,NA,0,<img src='img/tf1_37_T1_ss3_md.jpeg'></img>,0,TRUE,NA,sub111
NA,html-keyboard-response,87,380223,0.0-10.0-0.37,"""event"",""trial"",""time""
""focus"",""0"",""1479""
""fullscreenenter"",""0"",""3066""
""blur"",""34"",""95750""
""focus"",""34"",""98973""
""blur"",""52"",""216374""
""focus"",""52"",""218253""
","""event"",""trial"",""time""
""blur"",""34"",""95750""
""blur"",""52"",""216374""
","""event"",""trial"",""time""
""focus"",""0"",""1479""
""focus"",""34"",""98973""
""focus"",""52"",""218253""
","""event"",""trial"",""time""
""fullscreenenter"",""0"",""3066""
","
",null,"<div style=""font-size:60px;"">+</div>",NA,null,fixation,2020-06-20T19:51:26Z,NA,NA,NA,NA,NA,sub111
NA,mars-trial,88,389457,0.0-10.0-1.37,"""event"",""trial"",""time""
""focus"",""0"",""1479""
""fullscreenenter"",""0"",""3066""
""blur"",""34"",""95750""
""focus"",""34"",""98973""
""blur"",""52"",""216374""
""focus"",""52"",""218253""
","""event"",""trial"",""time""
""blur"",""34"",""95750""
""blur"",""52"",""216374""
","""event"",""trial"",""time""
""focus"",""0"",""1479""
""focus"",""34"",""98973""
""focus"",""52"",""218253""
","""event"",""trial"",""time""
""fullscreenenter"",""0"",""3066""
","
",8623.070000001462,<img style='border: 4px solid darkgrey;' src='img/tf1_38_M_ss1.jpeg'></img>,3,NA,exp,NA,0,<img src='img/tf1_38_T1_ss1_md.jpeg'></img>,0,TRUE,NA,sub111
NA,html-keyboard-response,89,389963,0.0-10.0-0.38,"""event"",""trial"",""time""
""focus"",""0"",""1479""
""fullscreenenter"",""0"",""3066""
""blur"",""34"",""95750""
""focus"",""34"",""98973""
""blur"",""52"",""216374""
""focus"",""52"",""218253""
","""event"",""trial"",""time""
""blur"",""34"",""95750""
""blur"",""52"",""216374""
","""event"",""trial"",""time""
""focus"",""0"",""1479""
""focus"",""34"",""98973""
""focus"",""52"",""218253""
","""event"",""trial"",""time""
""fullscreenenter"",""0"",""3066""
","
",null,"<div style=""font-size:60px;"">+</div>",NA,null,fixation,2020-06-20T19:51:36Z,NA,NA,NA,NA,NA,sub111
NA,mars-trial,90,399914,0.0-10.0-1.38,"""event"",""trial"",""time""
""focus"",""0"",""1479""
""fullscreenenter"",""0"",""3066""
""blur"",""34"",""95750""
""focus"",""34"",""98973""
""blur"",""52"",""216374""
""focus"",""52"",""218253""
","""event"",""trial"",""time""
""blur"",""34"",""95750""
""blur"",""52"",""216374""
","""event"",""trial"",""time""
""focus"",""0"",""1479""
""focus"",""34"",""98973""
""focus"",""52"",""218253""
","""event"",""trial"",""time""
""fullscreenenter"",""0"",""3066""
","
",9335.55499999784,<img style='border: 4px solid darkgrey;' src='img/tf1_39_M_ss2.jpeg'></img>,3,NA,exp,NA,0,<img src='img/tf1_39_T1_ss2_md.jpeg'></img>,0,TRUE,NA,sub111
NA,html-keyboard-response,91,400419,0.0-10.0-0.39,"""event"",""trial"",""time""
""focus"",""0"",""1479""
""fullscreenenter"",""0"",""3066""
""blur"",""34"",""95750""
""focus"",""34"",""98973""
""blur"",""52"",""216374""
""focus"",""52"",""218253""
","""event"",""trial"",""time""
""blur"",""34"",""95750""
""blur"",""52"",""216374""
","""event"",""trial"",""time""
""focus"",""0"",""1479""
""focus"",""34"",""98973""
""focus"",""52"",""218253""
","""event"",""trial"",""time""
""fullscreenenter"",""0"",""3066""
","
",null,"<div style=""font-size:60px;"">+</div>",NA,null,fixation,2020-06-20T19:51:46Z,NA,NA,NA,NA,NA,sub111
NA,mars-trial,92,410110,0.0-10.0-1.39,"""event"",""trial"",""time""
""focus"",""0"",""1479""
""fullscreenenter"",""0"",""3066""
""blur"",""34"",""95750""
""focus"",""34"",""98973""
""blur"",""52"",""216374""
""focus"",""52"",""218253""
","""event"",""trial"",""time""
""blur"",""34"",""95750""
""blur"",""52"",""216374""
","""event"",""trial"",""time""
""focus"",""0"",""1479""
""focus"",""34"",""98973""
""focus"",""52"",""218253""
","""event"",""trial"",""time""
""fullscreenenter"",""0"",""3066""
","
",9082.93999999296,<img style='border: 4px solid darkgrey;' src='img/tf1_40_M_ss3.jpeg'></img>,0,NA,exp,NA,3,<img src='img/tf1_40_T1_ss3_md.jpeg'></img>,0,FALSE,NA,sub111
NA,html-keyboard-response,93,410613,0.0-10.0-0.40,"""event"",""trial"",""time""
""focus"",""0"",""1479""
""fullscreenenter"",""0"",""3066""
""blur"",""34"",""95750""
""focus"",""34"",""98973""
""blur"",""52"",""216374""
""focus"",""52"",""218253""
","""event"",""trial"",""time""
""blur"",""34"",""95750""
""blur"",""52"",""216374""
","""event"",""trial"",""time""
""focus"",""0"",""1479""
""focus"",""34"",""98973""
""focus"",""52"",""218253""
","""event"",""trial"",""time""
""fullscreenenter"",""0"",""3066""
","
",null,"<div style=""font-size:60px;"">+</div>",NA,null,fixation,2020-06-20T19:51:56Z,NA,NA,NA,NA,NA,sub111
NA,mars-trial,94,415948,0.0-10.0-1.40,"""event"",""trial"",""time""
""focus"",""0"",""1479""
""fullscreenenter"",""0"",""3066""
""blur"",""34"",""95750""
""focus"",""34"",""98973""
""blur"",""52"",""216374""
""focus"",""52"",""218253""
","""event"",""trial"",""time""
""blur"",""34"",""95750""
""blur"",""52"",""216374""
","""event"",""trial"",""time""
""focus"",""0"",""1479""
""focus"",""34"",""98973""
""focus"",""52"",""218253""
","""event"",""trial"",""time""
""fullscreenenter"",""0"",""3066""
","
",4729.049999994459,<img style='border: 4px solid darkgrey;' src='img/tf1_41_M_ss1.jpeg'></img>,0,NA,exp,NA,0,<img src='img/tf1_41_T1_ss1_md.jpeg'></img>,0,TRUE,NA,sub111
NA,html-keyboard-response,95,416452,0.0-10.0-0.41,"""event"",""trial"",""time""
""focus"",""0"",""1479""
""fullscreenenter"",""0"",""3066""
""blur"",""34"",""95750""
""focus"",""34"",""98973""
""blur"",""52"",""216374""
""focus"",""52"",""218253""
","""event"",""trial"",""time""
""blur"",""34"",""95750""
""blur"",""52"",""216374""
","""event"",""trial"",""time""
""focus"",""0"",""1479""
""focus"",""34"",""98973""
""focus"",""52"",""218253""
","""event"",""trial"",""time""
""fullscreenenter"",""0"",""3066""
","
",null,"<div style=""font-size:60px;"">+</div>",NA,null,fixation,2020-06-20T19:52:02Z,NA,NA,NA,NA,NA,sub111
NA,mars-trial,96,425452,0.0-10.0-1.41,"""event"",""trial"",""time""
""focus"",""0"",""1479""
""fullscreenenter"",""0"",""3066""
""blur"",""34"",""95750""
""focus"",""34"",""98973""
""blur"",""52"",""216374""
""focus"",""52"",""218253""
","""event"",""trial"",""time""
""blur"",""34"",""95750""
""blur"",""52"",""216374""
","""event"",""trial"",""time""
""focus"",""0"",""1479""
""focus"",""34"",""98973""
""focus"",""52"",""218253""
","""event"",""trial"",""time""
""fullscreenenter"",""0"",""3066""
","
",8387.350000004517,<img style='border: 4px solid darkgrey;' src='img/tf1_42_M_ss2.jpeg'></img>,2,NA,exp,NA,0,<img src='img/tf1_42_T1_ss2_md.jpeg'></img>,0,TRUE,NA,sub111
NA,html-keyboard-response,97,425954,0.0-10.0-0.42,"""event"",""trial"",""time""
""focus"",""0"",""1479""
""fullscreenenter"",""0"",""3066""
""blur"",""34"",""95750""
""focus"",""34"",""98973""
""blur"",""52"",""216374""
""focus"",""52"",""218253""
","""event"",""trial"",""time""
""blur"",""34"",""95750""
""blur"",""52"",""216374""
","""event"",""trial"",""time""
""focus"",""0"",""1479""
""focus"",""34"",""98973""
""focus"",""52"",""218253""
","""event"",""trial"",""time""
""fullscreenenter"",""0"",""3066""
","
",null,"<div style=""font-size:60px;"">+</div>",NA,null,fixation,2020-06-20T19:52:12Z,NA,NA,NA,NA,NA,sub111
NA,mars-trial,98,429869,0.0-10.0-1.42,"""event"",""trial"",""time""
""focus"",""0"",""1479""
""fullscreenenter"",""0"",""3066""
""blur"",""34"",""95750""
""focus"",""34"",""98973""
""blur"",""52"",""216374""
""focus"",""52"",""218253""
","""event"",""trial"",""time""
""blur"",""34"",""95750""
""blur"",""52"",""216374""
","""event"",""trial"",""time""
""focus"",""0"",""1479""
""focus"",""34"",""98973""
""focus"",""52"",""218253""
","""event"",""trial"",""time""
""fullscreenenter"",""0"",""3066""
","
",3309.124999999767,<img style='border: 4px solid darkgrey;' src='img/tf1_43_M_ss3.jpeg'></img>,1,NA,exp,NA,2,<img src='img/tf1_43_T1_ss3_md.jpeg'></img>,0,FALSE,NA,sub111
NA,html-keyboard-response,99,430371,0.0-10.0-0.43,"""event"",""trial"",""time""
""focus"",""0"",""1479""
""fullscreenenter"",""0"",""3066""
""blur"",""34"",""95750""
""focus"",""34"",""98973""
""blur"",""52"",""216374""
""focus"",""52"",""218253""
","""event"",""trial"",""time""
""blur"",""34"",""95750""
""blur"",""52"",""216374""
","""event"",""trial"",""time""
""focus"",""0"",""1479""
""focus"",""34"",""98973""
""focus"",""52"",""218253""
","""event"",""trial"",""time""
""fullscreenenter"",""0"",""3066""
","
",null,"<div style=""font-size:60px;"">+</div>",NA,null,fixation,2020-06-20T19:52:16Z,NA,NA,NA,NA,NA,sub111
NA,mars-trial,100,437326,0.0-10.0-1.43,"""event"",""trial"",""time""
""focus"",""0"",""1479""
""fullscreenenter"",""0"",""3066""
""blur"",""34"",""95750""
""focus"",""34"",""98973""
""blur"",""52"",""216374""
""focus"",""52"",""218253""
","""event"",""trial"",""time""
""blur"",""34"",""95750""
""blur"",""52"",""216374""
","""event"",""trial"",""time""
""focus"",""0"",""1479""
""focus"",""34"",""98973""
""focus"",""52"",""218253""
","""event"",""trial"",""time""
""fullscreenenter"",""0"",""3066""
","
",6345.229999977164,<img style='border: 4px solid darkgrey;' src='img/tf1_44_M_ss1.jpeg'></img>,2,NA,exp,NA,1,<img src='img/tf1_44_T1_ss1_md.jpeg'></img>,0,FALSE,NA,sub111
NA,html-keyboard-response,101,437829,0.0-10.0-0.44,"""event"",""trial"",""time""
""focus"",""0"",""1479""
""fullscreenenter"",""0"",""3066""
""blur"",""34"",""95750""
""focus"",""34"",""98973""
""blur"",""52"",""216374""
""focus"",""52"",""218253""
","""event"",""trial"",""time""
""blur"",""34"",""95750""
""blur"",""52"",""216374""
","""event"",""trial"",""time""
""focus"",""0"",""1479""
""focus"",""34"",""98973""
""focus"",""52"",""218253""
","""event"",""trial"",""time""
""fullscreenenter"",""0"",""3066""
","
",null,"<div style=""font-size:60px;"">+</div>",NA,null,fixation,2020-06-20T19:52:24Z,NA,NA,NA,NA,NA,sub111
NA,mars-trial,102,449052,0.0-10.0-1.44,"""event"",""trial"",""time""
""focus"",""0"",""1479""
""fullscreenenter"",""0"",""3066""
""blur"",""34"",""95750""
""focus"",""34"",""98973""
""blur"",""52"",""216374""
""focus"",""52"",""218253""
","""event"",""trial"",""time""
""blur"",""34"",""95750""
""blur"",""52"",""216374""
","""event"",""trial"",""time""
""focus"",""0"",""1479""
""focus"",""34"",""98973""
""focus"",""52"",""218253""
","""event"",""trial"",""time""
""fullscreenenter"",""0"",""3066""
","
",10612.07000000286,<img style='border: 4px solid darkgrey;' src='img/tf1_45_M_ss2.jpeg'></img>,3,NA,exp,NA,3,<img src='img/tf1_45_T1_ss2_md.jpeg'></img>,0,FALSE,NA,sub111
NA,html-keyboard-response,103,449553,0.0-10.0-0.45,"""event"",""trial"",""time""
""focus"",""0"",""1479""
""fullscreenenter"",""0"",""3066""
""blur"",""34"",""95750""
""focus"",""34"",""98973""
""blur"",""52"",""216374""
""focus"",""52"",""218253""
","""event"",""trial"",""time""
""blur"",""34"",""95750""
""blur"",""52"",""216374""
","""event"",""trial"",""time""
""focus"",""0"",""1479""
""focus"",""34"",""98973""
""focus"",""52"",""218253""
","""event"",""trial"",""time""
""fullscreenenter"",""0"",""3066""
","
",null,"<div style=""font-size:60px;"">+</div>",NA,null,fixation,2020-06-20T19:52:35Z,NA,NA,NA,NA,NA,sub111
NA,mars-trial,104,461931,0.0-10.0-1.45,"""event"",""trial"",""time""
""focus"",""0"",""1479""
""fullscreenenter"",""0"",""3066""
""blur"",""34"",""95750""
""focus"",""34"",""98973""
""blur"",""52"",""216374""
""focus"",""52"",""218253""
","""event"",""trial"",""time""
""blur"",""34"",""95750""
""blur"",""52"",""216374""
","""event"",""trial"",""time""
""focus"",""0"",""1479""
""focus"",""34"",""98973""
""focus"",""52"",""218253""
","""event"",""trial"",""time""
""fullscreenenter"",""0"",""3066""
","
",11766.354999999749,<img style='border: 4px solid darkgrey;' src='img/tf1_46_M_ss3.jpeg'></img>,2,NA,exp,NA,0,<img src='img/tf1_46_T1_ss3_md.jpeg'></img>,0,TRUE,NA,sub111
NA,html-keyboard-response,105,462435,0.0-10.0-0.46,"""event"",""trial"",""time""
""focus"",""0"",""1479""
""fullscreenenter"",""0"",""3066""
""blur"",""34"",""95750""
""focus"",""34"",""98973""
""blur"",""52"",""216374""
""focus"",""52"",""218253""
","""event"",""trial"",""time""
""blur"",""34"",""95750""
""blur"",""52"",""216374""
","""event"",""trial"",""time""
""focus"",""0"",""1479""
""focus"",""34"",""98973""
""focus"",""52"",""218253""
","""event"",""trial"",""time""
""fullscreenenter"",""0"",""3066""
","
",null,"<div style=""font-size:60px;"">+</div>",NA,null,fixation,2020-06-20T19:52:48Z,NA,NA,NA,NA,NA,sub111
NA,mars-trial,106,471258,0.0-10.0-1.46,"""event"",""trial"",""time""
""focus"",""0"",""1479""
""fullscreenenter"",""0"",""3066""
""blur"",""34"",""95750""
""focus"",""34"",""98973""
""blur"",""52"",""216374""
""focus"",""52"",""218253""
","""event"",""trial"",""time""
""blur"",""34"",""95750""
""blur"",""52"",""216374""
","""event"",""trial"",""time""
""focus"",""0"",""1479""
""focus"",""34"",""98973""
""focus"",""52"",""218253""
","""event"",""trial"",""time""
""fullscreenenter"",""0"",""3066""
","
",8216.994999995222,<img style='border: 4px solid darkgrey;' src='img/tf1_47_M_ss1.jpeg'></img>,2,NA,exp,NA,1,<img src='img/tf1_47_T1_ss1_md.jpeg'></img>,0,FALSE,NA,sub111
NA,html-keyboard-response,107,471761,0.0-10.0-0.47,"""event"",""trial"",""time""
""focus"",""0"",""1479""
""fullscreenenter"",""0"",""3066""
""blur"",""34"",""95750""
""focus"",""34"",""98973""
""blur"",""52"",""216374""
""focus"",""52"",""218253""
","""event"",""trial"",""time""
""blur"",""34"",""95750""
""blur"",""52"",""216374""
","""event"",""trial"",""time""
""focus"",""0"",""1479""
""focus"",""34"",""98973""
""focus"",""52"",""218253""
","""event"",""trial"",""time""
""fullscreenenter"",""0"",""3066""
","
",null,"<div style=""font-size:60px;"">+</div>",NA,null,fixation,2020-06-20T19:52:58Z,NA,NA,NA,NA,NA,sub111
NA,mars-trial,108,481743,0.0-10.0-1.47,"""event"",""trial"",""time""
""focus"",""0"",""1479""
""fullscreenenter"",""0"",""3066""
""blur"",""34"",""95750""
""focus"",""34"",""98973""
""blur"",""52"",""216374""
""focus"",""52"",""218253""
","""event"",""trial"",""time""
""blur"",""34"",""95750""
""blur"",""52"",""216374""
","""event"",""trial"",""time""
""focus"",""0"",""1479""
""focus"",""34"",""98973""
""focus"",""52"",""218253""
","""event"",""trial"",""time""
""fullscreenenter"",""0"",""3066""
","
",9371.265000023413,<img style='border: 4px solid darkgrey;' src='img/tf1_48_M_ss2.jpeg'></img>,1,NA,exp,NA,0,<img src='img/tf1_48_T1_ss2_md.jpeg'></img>,0,TRUE,NA,sub111
NA,html-keyboard-response,109,482244,0.0-10.0-0.48,"""event"",""trial"",""time""
""focus"",""0"",""1479""
""fullscreenenter"",""0"",""3066""
""blur"",""34"",""95750""
""focus"",""34"",""98973""
""blur"",""52"",""216374""
""focus"",""52"",""218253""
","""event"",""trial"",""time""
""blur"",""34"",""95750""
""blur"",""52"",""216374""
","""event"",""trial"",""time""
""focus"",""0"",""1479""
""focus"",""34"",""98973""
""focus"",""52"",""218253""
","""event"",""trial"",""time""
""fullscreenenter"",""0"",""3066""
","
",null,"<div style=""font-size:60px;"">+</div>",NA,null,fixation,2020-06-20T19:53:08Z,NA,NA,NA,NA,NA,sub111
NA,mars-trial,110,489009,0.0-10.0-1.48,"""event"",""trial"",""time""
""focus"",""0"",""1479""
""fullscreenenter"",""0"",""3066""
""blur"",""34"",""95750""
""focus"",""34"",""98973""
""blur"",""52"",""216374""
""focus"",""52"",""218253""
","""event"",""trial"",""time""
""blur"",""34"",""95750""
""blur"",""52"",""216374""
","""event"",""trial"",""time""
""focus"",""0"",""1479""
""focus"",""34"",""98973""
""focus"",""52"",""218253""
","""event"",""trial"",""time""
""fullscreenenter"",""0"",""3066""
","
",6157.100000011269,<img style='border: 4px solid darkgrey;' src='img/tf1_49_M_ss3.jpeg'></img>,0,NA,exp,NA,0,<img src='img/tf1_49_T1_ss3_md.jpeg'></img>,0,TRUE,NA,sub111
NA,html-keyboard-response,111,489511,0.0-10.0-0.49,"""event"",""trial"",""time""
""focus"",""0"",""1479""
""fullscreenenter"",""0"",""3066""
""blur"",""34"",""95750""
""focus"",""34"",""98973""
""blur"",""52"",""216374""
""focus"",""52"",""218253""
","""event"",""trial"",""time""
""blur"",""34"",""95750""
""blur"",""52"",""216374""
","""event"",""trial"",""time""
""focus"",""0"",""1479""
""focus"",""34"",""98973""
""focus"",""52"",""218253""
","""event"",""trial"",""time""
""fullscreenenter"",""0"",""3066""
","
",null,"<div style=""font-size:60px;"">+</div>",NA,null,fixation,2020-06-20T19:53:15Z,NA,NA,NA,NA,NA,sub111
NA,mars-trial,112,495478,0.0-10.0-1.49,"""event"",""trial"",""time""
""focus"",""0"",""1479""
""fullscreenenter"",""0"",""3066""
""blur"",""34"",""95750""
""focus"",""34"",""98973""
""blur"",""52"",""216374""
""focus"",""52"",""218253""
","""event"",""trial"",""time""
""blur"",""34"",""95750""
""blur"",""52"",""216374""
","""event"",""trial"",""time""
""focus"",""0"",""1479""
""focus"",""34"",""98973""
""focus"",""52"",""218253""
","""event"",""trial"",""time""
""fullscreenenter"",""0"",""3066""
","
",5355.470000009518,<img style='border: 4px solid darkgrey;' src='img/tf1_50_M_ss1.jpeg'></img>,2,NA,exp,NA,0,<img src='img/tf1_50_T1_ss1_md.jpeg'></img>,0,TRUE,NA,sub111
NA,html-keyboard-response,113,495980,0.0-10.0-0.50,"""event"",""trial"",""time""
""focus"",""0"",""1479""
""fullscreenenter"",""0"",""3066""
""blur"",""34"",""95750""
""focus"",""34"",""98973""
""blur"",""52"",""216374""
""focus"",""52"",""218253""
","""event"",""trial"",""time""
""blur"",""34"",""95750""
""blur"",""52"",""216374""
","""event"",""trial"",""time""
""focus"",""0"",""1479""
""focus"",""34"",""98973""
""focus"",""52"",""218253""
","""event"",""trial"",""time""
""fullscreenenter"",""0"",""3066""
","
",null,"<div style=""font-size:60px;"">+</div>",NA,null,fixation,2020-06-20T19:53:22Z,NA,NA,NA,NA,NA,sub111
NA,mars-trial,114,506002,0.0-10.0-1.50,"""event"",""trial"",""time""
""focus"",""0"",""1479""
""fullscreenenter"",""0"",""3066""
""blur"",""34"",""95750""
""focus"",""34"",""98973""
""blur"",""52"",""216374""
""focus"",""52"",""218253""
","""event"",""trial"",""time""
""blur"",""34"",""95750""
""blur"",""52"",""216374""
","""event"",""trial"",""time""
""focus"",""0"",""1479""
""focus"",""34"",""98973""
""focus"",""52"",""218253""
","""event"",""trial"",""time""
""fullscreenenter"",""0"",""3066""
","
",9409.275000012713,<img style='border: 4px solid darkgrey;' src='img/tf1_51_M_ss2.jpeg'></img>,3,NA,exp,NA,0,<img src='img/tf1_51_T1_ss2_md.jpeg'></img>,0,TRUE,NA,sub111
NA,html-keyboard-response,115,506504,0.0-10.0-0.51,"""event"",""trial"",""time""
""focus"",""0"",""1479""
""fullscreenenter"",""0"",""3066""
""blur"",""34"",""95750""
""focus"",""34"",""98973""
""blur"",""52"",""216374""
""focus"",""52"",""218253""
","""event"",""trial"",""time""
""blur"",""34"",""95750""
""blur"",""52"",""216374""
","""event"",""trial"",""time""
""focus"",""0"",""1479""
""focus"",""34"",""98973""
""focus"",""52"",""218253""
","""event"",""trial"",""time""
""fullscreenenter"",""0"",""3066""
","
",null,"<div style=""font-size:60px;"">+</div>",NA,null,fixation,2020-06-20T19:53:32Z,NA,NA,NA,NA,NA,sub111
NA,mars-trial,116,519302,0.0-10.0-1.51,"""event"",""trial"",""time""
""focus"",""0"",""1479""
""fullscreenenter"",""0"",""3066""
""blur"",""34"",""95750""
""focus"",""34"",""98973""
""blur"",""52"",""216374""
""focus"",""52"",""218253""
","""event"",""trial"",""time""
""blur"",""34"",""95750""
""blur"",""52"",""216374""
","""event"",""trial"",""time""
""focus"",""0"",""1479""
""focus"",""34"",""98973""
""focus"",""52"",""218253""
","""event"",""trial"",""time""
""fullscreenenter"",""0"",""3066""
","
",12191.66499999119,<img style='border: 4px solid darkgrey;' src='img/tf1_52_M_ss3.jpeg'></img>,2,NA,exp,NA,0,<img src='img/tf1_52_T1_ss3_md.jpeg'></img>,0,TRUE,NA,sub111
NA,html-keyboard-response,117,519804,0.0-10.0-0.52,"""event"",""trial"",""time""
""focus"",""0"",""1479""
""fullscreenenter"",""0"",""3066""
""blur"",""34"",""95750""
""focus"",""34"",""98973""
""blur"",""52"",""216374""
""focus"",""52"",""218253""
","""event"",""trial"",""time""
""blur"",""34"",""95750""
""blur"",""52"",""216374""
","""event"",""trial"",""time""
""focus"",""0"",""1479""
""focus"",""34"",""98973""
""focus"",""52"",""218253""
","""event"",""trial"",""time""
""fullscreenenter"",""0"",""3066""
","
",null,"<div style=""font-size:60px;"">+</div>",NA,null,fixation,2020-06-20T19:53:46Z,NA,NA,NA,NA,NA,sub111
NA,mars-trial,118,522846,0.0-10.0-1.52,"""event"",""trial"",""time""
""focus"",""0"",""1479""
""fullscreenenter"",""0"",""3066""
""blur"",""34"",""95750""
""focus"",""34"",""98973""
""blur"",""52"",""216374""
""focus"",""52"",""218253""
","""event"",""trial"",""time""
""blur"",""34"",""95750""
""blur"",""52"",""216374""
","""event"",""trial"",""time""
""focus"",""0"",""1479""
""focus"",""34"",""98973""
""focus"",""52"",""218253""
","""event"",""trial"",""time""
""fullscreenenter"",""0"",""3066""
","
",2435.154999984661,<img style='border: 4px solid darkgrey;' src='img/tf1_53_M_ss1.jpeg'></img>,3,NA,exp,NA,0,<img src='img/tf1_53_T1_ss1_md.jpeg'></img>,0,TRUE,NA,sub111
NA,html-keyboard-response,119,523348,0.0-10.0-0.53,"""event"",""trial"",""time""
""focus"",""0"",""1479""
""fullscreenenter"",""0"",""3066""
""blur"",""34"",""95750""
""focus"",""34"",""98973""
""blur"",""52"",""216374""
""focus"",""52"",""218253""
","""event"",""trial"",""time""
""blur"",""34"",""95750""
""blur"",""52"",""216374""
","""event"",""trial"",""time""
""focus"",""0"",""1479""
""focus"",""34"",""98973""
""focus"",""52"",""218253""
","""event"",""trial"",""time""
""fullscreenenter"",""0"",""3066""
","
",null,"<div style=""font-size:60px;"">+</div>",NA,null,fixation,2020-06-20T19:53:49Z,NA,NA,NA,NA,NA,sub111
NA,mars-trial,120,527619,0.0-10.0-1.53,"""event"",""trial"",""time""
""focus"",""0"",""1479""
""fullscreenenter"",""0"",""3066""
""blur"",""34"",""95750""
""focus"",""34"",""98973""
""blur"",""52"",""216374""
""focus"",""52"",""218253""
","""event"",""trial"",""time""
""blur"",""34"",""95750""
""blur"",""52"",""216374""
","""event"",""trial"",""time""
""focus"",""0"",""1479""
""focus"",""34"",""98973""
""focus"",""52"",""218253""
","""event"",""trial"",""time""
""fullscreenenter"",""0"",""3066""
","
",NA,NA,NA,NA,exp,NA,NA,<img src='img/tf1_54_T1_ss2_md.jpeg'></img>,0,FALSE,NA,sub111
NA,html-keyboard-response,121,528120,0.0-10.0-0.54,"""event"",""trial"",""time""
""focus"",""0"",""1479""
""fullscreenenter"",""0"",""3066""
""blur"",""34"",""95750""
""focus"",""34"",""98973""
""blur"",""52"",""216374""
""focus"",""52"",""218253""
","""event"",""trial"",""time""
""blur"",""34"",""95750""
""blur"",""52"",""216374""
","""event"",""trial"",""time""
""focus"",""0"",""1479""
""focus"",""34"",""98973""
""focus"",""52"",""218253""
","""event"",""trial"",""time""
""fullscreenenter"",""0"",""3066""
","
",null,"<div style=""font-size:60px;"">+</div>",NA,null,fixation,2020-06-20T19:53:54Z,NA,NA,NA,NA,NA,sub111
NA,audio-button-response,122,530166,0.0-11.0,"""event"",""trial"",""time""
""focus"",""0"",""1479""
""fullscreenenter"",""0"",""3066""
""blur"",""34"",""95750""
""focus"",""34"",""98973""
""blur"",""52"",""216374""
""focus"",""52"",""218253""
","""event"",""trial"",""time""
""blur"",""34"",""95750""
""blur"",""52"",""216374""
","""event"",""trial"",""time""
""focus"",""0"",""1479""
""focus"",""34"",""98973""
""focus"",""52"",""218253""
","""event"",""trial"",""time""
""fullscreenenter"",""0"",""3066""
","
",1940.6100000196602,audio/mars_instructions_slide5.wav,0,NA,NA,NA,NA,NA,NA,NA,NA,sub111
