success,trial_type,trial_index,time_elapsed,internal_node_id,interactions,blur_events,focus_events,fullscreenenter_events,fullscreenexit_events,rt,stimulus,button_pressed,key_press,part,timestamp,unshuffled_button,correct_response,correct_button,correct,value,subject_id
TRUE,fullscreen,0,4605,0.0-0.0,"""event"",""trial"",""time""
""fullscreenenter"",""0"",""3615""
","
","
","""event"",""trial"",""time""
""fullscreenenter"",""0"",""3615""
","
",NA,NA,NA,NA,NA,NA,NA,NA,NA,NA,NA,sub87
NA,pavlovia,1,4607,0.0-1.0,"""event"",""trial"",""time""
""fullscreenenter"",""0"",""3615""
","
","
","""event"",""trial"",""time""
""fullscreenenter"",""0"",""3615""
","
",NA,NA,NA,NA,NA,NA,NA,NA,NA,NA,NA,sub87
NA,html-button-response,2,11625,0.0-2.0,"""event"",""trial"",""time""
""fullscreenenter"",""0"",""3615""
","
","
","""event"",""trial"",""time""
""fullscreenenter"",""0"",""3615""
","
",7016.995000070892,<p>Welcome! Press START to begin.</p><br>,0,NA,NA,NA,NA,NA,NA,NA,NA,sub87
NA,audio-button-response,3,27769,0.0-3.0,"""event"",""trial"",""time""
""fullscreenenter"",""0"",""3615""
","
","
","""event"",""trial"",""time""
""fullscreenenter"",""0"",""3615""
","
",16142.48999999836,audio/mars_instructions_slide2.wav,0,NA,NA,NA,NA,NA,NA,NA,NA,sub87
NA,audio-button-response,4,44461,0.0-4.0,"""event"",""trial"",""time""
""fullscreenenter"",""0"",""3615""
","
","
","""event"",""trial"",""time""
""fullscreenenter"",""0"",""3615""
","
",16690.734999952838,audio/mars_instructions_slide3.wav,0,NA,NA,NA,NA,NA,NA,NA,NA,sub87
NA,html-keyboard-response,5,44962,0.0-5.0-0.0,"""event"",""trial"",""time""
""fullscreenenter"",""0"",""3615""
","
","
","""event"",""trial"",""time""
""fullscreenenter"",""0"",""3615""
","
",null,"<div style=""font-size:60px;"">+</div>",NA,null,fixation,2020-06-23T17:17:31Z,NA,NA,NA,NA,NA,sub87
NA,mars-trial,6,52156,0.0-5.0-1.0,"""event"",""trial"",""time""
""fullscreenenter"",""0"",""3615""
","
","
","""event"",""trial"",""time""
""fullscreenenter"",""0"",""3615""
","
",5088.410000083968,<img style='border: 4px solid darkgrey;' src='practice/pt1_M1.png'></img>,0,NA,practice,NA,0,<img src='practice/pt1_T1.png'></img>,0,TRUE,NA,sub87
NA,html-keyboard-response,7,52658,0.0-6.0-0.0,"""event"",""trial"",""time""
""fullscreenenter"",""0"",""3615""
","
","
","""event"",""trial"",""time""
""fullscreenenter"",""0"",""3615""
","
",null,"<div style=""font-size:60px;"">+</div>",NA,null,fixation,2020-06-23T17:17:38Z,NA,NA,NA,NA,NA,sub87
NA,mars-trial,8,56938,0.0-6.0-1.0,"""event"",""trial"",""time""
""fullscreenenter"",""0"",""3615""
","
","
","""event"",""trial"",""time""
""fullscreenenter"",""0"",""3615""
","
",2175.8549999212846,<img style='border: 4px solid darkgrey;' src='practice/pt2_M1.png'></img>,1,NA,practice,NA,0,<img src='practice/pt2_T1.png'></img>,0,TRUE,NA,sub87
NA,html-keyboard-response,9,57440,0.0-7.0-0.0,"""event"",""trial"",""time""
""fullscreenenter"",""0"",""3615""
","
","
","""event"",""trial"",""time""
""fullscreenenter"",""0"",""3615""
","
",null,"<div style=""font-size:60px;"">+</div>",NA,null,fixation,2020-06-23T17:17:43Z,NA,NA,NA,NA,NA,sub87
NA,mars-trial,10,60956,0.0-7.0-1.0,"""event"",""trial"",""time""
""fullscreenenter"",""0"",""3615""
","
","
","""event"",""trial"",""time""
""fullscreenenter"",""0"",""3615""
","
",1412.6899999100715,<img style='border: 4px solid darkgrey;' src='practice/pt3_M1.png'></img>,3,NA,practice,NA,0,<img src='practice/pt3_T1.png'></img>,0,TRUE,NA,sub87
NA,audio-button-response,11,63079,0.0-8.0,"""event"",""trial"",""time""
""fullscreenenter"",""0"",""3615""
","
","
","""event"",""trial"",""time""
""fullscreenenter"",""0"",""3615""
","
",2120.824999990873,audio/mars_instructions_slide4.wav,0,NA,NA,NA,NA,NA,NA,NA,NA,sub87
NA,call-function,12,63079,0.0-9.0,"""event"",""trial"",""time""
""fullscreenenter"",""0"",""3615""
","
","
","""event"",""trial"",""time""
""fullscreenenter"",""0"",""3615""
","
",NA,NA,NA,NA,NA,NA,NA,NA,NA,NA,NA,sub87
NA,html-keyboard-response,13,63580,0.0-10.0-0.0,"""event"",""trial"",""time""
""fullscreenenter"",""0"",""3615""
","
","
","""event"",""trial"",""time""
""fullscreenenter"",""0"",""3615""
","
",null,"<div style=""font-size:60px;"">+</div>",NA,null,fixation,2020-06-23T17:17:49Z,NA,NA,NA,NA,NA,sub87
NA,mars-trial,14,65731,0.0-10.0-1.0,"""event"",""trial"",""time""
""fullscreenenter"",""0"",""3615""
","
","
","""event"",""trial"",""time""
""fullscreenenter"",""0"",""3615""
","
",1546.280000009574,<img style='border: 4px solid darkgrey;' src='img/tf1_1_M_ss3.jpeg'></img>,1,NA,exp,NA,0,<img src='img/tf1_1_T1_ss3_md.jpeg'></img>,0,TRUE,NA,sub87
NA,html-keyboard-response,15,66234,0.0-10.0-0.1,"""event"",""trial"",""time""
""fullscreenenter"",""0"",""3615""
","
","
","""event"",""trial"",""time""
""fullscreenenter"",""0"",""3615""
","
",null,"<div style=""font-size:60px;"">+</div>",NA,null,fixation,2020-06-23T17:17:52Z,NA,NA,NA,NA,NA,sub87
NA,mars-trial,16,68939,0.0-10.0-1.1,"""event"",""trial"",""time""
""fullscreenenter"",""0"",""3615""
","
","
","""event"",""trial"",""time""
""fullscreenenter"",""0"",""3615""
","
",2102.324999985285,<img style='border: 4px solid darkgrey;' src='img/tf1_2_M_ss1.jpeg'></img>,2,NA,exp,NA,0,<img src='img/tf1_2_T1_ss1_md.jpeg'></img>,0,TRUE,NA,sub87
NA,html-keyboard-response,17,69440,0.0-10.0-0.2,"""event"",""trial"",""time""
""fullscreenenter"",""0"",""3615""
","
","
","""event"",""trial"",""time""
""fullscreenenter"",""0"",""3615""
","
",null,"<div style=""font-size:60px;"">+</div>",NA,null,fixation,2020-06-23T17:17:55Z,NA,NA,NA,NA,NA,sub87
NA,mars-trial,18,72045,0.0-10.0-1.2,"""event"",""trial"",""time""
""fullscreenenter"",""0"",""3615""
","
","
","""event"",""trial"",""time""
""fullscreenenter"",""0"",""3615""
","
",1999.8099999502301,<img style='border: 4px solid darkgrey;' src='img/tf1_3_M_ss2.jpeg'></img>,0,NA,exp,NA,0,<img src='img/tf1_3_T1_ss2_md.jpeg'></img>,0,TRUE,NA,sub87
NA,html-keyboard-response,19,72547,0.0-10.0-0.3,"""event"",""trial"",""time""
""fullscreenenter"",""0"",""3615""
","
","
","""event"",""trial"",""time""
""fullscreenenter"",""0"",""3615""
","
",null,"<div style=""font-size:60px;"">+</div>",NA,null,fixation,2020-06-23T17:17:58Z,NA,NA,NA,NA,NA,sub87
NA,mars-trial,20,76522,0.0-10.0-1.3,"""event"",""trial"",""time""
""fullscreenenter"",""0"",""3615""
","
","
","""event"",""trial"",""time""
""fullscreenenter"",""0"",""3615""
","
",3370.9549999330193,<img style='border: 4px solid darkgrey;' src='img/tf1_4_M_ss3.jpeg'></img>,2,NA,exp,NA,0,<img src='img/tf1_4_T1_ss3_md.jpeg'></img>,0,TRUE,NA,sub87
NA,html-keyboard-response,21,77024,0.0-10.0-0.4,"""event"",""trial"",""time""
""fullscreenenter"",""0"",""3615""
","
","
","""event"",""trial"",""time""
""fullscreenenter"",""0"",""3615""
","
",null,"<div style=""font-size:60px;"">+</div>",NA,null,fixation,2020-06-23T17:18:03Z,NA,NA,NA,NA,NA,sub87
NA,mars-trial,22,79789,0.0-10.0-1.4,"""event"",""trial"",""time""
""fullscreenenter"",""0"",""3615""
","
","
","""event"",""trial"",""time""
""fullscreenenter"",""0"",""3615""
","
",2160.730000003241,<img style='border: 4px solid darkgrey;' src='img/tf1_5_M_ss1.jpeg'></img>,0,NA,exp,NA,0,<img src='img/tf1_5_T1_ss1_md.jpeg'></img>,0,TRUE,NA,sub87
NA,html-keyboard-response,23,80290,0.0-10.0-0.5,"""event"",""trial"",""time""
""fullscreenenter"",""0"",""3615""
","
","
","""event"",""trial"",""time""
""fullscreenenter"",""0"",""3615""
","
",null,"<div style=""font-size:60px;"">+</div>",NA,null,fixation,2020-06-23T17:18:06Z,NA,NA,NA,NA,NA,sub87
NA,mars-trial,24,83550,0.0-10.0-1.5,"""event"",""trial"",""time""
""fullscreenenter"",""0"",""3615""
","
","
","""event"",""trial"",""time""
""fullscreenenter"",""0"",""3615""
","
",2656.2050000065938,<img style='border: 4px solid darkgrey;' src='img/tf1_6_M_ss2.jpeg'></img>,3,NA,exp,NA,0,<img src='img/tf1_6_T1_ss2_md.jpeg'></img>,0,TRUE,NA,sub87
NA,html-keyboard-response,25,84053,0.0-10.0-0.6,"""event"",""trial"",""time""
""fullscreenenter"",""0"",""3615""
","
","
","""event"",""trial"",""time""
""fullscreenenter"",""0"",""3615""
","
",null,"<div style=""font-size:60px;"">+</div>",NA,null,fixation,2020-06-23T17:18:10Z,NA,NA,NA,NA,NA,sub87
NA,mars-trial,26,88129,0.0-10.0-1.6,"""event"",""trial"",""time""
""fullscreenenter"",""0"",""3615""
","
","
","""event"",""trial"",""time""
""fullscreenenter"",""0"",""3615""
","
",3471.209999988787,<img style='border: 4px solid darkgrey;' src='img/tf1_7_M_ss3.jpeg'></img>,1,NA,exp,NA,0,<img src='img/tf1_7_T1_ss3_md.jpeg'></img>,0,TRUE,NA,sub87
NA,html-keyboard-response,27,88631,0.0-10.0-0.7,"""event"",""trial"",""time""
""fullscreenenter"",""0"",""3615""
","
","
","""event"",""trial"",""time""
""fullscreenenter"",""0"",""3615""
","
",null,"<div style=""font-size:60px;"">+</div>",NA,null,fixation,2020-06-23T17:18:14Z,NA,NA,NA,NA,NA,sub87
NA,mars-trial,28,96946,0.0-10.0-1.7,"""event"",""trial"",""time""
""fullscreenenter"",""0"",""3615""
","
","
","""event"",""trial"",""time""
""fullscreenenter"",""0"",""3615""
","
",7711.0850000754,<img style='border: 4px solid darkgrey;' src='img/tf1_8_M_ss1.jpeg'></img>,2,NA,exp,NA,0,<img src='img/tf1_8_T1_ss1_md.jpeg'></img>,0,TRUE,NA,sub87
NA,html-keyboard-response,29,97447,0.0-10.0-0.8,"""event"",""trial"",""time""
""fullscreenenter"",""0"",""3615""
","
","
","""event"",""trial"",""time""
""fullscreenenter"",""0"",""3615""
","
",null,"<div style=""font-size:60px;"">+</div>",NA,null,fixation,2020-06-23T17:18:23Z,NA,NA,NA,NA,NA,sub87
NA,mars-trial,30,102218,0.0-10.0-1.8,"""event"",""trial"",""time""
""fullscreenenter"",""0"",""3615""
","
","
","""event"",""trial"",""time""
""fullscreenenter"",""0"",""3615""
","
",4167.780000017956,<img style='border: 4px solid darkgrey;' src='img/tf1_9_M_ss2.jpeg'></img>,0,NA,exp,NA,2,<img src='img/tf1_9_T1_ss2_md.jpeg'></img>,0,FALSE,NA,sub87
NA,html-keyboard-response,31,102720,0.0-10.0-0.9,"""event"",""trial"",""time""
""fullscreenenter"",""0"",""3615""
","
","
","""event"",""trial"",""time""
""fullscreenenter"",""0"",""3615""
","
",null,"<div style=""font-size:60px;"">+</div>",NA,null,fixation,2020-06-23T17:18:28Z,NA,NA,NA,NA,NA,sub87
NA,mars-trial,32,111254,0.0-10.0-1.9,"""event"",""trial"",""time""
""fullscreenenter"",""0"",""3615""
","
","
","""event"",""trial"",""time""
""fullscreenenter"",""0"",""3615""
","
",7930.109999957494,<img style='border: 4px solid darkgrey;' src='img/tf1_10_M_ss3.jpeg'></img>,3,NA,exp,NA,0,<img src='img/tf1_10_T1_ss3_md.jpeg'></img>,0,TRUE,NA,sub87
NA,html-keyboard-response,33,111755,0.0-10.0-0.10,"""event"",""trial"",""time""
""fullscreenenter"",""0"",""3615""
","
","
","""event"",""trial"",""time""
""fullscreenenter"",""0"",""3615""
","
",null,"<div style=""font-size:60px;"">+</div>",NA,null,fixation,2020-06-23T17:18:37Z,NA,NA,NA,NA,NA,sub87
NA,mars-trial,34,115597,0.0-10.0-1.10,"""event"",""trial"",""time""
""fullscreenenter"",""0"",""3615""
","
","
","""event"",""trial"",""time""
""fullscreenenter"",""0"",""3615""
","
",3237.9949999740347,<img style='border: 4px solid darkgrey;' src='img/tf1_11_M_ss1.jpeg'></img>,2,NA,exp,NA,3,<img src='img/tf1_11_T1_ss1_md.jpeg'></img>,0,FALSE,NA,sub87
NA,html-keyboard-response,35,116098,0.0-10.0-0.11,"""event"",""trial"",""time""
""fullscreenenter"",""0"",""3615""
","
","
","""event"",""trial"",""time""
""fullscreenenter"",""0"",""3615""
","
",null,"<div style=""font-size:60px;"">+</div>",NA,null,fixation,2020-06-23T17:18:42Z,NA,NA,NA,NA,NA,sub87
NA,mars-trial,36,121273,0.0-10.0-1.11,"""event"",""trial"",""time""
""fullscreenenter"",""0"",""3615""
","
","
","""event"",""trial"",""time""
""fullscreenenter"",""0"",""3615""
","
",4571.080000023358,<img style='border: 4px solid darkgrey;' src='img/tf1_12_M_ss2.jpeg'></img>,1,NA,exp,NA,1,<img src='img/tf1_12_T1_ss2_md.jpeg'></img>,0,FALSE,NA,sub87
NA,html-keyboard-response,37,121774,0.0-10.0-0.12,"""event"",""trial"",""time""
""fullscreenenter"",""0"",""3615""
","
","
","""event"",""trial"",""time""
""fullscreenenter"",""0"",""3615""
","
",null,"<div style=""font-size:60px;"">+</div>",NA,null,fixation,2020-06-23T17:18:47Z,NA,NA,NA,NA,NA,sub87
NA,mars-trial,38,125813,0.0-10.0-1.12,"""event"",""trial"",""time""
""fullscreenenter"",""0"",""3615""
","
","
","""event"",""trial"",""time""
""fullscreenenter"",""0"",""3615""
","
",3435.5699999723583,<img style='border: 4px solid darkgrey;' src='img/tf1_13_M_ss3.jpeg'></img>,1,NA,exp,NA,2,<img src='img/tf1_13_T1_ss3_md.jpeg'></img>,0,FALSE,NA,sub87
NA,html-keyboard-response,39,126314,0.0-10.0-0.13,"""event"",""trial"",""time""
""fullscreenenter"",""0"",""3615""
","
","
","""event"",""trial"",""time""
""fullscreenenter"",""0"",""3615""
","
",null,"<div style=""font-size:60px;"">+</div>",NA,null,fixation,2020-06-23T17:18:52Z,NA,NA,NA,NA,NA,sub87
NA,mars-trial,40,131041,0.0-10.0-1.13,"""event"",""trial"",""time""
""fullscreenenter"",""0"",""3615""
","
","
","""event"",""trial"",""time""
""fullscreenenter"",""0"",""3615""
","
",4123.519999906421,<img style='border: 4px solid darkgrey;' src='img/tf1_14_M_ss1.jpeg'></img>,3,NA,exp,NA,1,<img src='img/tf1_14_T1_ss1_md.jpeg'></img>,0,FALSE,NA,sub87
NA,html-keyboard-response,41,131542,0.0-10.0-0.14,"""event"",""trial"",""time""
""fullscreenenter"",""0"",""3615""
","
","
","""event"",""trial"",""time""
""fullscreenenter"",""0"",""3615""
","
",null,"<div style=""font-size:60px;"">+</div>",NA,null,fixation,2020-06-23T17:18:57Z,NA,NA,NA,NA,NA,sub87
NA,mars-trial,42,137661,0.0-10.0-1.14,"""event"",""trial"",""time""
""fullscreenenter"",""0"",""3615""
","
","
","""event"",""trial"",""time""
""fullscreenenter"",""0"",""3615""
","
",5515.1199999963865,<img style='border: 4px solid darkgrey;' src='img/tf1_15_M_ss2.jpeg'></img>,1,NA,exp,NA,3,<img src='img/tf1_15_T1_ss2_md.jpeg'></img>,0,FALSE,NA,sub87
NA,html-keyboard-response,43,138162,0.0-10.0-0.15,"""event"",""trial"",""time""
""fullscreenenter"",""0"",""3615""
","
","
","""event"",""trial"",""time""
""fullscreenenter"",""0"",""3615""
","
",null,"<div style=""font-size:60px;"">+</div>",NA,null,fixation,2020-06-23T17:19:04Z,NA,NA,NA,NA,NA,sub87
NA,mars-trial,44,141267,0.0-10.0-1.15,"""event"",""trial"",""time""
""fullscreenenter"",""0"",""3615""
","
","
","""event"",""trial"",""time""
""fullscreenenter"",""0"",""3615""
","
",2501.285000005737,<img style='border: 4px solid darkgrey;' src='img/tf1_16_M_ss3.jpeg'></img>,3,NA,exp,NA,0,<img src='img/tf1_16_T1_ss3_md.jpeg'></img>,0,TRUE,NA,sub87
NA,html-keyboard-response,45,141768,0.0-10.0-0.16,"""event"",""trial"",""time""
""fullscreenenter"",""0"",""3615""
","
","
","""event"",""trial"",""time""
""fullscreenenter"",""0"",""3615""
","
",null,"<div style=""font-size:60px;"">+</div>",NA,null,fixation,2020-06-23T17:19:07Z,NA,NA,NA,NA,NA,sub87
NA,mars-trial,46,145577,0.0-10.0-1.16,"""event"",""trial"",""time""
""fullscreenenter"",""0"",""3615""
","
","
","""event"",""trial"",""time""
""fullscreenenter"",""0"",""3615""
","
",3204.4449999229982,<img style='border: 4px solid darkgrey;' src='img/tf1_17_M_ss1.jpeg'></img>,0,NA,exp,NA,3,<img src='img/tf1_17_T1_ss1_md.jpeg'></img>,0,FALSE,NA,sub87
NA,html-keyboard-response,47,146078,0.0-10.0-0.17,"""event"",""trial"",""time""
""fullscreenenter"",""0"",""3615""
","
","
","""event"",""trial"",""time""
""fullscreenenter"",""0"",""3615""
","
",null,"<div style=""font-size:60px;"">+</div>",NA,null,fixation,2020-06-23T17:19:12Z,NA,NA,NA,NA,NA,sub87
NA,mars-trial,48,151568,0.0-10.0-1.17,"""event"",""trial"",""time""
""fullscreenenter"",""0"",""3615""
","
","
","""event"",""trial"",""time""
""fullscreenenter"",""0"",""3615""
","
",4886.249999981374,<img style='border: 4px solid darkgrey;' src='img/tf1_18_M_ss2.jpeg'></img>,2,NA,exp,NA,1,<img src='img/tf1_18_T1_ss2_md.jpeg'></img>,0,FALSE,NA,sub87
NA,html-keyboard-response,49,152069,0.0-10.0-0.18,"""event"",""trial"",""time""
""fullscreenenter"",""0"",""3615""
","
","
","""event"",""trial"",""time""
""fullscreenenter"",""0"",""3615""
","
",null,"<div style=""font-size:60px;"">+</div>",NA,null,fixation,2020-06-23T17:19:18Z,NA,NA,NA,NA,NA,sub87
NA,mars-trial,50,155056,0.0-10.0-1.18,"""event"",""trial"",""time""
""fullscreenenter"",""0"",""3615""
","
","
","""event"",""trial"",""time""
""fullscreenenter"",""0"",""3615""
","
",2381.915000034496,<img style='border: 4px solid darkgrey;' src='img/tf1_19_M_ss3.jpeg'></img>,1,NA,exp,NA,1,<img src='img/tf1_19_T1_ss3_md.jpeg'></img>,0,FALSE,NA,sub87
NA,html-keyboard-response,51,155557,0.0-10.0-0.19,"""event"",""trial"",""time""
""fullscreenenter"",""0"",""3615""
","
","
","""event"",""trial"",""time""
""fullscreenenter"",""0"",""3615""
","
",null,"<div style=""font-size:60px;"">+</div>",NA,null,fixation,2020-06-23T17:19:21Z,NA,NA,NA,NA,NA,sub87
NA,mars-trial,52,161372,0.0-10.0-1.19,"""event"",""trial"",""time""
""fullscreenenter"",""0"",""3615""
","
","
","""event"",""trial"",""time""
""fullscreenenter"",""0"",""3615""
","
",5210.780000081286,<img style='border: 4px solid darkgrey;' src='img/tf1_20_M_ss1.jpeg'></img>,3,NA,exp,NA,0,<img src='img/tf1_20_T1_ss1_md.jpeg'></img>,0,TRUE,NA,sub87
NA,html-keyboard-response,53,161874,0.0-10.0-0.20,"""event"",""trial"",""time""
""fullscreenenter"",""0"",""3615""
","
","
","""event"",""trial"",""time""
""fullscreenenter"",""0"",""3615""
","
",null,"<div style=""font-size:60px;"">+</div>",NA,null,fixation,2020-06-23T17:19:28Z,NA,NA,NA,NA,NA,sub87
NA,mars-trial,54,168147,0.0-10.0-1.20,"""event"",""trial"",""time""
""fullscreenenter"",""0"",""3615""
","
","
","""event"",""trial"",""time""
""fullscreenenter"",""0"",""3615""
","
",5669.224999961443,<img style='border: 4px solid darkgrey;' src='img/tf1_21_M_ss2.jpeg'></img>,3,NA,exp,NA,3,<img src='img/tf1_21_T1_ss2_md.jpeg'></img>,0,FALSE,NA,sub87
NA,html-keyboard-response,55,168648,0.0-10.0-0.21,"""event"",""trial"",""time""
""fullscreenenter"",""0"",""3615""
","
","
","""event"",""trial"",""time""
""fullscreenenter"",""0"",""3615""
","
",null,"<div style=""font-size:60px;"">+</div>",NA,null,fixation,2020-06-23T17:19:34Z,NA,NA,NA,NA,NA,sub87
NA,mars-trial,56,172365,0.0-10.0-1.21,"""event"",""trial"",""time""
""fullscreenenter"",""0"",""3615""
","
","
","""event"",""trial"",""time""
""fullscreenenter"",""0"",""3615""
","
",3111.7850000737235,<img style='border: 4px solid darkgrey;' src='img/tf1_22_M_ss3.jpeg'></img>,3,NA,exp,NA,2,<img src='img/tf1_22_T1_ss3_md.jpeg'></img>,0,FALSE,NA,sub87
NA,html-keyboard-response,57,172866,0.0-10.0-0.22,"""event"",""trial"",""time""
""fullscreenenter"",""0"",""3615""
","
","
","""event"",""trial"",""time""
""fullscreenenter"",""0"",""3615""
","
",null,"<div style=""font-size:60px;"">+</div>",NA,null,fixation,2020-06-23T17:19:39Z,NA,NA,NA,NA,NA,sub87
NA,mars-trial,58,175795,0.0-10.0-1.22,"""event"",""trial"",""time""
""fullscreenenter"",""0"",""3615""
","
","
","""event"",""trial"",""time""
""fullscreenenter"",""0"",""3615""
","
",2324.2900000186637,<img style='border: 4px solid darkgrey;' src='img/tf1_23_M_ss1.jpeg'></img>,1,NA,exp,NA,0,<img src='img/tf1_23_T1_ss1_md.jpeg'></img>,0,TRUE,NA,sub87
NA,html-keyboard-response,59,176297,0.0-10.0-0.23,"""event"",""trial"",""time""
""fullscreenenter"",""0"",""3615""
","
","
","""event"",""trial"",""time""
""fullscreenenter"",""0"",""3615""
","
",null,"<div style=""font-size:60px;"">+</div>",NA,null,fixation,2020-06-23T17:19:42Z,NA,NA,NA,NA,NA,sub87
NA,mars-trial,60,185384,0.0-10.0-1.23,"""event"",""trial"",""time""
""fullscreenenter"",""0"",""3615""
","
","
","""event"",""trial"",""time""
""fullscreenenter"",""0"",""3615""
","
",8481.264999951236,<img style='border: 4px solid darkgrey;' src='img/tf1_24_M_ss2.jpeg'></img>,2,NA,exp,NA,3,<img src='img/tf1_24_T1_ss2_md.jpeg'></img>,0,FALSE,NA,sub87
NA,html-keyboard-response,61,185885,0.0-10.0-0.24,"""event"",""trial"",""time""
""fullscreenenter"",""0"",""3615""
","
","
","""event"",""trial"",""time""
""fullscreenenter"",""0"",""3615""
","
",null,"<div style=""font-size:60px;"">+</div>",NA,null,fixation,2020-06-23T17:19:52Z,NA,NA,NA,NA,NA,sub87
NA,mars-trial,62,192486,0.0-10.0-1.24,"""event"",""trial"",""time""
""fullscreenenter"",""0"",""3615""
","
","
","""event"",""trial"",""time""
""fullscreenenter"",""0"",""3615""
","
",5995.84000010509,<img style='border: 4px solid darkgrey;' src='img/tf1_25_M_ss3.jpeg'></img>,1,NA,exp,NA,2,<img src='img/tf1_25_T1_ss3_md.jpeg'></img>,0,FALSE,NA,sub87
NA,html-keyboard-response,63,192987,0.0-10.0-0.25,"""event"",""trial"",""time""
""fullscreenenter"",""0"",""3615""
","
","
","""event"",""trial"",""time""
""fullscreenenter"",""0"",""3615""
","
",null,"<div style=""font-size:60px;"">+</div>",NA,null,fixation,2020-06-23T17:19:59Z,NA,NA,NA,NA,NA,sub87
NA,mars-trial,64,202176,0.0-10.0-1.25,"""event"",""trial"",""time""
""fullscreenenter"",""0"",""3615""
","
","
","""event"",""trial"",""time""
""fullscreenenter"",""0"",""3615""
","
",8585.525000002235,<img style='border: 4px solid darkgrey;' src='img/tf1_26_M_ss1.jpeg'></img>,1,NA,exp,NA,2,<img src='img/tf1_26_T1_ss1_md.jpeg'></img>,0,FALSE,NA,sub87
NA,html-keyboard-response,65,202678,0.0-10.0-0.26,"""event"",""trial"",""time""
""fullscreenenter"",""0"",""3615""
","
","
","""event"",""trial"",""time""
""fullscreenenter"",""0"",""3615""
","
",null,"<div style=""font-size:60px;"">+</div>",NA,null,fixation,2020-06-23T17:20:08Z,NA,NA,NA,NA,NA,sub87
NA,mars-trial,66,207416,0.0-10.0-1.26,"""event"",""trial"",""time""
""fullscreenenter"",""0"",""3615""
","
","
","""event"",""trial"",""time""
""fullscreenenter"",""0"",""3615""
","
",4132.61000008788,<img style='border: 4px solid darkgrey;' src='img/tf1_27_M_ss2.jpeg'></img>,3,NA,exp,NA,3,<img src='img/tf1_27_T1_ss2_md.jpeg'></img>,0,FALSE,NA,sub87
NA,html-keyboard-response,67,207917,0.0-10.0-0.27,"""event"",""trial"",""time""
""fullscreenenter"",""0"",""3615""
","
","
","""event"",""trial"",""time""
""fullscreenenter"",""0"",""3615""
","
",null,"<div style=""font-size:60px;"">+</div>",NA,null,fixation,2020-06-23T17:20:14Z,NA,NA,NA,NA,NA,sub87
NA,mars-trial,68,209705,0.0-10.0-1.27,"""event"",""trial"",""time""
""fullscreenenter"",""0"",""3615""
","
","
","""event"",""trial"",""time""
""fullscreenenter"",""0"",""3615""
","
",1184.8000000463799,<img style='border: 4px solid darkgrey;' src='img/tf1_28_M_ss3.jpeg'></img>,3,NA,exp,NA,2,<img src='img/tf1_28_T1_ss3_md.jpeg'></img>,0,FALSE,NA,sub87
NA,html-keyboard-response,69,210206,0.0-10.0-0.28,"""event"",""trial"",""time""
""fullscreenenter"",""0"",""3615""
","
","
","""event"",""trial"",""time""
""fullscreenenter"",""0"",""3615""
","
",null,"<div style=""font-size:60px;"">+</div>",NA,null,fixation,2020-06-23T17:20:16Z,NA,NA,NA,NA,NA,sub87
NA,mars-trial,70,211459,0.0-10.0-1.28,"""event"",""trial"",""time""
""fullscreenenter"",""0"",""3615""
","
","
","""event"",""trial"",""time""
""fullscreenenter"",""0"",""3615""
","
",650.1699999207631,<img style='border: 4px solid darkgrey;' src='img/tf1_29_M_ss1.jpeg'></img>,2,NA,exp,NA,1,<img src='img/tf1_29_T1_ss1_md.jpeg'></img>,0,FALSE,NA,sub87
NA,html-keyboard-response,71,211960,0.0-10.0-0.29,"""event"",""trial"",""time""
""fullscreenenter"",""0"",""3615""
","
","
","""event"",""trial"",""time""
""fullscreenenter"",""0"",""3615""
","
",null,"<div style=""font-size:60px;"">+</div>",NA,null,fixation,2020-06-23T17:20:18Z,NA,NA,NA,NA,NA,sub87
NA,mars-trial,72,213189,0.0-10.0-1.29,"""event"",""trial"",""time""
""fullscreenenter"",""0"",""3615""
","
","
","""event"",""trial"",""time""
""fullscreenenter"",""0"",""3615""
","
",624.3300000205636,<img style='border: 4px solid darkgrey;' src='img/tf1_30_M_ss2.jpeg'></img>,1,NA,exp,NA,3,<img src='img/tf1_30_T1_ss2_md.jpeg'></img>,0,FALSE,NA,sub87
NA,html-keyboard-response,73,213690,0.0-10.0-0.30,"""event"",""trial"",""time""
""fullscreenenter"",""0"",""3615""
","
","
","""event"",""trial"",""time""
""fullscreenenter"",""0"",""3615""
","
",null,"<div style=""font-size:60px;"">+</div>",NA,null,fixation,2020-06-23T17:20:19Z,NA,NA,NA,NA,NA,sub87
NA,mars-trial,74,215292,0.0-10.0-1.30,"""event"",""trial"",""time""
""fullscreenenter"",""0"",""3615""
","
","
","""event"",""trial"",""time""
""fullscreenenter"",""0"",""3615""
","
",998.810000019148,<img style='border: 4px solid darkgrey;' src='img/tf1_31_M_ss3.jpeg'></img>,3,NA,exp,NA,2,<img src='img/tf1_31_T1_ss3_md.jpeg'></img>,0,FALSE,NA,sub87
NA,html-keyboard-response,75,215793,0.0-10.0-0.31,"""event"",""trial"",""time""
""fullscreenenter"",""0"",""3615""
","
","
","""event"",""trial"",""time""
""fullscreenenter"",""0"",""3615""
","
",null,"<div style=""font-size:60px;"">+</div>",NA,null,fixation,2020-06-23T17:20:21Z,NA,NA,NA,NA,NA,sub87
NA,mars-trial,76,219888,0.0-10.0-1.31,"""event"",""trial"",""time""
""fullscreenenter"",""0"",""3615""
","
","
","""event"",""trial"",""time""
""fullscreenenter"",""0"",""3615""
","
",3491.924999980256,<img style='border: 4px solid darkgrey;' src='img/tf1_32_M_ss1.jpeg'></img>,3,NA,exp,NA,0,<img src='img/tf1_32_T1_ss1_md.jpeg'></img>,0,TRUE,NA,sub87
NA,html-keyboard-response,77,220389,0.0-10.0-0.32,"""event"",""trial"",""time""
""fullscreenenter"",""0"",""3615""
","
","
","""event"",""trial"",""time""
""fullscreenenter"",""0"",""3615""
","
",null,"<div style=""font-size:60px;"">+</div>",NA,null,fixation,2020-06-23T17:20:26Z,NA,NA,NA,NA,NA,sub87
NA,mars-trial,78,224280,0.0-10.0-1.32,"""event"",""trial"",""time""
""fullscreenenter"",""0"",""3615""
","
","
","""event"",""trial"",""time""
""fullscreenenter"",""0"",""3615""
","
",3287.6150000374764,<img style='border: 4px solid darkgrey;' src='img/tf1_33_M_ss2.jpeg'></img>,2,NA,exp,NA,3,<img src='img/tf1_33_T1_ss2_md.jpeg'></img>,0,FALSE,NA,sub87
NA,html-keyboard-response,79,224781,0.0-10.0-0.33,"""event"",""trial"",""time""
""fullscreenenter"",""0"",""3615""
","
","
","""event"",""trial"",""time""
""fullscreenenter"",""0"",""3615""
","
",null,"<div style=""font-size:60px;"">+</div>",NA,null,fixation,2020-06-23T17:20:30Z,NA,NA,NA,NA,NA,sub87
NA,mars-trial,80,229521,0.0-10.0-1.33,"""event"",""trial"",""time""
""fullscreenenter"",""0"",""3615""
","
","
","""event"",""trial"",""time""
""fullscreenenter"",""0"",""3615""
","
",4136.700000031851,<img style='border: 4px solid darkgrey;' src='img/tf1_34_M_ss3.jpeg'></img>,2,NA,exp,NA,2,<img src='img/tf1_34_T1_ss3_md.jpeg'></img>,0,FALSE,NA,sub87
NA,html-keyboard-response,81,230023,0.0-10.0-0.34,"""event"",""trial"",""time""
""fullscreenenter"",""0"",""3615""
","
","
","""event"",""trial"",""time""
""fullscreenenter"",""0"",""3615""
","
",null,"<div style=""font-size:60px;"">+</div>",NA,null,fixation,2020-06-23T17:20:36Z,NA,NA,NA,NA,NA,sub87
NA,mars-trial,82,236321,0.0-10.0-1.34,"""event"",""trial"",""time""
""fullscreenenter"",""0"",""3615""
","
","
","""event"",""trial"",""time""
""fullscreenenter"",""0"",""3615""
","
",5692.945000017062,<img style='border: 4px solid darkgrey;' src='img/tf1_35_M_ss1.jpeg'></img>,2,NA,exp,NA,3,<img src='img/tf1_35_T1_ss1_md.jpeg'></img>,0,FALSE,NA,sub87
NA,html-keyboard-response,83,236822,0.0-10.0-0.35,"""event"",""trial"",""time""
""fullscreenenter"",""0"",""3615""
","
","
","""event"",""trial"",""time""
""fullscreenenter"",""0"",""3615""
","
",null,"<div style=""font-size:60px;"">+</div>",NA,null,fixation,2020-06-23T17:20:43Z,NA,NA,NA,NA,NA,sub87
NA,mars-trial,84,243169,0.0-10.0-1.35,"""event"",""trial"",""time""
""fullscreenenter"",""0"",""3615""
","
","
","""event"",""trial"",""time""
""fullscreenenter"",""0"",""3615""
","
",5743.039999972098,<img style='border: 4px solid darkgrey;' src='img/tf1_36_M_ss2.jpeg'></img>,3,NA,exp,NA,0,<img src='img/tf1_36_T1_ss2_md.jpeg'></img>,0,TRUE,NA,sub87
NA,html-keyboard-response,85,243671,0.0-10.0-0.36,"""event"",""trial"",""time""
""fullscreenenter"",""0"",""3615""
","
","
","""event"",""trial"",""time""
""fullscreenenter"",""0"",""3615""
","
",null,"<div style=""font-size:60px;"">+</div>",NA,null,fixation,2020-06-23T17:20:49Z,NA,NA,NA,NA,NA,sub87
NA,mars-trial,86,249701,0.0-10.0-1.36,"""event"",""trial"",""time""
""fullscreenenter"",""0"",""3615""
","
","
","""event"",""trial"",""time""
""fullscreenenter"",""0"",""3615""
","
",5425.810000044294,<img style='border: 4px solid darkgrey;' src='img/tf1_37_M_ss3.jpeg'></img>,1,NA,exp,NA,3,<img src='img/tf1_37_T1_ss3_md.jpeg'></img>,0,FALSE,NA,sub87
NA,html-keyboard-response,87,250201,0.0-10.0-0.37,"""event"",""trial"",""time""
""fullscreenenter"",""0"",""3615""
","
","
","""event"",""trial"",""time""
""fullscreenenter"",""0"",""3615""
","
",null,"<div style=""font-size:60px;"">+</div>",NA,null,fixation,2020-06-23T17:20:56Z,NA,NA,NA,NA,NA,sub87
NA,mars-trial,88,259230,0.0-10.0-1.37,"""event"",""trial"",""time""
""fullscreenenter"",""0"",""3615""
","
","
","""event"",""trial"",""time""
""fullscreenenter"",""0"",""3615""
","
",8423.405000008643,<img style='border: 4px solid darkgrey;' src='img/tf1_38_M_ss1.jpeg'></img>,0,NA,exp,NA,0,<img src='img/tf1_38_T1_ss1_md.jpeg'></img>,0,TRUE,NA,sub87
NA,html-keyboard-response,89,259731,0.0-10.0-0.38,"""event"",""trial"",""time""
""fullscreenenter"",""0"",""3615""
","
","
","""event"",""trial"",""time""
""fullscreenenter"",""0"",""3615""
","
",null,"<div style=""font-size:60px;"">+</div>",NA,null,fixation,2020-06-23T17:21:05Z,NA,NA,NA,NA,NA,sub87
NA,mars-trial,90,263505,0.0-10.0-1.38,"""event"",""trial"",""time""
""fullscreenenter"",""0"",""3615""
","
","
","""event"",""trial"",""time""
""fullscreenenter"",""0"",""3615""
","
",3169.2049999255687,<img style='border: 4px solid darkgrey;' src='img/tf1_39_M_ss2.jpeg'></img>,2,NA,exp,NA,0,<img src='img/tf1_39_T1_ss2_md.jpeg'></img>,0,TRUE,NA,sub87
NA,html-keyboard-response,91,264006,0.0-10.0-0.39,"""event"",""trial"",""time""
""fullscreenenter"",""0"",""3615""
","
","
","""event"",""trial"",""time""
""fullscreenenter"",""0"",""3615""
","
",null,"<div style=""font-size:60px;"">+</div>",NA,null,fixation,2020-06-23T17:21:10Z,NA,NA,NA,NA,NA,sub87
NA,mars-trial,92,268513,0.0-10.0-1.39,"""event"",""trial"",""time""
""fullscreenenter"",""0"",""3615""
","
","
","""event"",""trial"",""time""
""fullscreenenter"",""0"",""3615""
","
",3903.474999940954,<img style='border: 4px solid darkgrey;' src='img/tf1_40_M_ss3.jpeg'></img>,2,NA,exp,NA,2,<img src='img/tf1_40_T1_ss3_md.jpeg'></img>,0,FALSE,NA,sub87
NA,html-keyboard-response,93,269014,0.0-10.0-0.40,"""event"",""trial"",""time""
""fullscreenenter"",""0"",""3615""
","
","
","""event"",""trial"",""time""
""fullscreenenter"",""0"",""3615""
","
",null,"<div style=""font-size:60px;"">+</div>",NA,null,fixation,2020-06-23T17:21:15Z,NA,NA,NA,NA,NA,sub87
NA,mars-trial,94,272809,0.0-10.0-1.40,"""event"",""trial"",""time""
""fullscreenenter"",""0"",""3615""
","
","
","""event"",""trial"",""time""
""fullscreenenter"",""0"",""3615""
","
",3191.690000006929,<img style='border: 4px solid darkgrey;' src='img/tf1_41_M_ss1.jpeg'></img>,3,NA,exp,NA,0,<img src='img/tf1_41_T1_ss1_md.jpeg'></img>,0,TRUE,NA,sub87
NA,html-keyboard-response,95,273310,0.0-10.0-0.41,"""event"",""trial"",""time""
""fullscreenenter"",""0"",""3615""
","
","
","""event"",""trial"",""time""
""fullscreenenter"",""0"",""3615""
","
",null,"<div style=""font-size:60px;"">+</div>",NA,null,fixation,2020-06-23T17:21:19Z,NA,NA,NA,NA,NA,sub87
NA,mars-trial,96,283373,0.0-10.0-1.41,"""event"",""trial"",""time""
""fullscreenenter"",""0"",""3615""
","
","
","""event"",""trial"",""time""
""fullscreenenter"",""0"",""3615""
","
",9458.20500003174,<img style='border: 4px solid darkgrey;' src='img/tf1_42_M_ss2.jpeg'></img>,0,NA,exp,NA,1,<img src='img/tf1_42_T1_ss2_md.jpeg'></img>,0,FALSE,NA,sub87
NA,html-keyboard-response,97,283874,0.0-10.0-0.42,"""event"",""trial"",""time""
""fullscreenenter"",""0"",""3615""
","
","
","""event"",""trial"",""time""
""fullscreenenter"",""0"",""3615""
","
",null,"<div style=""font-size:60px;"">+</div>",NA,null,fixation,2020-06-23T17:21:30Z,NA,NA,NA,NA,NA,sub87
NA,mars-trial,98,287643,0.0-10.0-1.42,"""event"",""trial"",""time""
""fullscreenenter"",""0"",""3615""
","
","
","""event"",""trial"",""time""
""fullscreenenter"",""0"",""3615""
","
",3163.509999983944,<img style='border: 4px solid darkgrey;' src='img/tf1_43_M_ss3.jpeg'></img>,1,NA,exp,NA,0,<img src='img/tf1_43_T1_ss3_md.jpeg'></img>,0,TRUE,NA,sub87
NA,html-keyboard-response,99,288144,0.0-10.0-0.43,"""event"",""trial"",""time""
""fullscreenenter"",""0"",""3615""
","
","
","""event"",""trial"",""time""
""fullscreenenter"",""0"",""3615""
","
",null,"<div style=""font-size:60px;"">+</div>",NA,null,fixation,2020-06-23T17:21:34Z,NA,NA,NA,NA,NA,sub87
NA,mars-trial,100,296202,0.0-10.0-1.43,"""event"",""trial"",""time""
""fullscreenenter"",""0"",""3615""
","
","
","""event"",""trial"",""time""
""fullscreenenter"",""0"",""3615""
","
",7454.010000103153,<img style='border: 4px solid darkgrey;' src='img/tf1_44_M_ss1.jpeg'></img>,2,NA,exp,NA,3,<img src='img/tf1_44_T1_ss1_md.jpeg'></img>,0,FALSE,NA,sub87
NA,html-keyboard-response,101,296704,0.0-10.0-0.44,"""event"",""trial"",""time""
""fullscreenenter"",""0"",""3615""
","
","
","""event"",""trial"",""time""
""fullscreenenter"",""0"",""3615""
","
",null,"<div style=""font-size:60px;"">+</div>",NA,null,fixation,2020-06-23T17:21:42Z,NA,NA,NA,NA,NA,sub87
NA,mars-trial,102,301454,0.0-10.0-1.44,"""event"",""trial"",""time""
""fullscreenenter"",""0"",""3615""
","
","
","""event"",""trial"",""time""
""fullscreenenter"",""0"",""3615""
","
",4147.510000038892,<img style='border: 4px solid darkgrey;' src='img/tf1_45_M_ss2.jpeg'></img>,2,NA,exp,NA,3,<img src='img/tf1_45_T1_ss2_md.jpeg'></img>,0,FALSE,NA,sub87
NA,html-keyboard-response,103,301955,0.0-10.0-0.45,"""event"",""trial"",""time""
""fullscreenenter"",""0"",""3615""
","
","
","""event"",""trial"",""time""
""fullscreenenter"",""0"",""3615""
","
",null,"<div style=""font-size:60px;"">+</div>",NA,null,fixation,2020-06-23T17:21:48Z,NA,NA,NA,NA,NA,sub87
NA,mars-trial,104,311564,0.0-10.0-1.45,"""event"",""trial"",""time""
""fullscreenenter"",""0"",""3615""
","
","
","""event"",""trial"",""time""
""fullscreenenter"",""0"",""3615""
","
",9003.284999984317,<img style='border: 4px solid darkgrey;' src='img/tf1_46_M_ss3.jpeg'></img>,3,NA,exp,NA,3,<img src='img/tf1_46_T1_ss3_md.jpeg'></img>,0,FALSE,NA,sub87
NA,html-keyboard-response,105,312064,0.0-10.0-0.46,"""event"",""trial"",""time""
""fullscreenenter"",""0"",""3615""
","
","
","""event"",""trial"",""time""
""fullscreenenter"",""0"",""3615""
","
",null,"<div style=""font-size:60px;"">+</div>",NA,null,fixation,2020-06-23T17:21:58Z,NA,NA,NA,NA,NA,sub87
NA,mars-trial,106,315417,0.0-10.0-1.46,"""event"",""trial"",""time""
""fullscreenenter"",""0"",""3615""
","
","
","""event"",""trial"",""time""
""fullscreenenter"",""0"",""3615""
","
",2748.4049999620765,<img style='border: 4px solid darkgrey;' src='img/tf1_47_M_ss1.jpeg'></img>,3,NA,exp,NA,1,<img src='img/tf1_47_T1_ss1_md.jpeg'></img>,0,FALSE,NA,sub87
NA,html-keyboard-response,107,315918,0.0-10.0-0.47,"""event"",""trial"",""time""
""fullscreenenter"",""0"",""3615""
","
","
","""event"",""trial"",""time""
""fullscreenenter"",""0"",""3615""
","
",null,"<div style=""font-size:60px;"">+</div>",NA,null,fixation,2020-06-23T17:22:02Z,NA,NA,NA,NA,NA,sub87
NA,mars-trial,108,318768,0.0-10.0-1.47,"""event"",""trial"",""time""
""fullscreenenter"",""0"",""3615""
","
","
","""event"",""trial"",""time""
""fullscreenenter"",""0"",""3615""
","
",2246.1350000230595,<img style='border: 4px solid darkgrey;' src='img/tf1_48_M_ss2.jpeg'></img>,3,NA,exp,NA,1,<img src='img/tf1_48_T1_ss2_md.jpeg'></img>,0,FALSE,NA,sub87
NA,html-keyboard-response,109,319269,0.0-10.0-0.48,"""event"",""trial"",""time""
""fullscreenenter"",""0"",""3615""
","
","
","""event"",""trial"",""time""
""fullscreenenter"",""0"",""3615""
","
",null,"<div style=""font-size:60px;"">+</div>",NA,null,fixation,2020-06-23T17:22:05Z,NA,NA,NA,NA,NA,sub87
NA,mars-trial,110,328926,0.0-10.0-1.48,"""event"",""trial"",""time""
""fullscreenenter"",""0"",""3615""
","
","
","""event"",""trial"",""time""
""fullscreenenter"",""0"",""3615""
","
",9053.074999945238,<img style='border: 4px solid darkgrey;' src='img/tf1_49_M_ss3.jpeg'></img>,3,NA,exp,NA,0,<img src='img/tf1_49_T1_ss3_md.jpeg'></img>,0,TRUE,NA,sub87
NA,html-keyboard-response,111,329427,0.0-10.0-0.49,"""event"",""trial"",""time""
""fullscreenenter"",""0"",""3615""
","
","
","""event"",""trial"",""time""
""fullscreenenter"",""0"",""3615""
","
",null,"<div style=""font-size:60px;"">+</div>",NA,null,fixation,2020-06-23T17:22:15Z,NA,NA,NA,NA,NA,sub87
NA,mars-trial,112,337821,0.0-10.0-1.49,"""event"",""trial"",""time""
""fullscreenenter"",""0"",""3615""
","
","
","""event"",""trial"",""time""
""fullscreenenter"",""0"",""3615""
","
",7790.320000029169,<img style='border: 4px solid darkgrey;' src='img/tf1_50_M_ss1.jpeg'></img>,0,NA,exp,NA,0,<img src='img/tf1_50_T1_ss1_md.jpeg'></img>,0,TRUE,NA,sub87
NA,html-keyboard-response,113,338322,0.0-10.0-0.50,"""event"",""trial"",""time""
""fullscreenenter"",""0"",""3615""
","
","
","""event"",""trial"",""time""
""fullscreenenter"",""0"",""3615""
","
",null,"<div style=""font-size:60px;"">+</div>",NA,null,fixation,2020-06-23T17:22:24Z,NA,NA,NA,NA,NA,sub87
NA,mars-trial,114,344523,0.0-10.0-1.50,"""event"",""trial"",""time""
""fullscreenenter"",""0"",""3615""
","
","
","""event"",""trial"",""time""
""fullscreenenter"",""0"",""3615""
","
",5597.19000000041,<img style='border: 4px solid darkgrey;' src='img/tf1_51_M_ss2.jpeg'></img>,2,NA,exp,NA,0,<img src='img/tf1_51_T1_ss2_md.jpeg'></img>,0,TRUE,NA,sub87
NA,html-keyboard-response,115,345024,0.0-10.0-0.51,"""event"",""trial"",""time""
""fullscreenenter"",""0"",""3615""
","
","
","""event"",""trial"",""time""
""fullscreenenter"",""0"",""3615""
","
",null,"<div style=""font-size:60px;"">+</div>",NA,null,fixation,2020-06-23T17:22:31Z,NA,NA,NA,NA,NA,sub87
NA,mars-trial,116,351806,0.0-10.0-1.51,"""event"",""trial"",""time""
""fullscreenenter"",""0"",""3615""
","
","
","""event"",""trial"",""time""
""fullscreenenter"",""0"",""3615""
","
",6179.505000007339,<img style='border: 4px solid darkgrey;' src='img/tf1_52_M_ss3.jpeg'></img>,2,NA,exp,NA,2,<img src='img/tf1_52_T1_ss3_md.jpeg'></img>,0,FALSE,NA,sub87
NA,html-keyboard-response,117,352307,0.0-10.0-0.52,"""event"",""trial"",""time""
""fullscreenenter"",""0"",""3615""
","
","
","""event"",""trial"",""time""
""fullscreenenter"",""0"",""3615""
","
",null,"<div style=""font-size:60px;"">+</div>",NA,null,fixation,2020-06-23T17:22:38Z,NA,NA,NA,NA,NA,sub87
NA,mars-trial,118,357757,0.0-10.0-1.52,"""event"",""trial"",""time""
""fullscreenenter"",""0"",""3615""
","
","
","""event"",""trial"",""time""
""fullscreenenter"",""0"",""3615""
","
",4844.329999992624,<img style='border: 4px solid darkgrey;' src='img/tf1_53_M_ss1.jpeg'></img>,0,NA,exp,NA,3,<img src='img/tf1_53_T1_ss1_md.jpeg'></img>,0,FALSE,NA,sub87
NA,html-keyboard-response,119,358258,0.0-10.0-0.53,"""event"",""trial"",""time""
""fullscreenenter"",""0"",""3615""
","
","
","""event"",""trial"",""time""
""fullscreenenter"",""0"",""3615""
","
",null,"<div style=""font-size:60px;"">+</div>",NA,null,fixation,2020-06-23T17:22:44Z,NA,NA,NA,NA,NA,sub87
NA,mars-trial,120,363865,0.0-10.0-1.53,"""event"",""trial"",""time""
""fullscreenenter"",""0"",""3615""
","
","
","""event"",""trial"",""time""
""fullscreenenter"",""0"",""3615""
","
",5003.694999963045,<img style='border: 4px solid darkgrey;' src='img/tf1_54_M_ss2.jpeg'></img>,3,NA,exp,NA,1,<img src='img/tf1_54_T1_ss2_md.jpeg'></img>,0,FALSE,NA,sub87
NA,html-keyboard-response,121,364366,0.0-10.0-0.54,"""event"",""trial"",""time""
""fullscreenenter"",""0"",""3615""
","
","
","""event"",""trial"",""time""
""fullscreenenter"",""0"",""3615""
","
",null,"<div style=""font-size:60px;"">+</div>",NA,null,fixation,2020-06-23T17:22:50Z,NA,NA,NA,NA,NA,sub87
NA,mars-trial,122,367984,0.0-10.0-1.54,"""event"",""trial"",""time""
""fullscreenenter"",""0"",""3615""
","
","
","""event"",""trial"",""time""
""fullscreenenter"",""0"",""3615""
","
",3014.2450000857934,<img style='border: 4px solid darkgrey;' src='img/tf1_55_M_ss3.jpeg'></img>,1,NA,exp,NA,1,<img src='img/tf1_55_T1_ss3_md.jpeg'></img>,0,FALSE,NA,sub87
NA,html-keyboard-response,123,368485,0.0-10.0-0.55,"""event"",""trial"",""time""
""fullscreenenter"",""0"",""3615""
","
","
","""event"",""trial"",""time""
""fullscreenenter"",""0"",""3615""
","
",null,"<div style=""font-size:60px;"">+</div>",NA,null,fixation,2020-06-23T17:22:54Z,NA,NA,NA,NA,NA,sub87
NA,mars-trial,124,371896,0.0-10.0-1.55,"""event"",""trial"",""time""
""fullscreenenter"",""0"",""3615""
","
","
","""event"",""trial"",""time""
""fullscreenenter"",""0"",""3615""
","
",2805.7400000980124,<img style='border: 4px solid darkgrey;' src='img/tf1_56_M_ss1.jpeg'></img>,1,NA,exp,NA,2,<img src='img/tf1_56_T1_ss1_md.jpeg'></img>,0,FALSE,NA,sub87
NA,html-keyboard-response,125,372397,0.0-10.0-0.56,"""event"",""trial"",""time""
""fullscreenenter"",""0"",""3615""
","
","
","""event"",""trial"",""time""
""fullscreenenter"",""0"",""3615""
","
",null,"<div style=""font-size:60px;"">+</div>",NA,null,fixation,2020-06-23T17:22:58Z,NA,NA,NA,NA,NA,sub87
NA,mars-trial,126,375214,0.0-10.0-1.56,"""event"",""trial"",""time""
""fullscreenenter"",""0"",""3615""
","
","
","""event"",""trial"",""time""
""fullscreenenter"",""0"",""3615""
","
",2212.7699999837205,<img style='border: 4px solid darkgrey;' src='img/tf1_57_M_ss2.jpeg'></img>,1,NA,exp,NA,1,<img src='img/tf1_57_T1_ss2_md.jpeg'></img>,0,FALSE,NA,sub87
NA,html-keyboard-response,127,375715,0.0-10.0-0.57,"""event"",""trial"",""time""
""fullscreenenter"",""0"",""3615""
","
","
","""event"",""trial"",""time""
""fullscreenenter"",""0"",""3615""
","
",null,"<div style=""font-size:60px;"">+</div>",NA,null,fixation,2020-06-23T17:23:01Z,NA,NA,NA,NA,NA,sub87
NA,mars-trial,128,380989,0.0-10.0-1.57,"""event"",""trial"",""time""
""fullscreenenter"",""0"",""3615""
","
","
","""event"",""trial"",""time""
""fullscreenenter"",""0"",""3615""
","
",4670.949999941513,<img style='border: 4px solid darkgrey;' src='img/tf1_58_M_ss3.jpeg'></img>,2,NA,exp,NA,0,<img src='img/tf1_58_T1_ss3_md.jpeg'></img>,0,TRUE,NA,sub87
NA,html-keyboard-response,129,381490,0.0-10.0-0.58,"""event"",""trial"",""time""
""fullscreenenter"",""0"",""3615""
","
","
","""event"",""trial"",""time""
""fullscreenenter"",""0"",""3615""
","
",null,"<div style=""font-size:60px;"">+</div>",NA,null,fixation,2020-06-23T17:23:07Z,NA,NA,NA,NA,NA,sub87
NA,mars-trial,130,386300,0.0-10.0-1.58,"""event"",""trial"",""time""
""fullscreenenter"",""0"",""3615""
","
","
","""event"",""trial"",""time""
""fullscreenenter"",""0"",""3615""
","
",4206.034999922849,<img style='border: 4px solid darkgrey;' src='img/tf1_59_M_ss1.jpeg'></img>,1,NA,exp,NA,2,<img src='img/tf1_59_T1_ss1_md.jpeg'></img>,0,FALSE,NA,sub87
NA,html-keyboard-response,131,386801,0.0-10.0-0.59,"""event"",""trial"",""time""
""fullscreenenter"",""0"",""3615""
","
","
","""event"",""trial"",""time""
""fullscreenenter"",""0"",""3615""
","
",null,"<div style=""font-size:60px;"">+</div>",NA,null,fixation,2020-06-23T17:23:12Z,NA,NA,NA,NA,NA,sub87
NA,mars-trial,132,396793,0.0-10.0-1.59,"""event"",""trial"",""time""
""fullscreenenter"",""0"",""3615""
","
","
","""event"",""trial"",""time""
""fullscreenenter"",""0"",""3615""
","
",9388.879999984056,<img style='border: 4px solid darkgrey;' src='img/tf1_60_M_ss2.jpeg'></img>,3,NA,exp,NA,3,<img src='img/tf1_60_T1_ss2_md.jpeg'></img>,0,FALSE,NA,sub87
NA,html-keyboard-response,133,397294,0.0-10.0-0.60,"""event"",""trial"",""time""
""fullscreenenter"",""0"",""3615""
","
","
","""event"",""trial"",""time""
""fullscreenenter"",""0"",""3615""
","
",null,"<div style=""font-size:60px;"">+</div>",NA,null,fixation,2020-06-23T17:23:23Z,NA,NA,NA,NA,NA,sub87
NA,mars-trial,134,405217,0.0-10.0-1.60,"""event"",""trial"",""time""
""fullscreenenter"",""0"",""3615""
","
","
","""event"",""trial"",""time""
""fullscreenenter"",""0"",""3615""
","
",7319.704999914393,<img style='border: 4px solid darkgrey;' src='img/tf1_61_M_ss3.jpeg'></img>,3,NA,exp,NA,0,<img src='img/tf1_61_T1_ss3_md.jpeg'></img>,0,TRUE,NA,sub87
NA,html-keyboard-response,135,405718,0.0-10.0-0.61,"""event"",""trial"",""time""
""fullscreenenter"",""0"",""3615""
","
","
","""event"",""trial"",""time""
""fullscreenenter"",""0"",""3615""
","
",null,"<div style=""font-size:60px;"">+</div>",NA,null,fixation,2020-06-23T17:23:31Z,NA,NA,NA,NA,NA,sub87
NA,mars-trial,136,416674,0.0-10.0-1.61,"""event"",""trial"",""time""
""fullscreenenter"",""0"",""3615""
","
","
","""event"",""trial"",""time""
""fullscreenenter"",""0"",""3615""
","
",10351.405000081286,<img style='border: 4px solid darkgrey;' src='img/tf1_62_M_ss1.jpeg'></img>,3,NA,exp,NA,0,<img src='img/tf1_62_T1_ss1_md.jpeg'></img>,0,TRUE,NA,sub87
NA,html-keyboard-response,137,417175,0.0-10.0-0.62,"""event"",""trial"",""time""
""fullscreenenter"",""0"",""3615""
","
","
","""event"",""trial"",""time""
""fullscreenenter"",""0"",""3615""
","
",null,"<div style=""font-size:60px;"">+</div>",NA,null,fixation,2020-06-23T17:23:43Z,NA,NA,NA,NA,NA,sub87
NA,mars-trial,138,425061,0.0-10.0-1.62,"""event"",""trial"",""time""
""fullscreenenter"",""0"",""3615""
","
","
","""event"",""trial"",""time""
""fullscreenenter"",""0"",""3615""
","
",7282.095000031404,<img style='border: 4px solid darkgrey;' src='img/tf1_63_M_ss2.jpeg'></img>,2,NA,exp,NA,3,<img src='img/tf1_63_T1_ss2_md.jpeg'></img>,0,FALSE,NA,sub87
NA,html-keyboard-response,139,425562,0.0-10.0-0.63,"""event"",""trial"",""time""
""fullscreenenter"",""0"",""3615""
","
","
","""event"",""trial"",""time""
""fullscreenenter"",""0"",""3615""
","
",null,"<div style=""font-size:60px;"">+</div>",NA,null,fixation,2020-06-23T17:23:51Z,NA,NA,NA,NA,NA,sub87
NA,mars-trial,140,429827,0.0-10.0-1.63,"""event"",""trial"",""time""
""fullscreenenter"",""0"",""3615""
","
","
","""event"",""trial"",""time""
""fullscreenenter"",""0"",""3615""
","
",3661.2050000112504,<img style='border: 4px solid darkgrey;' src='img/tf1_64_M_ss3.jpeg'></img>,2,NA,exp,NA,1,<img src='img/tf1_64_T1_ss3_md.jpeg'></img>,0,FALSE,NA,sub87
NA,html-keyboard-response,141,430328,0.0-10.0-0.64,"""event"",""trial"",""time""
""fullscreenenter"",""0"",""3615""
","
","
","""event"",""trial"",""time""
""fullscreenenter"",""0"",""3615""
","
",null,"<div style=""font-size:60px;"">+</div>",NA,null,fixation,2020-06-23T17:23:56Z,NA,NA,NA,NA,NA,sub87
NA,mars-trial,142,438155,0.0-10.0-1.64,"""event"",""trial"",""time""
""fullscreenenter"",""0"",""3615""
","
","
","""event"",""trial"",""time""
""fullscreenenter"",""0"",""3615""
","
",7223.665000055917,<img style='border: 4px solid darkgrey;' src='img/tf1_65_M_ss1.jpeg'></img>,2,NA,exp,NA,0,<img src='img/tf1_65_T1_ss1_md.jpeg'></img>,0,TRUE,NA,sub87
NA,html-keyboard-response,143,438656,0.0-10.0-0.65,"""event"",""trial"",""time""
""fullscreenenter"",""0"",""3615""
","
","
","""event"",""trial"",""time""
""fullscreenenter"",""0"",""3615""
","
",null,"<div style=""font-size:60px;"">+</div>",NA,null,fixation,2020-06-23T17:24:04Z,NA,NA,NA,NA,NA,sub87
NA,mars-trial,144,444040,0.0-10.0-1.65,"""event"",""trial"",""time""
""fullscreenenter"",""0"",""3615""
","
","
","""event"",""trial"",""time""
""fullscreenenter"",""0"",""3615""
","
",4778.904999955557,<img style='border: 4px solid darkgrey;' src='img/tf1_66_M_ss2.jpeg'></img>,2,NA,exp,NA,1,<img src='img/tf1_66_T1_ss2_md.jpeg'></img>,0,FALSE,NA,sub87
NA,html-keyboard-response,145,444541,0.0-10.0-0.66,"""event"",""trial"",""time""
""fullscreenenter"",""0"",""3615""
","
","
","""event"",""trial"",""time""
""fullscreenenter"",""0"",""3615""
","
",null,"<div style=""font-size:60px;"">+</div>",NA,null,fixation,2020-06-23T17:24:10Z,NA,NA,NA,NA,NA,sub87
NA,mars-trial,146,448398,0.0-10.0-1.66,"""event"",""trial"",""time""
""fullscreenenter"",""0"",""3615""
","
","
","""event"",""trial"",""time""
""fullscreenenter"",""0"",""3615""
","
",3252.8650000458583,<img style='border: 4px solid darkgrey;' src='img/tf1_67_M_ss3.jpeg'></img>,0,NA,exp,NA,1,<img src='img/tf1_67_T1_ss3_md.jpeg'></img>,0,FALSE,NA,sub87
NA,html-keyboard-response,147,448900,0.0-10.0-0.67,"""event"",""trial"",""time""
""fullscreenenter"",""0"",""3615""
","
","
","""event"",""trial"",""time""
""fullscreenenter"",""0"",""3615""
","
",null,"<div style=""font-size:60px;"">+</div>",NA,null,fixation,2020-06-23T17:24:15Z,NA,NA,NA,NA,NA,sub87
NA,mars-trial,148,450784,0.0-10.0-1.67,"""event"",""trial"",""time""
""fullscreenenter"",""0"",""3615""
","
","
","""event"",""trial"",""time""
""fullscreenenter"",""0"",""3615""
","
",1280.2249999949709,<img style='border: 4px solid darkgrey;' src='img/tf1_68_M_ss1.jpeg'></img>,3,NA,exp,NA,0,<img src='img/tf1_68_T1_ss1_md.jpeg'></img>,0,TRUE,NA,sub87
NA,html-keyboard-response,149,451285,0.0-10.0-0.68,"""event"",""trial"",""time""
""fullscreenenter"",""0"",""3615""
","
","
","""event"",""trial"",""time""
""fullscreenenter"",""0"",""3615""
","
",null,"<div style=""font-size:60px;"">+</div>",NA,null,fixation,2020-06-23T17:24:17Z,NA,NA,NA,NA,NA,sub87
NA,mars-trial,150,460862,0.0-10.0-1.68,"""event"",""trial"",""time""
""fullscreenenter"",""0"",""3615""
","
","
","""event"",""trial"",""time""
""fullscreenenter"",""0"",""3615""
","
",8973.78000000026,<img style='border: 4px solid darkgrey;' src='img/tf1_69_M_ss2.jpeg'></img>,1,NA,exp,NA,0,<img src='img/tf1_69_T1_ss2_md.jpeg'></img>,0,TRUE,NA,sub87
NA,html-keyboard-response,151,461363,0.0-10.0-0.69,"""event"",""trial"",""time""
""fullscreenenter"",""0"",""3615""
","
","
","""event"",""trial"",""time""
""fullscreenenter"",""0"",""3615""
","
",null,"<div style=""font-size:60px;"">+</div>",NA,null,fixation,2020-06-23T17:24:27Z,NA,NA,NA,NA,NA,sub87
NA,mars-trial,152,473446,0.0-10.0-1.69,"""event"",""trial"",""time""
""fullscreenenter"",""0"",""3615""
","
","
","""event"",""trial"",""time""
""fullscreenenter"",""0"",""3615""
","
",11478.78500004299,<img style='border: 4px solid darkgrey;' src='img/tf1_70_M_ss3.jpeg'></img>,0,NA,exp,NA,0,<img src='img/tf1_70_T1_ss3_md.jpeg'></img>,0,TRUE,NA,sub87
NA,html-keyboard-response,153,473948,0.0-10.0-0.70,"""event"",""trial"",""time""
""fullscreenenter"",""0"",""3615""
","
","
","""event"",""trial"",""time""
""fullscreenenter"",""0"",""3615""
","
",null,"<div style=""font-size:60px;"">+</div>",NA,null,fixation,2020-06-23T17:24:40Z,NA,NA,NA,NA,NA,sub87
NA,mars-trial,154,478798,0.0-10.0-1.70,"""event"",""trial"",""time""
""fullscreenenter"",""0"",""3615""
","
","
","""event"",""trial"",""time""
""fullscreenenter"",""0"",""3615""
","
",4245.954999933019,<img style='border: 4px solid darkgrey;' src='img/tf1_71_M_ss1.jpeg'></img>,3,NA,exp,NA,0,<img src='img/tf1_71_T1_ss1_md.jpeg'></img>,0,TRUE,NA,sub87
NA,html-keyboard-response,155,479299,0.0-10.0-0.71,"""event"",""trial"",""time""
""fullscreenenter"",""0"",""3615""
","
","
","""event"",""trial"",""time""
""fullscreenenter"",""0"",""3615""
","
",null,"<div style=""font-size:60px;"">+</div>",NA,null,fixation,2020-06-23T17:24:45Z,NA,NA,NA,NA,NA,sub87
NA,mars-trial,156,487164,0.0-10.0-1.71,"""event"",""trial"",""time""
""fullscreenenter"",""0"",""3615""
","
","
","""event"",""trial"",""time""
""fullscreenenter"",""0"",""3615""
","
",7260.339999920689,<img style='border: 4px solid darkgrey;' src='img/tf1_72_M_ss2.jpeg'></img>,3,NA,exp,NA,0,<img src='img/tf1_72_T1_ss2_md.jpeg'></img>,0,TRUE,NA,sub87
NA,html-keyboard-response,157,487665,0.0-10.0-0.72,"""event"",""trial"",""time""
""fullscreenenter"",""0"",""3615""
","
","
","""event"",""trial"",""time""
""fullscreenenter"",""0"",""3615""
","
",null,"<div style=""font-size:60px;"">+</div>",NA,null,fixation,2020-06-23T17:24:53Z,NA,NA,NA,NA,NA,sub87
NA,mars-trial,158,495424,0.0-10.0-1.72,"""event"",""trial"",""time""
""fullscreenenter"",""0"",""3615""
","
","
","""event"",""trial"",""time""
""fullscreenenter"",""0"",""3615""
","
",7155.414999928325,<img style='border: 4px solid darkgrey;' src='img/tf1_73_M_ss3.jpeg'></img>,3,NA,exp,NA,1,<img src='img/tf1_73_T1_ss3_md.jpeg'></img>,0,FALSE,NA,sub87
NA,html-keyboard-response,159,495925,0.0-10.0-0.73,"""event"",""trial"",""time""
""fullscreenenter"",""0"",""3615""
","
","
","""event"",""trial"",""time""
""fullscreenenter"",""0"",""3615""
","
",null,"<div style=""font-size:60px;"">+</div>",NA,null,fixation,2020-06-23T17:25:02Z,NA,NA,NA,NA,NA,sub87
NA,mars-trial,160,508237,0.0-10.0-1.73,"""event"",""trial"",""time""
""fullscreenenter"",""0"",""3615""
","
","
","""event"",""trial"",""time""
""fullscreenenter"",""0"",""3615""
","
",11709.534999914467,<img style='border: 4px solid darkgrey;' src='img/tf1_74_M_ss1.jpeg'></img>,3,NA,exp,NA,1,<img src='img/tf1_74_T1_ss1_md.jpeg'></img>,0,FALSE,NA,sub87
NA,html-keyboard-response,161,508739,0.0-10.0-0.74,"""event"",""trial"",""time""
""fullscreenenter"",""0"",""3615""
","
","
","""event"",""trial"",""time""
""fullscreenenter"",""0"",""3615""
","
",null,"<div style=""font-size:60px;"">+</div>",NA,null,fixation,2020-06-23T17:25:14Z,NA,NA,NA,NA,NA,sub87
NA,mars-trial,162,513491,0.0-10.0-1.74,"""event"",""trial"",""time""
""fullscreenenter"",""0"",""3615""
","
","
","""event"",""trial"",""time""
""fullscreenenter"",""0"",""3615""
","
",4148.905000067316,<img style='border: 4px solid darkgrey;' src='img/tf1_75_M_ss2.jpeg'></img>,2,NA,exp,NA,3,<img src='img/tf1_75_T1_ss2_md.jpeg'></img>,0,FALSE,NA,sub87
NA,html-keyboard-response,163,513992,0.0-10.0-0.75,"""event"",""trial"",""time""
""fullscreenenter"",""0"",""3615""
","
","
","""event"",""trial"",""time""
""fullscreenenter"",""0"",""3615""
","
",null,"<div style=""font-size:60px;"">+</div>",NA,null,fixation,2020-06-23T17:25:20Z,NA,NA,NA,NA,NA,sub87
NA,mars-trial,164,516042,0.0-10.0-1.75,"""event"",""trial"",""time""
""fullscreenenter"",""0"",""3615""
","
","
","""event"",""trial"",""time""
""fullscreenenter"",""0"",""3615""
","
",1447.539999964647,<img style='border: 4px solid darkgrey;' src='img/tf1_76_M_ss3.jpeg'></img>,3,NA,exp,NA,2,<img src='img/tf1_76_T1_ss3_md.jpeg'></img>,0,FALSE,NA,sub87
NA,html-keyboard-response,165,516544,0.0-10.0-0.76,"""event"",""trial"",""time""
""fullscreenenter"",""0"",""3615""
","
","
","""event"",""trial"",""time""
""fullscreenenter"",""0"",""3615""
","
",null,"<div style=""font-size:60px;"">+</div>",NA,null,fixation,2020-06-23T17:25:22Z,NA,NA,NA,NA,NA,sub87
NA,mars-trial,166,527027,0.0-10.0-1.76,"""event"",""trial"",""time""
""fullscreenenter"",""0"",""3615""
","
","
","""event"",""trial"",""time""
""fullscreenenter"",""0"",""3615""
","
",9879.154999973252,<img style='border: 4px solid darkgrey;' src='img/tf1_77_M_ss1.jpeg'></img>,0,NA,exp,NA,2,<img src='img/tf1_77_T1_ss1_md.jpeg'></img>,0,FALSE,NA,sub87
NA,html-keyboard-response,167,527528,0.0-10.0-0.77,"""event"",""trial"",""time""
""fullscreenenter"",""0"",""3615""
","
","
","""event"",""trial"",""time""
""fullscreenenter"",""0"",""3615""
","
",null,"<div style=""font-size:60px;"">+</div>",NA,null,fixation,2020-06-23T17:25:33Z,NA,NA,NA,NA,NA,sub87
NA,mars-trial,168,529886,0.0-10.0-1.77,"""event"",""trial"",""time""
""fullscreenenter"",""0"",""3615""
","
","
","""event"",""trial"",""time""
""fullscreenenter"",""0"",""3615""
","
",1755.4150000214577,<img style='border: 4px solid darkgrey;' src='img/tf1_78_M_ss2.jpeg'></img>,3,NA,exp,NA,2,<img src='img/tf1_78_T1_ss2_md.jpeg'></img>,0,FALSE,NA,sub87
NA,html-keyboard-response,169,530387,0.0-10.0-0.78,"""event"",""trial"",""time""
""fullscreenenter"",""0"",""3615""
","
","
","""event"",""trial"",""time""
""fullscreenenter"",""0"",""3615""
","
",null,"<div style=""font-size:60px;"">+</div>",NA,null,fixation,2020-06-23T17:25:36Z,NA,NA,NA,NA,NA,sub87
NA,mars-trial,170,531313,0.0-10.0-1.78,"""event"",""trial"",""time""
""fullscreenenter"",""0"",""3615""
","
","
","""event"",""trial"",""time""
""fullscreenenter"",""0"",""3615""
","
",321.6699999757111,<img style='border: 4px solid darkgrey;' src='img/tf1_79_M_ss3.jpeg'></img>,3,NA,exp,NA,2,<img src='img/tf1_79_T1_ss3_md.jpeg'></img>,0,FALSE,NA,sub87
NA,html-keyboard-response,171,531814,0.0-10.0-0.79,"""event"",""trial"",""time""
""fullscreenenter"",""0"",""3615""
","
","
","""event"",""trial"",""time""
""fullscreenenter"",""0"",""3615""
","
",null,"<div style=""font-size:60px;"">+</div>",NA,null,fixation,2020-06-23T17:25:37Z,NA,NA,NA,NA,NA,sub87
NA,mars-trial,172,538851,0.0-10.0-1.79,"""event"",""trial"",""time""
""fullscreenenter"",""0"",""3615""
","
","
","""event"",""trial"",""time""
""fullscreenenter"",""0"",""3615""
","
",6434.275000006892,<img style='border: 4px solid darkgrey;' src='img/tf1_80_M_ss1.jpeg'></img>,2,NA,exp,NA,1,<img src='img/tf1_80_T1_ss1_md.jpeg'></img>,0,FALSE,NA,sub87
NA,audio-button-response,173,541961,0.0-11.0,"""event"",""trial"",""time""
""fullscreenenter"",""0"",""3615""
","
","
","""event"",""trial"",""time""
""fullscreenenter"",""0"",""3615""
","
",3108.325000037439,audio/mars_instructions_slide5.wav,0,NA,NA,NA,NA,NA,NA,NA,NA,sub87
