success,trial_type,trial_index,time_elapsed,internal_node_id,interactions,blur_events,focus_events,fullscreenenter_events,fullscreenexit_events,rt,stimulus,button_pressed,key_press,part,timestamp,unshuffled_button,correct_response,correct_button,correct,value,subject_id
TRUE,fullscreen,0,4577,0.0-0.0,"""event"",""trial"",""time""
""fullscreenenter"",""0"",""3600""
","
","
","""event"",""trial"",""time""
""fullscreenenter"",""0"",""3600""
","
",NA,NA,NA,NA,NA,NA,NA,NA,NA,NA,NA,sub36
NA,pavlovia,1,4591,0.0-1.0,"""event"",""trial"",""time""
""fullscreenenter"",""0"",""3600""
","
","
","""event"",""trial"",""time""
""fullscreenenter"",""0"",""3600""
","
",NA,NA,NA,NA,NA,NA,NA,NA,NA,NA,NA,sub36
NA,html-button-response,2,6261,0.0-2.0,"""event"",""trial"",""time""
""fullscreenenter"",""0"",""3600""
","
","
","""event"",""trial"",""time""
""fullscreenenter"",""0"",""3600""
","
",1665.6849999562837,<p>Welcome! Press START to begin.</p><br>,0,NA,NA,NA,NA,NA,NA,NA,NA,sub36
NA,audio-button-response,3,26961,0.0-3.0,"""event"",""trial"",""time""
""fullscreenenter"",""0"",""3600""
","
","
","""event"",""trial"",""time""
""fullscreenenter"",""0"",""3600""
","
",20698.45499994699,audio/mars_instructions_slide2.wav,0,NA,NA,NA,NA,NA,NA,NA,NA,sub36
NA,audio-button-response,4,50217,0.0-4.0,"""event"",""trial"",""time""
""fullscreenenter"",""0"",""3600""
","
","
","""event"",""trial"",""time""
""fullscreenenter"",""0"",""3600""
","
",23254.674999974668,audio/mars_instructions_slide3.wav,0,NA,NA,NA,NA,NA,NA,NA,NA,sub36
NA,html-keyboard-response,5,50719,0.0-5.0-0.0,"""event"",""trial"",""time""
""fullscreenenter"",""0"",""3600""
","
","
","""event"",""trial"",""time""
""fullscreenenter"",""0"",""3600""
","
",null,"<div style=""font-size:60px;"">+</div>",NA,null,fixation,2020-06-15T18:14:35Z,NA,NA,NA,NA,NA,sub36
NA,mars-trial,6,55508,0.0-5.0-1.0,"""event"",""trial"",""time""
""fullscreenenter"",""0"",""3600""
","
","
","""event"",""trial"",""time""
""fullscreenenter"",""0"",""3600""
","
",2682.589999982156,<img style='border: 4px solid darkgrey;' src='practice/pt1_M1.png'></img>,3,NA,practice,NA,2,<img src='practice/pt1_T1.png'></img>,0,FALSE,NA,sub36
NA,html-keyboard-response,7,56012,0.0-5.1-0.1,"""event"",""trial"",""time""
""fullscreenenter"",""0"",""3600""
","
","
","""event"",""trial"",""time""
""fullscreenenter"",""0"",""3600""
","
",null,"<div style=""font-size:60px;"">+</div>",NA,null,fixation,2020-06-15T18:14:40Z,NA,NA,NA,NA,NA,sub36
NA,mars-trial,8,67455,0.0-5.1-1.1,"""event"",""trial"",""time""
""fullscreenenter"",""0"",""3600""
","
","
","""event"",""trial"",""time""
""fullscreenenter"",""0"",""3600""
","
",9335.544999979902,<img style='border: 4px solid darkgrey;' src='practice/pt1_M1.png'></img>,2,NA,practice,NA,2,<img src='practice/pt1_T1.png'></img>,0,FALSE,NA,sub36
NA,html-keyboard-response,9,67959,0.0-5.2-0.2,"""event"",""trial"",""time""
""fullscreenenter"",""0"",""3600""
","
","
","""event"",""trial"",""time""
""fullscreenenter"",""0"",""3600""
","
",null,"<div style=""font-size:60px;"">+</div>",NA,null,fixation,2020-06-15T18:14:52Z,NA,NA,NA,NA,NA,sub36
NA,mars-trial,10,75568,0.0-5.2-1.2,"""event"",""trial"",""time""
""fullscreenenter"",""0"",""3600""
","
","
","""event"",""trial"",""time""
""fullscreenenter"",""0"",""3600""
","
",5501.029999984894,<img style='border: 4px solid darkgrey;' src='practice/pt1_M1.png'></img>,0,NA,practice,NA,0,<img src='practice/pt1_T1.png'></img>,0,TRUE,NA,sub36
NA,html-keyboard-response,11,76072,0.0-6.0-0.0,"""event"",""trial"",""time""
""fullscreenenter"",""0"",""3600""
","
","
","""event"",""trial"",""time""
""fullscreenenter"",""0"",""3600""
","
",null,"<div style=""font-size:60px;"">+</div>",NA,null,fixation,2020-06-15T18:15:00Z,NA,NA,NA,NA,NA,sub36
NA,mars-trial,12,81852,0.0-6.0-1.0,"""event"",""trial"",""time""
""fullscreenenter"",""0"",""3600""
","
","
","""event"",""trial"",""time""
""fullscreenenter"",""0"",""3600""
","
",3672.2699999809265,<img style='border: 4px solid darkgrey;' src='practice/pt2_M1.png'></img>,2,NA,practice,NA,0,<img src='practice/pt2_T1.png'></img>,0,TRUE,NA,sub36
NA,html-keyboard-response,13,82356,0.0-7.0-0.0,"""event"",""trial"",""time""
""fullscreenenter"",""0"",""3600""
","
","
","""event"",""trial"",""time""
""fullscreenenter"",""0"",""3600""
","
",null,"<div style=""font-size:60px;"">+</div>",NA,null,fixation,2020-06-15T18:15:06Z,NA,NA,NA,NA,NA,sub36
NA,mars-trial,14,86304,0.0-7.0-1.0,"""event"",""trial"",""time""
""fullscreenenter"",""0"",""3600""
","
","
","""event"",""trial"",""time""
""fullscreenenter"",""0"",""3600""
","
",1840.7550000119954,<img style='border: 4px solid darkgrey;' src='practice/pt3_M1.png'></img>,2,NA,practice,NA,0,<img src='practice/pt3_T1.png'></img>,0,TRUE,NA,sub36
NA,audio-button-response,15,90344,0.0-8.0,"""event"",""trial"",""time""
""fullscreenenter"",""0"",""3600""
","
","
","""event"",""trial"",""time""
""fullscreenenter"",""0"",""3600""
","
",4036.549999960698,audio/mars_instructions_slide4.wav,0,NA,NA,NA,NA,NA,NA,NA,NA,sub36
NA,call-function,16,90345,0.0-9.0,"""event"",""trial"",""time""
""fullscreenenter"",""0"",""3600""
","
","
","""event"",""trial"",""time""
""fullscreenenter"",""0"",""3600""
","
",NA,NA,NA,NA,NA,NA,NA,NA,NA,NA,NA,sub36
NA,html-keyboard-response,17,90846,0.0-10.0-0.0,"""event"",""trial"",""time""
""fullscreenenter"",""0"",""3600""
","
","
","""event"",""trial"",""time""
""fullscreenenter"",""0"",""3600""
","
",null,"<div style=""font-size:60px;"">+</div>",NA,null,fixation,2020-06-15T18:15:15Z,NA,NA,NA,NA,NA,sub36
NA,mars-trial,18,93336,0.0-10.0-1.0,"""event"",""trial"",""time""
""fullscreenenter"",""0"",""3600""
","
","
","""event"",""trial"",""time""
""fullscreenenter"",""0"",""3600""
","
",1882.7399999718182,<img style='border: 4px solid darkgrey;' src='img/tf1_1_M_ss3.jpeg'></img>,0,NA,exp,NA,0,<img src='img/tf1_1_T1_ss3_md.jpeg'></img>,0,TRUE,NA,sub36
NA,html-keyboard-response,19,93840,0.0-10.0-0.1,"""event"",""trial"",""time""
""fullscreenenter"",""0"",""3600""
","
","
","""event"",""trial"",""time""
""fullscreenenter"",""0"",""3600""
","
",null,"<div style=""font-size:60px;"">+</div>",NA,null,fixation,2020-06-15T18:15:18Z,NA,NA,NA,NA,NA,sub36
NA,mars-trial,20,96967,0.0-10.0-1.1,"""event"",""trial"",""time""
""fullscreenenter"",""0"",""3600""
","
","
","""event"",""trial"",""time""
""fullscreenenter"",""0"",""3600""
","
",2520.645000040531,<img style='border: 4px solid darkgrey;' src='img/tf1_2_M_ss1.jpeg'></img>,0,NA,exp,NA,0,<img src='img/tf1_2_T1_ss1_md.jpeg'></img>,0,TRUE,NA,sub36
NA,html-keyboard-response,21,97470,0.0-10.0-0.2,"""event"",""trial"",""time""
""fullscreenenter"",""0"",""3600""
","
","
","""event"",""trial"",""time""
""fullscreenenter"",""0"",""3600""
","
",null,"<div style=""font-size:60px;"">+</div>",NA,null,fixation,2020-06-15T18:15:21Z,NA,NA,NA,NA,NA,sub36
NA,mars-trial,22,100984,0.0-10.0-1.2,"""event"",""trial"",""time""
""fullscreenenter"",""0"",""3600""
","
","
","""event"",""trial"",""time""
""fullscreenenter"",""0"",""3600""
","
",2907.1399999666028,<img style='border: 4px solid darkgrey;' src='img/tf1_3_M_ss2.jpeg'></img>,1,NA,exp,NA,0,<img src='img/tf1_3_T1_ss2_md.jpeg'></img>,0,TRUE,NA,sub36
NA,html-keyboard-response,23,101487,0.0-10.0-0.3,"""event"",""trial"",""time""
""fullscreenenter"",""0"",""3600""
","
","
","""event"",""trial"",""time""
""fullscreenenter"",""0"",""3600""
","
",null,"<div style=""font-size:60px;"">+</div>",NA,null,fixation,2020-06-15T18:15:25Z,NA,NA,NA,NA,NA,sub36
NA,mars-trial,24,105590,0.0-10.0-1.3,"""event"",""trial"",""time""
""fullscreenenter"",""0"",""3600""
","
","
","""event"",""trial"",""time""
""fullscreenenter"",""0"",""3600""
","
",3496.6249999706633,<img style='border: 4px solid darkgrey;' src='img/tf1_4_M_ss3.jpeg'></img>,0,NA,exp,NA,0,<img src='img/tf1_4_T1_ss3_md.jpeg'></img>,0,TRUE,NA,sub36
NA,html-keyboard-response,25,106093,0.0-10.0-0.4,"""event"",""trial"",""time""
""fullscreenenter"",""0"",""3600""
","
","
","""event"",""trial"",""time""
""fullscreenenter"",""0"",""3600""
","
",null,"<div style=""font-size:60px;"">+</div>",NA,null,fixation,2020-06-15T18:15:30Z,NA,NA,NA,NA,NA,sub36
NA,mars-trial,26,108650,0.0-10.0-1.4,"""event"",""trial"",""time""
""fullscreenenter"",""0"",""3600""
","
","
","""event"",""trial"",""time""
""fullscreenenter"",""0"",""3600""
","
",1947.8799999924377,<img style='border: 4px solid darkgrey;' src='img/tf1_5_M_ss1.jpeg'></img>,2,NA,exp,NA,0,<img src='img/tf1_5_T1_ss1_md.jpeg'></img>,0,TRUE,NA,sub36
NA,html-keyboard-response,27,109153,0.0-10.0-0.5,"""event"",""trial"",""time""
""fullscreenenter"",""0"",""3600""
","
","
","""event"",""trial"",""time""
""fullscreenenter"",""0"",""3600""
","
",null,"<div style=""font-size:60px;"">+</div>",NA,null,fixation,2020-06-15T18:15:33Z,NA,NA,NA,NA,NA,sub36
NA,mars-trial,28,117088,0.0-10.0-1.5,"""event"",""trial"",""time""
""fullscreenenter"",""0"",""3600""
","
","
","""event"",""trial"",""time""
""fullscreenenter"",""0"",""3600""
","
",7329.949999984819,<img style='border: 4px solid darkgrey;' src='img/tf1_6_M_ss2.jpeg'></img>,0,NA,exp,NA,2,<img src='img/tf1_6_T1_ss2_md.jpeg'></img>,0,FALSE,NA,sub36
NA,html-keyboard-response,29,117592,0.0-10.0-0.6,"""event"",""trial"",""time""
""fullscreenenter"",""0"",""3600""
","
","
","""event"",""trial"",""time""
""fullscreenenter"",""0"",""3600""
","
",null,"<div style=""font-size:60px;"">+</div>",NA,null,fixation,2020-06-15T18:15:41Z,NA,NA,NA,NA,NA,sub36
NA,mars-trial,30,123614,0.0-10.0-1.6,"""event"",""trial"",""time""
""fullscreenenter"",""0"",""3600""
","
","
","""event"",""trial"",""time""
""fullscreenenter"",""0"",""3600""
","
",5413.865000009537,<img style='border: 4px solid darkgrey;' src='img/tf1_7_M_ss3.jpeg'></img>,2,NA,exp,NA,0,<img src='img/tf1_7_T1_ss3_md.jpeg'></img>,0,TRUE,NA,sub36
NA,html-keyboard-response,31,124117,0.0-10.0-0.7,"""event"",""trial"",""time""
""fullscreenenter"",""0"",""3600""
","
","
","""event"",""trial"",""time""
""fullscreenenter"",""0"",""3600""
","
",null,"<div style=""font-size:60px;"">+</div>",NA,null,fixation,2020-06-15T18:15:48Z,NA,NA,NA,NA,NA,sub36
NA,mars-trial,32,133816,0.0-10.0-1.7,"""event"",""trial"",""time""
""fullscreenenter"",""0"",""3600""
","
","
","""event"",""trial"",""time""
""fullscreenenter"",""0"",""3600""
","
",9090.250000008382,<img style='border: 4px solid darkgrey;' src='img/tf1_8_M_ss1.jpeg'></img>,1,NA,exp,NA,0,<img src='img/tf1_8_T1_ss1_md.jpeg'></img>,0,TRUE,NA,sub36
NA,html-keyboard-response,33,134318,0.0-10.0-0.8,"""event"",""trial"",""time""
""fullscreenenter"",""0"",""3600""
","
","
","""event"",""trial"",""time""
""fullscreenenter"",""0"",""3600""
","
",null,"<div style=""font-size:60px;"">+</div>",NA,null,fixation,2020-06-15T18:15:58Z,NA,NA,NA,NA,NA,sub36
NA,mars-trial,34,142329,0.0-10.0-1.8,"""event"",""trial"",""time""
""fullscreenenter"",""0"",""3600""
","
","
","""event"",""trial"",""time""
""fullscreenenter"",""0"",""3600""
","
",7398.660000006203,<img style='border: 4px solid darkgrey;' src='img/tf1_9_M_ss2.jpeg'></img>,2,NA,exp,NA,0,<img src='img/tf1_9_T1_ss2_md.jpeg'></img>,0,TRUE,NA,sub36
NA,html-keyboard-response,35,142833,0.0-10.0-0.9,"""event"",""trial"",""time""
""fullscreenenter"",""0"",""3600""
","
","
","""event"",""trial"",""time""
""fullscreenenter"",""0"",""3600""
","
",null,"<div style=""font-size:60px;"">+</div>",NA,null,fixation,2020-06-15T18:16:07Z,NA,NA,NA,NA,NA,sub36
NA,mars-trial,36,157619,0.0-10.0-1.9,"""event"",""trial"",""time""
""fullscreenenter"",""0"",""3600""
","
","
","""event"",""trial"",""time""
""fullscreenenter"",""0"",""3600""
","
",14178.775000036694,<img style='border: 4px solid darkgrey;' src='img/tf1_10_M_ss3.jpeg'></img>,1,NA,exp,NA,0,<img src='img/tf1_10_T1_ss3_md.jpeg'></img>,0,TRUE,NA,sub36
NA,html-keyboard-response,37,158124,0.0-10.0-0.10,"""event"",""trial"",""time""
""fullscreenenter"",""0"",""3600""
","
","
","""event"",""trial"",""time""
""fullscreenenter"",""0"",""3600""
","
",null,"<div style=""font-size:60px;"">+</div>",NA,null,fixation,2020-06-15T18:16:22Z,NA,NA,NA,NA,NA,sub36
NA,mars-trial,38,167397,0.0-10.0-1.10,"""event"",""trial"",""time""
""fullscreenenter"",""0"",""3600""
","
","
","""event"",""trial"",""time""
""fullscreenenter"",""0"",""3600""
","
",8663.809999998193,<img style='border: 4px solid darkgrey;' src='img/tf1_11_M_ss1.jpeg'></img>,0,NA,exp,NA,0,<img src='img/tf1_11_T1_ss1_md.jpeg'></img>,0,TRUE,NA,sub36
NA,html-keyboard-response,39,167900,0.0-10.0-0.11,"""event"",""trial"",""time""
""fullscreenenter"",""0"",""3600""
","
","
","""event"",""trial"",""time""
""fullscreenenter"",""0"",""3600""
","
",null,"<div style=""font-size:60px;"">+</div>",NA,null,fixation,2020-06-15T18:16:32Z,NA,NA,NA,NA,NA,sub36
NA,mars-trial,40,172480,0.0-10.0-1.11,"""event"",""trial"",""time""
""fullscreenenter"",""0"",""3600""
","
","
","""event"",""trial"",""time""
""fullscreenenter"",""0"",""3600""
","
",3970.770000014454,<img style='border: 4px solid darkgrey;' src='img/tf1_12_M_ss2.jpeg'></img>,3,NA,exp,NA,1,<img src='img/tf1_12_T1_ss2_md.jpeg'></img>,0,FALSE,NA,sub36
NA,html-keyboard-response,41,172983,0.0-10.0-0.12,"""event"",""trial"",""time""
""fullscreenenter"",""0"",""3600""
","
","
","""event"",""trial"",""time""
""fullscreenenter"",""0"",""3600""
","
",null,"<div style=""font-size:60px;"">+</div>",NA,null,fixation,2020-06-15T18:16:37Z,NA,NA,NA,NA,NA,sub36
NA,mars-trial,42,178745,0.0-10.0-1.12,"""event"",""trial"",""time""
""fullscreenenter"",""0"",""3600""
","
","
","""event"",""trial"",""time""
""fullscreenenter"",""0"",""3600""
","
",5153.604999999516,<img style='border: 4px solid darkgrey;' src='img/tf1_13_M_ss3.jpeg'></img>,3,NA,exp,NA,3,<img src='img/tf1_13_T1_ss3_md.jpeg'></img>,0,FALSE,NA,sub36
NA,html-keyboard-response,43,179248,0.0-10.0-0.13,"""event"",""trial"",""time""
""fullscreenenter"",""0"",""3600""
","
","
","""event"",""trial"",""time""
""fullscreenenter"",""0"",""3600""
","
",null,"<div style=""font-size:60px;"">+</div>",NA,null,fixation,2020-06-15T18:16:43Z,NA,NA,NA,NA,NA,sub36
NA,mars-trial,44,190850,0.0-10.0-1.13,"""event"",""trial"",""time""
""fullscreenenter"",""0"",""3600""
","
","
","""event"",""trial"",""time""
""fullscreenenter"",""0"",""3600""
","
",10994.66000002576,<img style='border: 4px solid darkgrey;' src='img/tf1_14_M_ss1.jpeg'></img>,1,NA,exp,NA,1,<img src='img/tf1_14_T1_ss1_md.jpeg'></img>,0,FALSE,NA,sub36
NA,html-keyboard-response,45,191353,0.0-10.0-0.14,"""event"",""trial"",""time""
""fullscreenenter"",""0"",""3600""
","
","
","""event"",""trial"",""time""
""fullscreenenter"",""0"",""3600""
","
",null,"<div style=""font-size:60px;"">+</div>",NA,null,fixation,2020-06-15T18:16:55Z,NA,NA,NA,NA,NA,sub36
NA,mars-trial,46,208542,0.0-10.0-1.14,"""event"",""trial"",""time""
""fullscreenenter"",""0"",""3600""
","
","
","""event"",""trial"",""time""
""fullscreenenter"",""0"",""3600""
","
",16578.489999985322,<img style='border: 4px solid darkgrey;' src='img/tf1_15_M_ss2.jpeg'></img>,1,NA,exp,NA,0,<img src='img/tf1_15_T1_ss2_md.jpeg'></img>,0,TRUE,NA,sub36
NA,html-keyboard-response,47,209046,0.0-10.0-0.15,"""event"",""trial"",""time""
""fullscreenenter"",""0"",""3600""
","
","
","""event"",""trial"",""time""
""fullscreenenter"",""0"",""3600""
","
",null,"<div style=""font-size:60px;"">+</div>",NA,null,fixation,2020-06-15T18:17:13Z,NA,NA,NA,NA,NA,sub36
NA,mars-trial,48,214629,0.0-10.0-1.15,"""event"",""trial"",""time""
""fullscreenenter"",""0"",""3600""
","
","
","""event"",""trial"",""time""
""fullscreenenter"",""0"",""3600""
","
",4973.35500002373,<img style='border: 4px solid darkgrey;' src='img/tf1_16_M_ss3.jpeg'></img>,3,NA,exp,NA,0,<img src='img/tf1_16_T1_ss3_md.jpeg'></img>,0,TRUE,NA,sub36
NA,html-keyboard-response,49,215133,0.0-10.0-0.16,"""event"",""trial"",""time""
""fullscreenenter"",""0"",""3600""
","
","
","""event"",""trial"",""time""
""fullscreenenter"",""0"",""3600""
","
",null,"<div style=""font-size:60px;"">+</div>",NA,null,fixation,2020-06-15T18:17:19Z,NA,NA,NA,NA,NA,sub36
NA,mars-trial,50,230470,0.0-10.0-1.16,"""event"",""trial"",""time""
""fullscreenenter"",""0"",""3600""
","
","
","""event"",""trial"",""time""
""fullscreenenter"",""0"",""3600""
","
",14730.940000037663,<img style='border: 4px solid darkgrey;' src='img/tf1_17_M_ss1.jpeg'></img>,0,NA,exp,NA,0,<img src='img/tf1_17_T1_ss1_md.jpeg'></img>,0,TRUE,NA,sub36
NA,html-keyboard-response,51,230974,0.0-10.0-0.17,"""event"",""trial"",""time""
""fullscreenenter"",""0"",""3600""
","
","
","""event"",""trial"",""time""
""fullscreenenter"",""0"",""3600""
","
",null,"<div style=""font-size:60px;"">+</div>",NA,null,fixation,2020-06-15T18:17:35Z,NA,NA,NA,NA,NA,sub36
NA,mars-trial,52,240238,0.0-10.0-1.17,"""event"",""trial"",""time""
""fullscreenenter"",""0"",""3600""
","
","
","""event"",""trial"",""time""
""fullscreenenter"",""0"",""3600""
","
",8656.885000003967,<img style='border: 4px solid darkgrey;' src='img/tf1_18_M_ss2.jpeg'></img>,2,NA,exp,NA,2,<img src='img/tf1_18_T1_ss2_md.jpeg'></img>,0,FALSE,NA,sub36
NA,html-keyboard-response,53,240742,0.0-10.0-0.18,"""event"",""trial"",""time""
""fullscreenenter"",""0"",""3600""
","
","
","""event"",""trial"",""time""
""fullscreenenter"",""0"",""3600""
","
",null,"<div style=""font-size:60px;"">+</div>",NA,null,fixation,2020-06-15T18:17:45Z,NA,NA,NA,NA,NA,sub36
NA,mars-trial,54,246297,0.0-10.0-1.18,"""event"",""trial"",""time""
""fullscreenenter"",""0"",""3600""
","
","
","""event"",""trial"",""time""
""fullscreenenter"",""0"",""3600""
","
",4948.655000014696,<img style='border: 4px solid darkgrey;' src='img/tf1_19_M_ss3.jpeg'></img>,0,NA,exp,NA,0,<img src='img/tf1_19_T1_ss3_md.jpeg'></img>,0,TRUE,NA,sub36
NA,html-keyboard-response,55,246799,0.0-10.0-0.19,"""event"",""trial"",""time""
""fullscreenenter"",""0"",""3600""
","
","
","""event"",""trial"",""time""
""fullscreenenter"",""0"",""3600""
","
",null,"<div style=""font-size:60px;"">+</div>",NA,null,fixation,2020-06-15T18:17:51Z,NA,NA,NA,NA,NA,sub36
NA,mars-trial,56,255571,0.0-10.0-1.19,"""event"",""trial"",""time""
""fullscreenenter"",""0"",""3600""
","
","
","""event"",""trial"",""time""
""fullscreenenter"",""0"",""3600""
","
",8165.134999959264,<img style='border: 4px solid darkgrey;' src='img/tf1_20_M_ss1.jpeg'></img>,1,NA,exp,NA,2,<img src='img/tf1_20_T1_ss1_md.jpeg'></img>,0,FALSE,NA,sub36
NA,html-keyboard-response,57,256074,0.0-10.0-0.20,"""event"",""trial"",""time""
""fullscreenenter"",""0"",""3600""
","
","
","""event"",""trial"",""time""
""fullscreenenter"",""0"",""3600""
","
",null,"<div style=""font-size:60px;"">+</div>",NA,null,fixation,2020-06-15T18:18:00Z,NA,NA,NA,NA,NA,sub36
NA,mars-trial,58,267293,0.0-10.0-1.20,"""event"",""trial"",""time""
""fullscreenenter"",""0"",""3600""
","
","
","""event"",""trial"",""time""
""fullscreenenter"",""0"",""3600""
","
",10610.34999997355,<img style='border: 4px solid darkgrey;' src='img/tf1_21_M_ss2.jpeg'></img>,3,NA,exp,NA,1,<img src='img/tf1_21_T1_ss2_md.jpeg'></img>,0,FALSE,NA,sub36
NA,html-keyboard-response,59,267797,0.0-10.0-0.21,"""event"",""trial"",""time""
""fullscreenenter"",""0"",""3600""
","
","
","""event"",""trial"",""time""
""fullscreenenter"",""0"",""3600""
","
",null,"<div style=""font-size:60px;"">+</div>",NA,null,fixation,2020-06-15T18:18:12Z,NA,NA,NA,NA,NA,sub36
NA,mars-trial,60,278047,0.0-10.0-1.21,"""event"",""trial"",""time""
""fullscreenenter"",""0"",""3600""
","
","
","""event"",""trial"",""time""
""fullscreenenter"",""0"",""3600""
","
",9643.924999982119,<img style='border: 4px solid darkgrey;' src='img/tf1_22_M_ss3.jpeg'></img>,2,NA,exp,NA,1,<img src='img/tf1_22_T1_ss3_md.jpeg'></img>,0,FALSE,NA,sub36
NA,html-keyboard-response,61,278550,0.0-10.0-0.22,"""event"",""trial"",""time""
""fullscreenenter"",""0"",""3600""
","
","
","""event"",""trial"",""time""
""fullscreenenter"",""0"",""3600""
","
",null,"<div style=""font-size:60px;"">+</div>",NA,null,fixation,2020-06-15T18:18:22Z,NA,NA,NA,NA,NA,sub36
NA,mars-trial,62,287091,0.0-10.0-1.22,"""event"",""trial"",""time""
""fullscreenenter"",""0"",""3600""
","
","
","""event"",""trial"",""time""
""fullscreenenter"",""0"",""3600""
","
",7923.819999967236,<img style='border: 4px solid darkgrey;' src='img/tf1_23_M_ss1.jpeg'></img>,3,NA,exp,NA,1,<img src='img/tf1_23_T1_ss1_md.jpeg'></img>,0,FALSE,NA,sub36
NA,html-keyboard-response,63,287596,0.0-10.0-0.23,"""event"",""trial"",""time""
""fullscreenenter"",""0"",""3600""
","
","
","""event"",""trial"",""time""
""fullscreenenter"",""0"",""3600""
","
",null,"<div style=""font-size:60px;"">+</div>",NA,null,fixation,2020-06-15T18:18:31Z,NA,NA,NA,NA,NA,sub36
NA,mars-trial,64,299408,0.0-10.0-1.23,"""event"",""trial"",""time""
""fullscreenenter"",""0"",""3600""
","
","
","""event"",""trial"",""time""
""fullscreenenter"",""0"",""3600""
","
",11203.975000011269,<img style='border: 4px solid darkgrey;' src='img/tf1_24_M_ss2.jpeg'></img>,3,NA,exp,NA,1,<img src='img/tf1_24_T1_ss2_md.jpeg'></img>,0,FALSE,NA,sub36
NA,html-keyboard-response,65,299912,0.0-10.0-0.24,"""event"",""trial"",""time""
""fullscreenenter"",""0"",""3600""
","
","
","""event"",""trial"",""time""
""fullscreenenter"",""0"",""3600""
","
",null,"<div style=""font-size:60px;"">+</div>",NA,null,fixation,2020-06-15T18:18:44Z,NA,NA,NA,NA,NA,sub36
NA,mars-trial,66,308300,0.0-10.0-1.24,"""event"",""trial"",""time""
""fullscreenenter"",""0"",""3600""
","
","
","""event"",""trial"",""time""
""fullscreenenter"",""0"",""3600""
","
",7780.249999952503,<img style='border: 4px solid darkgrey;' src='img/tf1_25_M_ss3.jpeg'></img>,0,NA,exp,NA,0,<img src='img/tf1_25_T1_ss3_md.jpeg'></img>,0,TRUE,NA,sub36
NA,html-keyboard-response,67,308802,0.0-10.0-0.25,"""event"",""trial"",""time""
""fullscreenenter"",""0"",""3600""
","
","
","""event"",""trial"",""time""
""fullscreenenter"",""0"",""3600""
","
",null,"<div style=""font-size:60px;"">+</div>",NA,null,fixation,2020-06-15T18:18:53Z,NA,NA,NA,NA,NA,sub36
NA,mars-trial,68,317382,0.0-10.0-1.25,"""event"",""trial"",""time""
""fullscreenenter"",""0"",""3600""
","
","
","""event"",""trial"",""time""
""fullscreenenter"",""0"",""3600""
","
",7970.164999947883,<img style='border: 4px solid darkgrey;' src='img/tf1_26_M_ss1.jpeg'></img>,3,NA,exp,NA,3,<img src='img/tf1_26_T1_ss1_md.jpeg'></img>,0,FALSE,NA,sub36
NA,html-keyboard-response,69,317885,0.0-10.0-0.26,"""event"",""trial"",""time""
""fullscreenenter"",""0"",""3600""
","
","
","""event"",""trial"",""time""
""fullscreenenter"",""0"",""3600""
","
",null,"<div style=""font-size:60px;"">+</div>",NA,null,fixation,2020-06-15T18:19:02Z,NA,NA,NA,NA,NA,sub36
NA,mars-trial,70,330204,0.0-10.0-1.26,"""event"",""trial"",""time""
""fullscreenenter"",""0"",""3600""
","
","
","""event"",""trial"",""time""
""fullscreenenter"",""0"",""3600""
","
",11710.640000004787,<img style='border: 4px solid darkgrey;' src='img/tf1_27_M_ss2.jpeg'></img>,3,NA,exp,NA,3,<img src='img/tf1_27_T1_ss2_md.jpeg'></img>,0,FALSE,NA,sub36
NA,html-keyboard-response,71,330707,0.0-10.0-0.27,"""event"",""trial"",""time""
""fullscreenenter"",""0"",""3600""
","
","
","""event"",""trial"",""time""
""fullscreenenter"",""0"",""3600""
","
",null,"<div style=""font-size:60px;"">+</div>",NA,null,fixation,2020-06-15T18:19:15Z,NA,NA,NA,NA,NA,sub36
NA,mars-trial,72,341335,0.0-10.0-1.27,"""event"",""trial"",""time""
""fullscreenenter"",""0"",""3600""
","
","
","""event"",""trial"",""time""
""fullscreenenter"",""0"",""3600""
","
",10020.979999972042,<img style='border: 4px solid darkgrey;' src='img/tf1_28_M_ss3.jpeg'></img>,2,NA,exp,NA,2,<img src='img/tf1_28_T1_ss3_md.jpeg'></img>,0,FALSE,NA,sub36
NA,html-keyboard-response,73,341837,0.0-10.0-0.28,"""event"",""trial"",""time""
""fullscreenenter"",""0"",""3600""
","
","
","""event"",""trial"",""time""
""fullscreenenter"",""0"",""3600""
","
",null,"<div style=""font-size:60px;"">+</div>",NA,null,fixation,2020-06-15T18:19:26Z,NA,NA,NA,NA,NA,sub36
NA,mars-trial,74,347056,0.0-10.0-1.28,"""event"",""trial"",""time""
""fullscreenenter"",""0"",""3600""
","
","
","""event"",""trial"",""time""
""fullscreenenter"",""0"",""3600""
","
",4609.360000002198,<img style='border: 4px solid darkgrey;' src='img/tf1_29_M_ss1.jpeg'></img>,3,NA,exp,NA,1,<img src='img/tf1_29_T1_ss1_md.jpeg'></img>,0,FALSE,NA,sub36
NA,html-keyboard-response,75,347559,0.0-10.0-0.29,"""event"",""trial"",""time""
""fullscreenenter"",""0"",""3600""
","
","
","""event"",""trial"",""time""
""fullscreenenter"",""0"",""3600""
","
",null,"<div style=""font-size:60px;"">+</div>",NA,null,fixation,2020-06-15T18:19:31Z,NA,NA,NA,NA,NA,sub36
NA,mars-trial,76,354130,0.0-10.0-1.29,"""event"",""trial"",""time""
""fullscreenenter"",""0"",""3600""
","
","
","""event"",""trial"",""time""
""fullscreenenter"",""0"",""3600""
","
",5962.299999955576,<img style='border: 4px solid darkgrey;' src='img/tf1_30_M_ss2.jpeg'></img>,2,NA,exp,NA,1,<img src='img/tf1_30_T1_ss2_md.jpeg'></img>,0,FALSE,NA,sub36
NA,html-keyboard-response,77,354633,0.0-10.0-0.30,"""event"",""trial"",""time""
""fullscreenenter"",""0"",""3600""
","
","
","""event"",""trial"",""time""
""fullscreenenter"",""0"",""3600""
","
",null,"<div style=""font-size:60px;"">+</div>",NA,null,fixation,2020-06-15T18:19:38Z,NA,NA,NA,NA,NA,sub36
NA,mars-trial,78,371455,0.0-10.0-1.30,"""event"",""trial"",""time""
""fullscreenenter"",""0"",""3600""
","
","
","""event"",""trial"",""time""
""fullscreenenter"",""0"",""3600""
","
",16215.204999956768,<img style='border: 4px solid darkgrey;' src='img/tf1_31_M_ss3.jpeg'></img>,2,NA,exp,NA,1,<img src='img/tf1_31_T1_ss3_md.jpeg'></img>,0,FALSE,NA,sub36
NA,html-keyboard-response,79,371959,0.0-10.0-0.31,"""event"",""trial"",""time""
""fullscreenenter"",""0"",""3600""
","
","
","""event"",""trial"",""time""
""fullscreenenter"",""0"",""3600""
","
",null,"<div style=""font-size:60px;"">+</div>",NA,null,fixation,2020-06-15T18:19:56Z,NA,NA,NA,NA,NA,sub36
NA,mars-trial,80,378525,0.0-10.0-1.31,"""event"",""trial"",""time""
""fullscreenenter"",""0"",""3600""
","
","
","""event"",""trial"",""time""
""fullscreenenter"",""0"",""3600""
","
",5958.169999998063,<img style='border: 4px solid darkgrey;' src='img/tf1_32_M_ss1.jpeg'></img>,1,NA,exp,NA,0,<img src='img/tf1_32_T1_ss1_md.jpeg'></img>,0,TRUE,NA,sub36
NA,html-keyboard-response,81,379028,0.0-10.0-0.32,"""event"",""trial"",""time""
""fullscreenenter"",""0"",""3600""
","
","
","""event"",""trial"",""time""
""fullscreenenter"",""0"",""3600""
","
",null,"<div style=""font-size:60px;"">+</div>",NA,null,fixation,2020-06-15T18:20:03Z,NA,NA,NA,NA,NA,sub36
NA,mars-trial,82,389661,0.0-10.0-1.32,"""event"",""trial"",""time""
""fullscreenenter"",""0"",""3600""
","
","
","""event"",""trial"",""time""
""fullscreenenter"",""0"",""3600""
","
",10017.860000021756,<img style='border: 4px solid darkgrey;' src='img/tf1_33_M_ss2.jpeg'></img>,0,NA,exp,NA,1,<img src='img/tf1_33_T1_ss2_md.jpeg'></img>,0,FALSE,NA,sub36
NA,html-keyboard-response,83,390165,0.0-10.0-0.33,"""event"",""trial"",""time""
""fullscreenenter"",""0"",""3600""
","
","
","""event"",""trial"",""time""
""fullscreenenter"",""0"",""3600""
","
",null,"<div style=""font-size:60px;"">+</div>",NA,null,fixation,2020-06-15T18:20:14Z,NA,NA,NA,NA,NA,sub36
NA,mars-trial,84,401992,0.0-10.0-1.33,"""event"",""trial"",""time""
""fullscreenenter"",""0"",""3600""
","
","
","""event"",""trial"",""time""
""fullscreenenter"",""0"",""3600""
","
",11220.110000052955,<img style='border: 4px solid darkgrey;' src='img/tf1_34_M_ss3.jpeg'></img>,0,NA,exp,NA,1,<img src='img/tf1_34_T1_ss3_md.jpeg'></img>,0,FALSE,NA,sub36
NA,html-keyboard-response,85,402497,0.0-10.0-0.34,"""event"",""trial"",""time""
""fullscreenenter"",""0"",""3600""
","
","
","""event"",""trial"",""time""
""fullscreenenter"",""0"",""3600""
","
",null,"<div style=""font-size:60px;"">+</div>",NA,null,fixation,2020-06-15T18:20:26Z,NA,NA,NA,NA,NA,sub36
NA,mars-trial,86,411303,0.0-10.0-1.34,"""event"",""trial"",""time""
""fullscreenenter"",""0"",""3600""
","
","
","""event"",""trial"",""time""
""fullscreenenter"",""0"",""3600""
","
",8199.320000014268,<img style='border: 4px solid darkgrey;' src='img/tf1_35_M_ss1.jpeg'></img>,2,NA,exp,NA,3,<img src='img/tf1_35_T1_ss1_md.jpeg'></img>,0,FALSE,NA,sub36
NA,html-keyboard-response,87,411808,0.0-10.0-0.35,"""event"",""trial"",""time""
""fullscreenenter"",""0"",""3600""
","
","
","""event"",""trial"",""time""
""fullscreenenter"",""0"",""3600""
","
",null,"<div style=""font-size:60px;"">+</div>",NA,null,fixation,2020-06-15T18:20:36Z,NA,NA,NA,NA,NA,sub36
NA,mars-trial,88,435581,0.0-10.0-1.35,"""event"",""trial"",""time""
""fullscreenenter"",""0"",""3600""
","
","
","""event"",""trial"",""time""
""fullscreenenter"",""0"",""3600""
","
",23165.3449999867,<img style='border: 4px solid darkgrey;' src='img/tf1_36_M_ss2.jpeg'></img>,3,NA,exp,NA,2,<img src='img/tf1_36_T1_ss2_md.jpeg'></img>,0,FALSE,NA,sub36
NA,html-keyboard-response,89,436083,0.0-10.0-0.36,"""event"",""trial"",""time""
""fullscreenenter"",""0"",""3600""
","
","
","""event"",""trial"",""time""
""fullscreenenter"",""0"",""3600""
","
",null,"<div style=""font-size:60px;"">+</div>",NA,null,fixation,2020-06-15T18:21:00Z,NA,NA,NA,NA,NA,sub36
NA,mars-trial,90,462148,0.0-10.0-1.36,"""event"",""trial"",""time""
""fullscreenenter"",""0"",""3600""
","
","
","""event"",""trial"",""time""
""fullscreenenter"",""0"",""3600""
","
",25456.0899999924,<img style='border: 4px solid darkgrey;' src='img/tf1_37_M_ss3.jpeg'></img>,3,NA,exp,NA,2,<img src='img/tf1_37_T1_ss3_md.jpeg'></img>,0,FALSE,NA,sub36
NA,html-keyboard-response,91,462650,0.0-10.0-0.37,"""event"",""trial"",""time""
""fullscreenenter"",""0"",""3600""
","
","
","""event"",""trial"",""time""
""fullscreenenter"",""0"",""3600""
","
",null,"<div style=""font-size:60px;"">+</div>",NA,null,fixation,2020-06-15T18:21:27Z,NA,NA,NA,NA,NA,sub36
NA,mars-trial,92,471624,0.0-10.0-1.37,"""event"",""trial"",""time""
""fullscreenenter"",""0"",""3600""
","
","
","""event"",""trial"",""time""
""fullscreenenter"",""0"",""3600""
","
",8366.825000033714,<img style='border: 4px solid darkgrey;' src='img/tf1_38_M_ss1.jpeg'></img>,2,NA,exp,NA,0,<img src='img/tf1_38_T1_ss1_md.jpeg'></img>,0,TRUE,NA,sub36
NA,html-keyboard-response,93,472128,0.0-10.0-0.38,"""event"",""trial"",""time""
""fullscreenenter"",""0"",""3600""
","
","
","""event"",""trial"",""time""
""fullscreenenter"",""0"",""3600""
","
",null,"<div style=""font-size:60px;"">+</div>",NA,null,fixation,2020-06-15T18:21:36Z,NA,NA,NA,NA,NA,sub36
NA,mars-trial,94,487417,0.0-10.0-1.38,"""event"",""trial"",""time""
""fullscreenenter"",""0"",""3600""
","
","
","""event"",""trial"",""time""
""fullscreenenter"",""0"",""3600""
","
",14684.230000013486,<img style='border: 4px solid darkgrey;' src='img/tf1_39_M_ss2.jpeg'></img>,3,NA,exp,NA,0,<img src='img/tf1_39_T1_ss2_md.jpeg'></img>,0,TRUE,NA,sub36
NA,html-keyboard-response,95,487920,0.0-10.0-0.39,"""event"",""trial"",""time""
""fullscreenenter"",""0"",""3600""
","
","
","""event"",""trial"",""time""
""fullscreenenter"",""0"",""3600""
","
",null,"<div style=""font-size:60px;"">+</div>",NA,null,fixation,2020-06-15T18:21:52Z,NA,NA,NA,NA,NA,sub36
NA,mars-trial,96,499507,0.0-10.0-1.39,"""event"",""trial"",""time""
""fullscreenenter"",""0"",""3600""
","
","
","""event"",""trial"",""time""
""fullscreenenter"",""0"",""3600""
","
",10979.389999993145,<img style='border: 4px solid darkgrey;' src='img/tf1_40_M_ss3.jpeg'></img>,1,NA,exp,NA,0,<img src='img/tf1_40_T1_ss3_md.jpeg'></img>,0,TRUE,NA,sub36
NA,html-keyboard-response,97,500010,0.0-10.0-0.40,"""event"",""trial"",""time""
""fullscreenenter"",""0"",""3600""
","
","
","""event"",""trial"",""time""
""fullscreenenter"",""0"",""3600""
","
",null,"<div style=""font-size:60px;"">+</div>",NA,null,fixation,2020-06-15T18:22:04Z,NA,NA,NA,NA,NA,sub36
NA,mars-trial,98,503563,0.0-10.0-1.40,"""event"",""trial"",""time""
""fullscreenenter"",""0"",""3600""
","
","
","""event"",""trial"",""time""
""fullscreenenter"",""0"",""3600""
","
",2944.610000005923,<img style='border: 4px solid darkgrey;' src='img/tf1_41_M_ss1.jpeg'></img>,1,NA,exp,NA,0,<img src='img/tf1_41_T1_ss1_md.jpeg'></img>,0,TRUE,NA,sub36
NA,html-keyboard-response,99,504066,0.0-10.0-0.41,"""event"",""trial"",""time""
""fullscreenenter"",""0"",""3600""
","
","
","""event"",""trial"",""time""
""fullscreenenter"",""0"",""3600""
","
",null,"<div style=""font-size:60px;"">+</div>",NA,null,fixation,2020-06-15T18:22:08Z,NA,NA,NA,NA,NA,sub36
NA,mars-trial,100,523450,0.0-10.0-1.41,"""event"",""trial"",""time""
""fullscreenenter"",""0"",""3600""
","
","
","""event"",""trial"",""time""
""fullscreenenter"",""0"",""3600""
","
",18774.824999971315,<img style='border: 4px solid darkgrey;' src='img/tf1_42_M_ss2.jpeg'></img>,0,NA,exp,NA,3,<img src='img/tf1_42_T1_ss2_md.jpeg'></img>,0,FALSE,NA,sub36
NA,html-keyboard-response,101,523952,0.0-10.0-0.42,"""event"",""trial"",""time""
""fullscreenenter"",""0"",""3600""
","
","
","""event"",""trial"",""time""
""fullscreenenter"",""0"",""3600""
","
",null,"<div style=""font-size:60px;"">+</div>",NA,null,fixation,2020-06-15T18:22:28Z,NA,NA,NA,NA,NA,sub36
NA,mars-trial,102,547929,0.0-10.0-1.42,"""event"",""trial"",""time""
""fullscreenenter"",""0"",""3600""
","
","
","""event"",""trial"",""time""
""fullscreenenter"",""0"",""3600""
","
",23369.189999997616,<img style='border: 4px solid darkgrey;' src='img/tf1_43_M_ss3.jpeg'></img>,1,NA,exp,NA,1,<img src='img/tf1_43_T1_ss3_md.jpeg'></img>,0,FALSE,NA,sub36
NA,html-keyboard-response,103,548431,0.0-10.0-0.43,"""event"",""trial"",""time""
""fullscreenenter"",""0"",""3600""
","
","
","""event"",""trial"",""time""
""fullscreenenter"",""0"",""3600""
","
",null,"<div style=""font-size:60px;"">+</div>",NA,null,fixation,2020-06-15T18:22:52Z,NA,NA,NA,NA,NA,sub36
NA,mars-trial,104,559084,0.0-10.0-1.43,"""event"",""trial"",""time""
""fullscreenenter"",""0"",""3600""
","
","
","""event"",""trial"",""time""
""fullscreenenter"",""0"",""3600""
","
",10044.880000001285,<img style='border: 4px solid darkgrey;' src='img/tf1_44_M_ss1.jpeg'></img>,3,NA,exp,NA,3,<img src='img/tf1_44_T1_ss1_md.jpeg'></img>,0,FALSE,NA,sub36
NA,html-keyboard-response,105,559587,0.0-10.0-0.44,"""event"",""trial"",""time""
""fullscreenenter"",""0"",""3600""
","
","
","""event"",""trial"",""time""
""fullscreenenter"",""0"",""3600""
","
",null,"<div style=""font-size:60px;"">+</div>",NA,null,fixation,2020-06-15T18:23:03Z,NA,NA,NA,NA,NA,sub36
NA,mars-trial,106,570063,0.0-10.0-1.44,"""event"",""trial"",""time""
""fullscreenenter"",""0"",""3600""
","
","
","""event"",""trial"",""time""
""fullscreenenter"",""0"",""3600""
","
",9868.400000035763,<img style='border: 4px solid darkgrey;' src='img/tf1_45_M_ss2.jpeg'></img>,2,NA,exp,NA,3,<img src='img/tf1_45_T1_ss2_md.jpeg'></img>,0,FALSE,NA,sub36
NA,html-keyboard-response,107,570347,0.0-10.0-0.45,"""event"",""trial"",""time""
""fullscreenenter"",""0"",""3600""
","
","
","""event"",""trial"",""time""
""fullscreenenter"",""0"",""3600""
","
",NA,NA,NA,NA,fixation,2020-06-15T18:23:14Z,NA,NA,NA,NA,NA,sub36
NA,audio-button-response,108,570565,0.0-11.0,"""event"",""trial"",""time""
""fullscreenenter"",""0"",""3600""
","
","
","""event"",""trial"",""time""
""fullscreenenter"",""0"",""3600""
","
",null,"<div style=""font-size:60px;"">+</div>",NA,null,NA,NA,NA,NA,NA,NA,NA,sub36
