success,trial_type,trial_index,time_elapsed,internal_node_id,interactions,blur_events,focus_events,fullscreenenter_events,fullscreenexit_events,rt,stimulus,button_pressed,key_press,part,timestamp,unshuffled_button,correct_response,correct_button,correct,value,subject_id
TRUE,fullscreen,0,2740,0.0-0.0,"""event"",""trial"",""time""
""focus"",""0"",""0""
""blur"",""0"",""0""
""focus"",""0"",""951""
""fullscreenenter"",""0"",""1846""
","""event"",""trial"",""time""
""blur"",""0"",""0""
","""event"",""trial"",""time""
""focus"",""0"",""0""
""focus"",""0"",""951""
","""event"",""trial"",""time""
""fullscreenenter"",""0"",""1846""
","
",NA,NA,NA,NA,NA,NA,NA,NA,NA,NA,NA,sub65
NA,pavlovia,1,2745,0.0-1.0,"""event"",""trial"",""time""
""focus"",""0"",""0""
""blur"",""0"",""0""
""focus"",""0"",""951""
""fullscreenenter"",""0"",""1846""
","""event"",""trial"",""time""
""blur"",""0"",""0""
","""event"",""trial"",""time""
""focus"",""0"",""0""
""focus"",""0"",""951""
","""event"",""trial"",""time""
""fullscreenenter"",""0"",""1846""
","
",NA,NA,NA,NA,NA,NA,NA,NA,NA,NA,NA,sub65
NA,html-button-response,2,4520,0.0-2.0,"""event"",""trial"",""time""
""focus"",""0"",""0""
""blur"",""0"",""0""
""focus"",""0"",""951""
""fullscreenenter"",""0"",""1846""
","""event"",""trial"",""time""
""blur"",""0"",""0""
","""event"",""trial"",""time""
""focus"",""0"",""0""
""focus"",""0"",""951""
","""event"",""trial"",""time""
""fullscreenenter"",""0"",""1846""
","
",1772,<p>Welcome! Press START to begin.</p><br>,0,NA,NA,NA,NA,NA,NA,NA,NA,sub65
NA,audio-button-response,3,9769,0.0-3.0,"""event"",""trial"",""time""
""focus"",""0"",""0""
""blur"",""0"",""0""
""focus"",""0"",""951""
""fullscreenenter"",""0"",""1846""
","""event"",""trial"",""time""
""blur"",""0"",""0""
","""event"",""trial"",""time""
""focus"",""0"",""0""
""focus"",""0"",""951""
","""event"",""trial"",""time""
""fullscreenenter"",""0"",""1846""
","
",5239,audio/mars_instructions_slide2.wav,0,NA,NA,NA,NA,NA,NA,NA,NA,sub65
NA,audio-button-response,4,13107,0.0-4.0,"""event"",""trial"",""time""
""focus"",""0"",""0""
""blur"",""0"",""0""
""focus"",""0"",""951""
""fullscreenenter"",""0"",""1846""
","""event"",""trial"",""time""
""blur"",""0"",""0""
","""event"",""trial"",""time""
""focus"",""0"",""0""
""focus"",""0"",""951""
","""event"",""trial"",""time""
""fullscreenenter"",""0"",""1846""
","
",3335,audio/mars_instructions_slide3.wav,0,NA,NA,NA,NA,NA,NA,NA,NA,sub65
NA,html-keyboard-response,5,13610,0.0-5.0-0.0,"""event"",""trial"",""time""
""focus"",""0"",""0""
""blur"",""0"",""0""
""focus"",""0"",""951""
""fullscreenenter"",""0"",""1846""
","""event"",""trial"",""time""
""blur"",""0"",""0""
","""event"",""trial"",""time""
""focus"",""0"",""0""
""focus"",""0"",""951""
","""event"",""trial"",""time""
""fullscreenenter"",""0"",""1846""
","
",null,"<div style=""font-size:60px;"">+</div>",NA,null,fixation,2020-06-16T18:39:33Z,NA,NA,NA,NA,NA,sub65
NA,mars-trial,6,35554,0.0-5.0-1.0,"""event"",""trial"",""time""
""focus"",""0"",""0""
""blur"",""0"",""0""
""focus"",""0"",""951""
""fullscreenenter"",""0"",""1846""
","""event"",""trial"",""time""
""blur"",""0"",""0""
","""event"",""trial"",""time""
""focus"",""0"",""0""
""focus"",""0"",""951""
","""event"",""trial"",""time""
""fullscreenenter"",""0"",""1846""
","
",19838,<img style='border: 4px solid darkgrey;' src='practice/pt1_M1.png'></img>,2,NA,practice,NA,0,<img src='practice/pt1_T1.png'></img>,0,TRUE,NA,sub65
NA,html-keyboard-response,7,36056,0.0-6.0-0.0,"""event"",""trial"",""time""
""focus"",""0"",""0""
""blur"",""0"",""0""
""focus"",""0"",""951""
""fullscreenenter"",""0"",""1846""
","""event"",""trial"",""time""
""blur"",""0"",""0""
","""event"",""trial"",""time""
""focus"",""0"",""0""
""focus"",""0"",""951""
","""event"",""trial"",""time""
""fullscreenenter"",""0"",""1846""
","
",null,"<div style=""font-size:60px;"">+</div>",NA,null,fixation,2020-06-16T18:39:56Z,NA,NA,NA,NA,NA,sub65
NA,mars-trial,8,40004,0.0-6.0-1.0,"""event"",""trial"",""time""
""focus"",""0"",""0""
""blur"",""0"",""0""
""focus"",""0"",""951""
""fullscreenenter"",""0"",""1846""
","""event"",""trial"",""time""
""blur"",""0"",""0""
","""event"",""trial"",""time""
""focus"",""0"",""0""
""focus"",""0"",""951""
","""event"",""trial"",""time""
""fullscreenenter"",""0"",""1846""
","
",1843,<img style='border: 4px solid darkgrey;' src='practice/pt2_M1.png'></img>,1,NA,practice,NA,0,<img src='practice/pt2_T1.png'></img>,0,TRUE,NA,sub65
NA,html-keyboard-response,9,40507,0.0-7.0-0.0,"""event"",""trial"",""time""
""focus"",""0"",""0""
""blur"",""0"",""0""
""focus"",""0"",""951""
""fullscreenenter"",""0"",""1846""
","""event"",""trial"",""time""
""blur"",""0"",""0""
","""event"",""trial"",""time""
""focus"",""0"",""0""
""focus"",""0"",""951""
","""event"",""trial"",""time""
""fullscreenenter"",""0"",""1846""
","
",null,"<div style=""font-size:60px;"">+</div>",NA,null,fixation,2020-06-16T18:40:00Z,NA,NA,NA,NA,NA,sub65
NA,mars-trial,10,43945,0.0-7.0-1.0,"""event"",""trial"",""time""
""focus"",""0"",""0""
""blur"",""0"",""0""
""focus"",""0"",""951""
""fullscreenenter"",""0"",""1846""
""blur"",""11"",""45873""
""focus"",""11"",""51379""
","""event"",""trial"",""time""
""blur"",""0"",""0""
""blur"",""11"",""45873""
","""event"",""trial"",""time""
""focus"",""0"",""0""
""focus"",""0"",""951""
""focus"",""11"",""51379""
","""event"",""trial"",""time""
""fullscreenenter"",""0"",""1846""
","
",1333,<img style='border: 4px solid darkgrey;' src='practice/pt3_M1.png'></img>,2,NA,practice,NA,0,<img src='practice/pt3_T1.png'></img>,0,TRUE,NA,sub65
NA,audio-button-response,11,51827,0.0-8.0,"""event"",""trial"",""time""
""focus"",""0"",""0""
""blur"",""0"",""0""
""focus"",""0"",""951""
""fullscreenenter"",""0"",""1846""
""blur"",""11"",""45873""
""focus"",""11"",""51379""
","""event"",""trial"",""time""
""blur"",""0"",""0""
""blur"",""11"",""45873""
","""event"",""trial"",""time""
""focus"",""0"",""0""
""focus"",""0"",""951""
""focus"",""11"",""51379""
","""event"",""trial"",""time""
""fullscreenenter"",""0"",""1846""
","
",7880,audio/mars_instructions_slide4.wav,0,NA,NA,NA,NA,NA,NA,NA,NA,sub65
NA,call-function,12,51828,0.0-9.0,"""event"",""trial"",""time""
""focus"",""0"",""0""
""blur"",""0"",""0""
""focus"",""0"",""951""
""fullscreenenter"",""0"",""1846""
""blur"",""11"",""45873""
""focus"",""11"",""51379""
","""event"",""trial"",""time""
""blur"",""0"",""0""
""blur"",""11"",""45873""
","""event"",""trial"",""time""
""focus"",""0"",""0""
""focus"",""0"",""951""
""focus"",""11"",""51379""
","""event"",""trial"",""time""
""fullscreenenter"",""0"",""1846""
","
",NA,NA,NA,NA,NA,NA,NA,NA,NA,NA,NA,sub65
NA,html-keyboard-response,13,52330,0.0-10.0-0.0,"""event"",""trial"",""time""
""focus"",""0"",""0""
""blur"",""0"",""0""
""focus"",""0"",""951""
""fullscreenenter"",""0"",""1846""
""blur"",""11"",""45873""
""focus"",""11"",""51379""
","""event"",""trial"",""time""
""blur"",""0"",""0""
""blur"",""11"",""45873""
","""event"",""trial"",""time""
""focus"",""0"",""0""
""focus"",""0"",""951""
""focus"",""11"",""51379""
","""event"",""trial"",""time""
""fullscreenenter"",""0"",""1846""
","
",null,"<div style=""font-size:60px;"">+</div>",NA,null,fixation,2020-06-16T18:40:12Z,NA,NA,NA,NA,NA,sub65
NA,mars-trial,14,54573,0.0-10.0-1.0,"""event"",""trial"",""time""
""focus"",""0"",""0""
""blur"",""0"",""0""
""focus"",""0"",""951""
""fullscreenenter"",""0"",""1846""
""blur"",""11"",""45873""
""focus"",""11"",""51379""
","""event"",""trial"",""time""
""blur"",""0"",""0""
""blur"",""11"",""45873""
","""event"",""trial"",""time""
""focus"",""0"",""0""
""focus"",""0"",""951""
""focus"",""11"",""51379""
","""event"",""trial"",""time""
""fullscreenenter"",""0"",""1846""
","
",1638,<img style='border: 4px solid darkgrey;' src='img/tf1_1_M_ss3.jpeg'></img>,2,NA,exp,NA,0,<img src='img/tf1_1_T1_ss3_md.jpeg'></img>,0,TRUE,NA,sub65
NA,html-keyboard-response,15,55075,0.0-10.0-0.1,"""event"",""trial"",""time""
""focus"",""0"",""0""
""blur"",""0"",""0""
""focus"",""0"",""951""
""fullscreenenter"",""0"",""1846""
""blur"",""11"",""45873""
""focus"",""11"",""51379""
","""event"",""trial"",""time""
""blur"",""0"",""0""
""blur"",""11"",""45873""
","""event"",""trial"",""time""
""focus"",""0"",""0""
""focus"",""0"",""951""
""focus"",""11"",""51379""
","""event"",""trial"",""time""
""fullscreenenter"",""0"",""1846""
","
",null,"<div style=""font-size:60px;"">+</div>",NA,null,fixation,2020-06-16T18:40:15Z,NA,NA,NA,NA,NA,sub65
NA,mars-trial,16,58602,0.0-10.0-1.1,"""event"",""trial"",""time""
""focus"",""0"",""0""
""blur"",""0"",""0""
""focus"",""0"",""951""
""fullscreenenter"",""0"",""1846""
""blur"",""11"",""45873""
""focus"",""11"",""51379""
","""event"",""trial"",""time""
""blur"",""0"",""0""
""blur"",""11"",""45873""
","""event"",""trial"",""time""
""focus"",""0"",""0""
""focus"",""0"",""951""
""focus"",""11"",""51379""
","""event"",""trial"",""time""
""fullscreenenter"",""0"",""1846""
","
",2923,<img style='border: 4px solid darkgrey;' src='img/tf1_2_M_ss1.jpeg'></img>,3,NA,exp,NA,0,<img src='img/tf1_2_T1_ss1_md.jpeg'></img>,0,TRUE,NA,sub65
NA,html-keyboard-response,17,59104,0.0-10.0-0.2,"""event"",""trial"",""time""
""focus"",""0"",""0""
""blur"",""0"",""0""
""focus"",""0"",""951""
""fullscreenenter"",""0"",""1846""
""blur"",""11"",""45873""
""focus"",""11"",""51379""
","""event"",""trial"",""time""
""blur"",""0"",""0""
""blur"",""11"",""45873""
","""event"",""trial"",""time""
""focus"",""0"",""0""
""focus"",""0"",""951""
""focus"",""11"",""51379""
","""event"",""trial"",""time""
""fullscreenenter"",""0"",""1846""
","
",null,"<div style=""font-size:60px;"">+</div>",NA,null,fixation,2020-06-16T18:40:19Z,NA,NA,NA,NA,NA,sub65
NA,mars-trial,18,61026,0.0-10.0-1.2,"""event"",""trial"",""time""
""focus"",""0"",""0""
""blur"",""0"",""0""
""focus"",""0"",""951""
""fullscreenenter"",""0"",""1846""
""blur"",""11"",""45873""
""focus"",""11"",""51379""
","""event"",""trial"",""time""
""blur"",""0"",""0""
""blur"",""11"",""45873""
","""event"",""trial"",""time""
""focus"",""0"",""0""
""focus"",""0"",""951""
""focus"",""11"",""51379""
","""event"",""trial"",""time""
""fullscreenenter"",""0"",""1846""
","
",1318.0000000000218,<img style='border: 4px solid darkgrey;' src='img/tf1_3_M_ss2.jpeg'></img>,3,NA,exp,NA,0,<img src='img/tf1_3_T1_ss2_md.jpeg'></img>,0,TRUE,NA,sub65
NA,html-keyboard-response,19,61528,0.0-10.0-0.3,"""event"",""trial"",""time""
""focus"",""0"",""0""
""blur"",""0"",""0""
""focus"",""0"",""951""
""fullscreenenter"",""0"",""1846""
""blur"",""11"",""45873""
""focus"",""11"",""51379""
","""event"",""trial"",""time""
""blur"",""0"",""0""
""blur"",""11"",""45873""
","""event"",""trial"",""time""
""focus"",""0"",""0""
""focus"",""0"",""951""
""focus"",""11"",""51379""
","""event"",""trial"",""time""
""fullscreenenter"",""0"",""1846""
","
",null,"<div style=""font-size:60px;"">+</div>",NA,null,fixation,2020-06-16T18:40:21Z,NA,NA,NA,NA,NA,sub65
NA,mars-trial,20,65289,0.0-10.0-1.3,"""event"",""trial"",""time""
""focus"",""0"",""0""
""blur"",""0"",""0""
""focus"",""0"",""951""
""fullscreenenter"",""0"",""1846""
""blur"",""11"",""45873""
""focus"",""11"",""51379""
","""event"",""trial"",""time""
""blur"",""0"",""0""
""blur"",""11"",""45873""
","""event"",""trial"",""time""
""focus"",""0"",""0""
""focus"",""0"",""951""
""focus"",""11"",""51379""
","""event"",""trial"",""time""
""fullscreenenter"",""0"",""1846""
","
",3156.0000000000146,<img style='border: 4px solid darkgrey;' src='img/tf1_4_M_ss3.jpeg'></img>,2,NA,exp,NA,0,<img src='img/tf1_4_T1_ss3_md.jpeg'></img>,0,TRUE,NA,sub65
NA,html-keyboard-response,21,65790,0.0-10.0-0.4,"""event"",""trial"",""time""
""focus"",""0"",""0""
""blur"",""0"",""0""
""focus"",""0"",""951""
""fullscreenenter"",""0"",""1846""
""blur"",""11"",""45873""
""focus"",""11"",""51379""
","""event"",""trial"",""time""
""blur"",""0"",""0""
""blur"",""11"",""45873""
","""event"",""trial"",""time""
""focus"",""0"",""0""
""focus"",""0"",""951""
""focus"",""11"",""51379""
","""event"",""trial"",""time""
""fullscreenenter"",""0"",""1846""
","
",null,"<div style=""font-size:60px;"">+</div>",NA,null,fixation,2020-06-16T18:40:25Z,NA,NA,NA,NA,NA,sub65
NA,mars-trial,22,68465,0.0-10.0-1.4,"""event"",""trial"",""time""
""focus"",""0"",""0""
""blur"",""0"",""0""
""focus"",""0"",""951""
""fullscreenenter"",""0"",""1846""
""blur"",""11"",""45873""
""focus"",""11"",""51379""
","""event"",""trial"",""time""
""blur"",""0"",""0""
""blur"",""11"",""45873""
","""event"",""trial"",""time""
""focus"",""0"",""0""
""focus"",""0"",""951""
""focus"",""11"",""51379""
","""event"",""trial"",""time""
""fullscreenenter"",""0"",""1846""
","
",2070,<img style='border: 4px solid darkgrey;' src='img/tf1_5_M_ss1.jpeg'></img>,1,NA,exp,NA,0,<img src='img/tf1_5_T1_ss1_md.jpeg'></img>,0,TRUE,NA,sub65
NA,html-keyboard-response,23,68967,0.0-10.0-0.5,"""event"",""trial"",""time""
""focus"",""0"",""0""
""blur"",""0"",""0""
""focus"",""0"",""951""
""fullscreenenter"",""0"",""1846""
""blur"",""11"",""45873""
""focus"",""11"",""51379""
","""event"",""trial"",""time""
""blur"",""0"",""0""
""blur"",""11"",""45873""
","""event"",""trial"",""time""
""focus"",""0"",""0""
""focus"",""0"",""951""
""focus"",""11"",""51379""
","""event"",""trial"",""time""
""fullscreenenter"",""0"",""1846""
","
",null,"<div style=""font-size:60px;"">+</div>",NA,null,fixation,2020-06-16T18:40:29Z,NA,NA,NA,NA,NA,sub65
NA,mars-trial,24,80743,0.0-10.0-1.5,"""event"",""trial"",""time""
""focus"",""0"",""0""
""blur"",""0"",""0""
""focus"",""0"",""951""
""fullscreenenter"",""0"",""1846""
""blur"",""11"",""45873""
""focus"",""11"",""51379""
","""event"",""trial"",""time""
""blur"",""0"",""0""
""blur"",""11"",""45873""
","""event"",""trial"",""time""
""focus"",""0"",""0""
""focus"",""0"",""951""
""focus"",""11"",""51379""
","""event"",""trial"",""time""
""fullscreenenter"",""0"",""1846""
","
",11171,<img style='border: 4px solid darkgrey;' src='img/tf1_6_M_ss2.jpeg'></img>,2,NA,exp,NA,0,<img src='img/tf1_6_T1_ss2_md.jpeg'></img>,0,TRUE,NA,sub65
NA,html-keyboard-response,25,81245,0.0-10.0-0.6,"""event"",""trial"",""time""
""focus"",""0"",""0""
""blur"",""0"",""0""
""focus"",""0"",""951""
""fullscreenenter"",""0"",""1846""
""blur"",""11"",""45873""
""focus"",""11"",""51379""
","""event"",""trial"",""time""
""blur"",""0"",""0""
""blur"",""11"",""45873""
","""event"",""trial"",""time""
""focus"",""0"",""0""
""focus"",""0"",""951""
""focus"",""11"",""51379""
","""event"",""trial"",""time""
""fullscreenenter"",""0"",""1846""
","
",null,"<div style=""font-size:60px;"">+</div>",NA,null,fixation,2020-06-16T18:40:41Z,NA,NA,NA,NA,NA,sub65
NA,mars-trial,26,85588,0.0-10.0-1.6,"""event"",""trial"",""time""
""focus"",""0"",""0""
""blur"",""0"",""0""
""focus"",""0"",""951""
""fullscreenenter"",""0"",""1846""
""blur"",""11"",""45873""
""focus"",""11"",""51379""
","""event"",""trial"",""time""
""blur"",""0"",""0""
""blur"",""11"",""45873""
","""event"",""trial"",""time""
""focus"",""0"",""0""
""focus"",""0"",""951""
""focus"",""11"",""51379""
","""event"",""trial"",""time""
""fullscreenenter"",""0"",""1846""
","
",3739,<img style='border: 4px solid darkgrey;' src='img/tf1_7_M_ss3.jpeg'></img>,3,NA,exp,NA,0,<img src='img/tf1_7_T1_ss3_md.jpeg'></img>,0,TRUE,NA,sub65
NA,html-keyboard-response,27,86089,0.0-10.0-0.7,"""event"",""trial"",""time""
""focus"",""0"",""0""
""blur"",""0"",""0""
""focus"",""0"",""951""
""fullscreenenter"",""0"",""1846""
""blur"",""11"",""45873""
""focus"",""11"",""51379""
","""event"",""trial"",""time""
""blur"",""0"",""0""
""blur"",""11"",""45873""
","""event"",""trial"",""time""
""focus"",""0"",""0""
""focus"",""0"",""951""
""focus"",""11"",""51379""
","""event"",""trial"",""time""
""fullscreenenter"",""0"",""1846""
","
",null,"<div style=""font-size:60px;"">+</div>",NA,null,fixation,2020-06-16T18:40:46Z,NA,NA,NA,NA,NA,sub65
NA,mars-trial,28,94645,0.0-10.0-1.7,"""event"",""trial"",""time""
""focus"",""0"",""0""
""blur"",""0"",""0""
""focus"",""0"",""951""
""fullscreenenter"",""0"",""1846""
""blur"",""11"",""45873""
""focus"",""11"",""51379""
","""event"",""trial"",""time""
""blur"",""0"",""0""
""blur"",""11"",""45873""
","""event"",""trial"",""time""
""focus"",""0"",""0""
""focus"",""0"",""951""
""focus"",""11"",""51379""
","""event"",""trial"",""time""
""fullscreenenter"",""0"",""1846""
","
",7952,<img style='border: 4px solid darkgrey;' src='img/tf1_8_M_ss1.jpeg'></img>,0,NA,exp,NA,0,<img src='img/tf1_8_T1_ss1_md.jpeg'></img>,0,TRUE,NA,sub65
NA,html-keyboard-response,29,95147,0.0-10.0-0.8,"""event"",""trial"",""time""
""focus"",""0"",""0""
""blur"",""0"",""0""
""focus"",""0"",""951""
""fullscreenenter"",""0"",""1846""
""blur"",""11"",""45873""
""focus"",""11"",""51379""
","""event"",""trial"",""time""
""blur"",""0"",""0""
""blur"",""11"",""45873""
","""event"",""trial"",""time""
""focus"",""0"",""0""
""focus"",""0"",""951""
""focus"",""11"",""51379""
","""event"",""trial"",""time""
""fullscreenenter"",""0"",""1846""
","
",null,"<div style=""font-size:60px;"">+</div>",NA,null,fixation,2020-06-16T18:40:55Z,NA,NA,NA,NA,NA,sub65
NA,mars-trial,30,100140,0.0-10.0-1.8,"""event"",""trial"",""time""
""focus"",""0"",""0""
""blur"",""0"",""0""
""focus"",""0"",""951""
""fullscreenenter"",""0"",""1846""
""blur"",""11"",""45873""
""focus"",""11"",""51379""
","""event"",""trial"",""time""
""blur"",""0"",""0""
""blur"",""11"",""45873""
","""event"",""trial"",""time""
""focus"",""0"",""0""
""focus"",""0"",""951""
""focus"",""11"",""51379""
","""event"",""trial"",""time""
""fullscreenenter"",""0"",""1846""
","
",4389,<img style='border: 4px solid darkgrey;' src='img/tf1_9_M_ss2.jpeg'></img>,0,NA,exp,NA,0,<img src='img/tf1_9_T1_ss2_md.jpeg'></img>,0,TRUE,NA,sub65
NA,html-keyboard-response,31,100642,0.0-10.0-0.9,"""event"",""trial"",""time""
""focus"",""0"",""0""
""blur"",""0"",""0""
""focus"",""0"",""951""
""fullscreenenter"",""0"",""1846""
""blur"",""11"",""45873""
""focus"",""11"",""51379""
","""event"",""trial"",""time""
""blur"",""0"",""0""
""blur"",""11"",""45873""
","""event"",""trial"",""time""
""focus"",""0"",""0""
""focus"",""0"",""951""
""focus"",""11"",""51379""
","""event"",""trial"",""time""
""fullscreenenter"",""0"",""1846""
","
",null,"<div style=""font-size:60px;"">+</div>",NA,null,fixation,2020-06-16T18:41:00Z,NA,NA,NA,NA,NA,sub65
NA,mars-trial,32,114008,0.0-10.0-1.9,"""event"",""trial"",""time""
""focus"",""0"",""0""
""blur"",""0"",""0""
""focus"",""0"",""951""
""fullscreenenter"",""0"",""1846""
""blur"",""11"",""45873""
""focus"",""11"",""51379""
","""event"",""trial"",""time""
""blur"",""0"",""0""
""blur"",""11"",""45873""
","""event"",""trial"",""time""
""focus"",""0"",""0""
""focus"",""0"",""951""
""focus"",""11"",""51379""
","""event"",""trial"",""time""
""fullscreenenter"",""0"",""1846""
","
",12761,<img style='border: 4px solid darkgrey;' src='img/tf1_10_M_ss3.jpeg'></img>,2,NA,exp,NA,0,<img src='img/tf1_10_T1_ss3_md.jpeg'></img>,0,TRUE,NA,sub65
NA,html-keyboard-response,33,114510,0.0-10.0-0.10,"""event"",""trial"",""time""
""focus"",""0"",""0""
""blur"",""0"",""0""
""focus"",""0"",""951""
""fullscreenenter"",""0"",""1846""
""blur"",""11"",""45873""
""focus"",""11"",""51379""
","""event"",""trial"",""time""
""blur"",""0"",""0""
""blur"",""11"",""45873""
","""event"",""trial"",""time""
""focus"",""0"",""0""
""focus"",""0"",""951""
""focus"",""11"",""51379""
","""event"",""trial"",""time""
""fullscreenenter"",""0"",""1846""
","
",null,"<div style=""font-size:60px;"">+</div>",NA,null,fixation,2020-06-16T18:41:14Z,NA,NA,NA,NA,NA,sub65
NA,mars-trial,34,128134,0.0-10.0-1.10,"""event"",""trial"",""time""
""focus"",""0"",""0""
""blur"",""0"",""0""
""focus"",""0"",""951""
""fullscreenenter"",""0"",""1846""
""blur"",""11"",""45873""
""focus"",""11"",""51379""
","""event"",""trial"",""time""
""blur"",""0"",""0""
""blur"",""11"",""45873""
","""event"",""trial"",""time""
""focus"",""0"",""0""
""focus"",""0"",""951""
""focus"",""11"",""51379""
","""event"",""trial"",""time""
""fullscreenenter"",""0"",""1846""
","
",13019,<img style='border: 4px solid darkgrey;' src='img/tf1_11_M_ss1.jpeg'></img>,0,NA,exp,NA,0,<img src='img/tf1_11_T1_ss1_md.jpeg'></img>,0,TRUE,NA,sub65
NA,html-keyboard-response,35,128636,0.0-10.0-0.11,"""event"",""trial"",""time""
""focus"",""0"",""0""
""blur"",""0"",""0""
""focus"",""0"",""951""
""fullscreenenter"",""0"",""1846""
""blur"",""11"",""45873""
""focus"",""11"",""51379""
","""event"",""trial"",""time""
""blur"",""0"",""0""
""blur"",""11"",""45873""
","""event"",""trial"",""time""
""focus"",""0"",""0""
""focus"",""0"",""951""
""focus"",""11"",""51379""
","""event"",""trial"",""time""
""fullscreenenter"",""0"",""1846""
","
",null,"<div style=""font-size:60px;"">+</div>",NA,null,fixation,2020-06-16T18:41:28Z,NA,NA,NA,NA,NA,sub65
NA,mars-trial,36,158715,0.0-10.0-1.11,"""event"",""trial"",""time""
""focus"",""0"",""0""
""blur"",""0"",""0""
""focus"",""0"",""951""
""fullscreenenter"",""0"",""1846""
""blur"",""11"",""45873""
""focus"",""11"",""51379""
","""event"",""trial"",""time""
""blur"",""0"",""0""
""blur"",""11"",""45873""
","""event"",""trial"",""time""
""focus"",""0"",""0""
""focus"",""0"",""951""
""focus"",""11"",""51379""
","""event"",""trial"",""time""
""fullscreenenter"",""0"",""1846""
","
",29474,<img style='border: 4px solid darkgrey;' src='img/tf1_12_M_ss2.jpeg'></img>,0,NA,exp,NA,3,<img src='img/tf1_12_T1_ss2_md.jpeg'></img>,0,FALSE,NA,sub65
NA,html-keyboard-response,37,159217,0.0-10.0-0.12,"""event"",""trial"",""time""
""focus"",""0"",""0""
""blur"",""0"",""0""
""focus"",""0"",""951""
""fullscreenenter"",""0"",""1846""
""blur"",""11"",""45873""
""focus"",""11"",""51379""
","""event"",""trial"",""time""
""blur"",""0"",""0""
""blur"",""11"",""45873""
","""event"",""trial"",""time""
""focus"",""0"",""0""
""focus"",""0"",""951""
""focus"",""11"",""51379""
","""event"",""trial"",""time""
""fullscreenenter"",""0"",""1846""
","
",null,"<div style=""font-size:60px;"">+</div>",NA,null,fixation,2020-06-16T18:41:59Z,NA,NA,NA,NA,NA,sub65
NA,mars-trial,38,181047,0.0-10.0-1.12,"""event"",""trial"",""time""
""focus"",""0"",""0""
""blur"",""0"",""0""
""focus"",""0"",""951""
""fullscreenenter"",""0"",""1846""
""blur"",""11"",""45873""
""focus"",""11"",""51379""
","""event"",""trial"",""time""
""blur"",""0"",""0""
""blur"",""11"",""45873""
","""event"",""trial"",""time""
""focus"",""0"",""0""
""focus"",""0"",""951""
""focus"",""11"",""51379""
","""event"",""trial"",""time""
""fullscreenenter"",""0"",""1846""
","
",21225.00000000003,<img style='border: 4px solid darkgrey;' src='img/tf1_13_M_ss3.jpeg'></img>,2,NA,exp,NA,0,<img src='img/tf1_13_T1_ss3_md.jpeg'></img>,0,TRUE,NA,sub65
NA,html-keyboard-response,39,181549,0.0-10.0-0.13,"""event"",""trial"",""time""
""focus"",""0"",""0""
""blur"",""0"",""0""
""focus"",""0"",""951""
""fullscreenenter"",""0"",""1846""
""blur"",""11"",""45873""
""focus"",""11"",""51379""
","""event"",""trial"",""time""
""blur"",""0"",""0""
""blur"",""11"",""45873""
","""event"",""trial"",""time""
""focus"",""0"",""0""
""focus"",""0"",""951""
""focus"",""11"",""51379""
","""event"",""trial"",""time""
""fullscreenenter"",""0"",""1846""
","
",null,"<div style=""font-size:60px;"">+</div>",NA,null,fixation,2020-06-16T18:42:21Z,NA,NA,NA,NA,NA,sub65
NA,mars-trial,40,197275,0.0-10.0-1.13,"""event"",""trial"",""time""
""focus"",""0"",""0""
""blur"",""0"",""0""
""focus"",""0"",""951""
""fullscreenenter"",""0"",""1846""
""blur"",""11"",""45873""
""focus"",""11"",""51379""
","""event"",""trial"",""time""
""blur"",""0"",""0""
""blur"",""11"",""45873""
","""event"",""trial"",""time""
""focus"",""0"",""0""
""focus"",""0"",""951""
""focus"",""11"",""51379""
","""event"",""trial"",""time""
""fullscreenenter"",""0"",""1846""
","
",15120.99999999997,<img style='border: 4px solid darkgrey;' src='img/tf1_14_M_ss1.jpeg'></img>,0,NA,exp,NA,3,<img src='img/tf1_14_T1_ss1_md.jpeg'></img>,0,FALSE,NA,sub65
NA,html-keyboard-response,41,197777,0.0-10.0-0.14,"""event"",""trial"",""time""
""focus"",""0"",""0""
""blur"",""0"",""0""
""focus"",""0"",""951""
""fullscreenenter"",""0"",""1846""
""blur"",""11"",""45873""
""focus"",""11"",""51379""
","""event"",""trial"",""time""
""blur"",""0"",""0""
""blur"",""11"",""45873""
","""event"",""trial"",""time""
""focus"",""0"",""0""
""focus"",""0"",""951""
""focus"",""11"",""51379""
","""event"",""trial"",""time""
""fullscreenenter"",""0"",""1846""
","
",null,"<div style=""font-size:60px;"">+</div>",NA,null,fixation,2020-06-16T18:42:37Z,NA,NA,NA,NA,NA,sub65
NA,mars-trial,42,210479,0.0-10.0-1.14,"""event"",""trial"",""time""
""focus"",""0"",""0""
""blur"",""0"",""0""
""focus"",""0"",""951""
""fullscreenenter"",""0"",""1846""
""blur"",""11"",""45873""
""focus"",""11"",""51379""
","""event"",""trial"",""time""
""blur"",""0"",""0""
""blur"",""11"",""45873""
","""event"",""trial"",""time""
""focus"",""0"",""0""
""focus"",""0"",""951""
""focus"",""11"",""51379""
","""event"",""trial"",""time""
""fullscreenenter"",""0"",""1846""
","
",12097,<img style='border: 4px solid darkgrey;' src='img/tf1_15_M_ss2.jpeg'></img>,0,NA,exp,NA,0,<img src='img/tf1_15_T1_ss2_md.jpeg'></img>,0,TRUE,NA,sub65
NA,html-keyboard-response,43,210980,0.0-10.0-0.15,"""event"",""trial"",""time""
""focus"",""0"",""0""
""blur"",""0"",""0""
""focus"",""0"",""951""
""fullscreenenter"",""0"",""1846""
""blur"",""11"",""45873""
""focus"",""11"",""51379""
","""event"",""trial"",""time""
""blur"",""0"",""0""
""blur"",""11"",""45873""
","""event"",""trial"",""time""
""focus"",""0"",""0""
""focus"",""0"",""951""
""focus"",""11"",""51379""
","""event"",""trial"",""time""
""fullscreenenter"",""0"",""1846""
","
",null,"<div style=""font-size:60px;"">+</div>",NA,null,fixation,2020-06-16T18:42:51Z,NA,NA,NA,NA,NA,sub65
NA,mars-trial,44,221482,0.0-10.0-1.15,"""event"",""trial"",""time""
""focus"",""0"",""0""
""blur"",""0"",""0""
""focus"",""0"",""951""
""fullscreenenter"",""0"",""1846""
""blur"",""11"",""45873""
""focus"",""11"",""51379""
","""event"",""trial"",""time""
""blur"",""0"",""0""
""blur"",""11"",""45873""
","""event"",""trial"",""time""
""focus"",""0"",""0""
""focus"",""0"",""951""
""focus"",""11"",""51379""
","""event"",""trial"",""time""
""fullscreenenter"",""0"",""1846""
","
",9897,<img style='border: 4px solid darkgrey;' src='img/tf1_16_M_ss3.jpeg'></img>,2,NA,exp,NA,0,<img src='img/tf1_16_T1_ss3_md.jpeg'></img>,0,TRUE,NA,sub65
NA,html-keyboard-response,45,221984,0.0-10.0-0.16,"""event"",""trial"",""time""
""focus"",""0"",""0""
""blur"",""0"",""0""
""focus"",""0"",""951""
""fullscreenenter"",""0"",""1846""
""blur"",""11"",""45873""
""focus"",""11"",""51379""
","""event"",""trial"",""time""
""blur"",""0"",""0""
""blur"",""11"",""45873""
","""event"",""trial"",""time""
""focus"",""0"",""0""
""focus"",""0"",""951""
""focus"",""11"",""51379""
","""event"",""trial"",""time""
""fullscreenenter"",""0"",""1846""
","
",null,"<div style=""font-size:60px;"">+</div>",NA,null,fixation,2020-06-16T18:43:02Z,NA,NA,NA,NA,NA,sub65
NA,mars-trial,46,231527,0.0-10.0-1.16,"""event"",""trial"",""time""
""focus"",""0"",""0""
""blur"",""0"",""0""
""focus"",""0"",""951""
""fullscreenenter"",""0"",""1846""
""blur"",""11"",""45873""
""focus"",""11"",""51379""
","""event"",""trial"",""time""
""blur"",""0"",""0""
""blur"",""11"",""45873""
","""event"",""trial"",""time""
""focus"",""0"",""0""
""focus"",""0"",""951""
""focus"",""11"",""51379""
","""event"",""trial"",""time""
""fullscreenenter"",""0"",""1846""
","
",8940,<img style='border: 4px solid darkgrey;' src='img/tf1_17_M_ss1.jpeg'></img>,1,NA,exp,NA,0,<img src='img/tf1_17_T1_ss1_md.jpeg'></img>,0,TRUE,NA,sub65
NA,html-keyboard-response,47,232029,0.0-10.0-0.17,"""event"",""trial"",""time""
""focus"",""0"",""0""
""blur"",""0"",""0""
""focus"",""0"",""951""
""fullscreenenter"",""0"",""1846""
""blur"",""11"",""45873""
""focus"",""11"",""51379""
","""event"",""trial"",""time""
""blur"",""0"",""0""
""blur"",""11"",""45873""
","""event"",""trial"",""time""
""focus"",""0"",""0""
""focus"",""0"",""951""
""focus"",""11"",""51379""
","""event"",""trial"",""time""
""fullscreenenter"",""0"",""1846""
","
",null,"<div style=""font-size:60px;"">+</div>",NA,null,fixation,2020-06-16T18:43:12Z,NA,NA,NA,NA,NA,sub65
NA,mars-trial,48,261142,0.0-10.0-1.17,"""event"",""trial"",""time""
""focus"",""0"",""0""
""blur"",""0"",""0""
""focus"",""0"",""951""
""fullscreenenter"",""0"",""1846""
""blur"",""11"",""45873""
""focus"",""11"",""51379""
","""event"",""trial"",""time""
""blur"",""0"",""0""
""blur"",""11"",""45873""
","""event"",""trial"",""time""
""focus"",""0"",""0""
""focus"",""0"",""951""
""focus"",""11"",""51379""
","""event"",""trial"",""time""
""fullscreenenter"",""0"",""1846""
","
",28508,<img style='border: 4px solid darkgrey;' src='img/tf1_18_M_ss2.jpeg'></img>,1,NA,exp,NA,0,<img src='img/tf1_18_T1_ss2_md.jpeg'></img>,0,TRUE,NA,sub65
NA,html-keyboard-response,49,261643,0.0-10.0-0.18,"""event"",""trial"",""time""
""focus"",""0"",""0""
""blur"",""0"",""0""
""focus"",""0"",""951""
""fullscreenenter"",""0"",""1846""
""blur"",""11"",""45873""
""focus"",""11"",""51379""
","""event"",""trial"",""time""
""blur"",""0"",""0""
""blur"",""11"",""45873""
","""event"",""trial"",""time""
""focus"",""0"",""0""
""focus"",""0"",""951""
""focus"",""11"",""51379""
","""event"",""trial"",""time""
""fullscreenenter"",""0"",""1846""
","
",null,"<div style=""font-size:60px;"">+</div>",NA,null,fixation,2020-06-16T18:43:41Z,NA,NA,NA,NA,NA,sub65
NA,mars-trial,50,268865,0.0-10.0-1.18,"""event"",""trial"",""time""
""focus"",""0"",""0""
""blur"",""0"",""0""
""focus"",""0"",""951""
""fullscreenenter"",""0"",""1846""
""blur"",""11"",""45873""
""focus"",""11"",""51379""
","""event"",""trial"",""time""
""blur"",""0"",""0""
""blur"",""11"",""45873""
","""event"",""trial"",""time""
""focus"",""0"",""0""
""focus"",""0"",""951""
""focus"",""11"",""51379""
","""event"",""trial"",""time""
""fullscreenenter"",""0"",""1846""
","
",6618,<img style='border: 4px solid darkgrey;' src='img/tf1_19_M_ss3.jpeg'></img>,2,NA,exp,NA,0,<img src='img/tf1_19_T1_ss3_md.jpeg'></img>,0,TRUE,NA,sub65
NA,html-keyboard-response,51,269367,0.0-10.0-0.19,"""event"",""trial"",""time""
""focus"",""0"",""0""
""blur"",""0"",""0""
""focus"",""0"",""951""
""fullscreenenter"",""0"",""1846""
""blur"",""11"",""45873""
""focus"",""11"",""51379""
","""event"",""trial"",""time""
""blur"",""0"",""0""
""blur"",""11"",""45873""
","""event"",""trial"",""time""
""focus"",""0"",""0""
""focus"",""0"",""951""
""focus"",""11"",""51379""
","""event"",""trial"",""time""
""fullscreenenter"",""0"",""1846""
","
",null,"<div style=""font-size:60px;"">+</div>",NA,null,fixation,2020-06-16T18:43:49Z,NA,NA,NA,NA,NA,sub65
NA,mars-trial,52,274672,0.0-10.0-1.19,"""event"",""trial"",""time""
""focus"",""0"",""0""
""blur"",""0"",""0""
""focus"",""0"",""951""
""fullscreenenter"",""0"",""1846""
""blur"",""11"",""45873""
""focus"",""11"",""51379""
","""event"",""trial"",""time""
""blur"",""0"",""0""
""blur"",""11"",""45873""
","""event"",""trial"",""time""
""focus"",""0"",""0""
""focus"",""0"",""951""
""focus"",""11"",""51379""
","""event"",""trial"",""time""
""fullscreenenter"",""0"",""1846""
","
",4700,<img style='border: 4px solid darkgrey;' src='img/tf1_20_M_ss1.jpeg'></img>,1,NA,exp,NA,0,<img src='img/tf1_20_T1_ss1_md.jpeg'></img>,0,TRUE,NA,sub65
NA,html-keyboard-response,53,275174,0.0-10.0-0.20,"""event"",""trial"",""time""
""focus"",""0"",""0""
""blur"",""0"",""0""
""focus"",""0"",""951""
""fullscreenenter"",""0"",""1846""
""blur"",""11"",""45873""
""focus"",""11"",""51379""
","""event"",""trial"",""time""
""blur"",""0"",""0""
""blur"",""11"",""45873""
","""event"",""trial"",""time""
""focus"",""0"",""0""
""focus"",""0"",""951""
""focus"",""11"",""51379""
","""event"",""trial"",""time""
""fullscreenenter"",""0"",""1846""
","
",null,"<div style=""font-size:60px;"">+</div>",NA,null,fixation,2020-06-16T18:43:55Z,NA,NA,NA,NA,NA,sub65
NA,mars-trial,54,304763,0.0-10.0-1.20,"""event"",""trial"",""time""
""focus"",""0"",""0""
""blur"",""0"",""0""
""focus"",""0"",""951""
""fullscreenenter"",""0"",""1846""
""blur"",""11"",""45873""
""focus"",""11"",""51379""
","""event"",""trial"",""time""
""blur"",""0"",""0""
""blur"",""11"",""45873""
","""event"",""trial"",""time""
""focus"",""0"",""0""
""focus"",""0"",""951""
""focus"",""11"",""51379""
","""event"",""trial"",""time""
""fullscreenenter"",""0"",""1846""
","
",28983,<img style='border: 4px solid darkgrey;' src='img/tf1_21_M_ss2.jpeg'></img>,0,NA,exp,NA,0,<img src='img/tf1_21_T1_ss2_md.jpeg'></img>,0,TRUE,NA,sub65
NA,html-keyboard-response,55,305265,0.0-10.0-0.21,"""event"",""trial"",""time""
""focus"",""0"",""0""
""blur"",""0"",""0""
""focus"",""0"",""951""
""fullscreenenter"",""0"",""1846""
""blur"",""11"",""45873""
""focus"",""11"",""51379""
","""event"",""trial"",""time""
""blur"",""0"",""0""
""blur"",""11"",""45873""
","""event"",""trial"",""time""
""focus"",""0"",""0""
""focus"",""0"",""951""
""focus"",""11"",""51379""
","""event"",""trial"",""time""
""fullscreenenter"",""0"",""1846""
","
",null,"<div style=""font-size:60px;"">+</div>",NA,null,fixation,2020-06-16T18:44:25Z,NA,NA,NA,NA,NA,sub65
NA,mars-trial,56,311558,0.0-10.0-1.21,"""event"",""trial"",""time""
""focus"",""0"",""0""
""blur"",""0"",""0""
""focus"",""0"",""951""
""fullscreenenter"",""0"",""1846""
""blur"",""11"",""45873""
""focus"",""11"",""51379""
","""event"",""trial"",""time""
""blur"",""0"",""0""
""blur"",""11"",""45873""
","""event"",""trial"",""time""
""focus"",""0"",""0""
""focus"",""0"",""951""
""focus"",""11"",""51379""
","""event"",""trial"",""time""
""fullscreenenter"",""0"",""1846""
","
",5690,<img style='border: 4px solid darkgrey;' src='img/tf1_22_M_ss3.jpeg'></img>,1,NA,exp,NA,3,<img src='img/tf1_22_T1_ss3_md.jpeg'></img>,0,FALSE,NA,sub65
NA,html-keyboard-response,57,312060,0.0-10.0-0.22,"""event"",""trial"",""time""
""focus"",""0"",""0""
""blur"",""0"",""0""
""focus"",""0"",""951""
""fullscreenenter"",""0"",""1846""
""blur"",""11"",""45873""
""focus"",""11"",""51379""
","""event"",""trial"",""time""
""blur"",""0"",""0""
""blur"",""11"",""45873""
","""event"",""trial"",""time""
""focus"",""0"",""0""
""focus"",""0"",""951""
""focus"",""11"",""51379""
","""event"",""trial"",""time""
""fullscreenenter"",""0"",""1846""
","
",null,"<div style=""font-size:60px;"">+</div>",NA,null,fixation,2020-06-16T18:44:32Z,NA,NA,NA,NA,NA,sub65
NA,mars-trial,58,321876,0.0-10.0-1.22,"""event"",""trial"",""time""
""focus"",""0"",""0""
""blur"",""0"",""0""
""focus"",""0"",""951""
""fullscreenenter"",""0"",""1846""
""blur"",""11"",""45873""
""focus"",""11"",""51379""
","""event"",""trial"",""time""
""blur"",""0"",""0""
""blur"",""11"",""45873""
","""event"",""trial"",""time""
""focus"",""0"",""0""
""focus"",""0"",""951""
""focus"",""11"",""51379""
","""event"",""trial"",""time""
""fullscreenenter"",""0"",""1846""
","
",9212,<img style='border: 4px solid darkgrey;' src='img/tf1_23_M_ss1.jpeg'></img>,1,NA,exp,NA,3,<img src='img/tf1_23_T1_ss1_md.jpeg'></img>,0,FALSE,NA,sub65
NA,html-keyboard-response,59,322378,0.0-10.0-0.23,"""event"",""trial"",""time""
""focus"",""0"",""0""
""blur"",""0"",""0""
""focus"",""0"",""951""
""fullscreenenter"",""0"",""1846""
""blur"",""11"",""45873""
""focus"",""11"",""51379""
","""event"",""trial"",""time""
""blur"",""0"",""0""
""blur"",""11"",""45873""
","""event"",""trial"",""time""
""focus"",""0"",""0""
""focus"",""0"",""951""
""focus"",""11"",""51379""
","""event"",""trial"",""time""
""fullscreenenter"",""0"",""1846""
","
",null,"<div style=""font-size:60px;"">+</div>",NA,null,fixation,2020-06-16T18:44:42Z,NA,NA,NA,NA,NA,sub65
NA,mars-trial,60,343696,0.0-10.0-1.23,"""event"",""trial"",""time""
""focus"",""0"",""0""
""blur"",""0"",""0""
""focus"",""0"",""951""
""fullscreenenter"",""0"",""1846""
""blur"",""11"",""45873""
""focus"",""11"",""51379""
","""event"",""trial"",""time""
""blur"",""0"",""0""
""blur"",""11"",""45873""
","""event"",""trial"",""time""
""focus"",""0"",""0""
""focus"",""0"",""951""
""focus"",""11"",""51379""
","""event"",""trial"",""time""
""fullscreenenter"",""0"",""1846""
","
",20713,<img style='border: 4px solid darkgrey;' src='img/tf1_24_M_ss2.jpeg'></img>,2,NA,exp,NA,1,<img src='img/tf1_24_T1_ss2_md.jpeg'></img>,0,FALSE,NA,sub65
NA,html-keyboard-response,61,344197,0.0-10.0-0.24,"""event"",""trial"",""time""
""focus"",""0"",""0""
""blur"",""0"",""0""
""focus"",""0"",""951""
""fullscreenenter"",""0"",""1846""
""blur"",""11"",""45873""
""focus"",""11"",""51379""
","""event"",""trial"",""time""
""blur"",""0"",""0""
""blur"",""11"",""45873""
","""event"",""trial"",""time""
""focus"",""0"",""0""
""focus"",""0"",""951""
""focus"",""11"",""51379""
","""event"",""trial"",""time""
""fullscreenenter"",""0"",""1846""
","
",null,"<div style=""font-size:60px;"">+</div>",NA,null,fixation,2020-06-16T18:45:04Z,NA,NA,NA,NA,NA,sub65
NA,mars-trial,62,361457,0.0-10.0-1.24,"""event"",""trial"",""time""
""focus"",""0"",""0""
""blur"",""0"",""0""
""focus"",""0"",""951""
""fullscreenenter"",""0"",""1846""
""blur"",""11"",""45873""
""focus"",""11"",""51379""
","""event"",""trial"",""time""
""blur"",""0"",""0""
""blur"",""11"",""45873""
","""event"",""trial"",""time""
""focus"",""0"",""0""
""focus"",""0"",""951""
""focus"",""11"",""51379""
","""event"",""trial"",""time""
""fullscreenenter"",""0"",""1846""
","
",16657,<img style='border: 4px solid darkgrey;' src='img/tf1_25_M_ss3.jpeg'></img>,1,NA,exp,NA,0,<img src='img/tf1_25_T1_ss3_md.jpeg'></img>,0,TRUE,NA,sub65
NA,html-keyboard-response,63,361959,0.0-10.0-0.25,"""event"",""trial"",""time""
""focus"",""0"",""0""
""blur"",""0"",""0""
""focus"",""0"",""951""
""fullscreenenter"",""0"",""1846""
""blur"",""11"",""45873""
""focus"",""11"",""51379""
","""event"",""trial"",""time""
""blur"",""0"",""0""
""blur"",""11"",""45873""
","""event"",""trial"",""time""
""focus"",""0"",""0""
""focus"",""0"",""951""
""focus"",""11"",""51379""
","""event"",""trial"",""time""
""fullscreenenter"",""0"",""1846""
","
",null,"<div style=""font-size:60px;"">+</div>",NA,null,fixation,2020-06-16T18:45:22Z,NA,NA,NA,NA,NA,sub65
NA,mars-trial,64,371021,0.0-10.0-1.25,"""event"",""trial"",""time""
""focus"",""0"",""0""
""blur"",""0"",""0""
""focus"",""0"",""951""
""fullscreenenter"",""0"",""1846""
""blur"",""11"",""45873""
""focus"",""11"",""51379""
","""event"",""trial"",""time""
""blur"",""0"",""0""
""blur"",""11"",""45873""
","""event"",""trial"",""time""
""focus"",""0"",""0""
""focus"",""0"",""951""
""focus"",""11"",""51379""
","""event"",""trial"",""time""
""fullscreenenter"",""0"",""1846""
","
",8457,<img style='border: 4px solid darkgrey;' src='img/tf1_26_M_ss1.jpeg'></img>,2,NA,exp,NA,2,<img src='img/tf1_26_T1_ss1_md.jpeg'></img>,0,FALSE,NA,sub65
NA,html-keyboard-response,65,371523,0.0-10.0-0.26,"""event"",""trial"",""time""
""focus"",""0"",""0""
""blur"",""0"",""0""
""focus"",""0"",""951""
""fullscreenenter"",""0"",""1846""
""blur"",""11"",""45873""
""focus"",""11"",""51379""
","""event"",""trial"",""time""
""blur"",""0"",""0""
""blur"",""11"",""45873""
","""event"",""trial"",""time""
""focus"",""0"",""0""
""focus"",""0"",""951""
""focus"",""11"",""51379""
","""event"",""trial"",""time""
""fullscreenenter"",""0"",""1846""
","
",null,"<div style=""font-size:60px;"">+</div>",NA,null,fixation,2020-06-16T18:45:31Z,NA,NA,NA,NA,NA,sub65
NA,mars-trial,66,378097,0.0-10.0-1.26,"""event"",""trial"",""time""
""focus"",""0"",""0""
""blur"",""0"",""0""
""focus"",""0"",""951""
""fullscreenenter"",""0"",""1846""
""blur"",""11"",""45873""
""focus"",""11"",""51379""
","""event"",""trial"",""time""
""blur"",""0"",""0""
""blur"",""11"",""45873""
","""event"",""trial"",""time""
""focus"",""0"",""0""
""focus"",""0"",""951""
""focus"",""11"",""51379""
","""event"",""trial"",""time""
""fullscreenenter"",""0"",""1846""
","
",5969.999999999942,<img style='border: 4px solid darkgrey;' src='img/tf1_27_M_ss2.jpeg'></img>,1,NA,exp,NA,1,<img src='img/tf1_27_T1_ss2_md.jpeg'></img>,0,FALSE,NA,sub65
NA,html-keyboard-response,67,378599,0.0-10.0-0.27,"""event"",""trial"",""time""
""focus"",""0"",""0""
""blur"",""0"",""0""
""focus"",""0"",""951""
""fullscreenenter"",""0"",""1846""
""blur"",""11"",""45873""
""focus"",""11"",""51379""
","""event"",""trial"",""time""
""blur"",""0"",""0""
""blur"",""11"",""45873""
","""event"",""trial"",""time""
""focus"",""0"",""0""
""focus"",""0"",""951""
""focus"",""11"",""51379""
","""event"",""trial"",""time""
""fullscreenenter"",""0"",""1846""
","
",null,"<div style=""font-size:60px;"">+</div>",NA,null,fixation,2020-06-16T18:45:38Z,NA,NA,NA,NA,NA,sub65
NA,mars-trial,68,390585,0.0-10.0-1.27,"""event"",""trial"",""time""
""focus"",""0"",""0""
""blur"",""0"",""0""
""focus"",""0"",""951""
""fullscreenenter"",""0"",""1846""
""blur"",""11"",""45873""
""focus"",""11"",""51379""
","""event"",""trial"",""time""
""blur"",""0"",""0""
""blur"",""11"",""45873""
","""event"",""trial"",""time""
""focus"",""0"",""0""
""focus"",""0"",""951""
""focus"",""11"",""51379""
","""event"",""trial"",""time""
""fullscreenenter"",""0"",""1846""
","
",11382,<img style='border: 4px solid darkgrey;' src='img/tf1_28_M_ss3.jpeg'></img>,2,NA,exp,NA,0,<img src='img/tf1_28_T1_ss3_md.jpeg'></img>,0,TRUE,NA,sub65
NA,html-keyboard-response,69,391088,0.0-10.0-0.28,"""event"",""trial"",""time""
""focus"",""0"",""0""
""blur"",""0"",""0""
""focus"",""0"",""951""
""fullscreenenter"",""0"",""1846""
""blur"",""11"",""45873""
""focus"",""11"",""51379""
","""event"",""trial"",""time""
""blur"",""0"",""0""
""blur"",""11"",""45873""
","""event"",""trial"",""time""
""focus"",""0"",""0""
""focus"",""0"",""951""
""focus"",""11"",""51379""
","""event"",""trial"",""time""
""fullscreenenter"",""0"",""1846""
","
",null,"<div style=""font-size:60px;"">+</div>",NA,null,fixation,2020-06-16T18:45:51Z,NA,NA,NA,NA,NA,sub65
NA,mars-trial,70,401018,0.0-10.0-1.28,"""event"",""trial"",""time""
""focus"",""0"",""0""
""blur"",""0"",""0""
""focus"",""0"",""951""
""fullscreenenter"",""0"",""1846""
""blur"",""11"",""45873""
""focus"",""11"",""51379""
","""event"",""trial"",""time""
""blur"",""0"",""0""
""blur"",""11"",""45873""
","""event"",""trial"",""time""
""focus"",""0"",""0""
""focus"",""0"",""951""
""focus"",""11"",""51379""
","""event"",""trial"",""time""
""fullscreenenter"",""0"",""1846""
","
",9327,<img style='border: 4px solid darkgrey;' src='img/tf1_29_M_ss1.jpeg'></img>,1,NA,exp,NA,0,<img src='img/tf1_29_T1_ss1_md.jpeg'></img>,0,TRUE,NA,sub65
NA,html-keyboard-response,71,401521,0.0-10.0-0.29,"""event"",""trial"",""time""
""focus"",""0"",""0""
""blur"",""0"",""0""
""focus"",""0"",""951""
""fullscreenenter"",""0"",""1846""
""blur"",""11"",""45873""
""focus"",""11"",""51379""
","""event"",""trial"",""time""
""blur"",""0"",""0""
""blur"",""11"",""45873""
","""event"",""trial"",""time""
""focus"",""0"",""0""
""focus"",""0"",""951""
""focus"",""11"",""51379""
","""event"",""trial"",""time""
""fullscreenenter"",""0"",""1846""
","
",null,"<div style=""font-size:60px;"">+</div>",NA,null,fixation,2020-06-16T18:46:01Z,NA,NA,NA,NA,NA,sub65
NA,mars-trial,72,411497,0.0-10.0-1.29,"""event"",""trial"",""time""
""focus"",""0"",""0""
""blur"",""0"",""0""
""focus"",""0"",""951""
""fullscreenenter"",""0"",""1846""
""blur"",""11"",""45873""
""focus"",""11"",""51379""
","""event"",""trial"",""time""
""blur"",""0"",""0""
""blur"",""11"",""45873""
","""event"",""trial"",""time""
""focus"",""0"",""0""
""focus"",""0"",""951""
""focus"",""11"",""51379""
","""event"",""trial"",""time""
""fullscreenenter"",""0"",""1846""
","
",9373,<img style='border: 4px solid darkgrey;' src='img/tf1_30_M_ss2.jpeg'></img>,0,NA,exp,NA,0,<img src='img/tf1_30_T1_ss2_md.jpeg'></img>,0,TRUE,NA,sub65
NA,html-keyboard-response,73,411998,0.0-10.0-0.30,"""event"",""trial"",""time""
""focus"",""0"",""0""
""blur"",""0"",""0""
""focus"",""0"",""951""
""fullscreenenter"",""0"",""1846""
""blur"",""11"",""45873""
""focus"",""11"",""51379""
","""event"",""trial"",""time""
""blur"",""0"",""0""
""blur"",""11"",""45873""
","""event"",""trial"",""time""
""focus"",""0"",""0""
""focus"",""0"",""951""
""focus"",""11"",""51379""
","""event"",""trial"",""time""
""fullscreenenter"",""0"",""1846""
","
",null,"<div style=""font-size:60px;"">+</div>",NA,null,fixation,2020-06-16T18:46:12Z,NA,NA,NA,NA,NA,sub65
NA,mars-trial,74,422654,0.0-10.0-1.30,"""event"",""trial"",""time""
""focus"",""0"",""0""
""blur"",""0"",""0""
""focus"",""0"",""951""
""fullscreenenter"",""0"",""1846""
""blur"",""11"",""45873""
""focus"",""11"",""51379""
","""event"",""trial"",""time""
""blur"",""0"",""0""
""blur"",""11"",""45873""
","""event"",""trial"",""time""
""focus"",""0"",""0""
""focus"",""0"",""951""
""focus"",""11"",""51379""
","""event"",""trial"",""time""
""fullscreenenter"",""0"",""1846""
","
",10052,<img style='border: 4px solid darkgrey;' src='img/tf1_31_M_ss3.jpeg'></img>,2,NA,exp,NA,1,<img src='img/tf1_31_T1_ss3_md.jpeg'></img>,0,FALSE,NA,sub65
NA,html-keyboard-response,75,423156,0.0-10.0-0.31,"""event"",""trial"",""time""
""focus"",""0"",""0""
""blur"",""0"",""0""
""focus"",""0"",""951""
""fullscreenenter"",""0"",""1846""
""blur"",""11"",""45873""
""focus"",""11"",""51379""
","""event"",""trial"",""time""
""blur"",""0"",""0""
""blur"",""11"",""45873""
","""event"",""trial"",""time""
""focus"",""0"",""0""
""focus"",""0"",""951""
""focus"",""11"",""51379""
","""event"",""trial"",""time""
""fullscreenenter"",""0"",""1846""
","
",null,"<div style=""font-size:60px;"">+</div>",NA,null,fixation,2020-06-16T18:46:23Z,NA,NA,NA,NA,NA,sub65
NA,mars-trial,76,434536,0.0-10.0-1.31,"""event"",""trial"",""time""
""focus"",""0"",""0""
""blur"",""0"",""0""
""focus"",""0"",""951""
""fullscreenenter"",""0"",""1846""
""blur"",""11"",""45873""
""focus"",""11"",""51379""
","""event"",""trial"",""time""
""blur"",""0"",""0""
""blur"",""11"",""45873""
","""event"",""trial"",""time""
""focus"",""0"",""0""
""focus"",""0"",""951""
""focus"",""11"",""51379""
","""event"",""trial"",""time""
""fullscreenenter"",""0"",""1846""
","
",10775,<img style='border: 4px solid darkgrey;' src='img/tf1_32_M_ss1.jpeg'></img>,2,NA,exp,NA,0,<img src='img/tf1_32_T1_ss1_md.jpeg'></img>,0,TRUE,NA,sub65
NA,html-keyboard-response,77,435038,0.0-10.0-0.32,"""event"",""trial"",""time""
""focus"",""0"",""0""
""blur"",""0"",""0""
""focus"",""0"",""951""
""fullscreenenter"",""0"",""1846""
""blur"",""11"",""45873""
""focus"",""11"",""51379""
","""event"",""trial"",""time""
""blur"",""0"",""0""
""blur"",""11"",""45873""
","""event"",""trial"",""time""
""focus"",""0"",""0""
""focus"",""0"",""951""
""focus"",""11"",""51379""
","""event"",""trial"",""time""
""fullscreenenter"",""0"",""1846""
","
",null,"<div style=""font-size:60px;"">+</div>",NA,null,fixation,2020-06-16T18:46:35Z,NA,NA,NA,NA,NA,sub65
NA,mars-trial,78,441370,0.0-10.0-1.32,"""event"",""trial"",""time""
""focus"",""0"",""0""
""blur"",""0"",""0""
""focus"",""0"",""951""
""fullscreenenter"",""0"",""1846""
""blur"",""11"",""45873""
""focus"",""11"",""51379""
","""event"",""trial"",""time""
""blur"",""0"",""0""
""blur"",""11"",""45873""
","""event"",""trial"",""time""
""focus"",""0"",""0""
""focus"",""0"",""951""
""focus"",""11"",""51379""
","""event"",""trial"",""time""
""fullscreenenter"",""0"",""1846""
","
",5727,<img style='border: 4px solid darkgrey;' src='img/tf1_33_M_ss2.jpeg'></img>,1,NA,exp,NA,0,<img src='img/tf1_33_T1_ss2_md.jpeg'></img>,0,TRUE,NA,sub65
NA,html-keyboard-response,79,441872,0.0-10.0-0.33,"""event"",""trial"",""time""
""focus"",""0"",""0""
""blur"",""0"",""0""
""focus"",""0"",""951""
""fullscreenenter"",""0"",""1846""
""blur"",""11"",""45873""
""focus"",""11"",""51379""
","""event"",""trial"",""time""
""blur"",""0"",""0""
""blur"",""11"",""45873""
","""event"",""trial"",""time""
""focus"",""0"",""0""
""focus"",""0"",""951""
""focus"",""11"",""51379""
","""event"",""trial"",""time""
""fullscreenenter"",""0"",""1846""
","
",null,"<div style=""font-size:60px;"">+</div>",NA,null,fixation,2020-06-16T18:46:41Z,NA,NA,NA,NA,NA,sub65
NA,mars-trial,80,449908,0.0-10.0-1.33,"""event"",""trial"",""time""
""focus"",""0"",""0""
""blur"",""0"",""0""
""focus"",""0"",""951""
""fullscreenenter"",""0"",""1846""
""blur"",""11"",""45873""
""focus"",""11"",""51379""
","""event"",""trial"",""time""
""blur"",""0"",""0""
""blur"",""11"",""45873""
","""event"",""trial"",""time""
""focus"",""0"",""0""
""focus"",""0"",""951""
""focus"",""11"",""51379""
","""event"",""trial"",""time""
""fullscreenenter"",""0"",""1846""
","
",7432,<img style='border: 4px solid darkgrey;' src='img/tf1_34_M_ss3.jpeg'></img>,1,NA,exp,NA,0,<img src='img/tf1_34_T1_ss3_md.jpeg'></img>,0,TRUE,NA,sub65
NA,html-keyboard-response,81,450412,0.0-10.0-0.34,"""event"",""trial"",""time""
""focus"",""0"",""0""
""blur"",""0"",""0""
""focus"",""0"",""951""
""fullscreenenter"",""0"",""1846""
""blur"",""11"",""45873""
""focus"",""11"",""51379""
","""event"",""trial"",""time""
""blur"",""0"",""0""
""blur"",""11"",""45873""
","""event"",""trial"",""time""
""focus"",""0"",""0""
""focus"",""0"",""951""
""focus"",""11"",""51379""
","""event"",""trial"",""time""
""fullscreenenter"",""0"",""1846""
","
",null,"<div style=""font-size:60px;"">+</div>",NA,null,fixation,2020-06-16T18:46:50Z,NA,NA,NA,NA,NA,sub65
NA,mars-trial,82,461027,0.0-10.0-1.34,"""event"",""trial"",""time""
""focus"",""0"",""0""
""blur"",""0"",""0""
""focus"",""0"",""951""
""fullscreenenter"",""0"",""1846""
""blur"",""11"",""45873""
""focus"",""11"",""51379""
","""event"",""trial"",""time""
""blur"",""0"",""0""
""blur"",""11"",""45873""
","""event"",""trial"",""time""
""focus"",""0"",""0""
""focus"",""0"",""951""
""focus"",""11"",""51379""
","""event"",""trial"",""time""
""fullscreenenter"",""0"",""1846""
","
",10009,<img style='border: 4px solid darkgrey;' src='img/tf1_35_M_ss1.jpeg'></img>,3,NA,exp,NA,0,<img src='img/tf1_35_T1_ss1_md.jpeg'></img>,0,TRUE,NA,sub65
NA,html-keyboard-response,83,461529,0.0-10.0-0.35,"""event"",""trial"",""time""
""focus"",""0"",""0""
""blur"",""0"",""0""
""focus"",""0"",""951""
""fullscreenenter"",""0"",""1846""
""blur"",""11"",""45873""
""focus"",""11"",""51379""
","""event"",""trial"",""time""
""blur"",""0"",""0""
""blur"",""11"",""45873""
","""event"",""trial"",""time""
""focus"",""0"",""0""
""focus"",""0"",""951""
""focus"",""11"",""51379""
","""event"",""trial"",""time""
""fullscreenenter"",""0"",""1846""
","
",null,"<div style=""font-size:60px;"">+</div>",NA,null,fixation,2020-06-16T18:47:01Z,NA,NA,NA,NA,NA,sub65
NA,mars-trial,84,491596,0.0-10.0-1.35,"""event"",""trial"",""time""
""focus"",""0"",""0""
""blur"",""0"",""0""
""focus"",""0"",""951""
""fullscreenenter"",""0"",""1846""
""blur"",""11"",""45873""
""focus"",""11"",""51379""
","""event"",""trial"",""time""
""blur"",""0"",""0""
""blur"",""11"",""45873""
","""event"",""trial"",""time""
""focus"",""0"",""0""
""focus"",""0"",""951""
""focus"",""11"",""51379""
","""event"",""trial"",""time""
""fullscreenenter"",""0"",""1846""
","
",29463,<img style='border: 4px solid darkgrey;' src='img/tf1_36_M_ss2.jpeg'></img>,2,NA,exp,NA,3,<img src='img/tf1_36_T1_ss2_md.jpeg'></img>,0,FALSE,NA,sub65
NA,html-keyboard-response,85,492098,0.0-10.0-0.36,"""event"",""trial"",""time""
""focus"",""0"",""0""
""blur"",""0"",""0""
""focus"",""0"",""951""
""fullscreenenter"",""0"",""1846""
""blur"",""11"",""45873""
""focus"",""11"",""51379""
","""event"",""trial"",""time""
""blur"",""0"",""0""
""blur"",""11"",""45873""
","""event"",""trial"",""time""
""focus"",""0"",""0""
""focus"",""0"",""951""
""focus"",""11"",""51379""
","""event"",""trial"",""time""
""fullscreenenter"",""0"",""1846""
","
",null,"<div style=""font-size:60px;"">+</div>",NA,null,fixation,2020-06-16T18:47:32Z,NA,NA,NA,NA,NA,sub65
NA,mars-trial,86,505836,0.0-10.0-1.36,"""event"",""trial"",""time""
""focus"",""0"",""0""
""blur"",""0"",""0""
""focus"",""0"",""951""
""fullscreenenter"",""0"",""1846""
""blur"",""11"",""45873""
""focus"",""11"",""51379""
","""event"",""trial"",""time""
""blur"",""0"",""0""
""blur"",""11"",""45873""
","""event"",""trial"",""time""
""focus"",""0"",""0""
""focus"",""0"",""951""
""focus"",""11"",""51379""
","""event"",""trial"",""time""
""fullscreenenter"",""0"",""1846""
","
",13135.000000000058,<img style='border: 4px solid darkgrey;' src='img/tf1_37_M_ss3.jpeg'></img>,0,NA,exp,NA,1,<img src='img/tf1_37_T1_ss3_md.jpeg'></img>,0,FALSE,NA,sub65
NA,html-keyboard-response,87,506338,0.0-10.0-0.37,"""event"",""trial"",""time""
""focus"",""0"",""0""
""blur"",""0"",""0""
""focus"",""0"",""951""
""fullscreenenter"",""0"",""1846""
""blur"",""11"",""45873""
""focus"",""11"",""51379""
","""event"",""trial"",""time""
""blur"",""0"",""0""
""blur"",""11"",""45873""
","""event"",""trial"",""time""
""focus"",""0"",""0""
""focus"",""0"",""951""
""focus"",""11"",""51379""
","""event"",""trial"",""time""
""fullscreenenter"",""0"",""1846""
","
",null,"<div style=""font-size:60px;"">+</div>",NA,null,fixation,2020-06-16T18:47:46Z,NA,NA,NA,NA,NA,sub65
NA,mars-trial,88,510040,0.0-10.0-1.37,"""event"",""trial"",""time""
""focus"",""0"",""0""
""blur"",""0"",""0""
""focus"",""0"",""951""
""fullscreenenter"",""0"",""1846""
""blur"",""11"",""45873""
""focus"",""11"",""51379""
","""event"",""trial"",""time""
""blur"",""0"",""0""
""blur"",""11"",""45873""
","""event"",""trial"",""time""
""focus"",""0"",""0""
""focus"",""0"",""951""
""focus"",""11"",""51379""
","""event"",""trial"",""time""
""fullscreenenter"",""0"",""1846""
","
",3098,<img style='border: 4px solid darkgrey;' src='img/tf1_38_M_ss1.jpeg'></img>,2,NA,exp,NA,0,<img src='img/tf1_38_T1_ss1_md.jpeg'></img>,0,TRUE,NA,sub65
NA,html-keyboard-response,89,510543,0.0-10.0-0.38,"""event"",""trial"",""time""
""focus"",""0"",""0""
""blur"",""0"",""0""
""focus"",""0"",""951""
""fullscreenenter"",""0"",""1846""
""blur"",""11"",""45873""
""focus"",""11"",""51379""
","""event"",""trial"",""time""
""blur"",""0"",""0""
""blur"",""11"",""45873""
","""event"",""trial"",""time""
""focus"",""0"",""0""
""focus"",""0"",""951""
""focus"",""11"",""51379""
","""event"",""trial"",""time""
""fullscreenenter"",""0"",""1846""
","
",null,"<div style=""font-size:60px;"">+</div>",NA,null,fixation,2020-06-16T18:47:50Z,NA,NA,NA,NA,NA,sub65
NA,mars-trial,90,530764,0.0-10.0-1.38,"""event"",""trial"",""time""
""focus"",""0"",""0""
""blur"",""0"",""0""
""focus"",""0"",""951""
""fullscreenenter"",""0"",""1846""
""blur"",""11"",""45873""
""focus"",""11"",""51379""
","""event"",""trial"",""time""
""blur"",""0"",""0""
""blur"",""11"",""45873""
","""event"",""trial"",""time""
""focus"",""0"",""0""
""focus"",""0"",""951""
""focus"",""11"",""51379""
","""event"",""trial"",""time""
""fullscreenenter"",""0"",""1846""
","
",19617.000000000116,<img style='border: 4px solid darkgrey;' src='img/tf1_39_M_ss2.jpeg'></img>,1,NA,exp,NA,0,<img src='img/tf1_39_T1_ss2_md.jpeg'></img>,0,TRUE,NA,sub65
NA,html-keyboard-response,91,531266,0.0-10.0-0.39,"""event"",""trial"",""time""
""focus"",""0"",""0""
""blur"",""0"",""0""
""focus"",""0"",""951""
""fullscreenenter"",""0"",""1846""
""blur"",""11"",""45873""
""focus"",""11"",""51379""
","""event"",""trial"",""time""
""blur"",""0"",""0""
""blur"",""11"",""45873""
","""event"",""trial"",""time""
""focus"",""0"",""0""
""focus"",""0"",""951""
""focus"",""11"",""51379""
","""event"",""trial"",""time""
""fullscreenenter"",""0"",""1846""
","
",null,"<div style=""font-size:60px;"">+</div>",NA,null,fixation,2020-06-16T18:48:11Z,NA,NA,NA,NA,NA,sub65
NA,mars-trial,92,531830,0.0-10.0-1.39,"""event"",""trial"",""time""
""focus"",""0"",""0""
""blur"",""0"",""0""
""focus"",""0"",""951""
""fullscreenenter"",""0"",""1846""
""blur"",""11"",""45873""
""focus"",""11"",""51379""
","""event"",""trial"",""time""
""blur"",""0"",""0""
""blur"",""11"",""45873""
","""event"",""trial"",""time""
""focus"",""0"",""0""
""focus"",""0"",""951""
""focus"",""11"",""51379""
","""event"",""trial"",""time""
""fullscreenenter"",""0"",""1846""
","
",NA,NA,NA,NA,exp,NA,NA,<img src='img/tf1_40_T1_ss3_md.jpeg'></img>,0,FALSE,NA,sub65
NA,html-keyboard-response,93,532332,0.0-10.0-0.40,"""event"",""trial"",""time""
""focus"",""0"",""0""
""blur"",""0"",""0""
""focus"",""0"",""951""
""fullscreenenter"",""0"",""1846""
""blur"",""11"",""45873""
""focus"",""11"",""51379""
","""event"",""trial"",""time""
""blur"",""0"",""0""
""blur"",""11"",""45873""
","""event"",""trial"",""time""
""focus"",""0"",""0""
""focus"",""0"",""951""
""focus"",""11"",""51379""
","""event"",""trial"",""time""
""fullscreenenter"",""0"",""1846""
","
",null,"<div style=""font-size:60px;"">+</div>",NA,null,fixation,2020-06-16T18:48:12Z,NA,NA,NA,NA,NA,sub65
NA,audio-button-response,94,533475,0.0-11.0,"""event"",""trial"",""time""
""focus"",""0"",""0""
""blur"",""0"",""0""
""focus"",""0"",""951""
""fullscreenenter"",""0"",""1846""
""blur"",""11"",""45873""
""focus"",""11"",""51379""
","""event"",""trial"",""time""
""blur"",""0"",""0""
""blur"",""11"",""45873""
","""event"",""trial"",""time""
""focus"",""0"",""0""
""focus"",""0"",""951""
""focus"",""11"",""51379""
","""event"",""trial"",""time""
""fullscreenenter"",""0"",""1846""
","
",1041,audio/mars_instructions_slide5.wav,0,NA,NA,NA,NA,NA,NA,NA,NA,sub65
