success,trial_type,trial_index,time_elapsed,internal_node_id,interactions,blur_events,focus_events,fullscreenenter_events,fullscreenexit_events,rt,stimulus,button_pressed,key_press,part,timestamp,unshuffled_button,correct_response,correct_button,correct,value,subject_id
TRUE,fullscreen,0,4040,0.0-0.0,"""event"",""trial"",""time""
""fullscreenenter"",""0"",""3171""
","
","
","""event"",""trial"",""time""
""fullscreenenter"",""0"",""3171""
","
",NA,NA,NA,NA,NA,NA,NA,NA,NA,NA,NA,sub96
NA,pavlovia,1,4042,0.0-1.0,"""event"",""trial"",""time""
""fullscreenenter"",""0"",""3171""
","
","
","""event"",""trial"",""time""
""fullscreenenter"",""0"",""3171""
","
",NA,NA,NA,NA,NA,NA,NA,NA,NA,NA,NA,sub96
NA,html-button-response,2,12970,0.0-2.0,"""event"",""trial"",""time""
""fullscreenenter"",""0"",""3171""
","
","
","""event"",""trial"",""time""
""fullscreenenter"",""0"",""3171""
","
",8926.000000000004,<p>Welcome! Press START to begin.</p><br>,0,NA,NA,NA,NA,NA,NA,NA,NA,sub96
NA,audio-button-response,3,26984,0.0-3.0,"""event"",""trial"",""time""
""fullscreenenter"",""0"",""3171""
","
","
","""event"",""trial"",""time""
""fullscreenenter"",""0"",""3171""
","
",14009.999999999996,audio/mars_instructions_slide2.wav,0,NA,NA,NA,NA,NA,NA,NA,NA,sub96
NA,audio-button-response,4,29090,0.0-4.0,"""event"",""trial"",""time""
""fullscreenenter"",""0"",""3171""
","
","
","""event"",""trial"",""time""
""fullscreenenter"",""0"",""3171""
","
",2104.0000000000036,audio/mars_instructions_slide3.wav,0,NA,NA,NA,NA,NA,NA,NA,NA,sub96
NA,html-keyboard-response,5,29591,0.0-5.0-0.0,"""event"",""trial"",""time""
""fullscreenenter"",""0"",""3171""
","
","
","""event"",""trial"",""time""
""fullscreenenter"",""0"",""3171""
","
",null,"<div style=""font-size:60px;"">+</div>",NA,null,fixation,2020-06-18T19:19:22Z,NA,NA,NA,NA,NA,sub96
NA,mars-trial,6,41204,0.0-5.0-1.0,"""event"",""trial"",""time""
""fullscreenenter"",""0"",""3171""
","
","
","""event"",""trial"",""time""
""fullscreenenter"",""0"",""3171""
","
",9508,<img style='border: 4px solid darkgrey;' src='practice/pt1_M1.png'></img>,1,NA,practice,NA,0,<img src='practice/pt1_T1.png'></img>,0,TRUE,NA,sub96
NA,html-keyboard-response,7,41706,0.0-6.0-0.0,"""event"",""trial"",""time""
""fullscreenenter"",""0"",""3171""
","
","
","""event"",""trial"",""time""
""fullscreenenter"",""0"",""3171""
","
",null,"<div style=""font-size:60px;"">+</div>",NA,null,fixation,2020-06-18T19:19:34Z,NA,NA,NA,NA,NA,sub96
NA,mars-trial,8,46735,0.0-6.0-1.0,"""event"",""trial"",""time""
""fullscreenenter"",""0"",""3171""
","
","
","""event"",""trial"",""time""
""fullscreenenter"",""0"",""3171""
","
",2926,<img style='border: 4px solid darkgrey;' src='practice/pt2_M1.png'></img>,3,NA,practice,NA,0,<img src='practice/pt2_T1.png'></img>,0,TRUE,NA,sub96
NA,html-keyboard-response,9,47237,0.0-7.0-0.0,"""event"",""trial"",""time""
""fullscreenenter"",""0"",""3171""
","
","
","""event"",""trial"",""time""
""fullscreenenter"",""0"",""3171""
","
",null,"<div style=""font-size:60px;"">+</div>",NA,null,fixation,2020-06-18T19:19:40Z,NA,NA,NA,NA,NA,sub96
NA,mars-trial,10,50622,0.0-7.0-1.0,"""event"",""trial"",""time""
""fullscreenenter"",""0"",""3171""
","
","
","""event"",""trial"",""time""
""fullscreenenter"",""0"",""3171""
","
",1279.9999999999927,<img style='border: 4px solid darkgrey;' src='practice/pt3_M1.png'></img>,1,NA,practice,NA,0,<img src='practice/pt3_T1.png'></img>,0,TRUE,NA,sub96
NA,audio-button-response,11,62959,0.0-8.0,"""event"",""trial"",""time""
""fullscreenenter"",""0"",""3171""
","
","
","""event"",""trial"",""time""
""fullscreenenter"",""0"",""3171""
","
",12335,audio/mars_instructions_slide4.wav,0,NA,NA,NA,NA,NA,NA,NA,NA,sub96
NA,call-function,12,62960,0.0-9.0,"""event"",""trial"",""time""
""fullscreenenter"",""0"",""3171""
","
","
","""event"",""trial"",""time""
""fullscreenenter"",""0"",""3171""
","
",NA,NA,NA,NA,NA,NA,NA,NA,NA,NA,NA,sub96
NA,html-keyboard-response,13,63462,0.0-10.0-0.0,"""event"",""trial"",""time""
""fullscreenenter"",""0"",""3171""
","
","
","""event"",""trial"",""time""
""fullscreenenter"",""0"",""3171""
","
",null,"<div style=""font-size:60px;"">+</div>",NA,null,fixation,2020-06-18T19:19:56Z,NA,NA,NA,NA,NA,sub96
NA,mars-trial,14,65494,0.0-10.0-1.0,"""event"",""trial"",""time""
""fullscreenenter"",""0"",""3171""
","
","
","""event"",""trial"",""time""
""fullscreenenter"",""0"",""3171""
","
",1429,<img style='border: 4px solid darkgrey;' src='img/tf1_1_M_ss3.jpeg'></img>,2,NA,exp,NA,0,<img src='img/tf1_1_T1_ss3_md.jpeg'></img>,0,TRUE,NA,sub96
NA,html-keyboard-response,15,65996,0.0-10.0-0.1,"""event"",""trial"",""time""
""fullscreenenter"",""0"",""3171""
","
","
","""event"",""trial"",""time""
""fullscreenenter"",""0"",""3171""
","
",null,"<div style=""font-size:60px;"">+</div>",NA,null,fixation,2020-06-18T19:19:58Z,NA,NA,NA,NA,NA,sub96
NA,mars-trial,16,68188,0.0-10.0-1.1,"""event"",""trial"",""time""
""fullscreenenter"",""0"",""3171""
","
","
","""event"",""trial"",""time""
""fullscreenenter"",""0"",""3171""
","
",1587.0000000000146,<img style='border: 4px solid darkgrey;' src='img/tf1_2_M_ss1.jpeg'></img>,3,NA,exp,NA,0,<img src='img/tf1_2_T1_ss1_md.jpeg'></img>,0,TRUE,NA,sub96
NA,html-keyboard-response,17,68690,0.0-10.0-0.2,"""event"",""trial"",""time""
""fullscreenenter"",""0"",""3171""
","
","
","""event"",""trial"",""time""
""fullscreenenter"",""0"",""3171""
","
",null,"<div style=""font-size:60px;"">+</div>",NA,null,fixation,2020-06-18T19:20:01Z,NA,NA,NA,NA,NA,sub96
NA,mars-trial,18,71430,0.0-10.0-1.2,"""event"",""trial"",""time""
""fullscreenenter"",""0"",""3171""
","
","
","""event"",""trial"",""time""
""fullscreenenter"",""0"",""3171""
","
",2135,<img style='border: 4px solid darkgrey;' src='img/tf1_3_M_ss2.jpeg'></img>,2,NA,exp,NA,0,<img src='img/tf1_3_T1_ss2_md.jpeg'></img>,0,TRUE,NA,sub96
NA,html-keyboard-response,19,71932,0.0-10.0-0.3,"""event"",""trial"",""time""
""fullscreenenter"",""0"",""3171""
","
","
","""event"",""trial"",""time""
""fullscreenenter"",""0"",""3171""
","
",null,"<div style=""font-size:60px;"">+</div>",NA,null,fixation,2020-06-18T19:20:04Z,NA,NA,NA,NA,NA,sub96
NA,mars-trial,20,75390,0.0-10.0-1.3,"""event"",""trial"",""time""
""fullscreenenter"",""0"",""3171""
","
","
","""event"",""trial"",""time""
""fullscreenenter"",""0"",""3171""
","
",2855,<img style='border: 4px solid darkgrey;' src='img/tf1_4_M_ss3.jpeg'></img>,0,NA,exp,NA,0,<img src='img/tf1_4_T1_ss3_md.jpeg'></img>,0,TRUE,NA,sub96
NA,html-keyboard-response,21,75892,0.0-10.0-0.4,"""event"",""trial"",""time""
""fullscreenenter"",""0"",""3171""
","
","
","""event"",""trial"",""time""
""fullscreenenter"",""0"",""3171""
","
",null,"<div style=""font-size:60px;"">+</div>",NA,null,fixation,2020-06-18T19:20:08Z,NA,NA,NA,NA,NA,sub96
NA,mars-trial,22,78225,0.0-10.0-1.4,"""event"",""trial"",""time""
""fullscreenenter"",""0"",""3171""
","
","
","""event"",""trial"",""time""
""fullscreenenter"",""0"",""3171""
","
",1730,<img style='border: 4px solid darkgrey;' src='img/tf1_5_M_ss1.jpeg'></img>,1,NA,exp,NA,0,<img src='img/tf1_5_T1_ss1_md.jpeg'></img>,0,TRUE,NA,sub96
NA,html-keyboard-response,23,78727,0.0-10.0-0.5,"""event"",""trial"",""time""
""fullscreenenter"",""0"",""3171""
","
","
","""event"",""trial"",""time""
""fullscreenenter"",""0"",""3171""
","
",null,"<div style=""font-size:60px;"">+</div>",NA,null,fixation,2020-06-18T19:20:11Z,NA,NA,NA,NA,NA,sub96
NA,mars-trial,24,85062,0.0-10.0-1.5,"""event"",""trial"",""time""
""fullscreenenter"",""0"",""3171""
","
","
","""event"",""trial"",""time""
""fullscreenenter"",""0"",""3171""
","
",5731.000000000015,<img style='border: 4px solid darkgrey;' src='img/tf1_6_M_ss2.jpeg'></img>,1,NA,exp,NA,2,<img src='img/tf1_6_T1_ss2_md.jpeg'></img>,0,FALSE,NA,sub96
NA,html-keyboard-response,25,85564,0.0-10.0-0.6,"""event"",""trial"",""time""
""fullscreenenter"",""0"",""3171""
","
","
","""event"",""trial"",""time""
""fullscreenenter"",""0"",""3171""
","
",null,"<div style=""font-size:60px;"">+</div>",NA,null,fixation,2020-06-18T19:20:18Z,NA,NA,NA,NA,NA,sub96
NA,mars-trial,26,88920,0.0-10.0-1.6,"""event"",""trial"",""time""
""fullscreenenter"",""0"",""3171""
","
","
","""event"",""trial"",""time""
""fullscreenenter"",""0"",""3171""
","
",2751,<img style='border: 4px solid darkgrey;' src='img/tf1_7_M_ss3.jpeg'></img>,1,NA,exp,NA,0,<img src='img/tf1_7_T1_ss3_md.jpeg'></img>,0,TRUE,NA,sub96
NA,html-keyboard-response,27,89422,0.0-10.0-0.7,"""event"",""trial"",""time""
""fullscreenenter"",""0"",""3171""
","
","
","""event"",""trial"",""time""
""fullscreenenter"",""0"",""3171""
","
",null,"<div style=""font-size:60px;"">+</div>",NA,null,fixation,2020-06-18T19:20:22Z,NA,NA,NA,NA,NA,sub96
NA,mars-trial,28,97719,0.0-10.0-1.7,"""event"",""trial"",""time""
""fullscreenenter"",""0"",""3171""
","
","
","""event"",""trial"",""time""
""fullscreenenter"",""0"",""3171""
","
",7693,<img style='border: 4px solid darkgrey;' src='img/tf1_8_M_ss1.jpeg'></img>,1,NA,exp,NA,0,<img src='img/tf1_8_T1_ss1_md.jpeg'></img>,0,TRUE,NA,sub96
NA,html-keyboard-response,29,98221,0.0-10.0-0.8,"""event"",""trial"",""time""
""fullscreenenter"",""0"",""3171""
","
","
","""event"",""trial"",""time""
""fullscreenenter"",""0"",""3171""
","
",null,"<div style=""font-size:60px;"">+</div>",NA,null,fixation,2020-06-18T19:20:31Z,NA,NA,NA,NA,NA,sub96
NA,mars-trial,30,107000,0.0-10.0-1.8,"""event"",""trial"",""time""
""fullscreenenter"",""0"",""3171""
","
","
","""event"",""trial"",""time""
""fullscreenenter"",""0"",""3171""
","
",8174,<img style='border: 4px solid darkgrey;' src='img/tf1_9_M_ss2.jpeg'></img>,2,NA,exp,NA,3,<img src='img/tf1_9_T1_ss2_md.jpeg'></img>,0,FALSE,NA,sub96
NA,html-keyboard-response,31,107502,0.0-10.0-0.9,"""event"",""trial"",""time""
""fullscreenenter"",""0"",""3171""
","
","
","""event"",""trial"",""time""
""fullscreenenter"",""0"",""3171""
","
",null,"<div style=""font-size:60px;"">+</div>",NA,null,fixation,2020-06-18T19:20:40Z,NA,NA,NA,NA,NA,sub96
NA,mars-trial,32,114906,0.0-10.0-1.9,"""event"",""trial"",""time""
""fullscreenenter"",""0"",""3171""
","
","
","""event"",""trial"",""time""
""fullscreenenter"",""0"",""3171""
","
",6801,<img style='border: 4px solid darkgrey;' src='img/tf1_10_M_ss3.jpeg'></img>,0,NA,exp,NA,0,<img src='img/tf1_10_T1_ss3_md.jpeg'></img>,0,TRUE,NA,sub96
NA,html-keyboard-response,33,115408,0.0-10.0-0.10,"""event"",""trial"",""time""
""fullscreenenter"",""0"",""3171""
","
","
","""event"",""trial"",""time""
""fullscreenenter"",""0"",""3171""
","
",null,"<div style=""font-size:60px;"">+</div>",NA,null,fixation,2020-06-18T19:20:48Z,NA,NA,NA,NA,NA,sub96
NA,mars-trial,34,126111,0.0-10.0-1.10,"""event"",""trial"",""time""
""fullscreenenter"",""0"",""3171""
","
","
","""event"",""trial"",""time""
""fullscreenenter"",""0"",""3171""
","
",10099.000000000015,<img style='border: 4px solid darkgrey;' src='img/tf1_11_M_ss1.jpeg'></img>,0,NA,exp,NA,2,<img src='img/tf1_11_T1_ss1_md.jpeg'></img>,0,FALSE,NA,sub96
NA,html-keyboard-response,35,126612,0.0-10.0-0.11,"""event"",""trial"",""time""
""fullscreenenter"",""0"",""3171""
","
","
","""event"",""trial"",""time""
""fullscreenenter"",""0"",""3171""
","
",null,"<div style=""font-size:60px;"">+</div>",NA,null,fixation,2020-06-18T19:20:59Z,NA,NA,NA,NA,NA,sub96
NA,mars-trial,36,129239,0.0-10.0-1.11,"""event"",""trial"",""time""
""fullscreenenter"",""0"",""3171""
","
","
","""event"",""trial"",""time""
""fullscreenenter"",""0"",""3171""
","
",2023,<img style='border: 4px solid darkgrey;' src='img/tf1_12_M_ss2.jpeg'></img>,2,NA,exp,NA,0,<img src='img/tf1_12_T1_ss2_md.jpeg'></img>,0,TRUE,NA,sub96
NA,html-keyboard-response,37,129741,0.0-10.0-0.12,"""event"",""trial"",""time""
""fullscreenenter"",""0"",""3171""
","
","
","""event"",""trial"",""time""
""fullscreenenter"",""0"",""3171""
","
",null,"<div style=""font-size:60px;"">+</div>",NA,null,fixation,2020-06-18T19:21:02Z,NA,NA,NA,NA,NA,sub96
NA,mars-trial,38,134370,0.0-10.0-1.12,"""event"",""trial"",""time""
""fullscreenenter"",""0"",""3171""
","
","
","""event"",""trial"",""time""
""fullscreenenter"",""0"",""3171""
","
",4025,<img style='border: 4px solid darkgrey;' src='img/tf1_13_M_ss3.jpeg'></img>,1,NA,exp,NA,3,<img src='img/tf1_13_T1_ss3_md.jpeg'></img>,0,FALSE,NA,sub96
NA,html-keyboard-response,39,134872,0.0-10.0-0.13,"""event"",""trial"",""time""
""fullscreenenter"",""0"",""3171""
","
","
","""event"",""trial"",""time""
""fullscreenenter"",""0"",""3171""
","
",null,"<div style=""font-size:60px;"">+</div>",NA,null,fixation,2020-06-18T19:21:07Z,NA,NA,NA,NA,NA,sub96
NA,mars-trial,40,140080,0.0-10.0-1.13,"""event"",""trial"",""time""
""fullscreenenter"",""0"",""3171""
","
","
","""event"",""trial"",""time""
""fullscreenenter"",""0"",""3171""
","
",4604,<img style='border: 4px solid darkgrey;' src='img/tf1_14_M_ss1.jpeg'></img>,2,NA,exp,NA,1,<img src='img/tf1_14_T1_ss1_md.jpeg'></img>,0,FALSE,NA,sub96
NA,html-keyboard-response,41,140582,0.0-10.0-0.14,"""event"",""trial"",""time""
""fullscreenenter"",""0"",""3171""
","
","
","""event"",""trial"",""time""
""fullscreenenter"",""0"",""3171""
","
",null,"<div style=""font-size:60px;"">+</div>",NA,null,fixation,2020-06-18T19:21:13Z,NA,NA,NA,NA,NA,sub96
NA,mars-trial,42,149165,0.0-10.0-1.14,"""event"",""trial"",""time""
""fullscreenenter"",""0"",""3171""
","
","
","""event"",""trial"",""time""
""fullscreenenter"",""0"",""3171""
","
",7979.000000000029,<img style='border: 4px solid darkgrey;' src='img/tf1_15_M_ss2.jpeg'></img>,0,NA,exp,NA,3,<img src='img/tf1_15_T1_ss2_md.jpeg'></img>,0,FALSE,NA,sub96
NA,html-keyboard-response,43,149666,0.0-10.0-0.15,"""event"",""trial"",""time""
""fullscreenenter"",""0"",""3171""
","
","
","""event"",""trial"",""time""
""fullscreenenter"",""0"",""3171""
","
",null,"<div style=""font-size:60px;"">+</div>",NA,null,fixation,2020-06-18T19:21:22Z,NA,NA,NA,NA,NA,sub96
NA,mars-trial,44,153065,0.0-10.0-1.15,"""event"",""trial"",""time""
""fullscreenenter"",""0"",""3171""
","
","
","""event"",""trial"",""time""
""fullscreenenter"",""0"",""3171""
","
",2797,<img style='border: 4px solid darkgrey;' src='img/tf1_16_M_ss3.jpeg'></img>,2,NA,exp,NA,3,<img src='img/tf1_16_T1_ss3_md.jpeg'></img>,0,FALSE,NA,sub96
NA,html-keyboard-response,45,153567,0.0-10.0-0.16,"""event"",""trial"",""time""
""fullscreenenter"",""0"",""3171""
","
","
","""event"",""trial"",""time""
""fullscreenenter"",""0"",""3171""
","
",null,"<div style=""font-size:60px;"">+</div>",NA,null,fixation,2020-06-18T19:21:26Z,NA,NA,NA,NA,NA,sub96
NA,mars-trial,46,155318,0.0-10.0-1.16,"""event"",""trial"",""time""
""fullscreenenter"",""0"",""3171""
","
","
","""event"",""trial"",""time""
""fullscreenenter"",""0"",""3171""
","
",1145.999999999971,<img style='border: 4px solid darkgrey;' src='img/tf1_17_M_ss1.jpeg'></img>,2,NA,exp,NA,3,<img src='img/tf1_17_T1_ss1_md.jpeg'></img>,0,FALSE,NA,sub96
NA,html-keyboard-response,47,155820,0.0-10.0-0.17,"""event"",""trial"",""time""
""fullscreenenter"",""0"",""3171""
","
","
","""event"",""trial"",""time""
""fullscreenenter"",""0"",""3171""
","
",null,"<div style=""font-size:60px;"">+</div>",NA,null,fixation,2020-06-18T19:21:28Z,NA,NA,NA,NA,NA,sub96
NA,mars-trial,48,156978,0.0-10.0-1.17,"""event"",""trial"",""time""
""fullscreenenter"",""0"",""3171""
","
","
","""event"",""trial"",""time""
""fullscreenenter"",""0"",""3171""
","
",555,<img style='border: 4px solid darkgrey;' src='img/tf1_18_M_ss2.jpeg'></img>,1,NA,exp,NA,0,<img src='img/tf1_18_T1_ss2_md.jpeg'></img>,0,TRUE,NA,sub96
NA,html-keyboard-response,49,157480,0.0-10.0-0.18,"""event"",""trial"",""time""
""fullscreenenter"",""0"",""3171""
","
","
","""event"",""trial"",""time""
""fullscreenenter"",""0"",""3171""
","
",null,"<div style=""font-size:60px;"">+</div>",NA,null,fixation,2020-06-18T19:21:30Z,NA,NA,NA,NA,NA,sub96
NA,mars-trial,50,166659,0.0-10.0-1.18,"""event"",""trial"",""time""
""fullscreenenter"",""0"",""3171""
","
","
","""event"",""trial"",""time""
""fullscreenenter"",""0"",""3171""
","
",8575.00000000003,<img style='border: 4px solid darkgrey;' src='img/tf1_19_M_ss3.jpeg'></img>,3,NA,exp,NA,2,<img src='img/tf1_19_T1_ss3_md.jpeg'></img>,0,FALSE,NA,sub96
NA,html-keyboard-response,51,167160,0.0-10.0-0.19,"""event"",""trial"",""time""
""fullscreenenter"",""0"",""3171""
","
","
","""event"",""trial"",""time""
""fullscreenenter"",""0"",""3171""
","
",null,"<div style=""font-size:60px;"">+</div>",NA,null,fixation,2020-06-18T19:21:40Z,NA,NA,NA,NA,NA,sub96
NA,mars-trial,52,169662,0.0-10.0-1.19,"""event"",""trial"",""time""
""fullscreenenter"",""0"",""3171""
","
","
","""event"",""trial"",""time""
""fullscreenenter"",""0"",""3171""
","
",1898,<img style='border: 4px solid darkgrey;' src='img/tf1_20_M_ss1.jpeg'></img>,3,NA,exp,NA,0,<img src='img/tf1_20_T1_ss1_md.jpeg'></img>,0,TRUE,NA,sub96
NA,html-keyboard-response,53,170164,0.0-10.0-0.20,"""event"",""trial"",""time""
""fullscreenenter"",""0"",""3171""
","
","
","""event"",""trial"",""time""
""fullscreenenter"",""0"",""3171""
","
",null,"<div style=""font-size:60px;"">+</div>",NA,null,fixation,2020-06-18T19:21:43Z,NA,NA,NA,NA,NA,sub96
NA,mars-trial,54,195648,0.0-10.0-1.20,"""event"",""trial"",""time""
""fullscreenenter"",""0"",""3171""
","
","
","""event"",""trial"",""time""
""fullscreenenter"",""0"",""3171""
","
",24880,<img style='border: 4px solid darkgrey;' src='img/tf1_21_M_ss2.jpeg'></img>,2,NA,exp,NA,2,<img src='img/tf1_21_T1_ss2_md.jpeg'></img>,0,FALSE,NA,sub96
NA,html-keyboard-response,55,196150,0.0-10.0-0.21,"""event"",""trial"",""time""
""fullscreenenter"",""0"",""3171""
","
","
","""event"",""trial"",""time""
""fullscreenenter"",""0"",""3171""
","
",null,"<div style=""font-size:60px;"">+</div>",NA,null,fixation,2020-06-18T19:22:09Z,NA,NA,NA,NA,NA,sub96
NA,mars-trial,56,218893,0.0-10.0-1.21,"""event"",""trial"",""time""
""fullscreenenter"",""0"",""3171""
","
","
","""event"",""trial"",""time""
""fullscreenenter"",""0"",""3171""
","
",22138.99999999997,<img style='border: 4px solid darkgrey;' src='img/tf1_22_M_ss3.jpeg'></img>,2,NA,exp,NA,3,<img src='img/tf1_22_T1_ss3_md.jpeg'></img>,0,FALSE,NA,sub96
NA,html-keyboard-response,57,219396,0.0-10.0-0.22,"""event"",""trial"",""time""
""fullscreenenter"",""0"",""3171""
","
","
","""event"",""trial"",""time""
""fullscreenenter"",""0"",""3171""
","
",null,"<div style=""font-size:60px;"">+</div>",NA,null,fixation,2020-06-18T19:22:32Z,NA,NA,NA,NA,NA,sub96
NA,mars-trial,58,221953,0.0-10.0-1.22,"""event"",""trial"",""time""
""fullscreenenter"",""0"",""3171""
","
","
","""event"",""trial"",""time""
""fullscreenenter"",""0"",""3171""
","
",1953,<img style='border: 4px solid darkgrey;' src='img/tf1_23_M_ss1.jpeg'></img>,3,NA,exp,NA,3,<img src='img/tf1_23_T1_ss1_md.jpeg'></img>,0,FALSE,NA,sub96
NA,html-keyboard-response,59,222455,0.0-10.0-0.23,"""event"",""trial"",""time""
""fullscreenenter"",""0"",""3171""
","
","
","""event"",""trial"",""time""
""fullscreenenter"",""0"",""3171""
","
",null,"<div style=""font-size:60px;"">+</div>",NA,null,fixation,2020-06-18T19:22:35Z,NA,NA,NA,NA,NA,sub96
NA,mars-trial,60,223973,0.0-10.0-1.23,"""event"",""trial"",""time""
""fullscreenenter"",""0"",""3171""
","
","
","""event"",""trial"",""time""
""fullscreenenter"",""0"",""3171""
","
",914,<img style='border: 4px solid darkgrey;' src='img/tf1_24_M_ss2.jpeg'></img>,3,NA,exp,NA,3,<img src='img/tf1_24_T1_ss2_md.jpeg'></img>,0,FALSE,NA,sub96
NA,html-keyboard-response,61,224474,0.0-10.0-0.24,"""event"",""trial"",""time""
""fullscreenenter"",""0"",""3171""
","
","
","""event"",""trial"",""time""
""fullscreenenter"",""0"",""3171""
","
",null,"<div style=""font-size:60px;"">+</div>",NA,null,fixation,2020-06-18T19:22:37Z,NA,NA,NA,NA,NA,sub96
NA,mars-trial,62,229044,0.0-10.0-1.24,"""event"",""trial"",""time""
""fullscreenenter"",""0"",""3171""
","
","
","""event"",""trial"",""time""
""fullscreenenter"",""0"",""3171""
","
",3966,<img style='border: 4px solid darkgrey;' src='img/tf1_25_M_ss3.jpeg'></img>,1,NA,exp,NA,1,<img src='img/tf1_25_T1_ss3_md.jpeg'></img>,0,FALSE,NA,sub96
NA,html-keyboard-response,63,229546,0.0-10.0-0.25,"""event"",""trial"",""time""
""fullscreenenter"",""0"",""3171""
","
","
","""event"",""trial"",""time""
""fullscreenenter"",""0"",""3171""
","
",null,"<div style=""font-size:60px;"">+</div>",NA,null,fixation,2020-06-18T19:22:42Z,NA,NA,NA,NA,NA,sub96
NA,mars-trial,64,236127,0.0-10.0-1.25,"""event"",""trial"",""time""
""fullscreenenter"",""0"",""3171""
","
","
","""event"",""trial"",""time""
""fullscreenenter"",""0"",""3171""
","
",5976,<img style='border: 4px solid darkgrey;' src='img/tf1_26_M_ss1.jpeg'></img>,2,NA,exp,NA,3,<img src='img/tf1_26_T1_ss1_md.jpeg'></img>,0,FALSE,NA,sub96
NA,html-keyboard-response,65,236629,0.0-10.0-0.26,"""event"",""trial"",""time""
""fullscreenenter"",""0"",""3171""
","
","
","""event"",""trial"",""time""
""fullscreenenter"",""0"",""3171""
","
",null,"<div style=""font-size:60px;"">+</div>",NA,null,fixation,2020-06-18T19:22:49Z,NA,NA,NA,NA,NA,sub96
NA,mars-trial,66,246485,0.0-10.0-1.26,"""event"",""trial"",""time""
""fullscreenenter"",""0"",""3171""
","
","
","""event"",""trial"",""time""
""fullscreenenter"",""0"",""3171""
","
",9253,<img style='border: 4px solid darkgrey;' src='img/tf1_27_M_ss2.jpeg'></img>,3,NA,exp,NA,0,<img src='img/tf1_27_T1_ss2_md.jpeg'></img>,0,TRUE,NA,sub96
NA,html-keyboard-response,67,246988,0.0-10.0-0.27,"""event"",""trial"",""time""
""fullscreenenter"",""0"",""3171""
","
","
","""event"",""trial"",""time""
""fullscreenenter"",""0"",""3171""
","
",null,"<div style=""font-size:60px;"">+</div>",NA,null,fixation,2020-06-18T19:22:59Z,NA,NA,NA,NA,NA,sub96
NA,mars-trial,68,256180,0.0-10.0-1.27,"""event"",""trial"",""time""
""fullscreenenter"",""0"",""3171""
","
","
","""event"",""trial"",""time""
""fullscreenenter"",""0"",""3171""
","
",8588.00000000003,<img style='border: 4px solid darkgrey;' src='img/tf1_28_M_ss3.jpeg'></img>,1,NA,exp,NA,3,<img src='img/tf1_28_T1_ss3_md.jpeg'></img>,0,FALSE,NA,sub96
NA,html-keyboard-response,69,256682,0.0-10.0-0.28,"""event"",""trial"",""time""
""fullscreenenter"",""0"",""3171""
","
","
","""event"",""trial"",""time""
""fullscreenenter"",""0"",""3171""
","
",null,"<div style=""font-size:60px;"">+</div>",NA,null,fixation,2020-06-18T19:23:09Z,NA,NA,NA,NA,NA,sub96
NA,mars-trial,70,268197,0.0-10.0-1.28,"""event"",""trial"",""time""
""fullscreenenter"",""0"",""3171""
","
","
","""event"",""trial"",""time""
""fullscreenenter"",""0"",""3171""
","
",10912.000000000058,<img style='border: 4px solid darkgrey;' src='img/tf1_29_M_ss1.jpeg'></img>,3,NA,exp,NA,2,<img src='img/tf1_29_T1_ss1_md.jpeg'></img>,0,FALSE,NA,sub96
NA,html-keyboard-response,71,268698,0.0-10.0-0.29,"""event"",""trial"",""time""
""fullscreenenter"",""0"",""3171""
","
","
","""event"",""trial"",""time""
""fullscreenenter"",""0"",""3171""
","
",null,"<div style=""font-size:60px;"">+</div>",NA,null,fixation,2020-06-18T19:23:21Z,NA,NA,NA,NA,NA,sub96
NA,mars-trial,72,270466,0.0-10.0-1.29,"""event"",""trial"",""time""
""fullscreenenter"",""0"",""3171""
","
","
","""event"",""trial"",""time""
""fullscreenenter"",""0"",""3171""
","
",1163,<img style='border: 4px solid darkgrey;' src='img/tf1_30_M_ss2.jpeg'></img>,2,NA,exp,NA,0,<img src='img/tf1_30_T1_ss2_md.jpeg'></img>,0,TRUE,NA,sub96
NA,html-keyboard-response,73,270968,0.0-10.0-0.30,"""event"",""trial"",""time""
""fullscreenenter"",""0"",""3171""
","
","
","""event"",""trial"",""time""
""fullscreenenter"",""0"",""3171""
","
",null,"<div style=""font-size:60px;"">+</div>",NA,null,fixation,2020-06-18T19:23:23Z,NA,NA,NA,NA,NA,sub96
NA,mars-trial,74,272575,0.0-10.0-1.30,"""event"",""trial"",""time""
""fullscreenenter"",""0"",""3171""
","
","
","""event"",""trial"",""time""
""fullscreenenter"",""0"",""3171""
","
",1002,<img style='border: 4px solid darkgrey;' src='img/tf1_31_M_ss3.jpeg'></img>,2,NA,exp,NA,0,<img src='img/tf1_31_T1_ss3_md.jpeg'></img>,0,TRUE,NA,sub96
NA,html-keyboard-response,75,273077,0.0-10.0-0.31,"""event"",""trial"",""time""
""fullscreenenter"",""0"",""3171""
","
","
","""event"",""trial"",""time""
""fullscreenenter"",""0"",""3171""
","
",null,"<div style=""font-size:60px;"">+</div>",NA,null,fixation,2020-06-18T19:23:26Z,NA,NA,NA,NA,NA,sub96
NA,mars-trial,76,274881,0.0-10.0-1.31,"""event"",""trial"",""time""
""fullscreenenter"",""0"",""3171""
","
","
","""event"",""trial"",""time""
""fullscreenenter"",""0"",""3171""
","
",1199,<img style='border: 4px solid darkgrey;' src='img/tf1_32_M_ss1.jpeg'></img>,1,NA,exp,NA,0,<img src='img/tf1_32_T1_ss1_md.jpeg'></img>,0,TRUE,NA,sub96
NA,html-keyboard-response,77,275383,0.0-10.0-0.32,"""event"",""trial"",""time""
""fullscreenenter"",""0"",""3171""
","
","
","""event"",""trial"",""time""
""fullscreenenter"",""0"",""3171""
","
",null,"<div style=""font-size:60px;"">+</div>",NA,null,fixation,2020-06-18T19:23:28Z,NA,NA,NA,NA,NA,sub96
NA,mars-trial,78,278395,0.0-10.0-1.32,"""event"",""trial"",""time""
""fullscreenenter"",""0"",""3171""
","
","
","""event"",""trial"",""time""
""fullscreenenter"",""0"",""3171""
","
",2408,<img style='border: 4px solid darkgrey;' src='img/tf1_33_M_ss2.jpeg'></img>,3,NA,exp,NA,0,<img src='img/tf1_33_T1_ss2_md.jpeg'></img>,0,TRUE,NA,sub96
NA,html-keyboard-response,79,278897,0.0-10.0-0.33,"""event"",""trial"",""time""
""fullscreenenter"",""0"",""3171""
","
","
","""event"",""trial"",""time""
""fullscreenenter"",""0"",""3171""
","
",null,"<div style=""font-size:60px;"">+</div>",NA,null,fixation,2020-06-18T19:23:31Z,NA,NA,NA,NA,NA,sub96
NA,mars-trial,80,283824,0.0-10.0-1.33,"""event"",""trial"",""time""
""fullscreenenter"",""0"",""3171""
","
","
","""event"",""trial"",""time""
""fullscreenenter"",""0"",""3171""
","
",4322.000000000058,<img style='border: 4px solid darkgrey;' src='img/tf1_34_M_ss3.jpeg'></img>,1,NA,exp,NA,3,<img src='img/tf1_34_T1_ss3_md.jpeg'></img>,0,FALSE,NA,sub96
NA,html-keyboard-response,81,284325,0.0-10.0-0.34,"""event"",""trial"",""time""
""fullscreenenter"",""0"",""3171""
","
","
","""event"",""trial"",""time""
""fullscreenenter"",""0"",""3171""
","
",null,"<div style=""font-size:60px;"">+</div>",NA,null,fixation,2020-06-18T19:23:37Z,NA,NA,NA,NA,NA,sub96
NA,mars-trial,82,285780,0.0-10.0-1.34,"""event"",""trial"",""time""
""fullscreenenter"",""0"",""3171""
","
","
","""event"",""trial"",""time""
""fullscreenenter"",""0"",""3171""
","
",850,<img style='border: 4px solid darkgrey;' src='img/tf1_35_M_ss1.jpeg'></img>,2,NA,exp,NA,3,<img src='img/tf1_35_T1_ss1_md.jpeg'></img>,0,FALSE,NA,sub96
NA,html-keyboard-response,83,286282,0.0-10.0-0.35,"""event"",""trial"",""time""
""fullscreenenter"",""0"",""3171""
","
","
","""event"",""trial"",""time""
""fullscreenenter"",""0"",""3171""
","
",null,"<div style=""font-size:60px;"">+</div>",NA,null,fixation,2020-06-18T19:23:39Z,NA,NA,NA,NA,NA,sub96
NA,mars-trial,84,287921,0.0-10.0-1.35,"""event"",""trial"",""time""
""fullscreenenter"",""0"",""3171""
","
","
","""event"",""trial"",""time""
""fullscreenenter"",""0"",""3171""
","
",1035,<img style='border: 4px solid darkgrey;' src='img/tf1_36_M_ss2.jpeg'></img>,0,NA,exp,NA,3,<img src='img/tf1_36_T1_ss2_md.jpeg'></img>,0,FALSE,NA,sub96
NA,html-keyboard-response,85,288424,0.0-10.0-0.36,"""event"",""trial"",""time""
""fullscreenenter"",""0"",""3171""
","
","
","""event"",""trial"",""time""
""fullscreenenter"",""0"",""3171""
","
",null,"<div style=""font-size:60px;"">+</div>",NA,null,fixation,2020-06-18T19:23:41Z,NA,NA,NA,NA,NA,sub96
NA,mars-trial,86,289775,0.0-10.0-1.36,"""event"",""trial"",""time""
""fullscreenenter"",""0"",""3171""
","
","
","""event"",""trial"",""time""
""fullscreenenter"",""0"",""3171""
","
",748.0000000000582,<img style='border: 4px solid darkgrey;' src='img/tf1_37_M_ss3.jpeg'></img>,1,NA,exp,NA,1,<img src='img/tf1_37_T1_ss3_md.jpeg'></img>,0,FALSE,NA,sub96
NA,html-keyboard-response,87,290276,0.0-10.0-0.37,"""event"",""trial"",""time""
""fullscreenenter"",""0"",""3171""
","
","
","""event"",""trial"",""time""
""fullscreenenter"",""0"",""3171""
","
",null,"<div style=""font-size:60px;"">+</div>",NA,null,fixation,2020-06-18T19:23:43Z,NA,NA,NA,NA,NA,sub96
NA,mars-trial,88,291517,0.0-10.0-1.37,"""event"",""trial"",""time""
""fullscreenenter"",""0"",""3171""
","
","
","""event"",""trial"",""time""
""fullscreenenter"",""0"",""3171""
","
",637,<img style='border: 4px solid darkgrey;' src='img/tf1_38_M_ss1.jpeg'></img>,3,NA,exp,NA,1,<img src='img/tf1_38_T1_ss1_md.jpeg'></img>,0,FALSE,NA,sub96
NA,html-keyboard-response,89,292019,0.0-10.0-0.38,"""event"",""trial"",""time""
""fullscreenenter"",""0"",""3171""
","
","
","""event"",""trial"",""time""
""fullscreenenter"",""0"",""3171""
","
",null,"<div style=""font-size:60px;"">+</div>",NA,null,fixation,2020-06-18T19:23:44Z,NA,NA,NA,NA,NA,sub96
NA,mars-trial,90,293985,0.0-10.0-1.38,"""event"",""trial"",""time""
""fullscreenenter"",""0"",""3171""
","
","
","""event"",""trial"",""time""
""fullscreenenter"",""0"",""3171""
","
",1362.0000000000582,<img style='border: 4px solid darkgrey;' src='img/tf1_39_M_ss2.jpeg'></img>,2,NA,exp,NA,0,<img src='img/tf1_39_T1_ss2_md.jpeg'></img>,0,TRUE,NA,sub96
NA,html-keyboard-response,91,294487,0.0-10.0-0.39,"""event"",""trial"",""time""
""fullscreenenter"",""0"",""3171""
","
","
","""event"",""trial"",""time""
""fullscreenenter"",""0"",""3171""
","
",null,"<div style=""font-size:60px;"">+</div>",NA,null,fixation,2020-06-18T19:23:47Z,NA,NA,NA,NA,NA,sub96
NA,mars-trial,92,296852,0.0-10.0-1.39,"""event"",""trial"",""time""
""fullscreenenter"",""0"",""3171""
","
","
","""event"",""trial"",""time""
""fullscreenenter"",""0"",""3171""
","
",1761,<img style='border: 4px solid darkgrey;' src='img/tf1_40_M_ss3.jpeg'></img>,3,NA,exp,NA,2,<img src='img/tf1_40_T1_ss3_md.jpeg'></img>,0,FALSE,NA,sub96
NA,html-keyboard-response,93,297354,0.0-10.0-0.40,"""event"",""trial"",""time""
""fullscreenenter"",""0"",""3171""
","
","
","""event"",""trial"",""time""
""fullscreenenter"",""0"",""3171""
","
",null,"<div style=""font-size:60px;"">+</div>",NA,null,fixation,2020-06-18T19:23:50Z,NA,NA,NA,NA,NA,sub96
NA,mars-trial,94,303168,0.0-10.0-1.40,"""event"",""trial"",""time""
""fullscreenenter"",""0"",""3171""
","
","
","""event"",""trial"",""time""
""fullscreenenter"",""0"",""3171""
","
",5211,<img style='border: 4px solid darkgrey;' src='img/tf1_41_M_ss1.jpeg'></img>,1,NA,exp,NA,0,<img src='img/tf1_41_T1_ss1_md.jpeg'></img>,0,TRUE,NA,sub96
NA,html-keyboard-response,95,303670,0.0-10.0-0.41,"""event"",""trial"",""time""
""fullscreenenter"",""0"",""3171""
","
","
","""event"",""trial"",""time""
""fullscreenenter"",""0"",""3171""
","
",null,"<div style=""font-size:60px;"">+</div>",NA,null,fixation,2020-06-18T19:23:56Z,NA,NA,NA,NA,NA,sub96
NA,mars-trial,96,312306,0.0-10.0-1.41,"""event"",""trial"",""time""
""fullscreenenter"",""0"",""3171""
","
","
","""event"",""trial"",""time""
""fullscreenenter"",""0"",""3171""
","
",8032,<img style='border: 4px solid darkgrey;' src='img/tf1_42_M_ss2.jpeg'></img>,3,NA,exp,NA,1,<img src='img/tf1_42_T1_ss2_md.jpeg'></img>,0,FALSE,NA,sub96
NA,html-keyboard-response,97,312808,0.0-10.0-0.42,"""event"",""trial"",""time""
""fullscreenenter"",""0"",""3171""
","
","
","""event"",""trial"",""time""
""fullscreenenter"",""0"",""3171""
","
",null,"<div style=""font-size:60px;"">+</div>",NA,null,fixation,2020-06-18T19:24:05Z,NA,NA,NA,NA,NA,sub96
NA,mars-trial,98,317852,0.0-10.0-1.42,"""event"",""trial"",""time""
""fullscreenenter"",""0"",""3171""
","
","
","""event"",""trial"",""time""
""fullscreenenter"",""0"",""3171""
","
",4440,<img style='border: 4px solid darkgrey;' src='img/tf1_43_M_ss3.jpeg'></img>,3,NA,exp,NA,0,<img src='img/tf1_43_T1_ss3_md.jpeg'></img>,0,TRUE,NA,sub96
NA,html-keyboard-response,99,318354,0.0-10.0-0.43,"""event"",""trial"",""time""
""fullscreenenter"",""0"",""3171""
","
","
","""event"",""trial"",""time""
""fullscreenenter"",""0"",""3171""
","
",null,"<div style=""font-size:60px;"">+</div>",NA,null,fixation,2020-06-18T19:24:11Z,NA,NA,NA,NA,NA,sub96
NA,mars-trial,100,326841,0.0-10.0-1.43,"""event"",""trial"",""time""
""fullscreenenter"",""0"",""3171""
","
","
","""event"",""trial"",""time""
""fullscreenenter"",""0"",""3171""
","
",7883,<img style='border: 4px solid darkgrey;' src='img/tf1_44_M_ss1.jpeg'></img>,1,NA,exp,NA,0,<img src='img/tf1_44_T1_ss1_md.jpeg'></img>,0,TRUE,NA,sub96
NA,html-keyboard-response,101,327343,0.0-10.0-0.44,"""event"",""trial"",""time""
""fullscreenenter"",""0"",""3171""
","
","
","""event"",""trial"",""time""
""fullscreenenter"",""0"",""3171""
","
",null,"<div style=""font-size:60px;"">+</div>",NA,null,fixation,2020-06-18T19:24:20Z,NA,NA,NA,NA,NA,sub96
NA,mars-trial,102,340487,0.0-10.0-1.44,"""event"",""trial"",""time""
""fullscreenenter"",""0"",""3171""
","
","
","""event"",""trial"",""time""
""fullscreenenter"",""0"",""3171""
","
",12539,<img style='border: 4px solid darkgrey;' src='img/tf1_45_M_ss2.jpeg'></img>,1,NA,exp,NA,2,<img src='img/tf1_45_T1_ss2_md.jpeg'></img>,0,FALSE,NA,sub96
NA,html-keyboard-response,103,340990,0.0-10.0-0.45,"""event"",""trial"",""time""
""fullscreenenter"",""0"",""3171""
","
","
","""event"",""trial"",""time""
""fullscreenenter"",""0"",""3171""
","
",null,"<div style=""font-size:60px;"">+</div>",NA,null,fixation,2020-06-18T19:24:33Z,NA,NA,NA,NA,NA,sub96
NA,mars-trial,104,342764,0.0-10.0-1.45,"""event"",""trial"",""time""
""fullscreenenter"",""0"",""3171""
","
","
","""event"",""trial"",""time""
""fullscreenenter"",""0"",""3171""
","
",1170.0000000000582,<img style='border: 4px solid darkgrey;' src='img/tf1_46_M_ss3.jpeg'></img>,2,NA,exp,NA,2,<img src='img/tf1_46_T1_ss3_md.jpeg'></img>,0,FALSE,NA,sub96
NA,html-keyboard-response,105,343265,0.0-10.0-0.46,"""event"",""trial"",""time""
""fullscreenenter"",""0"",""3171""
","
","
","""event"",""trial"",""time""
""fullscreenenter"",""0"",""3171""
","
",null,"<div style=""font-size:60px;"">+</div>",NA,null,fixation,2020-06-18T19:24:36Z,NA,NA,NA,NA,NA,sub96
NA,mars-trial,106,344610,0.0-10.0-1.46,"""event"",""trial"",""time""
""fullscreenenter"",""0"",""3171""
","
","
","""event"",""trial"",""time""
""fullscreenenter"",""0"",""3171""
","
",739,<img style='border: 4px solid darkgrey;' src='img/tf1_47_M_ss1.jpeg'></img>,0,NA,exp,NA,2,<img src='img/tf1_47_T1_ss1_md.jpeg'></img>,0,FALSE,NA,sub96
NA,html-keyboard-response,107,345111,0.0-10.0-0.47,"""event"",""trial"",""time""
""fullscreenenter"",""0"",""3171""
","
","
","""event"",""trial"",""time""
""fullscreenenter"",""0"",""3171""
","
",null,"<div style=""font-size:60px;"">+</div>",NA,null,fixation,2020-06-18T19:24:38Z,NA,NA,NA,NA,NA,sub96
NA,mars-trial,108,346636,0.0-10.0-1.47,"""event"",""trial"",""time""
""fullscreenenter"",""0"",""3171""
","
","
","""event"",""trial"",""time""
""fullscreenenter"",""0"",""3171""
","
",921,<img style='border: 4px solid darkgrey;' src='img/tf1_48_M_ss2.jpeg'></img>,3,NA,exp,NA,0,<img src='img/tf1_48_T1_ss2_md.jpeg'></img>,0,TRUE,NA,sub96
NA,html-keyboard-response,109,347138,0.0-10.0-0.48,"""event"",""trial"",""time""
""fullscreenenter"",""0"",""3171""
","
","
","""event"",""trial"",""time""
""fullscreenenter"",""0"",""3171""
","
",null,"<div style=""font-size:60px;"">+</div>",NA,null,fixation,2020-06-18T19:24:40Z,NA,NA,NA,NA,NA,sub96
NA,mars-trial,110,348738,0.0-10.0-1.48,"""event"",""trial"",""time""
""fullscreenenter"",""0"",""3171""
","
","
","""event"",""trial"",""time""
""fullscreenenter"",""0"",""3171""
","
",995,<img style='border: 4px solid darkgrey;' src='img/tf1_49_M_ss3.jpeg'></img>,1,NA,exp,NA,1,<img src='img/tf1_49_T1_ss3_md.jpeg'></img>,0,FALSE,NA,sub96
NA,html-keyboard-response,111,349240,0.0-10.0-0.49,"""event"",""trial"",""time""
""fullscreenenter"",""0"",""3171""
","
","
","""event"",""trial"",""time""
""fullscreenenter"",""0"",""3171""
","
",null,"<div style=""font-size:60px;"">+</div>",NA,null,fixation,2020-06-18T19:24:42Z,NA,NA,NA,NA,NA,sub96
NA,mars-trial,112,351014,0.0-10.0-1.49,"""event"",""trial"",""time""
""fullscreenenter"",""0"",""3171""
","
","
","""event"",""trial"",""time""
""fullscreenenter"",""0"",""3171""
","
",1171,<img style='border: 4px solid darkgrey;' src='img/tf1_50_M_ss1.jpeg'></img>,2,NA,exp,NA,1,<img src='img/tf1_50_T1_ss1_md.jpeg'></img>,0,FALSE,NA,sub96
NA,html-keyboard-response,113,351515,0.0-10.0-0.50,"""event"",""trial"",""time""
""fullscreenenter"",""0"",""3171""
","
","
","""event"",""trial"",""time""
""fullscreenenter"",""0"",""3171""
","
",null,"<div style=""font-size:60px;"">+</div>",NA,null,fixation,2020-06-18T19:24:44Z,NA,NA,NA,NA,NA,sub96
NA,mars-trial,114,352668,0.0-10.0-1.50,"""event"",""trial"",""time""
""fullscreenenter"",""0"",""3171""
","
","
","""event"",""trial"",""time""
""fullscreenenter"",""0"",""3171""
","
",548,<img style='border: 4px solid darkgrey;' src='img/tf1_51_M_ss2.jpeg'></img>,0,NA,exp,NA,2,<img src='img/tf1_51_T1_ss2_md.jpeg'></img>,0,FALSE,NA,sub96
NA,html-keyboard-response,115,353170,0.0-10.0-0.51,"""event"",""trial"",""time""
""fullscreenenter"",""0"",""3171""
","
","
","""event"",""trial"",""time""
""fullscreenenter"",""0"",""3171""
","
",null,"<div style=""font-size:60px;"">+</div>",NA,null,fixation,2020-06-18T19:24:46Z,NA,NA,NA,NA,NA,sub96
NA,mars-trial,116,354273,0.0-10.0-1.51,"""event"",""trial"",""time""
""fullscreenenter"",""0"",""3171""
","
","
","""event"",""trial"",""time""
""fullscreenenter"",""0"",""3171""
","
",499,<img style='border: 4px solid darkgrey;' src='img/tf1_52_M_ss3.jpeg'></img>,2,NA,exp,NA,2,<img src='img/tf1_52_T1_ss3_md.jpeg'></img>,0,FALSE,NA,sub96
NA,html-keyboard-response,117,354775,0.0-10.0-0.52,"""event"",""trial"",""time""
""fullscreenenter"",""0"",""3171""
","
","
","""event"",""trial"",""time""
""fullscreenenter"",""0"",""3171""
","
",null,"<div style=""font-size:60px;"">+</div>",NA,null,fixation,2020-06-18T19:24:47Z,NA,NA,NA,NA,NA,sub96
NA,mars-trial,118,355935,0.0-10.0-1.52,"""event"",""trial"",""time""
""fullscreenenter"",""0"",""3171""
","
","
","""event"",""trial"",""time""
""fullscreenenter"",""0"",""3171""
","
",557,<img style='border: 4px solid darkgrey;' src='img/tf1_53_M_ss1.jpeg'></img>,1,NA,exp,NA,2,<img src='img/tf1_53_T1_ss1_md.jpeg'></img>,0,FALSE,NA,sub96
NA,html-keyboard-response,119,356437,0.0-10.0-0.53,"""event"",""trial"",""time""
""fullscreenenter"",""0"",""3171""
","
","
","""event"",""trial"",""time""
""fullscreenenter"",""0"",""3171""
","
",null,"<div style=""font-size:60px;"">+</div>",NA,null,fixation,2020-06-18T19:24:49Z,NA,NA,NA,NA,NA,sub96
NA,mars-trial,120,357803,0.0-10.0-1.53,"""event"",""trial"",""time""
""fullscreenenter"",""0"",""3171""
","
","
","""event"",""trial"",""time""
""fullscreenenter"",""0"",""3171""
","
",763,<img style='border: 4px solid darkgrey;' src='img/tf1_54_M_ss2.jpeg'></img>,3,NA,exp,NA,0,<img src='img/tf1_54_T1_ss2_md.jpeg'></img>,0,TRUE,NA,sub96
NA,html-keyboard-response,121,358304,0.0-10.0-0.54,"""event"",""trial"",""time""
""fullscreenenter"",""0"",""3171""
","
","
","""event"",""trial"",""time""
""fullscreenenter"",""0"",""3171""
","
",null,"<div style=""font-size:60px;"">+</div>",NA,null,fixation,2020-06-18T19:24:51Z,NA,NA,NA,NA,NA,sub96
NA,mars-trial,122,360040,0.0-10.0-1.54,"""event"",""trial"",""time""
""fullscreenenter"",""0"",""3171""
","
","
","""event"",""trial"",""time""
""fullscreenenter"",""0"",""3171""
","
",1131.9999999999418,<img style='border: 4px solid darkgrey;' src='img/tf1_55_M_ss3.jpeg'></img>,1,NA,exp,NA,3,<img src='img/tf1_55_T1_ss3_md.jpeg'></img>,0,FALSE,NA,sub96
NA,html-keyboard-response,123,360542,0.0-10.0-0.55,"""event"",""trial"",""time""
""fullscreenenter"",""0"",""3171""
","
","
","""event"",""trial"",""time""
""fullscreenenter"",""0"",""3171""
","
",null,"<div style=""font-size:60px;"">+</div>",NA,null,fixation,2020-06-18T19:24:53Z,NA,NA,NA,NA,NA,sub96
NA,mars-trial,124,361805,0.0-10.0-1.55,"""event"",""trial"",""time""
""fullscreenenter"",""0"",""3171""
","
","
","""event"",""trial"",""time""
""fullscreenenter"",""0"",""3171""
","
",658,<img style='border: 4px solid darkgrey;' src='img/tf1_56_M_ss1.jpeg'></img>,3,NA,exp,NA,3,<img src='img/tf1_56_T1_ss1_md.jpeg'></img>,0,FALSE,NA,sub96
NA,html-keyboard-response,125,362307,0.0-10.0-0.56,"""event"",""trial"",""time""
""fullscreenenter"",""0"",""3171""
","
","
","""event"",""trial"",""time""
""fullscreenenter"",""0"",""3171""
","
",null,"<div style=""font-size:60px;"">+</div>",NA,null,fixation,2020-06-18T19:24:55Z,NA,NA,NA,NA,NA,sub96
NA,mars-trial,126,363698,0.0-10.0-1.56,"""event"",""trial"",""time""
""fullscreenenter"",""0"",""3171""
","
","
","""event"",""trial"",""time""
""fullscreenenter"",""0"",""3171""
","
",787,<img style='border: 4px solid darkgrey;' src='img/tf1_57_M_ss2.jpeg'></img>,0,NA,exp,NA,0,<img src='img/tf1_57_T1_ss2_md.jpeg'></img>,0,TRUE,NA,sub96
NA,html-keyboard-response,127,364199,0.0-10.0-0.57,"""event"",""trial"",""time""
""fullscreenenter"",""0"",""3171""
","
","
","""event"",""trial"",""time""
""fullscreenenter"",""0"",""3171""
","
",null,"<div style=""font-size:60px;"">+</div>",NA,null,fixation,2020-06-18T19:24:57Z,NA,NA,NA,NA,NA,sub96
NA,mars-trial,128,378079,0.0-10.0-1.57,"""event"",""trial"",""time""
""fullscreenenter"",""0"",""3171""
","
","
","""event"",""trial"",""time""
""fullscreenenter"",""0"",""3171""
","
",13276,<img style='border: 4px solid darkgrey;' src='img/tf1_58_M_ss3.jpeg'></img>,2,NA,exp,NA,3,<img src='img/tf1_58_T1_ss3_md.jpeg'></img>,0,FALSE,NA,sub96
NA,html-keyboard-response,129,378581,0.0-10.0-0.58,"""event"",""trial"",""time""
""fullscreenenter"",""0"",""3171""
","
","
","""event"",""trial"",""time""
""fullscreenenter"",""0"",""3171""
","
",null,"<div style=""font-size:60px;"">+</div>",NA,null,fixation,2020-06-18T19:25:11Z,NA,NA,NA,NA,NA,sub96
NA,mars-trial,130,380247,0.0-10.0-1.58,"""event"",""trial"",""time""
""fullscreenenter"",""0"",""3171""
","
","
","""event"",""trial"",""time""
""fullscreenenter"",""0"",""3171""
","
",1062.0000000000582,<img style='border: 4px solid darkgrey;' src='img/tf1_59_M_ss1.jpeg'></img>,2,NA,exp,NA,2,<img src='img/tf1_59_T1_ss1_md.jpeg'></img>,0,FALSE,NA,sub96
NA,html-keyboard-response,131,380749,0.0-10.0-0.59,"""event"",""trial"",""time""
""fullscreenenter"",""0"",""3171""
","
","
","""event"",""trial"",""time""
""fullscreenenter"",""0"",""3171""
","
",null,"<div style=""font-size:60px;"">+</div>",NA,null,fixation,2020-06-18T19:25:13Z,NA,NA,NA,NA,NA,sub96
NA,mars-trial,132,381860,0.0-10.0-1.59,"""event"",""trial"",""time""
""fullscreenenter"",""0"",""3171""
","
","
","""event"",""trial"",""time""
""fullscreenenter"",""0"",""3171""
","
",506.0000000000582,<img style='border: 4px solid darkgrey;' src='img/tf1_60_M_ss2.jpeg'></img>,1,NA,exp,NA,1,<img src='img/tf1_60_T1_ss2_md.jpeg'></img>,0,FALSE,NA,sub96
NA,html-keyboard-response,133,382362,0.0-10.0-0.60,"""event"",""trial"",""time""
""fullscreenenter"",""0"",""3171""
","
","
","""event"",""trial"",""time""
""fullscreenenter"",""0"",""3171""
","
",null,"<div style=""font-size:60px;"">+</div>",NA,null,fixation,2020-06-18T19:25:15Z,NA,NA,NA,NA,NA,sub96
NA,mars-trial,134,383369,0.0-10.0-1.60,"""event"",""trial"",""time""
""fullscreenenter"",""0"",""3171""
","
","
","""event"",""trial"",""time""
""fullscreenenter"",""0"",""3171""
","
",403,<img style='border: 4px solid darkgrey;' src='img/tf1_61_M_ss3.jpeg'></img>,3,NA,exp,NA,1,<img src='img/tf1_61_T1_ss3_md.jpeg'></img>,0,FALSE,NA,sub96
NA,html-keyboard-response,135,383871,0.0-10.0-0.61,"""event"",""trial"",""time""
""fullscreenenter"",""0"",""3171""
","
","
","""event"",""trial"",""time""
""fullscreenenter"",""0"",""3171""
","
",null,"<div style=""font-size:60px;"">+</div>",NA,null,fixation,2020-06-18T19:25:16Z,NA,NA,NA,NA,NA,sub96
NA,mars-trial,136,385399,0.0-10.0-1.61,"""event"",""trial"",""time""
""fullscreenenter"",""0"",""3171""
","
","
","""event"",""trial"",""time""
""fullscreenenter"",""0"",""3171""
","
",924,<img style='border: 4px solid darkgrey;' src='img/tf1_62_M_ss1.jpeg'></img>,0,NA,exp,NA,2,<img src='img/tf1_62_T1_ss1_md.jpeg'></img>,0,FALSE,NA,sub96
NA,html-keyboard-response,137,385901,0.0-10.0-0.62,"""event"",""trial"",""time""
""fullscreenenter"",""0"",""3171""
","
","
","""event"",""trial"",""time""
""fullscreenenter"",""0"",""3171""
","
",null,"<div style=""font-size:60px;"">+</div>",NA,null,fixation,2020-06-18T19:25:18Z,NA,NA,NA,NA,NA,sub96
NA,mars-trial,138,387051,0.0-10.0-1.62,"""event"",""trial"",""time""
""fullscreenenter"",""0"",""3171""
","
","
","""event"",""trial"",""time""
""fullscreenenter"",""0"",""3171""
","
",547,<img style='border: 4px solid darkgrey;' src='img/tf1_63_M_ss2.jpeg'></img>,1,NA,exp,NA,2,<img src='img/tf1_63_T1_ss2_md.jpeg'></img>,0,FALSE,NA,sub96
NA,html-keyboard-response,139,387552,0.0-10.0-0.63,"""event"",""trial"",""time""
""fullscreenenter"",""0"",""3171""
","
","
","""event"",""trial"",""time""
""fullscreenenter"",""0"",""3171""
","
",null,"<div style=""font-size:60px;"">+</div>",NA,null,fixation,2020-06-18T19:25:20Z,NA,NA,NA,NA,NA,sub96
NA,mars-trial,140,388545,0.0-10.0-1.63,"""event"",""trial"",""time""
""fullscreenenter"",""0"",""3171""
","
","
","""event"",""trial"",""time""
""fullscreenenter"",""0"",""3171""
","
",389,<img style='border: 4px solid darkgrey;' src='img/tf1_64_M_ss3.jpeg'></img>,2,NA,exp,NA,3,<img src='img/tf1_64_T1_ss3_md.jpeg'></img>,0,FALSE,NA,sub96
NA,html-keyboard-response,141,389047,0.0-10.0-0.64,"""event"",""trial"",""time""
""fullscreenenter"",""0"",""3171""
","
","
","""event"",""trial"",""time""
""fullscreenenter"",""0"",""3171""
","
",null,"<div style=""font-size:60px;"">+</div>",NA,null,fixation,2020-06-18T19:25:22Z,NA,NA,NA,NA,NA,sub96
NA,mars-trial,142,390056,0.0-10.0-1.64,"""event"",""trial"",""time""
""fullscreenenter"",""0"",""3171""
","
","
","""event"",""trial"",""time""
""fullscreenenter"",""0"",""3171""
","
",404.9999999999418,<img style='border: 4px solid darkgrey;' src='img/tf1_65_M_ss1.jpeg'></img>,1,NA,exp,NA,1,<img src='img/tf1_65_T1_ss1_md.jpeg'></img>,0,FALSE,NA,sub96
NA,html-keyboard-response,143,390558,0.0-10.0-0.65,"""event"",""trial"",""time""
""fullscreenenter"",""0"",""3171""
","
","
","""event"",""trial"",""time""
""fullscreenenter"",""0"",""3171""
","
",null,"<div style=""font-size:60px;"">+</div>",NA,null,fixation,2020-06-18T19:25:23Z,NA,NA,NA,NA,NA,sub96
NA,mars-trial,144,392211,0.0-10.0-1.65,"""event"",""trial"",""time""
""fullscreenenter"",""0"",""3171""
","
","
","""event"",""trial"",""time""
""fullscreenenter"",""0"",""3171""
","
",1051,<img style='border: 4px solid darkgrey;' src='img/tf1_66_M_ss2.jpeg'></img>,1,NA,exp,NA,3,<img src='img/tf1_66_T1_ss2_md.jpeg'></img>,0,FALSE,NA,sub96
NA,html-keyboard-response,145,392713,0.0-10.0-0.66,"""event"",""trial"",""time""
""fullscreenenter"",""0"",""3171""
","
","
","""event"",""trial"",""time""
""fullscreenenter"",""0"",""3171""
","
",null,"<div style=""font-size:60px;"">+</div>",NA,null,fixation,2020-06-18T19:25:25Z,NA,NA,NA,NA,NA,sub96
NA,mars-trial,146,393784,0.0-10.0-1.66,"""event"",""trial"",""time""
""fullscreenenter"",""0"",""3171""
","
","
","""event"",""trial"",""time""
""fullscreenenter"",""0"",""3171""
","
",467,<img style='border: 4px solid darkgrey;' src='img/tf1_67_M_ss3.jpeg'></img>,1,NA,exp,NA,1,<img src='img/tf1_67_T1_ss3_md.jpeg'></img>,0,FALSE,NA,sub96
NA,html-keyboard-response,147,394286,0.0-10.0-0.67,"""event"",""trial"",""time""
""fullscreenenter"",""0"",""3171""
","
","
","""event"",""trial"",""time""
""fullscreenenter"",""0"",""3171""
","
",null,"<div style=""font-size:60px;"">+</div>",NA,null,fixation,2020-06-18T19:25:27Z,NA,NA,NA,NA,NA,sub96
NA,mars-trial,148,395247,0.0-10.0-1.67,"""event"",""trial"",""time""
""fullscreenenter"",""0"",""3171""
","
","
","""event"",""trial"",""time""
""fullscreenenter"",""0"",""3171""
","
",356.0000000000582,<img style='border: 4px solid darkgrey;' src='img/tf1_68_M_ss1.jpeg'></img>,1,NA,exp,NA,1,<img src='img/tf1_68_T1_ss1_md.jpeg'></img>,0,FALSE,NA,sub96
NA,html-keyboard-response,149,395749,0.0-10.0-0.68,"""event"",""trial"",""time""
""fullscreenenter"",""0"",""3171""
","
","
","""event"",""trial"",""time""
""fullscreenenter"",""0"",""3171""
","
",null,"<div style=""font-size:60px;"">+</div>",NA,null,fixation,2020-06-18T19:25:28Z,NA,NA,NA,NA,NA,sub96
NA,mars-trial,150,396580,0.0-10.0-1.68,"""event"",""trial"",""time""
""fullscreenenter"",""0"",""3171""
","
","
","""event"",""trial"",""time""
""fullscreenenter"",""0"",""3171""
","
",228,<img style='border: 4px solid darkgrey;' src='img/tf1_69_M_ss2.jpeg'></img>,1,NA,exp,NA,1,<img src='img/tf1_69_T1_ss2_md.jpeg'></img>,0,FALSE,NA,sub96
NA,html-keyboard-response,151,397082,0.0-10.0-0.69,"""event"",""trial"",""time""
""fullscreenenter"",""0"",""3171""
","
","
","""event"",""trial"",""time""
""fullscreenenter"",""0"",""3171""
","
",null,"<div style=""font-size:60px;"">+</div>",NA,null,fixation,2020-06-18T19:25:30Z,NA,NA,NA,NA,NA,sub96
NA,mars-trial,152,398121,0.0-10.0-1.69,"""event"",""trial"",""time""
""fullscreenenter"",""0"",""3171""
","
","
","""event"",""trial"",""time""
""fullscreenenter"",""0"",""3171""
","
",436.0000000000582,<img style='border: 4px solid darkgrey;' src='img/tf1_70_M_ss3.jpeg'></img>,2,NA,exp,NA,0,<img src='img/tf1_70_T1_ss3_md.jpeg'></img>,0,TRUE,NA,sub96
NA,html-keyboard-response,153,398622,0.0-10.0-0.70,"""event"",""trial"",""time""
""fullscreenenter"",""0"",""3171""
","
","
","""event"",""trial"",""time""
""fullscreenenter"",""0"",""3171""
","
",null,"<div style=""font-size:60px;"">+</div>",NA,null,fixation,2020-06-18T19:25:31Z,NA,NA,NA,NA,NA,sub96
NA,mars-trial,154,399518,0.0-10.0-1.70,"""event"",""trial"",""time""
""fullscreenenter"",""0"",""3171""
","
","
","""event"",""trial"",""time""
""fullscreenenter"",""0"",""3171""
","
",292,<img style='border: 4px solid darkgrey;' src='img/tf1_71_M_ss1.jpeg'></img>,2,NA,exp,NA,0,<img src='img/tf1_71_T1_ss1_md.jpeg'></img>,0,TRUE,NA,sub96
NA,html-keyboard-response,155,400021,0.0-10.0-0.71,"""event"",""trial"",""time""
""fullscreenenter"",""0"",""3171""
","
","
","""event"",""trial"",""time""
""fullscreenenter"",""0"",""3171""
","
",null,"<div style=""font-size:60px;"">+</div>",NA,null,fixation,2020-06-18T19:25:32Z,NA,NA,NA,NA,NA,sub96
NA,mars-trial,156,400973,0.0-10.0-1.71,"""event"",""trial"",""time""
""fullscreenenter"",""0"",""3171""
","
","
","""event"",""trial"",""time""
""fullscreenenter"",""0"",""3171""
","
",348.0000000000582,<img style='border: 4px solid darkgrey;' src='img/tf1_72_M_ss2.jpeg'></img>,2,NA,exp,NA,2,<img src='img/tf1_72_T1_ss2_md.jpeg'></img>,0,FALSE,NA,sub96
NA,html-keyboard-response,157,401475,0.0-10.0-0.72,"""event"",""trial"",""time""
""fullscreenenter"",""0"",""3171""
","
","
","""event"",""trial"",""time""
""fullscreenenter"",""0"",""3171""
","
",null,"<div style=""font-size:60px;"">+</div>",NA,null,fixation,2020-06-18T19:25:34Z,NA,NA,NA,NA,NA,sub96
NA,mars-trial,158,402474,0.0-10.0-1.72,"""event"",""trial"",""time""
""fullscreenenter"",""0"",""3171""
","
","
","""event"",""trial"",""time""
""fullscreenenter"",""0"",""3171""
","
",396,<img style='border: 4px solid darkgrey;' src='img/tf1_73_M_ss3.jpeg'></img>,1,NA,exp,NA,1,<img src='img/tf1_73_T1_ss3_md.jpeg'></img>,0,FALSE,NA,sub96
NA,html-keyboard-response,159,402976,0.0-10.0-0.73,"""event"",""trial"",""time""
""fullscreenenter"",""0"",""3171""
","
","
","""event"",""trial"",""time""
""fullscreenenter"",""0"",""3171""
","
",null,"<div style=""font-size:60px;"">+</div>",NA,null,fixation,2020-06-18T19:25:35Z,NA,NA,NA,NA,NA,sub96
NA,mars-trial,160,403951,0.0-10.0-1.73,"""event"",""trial"",""time""
""fullscreenenter"",""0"",""3171""
","
","
","""event"",""trial"",""time""
""fullscreenenter"",""0"",""3171""
","
",372,<img style='border: 4px solid darkgrey;' src='img/tf1_74_M_ss1.jpeg'></img>,3,NA,exp,NA,0,<img src='img/tf1_74_T1_ss1_md.jpeg'></img>,0,TRUE,NA,sub96
NA,html-keyboard-response,161,404453,0.0-10.0-0.74,"""event"",""trial"",""time""
""fullscreenenter"",""0"",""3171""
","
","
","""event"",""trial"",""time""
""fullscreenenter"",""0"",""3171""
","
",null,"<div style=""font-size:60px;"">+</div>",NA,null,fixation,2020-06-18T19:25:37Z,NA,NA,NA,NA,NA,sub96
NA,mars-trial,162,405381,0.0-10.0-1.74,"""event"",""trial"",""time""
""fullscreenenter"",""0"",""3171""
","
","
","""event"",""trial"",""time""
""fullscreenenter"",""0"",""3171""
","
",324,<img style='border: 4px solid darkgrey;' src='img/tf1_75_M_ss2.jpeg'></img>,2,NA,exp,NA,3,<img src='img/tf1_75_T1_ss2_md.jpeg'></img>,0,FALSE,NA,sub96
NA,html-keyboard-response,163,405882,0.0-10.0-0.75,"""event"",""trial"",""time""
""fullscreenenter"",""0"",""3171""
","
","
","""event"",""trial"",""time""
""fullscreenenter"",""0"",""3171""
","
",null,"<div style=""font-size:60px;"">+</div>",NA,null,fixation,2020-06-18T19:25:38Z,NA,NA,NA,NA,NA,sub96
NA,mars-trial,164,406867,0.0-10.0-1.75,"""event"",""trial"",""time""
""fullscreenenter"",""0"",""3171""
","
","
","""event"",""trial"",""time""
""fullscreenenter"",""0"",""3171""
","
",381,<img style='border: 4px solid darkgrey;' src='img/tf1_76_M_ss3.jpeg'></img>,1,NA,exp,NA,0,<img src='img/tf1_76_T1_ss3_md.jpeg'></img>,0,TRUE,NA,sub96
NA,html-keyboard-response,165,407368,0.0-10.0-0.76,"""event"",""trial"",""time""
""fullscreenenter"",""0"",""3171""
","
","
","""event"",""trial"",""time""
""fullscreenenter"",""0"",""3171""
","
",null,"<div style=""font-size:60px;"">+</div>",NA,null,fixation,2020-06-18T19:25:40Z,NA,NA,NA,NA,NA,sub96
NA,mars-trial,166,408504,0.0-10.0-1.76,"""event"",""trial"",""time""
""fullscreenenter"",""0"",""3171""
","
","
","""event"",""trial"",""time""
""fullscreenenter"",""0"",""3171""
","
",533,<img style='border: 4px solid darkgrey;' src='img/tf1_77_M_ss1.jpeg'></img>,3,NA,exp,NA,3,<img src='img/tf1_77_T1_ss1_md.jpeg'></img>,0,FALSE,NA,sub96
NA,html-keyboard-response,167,409005,0.0-10.0-0.77,"""event"",""trial"",""time""
""fullscreenenter"",""0"",""3171""
","
","
","""event"",""trial"",""time""
""fullscreenenter"",""0"",""3171""
","
",null,"<div style=""font-size:60px;"">+</div>",NA,null,fixation,2020-06-18T19:25:41Z,NA,NA,NA,NA,NA,sub96
NA,mars-trial,168,410221,0.0-10.0-1.77,"""event"",""trial"",""time""
""fullscreenenter"",""0"",""3171""
","
","
","""event"",""trial"",""time""
""fullscreenenter"",""0"",""3171""
","
",613,<img style='border: 4px solid darkgrey;' src='img/tf1_78_M_ss2.jpeg'></img>,1,NA,exp,NA,0,<img src='img/tf1_78_T1_ss2_md.jpeg'></img>,0,TRUE,NA,sub96
NA,html-keyboard-response,169,410723,0.0-10.0-0.78,"""event"",""trial"",""time""
""fullscreenenter"",""0"",""3171""
","
","
","""event"",""trial"",""time""
""fullscreenenter"",""0"",""3171""
","
",null,"<div style=""font-size:60px;"">+</div>",NA,null,fixation,2020-06-18T19:25:43Z,NA,NA,NA,NA,NA,sub96
NA,mars-trial,170,412020,0.0-10.0-1.78,"""event"",""trial"",""time""
""fullscreenenter"",""0"",""3171""
","
","
","""event"",""trial"",""time""
""fullscreenenter"",""0"",""3171""
","
",691,<img style='border: 4px solid darkgrey;' src='img/tf1_79_M_ss3.jpeg'></img>,2,NA,exp,NA,2,<img src='img/tf1_79_T1_ss3_md.jpeg'></img>,0,FALSE,NA,sub96
NA,html-keyboard-response,171,412521,0.0-10.0-0.79,"""event"",""trial"",""time""
""fullscreenenter"",""0"",""3171""
","
","
","""event"",""trial"",""time""
""fullscreenenter"",""0"",""3171""
","
",null,"<div style=""font-size:60px;"">+</div>",NA,null,fixation,2020-06-18T19:25:45Z,NA,NA,NA,NA,NA,sub96
NA,mars-trial,172,413504,0.0-10.0-1.79,"""event"",""trial"",""time""
""fullscreenenter"",""0"",""3171""
","
","
","""event"",""trial"",""time""
""fullscreenenter"",""0"",""3171""
","
",381,<img style='border: 4px solid darkgrey;' src='img/tf1_80_M_ss1.jpeg'></img>,0,NA,exp,NA,2,<img src='img/tf1_80_T1_ss1_md.jpeg'></img>,0,FALSE,NA,sub96
NA,audio-button-response,173,422828,0.0-11.0,"""event"",""trial"",""time""
""fullscreenenter"",""0"",""3171""
","
","
","""event"",""trial"",""time""
""fullscreenenter"",""0"",""3171""
","
",9324,audio/mars_instructions_slide5.wav,0,NA,NA,NA,NA,NA,NA,NA,NA,sub96
