success,trial_type,trial_index,time_elapsed,internal_node_id,interactions,blur_events,focus_events,fullscreenenter_events,fullscreenexit_events,rt,stimulus,button_pressed,key_press,part,timestamp,unshuffled_button,correct_response,correct_button,correct,value,subject_id
TRUE,fullscreen,0,5850,0.0-0.0,"""event"",""trial"",""time""
""fullscreenenter"",""0"",""4860""
","
","
","""event"",""trial"",""time""
""fullscreenenter"",""0"",""4860""
","
",NA,NA,NA,NA,NA,NA,NA,NA,NA,NA,NA,sub40
NA,pavlovia,1,5855,0.0-1.0,"""event"",""trial"",""time""
""fullscreenenter"",""0"",""4860""
","
","
","""event"",""trial"",""time""
""fullscreenenter"",""0"",""4860""
","
",NA,NA,NA,NA,NA,NA,NA,NA,NA,NA,NA,sub40
NA,html-button-response,2,7650,0.0-2.0,"""event"",""trial"",""time""
""fullscreenenter"",""0"",""4860""
","
","
","""event"",""trial"",""time""
""fullscreenenter"",""0"",""4860""
","
",1792.4300000013318,<p>Welcome! Press START to begin.</p><br>,0,NA,NA,NA,NA,NA,NA,NA,NA,sub40
NA,audio-button-response,3,21744,0.0-3.0,"""event"",""trial"",""time""
""fullscreenenter"",""0"",""4860""
","
","
","""event"",""trial"",""time""
""fullscreenenter"",""0"",""4860""
","
",14090.784999993048,audio/mars_instructions_slide2.wav,0,NA,NA,NA,NA,NA,NA,NA,NA,sub40
NA,audio-button-response,4,37661,0.0-4.0,"""event"",""trial"",""time""
""fullscreenenter"",""0"",""4860""
","
","
","""event"",""trial"",""time""
""fullscreenenter"",""0"",""4860""
","
",15914.989999997488,audio/mars_instructions_slide3.wav,0,NA,NA,NA,NA,NA,NA,NA,NA,sub40
NA,html-keyboard-response,5,38164,0.0-5.0-0.0,"""event"",""trial"",""time""
""fullscreenenter"",""0"",""4860""
","
","
","""event"",""trial"",""time""
""fullscreenenter"",""0"",""4860""
","
",null,"<div style=""font-size:60px;"">+</div>",NA,null,fixation,2020-06-12T23:32:05Z,NA,NA,NA,NA,NA,sub40
NA,mars-trial,6,51846,0.0-5.0-1.0,"""event"",""trial"",""time""
""fullscreenenter"",""0"",""4860""
","
","
","""event"",""trial"",""time""
""fullscreenenter"",""0"",""4860""
","
",11575.409999997646,<img style='border: 4px solid darkgrey;' src='practice/pt1_M1.png'></img>,2,NA,practice,NA,0,<img src='practice/pt1_T1.png'></img>,0,TRUE,NA,sub40
NA,html-keyboard-response,7,52350,0.0-6.0-0.0,"""event"",""trial"",""time""
""fullscreenenter"",""0"",""4860""
","
","
","""event"",""trial"",""time""
""fullscreenenter"",""0"",""4860""
","
",null,"<div style=""font-size:60px;"">+</div>",NA,null,fixation,2020-06-12T23:32:20Z,NA,NA,NA,NA,NA,sub40
NA,mars-trial,8,56707,0.0-6.0-1.0,"""event"",""trial"",""time""
""fullscreenenter"",""0"",""4860""
","
","
","""event"",""trial"",""time""
""fullscreenenter"",""0"",""4860""
","
",2251.924999996845,<img style='border: 4px solid darkgrey;' src='practice/pt2_M1.png'></img>,3,NA,practice,NA,0,<img src='practice/pt2_T1.png'></img>,0,TRUE,NA,sub40
NA,html-keyboard-response,9,57210,0.0-7.0-0.0,"""event"",""trial"",""time""
""fullscreenenter"",""0"",""4860""
","
","
","""event"",""trial"",""time""
""fullscreenenter"",""0"",""4860""
","
",null,"<div style=""font-size:60px;"">+</div>",NA,null,fixation,2020-06-12T23:32:25Z,NA,NA,NA,NA,NA,sub40
NA,mars-trial,10,60864,0.0-7.0-1.0,"""event"",""trial"",""time""
""fullscreenenter"",""0"",""4860""
","
","
","""event"",""trial"",""time""
""fullscreenenter"",""0"",""4860""
","
",1549.8050000023795,<img style='border: 4px solid darkgrey;' src='practice/pt3_M1.png'></img>,2,NA,practice,NA,0,<img src='practice/pt3_T1.png'></img>,0,TRUE,NA,sub40
NA,audio-button-response,11,65035,0.0-8.0,"""event"",""trial"",""time""
""fullscreenenter"",""0"",""4860""
","
","
","""event"",""trial"",""time""
""fullscreenenter"",""0"",""4860""
","
",4169.6500000034575,audio/mars_instructions_slide4.wav,0,NA,NA,NA,NA,NA,NA,NA,NA,sub40
NA,call-function,12,65037,0.0-9.0,"""event"",""trial"",""time""
""fullscreenenter"",""0"",""4860""
","
","
","""event"",""trial"",""time""
""fullscreenenter"",""0"",""4860""
","
",NA,NA,NA,NA,NA,NA,NA,NA,NA,NA,NA,sub40
NA,html-keyboard-response,13,65538,0.0-10.0-0.0,"""event"",""trial"",""time""
""fullscreenenter"",""0"",""4860""
","
","
","""event"",""trial"",""time""
""fullscreenenter"",""0"",""4860""
","
",null,"<div style=""font-size:60px;"">+</div>",NA,null,fixation,2020-06-12T23:32:33Z,NA,NA,NA,NA,NA,sub40
NA,mars-trial,14,69807,0.0-10.0-1.0,"""event"",""trial"",""time""
""fullscreenenter"",""0"",""4860""
","
","
","""event"",""trial"",""time""
""fullscreenenter"",""0"",""4860""
","
",3663.0850000001374,<img style='border: 4px solid darkgrey;' src='img/tf1_1_M_ss3.jpeg'></img>,3,NA,exp,NA,0,<img src='img/tf1_1_T1_ss3_md.jpeg'></img>,0,TRUE,NA,sub40
NA,html-keyboard-response,15,70309,0.0-10.0-0.1,"""event"",""trial"",""time""
""fullscreenenter"",""0"",""4860""
","
","
","""event"",""trial"",""time""
""fullscreenenter"",""0"",""4860""
","
",null,"<div style=""font-size:60px;"">+</div>",NA,null,fixation,2020-06-12T23:32:38Z,NA,NA,NA,NA,NA,sub40
NA,mars-trial,16,72966,0.0-10.0-1.1,"""event"",""trial"",""time""
""fullscreenenter"",""0"",""4860""
","
","
","""event"",""trial"",""time""
""fullscreenenter"",""0"",""4860""
","
",2052.8850000046077,<img style='border: 4px solid darkgrey;' src='img/tf1_2_M_ss1.jpeg'></img>,3,NA,exp,NA,0,<img src='img/tf1_2_T1_ss1_md.jpeg'></img>,0,TRUE,NA,sub40
NA,html-keyboard-response,17,73467,0.0-10.0-0.2,"""event"",""trial"",""time""
""fullscreenenter"",""0"",""4860""
","
","
","""event"",""trial"",""time""
""fullscreenenter"",""0"",""4860""
","
",null,"<div style=""font-size:60px;"">+</div>",NA,null,fixation,2020-06-12T23:32:41Z,NA,NA,NA,NA,NA,sub40
NA,mars-trial,18,76323,0.0-10.0-1.2,"""event"",""trial"",""time""
""fullscreenenter"",""0"",""4860""
","
","
","""event"",""trial"",""time""
""fullscreenenter"",""0"",""4860""
","
",2250.8749999979045,<img style='border: 4px solid darkgrey;' src='img/tf1_3_M_ss2.jpeg'></img>,2,NA,exp,NA,0,<img src='img/tf1_3_T1_ss2_md.jpeg'></img>,0,TRUE,NA,sub40
NA,html-keyboard-response,19,76825,0.0-10.0-0.3,"""event"",""trial"",""time""
""fullscreenenter"",""0"",""4860""
","
","
","""event"",""trial"",""time""
""fullscreenenter"",""0"",""4860""
","
",null,"<div style=""font-size:60px;"">+</div>",NA,null,fixation,2020-06-12T23:32:44Z,NA,NA,NA,NA,NA,sub40
NA,mars-trial,20,80295,0.0-10.0-1.3,"""event"",""trial"",""time""
""fullscreenenter"",""0"",""4860""
","
","
","""event"",""trial"",""time""
""fullscreenenter"",""0"",""4860""
","
",2865.5300000027637,<img style='border: 4px solid darkgrey;' src='img/tf1_4_M_ss3.jpeg'></img>,2,NA,exp,NA,0,<img src='img/tf1_4_T1_ss3_md.jpeg'></img>,0,TRUE,NA,sub40
NA,html-keyboard-response,21,80797,0.0-10.0-0.4,"""event"",""trial"",""time""
""fullscreenenter"",""0"",""4860""
","
","
","""event"",""trial"",""time""
""fullscreenenter"",""0"",""4860""
","
",null,"<div style=""font-size:60px;"">+</div>",NA,null,fixation,2020-06-12T23:32:48Z,NA,NA,NA,NA,NA,sub40
NA,mars-trial,22,83515,0.0-10.0-1.4,"""event"",""trial"",""time""
""fullscreenenter"",""0"",""4860""
","
","
","""event"",""trial"",""time""
""fullscreenenter"",""0"",""4860""
","
",2112.535000000207,<img style='border: 4px solid darkgrey;' src='img/tf1_5_M_ss1.jpeg'></img>,1,NA,exp,NA,0,<img src='img/tf1_5_T1_ss1_md.jpeg'></img>,0,TRUE,NA,sub40
NA,html-keyboard-response,23,84017,0.0-10.0-0.5,"""event"",""trial"",""time""
""fullscreenenter"",""0"",""4860""
","
","
","""event"",""trial"",""time""
""fullscreenenter"",""0"",""4860""
","
",null,"<div style=""font-size:60px;"">+</div>",NA,null,fixation,2020-06-12T23:32:51Z,NA,NA,NA,NA,NA,sub40
NA,mars-trial,24,93529,0.0-10.0-1.5,"""event"",""trial"",""time""
""fullscreenenter"",""0"",""4860""
","
","
","""event"",""trial"",""time""
""fullscreenenter"",""0"",""4860""
","
",8907.930000001215,<img style='border: 4px solid darkgrey;' src='img/tf1_6_M_ss2.jpeg'></img>,0,NA,exp,NA,0,<img src='img/tf1_6_T1_ss2_md.jpeg'></img>,0,TRUE,NA,sub40
NA,html-keyboard-response,25,94031,0.0-10.0-0.6,"""event"",""trial"",""time""
""fullscreenenter"",""0"",""4860""
","
","
","""event"",""trial"",""time""
""fullscreenenter"",""0"",""4860""
","
",null,"<div style=""font-size:60px;"">+</div>",NA,null,fixation,2020-06-12T23:33:01Z,NA,NA,NA,NA,NA,sub40
NA,mars-trial,26,99731,0.0-10.0-1.6,"""event"",""trial"",""time""
""fullscreenenter"",""0"",""4860""
","
","
","""event"",""trial"",""time""
""fullscreenenter"",""0"",""4860""
","
",5094.829999994545,<img style='border: 4px solid darkgrey;' src='img/tf1_7_M_ss3.jpeg'></img>,2,NA,exp,NA,2,<img src='img/tf1_7_T1_ss3_md.jpeg'></img>,0,FALSE,NA,sub40
NA,html-keyboard-response,27,100233,0.0-10.0-0.7,"""event"",""trial"",""time""
""fullscreenenter"",""0"",""4860""
","
","
","""event"",""trial"",""time""
""fullscreenenter"",""0"",""4860""
","
",null,"<div style=""font-size:60px;"">+</div>",NA,null,fixation,2020-06-12T23:33:08Z,NA,NA,NA,NA,NA,sub40
NA,mars-trial,28,105956,0.0-10.0-1.7,"""event"",""trial"",""time""
""fullscreenenter"",""0"",""4860""
","
","
","""event"",""trial"",""time""
""fullscreenenter"",""0"",""4860""
","
",5117.404999997234,<img style='border: 4px solid darkgrey;' src='img/tf1_8_M_ss1.jpeg'></img>,2,NA,exp,NA,1,<img src='img/tf1_8_T1_ss1_md.jpeg'></img>,0,FALSE,NA,sub40
NA,html-keyboard-response,29,106458,0.0-10.0-0.8,"""event"",""trial"",""time""
""fullscreenenter"",""0"",""4860""
","
","
","""event"",""trial"",""time""
""fullscreenenter"",""0"",""4860""
","
",null,"<div style=""font-size:60px;"">+</div>",NA,null,fixation,2020-06-12T23:33:14Z,NA,NA,NA,NA,NA,sub40
NA,mars-trial,30,114761,0.0-10.0-1.8,"""event"",""trial"",""time""
""fullscreenenter"",""0"",""4860""
","
","
","""event"",""trial"",""time""
""fullscreenenter"",""0"",""4860""
","
",7698.249999994005,<img style='border: 4px solid darkgrey;' src='img/tf1_9_M_ss2.jpeg'></img>,3,NA,exp,NA,0,<img src='img/tf1_9_T1_ss2_md.jpeg'></img>,0,TRUE,NA,sub40
NA,html-keyboard-response,31,115263,0.0-10.0-0.9,"""event"",""trial"",""time""
""fullscreenenter"",""0"",""4860""
","
","
","""event"",""trial"",""time""
""fullscreenenter"",""0"",""4860""
","
",null,"<div style=""font-size:60px;"">+</div>",NA,null,fixation,2020-06-12T23:33:23Z,NA,NA,NA,NA,NA,sub40
NA,mars-trial,32,120448,0.0-10.0-1.9,"""event"",""trial"",""time""
""fullscreenenter"",""0"",""4860""
","
","
","""event"",""trial"",""time""
""fullscreenenter"",""0"",""4860""
","
",4580.535000000964,<img style='border: 4px solid darkgrey;' src='img/tf1_10_M_ss3.jpeg'></img>,0,NA,exp,NA,0,<img src='img/tf1_10_T1_ss3_md.jpeg'></img>,0,TRUE,NA,sub40
NA,html-keyboard-response,33,120950,0.0-10.0-0.10,"""event"",""trial"",""time""
""fullscreenenter"",""0"",""4860""
","
","
","""event"",""trial"",""time""
""fullscreenenter"",""0"",""4860""
","
",null,"<div style=""font-size:60px;"">+</div>",NA,null,fixation,2020-06-12T23:33:28Z,NA,NA,NA,NA,NA,sub40
NA,mars-trial,34,127383,0.0-10.0-1.10,"""event"",""trial"",""time""
""fullscreenenter"",""0"",""4860""
","
","
","""event"",""trial"",""time""
""fullscreenenter"",""0"",""4860""
","
",5827.564999999595,<img style='border: 4px solid darkgrey;' src='img/tf1_11_M_ss1.jpeg'></img>,0,NA,exp,NA,0,<img src='img/tf1_11_T1_ss1_md.jpeg'></img>,0,TRUE,NA,sub40
NA,html-keyboard-response,35,127885,0.0-10.0-0.11,"""event"",""trial"",""time""
""fullscreenenter"",""0"",""4860""
","
","
","""event"",""trial"",""time""
""fullscreenenter"",""0"",""4860""
","
",null,"<div style=""font-size:60px;"">+</div>",NA,null,fixation,2020-06-12T23:33:35Z,NA,NA,NA,NA,NA,sub40
NA,mars-trial,36,134913,0.0-10.0-1.11,"""event"",""trial"",""time""
""fullscreenenter"",""0"",""4860""
","
","
","""event"",""trial"",""time""
""fullscreenenter"",""0"",""4860""
","
",6423.530000000028,<img style='border: 4px solid darkgrey;' src='img/tf1_12_M_ss2.jpeg'></img>,0,NA,exp,NA,2,<img src='img/tf1_12_T1_ss2_md.jpeg'></img>,0,FALSE,NA,sub40
NA,html-keyboard-response,37,135414,0.0-10.0-0.12,"""event"",""trial"",""time""
""fullscreenenter"",""0"",""4860""
","
","
","""event"",""trial"",""time""
""fullscreenenter"",""0"",""4860""
","
",null,"<div style=""font-size:60px;"">+</div>",NA,null,fixation,2020-06-12T23:33:43Z,NA,NA,NA,NA,NA,sub40
NA,mars-trial,38,143675,0.0-10.0-1.12,"""event"",""trial"",""time""
""fullscreenenter"",""0"",""4860""
","
","
","""event"",""trial"",""time""
""fullscreenenter"",""0"",""4860""
","
",7655.4550000000745,<img style='border: 4px solid darkgrey;' src='img/tf1_13_M_ss3.jpeg'></img>,2,NA,exp,NA,0,<img src='img/tf1_13_T1_ss3_md.jpeg'></img>,0,TRUE,NA,sub40
NA,html-keyboard-response,39,144177,0.0-10.0-0.13,"""event"",""trial"",""time""
""fullscreenenter"",""0"",""4860""
","
","
","""event"",""trial"",""time""
""fullscreenenter"",""0"",""4860""
","
",null,"<div style=""font-size:60px;"">+</div>",NA,null,fixation,2020-06-12T23:33:52Z,NA,NA,NA,NA,NA,sub40
NA,mars-trial,40,155374,0.0-10.0-1.13,"""event"",""trial"",""time""
""fullscreenenter"",""0"",""4860""
","
","
","""event"",""trial"",""time""
""fullscreenenter"",""0"",""4860""
","
",10592.49500000442,<img style='border: 4px solid darkgrey;' src='img/tf1_14_M_ss1.jpeg'></img>,2,NA,exp,NA,1,<img src='img/tf1_14_T1_ss1_md.jpeg'></img>,0,FALSE,NA,sub40
NA,html-keyboard-response,41,155876,0.0-10.0-0.14,"""event"",""trial"",""time""
""fullscreenenter"",""0"",""4860""
","
","
","""event"",""trial"",""time""
""fullscreenenter"",""0"",""4860""
","
",null,"<div style=""font-size:60px;"">+</div>",NA,null,fixation,2020-06-12T23:34:03Z,NA,NA,NA,NA,NA,sub40
NA,mars-trial,42,165253,0.0-10.0-1.14,"""event"",""trial"",""time""
""fullscreenenter"",""0"",""4860""
","
","
","""event"",""trial"",""time""
""fullscreenenter"",""0"",""4860""
","
",8771.645000000717,<img style='border: 4px solid darkgrey;' src='img/tf1_15_M_ss2.jpeg'></img>,0,NA,exp,NA,3,<img src='img/tf1_15_T1_ss2_md.jpeg'></img>,0,FALSE,NA,sub40
NA,html-keyboard-response,43,165756,0.0-10.0-0.15,"""event"",""trial"",""time""
""fullscreenenter"",""0"",""4860""
","
","
","""event"",""trial"",""time""
""fullscreenenter"",""0"",""4860""
","
",null,"<div style=""font-size:60px;"">+</div>",NA,null,fixation,2020-06-12T23:34:13Z,NA,NA,NA,NA,NA,sub40
NA,mars-trial,44,169762,0.0-10.0-1.15,"""event"",""trial"",""time""
""fullscreenenter"",""0"",""4860""
","
","
","""event"",""trial"",""time""
""fullscreenenter"",""0"",""4860""
","
",3401.5399999989313,<img style='border: 4px solid darkgrey;' src='img/tf1_16_M_ss3.jpeg'></img>,2,NA,exp,NA,3,<img src='img/tf1_16_T1_ss3_md.jpeg'></img>,0,FALSE,NA,sub40
NA,html-keyboard-response,45,170264,0.0-10.0-0.16,"""event"",""trial"",""time""
""fullscreenenter"",""0"",""4860""
","
","
","""event"",""trial"",""time""
""fullscreenenter"",""0"",""4860""
","
",null,"<div style=""font-size:60px;"">+</div>",NA,null,fixation,2020-06-12T23:34:18Z,NA,NA,NA,NA,NA,sub40
NA,mars-trial,46,182148,0.0-10.0-1.16,"""event"",""trial"",""time""
""fullscreenenter"",""0"",""4860""
","
","
","""event"",""trial"",""time""
""fullscreenenter"",""0"",""4860""
","
",11278.374999994412,<img style='border: 4px solid darkgrey;' src='img/tf1_17_M_ss1.jpeg'></img>,1,NA,exp,NA,2,<img src='img/tf1_17_T1_ss1_md.jpeg'></img>,0,FALSE,NA,sub40
NA,html-keyboard-response,47,182650,0.0-10.0-0.17,"""event"",""trial"",""time""
""fullscreenenter"",""0"",""4860""
","
","
","""event"",""trial"",""time""
""fullscreenenter"",""0"",""4860""
","
",null,"<div style=""font-size:60px;"">+</div>",NA,null,fixation,2020-06-12T23:34:30Z,NA,NA,NA,NA,NA,sub40
NA,mars-trial,48,190180,0.0-10.0-1.17,"""event"",""trial"",""time""
""fullscreenenter"",""0"",""4860""
","
","
","""event"",""trial"",""time""
""fullscreenenter"",""0"",""4860""
","
",6925.600000002305,<img style='border: 4px solid darkgrey;' src='img/tf1_18_M_ss2.jpeg'></img>,2,NA,exp,NA,1,<img src='img/tf1_18_T1_ss2_md.jpeg'></img>,0,FALSE,NA,sub40
NA,html-keyboard-response,49,190683,0.0-10.0-0.18,"""event"",""trial"",""time""
""fullscreenenter"",""0"",""4860""
","
","
","""event"",""trial"",""time""
""fullscreenenter"",""0"",""4860""
","
",null,"<div style=""font-size:60px;"">+</div>",NA,null,fixation,2020-06-12T23:34:38Z,NA,NA,NA,NA,NA,sub40
NA,mars-trial,50,203329,0.0-10.0-1.18,"""event"",""trial"",""time""
""fullscreenenter"",""0"",""4860""
","
","
","""event"",""trial"",""time""
""fullscreenenter"",""0"",""4860""
","
",12042.020000000775,<img style='border: 4px solid darkgrey;' src='img/tf1_19_M_ss3.jpeg'></img>,1,NA,exp,NA,0,<img src='img/tf1_19_T1_ss3_md.jpeg'></img>,0,TRUE,NA,sub40
NA,html-keyboard-response,51,203831,0.0-10.0-0.19,"""event"",""trial"",""time""
""fullscreenenter"",""0"",""4860""
","
","
","""event"",""trial"",""time""
""fullscreenenter"",""0"",""4860""
","
",null,"<div style=""font-size:60px;"">+</div>",NA,null,fixation,2020-06-12T23:34:51Z,NA,NA,NA,NA,NA,sub40
NA,mars-trial,52,207007,0.0-10.0-1.19,"""event"",""trial"",""time""
""fullscreenenter"",""0"",""4860""
","
","
","""event"",""trial"",""time""
""fullscreenenter"",""0"",""4860""
","
",2569.6899999966263,<img style='border: 4px solid darkgrey;' src='img/tf1_20_M_ss1.jpeg'></img>,1,NA,exp,NA,0,<img src='img/tf1_20_T1_ss1_md.jpeg'></img>,0,TRUE,NA,sub40
NA,html-keyboard-response,53,207509,0.0-10.0-0.20,"""event"",""trial"",""time""
""fullscreenenter"",""0"",""4860""
","
","
","""event"",""trial"",""time""
""fullscreenenter"",""0"",""4860""
","
",null,"<div style=""font-size:60px;"">+</div>",NA,null,fixation,2020-06-12T23:34:55Z,NA,NA,NA,NA,NA,sub40
NA,mars-trial,54,218012,0.0-10.0-1.20,"""event"",""trial"",""time""
""fullscreenenter"",""0"",""4860""
","
","
","""event"",""trial"",""time""
""fullscreenenter"",""0"",""4860""
","
",9897.635000001173,<img style='border: 4px solid darkgrey;' src='img/tf1_21_M_ss2.jpeg'></img>,2,NA,exp,NA,2,<img src='img/tf1_21_T1_ss2_md.jpeg'></img>,0,FALSE,NA,sub40
NA,html-keyboard-response,55,218514,0.0-10.0-0.21,"""event"",""trial"",""time""
""fullscreenenter"",""0"",""4860""
","
","
","""event"",""trial"",""time""
""fullscreenenter"",""0"",""4860""
","
",null,"<div style=""font-size:60px;"">+</div>",NA,null,fixation,2020-06-12T23:35:06Z,NA,NA,NA,NA,NA,sub40
NA,mars-trial,56,226411,0.0-10.0-1.21,"""event"",""trial"",""time""
""fullscreenenter"",""0"",""4860""
","
","
","""event"",""trial"",""time""
""fullscreenenter"",""0"",""4860""
","
",7292.094999997062,<img style='border: 4px solid darkgrey;' src='img/tf1_22_M_ss3.jpeg'></img>,2,NA,exp,NA,3,<img src='img/tf1_22_T1_ss3_md.jpeg'></img>,0,FALSE,NA,sub40
NA,html-keyboard-response,57,226913,0.0-10.0-0.22,"""event"",""trial"",""time""
""fullscreenenter"",""0"",""4860""
","
","
","""event"",""trial"",""time""
""fullscreenenter"",""0"",""4860""
","
",null,"<div style=""font-size:60px;"">+</div>",NA,null,fixation,2020-06-12T23:35:14Z,NA,NA,NA,NA,NA,sub40
NA,mars-trial,58,232060,0.0-10.0-1.22,"""event"",""trial"",""time""
""fullscreenenter"",""0"",""4860""
","
","
","""event"",""trial"",""time""
""fullscreenenter"",""0"",""4860""
","
",4542.529999998806,<img style='border: 4px solid darkgrey;' src='img/tf1_23_M_ss1.jpeg'></img>,2,NA,exp,NA,3,<img src='img/tf1_23_T1_ss1_md.jpeg'></img>,0,FALSE,NA,sub40
NA,html-keyboard-response,59,232562,0.0-10.0-0.23,"""event"",""trial"",""time""
""fullscreenenter"",""0"",""4860""
","
","
","""event"",""trial"",""time""
""fullscreenenter"",""0"",""4860""
","
",null,"<div style=""font-size:60px;"">+</div>",NA,null,fixation,2020-06-12T23:35:20Z,NA,NA,NA,NA,NA,sub40
NA,mars-trial,60,240259,0.0-10.0-1.23,"""event"",""trial"",""time""
""fullscreenenter"",""0"",""4860""
","
","
","""event"",""trial"",""time""
""fullscreenenter"",""0"",""4860""
","
",7091.339999999036,<img style='border: 4px solid darkgrey;' src='img/tf1_24_M_ss2.jpeg'></img>,3,NA,exp,NA,1,<img src='img/tf1_24_T1_ss2_md.jpeg'></img>,0,FALSE,NA,sub40
NA,html-keyboard-response,61,240761,0.0-10.0-0.24,"""event"",""trial"",""time""
""fullscreenenter"",""0"",""4860""
","
","
","""event"",""trial"",""time""
""fullscreenenter"",""0"",""4860""
","
",null,"<div style=""font-size:60px;"">+</div>",NA,null,fixation,2020-06-12T23:35:28Z,NA,NA,NA,NA,NA,sub40
NA,mars-trial,62,250007,0.0-10.0-1.24,"""event"",""trial"",""time""
""fullscreenenter"",""0"",""4860""
","
","
","""event"",""trial"",""time""
""fullscreenenter"",""0"",""4860""
","
",8639.049999997951,<img style='border: 4px solid darkgrey;' src='img/tf1_25_M_ss3.jpeg'></img>,1,NA,exp,NA,3,<img src='img/tf1_25_T1_ss3_md.jpeg'></img>,0,FALSE,NA,sub40
NA,html-keyboard-response,63,250509,0.0-10.0-0.25,"""event"",""trial"",""time""
""fullscreenenter"",""0"",""4860""
","
","
","""event"",""trial"",""time""
""fullscreenenter"",""0"",""4860""
","
",null,"<div style=""font-size:60px;"">+</div>",NA,null,fixation,2020-06-12T23:35:38Z,NA,NA,NA,NA,NA,sub40
NA,mars-trial,64,259337,0.0-10.0-1.25,"""event"",""trial"",""time""
""fullscreenenter"",""0"",""4860""
","
","
","""event"",""trial"",""time""
""fullscreenenter"",""0"",""4860""
","
",8224.06499999488,<img style='border: 4px solid darkgrey;' src='img/tf1_26_M_ss1.jpeg'></img>,3,NA,exp,NA,2,<img src='img/tf1_26_T1_ss1_md.jpeg'></img>,0,FALSE,NA,sub40
NA,html-keyboard-response,65,259840,0.0-10.0-0.26,"""event"",""trial"",""time""
""fullscreenenter"",""0"",""4860""
","
","
","""event"",""trial"",""time""
""fullscreenenter"",""0"",""4860""
","
",null,"<div style=""font-size:60px;"">+</div>",NA,null,fixation,2020-06-12T23:35:47Z,NA,NA,NA,NA,NA,sub40
NA,mars-trial,66,264254,0.0-10.0-1.26,"""event"",""trial"",""time""
""fullscreenenter"",""0"",""4860""
","
","
","""event"",""trial"",""time""
""fullscreenenter"",""0"",""4860""
","
",3809.1849999982514,<img style='border: 4px solid darkgrey;' src='img/tf1_27_M_ss2.jpeg'></img>,1,NA,exp,NA,2,<img src='img/tf1_27_T1_ss2_md.jpeg'></img>,0,FALSE,NA,sub40
NA,html-keyboard-response,67,264756,0.0-10.0-0.27,"""event"",""trial"",""time""
""fullscreenenter"",""0"",""4860""
","
","
","""event"",""trial"",""time""
""fullscreenenter"",""0"",""4860""
","
",null,"<div style=""font-size:60px;"">+</div>",NA,null,fixation,2020-06-12T23:35:52Z,NA,NA,NA,NA,NA,sub40
NA,mars-trial,68,266630,0.0-10.0-1.27,"""event"",""trial"",""time""
""fullscreenenter"",""0"",""4860""
","
","
","""event"",""trial"",""time""
""fullscreenenter"",""0"",""4860""
","
",1269.1200000044773,<img style='border: 4px solid darkgrey;' src='img/tf1_28_M_ss3.jpeg'></img>,1,NA,exp,NA,1,<img src='img/tf1_28_T1_ss3_md.jpeg'></img>,0,FALSE,NA,sub40
NA,html-keyboard-response,69,267132,0.0-10.0-0.28,"""event"",""trial"",""time""
""fullscreenenter"",""0"",""4860""
","
","
","""event"",""trial"",""time""
""fullscreenenter"",""0"",""4860""
","
",null,"<div style=""font-size:60px;"">+</div>",NA,null,fixation,2020-06-12T23:35:54Z,NA,NA,NA,NA,NA,sub40
NA,mars-trial,70,268473,0.0-10.0-1.28,"""event"",""trial"",""time""
""fullscreenenter"",""0"",""4860""
","
","
","""event"",""trial"",""time""
""fullscreenenter"",""0"",""4860""
","
",736.34999999922,<img style='border: 4px solid darkgrey;' src='img/tf1_29_M_ss1.jpeg'></img>,2,NA,exp,NA,3,<img src='img/tf1_29_T1_ss1_md.jpeg'></img>,0,FALSE,NA,sub40
NA,html-keyboard-response,71,268974,0.0-10.0-0.29,"""event"",""trial"",""time""
""fullscreenenter"",""0"",""4860""
","
","
","""event"",""trial"",""time""
""fullscreenenter"",""0"",""4860""
","
",null,"<div style=""font-size:60px;"">+</div>",NA,null,fixation,2020-06-12T23:35:56Z,NA,NA,NA,NA,NA,sub40
NA,mars-trial,72,275251,0.0-10.0-1.29,"""event"",""trial"",""time""
""fullscreenenter"",""0"",""4860""
","
","
","""event"",""trial"",""time""
""fullscreenenter"",""0"",""4860""
","
",5672.400000003108,<img style='border: 4px solid darkgrey;' src='img/tf1_30_M_ss2.jpeg'></img>,1,NA,exp,NA,3,<img src='img/tf1_30_T1_ss2_md.jpeg'></img>,0,FALSE,NA,sub40
NA,html-keyboard-response,73,275753,0.0-10.0-0.30,"""event"",""trial"",""time""
""fullscreenenter"",""0"",""4860""
","
","
","""event"",""trial"",""time""
""fullscreenenter"",""0"",""4860""
","
",null,"<div style=""font-size:60px;"">+</div>",NA,null,fixation,2020-06-12T23:36:03Z,NA,NA,NA,NA,NA,sub40
NA,mars-trial,74,280599,0.0-10.0-1.30,"""event"",""trial"",""time""
""fullscreenenter"",""0"",""4860""
","
","
","""event"",""trial"",""time""
""fullscreenenter"",""0"",""4860""
","
",4241.815000001225,<img style='border: 4px solid darkgrey;' src='img/tf1_31_M_ss3.jpeg'></img>,2,NA,exp,NA,2,<img src='img/tf1_31_T1_ss3_md.jpeg'></img>,0,FALSE,NA,sub40
NA,html-keyboard-response,75,281101,0.0-10.0-0.31,"""event"",""trial"",""time""
""fullscreenenter"",""0"",""4860""
","
","
","""event"",""trial"",""time""
""fullscreenenter"",""0"",""4860""
","
",null,"<div style=""font-size:60px;"">+</div>",NA,null,fixation,2020-06-12T23:36:08Z,NA,NA,NA,NA,NA,sub40
NA,mars-trial,76,292955,0.0-10.0-1.31,"""event"",""trial"",""time""
""fullscreenenter"",""0"",""4860""
","
","
","""event"",""trial"",""time""
""fullscreenenter"",""0"",""4860""
","
",11249.080000001413,<img style='border: 4px solid darkgrey;' src='img/tf1_32_M_ss1.jpeg'></img>,0,NA,exp,NA,1,<img src='img/tf1_32_T1_ss1_md.jpeg'></img>,0,FALSE,NA,sub40
NA,html-keyboard-response,77,293457,0.0-10.0-0.32,"""event"",""trial"",""time""
""fullscreenenter"",""0"",""4860""
","
","
","""event"",""trial"",""time""
""fullscreenenter"",""0"",""4860""
","
",null,"<div style=""font-size:60px;"">+</div>",NA,null,fixation,2020-06-12T23:36:21Z,NA,NA,NA,NA,NA,sub40
NA,mars-trial,78,300037,0.0-10.0-1.32,"""event"",""trial"",""time""
""fullscreenenter"",""0"",""4860""
","
","
","""event"",""trial"",""time""
""fullscreenenter"",""0"",""4860""
","
",5974.689999995462,<img style='border: 4px solid darkgrey;' src='img/tf1_33_M_ss2.jpeg'></img>,3,NA,exp,NA,2,<img src='img/tf1_33_T1_ss2_md.jpeg'></img>,0,FALSE,NA,sub40
NA,html-keyboard-response,79,300538,0.0-10.0-0.33,"""event"",""trial"",""time""
""fullscreenenter"",""0"",""4860""
","
","
","""event"",""trial"",""time""
""fullscreenenter"",""0"",""4860""
","
",null,"<div style=""font-size:60px;"">+</div>",NA,null,fixation,2020-06-12T23:36:28Z,NA,NA,NA,NA,NA,sub40
NA,mars-trial,80,308776,0.0-10.0-1.33,"""event"",""trial"",""time""
""fullscreenenter"",""0"",""4860""
","
","
","""event"",""trial"",""time""
""fullscreenenter"",""0"",""4860""
","
",7632.875000002969,<img style='border: 4px solid darkgrey;' src='img/tf1_34_M_ss3.jpeg'></img>,1,NA,exp,NA,3,<img src='img/tf1_34_T1_ss3_md.jpeg'></img>,0,FALSE,NA,sub40
NA,html-keyboard-response,81,309278,0.0-10.0-0.34,"""event"",""trial"",""time""
""fullscreenenter"",""0"",""4860""
","
","
","""event"",""trial"",""time""
""fullscreenenter"",""0"",""4860""
","
",null,"<div style=""font-size:60px;"">+</div>",NA,null,fixation,2020-06-12T23:36:37Z,NA,NA,NA,NA,NA,sub40
NA,mars-trial,82,320004,0.0-10.0-1.34,"""event"",""trial"",""time""
""fullscreenenter"",""0"",""4860""
","
","
","""event"",""trial"",""time""
""fullscreenenter"",""0"",""4860""
","
",10121.244999994815,<img style='border: 4px solid darkgrey;' src='img/tf1_35_M_ss1.jpeg'></img>,1,NA,exp,NA,3,<img src='img/tf1_35_T1_ss1_md.jpeg'></img>,0,FALSE,NA,sub40
NA,html-keyboard-response,83,320506,0.0-10.0-0.35,"""event"",""trial"",""time""
""fullscreenenter"",""0"",""4860""
","
","
","""event"",""trial"",""time""
""fullscreenenter"",""0"",""4860""
","
",null,"<div style=""font-size:60px;"">+</div>",NA,null,fixation,2020-06-12T23:36:48Z,NA,NA,NA,NA,NA,sub40
NA,mars-trial,84,331718,0.0-10.0-1.35,"""event"",""trial"",""time""
""fullscreenenter"",""0"",""4860""
","
","
","""event"",""trial"",""time""
""fullscreenenter"",""0"",""4860""
","
",10606.325000000652,<img style='border: 4px solid darkgrey;' src='img/tf1_36_M_ss2.jpeg'></img>,0,NA,exp,NA,1,<img src='img/tf1_36_T1_ss2_md.jpeg'></img>,0,FALSE,NA,sub40
NA,html-keyboard-response,85,332223,0.0-10.0-0.36,"""event"",""trial"",""time""
""fullscreenenter"",""0"",""4860""
","
","
","""event"",""trial"",""time""
""fullscreenenter"",""0"",""4860""
","
",null,"<div style=""font-size:60px;"">+</div>",NA,null,fixation,2020-06-12T23:37:00Z,NA,NA,NA,NA,NA,sub40
NA,mars-trial,86,336325,0.0-10.0-1.36,"""event"",""trial"",""time""
""fullscreenenter"",""0"",""4860""
","
","
","""event"",""trial"",""time""
""fullscreenenter"",""0"",""4860""
","
",3497.815000002447,<img style='border: 4px solid darkgrey;' src='img/tf1_37_M_ss3.jpeg'></img>,2,NA,exp,NA,1,<img src='img/tf1_37_T1_ss3_md.jpeg'></img>,0,FALSE,NA,sub40
NA,html-keyboard-response,87,336827,0.0-10.0-0.37,"""event"",""trial"",""time""
""fullscreenenter"",""0"",""4860""
","
","
","""event"",""trial"",""time""
""fullscreenenter"",""0"",""4860""
","
",null,"<div style=""font-size:60px;"">+</div>",NA,null,fixation,2020-06-12T23:37:04Z,NA,NA,NA,NA,NA,sub40
NA,mars-trial,88,340548,0.0-10.0-1.37,"""event"",""trial"",""time""
""fullscreenenter"",""0"",""4860""
","
","
","""event"",""trial"",""time""
""fullscreenenter"",""0"",""4860""
","
",3116.1399999982677,<img style='border: 4px solid darkgrey;' src='img/tf1_38_M_ss1.jpeg'></img>,3,NA,exp,NA,0,<img src='img/tf1_38_T1_ss1_md.jpeg'></img>,0,TRUE,NA,sub40
NA,html-keyboard-response,89,341050,0.0-10.0-0.38,"""event"",""trial"",""time""
""fullscreenenter"",""0"",""4860""
","
","
","""event"",""trial"",""time""
""fullscreenenter"",""0"",""4860""
","
",null,"<div style=""font-size:60px;"">+</div>",NA,null,fixation,2020-06-12T23:37:08Z,NA,NA,NA,NA,NA,sub40
NA,mars-trial,90,344076,0.0-10.0-1.38,"""event"",""trial"",""time""
""fullscreenenter"",""0"",""4860""
","
","
","""event"",""trial"",""time""
""fullscreenenter"",""0"",""4860""
","
",2419.880000001285,<img style='border: 4px solid darkgrey;' src='img/tf1_39_M_ss2.jpeg'></img>,3,NA,exp,NA,3,<img src='img/tf1_39_T1_ss2_md.jpeg'></img>,0,FALSE,NA,sub40
NA,html-keyboard-response,91,344578,0.0-10.0-0.39,"""event"",""trial"",""time""
""fullscreenenter"",""0"",""4860""
","
","
","""event"",""trial"",""time""
""fullscreenenter"",""0"",""4860""
","
",null,"<div style=""font-size:60px;"">+</div>",NA,null,fixation,2020-06-12T23:37:12Z,NA,NA,NA,NA,NA,sub40
NA,mars-trial,92,350774,0.0-10.0-1.39,"""event"",""trial"",""time""
""fullscreenenter"",""0"",""4860""
","
","
","""event"",""trial"",""time""
""fullscreenenter"",""0"",""4860""
","
",5591.099999997823,<img style='border: 4px solid darkgrey;' src='img/tf1_40_M_ss3.jpeg'></img>,0,NA,exp,NA,3,<img src='img/tf1_40_T1_ss3_md.jpeg'></img>,0,FALSE,NA,sub40
NA,html-keyboard-response,93,351276,0.0-10.0-0.40,"""event"",""trial"",""time""
""fullscreenenter"",""0"",""4860""
","
","
","""event"",""trial"",""time""
""fullscreenenter"",""0"",""4860""
","
",null,"<div style=""font-size:60px;"">+</div>",NA,null,fixation,2020-06-12T23:37:19Z,NA,NA,NA,NA,NA,sub40
NA,mars-trial,94,355829,0.0-10.0-1.40,"""event"",""trial"",""time""
""fullscreenenter"",""0"",""4860""
","
","
","""event"",""trial"",""time""
""fullscreenenter"",""0"",""4860""
","
",3948.385000003327,<img style='border: 4px solid darkgrey;' src='img/tf1_41_M_ss1.jpeg'></img>,3,NA,exp,NA,0,<img src='img/tf1_41_T1_ss1_md.jpeg'></img>,0,TRUE,NA,sub40
NA,html-keyboard-response,95,356331,0.0-10.0-0.41,"""event"",""trial"",""time""
""fullscreenenter"",""0"",""4860""
","
","
","""event"",""trial"",""time""
""fullscreenenter"",""0"",""4860""
","
",null,"<div style=""font-size:60px;"">+</div>",NA,null,fixation,2020-06-12T23:37:24Z,NA,NA,NA,NA,NA,sub40
NA,mars-trial,96,374142,0.0-10.0-1.41,"""event"",""trial"",""time""
""fullscreenenter"",""0"",""4860""
","
","
","""event"",""trial"",""time""
""fullscreenenter"",""0"",""4860""
","
",17206.319999997504,<img style='border: 4px solid darkgrey;' src='img/tf1_42_M_ss2.jpeg'></img>,2,NA,exp,NA,3,<img src='img/tf1_42_T1_ss2_md.jpeg'></img>,0,FALSE,NA,sub40
NA,html-keyboard-response,97,374644,0.0-10.0-0.42,"""event"",""trial"",""time""
""fullscreenenter"",""0"",""4860""
","
","
","""event"",""trial"",""time""
""fullscreenenter"",""0"",""4860""
","
",null,"<div style=""font-size:60px;"">+</div>",NA,null,fixation,2020-06-12T23:37:42Z,NA,NA,NA,NA,NA,sub40
NA,mars-trial,98,381790,0.0-10.0-1.42,"""event"",""trial"",""time""
""fullscreenenter"",""0"",""4860""
","
","
","""event"",""trial"",""time""
""fullscreenenter"",""0"",""4860""
","
",6540.760000003502,<img style='border: 4px solid darkgrey;' src='img/tf1_43_M_ss3.jpeg'></img>,3,NA,exp,NA,0,<img src='img/tf1_43_T1_ss3_md.jpeg'></img>,0,TRUE,NA,sub40
NA,html-keyboard-response,99,382291,0.0-10.0-0.43,"""event"",""trial"",""time""
""fullscreenenter"",""0"",""4860""
","
","
","""event"",""trial"",""time""
""fullscreenenter"",""0"",""4860""
","
",null,"<div style=""font-size:60px;"">+</div>",NA,null,fixation,2020-06-12T23:37:50Z,NA,NA,NA,NA,NA,sub40
NA,mars-trial,100,396792,0.0-10.0-1.43,"""event"",""trial"",""time""
""fullscreenenter"",""0"",""4860""
","
","
","""event"",""trial"",""time""
""fullscreenenter"",""0"",""4860""
","
",13895.709999997052,<img style='border: 4px solid darkgrey;' src='img/tf1_44_M_ss1.jpeg'></img>,2,NA,exp,NA,2,<img src='img/tf1_44_T1_ss1_md.jpeg'></img>,0,FALSE,NA,sub40
NA,html-keyboard-response,101,397294,0.0-10.0-0.44,"""event"",""trial"",""time""
""fullscreenenter"",""0"",""4860""
","
","
","""event"",""trial"",""time""
""fullscreenenter"",""0"",""4860""
","
",null,"<div style=""font-size:60px;"">+</div>",NA,null,fixation,2020-06-12T23:38:05Z,NA,NA,NA,NA,NA,sub40
NA,mars-trial,102,404430,0.0-10.0-1.44,"""event"",""trial"",""time""
""fullscreenenter"",""0"",""4860""
","
","
","""event"",""trial"",""time""
""fullscreenenter"",""0"",""4860""
","
",6531.55500000139,<img style='border: 4px solid darkgrey;' src='img/tf1_45_M_ss2.jpeg'></img>,2,NA,exp,NA,2,<img src='img/tf1_45_T1_ss2_md.jpeg'></img>,0,FALSE,NA,sub40
NA,html-keyboard-response,103,404932,0.0-10.0-0.45,"""event"",""trial"",""time""
""fullscreenenter"",""0"",""4860""
","
","
","""event"",""trial"",""time""
""fullscreenenter"",""0"",""4860""
","
",null,"<div style=""font-size:60px;"">+</div>",NA,null,fixation,2020-06-12T23:38:12Z,NA,NA,NA,NA,NA,sub40
NA,mars-trial,104,408215,0.0-10.0-1.45,"""event"",""trial"",""time""
""fullscreenenter"",""0"",""4860""
","
","
","""event"",""trial"",""time""
""fullscreenenter"",""0"",""4860""
","
",2677.8049999993527,<img style='border: 4px solid darkgrey;' src='img/tf1_46_M_ss3.jpeg'></img>,2,NA,exp,NA,1,<img src='img/tf1_46_T1_ss3_md.jpeg'></img>,0,FALSE,NA,sub40
NA,html-keyboard-response,105,408716,0.0-10.0-0.46,"""event"",""trial"",""time""
""fullscreenenter"",""0"",""4860""
","
","
","""event"",""trial"",""time""
""fullscreenenter"",""0"",""4860""
","
",null,"<div style=""font-size:60px;"">+</div>",NA,null,fixation,2020-06-12T23:38:16Z,NA,NA,NA,NA,NA,sub40
NA,mars-trial,106,412663,0.0-10.0-1.46,"""event"",""trial"",""time""
""fullscreenenter"",""0"",""4860""
","
","
","""event"",""trial"",""time""
""fullscreenenter"",""0"",""4860""
","
",3342.270000001008,<img style='border: 4px solid darkgrey;' src='img/tf1_47_M_ss1.jpeg'></img>,3,NA,exp,NA,2,<img src='img/tf1_47_T1_ss1_md.jpeg'></img>,0,FALSE,NA,sub40
NA,html-keyboard-response,107,413165,0.0-10.0-0.47,"""event"",""trial"",""time""
""fullscreenenter"",""0"",""4860""
","
","
","""event"",""trial"",""time""
""fullscreenenter"",""0"",""4860""
","
",null,"<div style=""font-size:60px;"">+</div>",NA,null,fixation,2020-06-12T23:38:20Z,NA,NA,NA,NA,NA,sub40
NA,mars-trial,108,420495,0.0-10.0-1.47,"""event"",""trial"",""time""
""fullscreenenter"",""0"",""4860""
","
","
","""event"",""trial"",""time""
""fullscreenenter"",""0"",""4860""
","
",6724.855000000389,<img style='border: 4px solid darkgrey;' src='img/tf1_48_M_ss2.jpeg'></img>,1,NA,exp,NA,3,<img src='img/tf1_48_T1_ss2_md.jpeg'></img>,0,FALSE,NA,sub40
NA,html-keyboard-response,109,420997,0.0-10.0-0.48,"""event"",""trial"",""time""
""fullscreenenter"",""0"",""4860""
","
","
","""event"",""trial"",""time""
""fullscreenenter"",""0"",""4860""
","
",null,"<div style=""font-size:60px;"">+</div>",NA,null,fixation,2020-06-12T23:38:28Z,NA,NA,NA,NA,NA,sub40
NA,mars-trial,110,429656,0.0-10.0-1.48,"""event"",""trial"",""time""
""fullscreenenter"",""0"",""4860""
","
","
","""event"",""trial"",""time""
""fullscreenenter"",""0"",""4860""
","
",8053.720000003523,<img style='border: 4px solid darkgrey;' src='img/tf1_49_M_ss3.jpeg'></img>,2,NA,exp,NA,0,<img src='img/tf1_49_T1_ss3_md.jpeg'></img>,0,TRUE,NA,sub40
NA,html-keyboard-response,111,430158,0.0-10.0-0.49,"""event"",""trial"",""time""
""fullscreenenter"",""0"",""4860""
","
","
","""event"",""trial"",""time""
""fullscreenenter"",""0"",""4860""
","
",null,"<div style=""font-size:60px;"">+</div>",NA,null,fixation,2020-06-12T23:38:37Z,NA,NA,NA,NA,NA,sub40
NA,mars-trial,112,443709,0.0-10.0-1.49,"""event"",""trial"",""time""
""fullscreenenter"",""0"",""4860""
","
","
","""event"",""trial"",""time""
""fullscreenenter"",""0"",""4860""
","
",12945.630000001984,<img style='border: 4px solid darkgrey;' src='img/tf1_50_M_ss1.jpeg'></img>,3,NA,exp,NA,1,<img src='img/tf1_50_T1_ss1_md.jpeg'></img>,0,FALSE,NA,sub40
NA,html-keyboard-response,113,444211,0.0-10.0-0.50,"""event"",""trial"",""time""
""fullscreenenter"",""0"",""4860""
","
","
","""event"",""trial"",""time""
""fullscreenenter"",""0"",""4860""
","
",null,"<div style=""font-size:60px;"">+</div>",NA,null,fixation,2020-06-12T23:38:52Z,NA,NA,NA,NA,NA,sub40
NA,mars-trial,114,459732,0.0-10.0-1.50,"""event"",""trial"",""time""
""fullscreenenter"",""0"",""4860""
","
","
","""event"",""trial"",""time""
""fullscreenenter"",""0"",""4860""
","
",14916.23499999696,<img style='border: 4px solid darkgrey;' src='img/tf1_51_M_ss2.jpeg'></img>,2,NA,exp,NA,2,<img src='img/tf1_51_T1_ss2_md.jpeg'></img>,0,FALSE,NA,sub40
NA,html-keyboard-response,115,460234,0.0-10.0-0.51,"""event"",""trial"",""time""
""fullscreenenter"",""0"",""4860""
","
","
","""event"",""trial"",""time""
""fullscreenenter"",""0"",""4860""
","
",null,"<div style=""font-size:60px;"">+</div>",NA,null,fixation,2020-06-12T23:39:08Z,NA,NA,NA,NA,NA,sub40
NA,mars-trial,116,461508,0.0-10.0-1.51,"""event"",""trial"",""time""
""fullscreenenter"",""0"",""4860""
","
","
","""event"",""trial"",""time""
""fullscreenenter"",""0"",""4860""
","
",669.1900000005262,<img style='border: 4px solid darkgrey;' src='img/tf1_52_M_ss3.jpeg'></img>,2,NA,exp,NA,0,<img src='img/tf1_52_T1_ss3_md.jpeg'></img>,0,TRUE,NA,sub40
NA,html-keyboard-response,117,462009,0.0-10.0-0.52,"""event"",""trial"",""time""
""fullscreenenter"",""0"",""4860""
","
","
","""event"",""trial"",""time""
""fullscreenenter"",""0"",""4860""
","
",null,"<div style=""font-size:60px;"">+</div>",NA,null,fixation,2020-06-12T23:39:09Z,NA,NA,NA,NA,NA,sub40
NA,mars-trial,118,469245,0.0-10.0-1.52,"""event"",""trial"",""time""
""fullscreenenter"",""0"",""4860""
","
","
","""event"",""trial"",""time""
""fullscreenenter"",""0"",""4860""
","
",6632.140000001527,<img style='border: 4px solid darkgrey;' src='img/tf1_53_M_ss1.jpeg'></img>,0,NA,exp,NA,3,<img src='img/tf1_53_T1_ss1_md.jpeg'></img>,0,FALSE,NA,sub40
NA,html-keyboard-response,119,469747,0.0-10.0-0.53,"""event"",""trial"",""time""
""fullscreenenter"",""0"",""4860""
","
","
","""event"",""trial"",""time""
""fullscreenenter"",""0"",""4860""
","
",null,"<div style=""font-size:60px;"">+</div>",NA,null,fixation,2020-06-12T23:39:17Z,NA,NA,NA,NA,NA,sub40
NA,mars-trial,120,479382,0.0-10.0-1.53,"""event"",""trial"",""time""
""fullscreenenter"",""0"",""4860""
","
","
","""event"",""trial"",""time""
""fullscreenenter"",""0"",""4860""
","
",9030.6700000001,<img style='border: 4px solid darkgrey;' src='img/tf1_54_M_ss2.jpeg'></img>,0,NA,exp,NA,1,<img src='img/tf1_54_T1_ss2_md.jpeg'></img>,0,FALSE,NA,sub40
NA,html-keyboard-response,121,479884,0.0-10.0-0.54,"""event"",""trial"",""time""
""fullscreenenter"",""0"",""4860""
","
","
","""event"",""trial"",""time""
""fullscreenenter"",""0"",""4860""
","
",null,"<div style=""font-size:60px;"">+</div>",NA,null,fixation,2020-06-12T23:39:27Z,NA,NA,NA,NA,NA,sub40
NA,mars-trial,122,486817,0.0-10.0-1.54,"""event"",""trial"",""time""
""fullscreenenter"",""0"",""4860""
","
","
","""event"",""trial"",""time""
""fullscreenenter"",""0"",""4860""
","
",6328.215000001364,<img style='border: 4px solid darkgrey;' src='img/tf1_55_M_ss3.jpeg'></img>,3,NA,exp,NA,2,<img src='img/tf1_55_T1_ss3_md.jpeg'></img>,0,FALSE,NA,sub40
NA,html-keyboard-response,123,487319,0.0-10.0-0.55,"""event"",""trial"",""time""
""fullscreenenter"",""0"",""4860""
","
","
","""event"",""trial"",""time""
""fullscreenenter"",""0"",""4860""
","
",null,"<div style=""font-size:60px;"">+</div>",NA,null,fixation,2020-06-12T23:39:35Z,NA,NA,NA,NA,NA,sub40
NA,mars-trial,124,496845,0.0-10.0-1.55,"""event"",""trial"",""time""
""fullscreenenter"",""0"",""4860""
","
","
","""event"",""trial"",""time""
""fullscreenenter"",""0"",""4860""
","
",8920.904999999038,<img style='border: 4px solid darkgrey;' src='img/tf1_56_M_ss1.jpeg'></img>,1,NA,exp,NA,2,<img src='img/tf1_56_T1_ss1_md.jpeg'></img>,0,FALSE,NA,sub40
NA,html-keyboard-response,125,497347,0.0-10.0-0.56,"""event"",""trial"",""time""
""fullscreenenter"",""0"",""4860""
","
","
","""event"",""trial"",""time""
""fullscreenenter"",""0"",""4860""
","
",null,"<div style=""font-size:60px;"">+</div>",NA,null,fixation,2020-06-12T23:39:45Z,NA,NA,NA,NA,NA,sub40
NA,mars-trial,126,505052,0.0-10.0-1.56,"""event"",""trial"",""time""
""fullscreenenter"",""0"",""4860""
","
","
","""event"",""trial"",""time""
""fullscreenenter"",""0"",""4860""
","
",7100.879999998142,<img style='border: 4px solid darkgrey;' src='img/tf1_57_M_ss2.jpeg'></img>,0,NA,exp,NA,0,<img src='img/tf1_57_T1_ss2_md.jpeg'></img>,0,TRUE,NA,sub40
NA,html-keyboard-response,127,505554,0.0-10.0-0.57,"""event"",""trial"",""time""
""fullscreenenter"",""0"",""4860""
","
","
","""event"",""trial"",""time""
""fullscreenenter"",""0"",""4860""
","
",null,"<div style=""font-size:60px;"">+</div>",NA,null,fixation,2020-06-12T23:39:53Z,NA,NA,NA,NA,NA,sub40
NA,mars-trial,128,510821,0.0-10.0-1.57,"""event"",""trial"",""time""
""fullscreenenter"",""0"",""4860""
","
","
","""event"",""trial"",""time""
""fullscreenenter"",""0"",""4860""
","
",4661.8299999972805,<img style='border: 4px solid darkgrey;' src='img/tf1_58_M_ss3.jpeg'></img>,1,NA,exp,NA,3,<img src='img/tf1_58_T1_ss3_md.jpeg'></img>,0,FALSE,NA,sub40
NA,html-keyboard-response,129,511323,0.0-10.0-0.58,"""event"",""trial"",""time""
""fullscreenenter"",""0"",""4860""
","
","
","""event"",""trial"",""time""
""fullscreenenter"",""0"",""4860""
","
",null,"<div style=""font-size:60px;"">+</div>",NA,null,fixation,2020-06-12T23:39:59Z,NA,NA,NA,NA,NA,sub40
NA,mars-trial,130,515794,0.0-10.0-1.58,"""event"",""trial"",""time""
""fullscreenenter"",""0"",""4860""
","
","
","""event"",""trial"",""time""
""fullscreenenter"",""0"",""4860""
","
",3866.229999999632,<img style='border: 4px solid darkgrey;' src='img/tf1_59_M_ss1.jpeg'></img>,2,NA,exp,NA,3,<img src='img/tf1_59_T1_ss1_md.jpeg'></img>,0,FALSE,NA,sub40
NA,html-keyboard-response,131,516296,0.0-10.0-0.59,"""event"",""trial"",""time""
""fullscreenenter"",""0"",""4860""
","
","
","""event"",""trial"",""time""
""fullscreenenter"",""0"",""4860""
","
",null,"<div style=""font-size:60px;"">+</div>",NA,null,fixation,2020-06-12T23:40:04Z,NA,NA,NA,NA,NA,sub40
NA,mars-trial,132,532577,0.0-10.0-1.59,"""event"",""trial"",""time""
""fullscreenenter"",""0"",""4860""
","
","
","""event"",""trial"",""time""
""fullscreenenter"",""0"",""4860""
","
",15675.500000004773,<img style='border: 4px solid darkgrey;' src='img/tf1_60_M_ss2.jpeg'></img>,1,NA,exp,NA,1,<img src='img/tf1_60_T1_ss2_md.jpeg'></img>,0,FALSE,NA,sub40
NA,html-keyboard-response,133,533078,0.0-10.0-0.60,"""event"",""trial"",""time""
""fullscreenenter"",""0"",""4860""
","
","
","""event"",""trial"",""time""
""fullscreenenter"",""0"",""4860""
","
",null,"<div style=""font-size:60px;"">+</div>",NA,null,fixation,2020-06-12T23:40:20Z,NA,NA,NA,NA,NA,sub40
NA,mars-trial,134,545037,0.0-10.0-1.60,"""event"",""trial"",""time""
""fullscreenenter"",""0"",""4860""
","
","
","""event"",""trial"",""time""
""fullscreenenter"",""0"",""4860""
","
",NA,NA,NA,NA,exp,NA,NA,<img src='img/tf1_61_T1_ss3_md.jpeg'></img>,0,FALSE,NA,sub40
NA,html-keyboard-response,135,545539,0.0-10.0-0.61,"""event"",""trial"",""time""
""fullscreenenter"",""0"",""4860""
","
","
","""event"",""trial"",""time""
""fullscreenenter"",""0"",""4860""
","
",null,"<div style=""font-size:60px;"">+</div>",NA,null,fixation,2020-06-12T23:40:33Z,NA,NA,NA,NA,NA,sub40
NA,audio-button-response,136,551773,0.0-11.0,"""event"",""trial"",""time""
""fullscreenenter"",""0"",""4860""
","
","
","""event"",""trial"",""time""
""fullscreenenter"",""0"",""4860""
","
",6132.574999995995,audio/mars_instructions_slide5.wav,0,NA,NA,NA,NA,NA,NA,NA,NA,sub40
