success,trial_type,trial_index,time_elapsed,internal_node_id,interactions,blur_events,focus_events,fullscreenenter_events,fullscreenexit_events,rt,stimulus,button_pressed,key_press,part,timestamp,unshuffled_button,correct_response,correct_button,correct,value,subject_id
TRUE,fullscreen,0,4097,0.0-0.0,"""event"",""trial"",""time""
""fullscreenenter"",""0"",""3172""
","
","
","""event"",""trial"",""time""
""fullscreenenter"",""0"",""3172""
","
",NA,NA,NA,NA,NA,NA,NA,NA,NA,NA,NA,sub11
NA,pavlovia,1,4098,0.0-1.0,"""event"",""trial"",""time""
""fullscreenenter"",""0"",""3172""
","
","
","""event"",""trial"",""time""
""fullscreenenter"",""0"",""3172""
","
",NA,NA,NA,NA,NA,NA,NA,NA,NA,NA,NA,sub11
NA,html-button-response,2,5267,0.0-2.0,"""event"",""trial"",""time""
""fullscreenenter"",""0"",""3172""
","
","
","""event"",""trial"",""time""
""fullscreenenter"",""0"",""3172""
","
",1168,<p>Welcome! Press START to begin.</p><br>,0,NA,NA,NA,NA,NA,NA,NA,NA,sub11
NA,audio-button-response,3,21962,0.0-3.0,"""event"",""trial"",""time""
""fullscreenenter"",""0"",""3172""
","
","
","""event"",""trial"",""time""
""fullscreenenter"",""0"",""3172""
","
",16691,audio/mars_instructions_slide2.wav,0,NA,NA,NA,NA,NA,NA,NA,NA,sub11
NA,audio-button-response,4,37701,0.0-4.0,"""event"",""trial"",""time""
""fullscreenenter"",""0"",""3172""
","
","
","""event"",""trial"",""time""
""fullscreenenter"",""0"",""3172""
","
",15738.000000000007,audio/mars_instructions_slide3.wav,0,NA,NA,NA,NA,NA,NA,NA,NA,sub11
NA,html-keyboard-response,5,38203,0.0-5.0-0.0,"""event"",""trial"",""time""
""fullscreenenter"",""0"",""3172""
","
","
","""event"",""trial"",""time""
""fullscreenenter"",""0"",""3172""
","
",null,"<div style=""font-size:60px;"">+</div>",NA,null,fixation,2020-06-16T20:23:21Z,NA,NA,NA,NA,NA,sub11
NA,mars-trial,6,44934,0.0-5.0-1.0,"""event"",""trial"",""time""
""fullscreenenter"",""0"",""3172""
","
","
","""event"",""trial"",""time""
""fullscreenenter"",""0"",""3172""
","
",4626,<img style='border: 4px solid darkgrey;' src='practice/pt1_M1.png'></img>,2,NA,practice,NA,2,<img src='practice/pt1_T1.png'></img>,0,FALSE,NA,sub11
NA,html-keyboard-response,7,45436,0.0-5.1-0.1,"""event"",""trial"",""time""
""fullscreenenter"",""0"",""3172""
","
","
","""event"",""trial"",""time""
""fullscreenenter"",""0"",""3172""
","
",null,"<div style=""font-size:60px;"">+</div>",NA,null,fixation,2020-06-16T20:23:28Z,NA,NA,NA,NA,NA,sub11
NA,mars-trial,8,51076,0.0-5.1-1.1,"""event"",""trial"",""time""
""fullscreenenter"",""0"",""3172""
","
","
","""event"",""trial"",""time""
""fullscreenenter"",""0"",""3172""
","
",3537,<img style='border: 4px solid darkgrey;' src='practice/pt1_M1.png'></img>,1,NA,practice,NA,1,<img src='practice/pt1_T1.png'></img>,0,FALSE,NA,sub11
NA,html-keyboard-response,9,51577,0.0-5.2-0.2,"""event"",""trial"",""time""
""fullscreenenter"",""0"",""3172""
","
","
","""event"",""trial"",""time""
""fullscreenenter"",""0"",""3172""
","
",null,"<div style=""font-size:60px;"">+</div>",NA,null,fixation,2020-06-16T20:23:34Z,NA,NA,NA,NA,NA,sub11
NA,mars-trial,10,54868,0.0-5.2-1.2,"""event"",""trial"",""time""
""fullscreenenter"",""0"",""3172""
","
","
","""event"",""trial"",""time""
""fullscreenenter"",""0"",""3172""
","
",1187,<img style='border: 4px solid darkgrey;' src='practice/pt1_M1.png'></img>,3,NA,practice,NA,0,<img src='practice/pt1_T1.png'></img>,0,TRUE,NA,sub11
NA,html-keyboard-response,11,55369,0.0-6.0-0.0,"""event"",""trial"",""time""
""fullscreenenter"",""0"",""3172""
","
","
","""event"",""trial"",""time""
""fullscreenenter"",""0"",""3172""
","
",null,"<div style=""font-size:60px;"">+</div>",NA,null,fixation,2020-06-16T20:23:38Z,NA,NA,NA,NA,NA,sub11
NA,mars-trial,12,59761,0.0-6.0-1.0,"""event"",""trial"",""time""
""fullscreenenter"",""0"",""3172""
","
","
","""event"",""trial"",""time""
""fullscreenenter"",""0"",""3172""
","
",2289,<img style='border: 4px solid darkgrey;' src='practice/pt2_M1.png'></img>,3,NA,practice,NA,0,<img src='practice/pt2_T1.png'></img>,0,TRUE,NA,sub11
NA,html-keyboard-response,13,60263,0.0-7.0-0.0,"""event"",""trial"",""time""
""fullscreenenter"",""0"",""3172""
","
","
","""event"",""trial"",""time""
""fullscreenenter"",""0"",""3172""
","
",null,"<div style=""font-size:60px;"">+</div>",NA,null,fixation,2020-06-16T20:23:43Z,NA,NA,NA,NA,NA,sub11
NA,mars-trial,14,64104,0.0-7.0-1.0,"""event"",""trial"",""time""
""fullscreenenter"",""0"",""3172""
","
","
","""event"",""trial"",""time""
""fullscreenenter"",""0"",""3172""
","
",1738,<img style='border: 4px solid darkgrey;' src='practice/pt3_M1.png'></img>,2,NA,practice,NA,0,<img src='practice/pt3_T1.png'></img>,0,TRUE,NA,sub11
NA,audio-button-response,15,68076,0.0-8.0,"""event"",""trial"",""time""
""fullscreenenter"",""0"",""3172""
","
","
","""event"",""trial"",""time""
""fullscreenenter"",""0"",""3172""
","
",3971.9999999999854,audio/mars_instructions_slide4.wav,0,NA,NA,NA,NA,NA,NA,NA,NA,sub11
NA,call-function,16,68077,0.0-9.0,"""event"",""trial"",""time""
""fullscreenenter"",""0"",""3172""
","
","
","""event"",""trial"",""time""
""fullscreenenter"",""0"",""3172""
","
",NA,NA,NA,NA,NA,NA,NA,NA,NA,NA,NA,sub11
NA,html-keyboard-response,17,68577,0.0-10.0-0.0,"""event"",""trial"",""time""
""fullscreenenter"",""0"",""3172""
","
","
","""event"",""trial"",""time""
""fullscreenenter"",""0"",""3172""
","
",null,"<div style=""font-size:60px;"">+</div>",NA,null,fixation,2020-06-16T20:23:51Z,NA,NA,NA,NA,NA,sub11
NA,mars-trial,18,70895,0.0-10.0-1.0,"""event"",""trial"",""time""
""fullscreenenter"",""0"",""3172""
","
","
","""event"",""trial"",""time""
""fullscreenenter"",""0"",""3172""
","
",1714,<img style='border: 4px solid darkgrey;' src='img/tf1_1_M_ss3.jpeg'></img>,2,NA,exp,NA,0,<img src='img/tf1_1_T1_ss3_md.jpeg'></img>,0,TRUE,NA,sub11
NA,html-keyboard-response,19,71396,0.0-10.0-0.1,"""event"",""trial"",""time""
""fullscreenenter"",""0"",""3172""
","
","
","""event"",""trial"",""time""
""fullscreenenter"",""0"",""3172""
","
",null,"<div style=""font-size:60px;"">+</div>",NA,null,fixation,2020-06-16T20:23:54Z,NA,NA,NA,NA,NA,sub11
NA,mars-trial,20,76475,0.0-10.0-1.1,"""event"",""trial"",""time""
""fullscreenenter"",""0"",""3172""
","
","
","""event"",""trial"",""time""
""fullscreenenter"",""0"",""3172""
","
",4476,<img style='border: 4px solid darkgrey;' src='img/tf1_2_M_ss1.jpeg'></img>,0,NA,exp,NA,0,<img src='img/tf1_2_T1_ss1_md.jpeg'></img>,0,TRUE,NA,sub11
NA,html-keyboard-response,21,76976,0.0-10.0-0.2,"""event"",""trial"",""time""
""fullscreenenter"",""0"",""3172""
","
","
","""event"",""trial"",""time""
""fullscreenenter"",""0"",""3172""
","
",null,"<div style=""font-size:60px;"">+</div>",NA,null,fixation,2020-06-16T20:23:59Z,NA,NA,NA,NA,NA,sub11
NA,mars-trial,22,79963,0.0-10.0-1.2,"""event"",""trial"",""time""
""fullscreenenter"",""0"",""3172""
","
","
","""event"",""trial"",""time""
""fullscreenenter"",""0"",""3172""
","
",2383,<img style='border: 4px solid darkgrey;' src='img/tf1_3_M_ss2.jpeg'></img>,0,NA,exp,NA,0,<img src='img/tf1_3_T1_ss2_md.jpeg'></img>,0,TRUE,NA,sub11
NA,html-keyboard-response,23,80465,0.0-10.0-0.3,"""event"",""trial"",""time""
""fullscreenenter"",""0"",""3172""
","
","
","""event"",""trial"",""time""
""fullscreenenter"",""0"",""3172""
","
",null,"<div style=""font-size:60px;"">+</div>",NA,null,fixation,2020-06-16T20:24:03Z,NA,NA,NA,NA,NA,sub11
NA,mars-trial,24,85441,0.0-10.0-1.3,"""event"",""trial"",""time""
""fullscreenenter"",""0"",""3172""
","
","
","""event"",""trial"",""time""
""fullscreenenter"",""0"",""3172""
","
",4374,<img style='border: 4px solid darkgrey;' src='img/tf1_4_M_ss3.jpeg'></img>,3,NA,exp,NA,0,<img src='img/tf1_4_T1_ss3_md.jpeg'></img>,0,TRUE,NA,sub11
NA,html-keyboard-response,25,85943,0.0-10.0-0.4,"""event"",""trial"",""time""
""fullscreenenter"",""0"",""3172""
","
","
","""event"",""trial"",""time""
""fullscreenenter"",""0"",""3172""
","
",null,"<div style=""font-size:60px;"">+</div>",NA,null,fixation,2020-06-16T20:24:08Z,NA,NA,NA,NA,NA,sub11
NA,mars-trial,26,87961,0.0-10.0-1.4,"""event"",""trial"",""time""
""fullscreenenter"",""0"",""3172""
","
","
","""event"",""trial"",""time""
""fullscreenenter"",""0"",""3172""
","
",1417,<img style='border: 4px solid darkgrey;' src='img/tf1_5_M_ss1.jpeg'></img>,3,NA,exp,NA,0,<img src='img/tf1_5_T1_ss1_md.jpeg'></img>,0,TRUE,NA,sub11
NA,html-keyboard-response,27,88462,0.0-10.0-0.5,"""event"",""trial"",""time""
""fullscreenenter"",""0"",""3172""
","
","
","""event"",""trial"",""time""
""fullscreenenter"",""0"",""3172""
","
",null,"<div style=""font-size:60px;"">+</div>",NA,null,fixation,2020-06-16T20:24:11Z,NA,NA,NA,NA,NA,sub11
NA,mars-trial,28,93069,0.0-10.0-1.5,"""event"",""trial"",""time""
""fullscreenenter"",""0"",""3172""
","
","
","""event"",""trial"",""time""
""fullscreenenter"",""0"",""3172""
","
",4005,<img style='border: 4px solid darkgrey;' src='img/tf1_6_M_ss2.jpeg'></img>,1,NA,exp,NA,1,<img src='img/tf1_6_T1_ss2_md.jpeg'></img>,0,FALSE,NA,sub11
NA,html-keyboard-response,29,93570,0.0-10.0-0.6,"""event"",""trial"",""time""
""fullscreenenter"",""0"",""3172""
","
","
","""event"",""trial"",""time""
""fullscreenenter"",""0"",""3172""
","
",null,"<div style=""font-size:60px;"">+</div>",NA,null,fixation,2020-06-16T20:24:16Z,NA,NA,NA,NA,NA,sub11
NA,mars-trial,30,97424,0.0-10.0-1.6,"""event"",""trial"",""time""
""fullscreenenter"",""0"",""3172""
","
","
","""event"",""trial"",""time""
""fullscreenenter"",""0"",""3172""
","
",3249,<img style='border: 4px solid darkgrey;' src='img/tf1_7_M_ss3.jpeg'></img>,2,NA,exp,NA,0,<img src='img/tf1_7_T1_ss3_md.jpeg'></img>,0,TRUE,NA,sub11
NA,html-keyboard-response,31,97925,0.0-10.0-0.7,"""event"",""trial"",""time""
""fullscreenenter"",""0"",""3172""
","
","
","""event"",""trial"",""time""
""fullscreenenter"",""0"",""3172""
","
",null,"<div style=""font-size:60px;"">+</div>",NA,null,fixation,2020-06-16T20:24:20Z,NA,NA,NA,NA,NA,sub11
NA,mars-trial,32,100944,0.0-10.0-1.7,"""event"",""trial"",""time""
""fullscreenenter"",""0"",""3172""
","
","
","""event"",""trial"",""time""
""fullscreenenter"",""0"",""3172""
","
",2417,<img style='border: 4px solid darkgrey;' src='img/tf1_8_M_ss1.jpeg'></img>,0,NA,exp,NA,2,<img src='img/tf1_8_T1_ss1_md.jpeg'></img>,0,FALSE,NA,sub11
NA,html-keyboard-response,33,101445,0.0-10.0-0.8,"""event"",""trial"",""time""
""fullscreenenter"",""0"",""3172""
","
","
","""event"",""trial"",""time""
""fullscreenenter"",""0"",""3172""
","
",null,"<div style=""font-size:60px;"">+</div>",NA,null,fixation,2020-06-16T20:24:24Z,NA,NA,NA,NA,NA,sub11
NA,mars-trial,34,110012,0.0-10.0-1.8,"""event"",""trial"",""time""
""fullscreenenter"",""0"",""3172""
","
","
","""event"",""trial"",""time""
""fullscreenenter"",""0"",""3172""
","
",7965,<img style='border: 4px solid darkgrey;' src='img/tf1_9_M_ss2.jpeg'></img>,1,NA,exp,NA,2,<img src='img/tf1_9_T1_ss2_md.jpeg'></img>,0,FALSE,NA,sub11
NA,html-keyboard-response,35,110513,0.0-10.0-0.9,"""event"",""trial"",""time""
""fullscreenenter"",""0"",""3172""
","
","
","""event"",""trial"",""time""
""fullscreenenter"",""0"",""3172""
","
",null,"<div style=""font-size:60px;"">+</div>",NA,null,fixation,2020-06-16T20:24:33Z,NA,NA,NA,NA,NA,sub11
NA,mars-trial,36,115851,0.0-10.0-1.9,"""event"",""trial"",""time""
""fullscreenenter"",""0"",""3172""
","
","
","""event"",""trial"",""time""
""fullscreenenter"",""0"",""3172""
","
",4735,<img style='border: 4px solid darkgrey;' src='img/tf1_10_M_ss3.jpeg'></img>,0,NA,exp,NA,0,<img src='img/tf1_10_T1_ss3_md.jpeg'></img>,0,TRUE,NA,sub11
NA,html-keyboard-response,37,116352,0.0-10.0-0.10,"""event"",""trial"",""time""
""fullscreenenter"",""0"",""3172""
","
","
","""event"",""trial"",""time""
""fullscreenenter"",""0"",""3172""
","
",null,"<div style=""font-size:60px;"">+</div>",NA,null,fixation,2020-06-16T20:24:39Z,NA,NA,NA,NA,NA,sub11
NA,mars-trial,38,120464,0.0-10.0-1.10,"""event"",""trial"",""time""
""fullscreenenter"",""0"",""3172""
","
","
","""event"",""trial"",""time""
""fullscreenenter"",""0"",""3172""
","
",3509,<img style='border: 4px solid darkgrey;' src='img/tf1_11_M_ss1.jpeg'></img>,2,NA,exp,NA,2,<img src='img/tf1_11_T1_ss1_md.jpeg'></img>,0,FALSE,NA,sub11
NA,html-keyboard-response,39,120965,0.0-10.0-0.11,"""event"",""trial"",""time""
""fullscreenenter"",""0"",""3172""
","
","
","""event"",""trial"",""time""
""fullscreenenter"",""0"",""3172""
","
",null,"<div style=""font-size:60px;"">+</div>",NA,null,fixation,2020-06-16T20:24:43Z,NA,NA,NA,NA,NA,sub11
NA,mars-trial,40,125042,0.0-10.0-1.11,"""event"",""trial"",""time""
""fullscreenenter"",""0"",""3172""
","
","
","""event"",""trial"",""time""
""fullscreenenter"",""0"",""3172""
","
",3474,<img style='border: 4px solid darkgrey;' src='img/tf1_12_M_ss2.jpeg'></img>,1,NA,exp,NA,1,<img src='img/tf1_12_T1_ss2_md.jpeg'></img>,0,FALSE,NA,sub11
NA,html-keyboard-response,41,125543,0.0-10.0-0.12,"""event"",""trial"",""time""
""fullscreenenter"",""0"",""3172""
","
","
","""event"",""trial"",""time""
""fullscreenenter"",""0"",""3172""
","
",null,"<div style=""font-size:60px;"">+</div>",NA,null,fixation,2020-06-16T20:24:48Z,NA,NA,NA,NA,NA,sub11
NA,mars-trial,42,133379,0.0-10.0-1.12,"""event"",""trial"",""time""
""fullscreenenter"",""0"",""3172""
","
","
","""event"",""trial"",""time""
""fullscreenenter"",""0"",""3172""
","
",7232,<img style='border: 4px solid darkgrey;' src='img/tf1_13_M_ss3.jpeg'></img>,1,NA,exp,NA,1,<img src='img/tf1_13_T1_ss3_md.jpeg'></img>,0,FALSE,NA,sub11
NA,html-keyboard-response,43,133880,0.0-10.0-0.13,"""event"",""trial"",""time""
""fullscreenenter"",""0"",""3172""
","
","
","""event"",""trial"",""time""
""fullscreenenter"",""0"",""3172""
","
",null,"<div style=""font-size:60px;"">+</div>",NA,null,fixation,2020-06-16T20:24:56Z,NA,NA,NA,NA,NA,sub11
NA,mars-trial,44,137395,0.0-10.0-1.13,"""event"",""trial"",""time""
""fullscreenenter"",""0"",""3172""
","
","
","""event"",""trial"",""time""
""fullscreenenter"",""0"",""3172""
","
",2913,<img style='border: 4px solid darkgrey;' src='img/tf1_14_M_ss1.jpeg'></img>,3,NA,exp,NA,1,<img src='img/tf1_14_T1_ss1_md.jpeg'></img>,0,FALSE,NA,sub11
NA,html-keyboard-response,45,137896,0.0-10.0-0.14,"""event"",""trial"",""time""
""fullscreenenter"",""0"",""3172""
","
","
","""event"",""trial"",""time""
""fullscreenenter"",""0"",""3172""
","
",null,"<div style=""font-size:60px;"">+</div>",NA,null,fixation,2020-06-16T20:25:00Z,NA,NA,NA,NA,NA,sub11
NA,mars-trial,46,142694,0.0-10.0-1.14,"""event"",""trial"",""time""
""fullscreenenter"",""0"",""3172""
","
","
","""event"",""trial"",""time""
""fullscreenenter"",""0"",""3172""
","
",4196,<img style='border: 4px solid darkgrey;' src='img/tf1_15_M_ss2.jpeg'></img>,3,NA,exp,NA,3,<img src='img/tf1_15_T1_ss2_md.jpeg'></img>,0,FALSE,NA,sub11
NA,html-keyboard-response,47,143196,0.0-10.0-0.15,"""event"",""trial"",""time""
""fullscreenenter"",""0"",""3172""
","
","
","""event"",""trial"",""time""
""fullscreenenter"",""0"",""3172""
","
",null,"<div style=""font-size:60px;"">+</div>",NA,null,fixation,2020-06-16T20:25:06Z,NA,NA,NA,NA,NA,sub11
NA,mars-trial,48,148150,0.0-10.0-1.15,"""event"",""trial"",""time""
""fullscreenenter"",""0"",""3172""
","
","
","""event"",""trial"",""time""
""fullscreenenter"",""0"",""3172""
","
",4351,<img style='border: 4px solid darkgrey;' src='img/tf1_16_M_ss3.jpeg'></img>,1,NA,exp,NA,2,<img src='img/tf1_16_T1_ss3_md.jpeg'></img>,0,FALSE,NA,sub11
NA,html-keyboard-response,49,148651,0.0-10.0-0.16,"""event"",""trial"",""time""
""fullscreenenter"",""0"",""3172""
","
","
","""event"",""trial"",""time""
""fullscreenenter"",""0"",""3172""
","
",null,"<div style=""font-size:60px;"">+</div>",NA,null,fixation,2020-06-16T20:25:11Z,NA,NA,NA,NA,NA,sub11
NA,mars-trial,50,158231,0.0-10.0-1.16,"""event"",""trial"",""time""
""fullscreenenter"",""0"",""3172""
","
","
","""event"",""trial"",""time""
""fullscreenenter"",""0"",""3172""
","
",8976,<img style='border: 4px solid darkgrey;' src='img/tf1_17_M_ss1.jpeg'></img>,2,NA,exp,NA,1,<img src='img/tf1_17_T1_ss1_md.jpeg'></img>,0,FALSE,NA,sub11
NA,html-keyboard-response,51,158732,0.0-10.0-0.17,"""event"",""trial"",""time""
""fullscreenenter"",""0"",""3172""
","
","
","""event"",""trial"",""time""
""fullscreenenter"",""0"",""3172""
","
",null,"<div style=""font-size:60px;"">+</div>",NA,null,fixation,2020-06-16T20:25:21Z,NA,NA,NA,NA,NA,sub11
NA,mars-trial,52,165701,0.0-10.0-1.17,"""event"",""trial"",""time""
""fullscreenenter"",""0"",""3172""
","
","
","""event"",""trial"",""time""
""fullscreenenter"",""0"",""3172""
","
",6365,<img style='border: 4px solid darkgrey;' src='img/tf1_18_M_ss2.jpeg'></img>,1,NA,exp,NA,2,<img src='img/tf1_18_T1_ss2_md.jpeg'></img>,0,FALSE,NA,sub11
NA,html-keyboard-response,53,166201,0.0-10.0-0.18,"""event"",""trial"",""time""
""fullscreenenter"",""0"",""3172""
","
","
","""event"",""trial"",""time""
""fullscreenenter"",""0"",""3172""
","
",null,"<div style=""font-size:60px;"">+</div>",NA,null,fixation,2020-06-16T20:25:29Z,NA,NA,NA,NA,NA,sub11
NA,mars-trial,54,176714,0.0-10.0-1.18,"""event"",""trial"",""time""
""fullscreenenter"",""0"",""3172""
","
","
","""event"",""trial"",""time""
""fullscreenenter"",""0"",""3172""
","
",9910,<img style='border: 4px solid darkgrey;' src='img/tf1_19_M_ss3.jpeg'></img>,1,NA,exp,NA,0,<img src='img/tf1_19_T1_ss3_md.jpeg'></img>,0,TRUE,NA,sub11
NA,html-keyboard-response,55,177215,0.0-10.0-0.19,"""event"",""trial"",""time""
""fullscreenenter"",""0"",""3172""
","
","
","""event"",""trial"",""time""
""fullscreenenter"",""0"",""3172""
","
",null,"<div style=""font-size:60px;"">+</div>",NA,null,fixation,2020-06-16T20:25:40Z,NA,NA,NA,NA,NA,sub11
NA,mars-trial,56,180528,0.0-10.0-1.19,"""event"",""trial"",""time""
""fullscreenenter"",""0"",""3172""
","
","
","""event"",""trial"",""time""
""fullscreenenter"",""0"",""3172""
","
",2711,<img style='border: 4px solid darkgrey;' src='img/tf1_20_M_ss1.jpeg'></img>,1,NA,exp,NA,1,<img src='img/tf1_20_T1_ss1_md.jpeg'></img>,0,FALSE,NA,sub11
NA,html-keyboard-response,57,181030,0.0-10.0-0.20,"""event"",""trial"",""time""
""fullscreenenter"",""0"",""3172""
","
","
","""event"",""trial"",""time""
""fullscreenenter"",""0"",""3172""
","
",null,"<div style=""font-size:60px;"">+</div>",NA,null,fixation,2020-06-16T20:25:43Z,NA,NA,NA,NA,NA,sub11
NA,mars-trial,58,186176,0.0-10.0-1.20,"""event"",""trial"",""time""
""fullscreenenter"",""0"",""3172""
","
","
","""event"",""trial"",""time""
""fullscreenenter"",""0"",""3172""
","
",4544,<img style='border: 4px solid darkgrey;' src='img/tf1_21_M_ss2.jpeg'></img>,1,NA,exp,NA,2,<img src='img/tf1_21_T1_ss2_md.jpeg'></img>,0,FALSE,NA,sub11
NA,html-keyboard-response,59,186678,0.0-10.0-0.21,"""event"",""trial"",""time""
""fullscreenenter"",""0"",""3172""
","
","
","""event"",""trial"",""time""
""fullscreenenter"",""0"",""3172""
","
",null,"<div style=""font-size:60px;"">+</div>",NA,null,fixation,2020-06-16T20:25:49Z,NA,NA,NA,NA,NA,sub11
NA,mars-trial,60,190822,0.0-10.0-1.21,"""event"",""trial"",""time""
""fullscreenenter"",""0"",""3172""
","
","
","""event"",""trial"",""time""
""fullscreenenter"",""0"",""3172""
","
",3541,<img style='border: 4px solid darkgrey;' src='img/tf1_22_M_ss3.jpeg'></img>,3,NA,exp,NA,1,<img src='img/tf1_22_T1_ss3_md.jpeg'></img>,0,FALSE,NA,sub11
NA,html-keyboard-response,61,191323,0.0-10.0-0.22,"""event"",""trial"",""time""
""fullscreenenter"",""0"",""3172""
","
","
","""event"",""trial"",""time""
""fullscreenenter"",""0"",""3172""
","
",null,"<div style=""font-size:60px;"">+</div>",NA,null,fixation,2020-06-16T20:25:54Z,NA,NA,NA,NA,NA,sub11
NA,mars-trial,62,194816,0.0-10.0-1.22,"""event"",""trial"",""time""
""fullscreenenter"",""0"",""3172""
","
","
","""event"",""trial"",""time""
""fullscreenenter"",""0"",""3172""
","
",2890,<img style='border: 4px solid darkgrey;' src='img/tf1_23_M_ss1.jpeg'></img>,0,NA,exp,NA,2,<img src='img/tf1_23_T1_ss1_md.jpeg'></img>,0,FALSE,NA,sub11
NA,html-keyboard-response,63,195318,0.0-10.0-0.23,"""event"",""trial"",""time""
""fullscreenenter"",""0"",""3172""
","
","
","""event"",""trial"",""time""
""fullscreenenter"",""0"",""3172""
","
",null,"<div style=""font-size:60px;"">+</div>",NA,null,fixation,2020-06-16T20:25:58Z,NA,NA,NA,NA,NA,sub11
NA,mars-trial,64,203827,0.0-10.0-1.23,"""event"",""trial"",""time""
""fullscreenenter"",""0"",""3172""
","
","
","""event"",""trial"",""time""
""fullscreenenter"",""0"",""3172""
","
",7908,<img style='border: 4px solid darkgrey;' src='img/tf1_24_M_ss2.jpeg'></img>,2,NA,exp,NA,3,<img src='img/tf1_24_T1_ss2_md.jpeg'></img>,0,FALSE,NA,sub11
NA,html-keyboard-response,65,204328,0.0-10.0-0.24,"""event"",""trial"",""time""
""fullscreenenter"",""0"",""3172""
","
","
","""event"",""trial"",""time""
""fullscreenenter"",""0"",""3172""
","
",null,"<div style=""font-size:60px;"">+</div>",NA,null,fixation,2020-06-16T20:26:07Z,NA,NA,NA,NA,NA,sub11
NA,mars-trial,66,208733,0.0-10.0-1.24,"""event"",""trial"",""time""
""fullscreenenter"",""0"",""3172""
","
","
","""event"",""trial"",""time""
""fullscreenenter"",""0"",""3172""
","
",3801,<img style='border: 4px solid darkgrey;' src='img/tf1_25_M_ss3.jpeg'></img>,2,NA,exp,NA,0,<img src='img/tf1_25_T1_ss3_md.jpeg'></img>,0,TRUE,NA,sub11
NA,html-keyboard-response,67,209234,0.0-10.0-0.25,"""event"",""trial"",""time""
""fullscreenenter"",""0"",""3172""
","
","
","""event"",""trial"",""time""
""fullscreenenter"",""0"",""3172""
","
",null,"<div style=""font-size:60px;"">+</div>",NA,null,fixation,2020-06-16T20:26:12Z,NA,NA,NA,NA,NA,sub11
NA,mars-trial,68,217080,0.0-10.0-1.25,"""event"",""trial"",""time""
""fullscreenenter"",""0"",""3172""
","
","
","""event"",""trial"",""time""
""fullscreenenter"",""0"",""3172""
","
",7244,<img style='border: 4px solid darkgrey;' src='img/tf1_26_M_ss1.jpeg'></img>,1,NA,exp,NA,1,<img src='img/tf1_26_T1_ss1_md.jpeg'></img>,0,FALSE,NA,sub11
NA,html-keyboard-response,69,217581,0.0-10.0-0.26,"""event"",""trial"",""time""
""fullscreenenter"",""0"",""3172""
","
","
","""event"",""trial"",""time""
""fullscreenenter"",""0"",""3172""
","
",null,"<div style=""font-size:60px;"">+</div>",NA,null,fixation,2020-06-16T20:26:20Z,NA,NA,NA,NA,NA,sub11
NA,mars-trial,70,222266,0.0-10.0-1.26,"""event"",""trial"",""time""
""fullscreenenter"",""0"",""3172""
","
","
","""event"",""trial"",""time""
""fullscreenenter"",""0"",""3172""
","
",4082,<img style='border: 4px solid darkgrey;' src='img/tf1_27_M_ss2.jpeg'></img>,2,NA,exp,NA,0,<img src='img/tf1_27_T1_ss2_md.jpeg'></img>,0,TRUE,NA,sub11
NA,html-keyboard-response,71,222768,0.0-10.0-0.27,"""event"",""trial"",""time""
""fullscreenenter"",""0"",""3172""
","
","
","""event"",""trial"",""time""
""fullscreenenter"",""0"",""3172""
","
",null,"<div style=""font-size:60px;"">+</div>",NA,null,fixation,2020-06-16T20:26:25Z,NA,NA,NA,NA,NA,sub11
NA,mars-trial,72,225618,0.0-10.0-1.27,"""event"",""trial"",""time""
""fullscreenenter"",""0"",""3172""
","
","
","""event"",""trial"",""time""
""fullscreenenter"",""0"",""3172""
","
",2248.000000000029,<img style='border: 4px solid darkgrey;' src='img/tf1_28_M_ss3.jpeg'></img>,3,NA,exp,NA,1,<img src='img/tf1_28_T1_ss3_md.jpeg'></img>,0,FALSE,NA,sub11
NA,html-keyboard-response,73,226119,0.0-10.0-0.28,"""event"",""trial"",""time""
""fullscreenenter"",""0"",""3172""
","
","
","""event"",""trial"",""time""
""fullscreenenter"",""0"",""3172""
","
",null,"<div style=""font-size:60px;"">+</div>",NA,null,fixation,2020-06-16T20:26:29Z,NA,NA,NA,NA,NA,sub11
NA,mars-trial,74,231593,0.0-10.0-1.28,"""event"",""trial"",""time""
""fullscreenenter"",""0"",""3172""
","
","
","""event"",""trial"",""time""
""fullscreenenter"",""0"",""3172""
","
",4870,<img style='border: 4px solid darkgrey;' src='img/tf1_29_M_ss1.jpeg'></img>,2,NA,exp,NA,2,<img src='img/tf1_29_T1_ss1_md.jpeg'></img>,0,FALSE,NA,sub11
NA,html-keyboard-response,75,232095,0.0-10.0-0.29,"""event"",""trial"",""time""
""fullscreenenter"",""0"",""3172""
","
","
","""event"",""trial"",""time""
""fullscreenenter"",""0"",""3172""
","
",null,"<div style=""font-size:60px;"">+</div>",NA,null,fixation,2020-06-16T20:26:35Z,NA,NA,NA,NA,NA,sub11
NA,mars-trial,76,236464,0.0-10.0-1.29,"""event"",""trial"",""time""
""fullscreenenter"",""0"",""3172""
","
","
","""event"",""trial"",""time""
""fullscreenenter"",""0"",""3172""
","
",3766,<img style='border: 4px solid darkgrey;' src='img/tf1_30_M_ss2.jpeg'></img>,1,NA,exp,NA,2,<img src='img/tf1_30_T1_ss2_md.jpeg'></img>,0,FALSE,NA,sub11
NA,html-keyboard-response,77,236966,0.0-10.0-0.30,"""event"",""trial"",""time""
""fullscreenenter"",""0"",""3172""
","
","
","""event"",""trial"",""time""
""fullscreenenter"",""0"",""3172""
","
",null,"<div style=""font-size:60px;"">+</div>",NA,null,fixation,2020-06-16T20:26:39Z,NA,NA,NA,NA,NA,sub11
NA,mars-trial,78,241616,0.0-10.0-1.30,"""event"",""trial"",""time""
""fullscreenenter"",""0"",""3172""
","
","
","""event"",""trial"",""time""
""fullscreenenter"",""0"",""3172""
","
",4047,<img style='border: 4px solid darkgrey;' src='img/tf1_31_M_ss3.jpeg'></img>,1,NA,exp,NA,1,<img src='img/tf1_31_T1_ss3_md.jpeg'></img>,0,FALSE,NA,sub11
NA,html-keyboard-response,79,242118,0.0-10.0-0.31,"""event"",""trial"",""time""
""fullscreenenter"",""0"",""3172""
","
","
","""event"",""trial"",""time""
""fullscreenenter"",""0"",""3172""
","
",null,"<div style=""font-size:60px;"">+</div>",NA,null,fixation,2020-06-16T20:26:45Z,NA,NA,NA,NA,NA,sub11
NA,mars-trial,80,247624,0.0-10.0-1.31,"""event"",""trial"",""time""
""fullscreenenter"",""0"",""3172""
","
","
","""event"",""trial"",""time""
""fullscreenenter"",""0"",""3172""
","
",4903.000000000029,<img style='border: 4px solid darkgrey;' src='img/tf1_32_M_ss1.jpeg'></img>,1,NA,exp,NA,3,<img src='img/tf1_32_T1_ss1_md.jpeg'></img>,0,FALSE,NA,sub11
NA,html-keyboard-response,81,248126,0.0-10.0-0.32,"""event"",""trial"",""time""
""fullscreenenter"",""0"",""3172""
","
","
","""event"",""trial"",""time""
""fullscreenenter"",""0"",""3172""
","
",null,"<div style=""font-size:60px;"">+</div>",NA,null,fixation,2020-06-16T20:26:51Z,NA,NA,NA,NA,NA,sub11
NA,mars-trial,82,255770,0.0-10.0-1.32,"""event"",""trial"",""time""
""fullscreenenter"",""0"",""3172""
","
","
","""event"",""trial"",""time""
""fullscreenenter"",""0"",""3172""
","
",7040,<img style='border: 4px solid darkgrey;' src='img/tf1_33_M_ss2.jpeg'></img>,2,NA,exp,NA,1,<img src='img/tf1_33_T1_ss2_md.jpeg'></img>,0,FALSE,NA,sub11
NA,html-keyboard-response,83,256271,0.0-10.0-0.33,"""event"",""trial"",""time""
""fullscreenenter"",""0"",""3172""
","
","
","""event"",""trial"",""time""
""fullscreenenter"",""0"",""3172""
","
",null,"<div style=""font-size:60px;"">+</div>",NA,null,fixation,2020-06-16T20:26:59Z,NA,NA,NA,NA,NA,sub11
NA,mars-trial,84,259324,0.0-10.0-1.33,"""event"",""trial"",""time""
""fullscreenenter"",""0"",""3172""
","
","
","""event"",""trial"",""time""
""fullscreenenter"",""0"",""3172""
","
",2450.999999999971,<img style='border: 4px solid darkgrey;' src='img/tf1_34_M_ss3.jpeg'></img>,3,NA,exp,NA,1,<img src='img/tf1_34_T1_ss3_md.jpeg'></img>,0,FALSE,NA,sub11
NA,html-keyboard-response,85,259826,0.0-10.0-0.34,"""event"",""trial"",""time""
""fullscreenenter"",""0"",""3172""
","
","
","""event"",""trial"",""time""
""fullscreenenter"",""0"",""3172""
","
",null,"<div style=""font-size:60px;"">+</div>",NA,null,fixation,2020-06-16T20:27:02Z,NA,NA,NA,NA,NA,sub11
NA,mars-trial,86,264172,0.0-10.0-1.34,"""event"",""trial"",""time""
""fullscreenenter"",""0"",""3172""
","
","
","""event"",""trial"",""time""
""fullscreenenter"",""0"",""3172""
","
",3744,<img style='border: 4px solid darkgrey;' src='img/tf1_35_M_ss1.jpeg'></img>,1,NA,exp,NA,2,<img src='img/tf1_35_T1_ss1_md.jpeg'></img>,0,FALSE,NA,sub11
NA,html-keyboard-response,87,264673,0.0-10.0-0.35,"""event"",""trial"",""time""
""fullscreenenter"",""0"",""3172""
","
","
","""event"",""trial"",""time""
""fullscreenenter"",""0"",""3172""
","
",null,"<div style=""font-size:60px;"">+</div>",NA,null,fixation,2020-06-16T20:27:07Z,NA,NA,NA,NA,NA,sub11
NA,mars-trial,88,271587,0.0-10.0-1.35,"""event"",""trial"",""time""
""fullscreenenter"",""0"",""3172""
","
","
","""event"",""trial"",""time""
""fullscreenenter"",""0"",""3172""
","
",6310.999999999942,<img style='border: 4px solid darkgrey;' src='img/tf1_36_M_ss2.jpeg'></img>,3,NA,exp,NA,1,<img src='img/tf1_36_T1_ss2_md.jpeg'></img>,0,FALSE,NA,sub11
NA,html-keyboard-response,89,272088,0.0-10.0-0.36,"""event"",""trial"",""time""
""fullscreenenter"",""0"",""3172""
","
","
","""event"",""trial"",""time""
""fullscreenenter"",""0"",""3172""
","
",null,"<div style=""font-size:60px;"">+</div>",NA,null,fixation,2020-06-16T20:27:15Z,NA,NA,NA,NA,NA,sub11
NA,mars-trial,90,274006,0.0-10.0-1.36,"""event"",""trial"",""time""
""fullscreenenter"",""0"",""3172""
","
","
","""event"",""trial"",""time""
""fullscreenenter"",""0"",""3172""
","
",1313.9999999999418,<img style='border: 4px solid darkgrey;' src='img/tf1_37_M_ss3.jpeg'></img>,3,NA,exp,NA,2,<img src='img/tf1_37_T1_ss3_md.jpeg'></img>,0,FALSE,NA,sub11
NA,html-keyboard-response,91,274507,0.0-10.0-0.37,"""event"",""trial"",""time""
""fullscreenenter"",""0"",""3172""
","
","
","""event"",""trial"",""time""
""fullscreenenter"",""0"",""3172""
","
",null,"<div style=""font-size:60px;"">+</div>",NA,null,fixation,2020-06-16T20:27:17Z,NA,NA,NA,NA,NA,sub11
NA,mars-trial,92,277989,0.0-10.0-1.37,"""event"",""trial"",""time""
""fullscreenenter"",""0"",""3172""
","
","
","""event"",""trial"",""time""
""fullscreenenter"",""0"",""3172""
","
",2880,<img style='border: 4px solid darkgrey;' src='img/tf1_38_M_ss1.jpeg'></img>,2,NA,exp,NA,1,<img src='img/tf1_38_T1_ss1_md.jpeg'></img>,0,FALSE,NA,sub11
NA,html-keyboard-response,93,278490,0.0-10.0-0.38,"""event"",""trial"",""time""
""fullscreenenter"",""0"",""3172""
","
","
","""event"",""trial"",""time""
""fullscreenenter"",""0"",""3172""
","
",null,"<div style=""font-size:60px;"">+</div>",NA,null,fixation,2020-06-16T20:27:21Z,NA,NA,NA,NA,NA,sub11
NA,mars-trial,94,284514,0.0-10.0-1.38,"""event"",""trial"",""time""
""fullscreenenter"",""0"",""3172""
","
","
","""event"",""trial"",""time""
""fullscreenenter"",""0"",""3172""
","
",5421.000000000058,<img style='border: 4px solid darkgrey;' src='img/tf1_39_M_ss2.jpeg'></img>,2,NA,exp,NA,2,<img src='img/tf1_39_T1_ss2_md.jpeg'></img>,0,FALSE,NA,sub11
NA,html-keyboard-response,95,285015,0.0-10.0-0.39,"""event"",""trial"",""time""
""fullscreenenter"",""0"",""3172""
","
","
","""event"",""trial"",""time""
""fullscreenenter"",""0"",""3172""
","
",null,"<div style=""font-size:60px;"">+</div>",NA,null,fixation,2020-06-16T20:27:27Z,NA,NA,NA,NA,NA,sub11
NA,mars-trial,96,289171,0.0-10.0-1.39,"""event"",""trial"",""time""
""fullscreenenter"",""0"",""3172""
","
","
","""event"",""trial"",""time""
""fullscreenenter"",""0"",""3172""
","
",3554,<img style='border: 4px solid darkgrey;' src='img/tf1_40_M_ss3.jpeg'></img>,0,NA,exp,NA,3,<img src='img/tf1_40_T1_ss3_md.jpeg'></img>,0,FALSE,NA,sub11
NA,html-keyboard-response,97,289671,0.0-10.0-0.40,"""event"",""trial"",""time""
""fullscreenenter"",""0"",""3172""
","
","
","""event"",""trial"",""time""
""fullscreenenter"",""0"",""3172""
","
",null,"<div style=""font-size:60px;"">+</div>",NA,null,fixation,2020-06-16T20:27:32Z,NA,NA,NA,NA,NA,sub11
NA,mars-trial,98,293727,0.0-10.0-1.40,"""event"",""trial"",""time""
""fullscreenenter"",""0"",""3172""
","
","
","""event"",""trial"",""time""
""fullscreenenter"",""0"",""3172""
","
",3452,<img style='border: 4px solid darkgrey;' src='img/tf1_41_M_ss1.jpeg'></img>,1,NA,exp,NA,0,<img src='img/tf1_41_T1_ss1_md.jpeg'></img>,0,TRUE,NA,sub11
NA,html-keyboard-response,99,294227,0.0-10.0-0.41,"""event"",""trial"",""time""
""fullscreenenter"",""0"",""3172""
","
","
","""event"",""trial"",""time""
""fullscreenenter"",""0"",""3172""
","
",null,"<div style=""font-size:60px;"">+</div>",NA,null,fixation,2020-06-16T20:27:37Z,NA,NA,NA,NA,NA,sub11
NA,mars-trial,100,299093,0.0-10.0-1.41,"""event"",""trial"",""time""
""fullscreenenter"",""0"",""3172""
","
","
","""event"",""trial"",""time""
""fullscreenenter"",""0"",""3172""
","
",4263,<img style='border: 4px solid darkgrey;' src='img/tf1_42_M_ss2.jpeg'></img>,2,NA,exp,NA,1,<img src='img/tf1_42_T1_ss2_md.jpeg'></img>,0,FALSE,NA,sub11
NA,html-keyboard-response,101,299595,0.0-10.0-0.42,"""event"",""trial"",""time""
""fullscreenenter"",""0"",""3172""
","
","
","""event"",""trial"",""time""
""fullscreenenter"",""0"",""3172""
","
",null,"<div style=""font-size:60px;"">+</div>",NA,null,fixation,2020-06-16T20:27:42Z,NA,NA,NA,NA,NA,sub11
NA,mars-trial,102,312773,0.0-10.0-1.42,"""event"",""trial"",""time""
""fullscreenenter"",""0"",""3172""
","
","
","""event"",""trial"",""time""
""fullscreenenter"",""0"",""3172""
","
",12576,<img style='border: 4px solid darkgrey;' src='img/tf1_43_M_ss3.jpeg'></img>,1,NA,exp,NA,0,<img src='img/tf1_43_T1_ss3_md.jpeg'></img>,0,TRUE,NA,sub11
NA,html-keyboard-response,103,313274,0.0-10.0-0.43,"""event"",""trial"",""time""
""fullscreenenter"",""0"",""3172""
","
","
","""event"",""trial"",""time""
""fullscreenenter"",""0"",""3172""
","
",null,"<div style=""font-size:60px;"">+</div>",NA,null,fixation,2020-06-16T20:27:56Z,NA,NA,NA,NA,NA,sub11
NA,mars-trial,104,322022,0.0-10.0-1.43,"""event"",""trial"",""time""
""fullscreenenter"",""0"",""3172""
","
","
","""event"",""trial"",""time""
""fullscreenenter"",""0"",""3172""
","
",8143,<img style='border: 4px solid darkgrey;' src='img/tf1_44_M_ss1.jpeg'></img>,0,NA,exp,NA,3,<img src='img/tf1_44_T1_ss1_md.jpeg'></img>,0,FALSE,NA,sub11
NA,html-keyboard-response,105,322522,0.0-10.0-0.44,"""event"",""trial"",""time""
""fullscreenenter"",""0"",""3172""
","
","
","""event"",""trial"",""time""
""fullscreenenter"",""0"",""3172""
","
",null,"<div style=""font-size:60px;"">+</div>",NA,null,fixation,2020-06-16T20:28:05Z,NA,NA,NA,NA,NA,sub11
NA,mars-trial,106,331528,0.0-10.0-1.44,"""event"",""trial"",""time""
""fullscreenenter"",""0"",""3172""
","
","
","""event"",""trial"",""time""
""fullscreenenter"",""0"",""3172""
","
",8404,<img style='border: 4px solid darkgrey;' src='img/tf1_45_M_ss2.jpeg'></img>,1,NA,exp,NA,3,<img src='img/tf1_45_T1_ss2_md.jpeg'></img>,0,FALSE,NA,sub11
NA,html-keyboard-response,107,332030,0.0-10.0-0.45,"""event"",""trial"",""time""
""fullscreenenter"",""0"",""3172""
","
","
","""event"",""trial"",""time""
""fullscreenenter"",""0"",""3172""
","
",null,"<div style=""font-size:60px;"">+</div>",NA,null,fixation,2020-06-16T20:28:14Z,NA,NA,NA,NA,NA,sub11
NA,mars-trial,108,345613,0.0-10.0-1.45,"""event"",""trial"",""time""
""fullscreenenter"",""0"",""3172""
","
","
","""event"",""trial"",""time""
""fullscreenenter"",""0"",""3172""
","
",12980,<img style='border: 4px solid darkgrey;' src='img/tf1_46_M_ss3.jpeg'></img>,1,NA,exp,NA,1,<img src='img/tf1_46_T1_ss3_md.jpeg'></img>,0,FALSE,NA,sub11
NA,html-keyboard-response,109,346114,0.0-10.0-0.46,"""event"",""trial"",""time""
""fullscreenenter"",""0"",""3172""
","
","
","""event"",""trial"",""time""
""fullscreenenter"",""0"",""3172""
","
",null,"<div style=""font-size:60px;"">+</div>",NA,null,fixation,2020-06-16T20:28:29Z,NA,NA,NA,NA,NA,sub11
NA,mars-trial,110,361960,0.0-10.0-1.46,"""event"",""trial"",""time""
""fullscreenenter"",""0"",""3172""
","
","
","""event"",""trial"",""time""
""fullscreenenter"",""0"",""3172""
","
",15243.000000000058,<img style='border: 4px solid darkgrey;' src='img/tf1_47_M_ss1.jpeg'></img>,3,NA,exp,NA,2,<img src='img/tf1_47_T1_ss1_md.jpeg'></img>,0,FALSE,NA,sub11
NA,html-keyboard-response,111,362461,0.0-10.0-0.47,"""event"",""trial"",""time""
""fullscreenenter"",""0"",""3172""
","
","
","""event"",""trial"",""time""
""fullscreenenter"",""0"",""3172""
","
",null,"<div style=""font-size:60px;"">+</div>",NA,null,fixation,2020-06-16T20:28:45Z,NA,NA,NA,NA,NA,sub11
NA,mars-trial,112,369914,0.0-10.0-1.47,"""event"",""trial"",""time""
""fullscreenenter"",""0"",""3172""
","
","
","""event"",""trial"",""time""
""fullscreenenter"",""0"",""3172""
","
",6849,<img style='border: 4px solid darkgrey;' src='img/tf1_48_M_ss2.jpeg'></img>,3,NA,exp,NA,1,<img src='img/tf1_48_T1_ss2_md.jpeg'></img>,0,FALSE,NA,sub11
NA,html-keyboard-response,113,370415,0.0-10.0-0.48,"""event"",""trial"",""time""
""fullscreenenter"",""0"",""3172""
","
","
","""event"",""trial"",""time""
""fullscreenenter"",""0"",""3172""
","
",null,"<div style=""font-size:60px;"">+</div>",NA,null,fixation,2020-06-16T20:28:53Z,NA,NA,NA,NA,NA,sub11
NA,mars-trial,114,382716,0.0-10.0-1.48,"""event"",""trial"",""time""
""fullscreenenter"",""0"",""3172""
","
","
","""event"",""trial"",""time""
""fullscreenenter"",""0"",""3172""
","
",11699,<img style='border: 4px solid darkgrey;' src='img/tf1_49_M_ss3.jpeg'></img>,2,NA,exp,NA,0,<img src='img/tf1_49_T1_ss3_md.jpeg'></img>,0,TRUE,NA,sub11
NA,html-keyboard-response,115,383218,0.0-10.0-0.49,"""event"",""trial"",""time""
""fullscreenenter"",""0"",""3172""
","
","
","""event"",""trial"",""time""
""fullscreenenter"",""0"",""3172""
","
",null,"<div style=""font-size:60px;"">+</div>",NA,null,fixation,2020-06-16T20:29:06Z,NA,NA,NA,NA,NA,sub11
NA,mars-trial,116,393685,0.0-10.0-1.49,"""event"",""trial"",""time""
""fullscreenenter"",""0"",""3172""
","
","
","""event"",""trial"",""time""
""fullscreenenter"",""0"",""3172""
","
",9864.000000000058,<img style='border: 4px solid darkgrey;' src='img/tf1_50_M_ss1.jpeg'></img>,2,NA,exp,NA,2,<img src='img/tf1_50_T1_ss1_md.jpeg'></img>,0,FALSE,NA,sub11
NA,html-keyboard-response,117,394186,0.0-10.0-0.50,"""event"",""trial"",""time""
""fullscreenenter"",""0"",""3172""
","
","
","""event"",""trial"",""time""
""fullscreenenter"",""0"",""3172""
","
",null,"<div style=""font-size:60px;"">+</div>",NA,null,fixation,2020-06-16T20:29:17Z,NA,NA,NA,NA,NA,sub11
NA,mars-trial,118,399557,0.0-10.0-1.50,"""event"",""trial"",""time""
""fullscreenenter"",""0"",""3172""
","
","
","""event"",""trial"",""time""
""fullscreenenter"",""0"",""3172""
","
",4767,<img style='border: 4px solid darkgrey;' src='img/tf1_51_M_ss2.jpeg'></img>,3,NA,exp,NA,3,<img src='img/tf1_51_T1_ss2_md.jpeg'></img>,0,FALSE,NA,sub11
NA,html-keyboard-response,119,400058,0.0-10.0-0.51,"""event"",""trial"",""time""
""fullscreenenter"",""0"",""3172""
","
","
","""event"",""trial"",""time""
""fullscreenenter"",""0"",""3172""
","
",null,"<div style=""font-size:60px;"">+</div>",NA,null,fixation,2020-06-16T20:29:22Z,NA,NA,NA,NA,NA,sub11
NA,mars-trial,120,404170,0.0-10.0-1.51,"""event"",""trial"",""time""
""fullscreenenter"",""0"",""3172""
","
","
","""event"",""trial"",""time""
""fullscreenenter"",""0"",""3172""
","
",3510,<img style='border: 4px solid darkgrey;' src='img/tf1_52_M_ss3.jpeg'></img>,1,NA,exp,NA,2,<img src='img/tf1_52_T1_ss3_md.jpeg'></img>,0,FALSE,NA,sub11
NA,html-keyboard-response,121,404672,0.0-10.0-0.52,"""event"",""trial"",""time""
""fullscreenenter"",""0"",""3172""
","
","
","""event"",""trial"",""time""
""fullscreenenter"",""0"",""3172""
","
",null,"<div style=""font-size:60px;"">+</div>",NA,null,fixation,2020-06-16T20:29:27Z,NA,NA,NA,NA,NA,sub11
NA,mars-trial,122,409244,0.0-10.0-1.52,"""event"",""trial"",""time""
""fullscreenenter"",""0"",""3172""
","
","
","""event"",""trial"",""time""
""fullscreenenter"",""0"",""3172""
","
",3969,<img style='border: 4px solid darkgrey;' src='img/tf1_53_M_ss1.jpeg'></img>,2,NA,exp,NA,3,<img src='img/tf1_53_T1_ss1_md.jpeg'></img>,0,FALSE,NA,sub11
NA,html-keyboard-response,123,409745,0.0-10.0-0.53,"""event"",""trial"",""time""
""fullscreenenter"",""0"",""3172""
","
","
","""event"",""trial"",""time""
""fullscreenenter"",""0"",""3172""
","
",null,"<div style=""font-size:60px;"">+</div>",NA,null,fixation,2020-06-16T20:29:32Z,NA,NA,NA,NA,NA,sub11
NA,mars-trial,124,418187,0.0-10.0-1.53,"""event"",""trial"",""time""
""fullscreenenter"",""0"",""3172""
","
","
","""event"",""trial"",""time""
""fullscreenenter"",""0"",""3172""
","
",7839,<img style='border: 4px solid darkgrey;' src='img/tf1_54_M_ss2.jpeg'></img>,2,NA,exp,NA,1,<img src='img/tf1_54_T1_ss2_md.jpeg'></img>,0,FALSE,NA,sub11
NA,html-keyboard-response,125,418689,0.0-10.0-0.54,"""event"",""trial"",""time""
""fullscreenenter"",""0"",""3172""
","
","
","""event"",""trial"",""time""
""fullscreenenter"",""0"",""3172""
","
",null,"<div style=""font-size:60px;"">+</div>",NA,null,fixation,2020-06-16T20:29:41Z,NA,NA,NA,NA,NA,sub11
NA,mars-trial,126,425062,0.0-10.0-1.54,"""event"",""trial"",""time""
""fullscreenenter"",""0"",""3172""
","
","
","""event"",""trial"",""time""
""fullscreenenter"",""0"",""3172""
","
",5770,<img style='border: 4px solid darkgrey;' src='img/tf1_55_M_ss3.jpeg'></img>,1,NA,exp,NA,1,<img src='img/tf1_55_T1_ss3_md.jpeg'></img>,0,FALSE,NA,sub11
NA,html-keyboard-response,127,425563,0.0-10.0-0.55,"""event"",""trial"",""time""
""fullscreenenter"",""0"",""3172""
","
","
","""event"",""trial"",""time""
""fullscreenenter"",""0"",""3172""
","
",null,"<div style=""font-size:60px;"">+</div>",NA,null,fixation,2020-06-16T20:29:48Z,NA,NA,NA,NA,NA,sub11
NA,mars-trial,128,435242,0.0-10.0-1.55,"""event"",""trial"",""time""
""fullscreenenter"",""0"",""3172""
","
","
","""event"",""trial"",""time""
""fullscreenenter"",""0"",""3172""
","
",9078,<img style='border: 4px solid darkgrey;' src='img/tf1_56_M_ss1.jpeg'></img>,2,NA,exp,NA,3,<img src='img/tf1_56_T1_ss1_md.jpeg'></img>,0,FALSE,NA,sub11
NA,html-keyboard-response,129,435744,0.0-10.0-0.56,"""event"",""trial"",""time""
""fullscreenenter"",""0"",""3172""
","
","
","""event"",""trial"",""time""
""fullscreenenter"",""0"",""3172""
","
",null,"<div style=""font-size:60px;"">+</div>",NA,null,fixation,2020-06-16T20:29:58Z,NA,NA,NA,NA,NA,sub11
NA,mars-trial,130,445717,0.0-10.0-1.56,"""event"",""trial"",""time""
""fullscreenenter"",""0"",""3172""
","
","
","""event"",""trial"",""time""
""fullscreenenter"",""0"",""3172""
","
",9369,<img style='border: 4px solid darkgrey;' src='img/tf1_57_M_ss2.jpeg'></img>,0,NA,exp,NA,2,<img src='img/tf1_57_T1_ss2_md.jpeg'></img>,0,FALSE,NA,sub11
NA,html-keyboard-response,131,446219,0.0-10.0-0.57,"""event"",""trial"",""time""
""fullscreenenter"",""0"",""3172""
","
","
","""event"",""trial"",""time""
""fullscreenenter"",""0"",""3172""
","
",null,"<div style=""font-size:60px;"">+</div>",NA,null,fixation,2020-06-16T20:30:09Z,NA,NA,NA,NA,NA,sub11
NA,mars-trial,132,450667,0.0-10.0-1.57,"""event"",""trial"",""time""
""fullscreenenter"",""0"",""3172""
","
","
","""event"",""trial"",""time""
""fullscreenenter"",""0"",""3172""
","
",3844.999999999942,<img style='border: 4px solid darkgrey;' src='img/tf1_58_M_ss3.jpeg'></img>,3,NA,exp,NA,0,<img src='img/tf1_58_T1_ss3_md.jpeg'></img>,0,TRUE,NA,sub11
NA,html-keyboard-response,133,451168,0.0-10.0-0.58,"""event"",""trial"",""time""
""fullscreenenter"",""0"",""3172""
","
","
","""event"",""trial"",""time""
""fullscreenenter"",""0"",""3172""
","
",null,"<div style=""font-size:60px;"">+</div>",NA,null,fixation,2020-06-16T20:30:14Z,NA,NA,NA,NA,NA,sub11
NA,mars-trial,134,454492,0.0-10.0-1.58,"""event"",""trial"",""time""
""fullscreenenter"",""0"",""3172""
","
","
","""event"",""trial"",""time""
""fullscreenenter"",""0"",""3172""
","
",2721,<img style='border: 4px solid darkgrey;' src='img/tf1_59_M_ss1.jpeg'></img>,0,NA,exp,NA,3,<img src='img/tf1_59_T1_ss1_md.jpeg'></img>,0,FALSE,NA,sub11
NA,html-keyboard-response,135,454994,0.0-10.0-0.59,"""event"",""trial"",""time""
""fullscreenenter"",""0"",""3172""
","
","
","""event"",""trial"",""time""
""fullscreenenter"",""0"",""3172""
","
",null,"<div style=""font-size:60px;"">+</div>",NA,null,fixation,2020-06-16T20:30:17Z,NA,NA,NA,NA,NA,sub11
NA,mars-trial,136,457664,0.0-10.0-1.59,"""event"",""trial"",""time""
""fullscreenenter"",""0"",""3172""
","
","
","""event"",""trial"",""time""
""fullscreenenter"",""0"",""3172""
","
",2067,<img style='border: 4px solid darkgrey;' src='img/tf1_60_M_ss2.jpeg'></img>,2,NA,exp,NA,0,<img src='img/tf1_60_T1_ss2_md.jpeg'></img>,0,TRUE,NA,sub11
NA,html-keyboard-response,137,458165,0.0-10.0-0.60,"""event"",""trial"",""time""
""fullscreenenter"",""0"",""3172""
","
","
","""event"",""trial"",""time""
""fullscreenenter"",""0"",""3172""
","
",null,"<div style=""font-size:60px;"">+</div>",NA,null,fixation,2020-06-16T20:30:21Z,NA,NA,NA,NA,NA,sub11
NA,mars-trial,138,460757,0.0-10.0-1.60,"""event"",""trial"",""time""
""fullscreenenter"",""0"",""3172""
","
","
","""event"",""trial"",""time""
""fullscreenenter"",""0"",""3172""
","
",1989,<img style='border: 4px solid darkgrey;' src='img/tf1_61_M_ss3.jpeg'></img>,1,NA,exp,NA,0,<img src='img/tf1_61_T1_ss3_md.jpeg'></img>,0,TRUE,NA,sub11
NA,html-keyboard-response,139,461259,0.0-10.0-0.61,"""event"",""trial"",""time""
""fullscreenenter"",""0"",""3172""
","
","
","""event"",""trial"",""time""
""fullscreenenter"",""0"",""3172""
","
",null,"<div style=""font-size:60px;"">+</div>",NA,null,fixation,2020-06-16T20:30:24Z,NA,NA,NA,NA,NA,sub11
NA,mars-trial,140,463368,0.0-10.0-1.61,"""event"",""trial"",""time""
""fullscreenenter"",""0"",""3172""
","
","
","""event"",""trial"",""time""
""fullscreenenter"",""0"",""3172""
","
",1505,<img style='border: 4px solid darkgrey;' src='img/tf1_62_M_ss1.jpeg'></img>,2,NA,exp,NA,1,<img src='img/tf1_62_T1_ss1_md.jpeg'></img>,0,FALSE,NA,sub11
NA,html-keyboard-response,141,463869,0.0-10.0-0.62,"""event"",""trial"",""time""
""fullscreenenter"",""0"",""3172""
","
","
","""event"",""trial"",""time""
""fullscreenenter"",""0"",""3172""
","
",null,"<div style=""font-size:60px;"">+</div>",NA,null,fixation,2020-06-16T20:30:26Z,NA,NA,NA,NA,NA,sub11
NA,mars-trial,142,465810,0.0-10.0-1.62,"""event"",""trial"",""time""
""fullscreenenter"",""0"",""3172""
","
","
","""event"",""trial"",""time""
""fullscreenenter"",""0"",""3172""
","
",1338,<img style='border: 4px solid darkgrey;' src='img/tf1_63_M_ss2.jpeg'></img>,1,NA,exp,NA,3,<img src='img/tf1_63_T1_ss2_md.jpeg'></img>,0,FALSE,NA,sub11
NA,html-keyboard-response,143,466311,0.0-10.0-0.63,"""event"",""trial"",""time""
""fullscreenenter"",""0"",""3172""
","
","
","""event"",""trial"",""time""
""fullscreenenter"",""0"",""3172""
","
",null,"<div style=""font-size:60px;"">+</div>",NA,null,fixation,2020-06-16T20:30:29Z,NA,NA,NA,NA,NA,sub11
NA,mars-trial,144,469770,0.0-10.0-1.63,"""event"",""trial"",""time""
""fullscreenenter"",""0"",""3172""
","
","
","""event"",""trial"",""time""
""fullscreenenter"",""0"",""3172""
","
",2856,<img style='border: 4px solid darkgrey;' src='img/tf1_64_M_ss3.jpeg'></img>,3,NA,exp,NA,3,<img src='img/tf1_64_T1_ss3_md.jpeg'></img>,0,FALSE,NA,sub11
NA,html-keyboard-response,145,470271,0.0-10.0-0.64,"""event"",""trial"",""time""
""fullscreenenter"",""0"",""3172""
","
","
","""event"",""trial"",""time""
""fullscreenenter"",""0"",""3172""
","
",null,"<div style=""font-size:60px;"">+</div>",NA,null,fixation,2020-06-16T20:30:33Z,NA,NA,NA,NA,NA,sub11
NA,mars-trial,146,474742,0.0-10.0-1.64,"""event"",""trial"",""time""
""fullscreenenter"",""0"",""3172""
","
","
","""event"",""trial"",""time""
""fullscreenenter"",""0"",""3172""
","
",3867,<img style='border: 4px solid darkgrey;' src='img/tf1_65_M_ss1.jpeg'></img>,2,NA,exp,NA,3,<img src='img/tf1_65_T1_ss1_md.jpeg'></img>,0,FALSE,NA,sub11
NA,html-keyboard-response,147,475243,0.0-10.0-0.65,"""event"",""trial"",""time""
""fullscreenenter"",""0"",""3172""
","
","
","""event"",""trial"",""time""
""fullscreenenter"",""0"",""3172""
","
",null,"<div style=""font-size:60px;"">+</div>",NA,null,fixation,2020-06-16T20:30:38Z,NA,NA,NA,NA,NA,sub11
NA,mars-trial,148,487994,0.0-10.0-1.65,"""event"",""trial"",""time""
""fullscreenenter"",""0"",""3172""
","
","
","""event"",""trial"",""time""
""fullscreenenter"",""0"",""3172""
","
",12149,<img style='border: 4px solid darkgrey;' src='img/tf1_66_M_ss2.jpeg'></img>,2,NA,exp,NA,2,<img src='img/tf1_66_T1_ss2_md.jpeg'></img>,0,FALSE,NA,sub11
NA,html-keyboard-response,149,488496,0.0-10.0-0.66,"""event"",""trial"",""time""
""fullscreenenter"",""0"",""3172""
","
","
","""event"",""trial"",""time""
""fullscreenenter"",""0"",""3172""
","
",null,"<div style=""font-size:60px;"">+</div>",NA,null,fixation,2020-06-16T20:30:51Z,NA,NA,NA,NA,NA,sub11
NA,mars-trial,150,492574,0.0-10.0-1.66,"""event"",""trial"",""time""
""fullscreenenter"",""0"",""3172""
","
","
","""event"",""trial"",""time""
""fullscreenenter"",""0"",""3172""
","
",3475,<img style='border: 4px solid darkgrey;' src='img/tf1_67_M_ss3.jpeg'></img>,0,NA,exp,NA,1,<img src='img/tf1_67_T1_ss3_md.jpeg'></img>,0,FALSE,NA,sub11
NA,html-keyboard-response,151,493076,0.0-10.0-0.67,"""event"",""trial"",""time""
""fullscreenenter"",""0"",""3172""
","
","
","""event"",""trial"",""time""
""fullscreenenter"",""0"",""3172""
","
",null,"<div style=""font-size:60px;"">+</div>",NA,null,fixation,2020-06-16T20:30:56Z,NA,NA,NA,NA,NA,sub11
NA,mars-trial,152,495848,0.0-10.0-1.67,"""event"",""trial"",""time""
""fullscreenenter"",""0"",""3172""
","
","
","""event"",""trial"",""time""
""fullscreenenter"",""0"",""3172""
","
",2169,<img style='border: 4px solid darkgrey;' src='img/tf1_68_M_ss1.jpeg'></img>,3,NA,exp,NA,0,<img src='img/tf1_68_T1_ss1_md.jpeg'></img>,0,TRUE,NA,sub11
NA,html-keyboard-response,153,496350,0.0-10.0-0.68,"""event"",""trial"",""time""
""fullscreenenter"",""0"",""3172""
","
","
","""event"",""trial"",""time""
""fullscreenenter"",""0"",""3172""
","
",null,"<div style=""font-size:60px;"">+</div>",NA,null,fixation,2020-06-16T20:30:59Z,NA,NA,NA,NA,NA,sub11
NA,mars-trial,154,499324,0.0-10.0-1.68,"""event"",""trial"",""time""
""fullscreenenter"",""0"",""3172""
","
","
","""event"",""trial"",""time""
""fullscreenenter"",""0"",""3172""
","
",2371,<img style='border: 4px solid darkgrey;' src='img/tf1_69_M_ss2.jpeg'></img>,2,NA,exp,NA,2,<img src='img/tf1_69_T1_ss2_md.jpeg'></img>,0,FALSE,NA,sub11
NA,html-keyboard-response,155,499826,0.0-10.0-0.69,"""event"",""trial"",""time""
""fullscreenenter"",""0"",""3172""
","
","
","""event"",""trial"",""time""
""fullscreenenter"",""0"",""3172""
","
",null,"<div style=""font-size:60px;"">+</div>",NA,null,fixation,2020-06-16T20:31:02Z,NA,NA,NA,NA,NA,sub11
NA,mars-trial,156,510586,0.0-10.0-1.69,"""event"",""trial"",""time""
""fullscreenenter"",""0"",""3172""
","
","
","""event"",""trial"",""time""
""fullscreenenter"",""0"",""3172""
","
",10157.999999999942,<img style='border: 4px solid darkgrey;' src='img/tf1_70_M_ss3.jpeg'></img>,0,NA,exp,NA,3,<img src='img/tf1_70_T1_ss3_md.jpeg'></img>,0,FALSE,NA,sub11
NA,html-keyboard-response,157,511087,0.0-10.0-0.70,"""event"",""trial"",""time""
""fullscreenenter"",""0"",""3172""
","
","
","""event"",""trial"",""time""
""fullscreenenter"",""0"",""3172""
","
",null,"<div style=""font-size:60px;"">+</div>",NA,null,fixation,2020-06-16T20:31:14Z,NA,NA,NA,NA,NA,sub11
NA,mars-trial,158,513588,0.0-10.0-1.70,"""event"",""trial"",""time""
""fullscreenenter"",""0"",""3172""
","
","
","""event"",""trial"",""time""
""fullscreenenter"",""0"",""3172""
","
",1899,<img style='border: 4px solid darkgrey;' src='img/tf1_71_M_ss1.jpeg'></img>,3,NA,exp,NA,0,<img src='img/tf1_71_T1_ss1_md.jpeg'></img>,0,TRUE,NA,sub11
NA,html-keyboard-response,159,514089,0.0-10.0-0.71,"""event"",""trial"",""time""
""fullscreenenter"",""0"",""3172""
","
","
","""event"",""trial"",""time""
""fullscreenenter"",""0"",""3172""
","
",null,"<div style=""font-size:60px;"">+</div>",NA,null,fixation,2020-06-16T20:31:17Z,NA,NA,NA,NA,NA,sub11
NA,mars-trial,160,518325,0.0-10.0-1.71,"""event"",""trial"",""time""
""fullscreenenter"",""0"",""3172""
","
","
","""event"",""trial"",""time""
""fullscreenenter"",""0"",""3172""
","
",3634.000000000058,<img style='border: 4px solid darkgrey;' src='img/tf1_72_M_ss2.jpeg'></img>,0,NA,exp,NA,3,<img src='img/tf1_72_T1_ss2_md.jpeg'></img>,0,FALSE,NA,sub11
NA,html-keyboard-response,161,518826,0.0-10.0-0.72,"""event"",""trial"",""time""
""fullscreenenter"",""0"",""3172""
","
","
","""event"",""trial"",""time""
""fullscreenenter"",""0"",""3172""
","
",null,"<div style=""font-size:60px;"">+</div>",NA,null,fixation,2020-06-16T20:31:21Z,NA,NA,NA,NA,NA,sub11
NA,mars-trial,162,522004,0.0-10.0-1.72,"""event"",""trial"",""time""
""fullscreenenter"",""0"",""3172""
","
","
","""event"",""trial"",""time""
""fullscreenenter"",""0"",""3172""
","
",2576,<img style='border: 4px solid darkgrey;' src='img/tf1_73_M_ss3.jpeg'></img>,2,NA,exp,NA,3,<img src='img/tf1_73_T1_ss3_md.jpeg'></img>,0,FALSE,NA,sub11
NA,html-keyboard-response,163,522506,0.0-10.0-0.73,"""event"",""trial"",""time""
""fullscreenenter"",""0"",""3172""
","
","
","""event"",""trial"",""time""
""fullscreenenter"",""0"",""3172""
","
",null,"<div style=""font-size:60px;"">+</div>",NA,null,fixation,2020-06-16T20:31:25Z,NA,NA,NA,NA,NA,sub11
NA,mars-trial,164,531150,0.0-10.0-1.73,"""event"",""trial"",""time""
""fullscreenenter"",""0"",""3172""
","
","
","""event"",""trial"",""time""
""fullscreenenter"",""0"",""3172""
","
",8042,<img style='border: 4px solid darkgrey;' src='img/tf1_74_M_ss1.jpeg'></img>,0,NA,exp,NA,1,<img src='img/tf1_74_T1_ss1_md.jpeg'></img>,0,FALSE,NA,sub11
NA,html-keyboard-response,165,531651,0.0-10.0-0.74,"""event"",""trial"",""time""
""fullscreenenter"",""0"",""3172""
","
","
","""event"",""trial"",""time""
""fullscreenenter"",""0"",""3172""
","
",null,"<div style=""font-size:60px;"">+</div>",NA,null,fixation,2020-06-16T20:31:34Z,NA,NA,NA,NA,NA,sub11
NA,mars-trial,166,543166,0.0-10.0-1.74,"""event"",""trial"",""time""
""fullscreenenter"",""0"",""3172""
","
","
","""event"",""trial"",""time""
""fullscreenenter"",""0"",""3172""
","
",10913,<img style='border: 4px solid darkgrey;' src='img/tf1_75_M_ss2.jpeg'></img>,0,NA,exp,NA,2,<img src='img/tf1_75_T1_ss2_md.jpeg'></img>,0,FALSE,NA,sub11
NA,html-keyboard-response,167,543667,0.0-10.0-0.75,"""event"",""trial"",""time""
""fullscreenenter"",""0"",""3172""
","
","
","""event"",""trial"",""time""
""fullscreenenter"",""0"",""3172""
","
",null,"<div style=""font-size:60px;"">+</div>",NA,null,fixation,2020-06-16T20:31:46Z,NA,NA,NA,NA,NA,sub11
NA,mars-trial,168,547183,0.0-10.0-1.75,"""event"",""trial"",""time""
""fullscreenenter"",""0"",""3172""
","
","
","""event"",""trial"",""time""
""fullscreenenter"",""0"",""3172""
","
",2913,<img style='border: 4px solid darkgrey;' src='img/tf1_76_M_ss3.jpeg'></img>,0,NA,exp,NA,2,<img src='img/tf1_76_T1_ss3_md.jpeg'></img>,0,FALSE,NA,sub11
NA,html-keyboard-response,169,547683,0.0-10.0-0.76,"""event"",""trial"",""time""
""fullscreenenter"",""0"",""3172""
","
","
","""event"",""trial"",""time""
""fullscreenenter"",""0"",""3172""
","
",null,"<div style=""font-size:60px;"">+</div>",NA,null,fixation,2020-06-16T20:31:50Z,NA,NA,NA,NA,NA,sub11
NA,mars-trial,170,548072,0.0-10.0-1.76,"""event"",""trial"",""time""
""fullscreenenter"",""0"",""3172""
","
","
","""event"",""trial"",""time""
""fullscreenenter"",""0"",""3172""
","
",NA,NA,NA,NA,exp,NA,NA,<img src='img/tf1_77_T1_ss1_md.jpeg'></img>,0,FALSE,NA,sub11
NA,html-keyboard-response,171,548573,0.0-10.0-0.77,"""event"",""trial"",""time""
""fullscreenenter"",""0"",""3172""
","
","
","""event"",""trial"",""time""
""fullscreenenter"",""0"",""3172""
","
",null,"<div style=""font-size:60px;"">+</div>",NA,null,fixation,2020-06-16T20:31:51Z,NA,NA,NA,NA,NA,sub11
NA,audio-button-response,172,551946,0.0-11.0,"""event"",""trial"",""time""
""fullscreenenter"",""0"",""3172""
","
","
","""event"",""trial"",""time""
""fullscreenenter"",""0"",""3172""
","
",3272,audio/mars_instructions_slide5.wav,0,NA,NA,NA,NA,NA,NA,NA,NA,sub11
