success,trial_type,trial_index,time_elapsed,internal_node_id,interactions,blur_events,focus_events,fullscreenenter_events,fullscreenexit_events,rt,stimulus,button_pressed,key_press,part,timestamp,unshuffled_button,correct_response,correct_button,correct,value,subject_id
TRUE,fullscreen,0,6964,0.0-0.0,"""event"",""trial"",""time""
""fullscreenenter"",""0"",""5990""
","
","
","""event"",""trial"",""time""
""fullscreenenter"",""0"",""5990""
","
",NA,NA,NA,NA,NA,NA,NA,NA,NA,NA,NA,sub32
NA,pavlovia,1,6980,0.0-1.0,"""event"",""trial"",""time""
""fullscreenenter"",""0"",""5990""
","
","
","""event"",""trial"",""time""
""fullscreenenter"",""0"",""5990""
","
",NA,NA,NA,NA,NA,NA,NA,NA,NA,NA,NA,sub32
NA,html-button-response,2,23068,0.0-2.0,"""event"",""trial"",""time""
""fullscreenenter"",""0"",""5990""
","
","
","""event"",""trial"",""time""
""fullscreenenter"",""0"",""5990""
","
",16083.725000004051,<p>Welcome! Press START to begin.</p><br>,0,NA,NA,NA,NA,NA,NA,NA,NA,sub32
NA,audio-button-response,3,42528,0.0-3.0,"""event"",""trial"",""time""
""fullscreenenter"",""0"",""5990""
","
","
","""event"",""trial"",""time""
""fullscreenenter"",""0"",""5990""
","
",19452.43499999924,audio/mars_instructions_slide2.wav,0,NA,NA,NA,NA,NA,NA,NA,NA,sub32
NA,audio-button-response,4,109295,0.0-4.0,"""event"",""trial"",""time""
""fullscreenenter"",""0"",""5990""
","
","
","""event"",""trial"",""time""
""fullscreenenter"",""0"",""5990""
","
",66766.66999999725,audio/mars_instructions_slide3.wav,0,NA,NA,NA,NA,NA,NA,NA,NA,sub32
NA,html-keyboard-response,5,109800,0.0-5.0-0.0,"""event"",""trial"",""time""
""fullscreenenter"",""0"",""5990""
","
","
","""event"",""trial"",""time""
""fullscreenenter"",""0"",""5990""
","
",null,"<div style=""font-size:60px;"">+</div>",NA,null,fixation,2020-06-29T01:19:17Z,NA,NA,NA,NA,NA,sub32
NA,mars-trial,6,116580,0.0-5.0-1.0,"""event"",""trial"",""time""
""fullscreenenter"",""0"",""5990""
","
","
","""event"",""trial"",""time""
""fullscreenenter"",""0"",""5990""
","
",4653.875000003609,<img style='border: 4px solid darkgrey;' src='practice/pt1_M1.png'></img>,1,NA,practice,NA,3,<img src='practice/pt1_T1.png'></img>,0,FALSE,NA,sub32
NA,html-keyboard-response,7,117090,0.0-5.1-0.1,"""event"",""trial"",""time""
""fullscreenenter"",""0"",""5990""
","
","
","""event"",""trial"",""time""
""fullscreenenter"",""0"",""5990""
","
",null,"<div style=""font-size:60px;"">+</div>",NA,null,fixation,2020-06-29T01:19:24Z,NA,NA,NA,NA,NA,sub32
NA,mars-trial,8,123646,0.0-5.1-1.1,"""event"",""trial"",""time""
""fullscreenenter"",""0"",""5990""
","
","
","""event"",""trial"",""time""
""fullscreenenter"",""0"",""5990""
","
",4440.184999999474,<img style='border: 4px solid darkgrey;' src='practice/pt1_M1.png'></img>,1,NA,practice,NA,0,<img src='practice/pt1_T1.png'></img>,0,TRUE,NA,sub32
NA,html-keyboard-response,9,124157,0.0-6.0-0.0,"""event"",""trial"",""time""
""fullscreenenter"",""0"",""5990""
","
","
","""event"",""trial"",""time""
""fullscreenenter"",""0"",""5990""
","
",null,"<div style=""font-size:60px;"">+</div>",NA,null,fixation,2020-06-29T01:19:31Z,NA,NA,NA,NA,NA,sub32
NA,mars-trial,10,129719,0.0-6.0-1.0,"""event"",""trial"",""time""
""fullscreenenter"",""0"",""5990""
","
","
","""event"",""trial"",""time""
""fullscreenenter"",""0"",""5990""
","
",3447.4150000023656,<img style='border: 4px solid darkgrey;' src='practice/pt2_M1.png'></img>,1,NA,practice,NA,0,<img src='practice/pt2_T1.png'></img>,0,TRUE,NA,sub32
NA,html-keyboard-response,11,130230,0.0-7.0-0.0,"""event"",""trial"",""time""
""fullscreenenter"",""0"",""5990""
","
","
","""event"",""trial"",""time""
""fullscreenenter"",""0"",""5990""
","
",null,"<div style=""font-size:60px;"">+</div>",NA,null,fixation,2020-06-29T01:19:37Z,NA,NA,NA,NA,NA,sub32
NA,mars-trial,12,135000,0.0-7.0-1.0,"""event"",""trial"",""time""
""fullscreenenter"",""0"",""5990""
","
","
","""event"",""trial"",""time""
""fullscreenenter"",""0"",""5990""
","
",2649.4850000017323,<img style='border: 4px solid darkgrey;' src='practice/pt3_M1.png'></img>,2,NA,practice,NA,0,<img src='practice/pt3_T1.png'></img>,0,TRUE,NA,sub32
NA,audio-button-response,13,139245,0.0-8.0,"""event"",""trial"",""time""
""fullscreenenter"",""0"",""5990""
","
","
","""event"",""trial"",""time""
""fullscreenenter"",""0"",""5990""
","
",4240.470000004279,audio/mars_instructions_slide4.wav,0,NA,NA,NA,NA,NA,NA,NA,NA,sub32
NA,call-function,14,139247,0.0-9.0,"""event"",""trial"",""time""
""fullscreenenter"",""0"",""5990""
","
","
","""event"",""trial"",""time""
""fullscreenenter"",""0"",""5990""
","
",NA,NA,NA,NA,NA,NA,NA,NA,NA,NA,NA,sub32
NA,html-keyboard-response,15,139757,0.0-10.0-0.0,"""event"",""trial"",""time""
""fullscreenenter"",""0"",""5990""
","
","
","""event"",""trial"",""time""
""fullscreenenter"",""0"",""5990""
","
",null,"<div style=""font-size:60px;"">+</div>",NA,null,fixation,2020-06-29T01:19:47Z,NA,NA,NA,NA,NA,sub32
NA,mars-trial,16,142198,0.0-10.0-1.0,"""event"",""trial"",""time""
""fullscreenenter"",""0"",""5990""
","
","
","""event"",""trial"",""time""
""fullscreenenter"",""0"",""5990""
","
",1819.294999993872,<img style='border: 4px solid darkgrey;' src='img/tf1_1_M_ss3.jpeg'></img>,3,NA,exp,NA,0,<img src='img/tf1_1_T1_ss3_md.jpeg'></img>,0,TRUE,NA,sub32
NA,html-keyboard-response,17,142704,0.0-10.0-0.1,"""event"",""trial"",""time""
""fullscreenenter"",""0"",""5990""
","
","
","""event"",""trial"",""time""
""fullscreenenter"",""0"",""5990""
","
",null,"<div style=""font-size:60px;"">+</div>",NA,null,fixation,2020-06-29T01:19:49Z,NA,NA,NA,NA,NA,sub32
NA,mars-trial,18,145720,0.0-10.0-1.1,"""event"",""trial"",""time""
""fullscreenenter"",""0"",""5990""
","
","
","""event"",""trial"",""time""
""fullscreenenter"",""0"",""5990""
","
",2391.9349999923725,<img style='border: 4px solid darkgrey;' src='img/tf1_2_M_ss1.jpeg'></img>,2,NA,exp,NA,0,<img src='img/tf1_2_T1_ss1_md.jpeg'></img>,0,TRUE,NA,sub32
NA,html-keyboard-response,19,146228,0.0-10.0-0.2,"""event"",""trial"",""time""
""fullscreenenter"",""0"",""5990""
","
","
","""event"",""trial"",""time""
""fullscreenenter"",""0"",""5990""
","
",null,"<div style=""font-size:60px;"">+</div>",NA,null,fixation,2020-06-29T01:19:53Z,NA,NA,NA,NA,NA,sub32
NA,mars-trial,20,149469,0.0-10.0-1.2,"""event"",""trial"",""time""
""fullscreenenter"",""0"",""5990""
","
","
","""event"",""trial"",""time""
""fullscreenenter"",""0"",""5990""
","
",2621.500000008382,<img style='border: 4px solid darkgrey;' src='img/tf1_3_M_ss2.jpeg'></img>,1,NA,exp,NA,0,<img src='img/tf1_3_T1_ss2_md.jpeg'></img>,0,TRUE,NA,sub32
NA,html-keyboard-response,21,149980,0.0-10.0-0.3,"""event"",""trial"",""time""
""fullscreenenter"",""0"",""5990""
","
","
","""event"",""trial"",""time""
""fullscreenenter"",""0"",""5990""
","
",null,"<div style=""font-size:60px;"">+</div>",NA,null,fixation,2020-06-29T01:19:57Z,NA,NA,NA,NA,NA,sub32
NA,mars-trial,22,154847,0.0-10.0-1.3,"""event"",""trial"",""time""
""fullscreenenter"",""0"",""5990""
","
","
","""event"",""trial"",""time""
""fullscreenenter"",""0"",""5990""
","
",4243.640000000596,<img style='border: 4px solid darkgrey;' src='img/tf1_4_M_ss3.jpeg'></img>,3,NA,exp,NA,0,<img src='img/tf1_4_T1_ss3_md.jpeg'></img>,0,TRUE,NA,sub32
NA,html-keyboard-response,23,155354,0.0-10.0-0.4,"""event"",""trial"",""time""
""fullscreenenter"",""0"",""5990""
","
","
","""event"",""trial"",""time""
""fullscreenenter"",""0"",""5990""
","
",null,"<div style=""font-size:60px;"">+</div>",NA,null,fixation,2020-06-29T01:20:02Z,NA,NA,NA,NA,NA,sub32
NA,mars-trial,24,158849,0.0-10.0-1.4,"""event"",""trial"",""time""
""fullscreenenter"",""0"",""5990""
","
","
","""event"",""trial"",""time""
""fullscreenenter"",""0"",""5990""
","
",2873.9950000017416,<img style='border: 4px solid darkgrey;' src='img/tf1_5_M_ss1.jpeg'></img>,2,NA,exp,NA,0,<img src='img/tf1_5_T1_ss1_md.jpeg'></img>,0,TRUE,NA,sub32
NA,html-keyboard-response,25,159358,0.0-10.0-0.5,"""event"",""trial"",""time""
""fullscreenenter"",""0"",""5990""
","
","
","""event"",""trial"",""time""
""fullscreenenter"",""0"",""5990""
","
",null,"<div style=""font-size:60px;"">+</div>",NA,null,fixation,2020-06-29T01:20:06Z,NA,NA,NA,NA,NA,sub32
NA,mars-trial,26,164291,0.0-10.0-1.5,"""event"",""trial"",""time""
""fullscreenenter"",""0"",""5990""
","
","
","""event"",""trial"",""time""
""fullscreenenter"",""0"",""5990""
","
",4317.27499999397,<img style='border: 4px solid darkgrey;' src='img/tf1_6_M_ss2.jpeg'></img>,0,NA,exp,NA,2,<img src='img/tf1_6_T1_ss2_md.jpeg'></img>,0,FALSE,NA,sub32
NA,html-keyboard-response,27,164800,0.0-10.0-0.6,"""event"",""trial"",""time""
""fullscreenenter"",""0"",""5990""
","
","
","""event"",""trial"",""time""
""fullscreenenter"",""0"",""5990""
","
",null,"<div style=""font-size:60px;"">+</div>",NA,null,fixation,2020-06-29T01:20:12Z,NA,NA,NA,NA,NA,sub32
NA,mars-trial,28,175740,0.0-10.0-1.6,"""event"",""trial"",""time""
""fullscreenenter"",""0"",""5990""
","
","
","""event"",""trial"",""time""
""fullscreenenter"",""0"",""5990""
","
",10321.91500000772,<img style='border: 4px solid darkgrey;' src='img/tf1_7_M_ss3.jpeg'></img>,1,NA,exp,NA,0,<img src='img/tf1_7_T1_ss3_md.jpeg'></img>,0,TRUE,NA,sub32
NA,html-keyboard-response,29,176251,0.0-10.0-0.7,"""event"",""trial"",""time""
""fullscreenenter"",""0"",""5990""
","
","
","""event"",""trial"",""time""
""fullscreenenter"",""0"",""5990""
","
",null,"<div style=""font-size:60px;"">+</div>",NA,null,fixation,2020-06-29T01:20:23Z,NA,NA,NA,NA,NA,sub32
NA,mars-trial,30,182516,0.0-10.0-1.7,"""event"",""trial"",""time""
""fullscreenenter"",""0"",""5990""
","
","
","""event"",""trial"",""time""
""fullscreenenter"",""0"",""5990""
","
",5650.834999993094,<img style='border: 4px solid darkgrey;' src='img/tf1_8_M_ss1.jpeg'></img>,3,NA,exp,NA,0,<img src='img/tf1_8_T1_ss1_md.jpeg'></img>,0,TRUE,NA,sub32
NA,html-keyboard-response,31,183021,0.0-10.0-0.8,"""event"",""trial"",""time""
""fullscreenenter"",""0"",""5990""
","
","
","""event"",""trial"",""time""
""fullscreenenter"",""0"",""5990""
","
",null,"<div style=""font-size:60px;"">+</div>",NA,null,fixation,2020-06-29T01:20:30Z,NA,NA,NA,NA,NA,sub32
NA,mars-trial,32,202273,0.0-10.0-1.8,"""event"",""trial"",""time""
""fullscreenenter"",""0"",""5990""
","
","
","""event"",""trial"",""time""
""fullscreenenter"",""0"",""5990""
","
",18635.169999994105,<img style='border: 4px solid darkgrey;' src='img/tf1_9_M_ss2.jpeg'></img>,1,NA,exp,NA,0,<img src='img/tf1_9_T1_ss2_md.jpeg'></img>,0,TRUE,NA,sub32
NA,html-keyboard-response,33,202777,0.0-10.0-0.9,"""event"",""trial"",""time""
""fullscreenenter"",""0"",""5990""
","
","
","""event"",""trial"",""time""
""fullscreenenter"",""0"",""5990""
","
",null,"<div style=""font-size:60px;"">+</div>",NA,null,fixation,2020-06-29T01:20:50Z,NA,NA,NA,NA,NA,sub32
NA,mars-trial,34,216140,0.0-10.0-1.9,"""event"",""trial"",""time""
""fullscreenenter"",""0"",""5990""
","
","
","""event"",""trial"",""time""
""fullscreenenter"",""0"",""5990""
","
",12746.5200000006,<img style='border: 4px solid darkgrey;' src='img/tf1_10_M_ss3.jpeg'></img>,2,NA,exp,NA,1,<img src='img/tf1_10_T1_ss3_md.jpeg'></img>,0,FALSE,NA,sub32
NA,html-keyboard-response,35,216643,0.0-10.0-0.10,"""event"",""trial"",""time""
""fullscreenenter"",""0"",""5990""
","
","
","""event"",""trial"",""time""
""fullscreenenter"",""0"",""5990""
","
",null,"<div style=""font-size:60px;"">+</div>",NA,null,fixation,2020-06-29T01:21:03Z,NA,NA,NA,NA,NA,sub32
NA,mars-trial,36,232004,0.0-10.0-1.10,"""event"",""trial"",""time""
""fullscreenenter"",""0"",""5990""
","
","
","""event"",""trial"",""time""
""fullscreenenter"",""0"",""5990""
","
",14736.600000003818,<img style='border: 4px solid darkgrey;' src='img/tf1_11_M_ss1.jpeg'></img>,2,NA,exp,NA,1,<img src='img/tf1_11_T1_ss1_md.jpeg'></img>,0,FALSE,NA,sub32
NA,html-keyboard-response,37,232519,0.0-10.0-0.11,"""event"",""trial"",""time""
""fullscreenenter"",""0"",""5990""
","
","
","""event"",""trial"",""time""
""fullscreenenter"",""0"",""5990""
","
",null,"<div style=""font-size:60px;"">+</div>",NA,null,fixation,2020-06-29T01:21:19Z,NA,NA,NA,NA,NA,sub32
NA,mars-trial,38,241879,0.0-10.0-1.11,"""event"",""trial"",""time""
""fullscreenenter"",""0"",""5990""
","
","
","""event"",""trial"",""time""
""fullscreenenter"",""0"",""5990""
","
",8737.47999999614,<img style='border: 4px solid darkgrey;' src='img/tf1_12_M_ss2.jpeg'></img>,0,NA,exp,NA,3,<img src='img/tf1_12_T1_ss2_md.jpeg'></img>,0,FALSE,NA,sub32
NA,html-keyboard-response,39,242390,0.0-10.0-0.12,"""event"",""trial"",""time""
""fullscreenenter"",""0"",""5990""
","
","
","""event"",""trial"",""time""
""fullscreenenter"",""0"",""5990""
","
",null,"<div style=""font-size:60px;"">+</div>",NA,null,fixation,2020-06-29T01:21:29Z,NA,NA,NA,NA,NA,sub32
NA,mars-trial,40,254682,0.0-10.0-1.12,"""event"",""trial"",""time""
""fullscreenenter"",""0"",""5990""
","
","
","""event"",""trial"",""time""
""fullscreenenter"",""0"",""5990""
","
",11678.409999993164,<img style='border: 4px solid darkgrey;' src='img/tf1_13_M_ss3.jpeg'></img>,2,NA,exp,NA,2,<img src='img/tf1_13_T1_ss3_md.jpeg'></img>,0,FALSE,NA,sub32
NA,html-keyboard-response,41,255193,0.0-10.0-0.13,"""event"",""trial"",""time""
""fullscreenenter"",""0"",""5990""
","
","
","""event"",""trial"",""time""
""fullscreenenter"",""0"",""5990""
","
",null,"<div style=""font-size:60px;"">+</div>",NA,null,fixation,2020-06-29T01:21:42Z,NA,NA,NA,NA,NA,sub32
NA,mars-trial,42,264571,0.0-10.0-1.13,"""event"",""trial"",""time""
""fullscreenenter"",""0"",""5990""
","
","
","""event"",""trial"",""time""
""fullscreenenter"",""0"",""5990""
","
",8755.494999990333,<img style='border: 4px solid darkgrey;' src='img/tf1_14_M_ss1.jpeg'></img>,2,NA,exp,NA,1,<img src='img/tf1_14_T1_ss1_md.jpeg'></img>,0,FALSE,NA,sub32
NA,html-keyboard-response,43,265083,0.0-10.0-0.14,"""event"",""trial"",""time""
""fullscreenenter"",""0"",""5990""
","
","
","""event"",""trial"",""time""
""fullscreenenter"",""0"",""5990""
","
",null,"<div style=""font-size:60px;"">+</div>",NA,null,fixation,2020-06-29T01:21:52Z,NA,NA,NA,NA,NA,sub32
NA,mars-trial,44,267020,0.0-10.0-1.14,"""event"",""trial"",""time""
""fullscreenenter"",""0"",""5990""
","
","
","""event"",""trial"",""time""
""fullscreenenter"",""0"",""5990""
","
",1320.274999990943,<img style='border: 4px solid darkgrey;' src='img/tf1_15_M_ss2.jpeg'></img>,1,NA,exp,NA,0,<img src='img/tf1_15_T1_ss2_md.jpeg'></img>,0,TRUE,NA,sub32
NA,html-keyboard-response,45,267523,0.0-10.0-0.15,"""event"",""trial"",""time""
""fullscreenenter"",""0"",""5990""
","
","
","""event"",""trial"",""time""
""fullscreenenter"",""0"",""5990""
","
",null,"<div style=""font-size:60px;"">+</div>",NA,null,fixation,2020-06-29T01:21:54Z,NA,NA,NA,NA,NA,sub32
NA,mars-trial,46,269212,0.0-10.0-1.15,"""event"",""trial"",""time""
""fullscreenenter"",""0"",""5990""
","
","
","""event"",""trial"",""time""
""fullscreenenter"",""0"",""5990""
","
",1070.1149999949848,<img style='border: 4px solid darkgrey;' src='img/tf1_16_M_ss3.jpeg'></img>,3,NA,exp,NA,0,<img src='img/tf1_16_T1_ss3_md.jpeg'></img>,0,TRUE,NA,sub32
NA,html-keyboard-response,47,269719,0.0-10.0-0.16,"""event"",""trial"",""time""
""fullscreenenter"",""0"",""5990""
","
","
","""event"",""trial"",""time""
""fullscreenenter"",""0"",""5990""
","
",null,"<div style=""font-size:60px;"">+</div>",NA,null,fixation,2020-06-29T01:21:57Z,NA,NA,NA,NA,NA,sub32
NA,mars-trial,48,271096,0.0-10.0-1.16,"""event"",""trial"",""time""
""fullscreenenter"",""0"",""5990""
","
","
","""event"",""trial"",""time""
""fullscreenenter"",""0"",""5990""
","
",759.6300000004703,<img style='border: 4px solid darkgrey;' src='img/tf1_17_M_ss1.jpeg'></img>,2,NA,exp,NA,3,<img src='img/tf1_17_T1_ss1_md.jpeg'></img>,0,FALSE,NA,sub32
NA,html-keyboard-response,49,271599,0.0-10.0-0.17,"""event"",""trial"",""time""
""fullscreenenter"",""0"",""5990""
","
","
","""event"",""trial"",""time""
""fullscreenenter"",""0"",""5990""
","
",null,"<div style=""font-size:60px;"">+</div>",NA,null,fixation,2020-06-29T01:21:58Z,NA,NA,NA,NA,NA,sub32
NA,mars-trial,50,272881,0.0-10.0-1.17,"""event"",""trial"",""time""
""fullscreenenter"",""0"",""5990""
","
","
","""event"",""trial"",""time""
""fullscreenenter"",""0"",""5990""
","
",663.3650000003399,<img style='border: 4px solid darkgrey;' src='img/tf1_18_M_ss2.jpeg'></img>,1,NA,exp,NA,2,<img src='img/tf1_18_T1_ss2_md.jpeg'></img>,0,FALSE,NA,sub32
NA,html-keyboard-response,51,273392,0.0-10.0-0.18,"""event"",""trial"",""time""
""fullscreenenter"",""0"",""5990""
","
","
","""event"",""trial"",""time""
""fullscreenenter"",""0"",""5990""
","
",null,"<div style=""font-size:60px;"">+</div>",NA,null,fixation,2020-06-29T01:22:00Z,NA,NA,NA,NA,NA,sub32
NA,mars-trial,52,274561,0.0-10.0-1.18,"""event"",""trial"",""time""
""fullscreenenter"",""0"",""5990""
","
","
","""event"",""trial"",""time""
""fullscreenenter"",""0"",""5990""
","
",552.4700000096345,<img style='border: 4px solid darkgrey;' src='img/tf1_19_M_ss3.jpeg'></img>,2,NA,exp,NA,0,<img src='img/tf1_19_T1_ss3_md.jpeg'></img>,0,TRUE,NA,sub32
NA,html-keyboard-response,53,275064,0.0-10.0-0.19,"""event"",""trial"",""time""
""fullscreenenter"",""0"",""5990""
","
","
","""event"",""trial"",""time""
""fullscreenenter"",""0"",""5990""
","
",null,"<div style=""font-size:60px;"">+</div>",NA,null,fixation,2020-06-29T01:22:02Z,NA,NA,NA,NA,NA,sub32
NA,mars-trial,54,276377,0.0-10.0-1.19,"""event"",""trial"",""time""
""fullscreenenter"",""0"",""5990""
","
","
","""event"",""trial"",""time""
""fullscreenenter"",""0"",""5990""
","
",694.1399999923306,<img style='border: 4px solid darkgrey;' src='img/tf1_20_M_ss1.jpeg'></img>,1,NA,exp,NA,3,<img src='img/tf1_20_T1_ss1_md.jpeg'></img>,0,FALSE,NA,sub32
NA,html-keyboard-response,55,276881,0.0-10.0-0.20,"""event"",""trial"",""time""
""fullscreenenter"",""0"",""5990""
","
","
","""event"",""trial"",""time""
""fullscreenenter"",""0"",""5990""
","
",null,"<div style=""font-size:60px;"">+</div>",NA,null,fixation,2020-06-29T01:22:04Z,NA,NA,NA,NA,NA,sub32
NA,mars-trial,56,278786,0.0-10.0-1.20,"""event"",""trial"",""time""
""fullscreenenter"",""0"",""5990""
","
","
","""event"",""trial"",""time""
""fullscreenenter"",""0"",""5990""
","
",1287.5549999880604,<img style='border: 4px solid darkgrey;' src='img/tf1_21_M_ss2.jpeg'></img>,3,NA,exp,NA,0,<img src='img/tf1_21_T1_ss2_md.jpeg'></img>,0,TRUE,NA,sub32
NA,html-keyboard-response,57,279289,0.0-10.0-0.21,"""event"",""trial"",""time""
""fullscreenenter"",""0"",""5990""
","
","
","""event"",""trial"",""time""
""fullscreenenter"",""0"",""5990""
","
",null,"<div style=""font-size:60px;"">+</div>",NA,null,fixation,2020-06-29T01:22:06Z,NA,NA,NA,NA,NA,sub32
NA,mars-trial,58,281154,0.0-10.0-1.21,"""event"",""trial"",""time""
""fullscreenenter"",""0"",""5990""
","
","
","""event"",""trial"",""time""
""fullscreenenter"",""0"",""5990""
","
",1251.6199999954551,<img style='border: 4px solid darkgrey;' src='img/tf1_22_M_ss3.jpeg'></img>,2,NA,exp,NA,2,<img src='img/tf1_22_T1_ss3_md.jpeg'></img>,0,FALSE,NA,sub32
NA,html-keyboard-response,59,281658,0.0-10.0-0.22,"""event"",""trial"",""time""
""fullscreenenter"",""0"",""5990""
","
","
","""event"",""trial"",""time""
""fullscreenenter"",""0"",""5990""
","
",null,"<div style=""font-size:60px;"">+</div>",NA,null,fixation,2020-06-29T01:22:08Z,NA,NA,NA,NA,NA,sub32
NA,mars-trial,60,284435,0.0-10.0-1.22,"""event"",""trial"",""time""
""fullscreenenter"",""0"",""5990""
","
","
","""event"",""trial"",""time""
""fullscreenenter"",""0"",""5990""
","
",2163.715000002412,<img style='border: 4px solid darkgrey;' src='img/tf1_23_M_ss1.jpeg'></img>,1,NA,exp,NA,1,<img src='img/tf1_23_T1_ss1_md.jpeg'></img>,0,FALSE,NA,sub32
NA,html-keyboard-response,61,284939,0.0-10.0-0.23,"""event"",""trial"",""time""
""fullscreenenter"",""0"",""5990""
","
","
","""event"",""trial"",""time""
""fullscreenenter"",""0"",""5990""
","
",null,"<div style=""font-size:60px;"">+</div>",NA,null,fixation,2020-06-29T01:22:12Z,NA,NA,NA,NA,NA,sub32
NA,mars-trial,62,298639,0.0-10.0-1.23,"""event"",""trial"",""time""
""fullscreenenter"",""0"",""5990""
","
","
","""event"",""trial"",""time""
""fullscreenenter"",""0"",""5990""
","
",13078.160000004573,<img style='border: 4px solid darkgrey;' src='img/tf1_24_M_ss2.jpeg'></img>,2,NA,exp,NA,1,<img src='img/tf1_24_T1_ss2_md.jpeg'></img>,0,FALSE,NA,sub32
NA,html-keyboard-response,63,299143,0.0-10.0-0.24,"""event"",""trial"",""time""
""fullscreenenter"",""0"",""5990""
","
","
","""event"",""trial"",""time""
""fullscreenenter"",""0"",""5990""
","
",null,"<div style=""font-size:60px;"">+</div>",NA,null,fixation,2020-06-29T01:22:26Z,NA,NA,NA,NA,NA,sub32
NA,mars-trial,64,304362,0.0-10.0-1.24,"""event"",""trial"",""time""
""fullscreenenter"",""0"",""5990""
","
","
","""event"",""trial"",""time""
""fullscreenenter"",""0"",""5990""
","
",4600.464999995893,<img style='border: 4px solid darkgrey;' src='img/tf1_25_M_ss3.jpeg'></img>,3,NA,exp,NA,0,<img src='img/tf1_25_T1_ss3_md.jpeg'></img>,0,TRUE,NA,sub32
NA,html-keyboard-response,65,304872,0.0-10.0-0.25,"""event"",""trial"",""time""
""fullscreenenter"",""0"",""5990""
","
","
","""event"",""trial"",""time""
""fullscreenenter"",""0"",""5990""
","
",null,"<div style=""font-size:60px;"">+</div>",NA,null,fixation,2020-06-29T01:22:32Z,NA,NA,NA,NA,NA,sub32
NA,mars-trial,66,312449,0.0-10.0-1.25,"""event"",""trial"",""time""
""fullscreenenter"",""0"",""5990""
","
","
","""event"",""trial"",""time""
""fullscreenenter"",""0"",""5990""
","
",6958.899999997811,<img style='border: 4px solid darkgrey;' src='img/tf1_26_M_ss1.jpeg'></img>,1,NA,exp,NA,2,<img src='img/tf1_26_T1_ss1_md.jpeg'></img>,0,FALSE,NA,sub32
NA,html-keyboard-response,67,312961,0.0-10.0-0.26,"""event"",""trial"",""time""
""fullscreenenter"",""0"",""5990""
","
","
","""event"",""trial"",""time""
""fullscreenenter"",""0"",""5990""
","
",null,"<div style=""font-size:60px;"">+</div>",NA,null,fixation,2020-06-29T01:22:40Z,NA,NA,NA,NA,NA,sub32
NA,mars-trial,68,319309,0.0-10.0-1.26,"""event"",""trial"",""time""
""fullscreenenter"",""0"",""5990""
","
","
","""event"",""trial"",""time""
""fullscreenenter"",""0"",""5990""
","
",5730.770000009215,<img style='border: 4px solid darkgrey;' src='img/tf1_27_M_ss2.jpeg'></img>,3,NA,exp,NA,1,<img src='img/tf1_27_T1_ss2_md.jpeg'></img>,0,FALSE,NA,sub32
NA,html-keyboard-response,69,319812,0.0-10.0-0.27,"""event"",""trial"",""time""
""fullscreenenter"",""0"",""5990""
","
","
","""event"",""trial"",""time""
""fullscreenenter"",""0"",""5990""
","
",null,"<div style=""font-size:60px;"">+</div>",NA,null,fixation,2020-06-29T01:22:47Z,NA,NA,NA,NA,NA,sub32
NA,mars-trial,70,333640,0.0-10.0-1.27,"""event"",""trial"",""time""
""fullscreenenter"",""0"",""5990""
","
","
","""event"",""trial"",""time""
""fullscreenenter"",""0"",""5990""
","
",13212.679999996908,<img style='border: 4px solid darkgrey;' src='img/tf1_28_M_ss3.jpeg'></img>,2,NA,exp,NA,2,<img src='img/tf1_28_T1_ss3_md.jpeg'></img>,0,FALSE,NA,sub32
NA,html-keyboard-response,71,334151,0.0-10.0-0.28,"""event"",""trial"",""time""
""fullscreenenter"",""0"",""5990""
","
","
","""event"",""trial"",""time""
""fullscreenenter"",""0"",""5990""
","
",null,"<div style=""font-size:60px;"">+</div>",NA,null,fixation,2020-06-29T01:23:01Z,NA,NA,NA,NA,NA,sub32
NA,mars-trial,72,336378,0.0-10.0-1.28,"""event"",""trial"",""time""
""fullscreenenter"",""0"",""5990""
","
","
","""event"",""trial"",""time""
""fullscreenenter"",""0"",""5990""
","
",1608.300000007148,<img style='border: 4px solid darkgrey;' src='img/tf1_29_M_ss1.jpeg'></img>,3,NA,exp,NA,0,<img src='img/tf1_29_T1_ss1_md.jpeg'></img>,0,TRUE,NA,sub32
NA,html-keyboard-response,73,336881,0.0-10.0-0.29,"""event"",""trial"",""time""
""fullscreenenter"",""0"",""5990""
","
","
","""event"",""trial"",""time""
""fullscreenenter"",""0"",""5990""
","
",null,"<div style=""font-size:60px;"">+</div>",NA,null,fixation,2020-06-29T01:23:04Z,NA,NA,NA,NA,NA,sub32
NA,mars-trial,74,339114,0.0-10.0-1.29,"""event"",""trial"",""time""
""fullscreenenter"",""0"",""5990""
","
","
","""event"",""trial"",""time""
""fullscreenenter"",""0"",""5990""
","
",1615.300000004936,<img style='border: 4px solid darkgrey;' src='img/tf1_30_M_ss2.jpeg'></img>,1,NA,exp,NA,0,<img src='img/tf1_30_T1_ss2_md.jpeg'></img>,0,TRUE,NA,sub32
NA,html-keyboard-response,75,339617,0.0-10.0-0.30,"""event"",""trial"",""time""
""fullscreenenter"",""0"",""5990""
","
","
","""event"",""trial"",""time""
""fullscreenenter"",""0"",""5990""
","
",null,"<div style=""font-size:60px;"">+</div>",NA,null,fixation,2020-06-29T01:23:06Z,NA,NA,NA,NA,NA,sub32
NA,mars-trial,76,340818,0.0-10.0-1.30,"""event"",""trial"",""time""
""fullscreenenter"",""0"",""5990""
","
","
","""event"",""trial"",""time""
""fullscreenenter"",""0"",""5990""
","
",585.3000000061002,<img style='border: 4px solid darkgrey;' src='img/tf1_31_M_ss3.jpeg'></img>,2,NA,exp,NA,1,<img src='img/tf1_31_T1_ss3_md.jpeg'></img>,0,FALSE,NA,sub32
NA,html-keyboard-response,77,341321,0.0-10.0-0.31,"""event"",""trial"",""time""
""fullscreenenter"",""0"",""5990""
","
","
","""event"",""trial"",""time""
""fullscreenenter"",""0"",""5990""
","
",null,"<div style=""font-size:60px;"">+</div>",NA,null,fixation,2020-06-29T01:23:08Z,NA,NA,NA,NA,NA,sub32
NA,mars-trial,78,342742,0.0-10.0-1.31,"""event"",""trial"",""time""
""fullscreenenter"",""0"",""5990""
","
","
","""event"",""trial"",""time""
""fullscreenenter"",""0"",""5990""
","
",805.65999999817,<img style='border: 4px solid darkgrey;' src='img/tf1_32_M_ss1.jpeg'></img>,0,NA,exp,NA,1,<img src='img/tf1_32_T1_ss1_md.jpeg'></img>,0,FALSE,NA,sub32
NA,html-keyboard-response,79,343246,0.0-10.0-0.32,"""event"",""trial"",""time""
""fullscreenenter"",""0"",""5990""
","
","
","""event"",""trial"",""time""
""fullscreenenter"",""0"",""5990""
","
",null,"<div style=""font-size:60px;"">+</div>",NA,null,fixation,2020-06-29T01:23:10Z,NA,NA,NA,NA,NA,sub32
NA,mars-trial,80,344447,0.0-10.0-1.32,"""event"",""trial"",""time""
""fullscreenenter"",""0"",""5990""
","
","
","""event"",""trial"",""time""
""fullscreenenter"",""0"",""5990""
","
",588.210000001709,<img style='border: 4px solid darkgrey;' src='img/tf1_33_M_ss2.jpeg'></img>,1,NA,exp,NA,0,<img src='img/tf1_33_T1_ss2_md.jpeg'></img>,0,TRUE,NA,sub32
NA,html-keyboard-response,81,344950,0.0-10.0-0.33,"""event"",""trial"",""time""
""fullscreenenter"",""0"",""5990""
","
","
","""event"",""trial"",""time""
""fullscreenenter"",""0"",""5990""
","
",null,"<div style=""font-size:60px;"">+</div>",NA,null,fixation,2020-06-29T01:23:12Z,NA,NA,NA,NA,NA,sub32
NA,mars-trial,82,346471,0.0-10.0-1.33,"""event"",""trial"",""time""
""fullscreenenter"",""0"",""5990""
","
","
","""event"",""trial"",""time""
""fullscreenenter"",""0"",""5990""
","
",906.4950000029057,<img style='border: 4px solid darkgrey;' src='img/tf1_34_M_ss3.jpeg'></img>,1,NA,exp,NA,2,<img src='img/tf1_34_T1_ss3_md.jpeg'></img>,0,FALSE,NA,sub32
NA,html-keyboard-response,83,346975,0.0-10.0-0.34,"""event"",""trial"",""time""
""fullscreenenter"",""0"",""5990""
","
","
","""event"",""trial"",""time""
""fullscreenenter"",""0"",""5990""
","
",null,"<div style=""font-size:60px;"">+</div>",NA,null,fixation,2020-06-29T01:23:14Z,NA,NA,NA,NA,NA,sub32
NA,mars-trial,84,349120,0.0-10.0-1.34,"""event"",""trial"",""time""
""fullscreenenter"",""0"",""5990""
","
","
","""event"",""trial"",""time""
""fullscreenenter"",""0"",""5990""
","
",1530.5349999980535,<img style='border: 4px solid darkgrey;' src='img/tf1_35_M_ss1.jpeg'></img>,2,NA,exp,NA,0,<img src='img/tf1_35_T1_ss1_md.jpeg'></img>,0,TRUE,NA,sub32
NA,html-keyboard-response,85,349632,0.0-10.0-0.35,"""event"",""trial"",""time""
""fullscreenenter"",""0"",""5990""
","
","
","""event"",""trial"",""time""
""fullscreenenter"",""0"",""5990""
","
",null,"<div style=""font-size:60px;"">+</div>",NA,null,fixation,2020-06-29T01:23:16Z,NA,NA,NA,NA,NA,sub32
NA,mars-trial,86,352415,0.0-10.0-1.35,"""event"",""trial"",""time""
""fullscreenenter"",""0"",""5990""
","
","
","""event"",""trial"",""time""
""fullscreenenter"",""0"",""5990""
","
",2163.944999992964,<img style='border: 4px solid darkgrey;' src='img/tf1_36_M_ss2.jpeg'></img>,3,NA,exp,NA,2,<img src='img/tf1_36_T1_ss2_md.jpeg'></img>,0,FALSE,NA,sub32
NA,html-keyboard-response,87,352920,0.0-10.0-0.36,"""event"",""trial"",""time""
""fullscreenenter"",""0"",""5990""
","
","
","""event"",""trial"",""time""
""fullscreenenter"",""0"",""5990""
","
",null,"<div style=""font-size:60px;"">+</div>",NA,null,fixation,2020-06-29T01:23:20Z,NA,NA,NA,NA,NA,sub32
NA,mars-trial,88,354312,0.0-10.0-1.36,"""event"",""trial"",""time""
""fullscreenenter"",""0"",""5990""
","
","
","""event"",""trial"",""time""
""fullscreenenter"",""0"",""5990""
","
",777.3949999973411,<img style='border: 4px solid darkgrey;' src='img/tf1_37_M_ss3.jpeg'></img>,1,NA,exp,NA,1,<img src='img/tf1_37_T1_ss3_md.jpeg'></img>,0,FALSE,NA,sub32
NA,html-keyboard-response,89,354816,0.0-10.0-0.37,"""event"",""trial"",""time""
""fullscreenenter"",""0"",""5990""
","
","
","""event"",""trial"",""time""
""fullscreenenter"",""0"",""5990""
","
",null,"<div style=""font-size:60px;"">+</div>",NA,null,fixation,2020-06-29T01:23:22Z,NA,NA,NA,NA,NA,sub32
NA,mars-trial,90,359169,0.0-10.0-1.37,"""event"",""trial"",""time""
""fullscreenenter"",""0"",""5990""
","
","
","""event"",""trial"",""time""
""fullscreenenter"",""0"",""5990""
","
",3735.4550000018207,<img style='border: 4px solid darkgrey;' src='img/tf1_38_M_ss1.jpeg'></img>,2,NA,exp,NA,2,<img src='img/tf1_38_T1_ss1_md.jpeg'></img>,0,FALSE,NA,sub32
NA,html-keyboard-response,91,359680,0.0-10.0-0.38,"""event"",""trial"",""time""
""fullscreenenter"",""0"",""5990""
","
","
","""event"",""trial"",""time""
""fullscreenenter"",""0"",""5990""
","
",null,"<div style=""font-size:60px;"">+</div>",NA,null,fixation,2020-06-29T01:23:26Z,NA,NA,NA,NA,NA,sub32
NA,mars-trial,92,366634,0.0-10.0-1.38,"""event"",""trial"",""time""
""fullscreenenter"",""0"",""5990""
","
","
","""event"",""trial"",""time""
""fullscreenenter"",""0"",""5990""
","
",6338.390000004438,<img style='border: 4px solid darkgrey;' src='img/tf1_39_M_ss2.jpeg'></img>,1,NA,exp,NA,0,<img src='img/tf1_39_T1_ss2_md.jpeg'></img>,0,TRUE,NA,sub32
NA,html-keyboard-response,93,367146,0.0-10.0-0.39,"""event"",""trial"",""time""
""fullscreenenter"",""0"",""5990""
","
","
","""event"",""trial"",""time""
""fullscreenenter"",""0"",""5990""
","
",null,"<div style=""font-size:60px;"">+</div>",NA,null,fixation,2020-06-29T01:23:34Z,NA,NA,NA,NA,NA,sub32
NA,mars-trial,94,371923,0.0-10.0-1.39,"""event"",""trial"",""time""
""fullscreenenter"",""0"",""5990""
","
","
","""event"",""trial"",""time""
""fullscreenenter"",""0"",""5990""
","
",4161.724999998114,<img style='border: 4px solid darkgrey;' src='img/tf1_40_M_ss3.jpeg'></img>,1,NA,exp,NA,1,<img src='img/tf1_40_T1_ss3_md.jpeg'></img>,0,FALSE,NA,sub32
NA,html-keyboard-response,95,372434,0.0-10.0-0.40,"""event"",""trial"",""time""
""fullscreenenter"",""0"",""5990""
","
","
","""event"",""trial"",""time""
""fullscreenenter"",""0"",""5990""
","
",null,"<div style=""font-size:60px;"">+</div>",NA,null,fixation,2020-06-29T01:23:39Z,NA,NA,NA,NA,NA,sub32
NA,mars-trial,96,373659,0.0-10.0-1.40,"""event"",""trial"",""time""
""fullscreenenter"",""0"",""5990""
","
","
","""event"",""trial"",""time""
""fullscreenenter"",""0"",""5990""
","
",604.5600000070408,<img style='border: 4px solid darkgrey;' src='img/tf1_41_M_ss1.jpeg'></img>,1,NA,exp,NA,2,<img src='img/tf1_41_T1_ss1_md.jpeg'></img>,0,FALSE,NA,sub32
NA,html-keyboard-response,97,374171,0.0-10.0-0.41,"""event"",""trial"",""time""
""fullscreenenter"",""0"",""5990""
","
","
","""event"",""trial"",""time""
""fullscreenenter"",""0"",""5990""
","
",null,"<div style=""font-size:60px;"">+</div>",NA,null,fixation,2020-06-29T01:23:41Z,NA,NA,NA,NA,NA,sub32
NA,mars-trial,98,375322,0.0-10.0-1.41,"""event"",""trial"",""time""
""fullscreenenter"",""0"",""5990""
","
","
","""event"",""trial"",""time""
""fullscreenenter"",""0"",""5990""
","
",540.2099999919301,<img style='border: 4px solid darkgrey;' src='img/tf1_42_M_ss2.jpeg'></img>,1,NA,exp,NA,3,<img src='img/tf1_42_T1_ss2_md.jpeg'></img>,0,FALSE,NA,sub32
NA,html-keyboard-response,99,375827,0.0-10.0-0.42,"""event"",""trial"",""time""
""fullscreenenter"",""0"",""5990""
","
","
","""event"",""trial"",""time""
""fullscreenenter"",""0"",""5990""
","
",null,"<div style=""font-size:60px;"">+</div>",NA,null,fixation,2020-06-29T01:23:43Z,NA,NA,NA,NA,NA,sub32
NA,mars-trial,100,377140,0.0-10.0-1.42,"""event"",""trial"",""time""
""fullscreenenter"",""0"",""5990""
","
","
","""event"",""trial"",""time""
""fullscreenenter"",""0"",""5990""
","
",701.9549999968149,<img style='border: 4px solid darkgrey;' src='img/tf1_43_M_ss3.jpeg'></img>,2,NA,exp,NA,3,<img src='img/tf1_43_T1_ss3_md.jpeg'></img>,0,FALSE,NA,sub32
NA,html-keyboard-response,101,377643,0.0-10.0-0.43,"""event"",""trial"",""time""
""fullscreenenter"",""0"",""5990""
","
","
","""event"",""trial"",""time""
""fullscreenenter"",""0"",""5990""
","
",null,"<div style=""font-size:60px;"">+</div>",NA,null,fixation,2020-06-29T01:23:44Z,NA,NA,NA,NA,NA,sub32
NA,mars-trial,102,378958,0.0-10.0-1.43,"""event"",""trial"",""time""
""fullscreenenter"",""0"",""5990""
","
","
","""event"",""trial"",""time""
""fullscreenenter"",""0"",""5990""
","
",699.17500000156,<img style='border: 4px solid darkgrey;' src='img/tf1_44_M_ss1.jpeg'></img>,3,NA,exp,NA,3,<img src='img/tf1_44_T1_ss1_md.jpeg'></img>,0,FALSE,NA,sub32
NA,html-keyboard-response,103,379469,0.0-10.0-0.44,"""event"",""trial"",""time""
""fullscreenenter"",""0"",""5990""
","
","
","""event"",""trial"",""time""
""fullscreenenter"",""0"",""5990""
","
",null,"<div style=""font-size:60px;"">+</div>",NA,null,fixation,2020-06-29T01:23:46Z,NA,NA,NA,NA,NA,sub32
NA,mars-trial,104,380918,0.0-10.0-1.44,"""event"",""trial"",""time""
""fullscreenenter"",""0"",""5990""
","
","
","""event"",""trial"",""time""
""fullscreenenter"",""0"",""5990""
","
",834.0549999993527,<img style='border: 4px solid darkgrey;' src='img/tf1_45_M_ss2.jpeg'></img>,0,NA,exp,NA,2,<img src='img/tf1_45_T1_ss2_md.jpeg'></img>,0,FALSE,NA,sub32
NA,html-keyboard-response,105,381421,0.0-10.0-0.45,"""event"",""trial"",""time""
""fullscreenenter"",""0"",""5990""
","
","
","""event"",""trial"",""time""
""fullscreenenter"",""0"",""5990""
","
",null,"<div style=""font-size:60px;"">+</div>",NA,null,fixation,2020-06-29T01:23:48Z,NA,NA,NA,NA,NA,sub32
NA,mars-trial,106,382614,0.0-10.0-1.45,"""event"",""trial"",""time""
""fullscreenenter"",""0"",""5990""
","
","
","""event"",""trial"",""time""
""fullscreenenter"",""0"",""5990""
","
",577.4050000036368,<img style='border: 4px solid darkgrey;' src='img/tf1_46_M_ss3.jpeg'></img>,1,NA,exp,NA,3,<img src='img/tf1_46_T1_ss3_md.jpeg'></img>,0,FALSE,NA,sub32
NA,html-keyboard-response,107,383119,0.0-10.0-0.46,"""event"",""trial"",""time""
""fullscreenenter"",""0"",""5990""
","
","
","""event"",""trial"",""time""
""fullscreenenter"",""0"",""5990""
","
",null,"<div style=""font-size:60px;"">+</div>",NA,null,fixation,2020-06-29T01:23:50Z,NA,NA,NA,NA,NA,sub32
NA,mars-trial,108,384215,0.0-10.0-1.46,"""event"",""trial"",""time""
""fullscreenenter"",""0"",""5990""
","
","
","""event"",""trial"",""time""
""fullscreenenter"",""0"",""5990""
","
",478.835000001709,<img style='border: 4px solid darkgrey;' src='img/tf1_47_M_ss1.jpeg'></img>,2,NA,exp,NA,0,<img src='img/tf1_47_T1_ss1_md.jpeg'></img>,0,TRUE,NA,sub32
NA,html-keyboard-response,109,384719,0.0-10.0-0.47,"""event"",""trial"",""time""
""fullscreenenter"",""0"",""5990""
","
","
","""event"",""trial"",""time""
""fullscreenenter"",""0"",""5990""
","
",null,"<div style=""font-size:60px;"">+</div>",NA,null,fixation,2020-06-29T01:23:52Z,NA,NA,NA,NA,NA,sub32
NA,mars-trial,110,387791,0.0-10.0-1.47,"""event"",""trial"",""time""
""fullscreenenter"",""0"",""5990""
","
","
","""event"",""trial"",""time""
""fullscreenenter"",""0"",""5990""
","
",2461.2449999985984,<img style='border: 4px solid darkgrey;' src='img/tf1_48_M_ss2.jpeg'></img>,1,NA,exp,NA,3,<img src='img/tf1_48_T1_ss2_md.jpeg'></img>,0,FALSE,NA,sub32
NA,html-keyboard-response,111,388303,0.0-10.0-0.48,"""event"",""trial"",""time""
""fullscreenenter"",""0"",""5990""
","
","
","""event"",""trial"",""time""
""fullscreenenter"",""0"",""5990""
","
",null,"<div style=""font-size:60px;"">+</div>",NA,null,fixation,2020-06-29T01:23:55Z,NA,NA,NA,NA,NA,sub32
NA,mars-trial,112,389527,0.0-10.0-1.48,"""event"",""trial"",""time""
""fullscreenenter"",""0"",""5990""
","
","
","""event"",""trial"",""time""
""fullscreenenter"",""0"",""5990""
","
",606.5949999901932,<img style='border: 4px solid darkgrey;' src='img/tf1_49_M_ss3.jpeg'></img>,2,NA,exp,NA,0,<img src='img/tf1_49_T1_ss3_md.jpeg'></img>,0,TRUE,NA,sub32
NA,html-keyboard-response,113,390031,0.0-10.0-0.49,"""event"",""trial"",""time""
""fullscreenenter"",""0"",""5990""
","
","
","""event"",""trial"",""time""
""fullscreenenter"",""0"",""5990""
","
",null,"<div style=""font-size:60px;"">+</div>",NA,null,fixation,2020-06-29T01:23:57Z,NA,NA,NA,NA,NA,sub32
NA,mars-trial,114,391280,0.0-10.0-1.49,"""event"",""trial"",""time""
""fullscreenenter"",""0"",""5990""
","
","
","""event"",""trial"",""time""
""fullscreenenter"",""0"",""5990""
","
",634.4149999931687,<img style='border: 4px solid darkgrey;' src='img/tf1_50_M_ss1.jpeg'></img>,2,NA,exp,NA,2,<img src='img/tf1_50_T1_ss1_md.jpeg'></img>,0,FALSE,NA,sub32
NA,html-keyboard-response,115,391783,0.0-10.0-0.50,"""event"",""trial"",""time""
""fullscreenenter"",""0"",""5990""
","
","
","""event"",""trial"",""time""
""fullscreenenter"",""0"",""5990""
","
",null,"<div style=""font-size:60px;"">+</div>",NA,null,fixation,2020-06-29T01:23:59Z,NA,NA,NA,NA,NA,sub32
NA,mars-trial,116,393714,0.0-10.0-1.50,"""event"",""trial"",""time""
""fullscreenenter"",""0"",""5990""
","
","
","""event"",""trial"",""time""
""fullscreenenter"",""0"",""5990""
","
",1318.1650000042282,<img style='border: 4px solid darkgrey;' src='img/tf1_51_M_ss2.jpeg'></img>,1,NA,exp,NA,0,<img src='img/tf1_51_T1_ss2_md.jpeg'></img>,0,TRUE,NA,sub32
NA,html-keyboard-response,117,394216,0.0-10.0-0.51,"""event"",""trial"",""time""
""fullscreenenter"",""0"",""5990""
","
","
","""event"",""trial"",""time""
""fullscreenenter"",""0"",""5990""
","
",null,"<div style=""font-size:60px;"">+</div>",NA,null,fixation,2020-06-29T01:24:01Z,NA,NA,NA,NA,NA,sub32
NA,mars-trial,118,395529,0.0-10.0-1.51,"""event"",""trial"",""time""
""fullscreenenter"",""0"",""5990""
","
","
","""event"",""trial"",""time""
""fullscreenenter"",""0"",""5990""
","
",697.0949999958975,<img style='border: 4px solid darkgrey;' src='img/tf1_52_M_ss3.jpeg'></img>,2,NA,exp,NA,0,<img src='img/tf1_52_T1_ss3_md.jpeg'></img>,0,TRUE,NA,sub32
NA,html-keyboard-response,119,396034,0.0-10.0-0.52,"""event"",""trial"",""time""
""fullscreenenter"",""0"",""5990""
","
","
","""event"",""trial"",""time""
""fullscreenenter"",""0"",""5990""
","
",null,"<div style=""font-size:60px;"">+</div>",NA,null,fixation,2020-06-29T01:24:03Z,NA,NA,NA,NA,NA,sub32
NA,mars-trial,120,397427,0.0-10.0-1.52,"""event"",""trial"",""time""
""fullscreenenter"",""0"",""5990""
","
","
","""event"",""trial"",""time""
""fullscreenenter"",""0"",""5990""
","
",781.4849999995204,<img style='border: 4px solid darkgrey;' src='img/tf1_53_M_ss1.jpeg'></img>,1,NA,exp,NA,3,<img src='img/tf1_53_T1_ss1_md.jpeg'></img>,0,FALSE,NA,sub32
NA,html-keyboard-response,121,397930,0.0-10.0-0.53,"""event"",""trial"",""time""
""fullscreenenter"",""0"",""5990""
","
","
","""event"",""trial"",""time""
""fullscreenenter"",""0"",""5990""
","
",null,"<div style=""font-size:60px;"">+</div>",NA,null,fixation,2020-06-29T01:24:05Z,NA,NA,NA,NA,NA,sub32
NA,mars-trial,122,399283,0.0-10.0-1.53,"""event"",""trial"",""time""
""fullscreenenter"",""0"",""5990""
","
","
","""event"",""trial"",""time""
""fullscreenenter"",""0"",""5990""
","
",737.0500000106404,<img style='border: 4px solid darkgrey;' src='img/tf1_54_M_ss2.jpeg'></img>,2,NA,exp,NA,0,<img src='img/tf1_54_T1_ss2_md.jpeg'></img>,0,TRUE,NA,sub32
NA,html-keyboard-response,123,399787,0.0-10.0-0.54,"""event"",""trial"",""time""
""fullscreenenter"",""0"",""5990""
","
","
","""event"",""trial"",""time""
""fullscreenenter"",""0"",""5990""
","
",null,"<div style=""font-size:60px;"">+</div>",NA,null,fixation,2020-06-29T01:24:07Z,NA,NA,NA,NA,NA,sub32
NA,mars-trial,124,401235,0.0-10.0-1.54,"""event"",""trial"",""time""
""fullscreenenter"",""0"",""5990""
","
","
","""event"",""trial"",""time""
""fullscreenenter"",""0"",""5990""
","
",829.3200000043726,<img style='border: 4px solid darkgrey;' src='img/tf1_55_M_ss3.jpeg'></img>,2,NA,exp,NA,3,<img src='img/tf1_55_T1_ss3_md.jpeg'></img>,0,FALSE,NA,sub32
NA,html-keyboard-response,125,401740,0.0-10.0-0.55,"""event"",""trial"",""time""
""fullscreenenter"",""0"",""5990""
","
","
","""event"",""trial"",""time""
""fullscreenenter"",""0"",""5990""
","
",null,"<div style=""font-size:60px;"">+</div>",NA,null,fixation,2020-06-29T01:24:09Z,NA,NA,NA,NA,NA,sub32
NA,mars-trial,126,402892,0.0-10.0-1.55,"""event"",""trial"",""time""
""fullscreenenter"",""0"",""5990""
","
","
","""event"",""trial"",""time""
""fullscreenenter"",""0"",""5990""
","
",536.5400000009686,<img style='border: 4px solid darkgrey;' src='img/tf1_56_M_ss1.jpeg'></img>,2,NA,exp,NA,3,<img src='img/tf1_56_T1_ss1_md.jpeg'></img>,0,FALSE,NA,sub32
NA,html-keyboard-response,127,403395,0.0-10.0-0.56,"""event"",""trial"",""time""
""fullscreenenter"",""0"",""5990""
","
","
","""event"",""trial"",""time""
""fullscreenenter"",""0"",""5990""
","
",null,"<div style=""font-size:60px;"">+</div>",NA,null,fixation,2020-06-29T01:24:10Z,NA,NA,NA,NA,NA,sub32
NA,mars-trial,128,404572,0.0-10.0-1.56,"""event"",""trial"",""time""
""fullscreenenter"",""0"",""5990""
","
","
","""event"",""trial"",""time""
""fullscreenenter"",""0"",""5990""
","
",562.9599999956554,<img style='border: 4px solid darkgrey;' src='img/tf1_57_M_ss2.jpeg'></img>,3,NA,exp,NA,2,<img src='img/tf1_57_T1_ss2_md.jpeg'></img>,0,FALSE,NA,sub32
NA,html-keyboard-response,129,405076,0.0-10.0-0.57,"""event"",""trial"",""time""
""fullscreenenter"",""0"",""5990""
","
","
","""event"",""trial"",""time""
""fullscreenenter"",""0"",""5990""
","
",null,"<div style=""font-size:60px;"">+</div>",NA,null,fixation,2020-06-29T01:24:12Z,NA,NA,NA,NA,NA,sub32
NA,mars-trial,130,406524,0.0-10.0-1.57,"""event"",""trial"",""time""
""fullscreenenter"",""0"",""5990""
","
","
","""event"",""trial"",""time""
""fullscreenenter"",""0"",""5990""
","
",833.2550000050105,<img style='border: 4px solid darkgrey;' src='img/tf1_58_M_ss3.jpeg'></img>,0,NA,exp,NA,1,<img src='img/tf1_58_T1_ss3_md.jpeg'></img>,0,FALSE,NA,sub32
NA,html-keyboard-response,131,407028,0.0-10.0-0.58,"""event"",""trial"",""time""
""fullscreenenter"",""0"",""5990""
","
","
","""event"",""trial"",""time""
""fullscreenenter"",""0"",""5990""
","
",null,"<div style=""font-size:60px;"">+</div>",NA,null,fixation,2020-06-29T01:24:14Z,NA,NA,NA,NA,NA,sub32
NA,mars-trial,132,408111,0.0-10.0-1.58,"""event"",""trial"",""time""
""fullscreenenter"",""0"",""5990""
","
","
","""event"",""trial"",""time""
""fullscreenenter"",""0"",""5990""
","
",464.72499999799766,<img style='border: 4px solid darkgrey;' src='img/tf1_59_M_ss1.jpeg'></img>,1,NA,exp,NA,0,<img src='img/tf1_59_T1_ss1_md.jpeg'></img>,0,TRUE,NA,sub32
NA,html-keyboard-response,133,408620,0.0-10.0-0.59,"""event"",""trial"",""time""
""fullscreenenter"",""0"",""5990""
","
","
","""event"",""trial"",""time""
""fullscreenenter"",""0"",""5990""
","
",null,"<div style=""font-size:60px;"">+</div>",NA,null,fixation,2020-06-29T01:24:15Z,NA,NA,NA,NA,NA,sub32
NA,mars-trial,134,409814,0.0-10.0-1.59,"""event"",""trial"",""time""
""fullscreenenter"",""0"",""5990""
","
","
","""event"",""trial"",""time""
""fullscreenenter"",""0"",""5990""
","
",578.3349999983329,<img style='border: 4px solid darkgrey;' src='img/tf1_60_M_ss2.jpeg'></img>,2,NA,exp,NA,3,<img src='img/tf1_60_T1_ss2_md.jpeg'></img>,0,FALSE,NA,sub32
NA,html-keyboard-response,135,410317,0.0-10.0-0.60,"""event"",""trial"",""time""
""fullscreenenter"",""0"",""5990""
","
","
","""event"",""trial"",""time""
""fullscreenenter"",""0"",""5990""
","
",null,"<div style=""font-size:60px;"">+</div>",NA,null,fixation,2020-06-29T01:24:17Z,NA,NA,NA,NA,NA,sub32
NA,mars-trial,136,411957,0.0-10.0-1.60,"""event"",""trial"",""time""
""fullscreenenter"",""0"",""5990""
","
","
","""event"",""trial"",""time""
""fullscreenenter"",""0"",""5990""
","
",1026.2749999965308,<img style='border: 4px solid darkgrey;' src='img/tf1_61_M_ss3.jpeg'></img>,1,NA,exp,NA,2,<img src='img/tf1_61_T1_ss3_md.jpeg'></img>,0,FALSE,NA,sub32
NA,html-keyboard-response,137,412461,0.0-10.0-0.61,"""event"",""trial"",""time""
""fullscreenenter"",""0"",""5990""
","
","
","""event"",""trial"",""time""
""fullscreenenter"",""0"",""5990""
","
",null,"<div style=""font-size:60px;"">+</div>",NA,null,fixation,2020-06-29T01:24:19Z,NA,NA,NA,NA,NA,sub32
NA,mars-trial,138,419630,0.0-10.0-1.61,"""event"",""trial"",""time""
""fullscreenenter"",""0"",""5990""
","
","
","""event"",""trial"",""time""
""fullscreenenter"",""0"",""5990""
","
",6557.070000009844,<img style='border: 4px solid darkgrey;' src='img/tf1_62_M_ss1.jpeg'></img>,3,NA,exp,NA,1,<img src='img/tf1_62_T1_ss1_md.jpeg'></img>,0,FALSE,NA,sub32
NA,html-keyboard-response,139,420144,0.0-10.0-0.62,"""event"",""trial"",""time""
""fullscreenenter"",""0"",""5990""
","
","
","""event"",""trial"",""time""
""fullscreenenter"",""0"",""5990""
","
",null,"<div style=""font-size:60px;"">+</div>",NA,null,fixation,2020-06-29T01:24:27Z,NA,NA,NA,NA,NA,sub32
NA,mars-trial,140,438291,0.0-10.0-1.62,"""event"",""trial"",""time""
""fullscreenenter"",""0"",""5990""
","
","
","""event"",""trial"",""time""
""fullscreenenter"",""0"",""5990""
","
",17526.595000003,<img style='border: 4px solid darkgrey;' src='img/tf1_63_M_ss2.jpeg'></img>,2,NA,exp,NA,2,<img src='img/tf1_63_T1_ss2_md.jpeg'></img>,0,FALSE,NA,sub32
NA,html-keyboard-response,141,438795,0.0-10.0-0.63,"""event"",""trial"",""time""
""fullscreenenter"",""0"",""5990""
","
","
","""event"",""trial"",""time""
""fullscreenenter"",""0"",""5990""
","
",null,"<div style=""font-size:60px;"">+</div>",NA,null,fixation,2020-06-29T01:24:46Z,NA,NA,NA,NA,NA,sub32
NA,mars-trial,142,443965,0.0-10.0-1.63,"""event"",""trial"",""time""
""fullscreenenter"",""0"",""5990""
","
","
","""event"",""trial"",""time""
""fullscreenenter"",""0"",""5990""
","
",4551.629999987199,<img style='border: 4px solid darkgrey;' src='img/tf1_64_M_ss3.jpeg'></img>,2,NA,exp,NA,1,<img src='img/tf1_64_T1_ss3_md.jpeg'></img>,0,FALSE,NA,sub32
NA,html-keyboard-response,143,444477,0.0-10.0-0.64,"""event"",""trial"",""time""
""fullscreenenter"",""0"",""5990""
","
","
","""event"",""trial"",""time""
""fullscreenenter"",""0"",""5990""
","
",null,"<div style=""font-size:60px;"">+</div>",NA,null,fixation,2020-06-29T01:24:51Z,NA,NA,NA,NA,NA,sub32
NA,mars-trial,144,454353,0.0-10.0-1.64,"""event"",""trial"",""time""
""fullscreenenter"",""0"",""5990""
","
","
","""event"",""trial"",""time""
""fullscreenenter"",""0"",""5990""
","
",9256.534999993164,<img style='border: 4px solid darkgrey;' src='img/tf1_65_M_ss1.jpeg'></img>,3,NA,exp,NA,0,<img src='img/tf1_65_T1_ss1_md.jpeg'></img>,0,TRUE,NA,sub32
NA,html-keyboard-response,145,454863,0.0-10.0-0.65,"""event"",""trial"",""time""
""fullscreenenter"",""0"",""5990""
","
","
","""event"",""trial"",""time""
""fullscreenenter"",""0"",""5990""
","
",null,"<div style=""font-size:60px;"">+</div>",NA,null,fixation,2020-06-29T01:25:02Z,NA,NA,NA,NA,NA,sub32
NA,mars-trial,146,467371,0.0-10.0-1.65,"""event"",""trial"",""time""
""fullscreenenter"",""0"",""5990""
","
","
","""event"",""trial"",""time""
""fullscreenenter"",""0"",""5990""
","
",11893.359999987297,<img style='border: 4px solid darkgrey;' src='img/tf1_66_M_ss2.jpeg'></img>,3,NA,exp,NA,3,<img src='img/tf1_66_T1_ss2_md.jpeg'></img>,0,FALSE,NA,sub32
NA,html-keyboard-response,147,467882,0.0-10.0-0.66,"""event"",""trial"",""time""
""fullscreenenter"",""0"",""5990""
","
","
","""event"",""trial"",""time""
""fullscreenenter"",""0"",""5990""
","
",null,"<div style=""font-size:60px;"">+</div>",NA,null,fixation,2020-06-29T01:25:15Z,NA,NA,NA,NA,NA,sub32
NA,mars-trial,148,483400,0.0-10.0-1.66,"""event"",""trial"",""time""
""fullscreenenter"",""0"",""5990""
","
","
","""event"",""trial"",""time""
""fullscreenenter"",""0"",""5990""
","
",14902.685000008205,<img style='border: 4px solid darkgrey;' src='img/tf1_67_M_ss3.jpeg'></img>,2,NA,exp,NA,2,<img src='img/tf1_67_T1_ss3_md.jpeg'></img>,0,FALSE,NA,sub32
NA,html-keyboard-response,149,483912,0.0-10.0-0.67,"""event"",""trial"",""time""
""fullscreenenter"",""0"",""5990""
","
","
","""event"",""trial"",""time""
""fullscreenenter"",""0"",""5990""
","
",null,"<div style=""font-size:60px;"">+</div>",NA,null,fixation,2020-06-29T01:25:31Z,NA,NA,NA,NA,NA,sub32
NA,mars-trial,150,491617,0.0-10.0-1.67,"""event"",""trial"",""time""
""fullscreenenter"",""0"",""5990""
","
","
","""event"",""trial"",""time""
""fullscreenenter"",""0"",""5990""
","
",7087.930000008782,<img style='border: 4px solid darkgrey;' src='img/tf1_68_M_ss1.jpeg'></img>,0,NA,exp,NA,0,<img src='img/tf1_68_T1_ss1_md.jpeg'></img>,0,TRUE,NA,sub32
NA,html-keyboard-response,151,492124,0.0-10.0-0.68,"""event"",""trial"",""time""
""fullscreenenter"",""0"",""5990""
","
","
","""event"",""trial"",""time""
""fullscreenenter"",""0"",""5990""
","
",null,"<div style=""font-size:60px;"">+</div>",NA,null,fixation,2020-06-29T01:25:39Z,NA,NA,NA,NA,NA,sub32
NA,mars-trial,152,494012,0.0-10.0-1.68,"""event"",""trial"",""time""
""fullscreenenter"",""0"",""5990""
","
","
","""event"",""trial"",""time""
""fullscreenenter"",""0"",""5990""
","
",1273.7400000041816,<img style='border: 4px solid darkgrey;' src='img/tf1_69_M_ss2.jpeg'></img>,2,NA,exp,NA,1,<img src='img/tf1_69_T1_ss2_md.jpeg'></img>,0,FALSE,NA,sub32
NA,html-keyboard-response,153,494523,0.0-10.0-0.69,"""event"",""trial"",""time""
""fullscreenenter"",""0"",""5990""
","
","
","""event"",""trial"",""time""
""fullscreenenter"",""0"",""5990""
","
",null,"<div style=""font-size:60px;"">+</div>",NA,null,fixation,2020-06-29T01:25:41Z,NA,NA,NA,NA,NA,sub32
NA,mars-trial,154,504859,0.0-10.0-1.69,"""event"",""trial"",""time""
""fullscreenenter"",""0"",""5990""
","
","
","""event"",""trial"",""time""
""fullscreenenter"",""0"",""5990""
","
",9720.08499999356,<img style='border: 4px solid darkgrey;' src='img/tf1_70_M_ss3.jpeg'></img>,3,NA,exp,NA,2,<img src='img/tf1_70_T1_ss3_md.jpeg'></img>,0,FALSE,NA,sub32
NA,html-keyboard-response,155,505365,0.0-10.0-0.70,"""event"",""trial"",""time""
""fullscreenenter"",""0"",""5990""
","
","
","""event"",""trial"",""time""
""fullscreenenter"",""0"",""5990""
","
",null,"<div style=""font-size:60px;"">+</div>",NA,null,fixation,2020-06-29T01:25:52Z,NA,NA,NA,NA,NA,sub32
NA,mars-trial,156,511479,0.0-10.0-1.70,"""event"",""trial"",""time""
""fullscreenenter"",""0"",""5990""
","
","
","""event"",""trial"",""time""
""fullscreenenter"",""0"",""5990""
","
",5499.064999996335,<img style='border: 4px solid darkgrey;' src='img/tf1_71_M_ss1.jpeg'></img>,0,NA,exp,NA,1,<img src='img/tf1_71_T1_ss1_md.jpeg'></img>,0,FALSE,NA,sub32
NA,html-keyboard-response,157,511984,0.0-10.0-0.71,"""event"",""trial"",""time""
""fullscreenenter"",""0"",""5990""
","
","
","""event"",""trial"",""time""
""fullscreenenter"",""0"",""5990""
","
",null,"<div style=""font-size:60px;"">+</div>",NA,null,fixation,2020-06-29T01:25:59Z,NA,NA,NA,NA,NA,sub32
NA,mars-trial,158,519699,0.0-10.0-1.71,"""event"",""trial"",""time""
""fullscreenenter"",""0"",""5990""
","
","
","""event"",""trial"",""time""
""fullscreenenter"",""0"",""5990""
","
",7099.880000008852,<img style='border: 4px solid darkgrey;' src='img/tf1_72_M_ss2.jpeg'></img>,2,NA,exp,NA,1,<img src='img/tf1_72_T1_ss2_md.jpeg'></img>,0,FALSE,NA,sub32
NA,html-keyboard-response,159,520210,0.0-10.0-0.72,"""event"",""trial"",""time""
""fullscreenenter"",""0"",""5990""
","
","
","""event"",""trial"",""time""
""fullscreenenter"",""0"",""5990""
","
",null,"<div style=""font-size:60px;"">+</div>",NA,null,fixation,2020-06-29T01:26:07Z,NA,NA,NA,NA,NA,sub32
NA,mars-trial,160,522035,0.0-10.0-1.72,"""event"",""trial"",""time""
""fullscreenenter"",""0"",""5990""
","
","
","""event"",""trial"",""time""
""fullscreenenter"",""0"",""5990""
","
",1207.009999998263,<img style='border: 4px solid darkgrey;' src='img/tf1_73_M_ss3.jpeg'></img>,1,NA,exp,NA,0,<img src='img/tf1_73_T1_ss3_md.jpeg'></img>,0,TRUE,NA,sub32
NA,html-keyboard-response,161,522538,0.0-10.0-0.73,"""event"",""trial"",""time""
""fullscreenenter"",""0"",""5990""
","
","
","""event"",""trial"",""time""
""fullscreenenter"",""0"",""5990""
","
",null,"<div style=""font-size:60px;"">+</div>",NA,null,fixation,2020-06-29T01:26:09Z,NA,NA,NA,NA,NA,sub32
NA,mars-trial,162,526468,0.0-10.0-1.73,"""event"",""trial"",""time""
""fullscreenenter"",""0"",""5990""
","
","
","""event"",""trial"",""time""
""fullscreenenter"",""0"",""5990""
","
",3311.5750000142725,<img style='border: 4px solid darkgrey;' src='img/tf1_74_M_ss1.jpeg'></img>,1,NA,exp,NA,2,<img src='img/tf1_74_T1_ss1_md.jpeg'></img>,0,FALSE,NA,sub32
NA,html-keyboard-response,163,526972,0.0-10.0-0.74,"""event"",""trial"",""time""
""fullscreenenter"",""0"",""5990""
","
","
","""event"",""trial"",""time""
""fullscreenenter"",""0"",""5990""
","
",null,"<div style=""font-size:60px;"">+</div>",NA,null,fixation,2020-06-29T01:26:14Z,NA,NA,NA,NA,NA,sub32
NA,mars-trial,164,529310,0.0-10.0-1.74,"""event"",""trial"",""time""
""fullscreenenter"",""0"",""5990""
","
","
","""event"",""trial"",""time""
""fullscreenenter"",""0"",""5990""
","
",1721.3300000003073,<img style='border: 4px solid darkgrey;' src='img/tf1_75_M_ss2.jpeg'></img>,2,NA,exp,NA,2,<img src='img/tf1_75_T1_ss2_md.jpeg'></img>,0,FALSE,NA,sub32
NA,html-keyboard-response,165,529812,0.0-10.0-0.75,"""event"",""trial"",""time""
""fullscreenenter"",""0"",""5990""
","
","
","""event"",""trial"",""time""
""fullscreenenter"",""0"",""5990""
","
",null,"<div style=""font-size:60px;"">+</div>",NA,null,fixation,2020-06-29T01:26:17Z,NA,NA,NA,NA,NA,sub32
NA,mars-trial,166,531333,0.0-10.0-1.75,"""event"",""trial"",""time""
""fullscreenenter"",""0"",""5990""
","
","
","""event"",""trial"",""time""
""fullscreenenter"",""0"",""5990""
","
",901.24000000651,<img style='border: 4px solid darkgrey;' src='img/tf1_76_M_ss3.jpeg'></img>,1,NA,exp,NA,0,<img src='img/tf1_76_T1_ss3_md.jpeg'></img>,0,TRUE,NA,sub32
NA,html-keyboard-response,167,531837,0.0-10.0-0.76,"""event"",""trial"",""time""
""fullscreenenter"",""0"",""5990""
","
","
","""event"",""trial"",""time""
""fullscreenenter"",""0"",""5990""
","
",null,"<div style=""font-size:60px;"">+</div>",NA,null,fixation,2020-06-29T01:26:19Z,NA,NA,NA,NA,NA,sub32
NA,mars-trial,168,533678,0.0-10.0-1.76,"""event"",""trial"",""time""
""fullscreenenter"",""0"",""5990""
","
","
","""event"",""trial"",""time""
""fullscreenenter"",""0"",""5990""
","
",1227.1299999993062,<img style='border: 4px solid darkgrey;' src='img/tf1_77_M_ss1.jpeg'></img>,1,NA,exp,NA,1,<img src='img/tf1_77_T1_ss1_md.jpeg'></img>,0,FALSE,NA,sub32
NA,html-keyboard-response,169,534189,0.0-10.0-0.77,"""event"",""trial"",""time""
""fullscreenenter"",""0"",""5990""
","
","
","""event"",""trial"",""time""
""fullscreenenter"",""0"",""5990""
","
",null,"<div style=""font-size:60px;"">+</div>",NA,null,fixation,2020-06-29T01:26:21Z,NA,NA,NA,NA,NA,sub32
NA,mars-trial,170,535398,0.0-10.0-1.77,"""event"",""trial"",""time""
""fullscreenenter"",""0"",""5990""
","
","
","""event"",""trial"",""time""
""fullscreenenter"",""0"",""5990""
","
",594.3399999960093,<img style='border: 4px solid darkgrey;' src='img/tf1_78_M_ss2.jpeg'></img>,2,NA,exp,NA,0,<img src='img/tf1_78_T1_ss2_md.jpeg'></img>,0,TRUE,NA,sub32
NA,html-keyboard-response,171,535901,0.0-10.0-0.78,"""event"",""trial"",""time""
""fullscreenenter"",""0"",""5990""
","
","
","""event"",""trial"",""time""
""fullscreenenter"",""0"",""5990""
","
",null,"<div style=""font-size:60px;"">+</div>",NA,null,fixation,2020-06-29T01:26:23Z,NA,NA,NA,NA,NA,sub32
NA,mars-trial,172,537382,0.0-10.0-1.78,"""event"",""trial"",""time""
""fullscreenenter"",""0"",""5990""
","
","
","""event"",""trial"",""time""
""fullscreenenter"",""0"",""5990""
","
",866.7100000020582,<img style='border: 4px solid darkgrey;' src='img/tf1_79_M_ss3.jpeg'></img>,2,NA,exp,NA,2,<img src='img/tf1_79_T1_ss3_md.jpeg'></img>,0,FALSE,NA,sub32
NA,html-keyboard-response,173,537894,0.0-10.0-0.79,"""event"",""trial"",""time""
""fullscreenenter"",""0"",""5990""
","
","
","""event"",""trial"",""time""
""fullscreenenter"",""0"",""5990""
","
",null,"<div style=""font-size:60px;"">+</div>",NA,null,fixation,2020-06-29T01:26:25Z,NA,NA,NA,NA,NA,sub32
NA,mars-trial,174,539054,0.0-10.0-1.79,"""event"",""trial"",""time""
""fullscreenenter"",""0"",""5990""
","
","
","""event"",""trial"",""time""
""fullscreenenter"",""0"",""5990""
","
",544.160000004922,<img style='border: 4px solid darkgrey;' src='img/tf1_80_M_ss1.jpeg'></img>,2,NA,exp,NA,0,<img src='img/tf1_80_T1_ss1_md.jpeg'></img>,0,TRUE,NA,sub32
NA,audio-button-response,175,543044,0.0-11.0,"""event"",""trial"",""time""
""fullscreenenter"",""0"",""5990""
","
","
","""event"",""trial"",""time""
""fullscreenenter"",""0"",""5990""
","
",3980.2350000099977,audio/mars_instructions_slide5.wav,0,NA,NA,NA,NA,NA,NA,NA,NA,sub32
