success,trial_type,trial_index,time_elapsed,internal_node_id,interactions,blur_events,focus_events,fullscreenenter_events,fullscreenexit_events,rt,stimulus,button_pressed,key_press,part,timestamp,unshuffled_button,correct_response,correct_button,correct,value,subject_id
TRUE,fullscreen,0,4120,0.0-0.0,"""event"",""trial"",""time""
""focus"",""0"",""1866""
""fullscreenenter"",""0"",""3153""
","
","""event"",""trial"",""time""
""focus"",""0"",""1866""
","""event"",""trial"",""time""
""fullscreenenter"",""0"",""3153""
","
",NA,NA,NA,NA,NA,NA,NA,NA,NA,NA,NA,sub131
NA,pavlovia,1,4123,0.0-1.0,"""event"",""trial"",""time""
""focus"",""0"",""1866""
""fullscreenenter"",""0"",""3153""
","
","""event"",""trial"",""time""
""focus"",""0"",""1866""
","""event"",""trial"",""time""
""fullscreenenter"",""0"",""3153""
","
",NA,NA,NA,NA,NA,NA,NA,NA,NA,NA,NA,sub131
NA,html-button-response,2,5318,0.0-2.0,"""event"",""trial"",""time""
""focus"",""0"",""1866""
""fullscreenenter"",""0"",""3153""
","
","""event"",""trial"",""time""
""focus"",""0"",""1866""
","""event"",""trial"",""time""
""fullscreenenter"",""0"",""3153""
","
",1193.410000007134,<p>Welcome! Press START to begin.</p><br>,0,NA,NA,NA,NA,NA,NA,NA,NA,sub131
NA,audio-button-response,3,14355,0.0-3.0,"""event"",""trial"",""time""
""focus"",""0"",""1866""
""fullscreenenter"",""0"",""3153""
","
","""event"",""trial"",""time""
""focus"",""0"",""1866""
","""event"",""trial"",""time""
""fullscreenenter"",""0"",""3153""
","
",9034.66499998467,audio/mars_instructions_slide2.wav,0,NA,NA,NA,NA,NA,NA,NA,NA,sub131
NA,audio-button-response,4,17149,0.0-4.0,"""event"",""trial"",""time""
""focus"",""0"",""1866""
""fullscreenenter"",""0"",""3153""
","
","""event"",""trial"",""time""
""focus"",""0"",""1866""
","""event"",""trial"",""time""
""fullscreenenter"",""0"",""3153""
","
",2793.340000032913,audio/mars_instructions_slide3.wav,0,NA,NA,NA,NA,NA,NA,NA,NA,sub131
NA,html-keyboard-response,5,17652,0.0-5.0-0.0,"""event"",""trial"",""time""
""focus"",""0"",""1866""
""fullscreenenter"",""0"",""3153""
","
","""event"",""trial"",""time""
""focus"",""0"",""1866""
","""event"",""trial"",""time""
""fullscreenenter"",""0"",""3153""
","
",null,"<div style=""font-size:60px;"">+</div>",NA,null,fixation,2020-06-20T15:27:19Z,NA,NA,NA,NA,NA,sub131
NA,mars-trial,6,23616,0.0-5.0-1.0,"""event"",""trial"",""time""
""focus"",""0"",""1866""
""fullscreenenter"",""0"",""3153""
","
","""event"",""trial"",""time""
""focus"",""0"",""1866""
","""event"",""trial"",""time""
""fullscreenenter"",""0"",""3153""
","
",3857.114999962505,<img style='border: 4px solid darkgrey;' src='practice/pt1_M1.png'></img>,3,NA,practice,NA,3,<img src='practice/pt1_T1.png'></img>,0,FALSE,NA,sub131
NA,html-keyboard-response,7,24119,0.0-5.1-0.1,"""event"",""trial"",""time""
""focus"",""0"",""1866""
""fullscreenenter"",""0"",""3153""
","
","""event"",""trial"",""time""
""focus"",""0"",""1866""
","""event"",""trial"",""time""
""fullscreenenter"",""0"",""3153""
","
",null,"<div style=""font-size:60px;"">+</div>",NA,null,fixation,2020-06-20T15:27:25Z,NA,NA,NA,NA,NA,sub131
NA,mars-trial,8,27801,0.0-5.1-1.1,"""event"",""trial"",""time""
""focus"",""0"",""1866""
""fullscreenenter"",""0"",""3153""
","
","""event"",""trial"",""time""
""focus"",""0"",""1866""
","""event"",""trial"",""time""
""fullscreenenter"",""0"",""3153""
","
",1573.1249999953434,<img style='border: 4px solid darkgrey;' src='practice/pt1_M1.png'></img>,3,NA,practice,NA,0,<img src='practice/pt1_T1.png'></img>,0,TRUE,NA,sub131
NA,html-keyboard-response,9,28305,0.0-6.0-0.0,"""event"",""trial"",""time""
""focus"",""0"",""1866""
""fullscreenenter"",""0"",""3153""
","
","""event"",""trial"",""time""
""focus"",""0"",""1866""
","""event"",""trial"",""time""
""fullscreenenter"",""0"",""3153""
","
",null,"<div style=""font-size:60px;"">+</div>",NA,null,fixation,2020-06-20T15:27:30Z,NA,NA,NA,NA,NA,sub131
NA,mars-trial,10,31919,0.0-6.0-1.0,"""event"",""trial"",""time""
""focus"",""0"",""1866""
""fullscreenenter"",""0"",""3153""
","
","""event"",""trial"",""time""
""focus"",""0"",""1866""
","""event"",""trial"",""time""
""fullscreenenter"",""0"",""3153""
","
",1503.8749999948777,<img style='border: 4px solid darkgrey;' src='practice/pt2_M1.png'></img>,2,NA,practice,NA,0,<img src='practice/pt2_T1.png'></img>,0,TRUE,NA,sub131
NA,html-keyboard-response,11,32420,0.0-7.0-0.0,"""event"",""trial"",""time""
""focus"",""0"",""1866""
""fullscreenenter"",""0"",""3153""
","
","""event"",""trial"",""time""
""focus"",""0"",""1866""
","""event"",""trial"",""time""
""fullscreenenter"",""0"",""3153""
","
",null,"<div style=""font-size:60px;"">+</div>",NA,null,fixation,2020-06-20T15:27:34Z,NA,NA,NA,NA,NA,sub131
NA,mars-trial,12,35648,0.0-7.0-1.0,"""event"",""trial"",""time""
""focus"",""0"",""1866""
""fullscreenenter"",""0"",""3153""
","
","""event"",""trial"",""time""
""focus"",""0"",""1866""
","""event"",""trial"",""time""
""fullscreenenter"",""0"",""3153""
","
",1121.7549999710172,<img style='border: 4px solid darkgrey;' src='practice/pt3_M1.png'></img>,2,NA,practice,NA,0,<img src='practice/pt3_T1.png'></img>,0,TRUE,NA,sub131
NA,audio-button-response,13,37417,0.0-8.0,"""event"",""trial"",""time""
""focus"",""0"",""1866""
""fullscreenenter"",""0"",""3153""
","
","""event"",""trial"",""time""
""focus"",""0"",""1866""
","""event"",""trial"",""time""
""fullscreenenter"",""0"",""3153""
","
",1766.8300000368617,audio/mars_instructions_slide4.wav,0,NA,NA,NA,NA,NA,NA,NA,NA,sub131
NA,call-function,14,37417,0.0-9.0,"""event"",""trial"",""time""
""focus"",""0"",""1866""
""fullscreenenter"",""0"",""3153""
","
","""event"",""trial"",""time""
""focus"",""0"",""1866""
","""event"",""trial"",""time""
""fullscreenenter"",""0"",""3153""
","
",NA,NA,NA,NA,NA,NA,NA,NA,NA,NA,NA,sub131
NA,html-keyboard-response,15,37921,0.0-10.0-0.0,"""event"",""trial"",""time""
""focus"",""0"",""1866""
""fullscreenenter"",""0"",""3153""
","
","""event"",""trial"",""time""
""focus"",""0"",""1866""
","""event"",""trial"",""time""
""fullscreenenter"",""0"",""3153""
","
",null,"<div style=""font-size:60px;"">+</div>",NA,null,fixation,2020-06-20T15:27:39Z,NA,NA,NA,NA,NA,sub131
NA,mars-trial,16,40037,0.0-10.0-1.0,"""event"",""trial"",""time""
""focus"",""0"",""1866""
""fullscreenenter"",""0"",""3153""
","
","""event"",""trial"",""time""
""focus"",""0"",""1866""
","""event"",""trial"",""time""
""fullscreenenter"",""0"",""3153""
","
",1508.034999947995,<img style='border: 4px solid darkgrey;' src='img/tf1_1_M_ss3.jpeg'></img>,0,NA,exp,NA,0,<img src='img/tf1_1_T1_ss3_md.jpeg'></img>,0,TRUE,NA,sub131
NA,html-keyboard-response,17,40540,0.0-10.0-0.1,"""event"",""trial"",""time""
""focus"",""0"",""1866""
""fullscreenenter"",""0"",""3153""
","
","""event"",""trial"",""time""
""focus"",""0"",""1866""
","""event"",""trial"",""time""
""fullscreenenter"",""0"",""3153""
","
",null,"<div style=""font-size:60px;"">+</div>",NA,null,fixation,2020-06-20T15:27:42Z,NA,NA,NA,NA,NA,sub131
NA,mars-trial,18,43371,0.0-10.0-1.1,"""event"",""trial"",""time""
""focus"",""0"",""1866""
""fullscreenenter"",""0"",""3153""
","
","""event"",""trial"",""time""
""focus"",""0"",""1866""
","""event"",""trial"",""time""
""fullscreenenter"",""0"",""3153""
","
",2219.2350000259466,<img style='border: 4px solid darkgrey;' src='img/tf1_2_M_ss1.jpeg'></img>,0,NA,exp,NA,0,<img src='img/tf1_2_T1_ss1_md.jpeg'></img>,0,TRUE,NA,sub131
NA,html-keyboard-response,19,43874,0.0-10.0-0.2,"""event"",""trial"",""time""
""focus"",""0"",""1866""
""fullscreenenter"",""0"",""3153""
","
","""event"",""trial"",""time""
""focus"",""0"",""1866""
","""event"",""trial"",""time""
""fullscreenenter"",""0"",""3153""
","
",null,"<div style=""font-size:60px;"">+</div>",NA,null,fixation,2020-06-20T15:27:45Z,NA,NA,NA,NA,NA,sub131
NA,mars-trial,20,46156,0.0-10.0-1.2,"""event"",""trial"",""time""
""focus"",""0"",""1866""
""fullscreenenter"",""0"",""3153""
","
","""event"",""trial"",""time""
""focus"",""0"",""1866""
","""event"",""trial"",""time""
""fullscreenenter"",""0"",""3153""
","
",1668.9900000346825,<img style='border: 4px solid darkgrey;' src='img/tf1_3_M_ss2.jpeg'></img>,2,NA,exp,NA,0,<img src='img/tf1_3_T1_ss2_md.jpeg'></img>,0,TRUE,NA,sub131
NA,html-keyboard-response,21,46660,0.0-10.0-0.3,"""event"",""trial"",""time""
""focus"",""0"",""1866""
""fullscreenenter"",""0"",""3153""
","
","""event"",""trial"",""time""
""focus"",""0"",""1866""
","""event"",""trial"",""time""
""fullscreenenter"",""0"",""3153""
","
",null,"<div style=""font-size:60px;"">+</div>",NA,null,fixation,2020-06-20T15:27:48Z,NA,NA,NA,NA,NA,sub131
NA,mars-trial,22,50062,0.0-10.0-1.3,"""event"",""trial"",""time""
""focus"",""0"",""1866""
""fullscreenenter"",""0"",""3153""
","
","""event"",""trial"",""time""
""focus"",""0"",""1866""
","""event"",""trial"",""time""
""fullscreenenter"",""0"",""3153""
","
",2794.3949999753386,<img style='border: 4px solid darkgrey;' src='img/tf1_4_M_ss3.jpeg'></img>,1,NA,exp,NA,0,<img src='img/tf1_4_T1_ss3_md.jpeg'></img>,0,TRUE,NA,sub131
NA,html-keyboard-response,23,50567,0.0-10.0-0.4,"""event"",""trial"",""time""
""focus"",""0"",""1866""
""fullscreenenter"",""0"",""3153""
","
","""event"",""trial"",""time""
""focus"",""0"",""1866""
","""event"",""trial"",""time""
""fullscreenenter"",""0"",""3153""
","
",null,"<div style=""font-size:60px;"">+</div>",NA,null,fixation,2020-06-20T15:27:52Z,NA,NA,NA,NA,NA,sub131
NA,mars-trial,24,52454,0.0-10.0-1.4,"""event"",""trial"",""time""
""focus"",""0"",""1866""
""fullscreenenter"",""0"",""3153""
","
","""event"",""trial"",""time""
""focus"",""0"",""1866""
","""event"",""trial"",""time""
""fullscreenenter"",""0"",""3153""
","
",1279.6849999576807,<img style='border: 4px solid darkgrey;' src='img/tf1_5_M_ss1.jpeg'></img>,3,NA,exp,NA,0,<img src='img/tf1_5_T1_ss1_md.jpeg'></img>,0,TRUE,NA,sub131
NA,html-keyboard-response,25,52957,0.0-10.0-0.5,"""event"",""trial"",""time""
""focus"",""0"",""1866""
""fullscreenenter"",""0"",""3153""
","
","""event"",""trial"",""time""
""focus"",""0"",""1866""
","""event"",""trial"",""time""
""fullscreenenter"",""0"",""3153""
","
",null,"<div style=""font-size:60px;"">+</div>",NA,null,fixation,2020-06-20T15:27:54Z,NA,NA,NA,NA,NA,sub131
NA,mars-trial,26,55875,0.0-10.0-1.5,"""event"",""trial"",""time""
""focus"",""0"",""1866""
""fullscreenenter"",""0"",""3153""
","
","""event"",""trial"",""time""
""focus"",""0"",""1866""
","""event"",""trial"",""time""
""fullscreenenter"",""0"",""3153""
","
",2310.890000022482,<img style='border: 4px solid darkgrey;' src='img/tf1_6_M_ss2.jpeg'></img>,2,NA,exp,NA,3,<img src='img/tf1_6_T1_ss2_md.jpeg'></img>,0,FALSE,NA,sub131
NA,html-keyboard-response,27,56376,0.0-10.0-0.6,"""event"",""trial"",""time""
""focus"",""0"",""1866""
""fullscreenenter"",""0"",""3153""
","
","""event"",""trial"",""time""
""focus"",""0"",""1866""
","""event"",""trial"",""time""
""fullscreenenter"",""0"",""3153""
","
",null,"<div style=""font-size:60px;"">+</div>",NA,null,fixation,2020-06-20T15:27:58Z,NA,NA,NA,NA,NA,sub131
NA,mars-trial,28,59555,0.0-10.0-1.6,"""event"",""trial"",""time""
""focus"",""0"",""1866""
""fullscreenenter"",""0"",""3153""
","
","""event"",""trial"",""time""
""focus"",""0"",""1866""
","""event"",""trial"",""time""
""fullscreenenter"",""0"",""3153""
","
",2574.5050000259653,<img style='border: 4px solid darkgrey;' src='img/tf1_7_M_ss3.jpeg'></img>,0,NA,exp,NA,0,<img src='img/tf1_7_T1_ss3_md.jpeg'></img>,0,TRUE,NA,sub131
NA,html-keyboard-response,29,60059,0.0-10.0-0.7,"""event"",""trial"",""time""
""focus"",""0"",""1866""
""fullscreenenter"",""0"",""3153""
","
","""event"",""trial"",""time""
""focus"",""0"",""1866""
","""event"",""trial"",""time""
""fullscreenenter"",""0"",""3153""
","
",null,"<div style=""font-size:60px;"">+</div>",NA,null,fixation,2020-06-20T15:28:01Z,NA,NA,NA,NA,NA,sub131
NA,mars-trial,30,66031,0.0-10.0-1.7,"""event"",""trial"",""time""
""focus"",""0"",""1866""
""fullscreenenter"",""0"",""3153""
","
","""event"",""trial"",""time""
""focus"",""0"",""1866""
","""event"",""trial"",""time""
""fullscreenenter"",""0"",""3153""
","
",5364.690000016708,<img style='border: 4px solid darkgrey;' src='img/tf1_8_M_ss1.jpeg'></img>,1,NA,exp,NA,0,<img src='img/tf1_8_T1_ss1_md.jpeg'></img>,0,TRUE,NA,sub131
NA,html-keyboard-response,31,66532,0.0-10.0-0.8,"""event"",""trial"",""time""
""focus"",""0"",""1866""
""fullscreenenter"",""0"",""3153""
","
","""event"",""trial"",""time""
""focus"",""0"",""1866""
","""event"",""trial"",""time""
""fullscreenenter"",""0"",""3153""
","
",null,"<div style=""font-size:60px;"">+</div>",NA,null,fixation,2020-06-20T15:28:08Z,NA,NA,NA,NA,NA,sub131
NA,mars-trial,32,69798,0.0-10.0-1.8,"""event"",""trial"",""time""
""focus"",""0"",""1866""
""fullscreenenter"",""0"",""3153""
","
","""event"",""trial"",""time""
""focus"",""0"",""1866""
","""event"",""trial"",""time""
""fullscreenenter"",""0"",""3153""
","
",2657.3199999984354,<img style='border: 4px solid darkgrey;' src='img/tf1_9_M_ss2.jpeg'></img>,0,NA,exp,NA,0,<img src='img/tf1_9_T1_ss2_md.jpeg'></img>,0,TRUE,NA,sub131
NA,html-keyboard-response,33,70302,0.0-10.0-0.9,"""event"",""trial"",""time""
""focus"",""0"",""1866""
""fullscreenenter"",""0"",""3153""
","
","""event"",""trial"",""time""
""focus"",""0"",""1866""
","""event"",""trial"",""time""
""fullscreenenter"",""0"",""3153""
","
",null,"<div style=""font-size:60px;"">+</div>",NA,null,fixation,2020-06-20T15:28:12Z,NA,NA,NA,NA,NA,sub131
NA,mars-trial,34,72906,0.0-10.0-1.9,"""event"",""trial"",""time""
""focus"",""0"",""1866""
""fullscreenenter"",""0"",""3153""
","
","""event"",""trial"",""time""
""focus"",""0"",""1866""
","""event"",""trial"",""time""
""fullscreenenter"",""0"",""3153""
","
",1995.2000000048429,<img style='border: 4px solid darkgrey;' src='img/tf1_10_M_ss3.jpeg'></img>,2,NA,exp,NA,0,<img src='img/tf1_10_T1_ss3_md.jpeg'></img>,0,TRUE,NA,sub131
NA,html-keyboard-response,35,73411,0.0-10.0-0.10,"""event"",""trial"",""time""
""focus"",""0"",""1866""
""fullscreenenter"",""0"",""3153""
","
","""event"",""trial"",""time""
""focus"",""0"",""1866""
","""event"",""trial"",""time""
""fullscreenenter"",""0"",""3153""
","
",null,"<div style=""font-size:60px;"">+</div>",NA,null,fixation,2020-06-20T15:28:15Z,NA,NA,NA,NA,NA,sub131
NA,mars-trial,36,76897,0.0-10.0-1.10,"""event"",""trial"",""time""
""focus"",""0"",""1866""
""fullscreenenter"",""0"",""3153""
","
","""event"",""trial"",""time""
""focus"",""0"",""1866""
","""event"",""trial"",""time""
""fullscreenenter"",""0"",""3153""
","
",2880.6900000199676,<img style='border: 4px solid darkgrey;' src='img/tf1_11_M_ss1.jpeg'></img>,2,NA,exp,NA,2,<img src='img/tf1_11_T1_ss1_md.jpeg'></img>,0,FALSE,NA,sub131
NA,html-keyboard-response,37,77399,0.0-10.0-0.11,"""event"",""trial"",""time""
""focus"",""0"",""1866""
""fullscreenenter"",""0"",""3153""
","
","""event"",""trial"",""time""
""focus"",""0"",""1866""
","""event"",""trial"",""time""
""fullscreenenter"",""0"",""3153""
","
",null,"<div style=""font-size:60px;"">+</div>",NA,null,fixation,2020-06-20T15:28:19Z,NA,NA,NA,NA,NA,sub131
NA,mars-trial,38,84108,0.0-10.0-1.11,"""event"",""trial"",""time""
""focus"",""0"",""1866""
""fullscreenenter"",""0"",""3153""
","
","""event"",""trial"",""time""
""focus"",""0"",""1866""
","""event"",""trial"",""time""
""fullscreenenter"",""0"",""3153""
","
",6099.939999985509,<img style='border: 4px solid darkgrey;' src='img/tf1_12_M_ss2.jpeg'></img>,2,NA,exp,NA,3,<img src='img/tf1_12_T1_ss2_md.jpeg'></img>,0,FALSE,NA,sub131
NA,html-keyboard-response,39,84615,0.0-10.0-0.12,"""event"",""trial"",""time""
""focus"",""0"",""1866""
""fullscreenenter"",""0"",""3153""
","
","""event"",""trial"",""time""
""focus"",""0"",""1866""
","""event"",""trial"",""time""
""fullscreenenter"",""0"",""3153""
","
",null,"<div style=""font-size:60px;"">+</div>",NA,null,fixation,2020-06-20T15:28:26Z,NA,NA,NA,NA,NA,sub131
NA,mars-trial,40,94637,0.0-10.0-1.12,"""event"",""trial"",""time""
""focus"",""0"",""1866""
""fullscreenenter"",""0"",""3153""
","
","""event"",""trial"",""time""
""focus"",""0"",""1866""
","""event"",""trial"",""time""
""fullscreenenter"",""0"",""3153""
","
",9411.045000015292,<img style='border: 4px solid darkgrey;' src='img/tf1_13_M_ss3.jpeg'></img>,1,NA,exp,NA,1,<img src='img/tf1_13_T1_ss3_md.jpeg'></img>,0,FALSE,NA,sub131
NA,html-keyboard-response,41,95141,0.0-10.0-0.13,"""event"",""trial"",""time""
""focus"",""0"",""1866""
""fullscreenenter"",""0"",""3153""
","
","""event"",""trial"",""time""
""focus"",""0"",""1866""
","""event"",""trial"",""time""
""fullscreenenter"",""0"",""3153""
","
",null,"<div style=""font-size:60px;"">+</div>",NA,null,fixation,2020-06-20T15:28:36Z,NA,NA,NA,NA,NA,sub131
NA,mars-trial,42,108011,0.0-10.0-1.13,"""event"",""trial"",""time""
""focus"",""0"",""1866""
""fullscreenenter"",""0"",""3153""
","
","""event"",""trial"",""time""
""focus"",""0"",""1866""
","""event"",""trial"",""time""
""fullscreenenter"",""0"",""3153""
","
",12261.455000028946,<img style='border: 4px solid darkgrey;' src='img/tf1_14_M_ss1.jpeg'></img>,3,NA,exp,NA,1,<img src='img/tf1_14_T1_ss1_md.jpeg'></img>,0,FALSE,NA,sub131
NA,html-keyboard-response,43,108514,0.0-10.0-0.14,"""event"",""trial"",""time""
""focus"",""0"",""1866""
""fullscreenenter"",""0"",""3153""
","
","""event"",""trial"",""time""
""focus"",""0"",""1866""
","""event"",""trial"",""time""
""fullscreenenter"",""0"",""3153""
","
",null,"<div style=""font-size:60px;"">+</div>",NA,null,fixation,2020-06-20T15:28:50Z,NA,NA,NA,NA,NA,sub131
NA,mars-trial,44,122646,0.0-10.0-1.14,"""event"",""trial"",""time""
""focus"",""0"",""1866""
""fullscreenenter"",""0"",""3153""
","
","""event"",""trial"",""time""
""focus"",""0"",""1866""
","""event"",""trial"",""time""
""fullscreenenter"",""0"",""3153""
","
",13522.999999986496,<img style='border: 4px solid darkgrey;' src='img/tf1_15_M_ss2.jpeg'></img>,3,NA,exp,NA,2,<img src='img/tf1_15_T1_ss2_md.jpeg'></img>,0,FALSE,NA,sub131
NA,html-keyboard-response,45,123152,0.0-10.0-0.15,"""event"",""trial"",""time""
""focus"",""0"",""1866""
""fullscreenenter"",""0"",""3153""
","
","""event"",""trial"",""time""
""focus"",""0"",""1866""
","""event"",""trial"",""time""
""fullscreenenter"",""0"",""3153""
","
",null,"<div style=""font-size:60px;"">+</div>",NA,null,fixation,2020-06-20T15:29:04Z,NA,NA,NA,NA,NA,sub131
NA,mars-trial,46,129937,0.0-10.0-1.15,"""event"",""trial"",""time""
""focus"",""0"",""1866""
""fullscreenenter"",""0"",""3153""
","
","""event"",""trial"",""time""
""focus"",""0"",""1866""
","""event"",""trial"",""time""
""fullscreenenter"",""0"",""3153""
","
",6172.604999970645,<img style='border: 4px solid darkgrey;' src='img/tf1_16_M_ss3.jpeg'></img>,3,NA,exp,NA,1,<img src='img/tf1_16_T1_ss3_md.jpeg'></img>,0,FALSE,NA,sub131
NA,html-keyboard-response,47,130443,0.0-10.0-0.16,"""event"",""trial"",""time""
""focus"",""0"",""1866""
""fullscreenenter"",""0"",""3153""
","
","""event"",""trial"",""time""
""focus"",""0"",""1866""
","""event"",""trial"",""time""
""fullscreenenter"",""0"",""3153""
","
",null,"<div style=""font-size:60px;"">+</div>",NA,null,fixation,2020-06-20T15:29:12Z,NA,NA,NA,NA,NA,sub131
NA,mars-trial,48,156992,0.0-10.0-1.16,"""event"",""trial"",""time""
""focus"",""0"",""1866""
""fullscreenenter"",""0"",""3153""
","
","""event"",""trial"",""time""
""focus"",""0"",""1866""
","""event"",""trial"",""time""
""fullscreenenter"",""0"",""3153""
","
",25941.04999996489,<img style='border: 4px solid darkgrey;' src='img/tf1_17_M_ss1.jpeg'></img>,0,NA,exp,NA,0,<img src='img/tf1_17_T1_ss1_md.jpeg'></img>,0,TRUE,NA,sub131
NA,html-keyboard-response,49,157496,0.0-10.0-0.17,"""event"",""trial"",""time""
""focus"",""0"",""1866""
""fullscreenenter"",""0"",""3153""
","
","""event"",""trial"",""time""
""focus"",""0"",""1866""
","""event"",""trial"",""time""
""fullscreenenter"",""0"",""3153""
","
",null,"<div style=""font-size:60px;"">+</div>",NA,null,fixation,2020-06-20T15:29:39Z,NA,NA,NA,NA,NA,sub131
NA,mars-trial,50,167416,0.0-10.0-1.17,"""event"",""trial"",""time""
""focus"",""0"",""1866""
""fullscreenenter"",""0"",""3153""
","
","""event"",""trial"",""time""
""focus"",""0"",""1866""
","""event"",""trial"",""time""
""fullscreenenter"",""0"",""3153""
","
",9313.795000023674,<img style='border: 4px solid darkgrey;' src='img/tf1_18_M_ss2.jpeg'></img>,2,NA,exp,NA,3,<img src='img/tf1_18_T1_ss2_md.jpeg'></img>,0,FALSE,NA,sub131
NA,html-keyboard-response,51,167923,0.0-10.0-0.18,"""event"",""trial"",""time""
""focus"",""0"",""1866""
""fullscreenenter"",""0"",""3153""
","
","""event"",""trial"",""time""
""focus"",""0"",""1866""
","""event"",""trial"",""time""
""fullscreenenter"",""0"",""3153""
","
",null,"<div style=""font-size:60px;"">+</div>",NA,null,fixation,2020-06-20T15:29:49Z,NA,NA,NA,NA,NA,sub131
NA,mars-trial,52,173587,0.0-10.0-1.18,"""event"",""trial"",""time""
""focus"",""0"",""1866""
""fullscreenenter"",""0"",""3153""
","
","""event"",""trial"",""time""
""focus"",""0"",""1866""
","""event"",""trial"",""time""
""fullscreenenter"",""0"",""3153""
","
",5053.914999996778,<img style='border: 4px solid darkgrey;' src='img/tf1_19_M_ss3.jpeg'></img>,3,NA,exp,NA,2,<img src='img/tf1_19_T1_ss3_md.jpeg'></img>,0,FALSE,NA,sub131
NA,html-keyboard-response,53,174088,0.0-10.0-0.19,"""event"",""trial"",""time""
""focus"",""0"",""1866""
""fullscreenenter"",""0"",""3153""
","
","""event"",""trial"",""time""
""focus"",""0"",""1866""
","""event"",""trial"",""time""
""fullscreenenter"",""0"",""3153""
","
",null,"<div style=""font-size:60px;"">+</div>",NA,null,fixation,2020-06-20T15:29:55Z,NA,NA,NA,NA,NA,sub131
NA,mars-trial,54,186217,0.0-10.0-1.19,"""event"",""trial"",""time""
""focus"",""0"",""1866""
""fullscreenenter"",""0"",""3153""
","
","""event"",""trial"",""time""
""focus"",""0"",""1866""
","""event"",""trial"",""time""
""fullscreenenter"",""0"",""3153""
","
",11522.869999986142,<img style='border: 4px solid darkgrey;' src='img/tf1_20_M_ss1.jpeg'></img>,1,NA,exp,NA,0,<img src='img/tf1_20_T1_ss1_md.jpeg'></img>,0,TRUE,NA,sub131
NA,html-keyboard-response,55,186720,0.0-10.0-0.20,"""event"",""trial"",""time""
""focus"",""0"",""1866""
""fullscreenenter"",""0"",""3153""
","
","""event"",""trial"",""time""
""focus"",""0"",""1866""
","""event"",""trial"",""time""
""fullscreenenter"",""0"",""3153""
","
",null,"<div style=""font-size:60px;"">+</div>",NA,null,fixation,2020-06-20T15:30:08Z,NA,NA,NA,NA,NA,sub131
NA,mars-trial,56,196368,0.0-10.0-1.20,"""event"",""trial"",""time""
""focus"",""0"",""1866""
""fullscreenenter"",""0"",""3153""
","
","""event"",""trial"",""time""
""focus"",""0"",""1866""
","""event"",""trial"",""time""
""fullscreenenter"",""0"",""3153""
","
",9038.704999955371,<img style='border: 4px solid darkgrey;' src='img/tf1_21_M_ss2.jpeg'></img>,0,NA,exp,NA,1,<img src='img/tf1_21_T1_ss2_md.jpeg'></img>,0,FALSE,NA,sub131
NA,html-keyboard-response,57,196873,0.0-10.0-0.21,"""event"",""trial"",""time""
""focus"",""0"",""1866""
""fullscreenenter"",""0"",""3153""
","
","""event"",""trial"",""time""
""focus"",""0"",""1866""
","""event"",""trial"",""time""
""fullscreenenter"",""0"",""3153""
","
",null,"<div style=""font-size:60px;"">+</div>",NA,null,fixation,2020-06-20T15:30:18Z,NA,NA,NA,NA,NA,sub131
NA,mars-trial,58,204565,0.0-10.0-1.21,"""event"",""trial"",""time""
""focus"",""0"",""1866""
""fullscreenenter"",""0"",""3153""
","
","""event"",""trial"",""time""
""focus"",""0"",""1866""
","""event"",""trial"",""time""
""fullscreenenter"",""0"",""3153""
","
",7081.6650000051595,<img style='border: 4px solid darkgrey;' src='img/tf1_22_M_ss3.jpeg'></img>,0,NA,exp,NA,2,<img src='img/tf1_22_T1_ss3_md.jpeg'></img>,0,FALSE,NA,sub131
NA,html-keyboard-response,59,205071,0.0-10.0-0.22,"""event"",""trial"",""time""
""focus"",""0"",""1866""
""fullscreenenter"",""0"",""3153""
","
","""event"",""trial"",""time""
""focus"",""0"",""1866""
","""event"",""trial"",""time""
""fullscreenenter"",""0"",""3153""
","
",null,"<div style=""font-size:60px;"">+</div>",NA,null,fixation,2020-06-20T15:30:26Z,NA,NA,NA,NA,NA,sub131
NA,mars-trial,60,213309,0.0-10.0-1.22,"""event"",""trial"",""time""
""focus"",""0"",""1866""
""fullscreenenter"",""0"",""3153""
","
","""event"",""trial"",""time""
""focus"",""0"",""1866""
","""event"",""trial"",""time""
""fullscreenenter"",""0"",""3153""
","
",7629.635000019334,<img style='border: 4px solid darkgrey;' src='img/tf1_23_M_ss1.jpeg'></img>,3,NA,exp,NA,0,<img src='img/tf1_23_T1_ss1_md.jpeg'></img>,0,TRUE,NA,sub131
NA,html-keyboard-response,61,213811,0.0-10.0-0.23,"""event"",""trial"",""time""
""focus"",""0"",""1866""
""fullscreenenter"",""0"",""3153""
","
","""event"",""trial"",""time""
""focus"",""0"",""1866""
","""event"",""trial"",""time""
""fullscreenenter"",""0"",""3153""
","
",null,"<div style=""font-size:60px;"">+</div>",NA,null,fixation,2020-06-20T15:30:35Z,NA,NA,NA,NA,NA,sub131
NA,mars-trial,62,226860,0.0-10.0-1.23,"""event"",""trial"",""time""
""focus"",""0"",""1866""
""fullscreenenter"",""0"",""3153""
","
","""event"",""trial"",""time""
""focus"",""0"",""1866""
","""event"",""trial"",""time""
""fullscreenenter"",""0"",""3153""
","
",12437.440000008792,<img style='border: 4px solid darkgrey;' src='img/tf1_24_M_ss2.jpeg'></img>,3,NA,exp,NA,2,<img src='img/tf1_24_T1_ss2_md.jpeg'></img>,0,FALSE,NA,sub131
NA,html-keyboard-response,63,227365,0.0-10.0-0.24,"""event"",""trial"",""time""
""focus"",""0"",""1866""
""fullscreenenter"",""0"",""3153""
","
","""event"",""trial"",""time""
""focus"",""0"",""1866""
","""event"",""trial"",""time""
""fullscreenenter"",""0"",""3153""
","
",null,"<div style=""font-size:60px;"">+</div>",NA,null,fixation,2020-06-20T15:30:49Z,NA,NA,NA,NA,NA,sub131
NA,mars-trial,64,232852,0.0-10.0-1.24,"""event"",""trial"",""time""
""focus"",""0"",""1866""
""fullscreenenter"",""0"",""3153""
","
","""event"",""trial"",""time""
""focus"",""0"",""1866""
","""event"",""trial"",""time""
""fullscreenenter"",""0"",""3153""
","
",4874.224999977741,<img style='border: 4px solid darkgrey;' src='img/tf1_25_M_ss3.jpeg'></img>,3,NA,exp,NA,1,<img src='img/tf1_25_T1_ss3_md.jpeg'></img>,0,FALSE,NA,sub131
NA,html-keyboard-response,65,233357,0.0-10.0-0.25,"""event"",""trial"",""time""
""focus"",""0"",""1866""
""fullscreenenter"",""0"",""3153""
","
","""event"",""trial"",""time""
""focus"",""0"",""1866""
","""event"",""trial"",""time""
""fullscreenenter"",""0"",""3153""
","
",null,"<div style=""font-size:60px;"">+</div>",NA,null,fixation,2020-06-20T15:30:55Z,NA,NA,NA,NA,NA,sub131
NA,mars-trial,66,249691,0.0-10.0-1.25,"""event"",""trial"",""time""
""focus"",""0"",""1866""
""fullscreenenter"",""0"",""3153""
","
","""event"",""trial"",""time""
""focus"",""0"",""1866""
","""event"",""trial"",""time""
""fullscreenenter"",""0"",""3153""
","
",15719.854999973904,<img style='border: 4px solid darkgrey;' src='img/tf1_26_M_ss1.jpeg'></img>,3,NA,exp,NA,1,<img src='img/tf1_26_T1_ss1_md.jpeg'></img>,0,FALSE,NA,sub131
NA,html-keyboard-response,67,250197,0.0-10.0-0.26,"""event"",""trial"",""time""
""focus"",""0"",""1866""
""fullscreenenter"",""0"",""3153""
","
","""event"",""trial"",""time""
""focus"",""0"",""1866""
","""event"",""trial"",""time""
""fullscreenenter"",""0"",""3153""
","
",null,"<div style=""font-size:60px;"">+</div>",NA,null,fixation,2020-06-20T15:31:11Z,NA,NA,NA,NA,NA,sub131
NA,mars-trial,68,265735,0.0-10.0-1.26,"""event"",""trial"",""time""
""focus"",""0"",""1866""
""fullscreenenter"",""0"",""3153""
","
","""event"",""trial"",""time""
""focus"",""0"",""1866""
","""event"",""trial"",""time""
""fullscreenenter"",""0"",""3153""
","
",14926.299999991897,<img style='border: 4px solid darkgrey;' src='img/tf1_27_M_ss2.jpeg'></img>,1,NA,exp,NA,0,<img src='img/tf1_27_T1_ss2_md.jpeg'></img>,0,TRUE,NA,sub131
NA,html-keyboard-response,69,266238,0.0-10.0-0.27,"""event"",""trial"",""time""
""focus"",""0"",""1866""
""fullscreenenter"",""0"",""3153""
","
","""event"",""trial"",""time""
""focus"",""0"",""1866""
","""event"",""trial"",""time""
""fullscreenenter"",""0"",""3153""
","
",null,"<div style=""font-size:60px;"">+</div>",NA,null,fixation,2020-06-20T15:31:28Z,NA,NA,NA,NA,NA,sub131
NA,mars-trial,70,277468,0.0-10.0-1.27,"""event"",""trial"",""time""
""focus"",""0"",""1866""
""fullscreenenter"",""0"",""3153""
","
","""event"",""trial"",""time""
""focus"",""0"",""1866""
","""event"",""trial"",""time""
""fullscreenenter"",""0"",""3153""
","
",10622.080000001006,<img style='border: 4px solid darkgrey;' src='img/tf1_28_M_ss3.jpeg'></img>,1,NA,exp,NA,0,<img src='img/tf1_28_T1_ss3_md.jpeg'></img>,0,TRUE,NA,sub131
NA,html-keyboard-response,71,277969,0.0-10.0-0.28,"""event"",""trial"",""time""
""focus"",""0"",""1866""
""fullscreenenter"",""0"",""3153""
","
","""event"",""trial"",""time""
""focus"",""0"",""1866""
","""event"",""trial"",""time""
""fullscreenenter"",""0"",""3153""
","
",null,"<div style=""font-size:60px;"">+</div>",NA,null,fixation,2020-06-20T15:31:39Z,NA,NA,NA,NA,NA,sub131
NA,mars-trial,72,289847,0.0-10.0-1.28,"""event"",""trial"",""time""
""focus"",""0"",""1866""
""fullscreenenter"",""0"",""3153""
","
","""event"",""trial"",""time""
""focus"",""0"",""1866""
","""event"",""trial"",""time""
""fullscreenenter"",""0"",""3153""
","
",11262.779999990016,<img style='border: 4px solid darkgrey;' src='img/tf1_29_M_ss1.jpeg'></img>,3,NA,exp,NA,1,<img src='img/tf1_29_T1_ss1_md.jpeg'></img>,0,FALSE,NA,sub131
NA,html-keyboard-response,73,290349,0.0-10.0-0.29,"""event"",""trial"",""time""
""focus"",""0"",""1866""
""fullscreenenter"",""0"",""3153""
","
","""event"",""trial"",""time""
""focus"",""0"",""1866""
","""event"",""trial"",""time""
""fullscreenenter"",""0"",""3153""
","
",null,"<div style=""font-size:60px;"">+</div>",NA,null,fixation,2020-06-20T15:31:52Z,NA,NA,NA,NA,NA,sub131
NA,mars-trial,74,306683,0.0-10.0-1.29,"""event"",""trial"",""time""
""focus"",""0"",""1866""
""fullscreenenter"",""0"",""3153""
","
","""event"",""trial"",""time""
""focus"",""0"",""1866""
","""event"",""trial"",""time""
""fullscreenenter"",""0"",""3153""
","
",15724.489999993239,<img style='border: 4px solid darkgrey;' src='img/tf1_30_M_ss2.jpeg'></img>,2,NA,exp,NA,1,<img src='img/tf1_30_T1_ss2_md.jpeg'></img>,0,FALSE,NA,sub131
NA,html-keyboard-response,75,307187,0.0-10.0-0.30,"""event"",""trial"",""time""
""focus"",""0"",""1866""
""fullscreenenter"",""0"",""3153""
","
","""event"",""trial"",""time""
""focus"",""0"",""1866""
","""event"",""trial"",""time""
""fullscreenenter"",""0"",""3153""
","
",null,"<div style=""font-size:60px;"">+</div>",NA,null,fixation,2020-06-20T15:32:08Z,NA,NA,NA,NA,NA,sub131
NA,mars-trial,76,312761,0.0-10.0-1.30,"""event"",""trial"",""time""
""focus"",""0"",""1866""
""fullscreenenter"",""0"",""3153""
","
","""event"",""trial"",""time""
""focus"",""0"",""1866""
","""event"",""trial"",""time""
""fullscreenenter"",""0"",""3153""
","
",4964.370000001509,<img style='border: 4px solid darkgrey;' src='img/tf1_31_M_ss3.jpeg'></img>,0,NA,exp,NA,1,<img src='img/tf1_31_T1_ss3_md.jpeg'></img>,0,FALSE,NA,sub131
NA,html-keyboard-response,77,313266,0.0-10.0-0.31,"""event"",""trial"",""time""
""focus"",""0"",""1866""
""fullscreenenter"",""0"",""3153""
","
","""event"",""trial"",""time""
""focus"",""0"",""1866""
","""event"",""trial"",""time""
""fullscreenenter"",""0"",""3153""
","
",null,"<div style=""font-size:60px;"">+</div>",NA,null,fixation,2020-06-20T15:32:15Z,NA,NA,NA,NA,NA,sub131
NA,mars-trial,78,322600,0.0-10.0-1.31,"""event"",""trial"",""time""
""focus"",""0"",""1866""
""fullscreenenter"",""0"",""3153""
","
","""event"",""trial"",""time""
""focus"",""0"",""1866""
","""event"",""trial"",""time""
""fullscreenenter"",""0"",""3153""
","
",8720.354999997653,<img style='border: 4px solid darkgrey;' src='img/tf1_32_M_ss1.jpeg'></img>,1,NA,exp,NA,1,<img src='img/tf1_32_T1_ss1_md.jpeg'></img>,0,FALSE,NA,sub131
NA,html-keyboard-response,79,323104,0.0-10.0-0.32,"""event"",""trial"",""time""
""focus"",""0"",""1866""
""fullscreenenter"",""0"",""3153""
","
","""event"",""trial"",""time""
""focus"",""0"",""1866""
","""event"",""trial"",""time""
""fullscreenenter"",""0"",""3153""
","
",null,"<div style=""font-size:60px;"">+</div>",NA,null,fixation,2020-06-20T15:32:24Z,NA,NA,NA,NA,NA,sub131
NA,mars-trial,80,332468,0.0-10.0-1.32,"""event"",""trial"",""time""
""focus"",""0"",""1866""
""fullscreenenter"",""0"",""3153""
","
","""event"",""trial"",""time""
""focus"",""0"",""1866""
","""event"",""trial"",""time""
""fullscreenenter"",""0"",""3153""
","
",8755.394999985583,<img style='border: 4px solid darkgrey;' src='img/tf1_33_M_ss2.jpeg'></img>,1,NA,exp,NA,2,<img src='img/tf1_33_T1_ss2_md.jpeg'></img>,0,FALSE,NA,sub131
NA,html-keyboard-response,81,332973,0.0-10.0-0.33,"""event"",""trial"",""time""
""focus"",""0"",""1866""
""fullscreenenter"",""0"",""3153""
","
","""event"",""trial"",""time""
""focus"",""0"",""1866""
","""event"",""trial"",""time""
""fullscreenenter"",""0"",""3153""
","
",null,"<div style=""font-size:60px;"">+</div>",NA,null,fixation,2020-06-20T15:32:34Z,NA,NA,NA,NA,NA,sub131
NA,mars-trial,82,337397,0.0-10.0-1.33,"""event"",""trial"",""time""
""focus"",""0"",""1866""
""fullscreenenter"",""0"",""3153""
","
","""event"",""trial"",""time""
""focus"",""0"",""1866""
","""event"",""trial"",""time""
""fullscreenenter"",""0"",""3153""
","
",3812.340000004042,<img style='border: 4px solid darkgrey;' src='img/tf1_34_M_ss3.jpeg'></img>,3,NA,exp,NA,3,<img src='img/tf1_34_T1_ss3_md.jpeg'></img>,0,FALSE,NA,sub131
NA,html-keyboard-response,83,337903,0.0-10.0-0.34,"""event"",""trial"",""time""
""focus"",""0"",""1866""
""fullscreenenter"",""0"",""3153""
","
","""event"",""trial"",""time""
""focus"",""0"",""1866""
","""event"",""trial"",""time""
""fullscreenenter"",""0"",""3153""
","
",null,"<div style=""font-size:60px;"">+</div>",NA,null,fixation,2020-06-20T15:32:39Z,NA,NA,NA,NA,NA,sub131
NA,mars-trial,84,348242,0.0-10.0-1.34,"""event"",""trial"",""time""
""focus"",""0"",""1866""
""fullscreenenter"",""0"",""3153""
","
","""event"",""trial"",""time""
""focus"",""0"",""1866""
","""event"",""trial"",""time""
""fullscreenenter"",""0"",""3153""
","
",9725.24500003783,<img style='border: 4px solid darkgrey;' src='img/tf1_35_M_ss1.jpeg'></img>,2,NA,exp,NA,2,<img src='img/tf1_35_T1_ss1_md.jpeg'></img>,0,FALSE,NA,sub131
NA,html-keyboard-response,85,348748,0.0-10.0-0.35,"""event"",""trial"",""time""
""focus"",""0"",""1866""
""fullscreenenter"",""0"",""3153""
","
","""event"",""trial"",""time""
""focus"",""0"",""1866""
","""event"",""trial"",""time""
""fullscreenenter"",""0"",""3153""
","
",null,"<div style=""font-size:60px;"">+</div>",NA,null,fixation,2020-06-20T15:32:50Z,NA,NA,NA,NA,NA,sub131
NA,mars-trial,86,360883,0.0-10.0-1.35,"""event"",""trial"",""time""
""focus"",""0"",""1866""
""fullscreenenter"",""0"",""3153""
","
","""event"",""trial"",""time""
""focus"",""0"",""1866""
","""event"",""trial"",""time""
""fullscreenenter"",""0"",""3153""
","
",11527.230000006966,<img style='border: 4px solid darkgrey;' src='img/tf1_36_M_ss2.jpeg'></img>,2,NA,exp,NA,0,<img src='img/tf1_36_T1_ss2_md.jpeg'></img>,0,TRUE,NA,sub131
NA,html-keyboard-response,87,361386,0.0-10.0-0.36,"""event"",""trial"",""time""
""focus"",""0"",""1866""
""fullscreenenter"",""0"",""3153""
","
","""event"",""trial"",""time""
""focus"",""0"",""1866""
","""event"",""trial"",""time""
""fullscreenenter"",""0"",""3153""
","
",null,"<div style=""font-size:60px;"">+</div>",NA,null,fixation,2020-06-20T15:33:03Z,NA,NA,NA,NA,NA,sub131
NA,mars-trial,88,370377,0.0-10.0-1.36,"""event"",""trial"",""time""
""focus"",""0"",""1866""
""fullscreenenter"",""0"",""3153""
","
","""event"",""trial"",""time""
""focus"",""0"",""1866""
","""event"",""trial"",""time""
""fullscreenenter"",""0"",""3153""
","
",8380.660000024363,<img style='border: 4px solid darkgrey;' src='img/tf1_37_M_ss3.jpeg'></img>,3,NA,exp,NA,1,<img src='img/tf1_37_T1_ss3_md.jpeg'></img>,0,FALSE,NA,sub131
NA,html-keyboard-response,89,370882,0.0-10.0-0.37,"""event"",""trial"",""time""
""focus"",""0"",""1866""
""fullscreenenter"",""0"",""3153""
","
","""event"",""trial"",""time""
""focus"",""0"",""1866""
","""event"",""trial"",""time""
""fullscreenenter"",""0"",""3153""
","
",null,"<div style=""font-size:60px;"">+</div>",NA,null,fixation,2020-06-20T15:33:12Z,NA,NA,NA,NA,NA,sub131
NA,mars-trial,90,379643,0.0-10.0-1.37,"""event"",""trial"",""time""
""focus"",""0"",""1866""
""fullscreenenter"",""0"",""3153""
","
","""event"",""trial"",""time""
""focus"",""0"",""1866""
","""event"",""trial"",""time""
""fullscreenenter"",""0"",""3153""
","
",8149.414999992587,<img style='border: 4px solid darkgrey;' src='img/tf1_38_M_ss1.jpeg'></img>,0,NA,exp,NA,0,<img src='img/tf1_38_T1_ss1_md.jpeg'></img>,0,TRUE,NA,sub131
NA,html-keyboard-response,91,380148,0.0-10.0-0.38,"""event"",""trial"",""time""
""focus"",""0"",""1866""
""fullscreenenter"",""0"",""3153""
","
","""event"",""trial"",""time""
""focus"",""0"",""1866""
","""event"",""trial"",""time""
""fullscreenenter"",""0"",""3153""
","
",null,"<div style=""font-size:60px;"">+</div>",NA,null,fixation,2020-06-20T15:33:21Z,NA,NA,NA,NA,NA,sub131
NA,mars-trial,92,393317,0.0-10.0-1.38,"""event"",""trial"",""time""
""focus"",""0"",""1866""
""fullscreenenter"",""0"",""3153""
","
","""event"",""trial"",""time""
""focus"",""0"",""1866""
","""event"",""trial"",""time""
""fullscreenenter"",""0"",""3153""
","
",12556.250000023283,<img style='border: 4px solid darkgrey;' src='img/tf1_39_M_ss2.jpeg'></img>,0,NA,exp,NA,0,<img src='img/tf1_39_T1_ss2_md.jpeg'></img>,0,TRUE,NA,sub131
NA,html-keyboard-response,93,393820,0.0-10.0-0.39,"""event"",""trial"",""time""
""focus"",""0"",""1866""
""fullscreenenter"",""0"",""3153""
","
","""event"",""trial"",""time""
""focus"",""0"",""1866""
","""event"",""trial"",""time""
""fullscreenenter"",""0"",""3153""
","
",null,"<div style=""font-size:60px;"">+</div>",NA,null,fixation,2020-06-20T15:33:35Z,NA,NA,NA,NA,NA,sub131
NA,mars-trial,94,404343,0.0-10.0-1.39,"""event"",""trial"",""time""
""focus"",""0"",""1866""
""fullscreenenter"",""0"",""3153""
","
","""event"",""trial"",""time""
""focus"",""0"",""1866""
","""event"",""trial"",""time""
""fullscreenenter"",""0"",""3153""
","
",9912.795000011101,<img style='border: 4px solid darkgrey;' src='img/tf1_40_M_ss3.jpeg'></img>,3,NA,exp,NA,0,<img src='img/tf1_40_T1_ss3_md.jpeg'></img>,0,TRUE,NA,sub131
NA,html-keyboard-response,95,404847,0.0-10.0-0.40,"""event"",""trial"",""time""
""focus"",""0"",""1866""
""fullscreenenter"",""0"",""3153""
","
","""event"",""trial"",""time""
""focus"",""0"",""1866""
","""event"",""trial"",""time""
""fullscreenenter"",""0"",""3153""
","
",null,"<div style=""font-size:60px;"">+</div>",NA,null,fixation,2020-06-20T15:33:46Z,NA,NA,NA,NA,NA,sub131
NA,mars-trial,96,408252,0.0-10.0-1.40,"""event"",""trial"",""time""
""focus"",""0"",""1866""
""fullscreenenter"",""0"",""3153""
","
","""event"",""trial"",""time""
""focus"",""0"",""1866""
","""event"",""trial"",""time""
""fullscreenenter"",""0"",""3153""
","
",2793.599999975413,<img style='border: 4px solid darkgrey;' src='img/tf1_41_M_ss1.jpeg'></img>,2,NA,exp,NA,0,<img src='img/tf1_41_T1_ss1_md.jpeg'></img>,0,TRUE,NA,sub131
NA,html-keyboard-response,97,408755,0.0-10.0-0.41,"""event"",""trial"",""time""
""focus"",""0"",""1866""
""fullscreenenter"",""0"",""3153""
","
","""event"",""trial"",""time""
""focus"",""0"",""1866""
","""event"",""trial"",""time""
""fullscreenenter"",""0"",""3153""
","
",null,"<div style=""font-size:60px;"">+</div>",NA,null,fixation,2020-06-20T15:33:50Z,NA,NA,NA,NA,NA,sub131
NA,mars-trial,98,417907,0.0-10.0-1.41,"""event"",""trial"",""time""
""focus"",""0"",""1866""
""fullscreenenter"",""0"",""3153""
","
","""event"",""trial"",""time""
""focus"",""0"",""1866""
","""event"",""trial"",""time""
""fullscreenenter"",""0"",""3153""
","
",8541.18500003824,<img style='border: 4px solid darkgrey;' src='img/tf1_42_M_ss2.jpeg'></img>,1,NA,exp,NA,3,<img src='img/tf1_42_T1_ss2_md.jpeg'></img>,0,FALSE,NA,sub131
NA,html-keyboard-response,99,418410,0.0-10.0-0.42,"""event"",""trial"",""time""
""focus"",""0"",""1866""
""fullscreenenter"",""0"",""3153""
","
","""event"",""trial"",""time""
""focus"",""0"",""1866""
","""event"",""trial"",""time""
""fullscreenenter"",""0"",""3153""
","
",null,"<div style=""font-size:60px;"">+</div>",NA,null,fixation,2020-06-20T15:34:00Z,NA,NA,NA,NA,NA,sub131
NA,mars-trial,100,422896,0.0-10.0-1.42,"""event"",""trial"",""time""
""focus"",""0"",""1866""
""fullscreenenter"",""0"",""3153""
","
","""event"",""trial"",""time""
""focus"",""0"",""1866""
","""event"",""trial"",""time""
""fullscreenenter"",""0"",""3153""
","
",3875.8950000046752,<img style='border: 4px solid darkgrey;' src='img/tf1_43_M_ss3.jpeg'></img>,3,NA,exp,NA,0,<img src='img/tf1_43_T1_ss3_md.jpeg'></img>,0,TRUE,NA,sub131
NA,html-keyboard-response,101,423399,0.0-10.0-0.43,"""event"",""trial"",""time""
""focus"",""0"",""1866""
""fullscreenenter"",""0"",""3153""
","
","""event"",""trial"",""time""
""focus"",""0"",""1866""
","""event"",""trial"",""time""
""fullscreenenter"",""0"",""3153""
","
",null,"<div style=""font-size:60px;"">+</div>",NA,null,fixation,2020-06-20T15:34:05Z,NA,NA,NA,NA,NA,sub131
NA,mars-trial,102,438672,0.0-10.0-1.43,"""event"",""trial"",""time""
""focus"",""0"",""1866""
""fullscreenenter"",""0"",""3153""
","
","""event"",""trial"",""time""
""focus"",""0"",""1866""
","""event"",""trial"",""time""
""fullscreenenter"",""0"",""3153""
","
",14662.419999949634,<img style='border: 4px solid darkgrey;' src='img/tf1_44_M_ss1.jpeg'></img>,0,NA,exp,NA,3,<img src='img/tf1_44_T1_ss1_md.jpeg'></img>,0,FALSE,NA,sub131
NA,html-keyboard-response,103,439177,0.0-10.0-0.44,"""event"",""trial"",""time""
""focus"",""0"",""1866""
""fullscreenenter"",""0"",""3153""
","
","""event"",""trial"",""time""
""focus"",""0"",""1866""
","""event"",""trial"",""time""
""fullscreenenter"",""0"",""3153""
","
",null,"<div style=""font-size:60px;"">+</div>",NA,null,fixation,2020-06-20T15:34:20Z,NA,NA,NA,NA,NA,sub131
NA,mars-trial,104,451569,0.0-10.0-1.44,"""event"",""trial"",""time""
""focus"",""0"",""1866""
""fullscreenenter"",""0"",""3153""
","
","""event"",""trial"",""time""
""focus"",""0"",""1866""
","""event"",""trial"",""time""
""fullscreenenter"",""0"",""3153""
","
",11785.460000042804,<img style='border: 4px solid darkgrey;' src='img/tf1_45_M_ss2.jpeg'></img>,0,NA,exp,NA,2,<img src='img/tf1_45_T1_ss2_md.jpeg'></img>,0,FALSE,NA,sub131
NA,html-keyboard-response,105,452076,0.0-10.0-0.45,"""event"",""trial"",""time""
""focus"",""0"",""1866""
""fullscreenenter"",""0"",""3153""
","
","""event"",""trial"",""time""
""focus"",""0"",""1866""
","""event"",""trial"",""time""
""fullscreenenter"",""0"",""3153""
","
",null,"<div style=""font-size:60px;"">+</div>",NA,null,fixation,2020-06-20T15:34:33Z,NA,NA,NA,NA,NA,sub131
NA,mars-trial,106,459702,0.0-10.0-1.45,"""event"",""trial"",""time""
""focus"",""0"",""1866""
""fullscreenenter"",""0"",""3153""
","
","""event"",""trial"",""time""
""focus"",""0"",""1866""
","""event"",""trial"",""time""
""fullscreenenter"",""0"",""3153""
","
",7014.90999996895,<img style='border: 4px solid darkgrey;' src='img/tf1_46_M_ss3.jpeg'></img>,1,NA,exp,NA,1,<img src='img/tf1_46_T1_ss3_md.jpeg'></img>,0,FALSE,NA,sub131
NA,html-keyboard-response,107,460206,0.0-10.0-0.46,"""event"",""trial"",""time""
""focus"",""0"",""1866""
""fullscreenenter"",""0"",""3153""
","
","""event"",""trial"",""time""
""focus"",""0"",""1866""
","""event"",""trial"",""time""
""fullscreenenter"",""0"",""3153""
","
",null,"<div style=""font-size:60px;"">+</div>",NA,null,fixation,2020-06-20T15:34:42Z,NA,NA,NA,NA,NA,sub131
NA,mars-trial,108,464503,0.0-10.0-1.46,"""event"",""trial"",""time""
""focus"",""0"",""1866""
""fullscreenenter"",""0"",""3153""
","
","""event"",""trial"",""time""
""focus"",""0"",""1866""
","""event"",""trial"",""time""
""fullscreenenter"",""0"",""3153""
","
",3685.590000008233,<img style='border: 4px solid darkgrey;' src='img/tf1_47_M_ss1.jpeg'></img>,2,NA,exp,NA,0,<img src='img/tf1_47_T1_ss1_md.jpeg'></img>,0,TRUE,NA,sub131
NA,html-keyboard-response,109,465007,0.0-10.0-0.47,"""event"",""trial"",""time""
""focus"",""0"",""1866""
""fullscreenenter"",""0"",""3153""
","
","""event"",""trial"",""time""
""focus"",""0"",""1866""
","""event"",""trial"",""time""
""fullscreenenter"",""0"",""3153""
","
",null,"<div style=""font-size:60px;"">+</div>",NA,null,fixation,2020-06-20T15:34:46Z,NA,NA,NA,NA,NA,sub131
NA,mars-trial,110,475844,0.0-10.0-1.47,"""event"",""trial"",""time""
""focus"",""0"",""1866""
""fullscreenenter"",""0"",""3153""
","
","""event"",""trial"",""time""
""focus"",""0"",""1866""
","""event"",""trial"",""time""
""fullscreenenter"",""0"",""3153""
","
",10228.085000009742,<img style='border: 4px solid darkgrey;' src='img/tf1_48_M_ss2.jpeg'></img>,2,NA,exp,NA,0,<img src='img/tf1_48_T1_ss2_md.jpeg'></img>,0,TRUE,NA,sub131
NA,html-keyboard-response,111,476351,0.0-10.0-0.48,"""event"",""trial"",""time""
""focus"",""0"",""1866""
""fullscreenenter"",""0"",""3153""
","
","""event"",""trial"",""time""
""focus"",""0"",""1866""
","""event"",""trial"",""time""
""fullscreenenter"",""0"",""3153""
","
",null,"<div style=""font-size:60px;"">+</div>",NA,null,fixation,2020-06-20T15:34:58Z,NA,NA,NA,NA,NA,sub131
NA,mars-trial,112,481755,0.0-10.0-1.48,"""event"",""trial"",""time""
""focus"",""0"",""1866""
""fullscreenenter"",""0"",""3153""
","
","""event"",""trial"",""time""
""focus"",""0"",""1866""
","""event"",""trial"",""time""
""fullscreenenter"",""0"",""3153""
","
",4792.650000017602,<img style='border: 4px solid darkgrey;' src='img/tf1_49_M_ss3.jpeg'></img>,3,NA,exp,NA,0,<img src='img/tf1_49_T1_ss3_md.jpeg'></img>,0,TRUE,NA,sub131
NA,html-keyboard-response,113,482259,0.0-10.0-0.49,"""event"",""trial"",""time""
""focus"",""0"",""1866""
""fullscreenenter"",""0"",""3153""
","
","""event"",""trial"",""time""
""focus"",""0"",""1866""
","""event"",""trial"",""time""
""fullscreenenter"",""0"",""3153""
","
",null,"<div style=""font-size:60px;"">+</div>",NA,null,fixation,2020-06-20T15:35:04Z,NA,NA,NA,NA,NA,sub131
NA,mars-trial,114,491833,0.0-10.0-1.49,"""event"",""trial"",""time""
""focus"",""0"",""1866""
""fullscreenenter"",""0"",""3153""
","
","""event"",""trial"",""time""
""focus"",""0"",""1866""
","""event"",""trial"",""time""
""fullscreenenter"",""0"",""3153""
","
",8964.254999998957,<img style='border: 4px solid darkgrey;' src='img/tf1_50_M_ss1.jpeg'></img>,0,NA,exp,NA,1,<img src='img/tf1_50_T1_ss1_md.jpeg'></img>,0,FALSE,NA,sub131
NA,html-keyboard-response,115,492337,0.0-10.0-0.50,"""event"",""trial"",""time""
""focus"",""0"",""1866""
""fullscreenenter"",""0"",""3153""
","
","""event"",""trial"",""time""
""focus"",""0"",""1866""
","""event"",""trial"",""time""
""fullscreenenter"",""0"",""3153""
","
",null,"<div style=""font-size:60px;"">+</div>",NA,null,fixation,2020-06-20T15:35:14Z,NA,NA,NA,NA,NA,sub131
NA,mars-trial,116,499993,0.0-10.0-1.50,"""event"",""trial"",""time""
""focus"",""0"",""1866""
""fullscreenenter"",""0"",""3153""
","
","""event"",""trial"",""time""
""focus"",""0"",""1866""
","""event"",""trial"",""time""
""fullscreenenter"",""0"",""3153""
","
",7041.649999970105,<img style='border: 4px solid darkgrey;' src='img/tf1_51_M_ss2.jpeg'></img>,3,NA,exp,NA,0,<img src='img/tf1_51_T1_ss2_md.jpeg'></img>,0,TRUE,NA,sub131
NA,html-keyboard-response,117,500500,0.0-10.0-0.51,"""event"",""trial"",""time""
""focus"",""0"",""1866""
""fullscreenenter"",""0"",""3153""
","
","""event"",""trial"",""time""
""focus"",""0"",""1866""
","""event"",""trial"",""time""
""fullscreenenter"",""0"",""3153""
","
",null,"<div style=""font-size:60px;"">+</div>",NA,null,fixation,2020-06-20T15:35:22Z,NA,NA,NA,NA,NA,sub131
NA,mars-trial,118,510421,0.0-10.0-1.51,"""event"",""trial"",""time""
""focus"",""0"",""1866""
""fullscreenenter"",""0"",""3153""
","
","""event"",""trial"",""time""
""focus"",""0"",""1866""
","""event"",""trial"",""time""
""fullscreenenter"",""0"",""3153""
","
",9316.699999966659,<img style='border: 4px solid darkgrey;' src='img/tf1_52_M_ss3.jpeg'></img>,1,NA,exp,NA,3,<img src='img/tf1_52_T1_ss3_md.jpeg'></img>,0,FALSE,NA,sub131
NA,html-keyboard-response,119,510925,0.0-10.0-0.52,"""event"",""trial"",""time""
""focus"",""0"",""1866""
""fullscreenenter"",""0"",""3153""
","
","""event"",""trial"",""time""
""focus"",""0"",""1866""
","""event"",""trial"",""time""
""fullscreenenter"",""0"",""3153""
","
",null,"<div style=""font-size:60px;"">+</div>",NA,null,fixation,2020-06-20T15:35:32Z,NA,NA,NA,NA,NA,sub131
NA,mars-trial,120,517436,0.0-10.0-1.52,"""event"",""trial"",""time""
""focus"",""0"",""1866""
""fullscreenenter"",""0"",""3153""
","
","""event"",""trial"",""time""
""focus"",""0"",""1866""
","""event"",""trial"",""time""
""fullscreenenter"",""0"",""3153""
","
",NA,NA,NA,NA,exp,NA,NA,<img src='img/tf1_53_T1_ss1_md.jpeg'></img>,0,FALSE,NA,sub131
NA,html-keyboard-response,121,517938,0.0-10.0-0.53,"""event"",""trial"",""time""
""focus"",""0"",""1866""
""fullscreenenter"",""0"",""3153""
","
","""event"",""trial"",""time""
""focus"",""0"",""1866""
","""event"",""trial"",""time""
""fullscreenenter"",""0"",""3153""
","
",null,"<div style=""font-size:60px;"">+</div>",NA,null,fixation,2020-06-20T15:35:39Z,NA,NA,NA,NA,NA,sub131
NA,audio-button-response,122,520143,0.0-11.0,"""event"",""trial"",""time""
""focus"",""0"",""1866""
""fullscreenenter"",""0"",""3153""
","
","""event"",""trial"",""time""
""focus"",""0"",""1866""
","""event"",""trial"",""time""
""fullscreenenter"",""0"",""3153""
","
",2098.9599999738857,audio/mars_instructions_slide5.wav,0,NA,NA,NA,NA,NA,NA,NA,NA,sub131
