success,trial_type,trial_index,time_elapsed,internal_node_id,interactions,blur_events,focus_events,fullscreenenter_events,fullscreenexit_events,rt,stimulus,button_pressed,key_press,part,timestamp,unshuffled_button,correct_response,correct_button,correct,value,subject_id
TRUE,fullscreen,0,13730,0.0-0.0,"""event"",""trial"",""time""
""focus"",""0"",""5442""
""fullscreenenter"",""0"",""12783""
","
","""event"",""trial"",""time""
""focus"",""0"",""5442""
","""event"",""trial"",""time""
""fullscreenenter"",""0"",""12783""
","
",NA,NA,NA,NA,NA,NA,NA,NA,NA,NA,NA,sub25
NA,pavlovia,1,13734,0.0-1.0,"""event"",""trial"",""time""
""focus"",""0"",""5442""
""fullscreenenter"",""0"",""12783""
","
","""event"",""trial"",""time""
""focus"",""0"",""5442""
","""event"",""trial"",""time""
""fullscreenenter"",""0"",""12783""
","
",NA,NA,NA,NA,NA,NA,NA,NA,NA,NA,NA,sub25
NA,html-button-response,2,15204,0.0-2.0,"""event"",""trial"",""time""
""focus"",""0"",""5442""
""fullscreenenter"",""0"",""12783""
","
","""event"",""trial"",""time""
""focus"",""0"",""5442""
","""event"",""trial"",""time""
""fullscreenenter"",""0"",""12783""
","
",1469,<p>Welcome! Press START to begin.</p><br>,0,NA,NA,NA,NA,NA,NA,NA,NA,sub25
NA,audio-button-response,3,23431,0.0-3.0,"""event"",""trial"",""time""
""focus"",""0"",""5442""
""fullscreenenter"",""0"",""12783""
","
","""event"",""trial"",""time""
""focus"",""0"",""5442""
","""event"",""trial"",""time""
""fullscreenenter"",""0"",""12783""
","
",8223,audio/mars_instructions_slide2.wav,0,NA,NA,NA,NA,NA,NA,NA,NA,sub25
NA,audio-button-response,4,24588,0.0-4.0,"""event"",""trial"",""time""
""focus"",""0"",""5442""
""fullscreenenter"",""0"",""12783""
","
","""event"",""trial"",""time""
""focus"",""0"",""5442""
","""event"",""trial"",""time""
""fullscreenenter"",""0"",""12783""
","
",1156,audio/mars_instructions_slide3.wav,0,NA,NA,NA,NA,NA,NA,NA,NA,sub25
NA,html-keyboard-response,5,25090,0.0-5.0-0.0,"""event"",""trial"",""time""
""focus"",""0"",""5442""
""fullscreenenter"",""0"",""12783""
","
","""event"",""trial"",""time""
""focus"",""0"",""5442""
","""event"",""trial"",""time""
""fullscreenenter"",""0"",""12783""
","
",null,"<div style=""font-size:60px;"">+</div>",NA,null,fixation,2020-06-02T21:04:47Z,NA,NA,NA,NA,NA,sub25
NA,mars-trial,6,31660,0.0-5.0-1.0,"""event"",""trial"",""time""
""focus"",""0"",""5442""
""fullscreenenter"",""0"",""12783""
","
","""event"",""trial"",""time""
""focus"",""0"",""5442""
","""event"",""trial"",""time""
""fullscreenenter"",""0"",""12783""
","
",4465,<img style='border: 4px solid darkgrey;' src='practice/pt1_M1.png'></img>,2,NA,practice,NA,3,<img src='practice/pt1_T1.png'></img>,0,FALSE,NA,sub25
NA,html-keyboard-response,7,32163,0.0-5.1-0.1,"""event"",""trial"",""time""
""focus"",""0"",""5442""
""fullscreenenter"",""0"",""12783""
","
","""event"",""trial"",""time""
""focus"",""0"",""5442""
","""event"",""trial"",""time""
""fullscreenenter"",""0"",""12783""
","
",null,"<div style=""font-size:60px;"">+</div>",NA,null,fixation,2020-06-02T21:04:54Z,NA,NA,NA,NA,NA,sub25
NA,mars-trial,8,41692,0.0-5.1-1.1,"""event"",""trial"",""time""
""focus"",""0"",""5442""
""fullscreenenter"",""0"",""12783""
","
","""event"",""trial"",""time""
""focus"",""0"",""5442""
","""event"",""trial"",""time""
""fullscreenenter"",""0"",""12783""
","
",7426.000000000007,<img style='border: 4px solid darkgrey;' src='practice/pt1_M1.png'></img>,2,NA,practice,NA,0,<img src='practice/pt1_T1.png'></img>,0,TRUE,NA,sub25
NA,html-keyboard-response,9,42194,0.0-6.0-0.0,"""event"",""trial"",""time""
""focus"",""0"",""5442""
""fullscreenenter"",""0"",""12783""
","
","""event"",""trial"",""time""
""focus"",""0"",""5442""
","""event"",""trial"",""time""
""fullscreenenter"",""0"",""12783""
","
",null,"<div style=""font-size:60px;"">+</div>",NA,null,fixation,2020-06-02T21:05:04Z,NA,NA,NA,NA,NA,sub25
NA,mars-trial,10,47275,0.0-6.0-1.0,"""event"",""trial"",""time""
""focus"",""0"",""5442""
""fullscreenenter"",""0"",""12783""
","
","""event"",""trial"",""time""
""focus"",""0"",""5442""
","""event"",""trial"",""time""
""fullscreenenter"",""0"",""12783""
","
",2978,<img style='border: 4px solid darkgrey;' src='practice/pt2_M1.png'></img>,1,NA,practice,NA,0,<img src='practice/pt2_T1.png'></img>,0,TRUE,NA,sub25
NA,html-keyboard-response,11,47776,0.0-7.0-0.0,"""event"",""trial"",""time""
""focus"",""0"",""5442""
""fullscreenenter"",""0"",""12783""
","
","""event"",""trial"",""time""
""focus"",""0"",""5442""
","""event"",""trial"",""time""
""fullscreenenter"",""0"",""12783""
","
",null,"<div style=""font-size:60px;"">+</div>",NA,null,fixation,2020-06-02T21:05:09Z,NA,NA,NA,NA,NA,sub25
NA,mars-trial,12,53154,0.0-7.0-1.0,"""event"",""trial"",""time""
""focus"",""0"",""5442""
""fullscreenenter"",""0"",""12783""
","
","""event"",""trial"",""time""
""focus"",""0"",""5442""
","""event"",""trial"",""time""
""fullscreenenter"",""0"",""12783""
","
",3275,<img style='border: 4px solid darkgrey;' src='practice/pt3_M1.png'></img>,3,NA,practice,NA,0,<img src='practice/pt3_T1.png'></img>,0,TRUE,NA,sub25
NA,audio-button-response,13,55246,0.0-8.0,"""event"",""trial"",""time""
""focus"",""0"",""5442""
""fullscreenenter"",""0"",""12783""
","
","""event"",""trial"",""time""
""focus"",""0"",""5442""
","""event"",""trial"",""time""
""fullscreenenter"",""0"",""12783""
","
",2091,audio/mars_instructions_slide4.wav,0,NA,NA,NA,NA,NA,NA,NA,NA,sub25
NA,call-function,14,55247,0.0-9.0,"""event"",""trial"",""time""
""focus"",""0"",""5442""
""fullscreenenter"",""0"",""12783""
","
","""event"",""trial"",""time""
""focus"",""0"",""5442""
","""event"",""trial"",""time""
""fullscreenenter"",""0"",""12783""
","
",NA,NA,NA,NA,NA,NA,NA,NA,NA,NA,NA,sub25
NA,html-keyboard-response,15,55749,0.0-10.0-0.0,"""event"",""trial"",""time""
""focus"",""0"",""5442""
""fullscreenenter"",""0"",""12783""
","
","""event"",""trial"",""time""
""focus"",""0"",""5442""
","""event"",""trial"",""time""
""fullscreenenter"",""0"",""12783""
","
",null,"<div style=""font-size:60px;"">+</div>",NA,null,fixation,2020-06-02T21:05:17Z,NA,NA,NA,NA,NA,sub25
NA,mars-trial,16,58578,0.0-10.0-1.0,"""event"",""trial"",""time""
""focus"",""0"",""5442""
""fullscreenenter"",""0"",""12783""
","
","""event"",""trial"",""time""
""focus"",""0"",""5442""
","""event"",""trial"",""time""
""fullscreenenter"",""0"",""12783""
","
",2225,<img style='border: 4px solid darkgrey;' src='img/tf1_1_M_ss3.jpeg'></img>,3,NA,exp,NA,0,<img src='img/tf1_1_T1_ss3_md.jpeg'></img>,0,TRUE,NA,sub25
NA,html-keyboard-response,17,59079,0.0-10.0-0.1,"""event"",""trial"",""time""
""focus"",""0"",""5442""
""fullscreenenter"",""0"",""12783""
","
","""event"",""trial"",""time""
""focus"",""0"",""5442""
","""event"",""trial"",""time""
""fullscreenenter"",""0"",""12783""
","
",null,"<div style=""font-size:60px;"">+</div>",NA,null,fixation,2020-06-02T21:05:21Z,NA,NA,NA,NA,NA,sub25
NA,mars-trial,18,62647,0.0-10.0-1.1,"""event"",""trial"",""time""
""focus"",""0"",""5442""
""fullscreenenter"",""0"",""12783""
","
","""event"",""trial"",""time""
""focus"",""0"",""5442""
","""event"",""trial"",""time""
""fullscreenenter"",""0"",""12783""
","
",2965.0000000000073,<img style='border: 4px solid darkgrey;' src='img/tf1_2_M_ss1.jpeg'></img>,3,NA,exp,NA,0,<img src='img/tf1_2_T1_ss1_md.jpeg'></img>,0,TRUE,NA,sub25
NA,html-keyboard-response,19,63149,0.0-10.0-0.2,"""event"",""trial"",""time""
""focus"",""0"",""5442""
""fullscreenenter"",""0"",""12783""
","
","""event"",""trial"",""time""
""focus"",""0"",""5442""
","""event"",""trial"",""time""
""fullscreenenter"",""0"",""12783""
","
",null,"<div style=""font-size:60px;"">+</div>",NA,null,fixation,2020-06-02T21:05:25Z,NA,NA,NA,NA,NA,sub25
NA,mars-trial,20,66803,0.0-10.0-1.2,"""event"",""trial"",""time""
""focus"",""0"",""5442""
""fullscreenenter"",""0"",""12783""
","
","""event"",""trial"",""time""
""focus"",""0"",""5442""
","""event"",""trial"",""time""
""fullscreenenter"",""0"",""12783""
","
",3052.0000000000073,<img style='border: 4px solid darkgrey;' src='img/tf1_3_M_ss2.jpeg'></img>,0,NA,exp,NA,2,<img src='img/tf1_3_T1_ss2_md.jpeg'></img>,0,FALSE,NA,sub25
NA,html-keyboard-response,21,67305,0.0-10.0-0.3,"""event"",""trial"",""time""
""focus"",""0"",""5442""
""fullscreenenter"",""0"",""12783""
","
","""event"",""trial"",""time""
""focus"",""0"",""5442""
","""event"",""trial"",""time""
""fullscreenenter"",""0"",""12783""
","
",null,"<div style=""font-size:60px;"">+</div>",NA,null,fixation,2020-06-02T21:05:29Z,NA,NA,NA,NA,NA,sub25
NA,mars-trial,22,70616,0.0-10.0-1.3,"""event"",""trial"",""time""
""focus"",""0"",""5442""
""fullscreenenter"",""0"",""12783""
","
","""event"",""trial"",""time""
""focus"",""0"",""5442""
","""event"",""trial"",""time""
""fullscreenenter"",""0"",""12783""
","
",2708,<img style='border: 4px solid darkgrey;' src='img/tf1_4_M_ss3.jpeg'></img>,3,NA,exp,NA,0,<img src='img/tf1_4_T1_ss3_md.jpeg'></img>,0,TRUE,NA,sub25
NA,html-keyboard-response,23,71118,0.0-10.0-0.4,"""event"",""trial"",""time""
""focus"",""0"",""5442""
""fullscreenenter"",""0"",""12783""
","
","""event"",""trial"",""time""
""focus"",""0"",""5442""
","""event"",""trial"",""time""
""fullscreenenter"",""0"",""12783""
","
",null,"<div style=""font-size:60px;"">+</div>",NA,null,fixation,2020-06-02T21:05:33Z,NA,NA,NA,NA,NA,sub25
NA,mars-trial,24,74219,0.0-10.0-1.4,"""event"",""trial"",""time""
""focus"",""0"",""5442""
""fullscreenenter"",""0"",""12783""
","
","""event"",""trial"",""time""
""focus"",""0"",""5442""
","""event"",""trial"",""time""
""fullscreenenter"",""0"",""12783""
","
",2498,<img style='border: 4px solid darkgrey;' src='img/tf1_5_M_ss1.jpeg'></img>,2,NA,exp,NA,0,<img src='img/tf1_5_T1_ss1_md.jpeg'></img>,0,TRUE,NA,sub25
NA,html-keyboard-response,25,74720,0.0-10.0-0.5,"""event"",""trial"",""time""
""focus"",""0"",""5442""
""fullscreenenter"",""0"",""12783""
","
","""event"",""trial"",""time""
""focus"",""0"",""5442""
","""event"",""trial"",""time""
""fullscreenenter"",""0"",""12783""
","
",null,"<div style=""font-size:60px;"">+</div>",NA,null,fixation,2020-06-02T21:05:36Z,NA,NA,NA,NA,NA,sub25
NA,mars-trial,26,82644,0.0-10.0-1.5,"""event"",""trial"",""time""
""focus"",""0"",""5442""
""fullscreenenter"",""0"",""12783""
","
","""event"",""trial"",""time""
""focus"",""0"",""5442""
","""event"",""trial"",""time""
""fullscreenenter"",""0"",""12783""
","
",7321,<img style='border: 4px solid darkgrey;' src='img/tf1_6_M_ss2.jpeg'></img>,1,NA,exp,NA,2,<img src='img/tf1_6_T1_ss2_md.jpeg'></img>,0,FALSE,NA,sub25
NA,html-keyboard-response,27,83146,0.0-10.0-0.6,"""event"",""trial"",""time""
""focus"",""0"",""5442""
""fullscreenenter"",""0"",""12783""
","
","""event"",""trial"",""time""
""focus"",""0"",""5442""
","""event"",""trial"",""time""
""fullscreenenter"",""0"",""12783""
","
",null,"<div style=""font-size:60px;"">+</div>",NA,null,fixation,2020-06-02T21:05:45Z,NA,NA,NA,NA,NA,sub25
NA,mars-trial,28,91413,0.0-10.0-1.6,"""event"",""trial"",""time""
""focus"",""0"",""5442""
""fullscreenenter"",""0"",""12783""
","
","""event"",""trial"",""time""
""focus"",""0"",""5442""
","""event"",""trial"",""time""
""fullscreenenter"",""0"",""12783""
","
",7663,<img style='border: 4px solid darkgrey;' src='img/tf1_7_M_ss3.jpeg'></img>,1,NA,exp,NA,0,<img src='img/tf1_7_T1_ss3_md.jpeg'></img>,0,TRUE,NA,sub25
NA,html-keyboard-response,29,91913,0.0-10.0-0.7,"""event"",""trial"",""time""
""focus"",""0"",""5442""
""fullscreenenter"",""0"",""12783""
","
","""event"",""trial"",""time""
""focus"",""0"",""5442""
","""event"",""trial"",""time""
""fullscreenenter"",""0"",""12783""
","
",null,"<div style=""font-size:60px;"">+</div>",NA,null,fixation,2020-06-02T21:05:53Z,NA,NA,NA,NA,NA,sub25
NA,mars-trial,30,98196,0.0-10.0-1.7,"""event"",""trial"",""time""
""focus"",""0"",""5442""
""fullscreenenter"",""0"",""12783""
","
","""event"",""trial"",""time""
""focus"",""0"",""5442""
","""event"",""trial"",""time""
""fullscreenenter"",""0"",""12783""
","
",5679,<img style='border: 4px solid darkgrey;' src='img/tf1_8_M_ss1.jpeg'></img>,1,NA,exp,NA,0,<img src='img/tf1_8_T1_ss1_md.jpeg'></img>,0,TRUE,NA,sub25
NA,html-keyboard-response,31,98698,0.0-10.0-0.8,"""event"",""trial"",""time""
""focus"",""0"",""5442""
""fullscreenenter"",""0"",""12783""
","
","""event"",""trial"",""time""
""focus"",""0"",""5442""
","""event"",""trial"",""time""
""fullscreenenter"",""0"",""12783""
","
",null,"<div style=""font-size:60px;"">+</div>",NA,null,fixation,2020-06-02T21:06:00Z,NA,NA,NA,NA,NA,sub25
NA,mars-trial,32,105992,0.0-10.0-1.8,"""event"",""trial"",""time""
""focus"",""0"",""5442""
""fullscreenenter"",""0"",""12783""
","
","""event"",""trial"",""time""
""focus"",""0"",""5442""
","""event"",""trial"",""time""
""fullscreenenter"",""0"",""12783""
","
",6691,<img style='border: 4px solid darkgrey;' src='img/tf1_9_M_ss2.jpeg'></img>,0,NA,exp,NA,0,<img src='img/tf1_9_T1_ss2_md.jpeg'></img>,0,TRUE,NA,sub25
NA,html-keyboard-response,33,106494,0.0-10.0-0.9,"""event"",""trial"",""time""
""focus"",""0"",""5442""
""fullscreenenter"",""0"",""12783""
","
","""event"",""trial"",""time""
""focus"",""0"",""5442""
","""event"",""trial"",""time""
""fullscreenenter"",""0"",""12783""
","
",null,"<div style=""font-size:60px;"">+</div>",NA,null,fixation,2020-06-02T21:06:08Z,NA,NA,NA,NA,NA,sub25
NA,mars-trial,34,116189,0.0-10.0-1.9,"""event"",""trial"",""time""
""focus"",""0"",""5442""
""fullscreenenter"",""0"",""12783""
","
","""event"",""trial"",""time""
""focus"",""0"",""5442""
","""event"",""trial"",""time""
""fullscreenenter"",""0"",""12783""
","
",9091.999999999985,<img style='border: 4px solid darkgrey;' src='img/tf1_10_M_ss3.jpeg'></img>,3,NA,exp,NA,0,<img src='img/tf1_10_T1_ss3_md.jpeg'></img>,0,TRUE,NA,sub25
NA,html-keyboard-response,35,116691,0.0-10.0-0.10,"""event"",""trial"",""time""
""focus"",""0"",""5442""
""fullscreenenter"",""0"",""12783""
","
","""event"",""trial"",""time""
""focus"",""0"",""5442""
","""event"",""trial"",""time""
""fullscreenenter"",""0"",""12783""
","
",null,"<div style=""font-size:60px;"">+</div>",NA,null,fixation,2020-06-02T21:06:18Z,NA,NA,NA,NA,NA,sub25
NA,mars-trial,36,125407,0.0-10.0-1.10,"""event"",""trial"",""time""
""focus"",""0"",""5442""
""fullscreenenter"",""0"",""12783""
","
","""event"",""trial"",""time""
""focus"",""0"",""5442""
","""event"",""trial"",""time""
""fullscreenenter"",""0"",""12783""
","
",8111,<img style='border: 4px solid darkgrey;' src='img/tf1_11_M_ss1.jpeg'></img>,1,NA,exp,NA,2,<img src='img/tf1_11_T1_ss1_md.jpeg'></img>,0,FALSE,NA,sub25
NA,html-keyboard-response,37,125908,0.0-10.0-0.11,"""event"",""trial"",""time""
""focus"",""0"",""5442""
""fullscreenenter"",""0"",""12783""
","
","""event"",""trial"",""time""
""focus"",""0"",""5442""
","""event"",""trial"",""time""
""fullscreenenter"",""0"",""12783""
","
",null,"<div style=""font-size:60px;"">+</div>",NA,null,fixation,2020-06-02T21:06:27Z,NA,NA,NA,NA,NA,sub25
NA,mars-trial,38,129116,0.0-10.0-1.11,"""event"",""trial"",""time""
""focus"",""0"",""5442""
""fullscreenenter"",""0"",""12783""
","
","""event"",""trial"",""time""
""focus"",""0"",""5442""
","""event"",""trial"",""time""
""fullscreenenter"",""0"",""12783""
","
",2606,<img style='border: 4px solid darkgrey;' src='img/tf1_12_M_ss2.jpeg'></img>,3,NA,exp,NA,2,<img src='img/tf1_12_T1_ss2_md.jpeg'></img>,0,FALSE,NA,sub25
NA,html-keyboard-response,39,129618,0.0-10.0-0.12,"""event"",""trial"",""time""
""focus"",""0"",""5442""
""fullscreenenter"",""0"",""12783""
","
","""event"",""trial"",""time""
""focus"",""0"",""5442""
","""event"",""trial"",""time""
""fullscreenenter"",""0"",""12783""
","
",null,"<div style=""font-size:60px;"">+</div>",NA,null,fixation,2020-06-02T21:06:31Z,NA,NA,NA,NA,NA,sub25
NA,mars-trial,40,131033,0.0-10.0-1.12,"""event"",""trial"",""time""
""focus"",""0"",""5442""
""fullscreenenter"",""0"",""12783""
","
","""event"",""trial"",""time""
""focus"",""0"",""5442""
","""event"",""trial"",""time""
""fullscreenenter"",""0"",""12783""
","
",812,<img style='border: 4px solid darkgrey;' src='img/tf1_13_M_ss3.jpeg'></img>,1,NA,exp,NA,0,<img src='img/tf1_13_T1_ss3_md.jpeg'></img>,0,TRUE,NA,sub25
NA,html-keyboard-response,41,131535,0.0-10.0-0.13,"""event"",""trial"",""time""
""focus"",""0"",""5442""
""fullscreenenter"",""0"",""12783""
","
","""event"",""trial"",""time""
""focus"",""0"",""5442""
","""event"",""trial"",""time""
""fullscreenenter"",""0"",""12783""
","
",null,"<div style=""font-size:60px;"">+</div>",NA,null,fixation,2020-06-02T21:06:33Z,NA,NA,NA,NA,NA,sub25
NA,mars-trial,42,133755,0.0-10.0-1.13,"""event"",""trial"",""time""
""focus"",""0"",""5442""
""fullscreenenter"",""0"",""12783""
","
","""event"",""trial"",""time""
""focus"",""0"",""5442""
","""event"",""trial"",""time""
""fullscreenenter"",""0"",""12783""
","
",1618,<img style='border: 4px solid darkgrey;' src='img/tf1_14_M_ss1.jpeg'></img>,3,NA,exp,NA,3,<img src='img/tf1_14_T1_ss1_md.jpeg'></img>,0,FALSE,NA,sub25
NA,html-keyboard-response,43,134257,0.0-10.0-0.14,"""event"",""trial"",""time""
""focus"",""0"",""5442""
""fullscreenenter"",""0"",""12783""
","
","""event"",""trial"",""time""
""focus"",""0"",""5442""
","""event"",""trial"",""time""
""fullscreenenter"",""0"",""12783""
","
",null,"<div style=""font-size:60px;"">+</div>",NA,null,fixation,2020-06-02T21:06:36Z,NA,NA,NA,NA,NA,sub25
NA,mars-trial,44,136234,0.0-10.0-1.14,"""event"",""trial"",""time""
""focus"",""0"",""5442""
""fullscreenenter"",""0"",""12783""
","
","""event"",""trial"",""time""
""focus"",""0"",""5442""
","""event"",""trial"",""time""
""fullscreenenter"",""0"",""12783""
","
",1373,<img style='border: 4px solid darkgrey;' src='img/tf1_15_M_ss2.jpeg'></img>,2,NA,exp,NA,2,<img src='img/tf1_15_T1_ss2_md.jpeg'></img>,0,FALSE,NA,sub25
NA,html-keyboard-response,45,136735,0.0-10.0-0.15,"""event"",""trial"",""time""
""focus"",""0"",""5442""
""fullscreenenter"",""0"",""12783""
","
","""event"",""trial"",""time""
""focus"",""0"",""5442""
","""event"",""trial"",""time""
""fullscreenenter"",""0"",""12783""
","
",null,"<div style=""font-size:60px;"">+</div>",NA,null,fixation,2020-06-02T21:06:38Z,NA,NA,NA,NA,NA,sub25
NA,mars-trial,46,138378,0.0-10.0-1.15,"""event"",""trial"",""time""
""focus"",""0"",""5442""
""fullscreenenter"",""0"",""12783""
","
","""event"",""trial"",""time""
""focus"",""0"",""5442""
","""event"",""trial"",""time""
""fullscreenenter"",""0"",""12783""
","
",1040,<img style='border: 4px solid darkgrey;' src='img/tf1_16_M_ss3.jpeg'></img>,0,NA,exp,NA,1,<img src='img/tf1_16_T1_ss3_md.jpeg'></img>,0,FALSE,NA,sub25
NA,html-keyboard-response,47,138880,0.0-10.0-0.16,"""event"",""trial"",""time""
""focus"",""0"",""5442""
""fullscreenenter"",""0"",""12783""
","
","""event"",""trial"",""time""
""focus"",""0"",""5442""
","""event"",""trial"",""time""
""fullscreenenter"",""0"",""12783""
","
",null,"<div style=""font-size:60px;"">+</div>",NA,null,fixation,2020-06-02T21:06:40Z,NA,NA,NA,NA,NA,sub25
NA,mars-trial,48,148278,0.0-10.0-1.16,"""event"",""trial"",""time""
""focus"",""0"",""5442""
""fullscreenenter"",""0"",""12783""
","
","""event"",""trial"",""time""
""focus"",""0"",""5442""
","""event"",""trial"",""time""
""fullscreenenter"",""0"",""12783""
","
",8795,<img style='border: 4px solid darkgrey;' src='img/tf1_17_M_ss1.jpeg'></img>,2,NA,exp,NA,1,<img src='img/tf1_17_T1_ss1_md.jpeg'></img>,0,FALSE,NA,sub25
NA,html-keyboard-response,49,148779,0.0-10.0-0.17,"""event"",""trial"",""time""
""focus"",""0"",""5442""
""fullscreenenter"",""0"",""12783""
","
","""event"",""trial"",""time""
""focus"",""0"",""5442""
","""event"",""trial"",""time""
""fullscreenenter"",""0"",""12783""
","
",null,"<div style=""font-size:60px;"">+</div>",NA,null,fixation,2020-06-02T21:06:50Z,NA,NA,NA,NA,NA,sub25
NA,mars-trial,50,155986,0.0-10.0-1.17,"""event"",""trial"",""time""
""focus"",""0"",""5442""
""fullscreenenter"",""0"",""12783""
","
","""event"",""trial"",""time""
""focus"",""0"",""5442""
","""event"",""trial"",""time""
""fullscreenenter"",""0"",""12783""
","
",6603,<img style='border: 4px solid darkgrey;' src='img/tf1_18_M_ss2.jpeg'></img>,3,NA,exp,NA,1,<img src='img/tf1_18_T1_ss2_md.jpeg'></img>,0,FALSE,NA,sub25
NA,html-keyboard-response,51,156488,0.0-10.0-0.18,"""event"",""trial"",""time""
""focus"",""0"",""5442""
""fullscreenenter"",""0"",""12783""
","
","""event"",""trial"",""time""
""focus"",""0"",""5442""
","""event"",""trial"",""time""
""fullscreenenter"",""0"",""12783""
","
",null,"<div style=""font-size:60px;"">+</div>",NA,null,fixation,2020-06-02T21:06:58Z,NA,NA,NA,NA,NA,sub25
NA,mars-trial,52,163393,0.0-10.0-1.18,"""event"",""trial"",""time""
""focus"",""0"",""5442""
""fullscreenenter"",""0"",""12783""
","
","""event"",""trial"",""time""
""focus"",""0"",""5442""
","""event"",""trial"",""time""
""fullscreenenter"",""0"",""12783""
","
",6300.999999999971,<img style='border: 4px solid darkgrey;' src='img/tf1_19_M_ss3.jpeg'></img>,1,NA,exp,NA,1,<img src='img/tf1_19_T1_ss3_md.jpeg'></img>,0,FALSE,NA,sub25
NA,html-keyboard-response,53,163895,0.0-10.0-0.19,"""event"",""trial"",""time""
""focus"",""0"",""5442""
""fullscreenenter"",""0"",""12783""
","
","""event"",""trial"",""time""
""focus"",""0"",""5442""
","""event"",""trial"",""time""
""fullscreenenter"",""0"",""12783""
","
",null,"<div style=""font-size:60px;"">+</div>",NA,null,fixation,2020-06-02T21:07:05Z,NA,NA,NA,NA,NA,sub25
NA,mars-trial,54,167158,0.0-10.0-1.19,"""event"",""trial"",""time""
""focus"",""0"",""5442""
""fullscreenenter"",""0"",""12783""
","
","""event"",""trial"",""time""
""focus"",""0"",""5442""
","""event"",""trial"",""time""
""fullscreenenter"",""0"",""12783""
","
",2660,<img style='border: 4px solid darkgrey;' src='img/tf1_20_M_ss1.jpeg'></img>,0,NA,exp,NA,3,<img src='img/tf1_20_T1_ss1_md.jpeg'></img>,0,FALSE,NA,sub25
NA,html-keyboard-response,55,167659,0.0-10.0-0.20,"""event"",""trial"",""time""
""focus"",""0"",""5442""
""fullscreenenter"",""0"",""12783""
","
","""event"",""trial"",""time""
""focus"",""0"",""5442""
","""event"",""trial"",""time""
""fullscreenenter"",""0"",""12783""
","
",null,"<div style=""font-size:60px;"">+</div>",NA,null,fixation,2020-06-02T21:07:09Z,NA,NA,NA,NA,NA,sub25
NA,mars-trial,56,170570,0.0-10.0-1.20,"""event"",""trial"",""time""
""focus"",""0"",""5442""
""fullscreenenter"",""0"",""12783""
","
","""event"",""trial"",""time""
""focus"",""0"",""5442""
","""event"",""trial"",""time""
""fullscreenenter"",""0"",""12783""
","
",2308,<img style='border: 4px solid darkgrey;' src='img/tf1_21_M_ss2.jpeg'></img>,1,NA,exp,NA,2,<img src='img/tf1_21_T1_ss2_md.jpeg'></img>,0,FALSE,NA,sub25
NA,html-keyboard-response,57,171071,0.0-10.0-0.21,"""event"",""trial"",""time""
""focus"",""0"",""5442""
""fullscreenenter"",""0"",""12783""
","
","""event"",""trial"",""time""
""focus"",""0"",""5442""
","""event"",""trial"",""time""
""fullscreenenter"",""0"",""12783""
","
",null,"<div style=""font-size:60px;"">+</div>",NA,null,fixation,2020-06-02T21:07:13Z,NA,NA,NA,NA,NA,sub25
NA,mars-trial,58,176030,0.0-10.0-1.21,"""event"",""trial"",""time""
""focus"",""0"",""5442""
""fullscreenenter"",""0"",""12783""
","
","""event"",""trial"",""time""
""focus"",""0"",""5442""
","""event"",""trial"",""time""
""fullscreenenter"",""0"",""12783""
","
",4356,<img style='border: 4px solid darkgrey;' src='img/tf1_22_M_ss3.jpeg'></img>,3,NA,exp,NA,2,<img src='img/tf1_22_T1_ss3_md.jpeg'></img>,0,FALSE,NA,sub25
NA,html-keyboard-response,59,176531,0.0-10.0-0.22,"""event"",""trial"",""time""
""focus"",""0"",""5442""
""fullscreenenter"",""0"",""12783""
","
","""event"",""trial"",""time""
""focus"",""0"",""5442""
","""event"",""trial"",""time""
""fullscreenenter"",""0"",""12783""
","
",null,"<div style=""font-size:60px;"">+</div>",NA,null,fixation,2020-06-02T21:07:18Z,NA,NA,NA,NA,NA,sub25
NA,mars-trial,60,179880,0.0-10.0-1.22,"""event"",""trial"",""time""
""focus"",""0"",""5442""
""fullscreenenter"",""0"",""12783""
","
","""event"",""trial"",""time""
""focus"",""0"",""5442""
","""event"",""trial"",""time""
""fullscreenenter"",""0"",""12783""
","
",2746,<img style='border: 4px solid darkgrey;' src='img/tf1_23_M_ss1.jpeg'></img>,3,NA,exp,NA,0,<img src='img/tf1_23_T1_ss1_md.jpeg'></img>,0,TRUE,NA,sub25
NA,html-keyboard-response,61,180382,0.0-10.0-0.23,"""event"",""trial"",""time""
""focus"",""0"",""5442""
""fullscreenenter"",""0"",""12783""
","
","""event"",""trial"",""time""
""focus"",""0"",""5442""
","""event"",""trial"",""time""
""fullscreenenter"",""0"",""12783""
","
",null,"<div style=""font-size:60px;"">+</div>",NA,null,fixation,2020-06-02T21:07:22Z,NA,NA,NA,NA,NA,sub25
NA,mars-trial,62,183178,0.0-10.0-1.23,"""event"",""trial"",""time""
""focus"",""0"",""5442""
""fullscreenenter"",""0"",""12783""
","
","""event"",""trial"",""time""
""focus"",""0"",""5442""
","""event"",""trial"",""time""
""fullscreenenter"",""0"",""12783""
","
",2193,<img style='border: 4px solid darkgrey;' src='img/tf1_24_M_ss2.jpeg'></img>,2,NA,exp,NA,2,<img src='img/tf1_24_T1_ss2_md.jpeg'></img>,0,FALSE,NA,sub25
NA,html-keyboard-response,63,183678,0.0-10.0-0.24,"""event"",""trial"",""time""
""focus"",""0"",""5442""
""fullscreenenter"",""0"",""12783""
","
","""event"",""trial"",""time""
""focus"",""0"",""5442""
","""event"",""trial"",""time""
""fullscreenenter"",""0"",""12783""
","
",null,"<div style=""font-size:60px;"">+</div>",NA,null,fixation,2020-06-02T21:07:25Z,NA,NA,NA,NA,NA,sub25
NA,mars-trial,64,187737,0.0-10.0-1.24,"""event"",""trial"",""time""
""focus"",""0"",""5442""
""fullscreenenter"",""0"",""12783""
","
","""event"",""trial"",""time""
""focus"",""0"",""5442""
","""event"",""trial"",""time""
""fullscreenenter"",""0"",""12783""
","
",3295.000000000029,<img style='border: 4px solid darkgrey;' src='img/tf1_25_M_ss3.jpeg'></img>,3,NA,exp,NA,2,<img src='img/tf1_25_T1_ss3_md.jpeg'></img>,0,FALSE,NA,sub25
NA,html-keyboard-response,65,188239,0.0-10.0-0.25,"""event"",""trial"",""time""
""focus"",""0"",""5442""
""fullscreenenter"",""0"",""12783""
","
","""event"",""trial"",""time""
""focus"",""0"",""5442""
","""event"",""trial"",""time""
""fullscreenenter"",""0"",""12783""
","
",null,"<div style=""font-size:60px;"">+</div>",NA,null,fixation,2020-06-02T21:07:30Z,NA,NA,NA,NA,NA,sub25
NA,mars-trial,66,204581,0.0-10.0-1.25,"""event"",""trial"",""time""
""focus"",""0"",""5442""
""fullscreenenter"",""0"",""12783""
","
","""event"",""trial"",""time""
""focus"",""0"",""5442""
","""event"",""trial"",""time""
""fullscreenenter"",""0"",""12783""
","
",15738,<img style='border: 4px solid darkgrey;' src='img/tf1_26_M_ss1.jpeg'></img>,2,NA,exp,NA,2,<img src='img/tf1_26_T1_ss1_md.jpeg'></img>,0,FALSE,NA,sub25
NA,html-keyboard-response,67,205083,0.0-10.0-0.26,"""event"",""trial"",""time""
""focus"",""0"",""5442""
""fullscreenenter"",""0"",""12783""
","
","""event"",""trial"",""time""
""focus"",""0"",""5442""
","""event"",""trial"",""time""
""fullscreenenter"",""0"",""12783""
","
",null,"<div style=""font-size:60px;"">+</div>",NA,null,fixation,2020-06-02T21:07:47Z,NA,NA,NA,NA,NA,sub25
NA,mars-trial,68,209897,0.0-10.0-1.26,"""event"",""trial"",""time""
""focus"",""0"",""5442""
""fullscreenenter"",""0"",""12783""
","
","""event"",""trial"",""time""
""focus"",""0"",""5442""
","""event"",""trial"",""time""
""fullscreenenter"",""0"",""12783""
","
",4210,<img style='border: 4px solid darkgrey;' src='img/tf1_27_M_ss2.jpeg'></img>,2,NA,exp,NA,3,<img src='img/tf1_27_T1_ss2_md.jpeg'></img>,0,FALSE,NA,sub25
NA,html-keyboard-response,69,210398,0.0-10.0-0.27,"""event"",""trial"",""time""
""focus"",""0"",""5442""
""fullscreenenter"",""0"",""12783""
","
","""event"",""trial"",""time""
""focus"",""0"",""5442""
","""event"",""trial"",""time""
""fullscreenenter"",""0"",""12783""
","
",null,"<div style=""font-size:60px;"">+</div>",NA,null,fixation,2020-06-02T21:07:52Z,NA,NA,NA,NA,NA,sub25
NA,mars-trial,70,216057,0.0-10.0-1.27,"""event"",""trial"",""time""
""focus"",""0"",""5442""
""fullscreenenter"",""0"",""12783""
","
","""event"",""trial"",""time""
""focus"",""0"",""5442""
","""event"",""trial"",""time""
""fullscreenenter"",""0"",""12783""
","
",5055,<img style='border: 4px solid darkgrey;' src='img/tf1_28_M_ss3.jpeg'></img>,2,NA,exp,NA,0,<img src='img/tf1_28_T1_ss3_md.jpeg'></img>,0,TRUE,NA,sub25
NA,html-keyboard-response,71,216558,0.0-10.0-0.28,"""event"",""trial"",""time""
""focus"",""0"",""5442""
""fullscreenenter"",""0"",""12783""
","
","""event"",""trial"",""time""
""focus"",""0"",""5442""
","""event"",""trial"",""time""
""fullscreenenter"",""0"",""12783""
","
",null,"<div style=""font-size:60px;"">+</div>",NA,null,fixation,2020-06-02T21:07:58Z,NA,NA,NA,NA,NA,sub25
NA,mars-trial,72,220494,0.0-10.0-1.28,"""event"",""trial"",""time""
""focus"",""0"",""5442""
""fullscreenenter"",""0"",""12783""
","
","""event"",""trial"",""time""
""focus"",""0"",""5442""
","""event"",""trial"",""time""
""fullscreenenter"",""0"",""12783""
","
",3333,<img style='border: 4px solid darkgrey;' src='img/tf1_29_M_ss1.jpeg'></img>,3,NA,exp,NA,2,<img src='img/tf1_29_T1_ss1_md.jpeg'></img>,0,FALSE,NA,sub25
NA,html-keyboard-response,73,220996,0.0-10.0-0.29,"""event"",""trial"",""time""
""focus"",""0"",""5442""
""fullscreenenter"",""0"",""12783""
","
","""event"",""trial"",""time""
""focus"",""0"",""5442""
","""event"",""trial"",""time""
""fullscreenenter"",""0"",""12783""
","
",null,"<div style=""font-size:60px;"">+</div>",NA,null,fixation,2020-06-02T21:08:02Z,NA,NA,NA,NA,NA,sub25
NA,mars-trial,74,226762,0.0-10.0-1.29,"""event"",""trial"",""time""
""focus"",""0"",""5442""
""fullscreenenter"",""0"",""12783""
","
","""event"",""trial"",""time""
""focus"",""0"",""5442""
","""event"",""trial"",""time""
""fullscreenenter"",""0"",""12783""
","
",5164,<img style='border: 4px solid darkgrey;' src='img/tf1_30_M_ss2.jpeg'></img>,1,NA,exp,NA,0,<img src='img/tf1_30_T1_ss2_md.jpeg'></img>,0,TRUE,NA,sub25
NA,html-keyboard-response,75,227264,0.0-10.0-0.30,"""event"",""trial"",""time""
""focus"",""0"",""5442""
""fullscreenenter"",""0"",""12783""
","
","""event"",""trial"",""time""
""focus"",""0"",""5442""
","""event"",""trial"",""time""
""fullscreenenter"",""0"",""12783""
","
",null,"<div style=""font-size:60px;"">+</div>",NA,null,fixation,2020-06-02T21:08:09Z,NA,NA,NA,NA,NA,sub25
NA,mars-trial,76,229233,0.0-10.0-1.30,"""event"",""trial"",""time""
""focus"",""0"",""5442""
""fullscreenenter"",""0"",""12783""
","
","""event"",""trial"",""time""
""focus"",""0"",""5442""
","""event"",""trial"",""time""
""fullscreenenter"",""0"",""12783""
","
",1364.999999999971,<img style='border: 4px solid darkgrey;' src='img/tf1_31_M_ss3.jpeg'></img>,0,NA,exp,NA,3,<img src='img/tf1_31_T1_ss3_md.jpeg'></img>,0,FALSE,NA,sub25
NA,html-keyboard-response,77,229734,0.0-10.0-0.31,"""event"",""trial"",""time""
""focus"",""0"",""5442""
""fullscreenenter"",""0"",""12783""
","
","""event"",""trial"",""time""
""focus"",""0"",""5442""
","""event"",""trial"",""time""
""fullscreenenter"",""0"",""12783""
","
",null,"<div style=""font-size:60px;"">+</div>",NA,null,fixation,2020-06-02T21:08:11Z,NA,NA,NA,NA,NA,sub25
NA,mars-trial,78,231003,0.0-10.0-1.31,"""event"",""trial"",""time""
""focus"",""0"",""5442""
""fullscreenenter"",""0"",""12783""
","
","""event"",""trial"",""time""
""focus"",""0"",""5442""
","""event"",""trial"",""time""
""fullscreenenter"",""0"",""12783""
","
",664.9999999999709,<img style='border: 4px solid darkgrey;' src='img/tf1_32_M_ss1.jpeg'></img>,3,NA,exp,NA,1,<img src='img/tf1_32_T1_ss1_md.jpeg'></img>,0,FALSE,NA,sub25
NA,html-keyboard-response,79,231504,0.0-10.0-0.32,"""event"",""trial"",""time""
""focus"",""0"",""5442""
""fullscreenenter"",""0"",""12783""
","
","""event"",""trial"",""time""
""focus"",""0"",""5442""
","""event"",""trial"",""time""
""fullscreenenter"",""0"",""12783""
","
",null,"<div style=""font-size:60px;"">+</div>",NA,null,fixation,2020-06-02T21:08:13Z,NA,NA,NA,NA,NA,sub25
NA,mars-trial,80,232814,0.0-10.0-1.32,"""event"",""trial"",""time""
""focus"",""0"",""5442""
""fullscreenenter"",""0"",""12783""
","
","""event"",""trial"",""time""
""focus"",""0"",""5442""
","""event"",""trial"",""time""
""fullscreenenter"",""0"",""12783""
","
",707,<img style='border: 4px solid darkgrey;' src='img/tf1_33_M_ss2.jpeg'></img>,2,NA,exp,NA,2,<img src='img/tf1_33_T1_ss2_md.jpeg'></img>,0,FALSE,NA,sub25
NA,html-keyboard-response,81,233316,0.0-10.0-0.33,"""event"",""trial"",""time""
""focus"",""0"",""5442""
""fullscreenenter"",""0"",""12783""
","
","""event"",""trial"",""time""
""focus"",""0"",""5442""
","""event"",""trial"",""time""
""fullscreenenter"",""0"",""12783""
","
",null,"<div style=""font-size:60px;"">+</div>",NA,null,fixation,2020-06-02T21:08:15Z,NA,NA,NA,NA,NA,sub25
NA,mars-trial,82,234919,0.0-10.0-1.33,"""event"",""trial"",""time""
""focus"",""0"",""5442""
""fullscreenenter"",""0"",""12783""
","
","""event"",""trial"",""time""
""focus"",""0"",""5442""
","""event"",""trial"",""time""
""fullscreenenter"",""0"",""12783""
","
",1000,<img style='border: 4px solid darkgrey;' src='img/tf1_34_M_ss3.jpeg'></img>,1,NA,exp,NA,3,<img src='img/tf1_34_T1_ss3_md.jpeg'></img>,0,FALSE,NA,sub25
NA,html-keyboard-response,83,235420,0.0-10.0-0.34,"""event"",""trial"",""time""
""focus"",""0"",""5442""
""fullscreenenter"",""0"",""12783""
","
","""event"",""trial"",""time""
""focus"",""0"",""5442""
","""event"",""trial"",""time""
""fullscreenenter"",""0"",""12783""
","
",null,"<div style=""font-size:60px;"">+</div>",NA,null,fixation,2020-06-02T21:08:17Z,NA,NA,NA,NA,NA,sub25
NA,mars-trial,84,236675,0.0-10.0-1.34,"""event"",""trial"",""time""
""focus"",""0"",""5442""
""fullscreenenter"",""0"",""12783""
","
","""event"",""trial"",""time""
""focus"",""0"",""5442""
","""event"",""trial"",""time""
""fullscreenenter"",""0"",""12783""
","
",651.9999999999709,<img style='border: 4px solid darkgrey;' src='img/tf1_35_M_ss1.jpeg'></img>,3,NA,exp,NA,0,<img src='img/tf1_35_T1_ss1_md.jpeg'></img>,0,TRUE,NA,sub25
NA,html-keyboard-response,85,237176,0.0-10.0-0.35,"""event"",""trial"",""time""
""focus"",""0"",""5442""
""fullscreenenter"",""0"",""12783""
","
","""event"",""trial"",""time""
""focus"",""0"",""5442""
","""event"",""trial"",""time""
""fullscreenenter"",""0"",""12783""
","
",null,"<div style=""font-size:60px;"">+</div>",NA,null,fixation,2020-06-02T21:08:19Z,NA,NA,NA,NA,NA,sub25
NA,mars-trial,86,239783,0.0-10.0-1.35,"""event"",""trial"",""time""
""focus"",""0"",""5442""
""fullscreenenter"",""0"",""12783""
","
","""event"",""trial"",""time""
""focus"",""0"",""5442""
","""event"",""trial"",""time""
""fullscreenenter"",""0"",""12783""
","
",2004.999999999971,<img style='border: 4px solid darkgrey;' src='img/tf1_36_M_ss2.jpeg'></img>,0,NA,exp,NA,3,<img src='img/tf1_36_T1_ss2_md.jpeg'></img>,0,FALSE,NA,sub25
NA,html-keyboard-response,87,240284,0.0-10.0-0.36,"""event"",""trial"",""time""
""focus"",""0"",""5442""
""fullscreenenter"",""0"",""12783""
","
","""event"",""trial"",""time""
""focus"",""0"",""5442""
","""event"",""trial"",""time""
""fullscreenenter"",""0"",""12783""
","
",null,"<div style=""font-size:60px;"">+</div>",NA,null,fixation,2020-06-02T21:08:22Z,NA,NA,NA,NA,NA,sub25
NA,mars-trial,88,241428,0.0-10.0-1.36,"""event"",""trial"",""time""
""focus"",""0"",""5442""
""fullscreenenter"",""0"",""12783""
","
","""event"",""trial"",""time""
""focus"",""0"",""5442""
","""event"",""trial"",""time""
""fullscreenenter"",""0"",""12783""
","
",540.0000000000291,<img style='border: 4px solid darkgrey;' src='img/tf1_37_M_ss3.jpeg'></img>,3,NA,exp,NA,0,<img src='img/tf1_37_T1_ss3_md.jpeg'></img>,0,TRUE,NA,sub25
NA,html-keyboard-response,89,241929,0.0-10.0-0.37,"""event"",""trial"",""time""
""focus"",""0"",""5442""
""fullscreenenter"",""0"",""12783""
","
","""event"",""trial"",""time""
""focus"",""0"",""5442""
","""event"",""trial"",""time""
""fullscreenenter"",""0"",""12783""
","
",null,"<div style=""font-size:60px;"">+</div>",NA,null,fixation,2020-06-02T21:08:23Z,NA,NA,NA,NA,NA,sub25
NA,mars-trial,90,247259,0.0-10.0-1.37,"""event"",""trial"",""time""
""focus"",""0"",""5442""
""fullscreenenter"",""0"",""12783""
","
","""event"",""trial"",""time""
""focus"",""0"",""5442""
","""event"",""trial"",""time""
""fullscreenenter"",""0"",""12783""
","
",4727,<img style='border: 4px solid darkgrey;' src='img/tf1_38_M_ss1.jpeg'></img>,1,NA,exp,NA,0,<img src='img/tf1_38_T1_ss1_md.jpeg'></img>,0,TRUE,NA,sub25
NA,html-keyboard-response,91,247759,0.0-10.0-0.38,"""event"",""trial"",""time""
""focus"",""0"",""5442""
""fullscreenenter"",""0"",""12783""
","
","""event"",""trial"",""time""
""focus"",""0"",""5442""
","""event"",""trial"",""time""
""fullscreenenter"",""0"",""12783""
","
",null,"<div style=""font-size:60px;"">+</div>",NA,null,fixation,2020-06-02T21:08:29Z,NA,NA,NA,NA,NA,sub25
NA,mars-trial,92,255672,0.0-10.0-1.38,"""event"",""trial"",""time""
""focus"",""0"",""5442""
""fullscreenenter"",""0"",""12783""
","
","""event"",""trial"",""time""
""focus"",""0"",""5442""
","""event"",""trial"",""time""
""fullscreenenter"",""0"",""12783""
","
",7309.000000000029,<img style='border: 4px solid darkgrey;' src='img/tf1_39_M_ss2.jpeg'></img>,3,NA,exp,NA,3,<img src='img/tf1_39_T1_ss2_md.jpeg'></img>,0,FALSE,NA,sub25
NA,html-keyboard-response,93,256174,0.0-10.0-0.39,"""event"",""trial"",""time""
""focus"",""0"",""5442""
""fullscreenenter"",""0"",""12783""
","
","""event"",""trial"",""time""
""focus"",""0"",""5442""
","""event"",""trial"",""time""
""fullscreenenter"",""0"",""12783""
","
",null,"<div style=""font-size:60px;"">+</div>",NA,null,fixation,2020-06-02T21:08:38Z,NA,NA,NA,NA,NA,sub25
NA,mars-trial,94,264351,0.0-10.0-1.39,"""event"",""trial"",""time""
""focus"",""0"",""5442""
""fullscreenenter"",""0"",""12783""
","
","""event"",""trial"",""time""
""focus"",""0"",""5442""
","""event"",""trial"",""time""
""fullscreenenter"",""0"",""12783""
","
",7571.000000000029,<img style='border: 4px solid darkgrey;' src='img/tf1_40_M_ss3.jpeg'></img>,0,NA,exp,NA,2,<img src='img/tf1_40_T1_ss3_md.jpeg'></img>,0,FALSE,NA,sub25
NA,html-keyboard-response,95,264852,0.0-10.0-0.40,"""event"",""trial"",""time""
""focus"",""0"",""5442""
""fullscreenenter"",""0"",""12783""
","
","""event"",""trial"",""time""
""focus"",""0"",""5442""
","""event"",""trial"",""time""
""fullscreenenter"",""0"",""12783""
","
",null,"<div style=""font-size:60px;"">+</div>",NA,null,fixation,2020-06-02T21:08:46Z,NA,NA,NA,NA,NA,sub25
NA,mars-trial,96,266924,0.0-10.0-1.40,"""event"",""trial"",""time""
""focus"",""0"",""5442""
""fullscreenenter"",""0"",""12783""
","
","""event"",""trial"",""time""
""focus"",""0"",""5442""
","""event"",""trial"",""time""
""fullscreenenter"",""0"",""12783""
","
",1462.9999999999418,<img style='border: 4px solid darkgrey;' src='img/tf1_41_M_ss1.jpeg'></img>,3,NA,exp,NA,3,<img src='img/tf1_41_T1_ss1_md.jpeg'></img>,0,FALSE,NA,sub25
NA,html-keyboard-response,97,267425,0.0-10.0-0.41,"""event"",""trial"",""time""
""focus"",""0"",""5442""
""fullscreenenter"",""0"",""12783""
","
","""event"",""trial"",""time""
""focus"",""0"",""5442""
","""event"",""trial"",""time""
""fullscreenenter"",""0"",""12783""
","
",null,"<div style=""font-size:60px;"">+</div>",NA,null,fixation,2020-06-02T21:08:49Z,NA,NA,NA,NA,NA,sub25
NA,mars-trial,98,271331,0.0-10.0-1.41,"""event"",""trial"",""time""
""focus"",""0"",""5442""
""fullscreenenter"",""0"",""12783""
","
","""event"",""trial"",""time""
""focus"",""0"",""5442""
","""event"",""trial"",""time""
""fullscreenenter"",""0"",""12783""
","
",3304,<img style='border: 4px solid darkgrey;' src='img/tf1_42_M_ss2.jpeg'></img>,2,NA,exp,NA,1,<img src='img/tf1_42_T1_ss2_md.jpeg'></img>,0,FALSE,NA,sub25
NA,html-keyboard-response,99,271833,0.0-10.0-0.42,"""event"",""trial"",""time""
""focus"",""0"",""5442""
""fullscreenenter"",""0"",""12783""
","
","""event"",""trial"",""time""
""focus"",""0"",""5442""
","""event"",""trial"",""time""
""fullscreenenter"",""0"",""12783""
","
",null,"<div style=""font-size:60px;"">+</div>",NA,null,fixation,2020-06-02T21:08:53Z,NA,NA,NA,NA,NA,sub25
NA,mars-trial,100,273896,0.0-10.0-1.42,"""event"",""trial"",""time""
""focus"",""0"",""5442""
""fullscreenenter"",""0"",""12783""
","
","""event"",""trial"",""time""
""focus"",""0"",""5442""
","""event"",""trial"",""time""
""fullscreenenter"",""0"",""12783""
","
",1460.0000000000582,<img style='border: 4px solid darkgrey;' src='img/tf1_43_M_ss3.jpeg'></img>,1,NA,exp,NA,2,<img src='img/tf1_43_T1_ss3_md.jpeg'></img>,0,FALSE,NA,sub25
NA,html-keyboard-response,101,274398,0.0-10.0-0.43,"""event"",""trial"",""time""
""focus"",""0"",""5442""
""fullscreenenter"",""0"",""12783""
","
","""event"",""trial"",""time""
""focus"",""0"",""5442""
","""event"",""trial"",""time""
""fullscreenenter"",""0"",""12783""
","
",null,"<div style=""font-size:60px;"">+</div>",NA,null,fixation,2020-06-02T21:08:56Z,NA,NA,NA,NA,NA,sub25
NA,mars-trial,102,275978,0.0-10.0-1.43,"""event"",""trial"",""time""
""focus"",""0"",""5442""
""fullscreenenter"",""0"",""12783""
","
","""event"",""trial"",""time""
""focus"",""0"",""5442""
","""event"",""trial"",""time""
""fullscreenenter"",""0"",""12783""
","
",979,<img style='border: 4px solid darkgrey;' src='img/tf1_44_M_ss1.jpeg'></img>,3,NA,exp,NA,3,<img src='img/tf1_44_T1_ss1_md.jpeg'></img>,0,FALSE,NA,sub25
NA,html-keyboard-response,103,276480,0.0-10.0-0.44,"""event"",""trial"",""time""
""focus"",""0"",""5442""
""fullscreenenter"",""0"",""12783""
","
","""event"",""trial"",""time""
""focus"",""0"",""5442""
","""event"",""trial"",""time""
""fullscreenenter"",""0"",""12783""
","
",null,"<div style=""font-size:60px;"">+</div>",NA,null,fixation,2020-06-02T21:08:58Z,NA,NA,NA,NA,NA,sub25
NA,mars-trial,104,277792,0.0-10.0-1.44,"""event"",""trial"",""time""
""focus"",""0"",""5442""
""fullscreenenter"",""0"",""12783""
","
","""event"",""trial"",""time""
""focus"",""0"",""5442""
","""event"",""trial"",""time""
""fullscreenenter"",""0"",""12783""
","
",709,<img style='border: 4px solid darkgrey;' src='img/tf1_45_M_ss2.jpeg'></img>,1,NA,exp,NA,0,<img src='img/tf1_45_T1_ss2_md.jpeg'></img>,0,TRUE,NA,sub25
NA,html-keyboard-response,105,278293,0.0-10.0-0.45,"""event"",""trial"",""time""
""focus"",""0"",""5442""
""fullscreenenter"",""0"",""12783""
","
","""event"",""trial"",""time""
""focus"",""0"",""5442""
","""event"",""trial"",""time""
""fullscreenenter"",""0"",""12783""
","
",null,"<div style=""font-size:60px;"">+</div>",NA,null,fixation,2020-06-02T21:09:00Z,NA,NA,NA,NA,NA,sub25
NA,mars-trial,106,279649,0.0-10.0-1.45,"""event"",""trial"",""time""
""focus"",""0"",""5442""
""fullscreenenter"",""0"",""12783""
","
","""event"",""trial"",""time""
""focus"",""0"",""5442""
","""event"",""trial"",""time""
""fullscreenenter"",""0"",""12783""
","
",751.9999999999418,<img style='border: 4px solid darkgrey;' src='img/tf1_46_M_ss3.jpeg'></img>,2,NA,exp,NA,1,<img src='img/tf1_46_T1_ss3_md.jpeg'></img>,0,FALSE,NA,sub25
NA,html-keyboard-response,107,280150,0.0-10.0-0.46,"""event"",""trial"",""time""
""focus"",""0"",""5442""
""fullscreenenter"",""0"",""12783""
","
","""event"",""trial"",""time""
""focus"",""0"",""5442""
","""event"",""trial"",""time""
""fullscreenenter"",""0"",""12783""
","
",null,"<div style=""font-size:60px;"">+</div>",NA,null,fixation,2020-06-02T21:09:02Z,NA,NA,NA,NA,NA,sub25
NA,mars-trial,108,282223,0.0-10.0-1.46,"""event"",""trial"",""time""
""focus"",""0"",""5442""
""fullscreenenter"",""0"",""12783""
","
","""event"",""trial"",""time""
""focus"",""0"",""5442""
","""event"",""trial"",""time""
""fullscreenenter"",""0"",""12783""
","
",1469,<img style='border: 4px solid darkgrey;' src='img/tf1_47_M_ss1.jpeg'></img>,0,NA,exp,NA,0,<img src='img/tf1_47_T1_ss1_md.jpeg'></img>,0,TRUE,NA,sub25
NA,html-keyboard-response,109,282724,0.0-10.0-0.47,"""event"",""trial"",""time""
""focus"",""0"",""5442""
""fullscreenenter"",""0"",""12783""
","
","""event"",""trial"",""time""
""focus"",""0"",""5442""
","""event"",""trial"",""time""
""fullscreenenter"",""0"",""12783""
","
",null,"<div style=""font-size:60px;"">+</div>",NA,null,fixation,2020-06-02T21:09:04Z,NA,NA,NA,NA,NA,sub25
NA,mars-trial,110,285965,0.0-10.0-1.47,"""event"",""trial"",""time""
""focus"",""0"",""5442""
""fullscreenenter"",""0"",""12783""
","
","""event"",""trial"",""time""
""focus"",""0"",""5442""
","""event"",""trial"",""time""
""fullscreenenter"",""0"",""12783""
","
",2637,<img style='border: 4px solid darkgrey;' src='img/tf1_48_M_ss2.jpeg'></img>,3,NA,exp,NA,3,<img src='img/tf1_48_T1_ss2_md.jpeg'></img>,0,FALSE,NA,sub25
NA,html-keyboard-response,111,286465,0.0-10.0-0.48,"""event"",""trial"",""time""
""focus"",""0"",""5442""
""fullscreenenter"",""0"",""12783""
","
","""event"",""trial"",""time""
""focus"",""0"",""5442""
","""event"",""trial"",""time""
""fullscreenenter"",""0"",""12783""
","
",null,"<div style=""font-size:60px;"">+</div>",NA,null,fixation,2020-06-02T21:09:08Z,NA,NA,NA,NA,NA,sub25
NA,mars-trial,112,289683,0.0-10.0-1.48,"""event"",""trial"",""time""
""focus"",""0"",""5442""
""fullscreenenter"",""0"",""12783""
","
","""event"",""trial"",""time""
""focus"",""0"",""5442""
","""event"",""trial"",""time""
""fullscreenenter"",""0"",""12783""
","
",2614.000000000058,<img style='border: 4px solid darkgrey;' src='img/tf1_49_M_ss3.jpeg'></img>,1,NA,exp,NA,1,<img src='img/tf1_49_T1_ss3_md.jpeg'></img>,0,FALSE,NA,sub25
NA,html-keyboard-response,113,290184,0.0-10.0-0.49,"""event"",""trial"",""time""
""focus"",""0"",""5442""
""fullscreenenter"",""0"",""12783""
","
","""event"",""trial"",""time""
""focus"",""0"",""5442""
","""event"",""trial"",""time""
""fullscreenenter"",""0"",""12783""
","
",null,"<div style=""font-size:60px;"">+</div>",NA,null,fixation,2020-06-02T21:09:12Z,NA,NA,NA,NA,NA,sub25
NA,mars-trial,114,292269,0.0-10.0-1.49,"""event"",""trial"",""time""
""focus"",""0"",""5442""
""fullscreenenter"",""0"",""12783""
","
","""event"",""trial"",""time""
""focus"",""0"",""5442""
","""event"",""trial"",""time""
""fullscreenenter"",""0"",""12783""
","
",1481,<img style='border: 4px solid darkgrey;' src='img/tf1_50_M_ss1.jpeg'></img>,2,NA,exp,NA,1,<img src='img/tf1_50_T1_ss1_md.jpeg'></img>,0,FALSE,NA,sub25
NA,html-keyboard-response,115,292770,0.0-10.0-0.50,"""event"",""trial"",""time""
""focus"",""0"",""5442""
""fullscreenenter"",""0"",""12783""
","
","""event"",""trial"",""time""
""focus"",""0"",""5442""
","""event"",""trial"",""time""
""fullscreenenter"",""0"",""12783""
","
",null,"<div style=""font-size:60px;"">+</div>",NA,null,fixation,2020-06-02T21:09:14Z,NA,NA,NA,NA,NA,sub25
NA,mars-trial,116,295022,0.0-10.0-1.50,"""event"",""trial"",""time""
""focus"",""0"",""5442""
""fullscreenenter"",""0"",""12783""
","
","""event"",""trial"",""time""
""focus"",""0"",""5442""
","""event"",""trial"",""time""
""fullscreenenter"",""0"",""12783""
","
",1649.9999999999418,<img style='border: 4px solid darkgrey;' src='img/tf1_51_M_ss2.jpeg'></img>,3,NA,exp,NA,1,<img src='img/tf1_51_T1_ss2_md.jpeg'></img>,0,FALSE,NA,sub25
NA,html-keyboard-response,117,295523,0.0-10.0-0.51,"""event"",""trial"",""time""
""focus"",""0"",""5442""
""fullscreenenter"",""0"",""12783""
","
","""event"",""trial"",""time""
""focus"",""0"",""5442""
","""event"",""trial"",""time""
""fullscreenenter"",""0"",""12783""
","
",null,"<div style=""font-size:60px;"">+</div>",NA,null,fixation,2020-06-02T21:09:17Z,NA,NA,NA,NA,NA,sub25
NA,mars-trial,118,297217,0.0-10.0-1.51,"""event"",""trial"",""time""
""focus"",""0"",""5442""
""fullscreenenter"",""0"",""12783""
","
","""event"",""trial"",""time""
""focus"",""0"",""5442""
","""event"",""trial"",""time""
""fullscreenenter"",""0"",""12783""
","
",1090,<img style='border: 4px solid darkgrey;' src='img/tf1_52_M_ss3.jpeg'></img>,0,NA,exp,NA,3,<img src='img/tf1_52_T1_ss3_md.jpeg'></img>,0,FALSE,NA,sub25
NA,html-keyboard-response,119,297718,0.0-10.0-0.52,"""event"",""trial"",""time""
""focus"",""0"",""5442""
""fullscreenenter"",""0"",""12783""
","
","""event"",""trial"",""time""
""focus"",""0"",""5442""
","""event"",""trial"",""time""
""fullscreenenter"",""0"",""12783""
","
",null,"<div style=""font-size:60px;"">+</div>",NA,null,fixation,2020-06-02T21:09:19Z,NA,NA,NA,NA,NA,sub25
NA,mars-trial,120,298926,0.0-10.0-1.52,"""event"",""trial"",""time""
""focus"",""0"",""5442""
""fullscreenenter"",""0"",""12783""
","
","""event"",""trial"",""time""
""focus"",""0"",""5442""
","""event"",""trial"",""time""
""fullscreenenter"",""0"",""12783""
","
",606,<img style='border: 4px solid darkgrey;' src='img/tf1_53_M_ss1.jpeg'></img>,1,NA,exp,NA,1,<img src='img/tf1_53_T1_ss1_md.jpeg'></img>,0,FALSE,NA,sub25
NA,html-keyboard-response,121,299428,0.0-10.0-0.53,"""event"",""trial"",""time""
""focus"",""0"",""5442""
""fullscreenenter"",""0"",""12783""
","
","""event"",""trial"",""time""
""focus"",""0"",""5442""
","""event"",""trial"",""time""
""fullscreenenter"",""0"",""12783""
","
",null,"<div style=""font-size:60px;"">+</div>",NA,null,fixation,2020-06-02T21:09:21Z,NA,NA,NA,NA,NA,sub25
NA,mars-trial,122,300687,0.0-10.0-1.53,"""event"",""trial"",""time""
""focus"",""0"",""5442""
""fullscreenenter"",""0"",""12783""
","
","""event"",""trial"",""time""
""focus"",""0"",""5442""
","""event"",""trial"",""time""
""fullscreenenter"",""0"",""12783""
","
",655,<img style='border: 4px solid darkgrey;' src='img/tf1_54_M_ss2.jpeg'></img>,2,NA,exp,NA,2,<img src='img/tf1_54_T1_ss2_md.jpeg'></img>,0,FALSE,NA,sub25
NA,html-keyboard-response,123,301188,0.0-10.0-0.54,"""event"",""trial"",""time""
""focus"",""0"",""5442""
""fullscreenenter"",""0"",""12783""
","
","""event"",""trial"",""time""
""focus"",""0"",""5442""
","""event"",""trial"",""time""
""fullscreenenter"",""0"",""12783""
","
",null,"<div style=""font-size:60px;"">+</div>",NA,null,fixation,2020-06-02T21:09:23Z,NA,NA,NA,NA,NA,sub25
NA,mars-trial,124,302275,0.0-10.0-1.54,"""event"",""trial"",""time""
""focus"",""0"",""5442""
""fullscreenenter"",""0"",""12783""
","
","""event"",""trial"",""time""
""focus"",""0"",""5442""
","""event"",""trial"",""time""
""fullscreenenter"",""0"",""12783""
","
",484,<img style='border: 4px solid darkgrey;' src='img/tf1_55_M_ss3.jpeg'></img>,3,NA,exp,NA,3,<img src='img/tf1_55_T1_ss3_md.jpeg'></img>,0,FALSE,NA,sub25
NA,html-keyboard-response,125,302776,0.0-10.0-0.55,"""event"",""trial"",""time""
""focus"",""0"",""5442""
""fullscreenenter"",""0"",""12783""
","
","""event"",""trial"",""time""
""focus"",""0"",""5442""
","""event"",""trial"",""time""
""fullscreenenter"",""0"",""12783""
","
",null,"<div style=""font-size:60px;"">+</div>",NA,null,fixation,2020-06-02T21:09:24Z,NA,NA,NA,NA,NA,sub25
NA,mars-trial,126,306241,0.0-10.0-1.55,"""event"",""trial"",""time""
""focus"",""0"",""5442""
""fullscreenenter"",""0"",""12783""
","
","""event"",""trial"",""time""
""focus"",""0"",""5442""
","""event"",""trial"",""time""
""fullscreenenter"",""0"",""12783""
","
",2861,<img style='border: 4px solid darkgrey;' src='img/tf1_56_M_ss1.jpeg'></img>,1,NA,exp,NA,2,<img src='img/tf1_56_T1_ss1_md.jpeg'></img>,0,FALSE,NA,sub25
NA,html-keyboard-response,127,306742,0.0-10.0-0.56,"""event"",""trial"",""time""
""focus"",""0"",""5442""
""fullscreenenter"",""0"",""12783""
","
","""event"",""trial"",""time""
""focus"",""0"",""5442""
","""event"",""trial"",""time""
""fullscreenenter"",""0"",""12783""
","
",null,"<div style=""font-size:60px;"">+</div>",NA,null,fixation,2020-06-02T21:09:28Z,NA,NA,NA,NA,NA,sub25
NA,mars-trial,128,308536,0.0-10.0-1.56,"""event"",""trial"",""time""
""focus"",""0"",""5442""
""fullscreenenter"",""0"",""12783""
","
","""event"",""trial"",""time""
""focus"",""0"",""5442""
","""event"",""trial"",""time""
""fullscreenenter"",""0"",""12783""
","
",1190,<img style='border: 4px solid darkgrey;' src='img/tf1_57_M_ss2.jpeg'></img>,2,NA,exp,NA,3,<img src='img/tf1_57_T1_ss2_md.jpeg'></img>,0,FALSE,NA,sub25
NA,html-keyboard-response,129,309037,0.0-10.0-0.57,"""event"",""trial"",""time""
""focus"",""0"",""5442""
""fullscreenenter"",""0"",""12783""
","
","""event"",""trial"",""time""
""focus"",""0"",""5442""
","""event"",""trial"",""time""
""fullscreenenter"",""0"",""12783""
","
",null,"<div style=""font-size:60px;"">+</div>",NA,null,fixation,2020-06-02T21:09:30Z,NA,NA,NA,NA,NA,sub25
NA,mars-trial,130,313143,0.0-10.0-1.57,"""event"",""trial"",""time""
""focus"",""0"",""5442""
""fullscreenenter"",""0"",""12783""
","
","""event"",""trial"",""time""
""focus"",""0"",""5442""
","""event"",""trial"",""time""
""fullscreenenter"",""0"",""12783""
","
",3504,<img style='border: 4px solid darkgrey;' src='img/tf1_58_M_ss3.jpeg'></img>,0,NA,exp,NA,3,<img src='img/tf1_58_T1_ss3_md.jpeg'></img>,0,FALSE,NA,sub25
NA,html-keyboard-response,131,313645,0.0-10.0-0.58,"""event"",""trial"",""time""
""focus"",""0"",""5442""
""fullscreenenter"",""0"",""12783""
","
","""event"",""trial"",""time""
""focus"",""0"",""5442""
","""event"",""trial"",""time""
""fullscreenenter"",""0"",""12783""
","
",null,"<div style=""font-size:60px;"">+</div>",NA,null,fixation,2020-06-02T21:09:35Z,NA,NA,NA,NA,NA,sub25
NA,mars-trial,132,317000,0.0-10.0-1.58,"""event"",""trial"",""time""
""focus"",""0"",""5442""
""fullscreenenter"",""0"",""12783""
","
","""event"",""trial"",""time""
""focus"",""0"",""5442""
","""event"",""trial"",""time""
""fullscreenenter"",""0"",""12783""
","
",2752.999999999942,<img style='border: 4px solid darkgrey;' src='img/tf1_59_M_ss1.jpeg'></img>,1,NA,exp,NA,2,<img src='img/tf1_59_T1_ss1_md.jpeg'></img>,0,FALSE,NA,sub25
NA,html-keyboard-response,133,317502,0.0-10.0-0.59,"""event"",""trial"",""time""
""focus"",""0"",""5442""
""fullscreenenter"",""0"",""12783""
","
","""event"",""trial"",""time""
""focus"",""0"",""5442""
","""event"",""trial"",""time""
""fullscreenenter"",""0"",""12783""
","
",null,"<div style=""font-size:60px;"">+</div>",NA,null,fixation,2020-06-02T21:09:39Z,NA,NA,NA,NA,NA,sub25
NA,mars-trial,134,320556,0.0-10.0-1.59,"""event"",""trial"",""time""
""focus"",""0"",""5442""
""fullscreenenter"",""0"",""12783""
","
","""event"",""trial"",""time""
""focus"",""0"",""5442""
","""event"",""trial"",""time""
""fullscreenenter"",""0"",""12783""
","
",2450,<img style='border: 4px solid darkgrey;' src='img/tf1_60_M_ss2.jpeg'></img>,2,NA,exp,NA,2,<img src='img/tf1_60_T1_ss2_md.jpeg'></img>,0,FALSE,NA,sub25
NA,html-keyboard-response,135,321058,0.0-10.0-0.60,"""event"",""trial"",""time""
""focus"",""0"",""5442""
""fullscreenenter"",""0"",""12783""
","
","""event"",""trial"",""time""
""focus"",""0"",""5442""
","""event"",""trial"",""time""
""fullscreenenter"",""0"",""12783""
","
",null,"<div style=""font-size:60px;"">+</div>",NA,null,fixation,2020-06-02T21:09:42Z,NA,NA,NA,NA,NA,sub25
NA,mars-trial,136,327080,0.0-10.0-1.60,"""event"",""trial"",""time""
""focus"",""0"",""5442""
""fullscreenenter"",""0"",""12783""
","
","""event"",""trial"",""time""
""focus"",""0"",""5442""
","""event"",""trial"",""time""
""fullscreenenter"",""0"",""12783""
","
",5419,<img style='border: 4px solid darkgrey;' src='img/tf1_61_M_ss3.jpeg'></img>,1,NA,exp,NA,0,<img src='img/tf1_61_T1_ss3_md.jpeg'></img>,0,TRUE,NA,sub25
NA,html-keyboard-response,137,327582,0.0-10.0-0.61,"""event"",""trial"",""time""
""focus"",""0"",""5442""
""fullscreenenter"",""0"",""12783""
","
","""event"",""trial"",""time""
""focus"",""0"",""5442""
","""event"",""trial"",""time""
""fullscreenenter"",""0"",""12783""
","
",null,"<div style=""font-size:60px;"">+</div>",NA,null,fixation,2020-06-02T21:09:49Z,NA,NA,NA,NA,NA,sub25
NA,mars-trial,138,337109,0.0-10.0-1.61,"""event"",""trial"",""time""
""focus"",""0"",""5442""
""fullscreenenter"",""0"",""12783""
","
","""event"",""trial"",""time""
""focus"",""0"",""5442""
","""event"",""trial"",""time""
""fullscreenenter"",""0"",""12783""
","
",8924,<img style='border: 4px solid darkgrey;' src='img/tf1_62_M_ss1.jpeg'></img>,0,NA,exp,NA,0,<img src='img/tf1_62_T1_ss1_md.jpeg'></img>,0,TRUE,NA,sub25
NA,html-keyboard-response,139,337611,0.0-10.0-0.62,"""event"",""trial"",""time""
""focus"",""0"",""5442""
""fullscreenenter"",""0"",""12783""
","
","""event"",""trial"",""time""
""focus"",""0"",""5442""
","""event"",""trial"",""time""
""fullscreenenter"",""0"",""12783""
","
",null,"<div style=""font-size:60px;"">+</div>",NA,null,fixation,2020-06-02T21:09:59Z,NA,NA,NA,NA,NA,sub25
NA,mars-trial,140,354853,0.0-10.0-1.62,"""event"",""trial"",""time""
""focus"",""0"",""5442""
""fullscreenenter"",""0"",""12783""
","
","""event"",""trial"",""time""
""focus"",""0"",""5442""
","""event"",""trial"",""time""
""fullscreenenter"",""0"",""12783""
","
",16637,<img style='border: 4px solid darkgrey;' src='img/tf1_63_M_ss2.jpeg'></img>,1,NA,exp,NA,2,<img src='img/tf1_63_T1_ss2_md.jpeg'></img>,0,FALSE,NA,sub25
NA,html-keyboard-response,141,355354,0.0-10.0-0.63,"""event"",""trial"",""time""
""focus"",""0"",""5442""
""fullscreenenter"",""0"",""12783""
","
","""event"",""trial"",""time""
""focus"",""0"",""5442""
","""event"",""trial"",""time""
""fullscreenenter"",""0"",""12783""
","
",null,"<div style=""font-size:60px;"">+</div>",NA,null,fixation,2020-06-02T21:10:17Z,NA,NA,NA,NA,NA,sub25
NA,mars-trial,142,357170,0.0-10.0-1.63,"""event"",""trial"",""time""
""focus"",""0"",""5442""
""fullscreenenter"",""0"",""12783""
","
","""event"",""trial"",""time""
""focus"",""0"",""5442""
","""event"",""trial"",""time""
""fullscreenenter"",""0"",""12783""
","
",1213,<img style='border: 4px solid darkgrey;' src='img/tf1_64_M_ss3.jpeg'></img>,3,NA,exp,NA,0,<img src='img/tf1_64_T1_ss3_md.jpeg'></img>,0,TRUE,NA,sub25
NA,html-keyboard-response,143,357671,0.0-10.0-0.64,"""event"",""trial"",""time""
""focus"",""0"",""5442""
""fullscreenenter"",""0"",""12783""
","
","""event"",""trial"",""time""
""focus"",""0"",""5442""
","""event"",""trial"",""time""
""fullscreenenter"",""0"",""12783""
","
",null,"<div style=""font-size:60px;"">+</div>",NA,null,fixation,2020-06-02T21:10:19Z,NA,NA,NA,NA,NA,sub25
NA,mars-trial,144,363312,0.0-10.0-1.64,"""event"",""trial"",""time""
""focus"",""0"",""5442""
""fullscreenenter"",""0"",""12783""
","
","""event"",""trial"",""time""
""focus"",""0"",""5442""
","""event"",""trial"",""time""
""fullscreenenter"",""0"",""12783""
","
",5038,<img style='border: 4px solid darkgrey;' src='img/tf1_65_M_ss1.jpeg'></img>,1,NA,exp,NA,0,<img src='img/tf1_65_T1_ss1_md.jpeg'></img>,0,TRUE,NA,sub25
NA,html-keyboard-response,145,363813,0.0-10.0-0.65,"""event"",""trial"",""time""
""focus"",""0"",""5442""
""fullscreenenter"",""0"",""12783""
","
","""event"",""trial"",""time""
""focus"",""0"",""5442""
","""event"",""trial"",""time""
""fullscreenenter"",""0"",""12783""
","
",null,"<div style=""font-size:60px;"">+</div>",NA,null,fixation,2020-06-02T21:10:25Z,NA,NA,NA,NA,NA,sub25
NA,mars-trial,146,366272,0.0-10.0-1.65,"""event"",""trial"",""time""
""focus"",""0"",""5442""
""fullscreenenter"",""0"",""12783""
","
","""event"",""trial"",""time""
""focus"",""0"",""5442""
","""event"",""trial"",""time""
""fullscreenenter"",""0"",""12783""
","
",1856,<img style='border: 4px solid darkgrey;' src='img/tf1_66_M_ss2.jpeg'></img>,3,NA,exp,NA,1,<img src='img/tf1_66_T1_ss2_md.jpeg'></img>,0,FALSE,NA,sub25
NA,html-keyboard-response,147,366773,0.0-10.0-0.66,"""event"",""trial"",""time""
""focus"",""0"",""5442""
""fullscreenenter"",""0"",""12783""
","
","""event"",""trial"",""time""
""focus"",""0"",""5442""
","""event"",""trial"",""time""
""fullscreenenter"",""0"",""12783""
","
",null,"<div style=""font-size:60px;"">+</div>",NA,null,fixation,2020-06-02T21:10:28Z,NA,NA,NA,NA,NA,sub25
NA,mars-trial,148,368129,0.0-10.0-1.66,"""event"",""trial"",""time""
""focus"",""0"",""5442""
""fullscreenenter"",""0"",""12783""
","
","""event"",""trial"",""time""
""focus"",""0"",""5442""
","""event"",""trial"",""time""
""fullscreenenter"",""0"",""12783""
","
",751,<img style='border: 4px solid darkgrey;' src='img/tf1_67_M_ss3.jpeg'></img>,1,NA,exp,NA,2,<img src='img/tf1_67_T1_ss3_md.jpeg'></img>,0,FALSE,NA,sub25
NA,html-keyboard-response,149,368630,0.0-10.0-0.67,"""event"",""trial"",""time""
""focus"",""0"",""5442""
""fullscreenenter"",""0"",""12783""
","
","""event"",""trial"",""time""
""focus"",""0"",""5442""
","""event"",""trial"",""time""
""fullscreenenter"",""0"",""12783""
","
",null,"<div style=""font-size:60px;"">+</div>",NA,null,fixation,2020-06-02T21:10:30Z,NA,NA,NA,NA,NA,sub25
NA,mars-trial,150,372325,0.0-10.0-1.67,"""event"",""trial"",""time""
""focus"",""0"",""5442""
""fullscreenenter"",""0"",""12783""
","
","""event"",""trial"",""time""
""focus"",""0"",""5442""
","""event"",""trial"",""time""
""fullscreenenter"",""0"",""12783""
","
",3091,<img style='border: 4px solid darkgrey;' src='img/tf1_68_M_ss1.jpeg'></img>,0,NA,exp,NA,0,<img src='img/tf1_68_T1_ss1_md.jpeg'></img>,0,TRUE,NA,sub25
NA,html-keyboard-response,151,372825,0.0-10.0-0.68,"""event"",""trial"",""time""
""focus"",""0"",""5442""
""fullscreenenter"",""0"",""12783""
","
","""event"",""trial"",""time""
""focus"",""0"",""5442""
","""event"",""trial"",""time""
""fullscreenenter"",""0"",""12783""
","
",null,"<div style=""font-size:60px;"">+</div>",NA,null,fixation,2020-06-02T21:10:34Z,NA,NA,NA,NA,NA,sub25
NA,mars-trial,152,375888,0.0-10.0-1.68,"""event"",""trial"",""time""
""focus"",""0"",""5442""
""fullscreenenter"",""0"",""12783""
","
","""event"",""trial"",""time""
""focus"",""0"",""5442""
","""event"",""trial"",""time""
""fullscreenenter"",""0"",""12783""
","
",2460,<img style='border: 4px solid darkgrey;' src='img/tf1_69_M_ss2.jpeg'></img>,3,NA,exp,NA,2,<img src='img/tf1_69_T1_ss2_md.jpeg'></img>,0,FALSE,NA,sub25
NA,html-keyboard-response,153,376388,0.0-10.0-0.69,"""event"",""trial"",""time""
""focus"",""0"",""5442""
""fullscreenenter"",""0"",""12783""
","
","""event"",""trial"",""time""
""focus"",""0"",""5442""
","""event"",""trial"",""time""
""fullscreenenter"",""0"",""12783""
","
",null,"<div style=""font-size:60px;"">+</div>",NA,null,fixation,2020-06-02T21:10:38Z,NA,NA,NA,NA,NA,sub25
NA,mars-trial,154,377902,0.0-10.0-1.69,"""event"",""trial"",""time""
""focus"",""0"",""5442""
""fullscreenenter"",""0"",""12783""
","
","""event"",""trial"",""time""
""focus"",""0"",""5442""
","""event"",""trial"",""time""
""fullscreenenter"",""0"",""12783""
","
",912,<img style='border: 4px solid darkgrey;' src='img/tf1_70_M_ss3.jpeg'></img>,0,NA,exp,NA,1,<img src='img/tf1_70_T1_ss3_md.jpeg'></img>,0,FALSE,NA,sub25
NA,html-keyboard-response,155,378404,0.0-10.0-0.70,"""event"",""trial"",""time""
""focus"",""0"",""5442""
""fullscreenenter"",""0"",""12783""
","
","""event"",""trial"",""time""
""focus"",""0"",""5442""
","""event"",""trial"",""time""
""fullscreenenter"",""0"",""12783""
","
",null,"<div style=""font-size:60px;"">+</div>",NA,null,fixation,2020-06-02T21:10:40Z,NA,NA,NA,NA,NA,sub25
NA,mars-trial,156,384299,0.0-10.0-1.70,"""event"",""trial"",""time""
""focus"",""0"",""5442""
""fullscreenenter"",""0"",""12783""
","
","""event"",""trial"",""time""
""focus"",""0"",""5442""
","""event"",""trial"",""time""
""fullscreenenter"",""0"",""12783""
","
",5291,<img style='border: 4px solid darkgrey;' src='img/tf1_71_M_ss1.jpeg'></img>,1,NA,exp,NA,2,<img src='img/tf1_71_T1_ss1_md.jpeg'></img>,0,FALSE,NA,sub25
NA,html-keyboard-response,157,384801,0.0-10.0-0.71,"""event"",""trial"",""time""
""focus"",""0"",""5442""
""fullscreenenter"",""0"",""12783""
","
","""event"",""trial"",""time""
""focus"",""0"",""5442""
","""event"",""trial"",""time""
""fullscreenenter"",""0"",""12783""
","
",null,"<div style=""font-size:60px;"">+</div>",NA,null,fixation,2020-06-02T21:10:46Z,NA,NA,NA,NA,NA,sub25
NA,mars-trial,158,386026,0.0-10.0-1.71,"""event"",""trial"",""time""
""focus"",""0"",""5442""
""fullscreenenter"",""0"",""12783""
","
","""event"",""trial"",""time""
""focus"",""0"",""5442""
","""event"",""trial"",""time""
""fullscreenenter"",""0"",""12783""
","
",623,<img style='border: 4px solid darkgrey;' src='img/tf1_72_M_ss2.jpeg'></img>,2,NA,exp,NA,1,<img src='img/tf1_72_T1_ss2_md.jpeg'></img>,0,FALSE,NA,sub25
NA,html-keyboard-response,159,386528,0.0-10.0-0.72,"""event"",""trial"",""time""
""focus"",""0"",""5442""
""fullscreenenter"",""0"",""12783""
","
","""event"",""trial"",""time""
""focus"",""0"",""5442""
","""event"",""trial"",""time""
""fullscreenenter"",""0"",""12783""
","
",null,"<div style=""font-size:60px;"">+</div>",NA,null,fixation,2020-06-02T21:10:48Z,NA,NA,NA,NA,NA,sub25
NA,mars-trial,160,387190,0.0-10.0-1.72,"""event"",""trial"",""time""
""focus"",""0"",""5442""
""fullscreenenter"",""0"",""12783""
","
","""event"",""trial"",""time""
""focus"",""0"",""5442""
","""event"",""trial"",""time""
""fullscreenenter"",""0"",""12783""
","
",58.00000000005821,<img style='border: 4px solid darkgrey;' src='img/tf1_73_M_ss3.jpeg'></img>,3,NA,exp,NA,0,<img src='img/tf1_73_T1_ss3_md.jpeg'></img>,0,TRUE,NA,sub25
NA,html-keyboard-response,161,387692,0.0-10.0-0.73,"""event"",""trial"",""time""
""focus"",""0"",""5442""
""fullscreenenter"",""0"",""12783""
","
","""event"",""trial"",""time""
""focus"",""0"",""5442""
","""event"",""trial"",""time""
""fullscreenenter"",""0"",""12783""
","
",null,"<div style=""font-size:60px;"">+</div>",NA,null,fixation,2020-06-02T21:10:49Z,NA,NA,NA,NA,NA,sub25
NA,mars-trial,162,389607,0.0-10.0-1.73,"""event"",""trial"",""time""
""focus"",""0"",""5442""
""fullscreenenter"",""0"",""12783""
","
","""event"",""trial"",""time""
""focus"",""0"",""5442""
","""event"",""trial"",""time""
""fullscreenenter"",""0"",""12783""
","
",1312,<img style='border: 4px solid darkgrey;' src='img/tf1_74_M_ss1.jpeg'></img>,0,NA,exp,NA,1,<img src='img/tf1_74_T1_ss1_md.jpeg'></img>,0,FALSE,NA,sub25
NA,html-keyboard-response,163,390107,0.0-10.0-0.74,"""event"",""trial"",""time""
""focus"",""0"",""5442""
""fullscreenenter"",""0"",""12783""
","
","""event"",""trial"",""time""
""focus"",""0"",""5442""
","""event"",""trial"",""time""
""fullscreenenter"",""0"",""12783""
","
",null,"<div style=""font-size:60px;"">+</div>",NA,null,fixation,2020-06-02T21:10:52Z,NA,NA,NA,NA,NA,sub25
NA,mars-trial,164,392731,0.0-10.0-1.74,"""event"",""trial"",""time""
""focus"",""0"",""5442""
""fullscreenenter"",""0"",""12783""
","
","""event"",""trial"",""time""
""focus"",""0"",""5442""
","""event"",""trial"",""time""
""fullscreenenter"",""0"",""12783""
","
",2020,<img style='border: 4px solid darkgrey;' src='img/tf1_75_M_ss2.jpeg'></img>,2,NA,exp,NA,3,<img src='img/tf1_75_T1_ss2_md.jpeg'></img>,0,FALSE,NA,sub25
NA,html-keyboard-response,165,393233,0.0-10.0-0.75,"""event"",""trial"",""time""
""focus"",""0"",""5442""
""fullscreenenter"",""0"",""12783""
","
","""event"",""trial"",""time""
""focus"",""0"",""5442""
","""event"",""trial"",""time""
""fullscreenenter"",""0"",""12783""
","
",null,"<div style=""font-size:60px;"">+</div>",NA,null,fixation,2020-06-02T21:10:55Z,NA,NA,NA,NA,NA,sub25
NA,mars-trial,166,394447,0.0-10.0-1.75,"""event"",""trial"",""time""
""focus"",""0"",""5442""
""fullscreenenter"",""0"",""12783""
","
","""event"",""trial"",""time""
""focus"",""0"",""5442""
","""event"",""trial"",""time""
""fullscreenenter"",""0"",""12783""
","
",612.0000000000582,<img style='border: 4px solid darkgrey;' src='img/tf1_76_M_ss3.jpeg'></img>,1,NA,exp,NA,2,<img src='img/tf1_76_T1_ss3_md.jpeg'></img>,0,FALSE,NA,sub25
NA,html-keyboard-response,167,394948,0.0-10.0-0.76,"""event"",""trial"",""time""
""focus"",""0"",""5442""
""fullscreenenter"",""0"",""12783""
","
","""event"",""trial"",""time""
""focus"",""0"",""5442""
","""event"",""trial"",""time""
""fullscreenenter"",""0"",""12783""
","
",null,"<div style=""font-size:60px;"">+</div>",NA,null,fixation,2020-06-02T21:10:56Z,NA,NA,NA,NA,NA,sub25
NA,mars-trial,168,396706,0.0-10.0-1.76,"""event"",""trial"",""time""
""focus"",""0"",""5442""
""fullscreenenter"",""0"",""12783""
","
","""event"",""trial"",""time""
""focus"",""0"",""5442""
","""event"",""trial"",""time""
""fullscreenenter"",""0"",""12783""
","
",1156,<img style='border: 4px solid darkgrey;' src='img/tf1_77_M_ss1.jpeg'></img>,0,NA,exp,NA,3,<img src='img/tf1_77_T1_ss1_md.jpeg'></img>,0,FALSE,NA,sub25
NA,html-keyboard-response,169,397207,0.0-10.0-0.77,"""event"",""trial"",""time""
""focus"",""0"",""5442""
""fullscreenenter"",""0"",""12783""
","
","""event"",""trial"",""time""
""focus"",""0"",""5442""
","""event"",""trial"",""time""
""fullscreenenter"",""0"",""12783""
","
",null,"<div style=""font-size:60px;"">+</div>",NA,null,fixation,2020-06-02T21:10:59Z,NA,NA,NA,NA,NA,sub25
NA,mars-trial,170,409009,0.0-10.0-1.77,"""event"",""trial"",""time""
""focus"",""0"",""5442""
""fullscreenenter"",""0"",""12783""
","
","""event"",""trial"",""time""
""focus"",""0"",""5442""
","""event"",""trial"",""time""
""fullscreenenter"",""0"",""12783""
","
",11198,<img style='border: 4px solid darkgrey;' src='img/tf1_78_M_ss2.jpeg'></img>,3,NA,exp,NA,3,<img src='img/tf1_78_T1_ss2_md.jpeg'></img>,0,FALSE,NA,sub25
NA,html-keyboard-response,171,409511,0.0-10.0-0.78,"""event"",""trial"",""time""
""focus"",""0"",""5442""
""fullscreenenter"",""0"",""12783""
","
","""event"",""trial"",""time""
""focus"",""0"",""5442""
","""event"",""trial"",""time""
""fullscreenenter"",""0"",""12783""
","
",null,"<div style=""font-size:60px;"">+</div>",NA,null,fixation,2020-06-02T21:11:11Z,NA,NA,NA,NA,NA,sub25
NA,mars-trial,172,417755,0.0-10.0-1.78,"""event"",""trial"",""time""
""focus"",""0"",""5442""
""fullscreenenter"",""0"",""12783""
","
","""event"",""trial"",""time""
""focus"",""0"",""5442""
","""event"",""trial"",""time""
""fullscreenenter"",""0"",""12783""
","
",7641.999999999942,<img style='border: 4px solid darkgrey;' src='img/tf1_79_M_ss3.jpeg'></img>,1,NA,exp,NA,0,<img src='img/tf1_79_T1_ss3_md.jpeg'></img>,0,TRUE,NA,sub25
NA,html-keyboard-response,173,418256,0.0-10.0-0.79,"""event"",""trial"",""time""
""focus"",""0"",""5442""
""fullscreenenter"",""0"",""12783""
","
","""event"",""trial"",""time""
""focus"",""0"",""5442""
","""event"",""trial"",""time""
""fullscreenenter"",""0"",""12783""
","
",null,"<div style=""font-size:60px;"">+</div>",NA,null,fixation,2020-06-02T21:11:20Z,NA,NA,NA,NA,NA,sub25
NA,mars-trial,174,432162,0.0-10.0-1.79,"""event"",""trial"",""time""
""focus"",""0"",""5442""
""fullscreenenter"",""0"",""12783""
","
","""event"",""trial"",""time""
""focus"",""0"",""5442""
","""event"",""trial"",""time""
""fullscreenenter"",""0"",""12783""
","
",13302.000000000058,<img style='border: 4px solid darkgrey;' src='img/tf1_80_M_ss1.jpeg'></img>,2,NA,exp,NA,1,<img src='img/tf1_80_T1_ss1_md.jpeg'></img>,0,FALSE,NA,sub25
NA,audio-button-response,175,434103,0.0-11.0,"""event"",""trial"",""time""
""focus"",""0"",""5442""
""fullscreenenter"",""0"",""12783""
","
","""event"",""trial"",""time""
""focus"",""0"",""5442""
","""event"",""trial"",""time""
""fullscreenenter"",""0"",""12783""
","
",1940,audio/mars_instructions_slide5.wav,0,NA,NA,NA,NA,NA,NA,NA,NA,sub25
