success,trial_type,trial_index,time_elapsed,internal_node_id,interactions,blur_events,focus_events,fullscreenenter_events,fullscreenexit_events,rt,stimulus,button_pressed,key_press,part,timestamp,unshuffled_button,correct_response,correct_button,correct,value,subject_id
TRUE,fullscreen,0,5613,0.0-0.0,"""event"",""trial"",""time""
""fullscreenenter"",""0"",""4629""
","
","
","""event"",""trial"",""time""
""fullscreenenter"",""0"",""4629""
","
",NA,NA,NA,NA,NA,NA,NA,NA,NA,NA,NA,sub48
NA,pavlovia,1,5616,0.0-1.0,"""event"",""trial"",""time""
""fullscreenenter"",""0"",""4629""
","
","
","""event"",""trial"",""time""
""fullscreenenter"",""0"",""4629""
","
",NA,NA,NA,NA,NA,NA,NA,NA,NA,NA,NA,sub48
NA,html-button-response,2,6785,0.0-2.0,"""event"",""trial"",""time""
""fullscreenenter"",""0"",""4629""
","
","
","""event"",""trial"",""time""
""fullscreenenter"",""0"",""4629""
","
",1167.6549999974668,<p>Welcome! Press START to begin.</p><br>,0,NA,NA,NA,NA,NA,NA,NA,NA,sub48
NA,audio-button-response,3,26416,0.0-3.0,"""event"",""trial"",""time""
""fullscreenenter"",""0"",""4629""
","
","
","""event"",""trial"",""time""
""fullscreenenter"",""0"",""4629""
","
",19629.60500002373,audio/mars_instructions_slide2.wav,0,NA,NA,NA,NA,NA,NA,NA,NA,sub48
NA,audio-button-response,4,43116,0.0-4.0,"""event"",""trial"",""time""
""fullscreenenter"",""0"",""4629""
","
","
","""event"",""trial"",""time""
""fullscreenenter"",""0"",""4629""
","
",16698.740000021644,audio/mars_instructions_slide3.wav,0,NA,NA,NA,NA,NA,NA,NA,NA,sub48
NA,html-keyboard-response,5,43632,0.0-5.0-0.0,"""event"",""trial"",""time""
""fullscreenenter"",""0"",""4629""
","
","
","""event"",""trial"",""time""
""fullscreenenter"",""0"",""4629""
","
",null,"<div style=""font-size:60px;"">+</div>",NA,null,fixation,2020-06-14T20:40:01Z,NA,NA,NA,NA,NA,sub48
NA,mars-trial,6,50343,0.0-5.0-1.0,"""event"",""trial"",""time""
""fullscreenenter"",""0"",""4629""
","
","
","""event"",""trial"",""time""
""fullscreenenter"",""0"",""4629""
","
",4590.170000097714,<img style='border: 4px solid darkgrey;' src='practice/pt1_M1.png'></img>,2,NA,practice,NA,0,<img src='practice/pt1_T1.png'></img>,0,TRUE,NA,sub48
NA,html-keyboard-response,7,50846,0.0-6.0-0.0,"""event"",""trial"",""time""
""fullscreenenter"",""0"",""4629""
","
","
","""event"",""trial"",""time""
""fullscreenenter"",""0"",""4629""
","
",null,"<div style=""font-size:60px;"">+</div>",NA,null,fixation,2020-06-14T20:40:08Z,NA,NA,NA,NA,NA,sub48
NA,mars-trial,8,55073,0.0-6.0-1.0,"""event"",""trial"",""time""
""fullscreenenter"",""0"",""4629""
","
","
","""event"",""trial"",""time""
""fullscreenenter"",""0"",""4629""
","
",2108.494999934919,<img style='border: 4px solid darkgrey;' src='practice/pt2_M1.png'></img>,0,NA,practice,NA,0,<img src='practice/pt2_T1.png'></img>,0,TRUE,NA,sub48
NA,html-keyboard-response,9,55582,0.0-7.0-0.0,"""event"",""trial"",""time""
""fullscreenenter"",""0"",""4629""
","
","
","""event"",""trial"",""time""
""fullscreenenter"",""0"",""4629""
","
",null,"<div style=""font-size:60px;"">+</div>",NA,null,fixation,2020-06-14T20:40:12Z,NA,NA,NA,NA,NA,sub48
NA,mars-trial,10,59369,0.0-7.0-1.0,"""event"",""trial"",""time""
""fullscreenenter"",""0"",""4629""
","
","
","""event"",""trial"",""time""
""fullscreenenter"",""0"",""4629""
","
",1673.2400000328198,<img style='border: 4px solid darkgrey;' src='practice/pt3_M1.png'></img>,2,NA,practice,NA,0,<img src='practice/pt3_T1.png'></img>,0,TRUE,NA,sub48
NA,audio-button-response,11,63466,0.0-8.0,"""event"",""trial"",""time""
""fullscreenenter"",""0"",""4629""
","
","
","""event"",""trial"",""time""
""fullscreenenter"",""0"",""4629""
","
",4094.9900000123307,audio/mars_instructions_slide4.wav,0,NA,NA,NA,NA,NA,NA,NA,NA,sub48
NA,call-function,12,63467,0.0-9.0,"""event"",""trial"",""time""
""fullscreenenter"",""0"",""4629""
","
","
","""event"",""trial"",""time""
""fullscreenenter"",""0"",""4629""
","
",NA,NA,NA,NA,NA,NA,NA,NA,NA,NA,NA,sub48
NA,html-keyboard-response,13,63981,0.0-10.0-0.0,"""event"",""trial"",""time""
""fullscreenenter"",""0"",""4629""
","
","
","""event"",""trial"",""time""
""fullscreenenter"",""0"",""4629""
","
",null,"<div style=""font-size:60px;"">+</div>",NA,null,fixation,2020-06-14T20:40:21Z,NA,NA,NA,NA,NA,sub48
NA,mars-trial,14,66012,0.0-10.0-1.0,"""event"",""trial"",""time""
""fullscreenenter"",""0"",""4629""
","
","
","""event"",""trial"",""time""
""fullscreenenter"",""0"",""4629""
","
",1403.3649999182671,<img style='border: 4px solid darkgrey;' src='img/tf1_1_M_ss3.jpeg'></img>,2,NA,exp,NA,0,<img src='img/tf1_1_T1_ss3_md.jpeg'></img>,0,TRUE,NA,sub48
NA,html-keyboard-response,15,66522,0.0-10.0-0.1,"""event"",""trial"",""time""
""fullscreenenter"",""0"",""4629""
","
","
","""event"",""trial"",""time""
""fullscreenenter"",""0"",""4629""
","
",null,"<div style=""font-size:60px;"">+</div>",NA,null,fixation,2020-06-14T20:40:23Z,NA,NA,NA,NA,NA,sub48
NA,mars-trial,16,69333,0.0-10.0-1.1,"""event"",""trial"",""time""
""fullscreenenter"",""0"",""4629""
","
","
","""event"",""trial"",""time""
""fullscreenenter"",""0"",""4629""
","
",2181.2149999896064,<img style='border: 4px solid darkgrey;' src='img/tf1_2_M_ss1.jpeg'></img>,2,NA,exp,NA,0,<img src='img/tf1_2_T1_ss1_md.jpeg'></img>,0,TRUE,NA,sub48
NA,html-keyboard-response,17,69843,0.0-10.0-0.2,"""event"",""trial"",""time""
""fullscreenenter"",""0"",""4629""
","
","
","""event"",""trial"",""time""
""fullscreenenter"",""0"",""4629""
","
",null,"<div style=""font-size:60px;"">+</div>",NA,null,fixation,2020-06-14T20:40:27Z,NA,NA,NA,NA,NA,sub48
NA,mars-trial,18,72428,0.0-10.0-1.2,"""event"",""trial"",""time""
""fullscreenenter"",""0"",""4629""
","
","
","""event"",""trial"",""time""
""fullscreenenter"",""0"",""4629""
","
",1967.8250000579283,<img style='border: 4px solid darkgrey;' src='img/tf1_3_M_ss2.jpeg'></img>,2,NA,exp,NA,0,<img src='img/tf1_3_T1_ss2_md.jpeg'></img>,0,TRUE,NA,sub48
NA,html-keyboard-response,19,72930,0.0-10.0-0.3,"""event"",""trial"",""time""
""fullscreenenter"",""0"",""4629""
","
","
","""event"",""trial"",""time""
""fullscreenenter"",""0"",""4629""
","
",null,"<div style=""font-size:60px;"">+</div>",NA,null,fixation,2020-06-14T20:40:30Z,NA,NA,NA,NA,NA,sub48
NA,mars-trial,20,76312,0.0-10.0-1.3,"""event"",""trial"",""time""
""fullscreenenter"",""0"",""4629""
","
","
","""event"",""trial"",""time""
""fullscreenenter"",""0"",""4629""
","
",2765.9899999853224,<img style='border: 4px solid darkgrey;' src='img/tf1_4_M_ss3.jpeg'></img>,1,NA,exp,NA,0,<img src='img/tf1_4_T1_ss3_md.jpeg'></img>,0,TRUE,NA,sub48
NA,html-keyboard-response,21,76814,0.0-10.0-0.4,"""event"",""trial"",""time""
""fullscreenenter"",""0"",""4629""
","
","
","""event"",""trial"",""time""
""fullscreenenter"",""0"",""4629""
","
",null,"<div style=""font-size:60px;"">+</div>",NA,null,fixation,2020-06-14T20:40:34Z,NA,NA,NA,NA,NA,sub48
NA,mars-trial,22,81343,0.0-10.0-1.4,"""event"",""trial"",""time""
""fullscreenenter"",""0"",""4629""
","
","
","""event"",""trial"",""time""
""fullscreenenter"",""0"",""4629""
","
",3924.6099999872968,<img style='border: 4px solid darkgrey;' src='img/tf1_5_M_ss1.jpeg'></img>,0,NA,exp,NA,0,<img src='img/tf1_5_T1_ss1_md.jpeg'></img>,0,TRUE,NA,sub48
NA,html-keyboard-response,23,81853,0.0-10.0-0.5,"""event"",""trial"",""time""
""fullscreenenter"",""0"",""4629""
","
","
","""event"",""trial"",""time""
""fullscreenenter"",""0"",""4629""
","
",null,"<div style=""font-size:60px;"">+</div>",NA,null,fixation,2020-06-14T20:40:39Z,NA,NA,NA,NA,NA,sub48
NA,mars-trial,24,86423,0.0-10.0-1.5,"""event"",""trial"",""time""
""fullscreenenter"",""0"",""4629""
","
","
","""event"",""trial"",""time""
""fullscreenenter"",""0"",""4629""
","
",3946.4099999750033,<img style='border: 4px solid darkgrey;' src='img/tf1_6_M_ss2.jpeg'></img>,2,NA,exp,NA,3,<img src='img/tf1_6_T1_ss2_md.jpeg'></img>,0,FALSE,NA,sub48
NA,html-keyboard-response,25,86925,0.0-10.0-0.6,"""event"",""trial"",""time""
""fullscreenenter"",""0"",""4629""
","
","
","""event"",""trial"",""time""
""fullscreenenter"",""0"",""4629""
","
",null,"<div style=""font-size:60px;"">+</div>",NA,null,fixation,2020-06-14T20:40:44Z,NA,NA,NA,NA,NA,sub48
NA,mars-trial,26,90783,0.0-10.0-1.6,"""event"",""trial"",""time""
""fullscreenenter"",""0"",""4629""
","
","
","""event"",""trial"",""time""
""fullscreenenter"",""0"",""4629""
","
",3245.74499996379,<img style='border: 4px solid darkgrey;' src='img/tf1_7_M_ss3.jpeg'></img>,3,NA,exp,NA,0,<img src='img/tf1_7_T1_ss3_md.jpeg'></img>,0,TRUE,NA,sub48
NA,html-keyboard-response,27,91293,0.0-10.0-0.7,"""event"",""trial"",""time""
""fullscreenenter"",""0"",""4629""
","
","
","""event"",""trial"",""time""
""fullscreenenter"",""0"",""4629""
","
",null,"<div style=""font-size:60px;"">+</div>",NA,null,fixation,2020-06-14T20:40:48Z,NA,NA,NA,NA,NA,sub48
NA,mars-trial,28,100027,0.0-10.0-1.7,"""event"",""trial"",""time""
""fullscreenenter"",""0"",""4629""
","
","
","""event"",""trial"",""time""
""fullscreenenter"",""0"",""4629""
","
",8111.455000005662,<img style='border: 4px solid darkgrey;' src='img/tf1_8_M_ss1.jpeg'></img>,3,NA,exp,NA,0,<img src='img/tf1_8_T1_ss1_md.jpeg'></img>,0,TRUE,NA,sub48
NA,html-keyboard-response,29,100529,0.0-10.0-0.8,"""event"",""trial"",""time""
""fullscreenenter"",""0"",""4629""
","
","
","""event"",""trial"",""time""
""fullscreenenter"",""0"",""4629""
","
",null,"<div style=""font-size:60px;"">+</div>",NA,null,fixation,2020-06-14T20:40:57Z,NA,NA,NA,NA,NA,sub48
NA,mars-trial,30,107219,0.0-10.0-1.8,"""event"",""trial"",""time""
""fullscreenenter"",""0"",""4629""
","
","
","""event"",""trial"",""time""
""fullscreenenter"",""0"",""4629""
","
",6085.734999971464,<img style='border: 4px solid darkgrey;' src='img/tf1_9_M_ss2.jpeg'></img>,1,NA,exp,NA,0,<img src='img/tf1_9_T1_ss2_md.jpeg'></img>,0,TRUE,NA,sub48
NA,html-keyboard-response,31,107720,0.0-10.0-0.9,"""event"",""trial"",""time""
""fullscreenenter"",""0"",""4629""
","
","
","""event"",""trial"",""time""
""fullscreenenter"",""0"",""4629""
","
",null,"<div style=""font-size:60px;"">+</div>",NA,null,fixation,2020-06-14T20:41:05Z,NA,NA,NA,NA,NA,sub48
NA,mars-trial,32,121504,0.0-10.0-1.9,"""event"",""trial"",""time""
""fullscreenenter"",""0"",""4629""
","
","
","""event"",""trial"",""time""
""fullscreenenter"",""0"",""4629""
","
",13178.2050000038,<img style='border: 4px solid darkgrey;' src='img/tf1_10_M_ss3.jpeg'></img>,0,NA,exp,NA,0,<img src='img/tf1_10_T1_ss3_md.jpeg'></img>,0,TRUE,NA,sub48
NA,html-keyboard-response,33,122006,0.0-10.0-0.10,"""event"",""trial"",""time""
""fullscreenenter"",""0"",""4629""
","
","
","""event"",""trial"",""time""
""fullscreenenter"",""0"",""4629""
","
",null,"<div style=""font-size:60px;"">+</div>",NA,null,fixation,2020-06-14T20:41:19Z,NA,NA,NA,NA,NA,sub48
NA,mars-trial,34,131099,0.0-10.0-1.10,"""event"",""trial"",""time""
""fullscreenenter"",""0"",""4629""
","
","
","""event"",""trial"",""time""
""fullscreenenter"",""0"",""4629""
","
",8488.615000038408,<img style='border: 4px solid darkgrey;' src='img/tf1_11_M_ss1.jpeg'></img>,2,NA,exp,NA,3,<img src='img/tf1_11_T1_ss1_md.jpeg'></img>,0,FALSE,NA,sub48
NA,html-keyboard-response,35,131601,0.0-10.0-0.11,"""event"",""trial"",""time""
""fullscreenenter"",""0"",""4629""
","
","
","""event"",""trial"",""time""
""fullscreenenter"",""0"",""4629""
","
",null,"<div style=""font-size:60px;"">+</div>",NA,null,fixation,2020-06-14T20:41:28Z,NA,NA,NA,NA,NA,sub48
NA,mars-trial,36,137106,0.0-10.0-1.11,"""event"",""trial"",""time""
""fullscreenenter"",""0"",""4629""
","
","
","""event"",""trial"",""time""
""fullscreenenter"",""0"",""4629""
","
",4900.38500004448,<img style='border: 4px solid darkgrey;' src='img/tf1_12_M_ss2.jpeg'></img>,2,NA,exp,NA,0,<img src='img/tf1_12_T1_ss2_md.jpeg'></img>,0,TRUE,NA,sub48
NA,html-keyboard-response,37,137608,0.0-10.0-0.12,"""event"",""trial"",""time""
""fullscreenenter"",""0"",""4629""
","
","
","""event"",""trial"",""time""
""fullscreenenter"",""0"",""4629""
","
",null,"<div style=""font-size:60px;"">+</div>",NA,null,fixation,2020-06-14T20:41:34Z,NA,NA,NA,NA,NA,sub48
NA,mars-trial,38,148472,0.0-10.0-1.12,"""event"",""trial"",""time""
""fullscreenenter"",""0"",""4629""
","
","
","""event"",""trial"",""time""
""fullscreenenter"",""0"",""4629""
","
",10258.694999967702,<img style='border: 4px solid darkgrey;' src='img/tf1_13_M_ss3.jpeg'></img>,0,NA,exp,NA,1,<img src='img/tf1_13_T1_ss3_md.jpeg'></img>,0,FALSE,NA,sub48
NA,html-keyboard-response,39,148974,0.0-10.0-0.13,"""event"",""trial"",""time""
""fullscreenenter"",""0"",""4629""
","
","
","""event"",""trial"",""time""
""fullscreenenter"",""0"",""4629""
","
",null,"<div style=""font-size:60px;"">+</div>",NA,null,fixation,2020-06-14T20:41:46Z,NA,NA,NA,NA,NA,sub48
NA,mars-trial,40,153950,0.0-10.0-1.13,"""event"",""trial"",""time""
""fullscreenenter"",""0"",""4629""
","
","
","""event"",""trial"",""time""
""fullscreenenter"",""0"",""4629""
","
",4371.525000082329,<img style='border: 4px solid darkgrey;' src='img/tf1_14_M_ss1.jpeg'></img>,0,NA,exp,NA,1,<img src='img/tf1_14_T1_ss1_md.jpeg'></img>,0,FALSE,NA,sub48
NA,html-keyboard-response,41,154452,0.0-10.0-0.14,"""event"",""trial"",""time""
""fullscreenenter"",""0"",""4629""
","
","
","""event"",""trial"",""time""
""fullscreenenter"",""0"",""4629""
","
",null,"<div style=""font-size:60px;"">+</div>",NA,null,fixation,2020-06-14T20:41:51Z,NA,NA,NA,NA,NA,sub48
NA,mars-trial,42,157722,0.0-10.0-1.14,"""event"",""trial"",""time""
""fullscreenenter"",""0"",""4629""
","
","
","""event"",""trial"",""time""
""fullscreenenter"",""0"",""4629""
","
",2666.0899999551475,<img style='border: 4px solid darkgrey;' src='img/tf1_15_M_ss2.jpeg'></img>,1,NA,exp,NA,3,<img src='img/tf1_15_T1_ss2_md.jpeg'></img>,0,FALSE,NA,sub48
NA,html-keyboard-response,43,158224,0.0-10.0-0.15,"""event"",""trial"",""time""
""fullscreenenter"",""0"",""4629""
","
","
","""event"",""trial"",""time""
""fullscreenenter"",""0"",""4629""
","
",null,"<div style=""font-size:60px;"">+</div>",NA,null,fixation,2020-06-14T20:41:55Z,NA,NA,NA,NA,NA,sub48
NA,mars-trial,44,168982,0.0-10.0-1.15,"""event"",""trial"",""time""
""fullscreenenter"",""0"",""4629""
","
","
","""event"",""trial"",""time""
""fullscreenenter"",""0"",""4629""
","
",10152.34499995131,<img style='border: 4px solid darkgrey;' src='img/tf1_16_M_ss3.jpeg'></img>,3,NA,exp,NA,0,<img src='img/tf1_16_T1_ss3_md.jpeg'></img>,0,TRUE,NA,sub48
NA,html-keyboard-response,45,169483,0.0-10.0-0.16,"""event"",""trial"",""time""
""fullscreenenter"",""0"",""4629""
","
","
","""event"",""trial"",""time""
""fullscreenenter"",""0"",""4629""
","
",null,"<div style=""font-size:60px;"">+</div>",NA,null,fixation,2020-06-14T20:42:06Z,NA,NA,NA,NA,NA,sub48
NA,mars-trial,46,178935,0.0-10.0-1.16,"""event"",""trial"",""time""
""fullscreenenter"",""0"",""4629""
","
","
","""event"",""trial"",""time""
""fullscreenenter"",""0"",""4629""
","
",8847.599999979138,<img style='border: 4px solid darkgrey;' src='img/tf1_17_M_ss1.jpeg'></img>,1,NA,exp,NA,0,<img src='img/tf1_17_T1_ss1_md.jpeg'></img>,0,TRUE,NA,sub48
NA,html-keyboard-response,47,179438,0.0-10.0-0.17,"""event"",""trial"",""time""
""fullscreenenter"",""0"",""4629""
","
","
","""event"",""trial"",""time""
""fullscreenenter"",""0"",""4629""
","
",null,"<div style=""font-size:60px;"">+</div>",NA,null,fixation,2020-06-14T20:42:16Z,NA,NA,NA,NA,NA,sub48
NA,mars-trial,48,198450,0.0-10.0-1.17,"""event"",""trial"",""time""
""fullscreenenter"",""0"",""4629""
","
","
","""event"",""trial"",""time""
""fullscreenenter"",""0"",""4629""
","
",18406.37500002049,<img style='border: 4px solid darkgrey;' src='img/tf1_18_M_ss2.jpeg'></img>,2,NA,exp,NA,1,<img src='img/tf1_18_T1_ss2_md.jpeg'></img>,0,FALSE,NA,sub48
NA,html-keyboard-response,49,198951,0.0-10.0-0.18,"""event"",""trial"",""time""
""fullscreenenter"",""0"",""4629""
","
","
","""event"",""trial"",""time""
""fullscreenenter"",""0"",""4629""
","
",null,"<div style=""font-size:60px;"">+</div>",NA,null,fixation,2020-06-14T20:42:36Z,NA,NA,NA,NA,NA,sub48
NA,mars-trial,50,206431,0.0-10.0-1.18,"""event"",""trial"",""time""
""fullscreenenter"",""0"",""4629""
","
","
","""event"",""trial"",""time""
""fullscreenenter"",""0"",""4629""
","
",6875.104999984615,<img style='border: 4px solid darkgrey;' src='img/tf1_19_M_ss3.jpeg'></img>,3,NA,exp,NA,1,<img src='img/tf1_19_T1_ss3_md.jpeg'></img>,0,FALSE,NA,sub48
NA,html-keyboard-response,51,206934,0.0-10.0-0.19,"""event"",""trial"",""time""
""fullscreenenter"",""0"",""4629""
","
","
","""event"",""trial"",""time""
""fullscreenenter"",""0"",""4629""
","
",null,"<div style=""font-size:60px;"">+</div>",NA,null,fixation,2020-06-14T20:42:44Z,NA,NA,NA,NA,NA,sub48
NA,mars-trial,52,214849,0.0-10.0-1.19,"""event"",""trial"",""time""
""fullscreenenter"",""0"",""4629""
","
","
","""event"",""trial"",""time""
""fullscreenenter"",""0"",""4629""
","
",7311.214999994263,<img style='border: 4px solid darkgrey;' src='img/tf1_20_M_ss1.jpeg'></img>,2,NA,exp,NA,0,<img src='img/tf1_20_T1_ss1_md.jpeg'></img>,0,TRUE,NA,sub48
NA,html-keyboard-response,53,215351,0.0-10.0-0.20,"""event"",""trial"",""time""
""fullscreenenter"",""0"",""4629""
","
","
","""event"",""trial"",""time""
""fullscreenenter"",""0"",""4629""
","
",null,"<div style=""font-size:60px;"">+</div>",NA,null,fixation,2020-06-14T20:42:52Z,NA,NA,NA,NA,NA,sub48
NA,mars-trial,54,221723,0.0-10.0-1.20,"""event"",""trial"",""time""
""fullscreenenter"",""0"",""4629""
","
","
","""event"",""trial"",""time""
""fullscreenenter"",""0"",""4629""
","
",5767.929999972694,<img style='border: 4px solid darkgrey;' src='img/tf1_21_M_ss2.jpeg'></img>,3,NA,exp,NA,0,<img src='img/tf1_21_T1_ss2_md.jpeg'></img>,0,TRUE,NA,sub48
NA,html-keyboard-response,55,222226,0.0-10.0-0.21,"""event"",""trial"",""time""
""fullscreenenter"",""0"",""4629""
","
","
","""event"",""trial"",""time""
""fullscreenenter"",""0"",""4629""
","
",null,"<div style=""font-size:60px;"">+</div>",NA,null,fixation,2020-06-14T20:42:59Z,NA,NA,NA,NA,NA,sub48
NA,mars-trial,56,228634,0.0-10.0-1.21,"""event"",""trial"",""time""
""fullscreenenter"",""0"",""4629""
","
","
","""event"",""trial"",""time""
""fullscreenenter"",""0"",""4629""
","
",5804.300000076182,<img style='border: 4px solid darkgrey;' src='img/tf1_22_M_ss3.jpeg'></img>,2,NA,exp,NA,0,<img src='img/tf1_22_T1_ss3_md.jpeg'></img>,0,TRUE,NA,sub48
NA,html-keyboard-response,57,229137,0.0-10.0-0.22,"""event"",""trial"",""time""
""fullscreenenter"",""0"",""4629""
","
","
","""event"",""trial"",""time""
""fullscreenenter"",""0"",""4629""
","
",null,"<div style=""font-size:60px;"">+</div>",NA,null,fixation,2020-06-14T20:43:06Z,NA,NA,NA,NA,NA,sub48
NA,mars-trial,58,238574,0.0-10.0-1.22,"""event"",""trial"",""time""
""fullscreenenter"",""0"",""4629""
","
","
","""event"",""trial"",""time""
""fullscreenenter"",""0"",""4629""
","
",8832.524999976158,<img style='border: 4px solid darkgrey;' src='img/tf1_23_M_ss1.jpeg'></img>,2,NA,exp,NA,3,<img src='img/tf1_23_T1_ss1_md.jpeg'></img>,0,FALSE,NA,sub48
NA,html-keyboard-response,59,239076,0.0-10.0-0.23,"""event"",""trial"",""time""
""fullscreenenter"",""0"",""4629""
","
","
","""event"",""trial"",""time""
""fullscreenenter"",""0"",""4629""
","
",null,"<div style=""font-size:60px;"">+</div>",NA,null,fixation,2020-06-14T20:43:16Z,NA,NA,NA,NA,NA,sub48
NA,mars-trial,60,242467,0.0-10.0-1.23,"""event"",""trial"",""time""
""fullscreenenter"",""0"",""4629""
","
","
","""event"",""trial"",""time""
""fullscreenenter"",""0"",""4629""
","
",2785.8199999900535,<img style='border: 4px solid darkgrey;' src='img/tf1_24_M_ss2.jpeg'></img>,0,NA,exp,NA,2,<img src='img/tf1_24_T1_ss2_md.jpeg'></img>,0,FALSE,NA,sub48
NA,html-keyboard-response,61,242969,0.0-10.0-0.24,"""event"",""trial"",""time""
""fullscreenenter"",""0"",""4629""
","
","
","""event"",""trial"",""time""
""fullscreenenter"",""0"",""4629""
","
",null,"<div style=""font-size:60px;"">+</div>",NA,null,fixation,2020-06-14T20:43:20Z,NA,NA,NA,NA,NA,sub48
NA,mars-trial,62,247515,0.0-10.0-1.24,"""event"",""trial"",""time""
""fullscreenenter"",""0"",""4629""
","
","
","""event"",""trial"",""time""
""fullscreenenter"",""0"",""4629""
","
",3940.03000005614,<img style='border: 4px solid darkgrey;' src='img/tf1_25_M_ss3.jpeg'></img>,2,NA,exp,NA,0,<img src='img/tf1_25_T1_ss3_md.jpeg'></img>,0,TRUE,NA,sub48
NA,html-keyboard-response,63,248018,0.0-10.0-0.25,"""event"",""trial"",""time""
""fullscreenenter"",""0"",""4629""
","
","
","""event"",""trial"",""time""
""fullscreenenter"",""0"",""4629""
","
",null,"<div style=""font-size:60px;"">+</div>",NA,null,fixation,2020-06-14T20:43:25Z,NA,NA,NA,NA,NA,sub48
NA,mars-trial,64,269822,0.0-10.0-1.25,"""event"",""trial"",""time""
""fullscreenenter"",""0"",""4629""
","
","
","""event"",""trial"",""time""
""fullscreenenter"",""0"",""4629""
","
",21200.37999993656,<img style='border: 4px solid darkgrey;' src='img/tf1_26_M_ss1.jpeg'></img>,3,NA,exp,NA,0,<img src='img/tf1_26_T1_ss1_md.jpeg'></img>,0,TRUE,NA,sub48
NA,html-keyboard-response,65,270323,0.0-10.0-0.26,"""event"",""trial"",""time""
""fullscreenenter"",""0"",""4629""
","
","
","""event"",""trial"",""time""
""fullscreenenter"",""0"",""4629""
","
",null,"<div style=""font-size:60px;"">+</div>",NA,null,fixation,2020-06-14T20:43:47Z,NA,NA,NA,NA,NA,sub48
NA,mars-trial,66,277817,0.0-10.0-1.26,"""event"",""trial"",""time""
""fullscreenenter"",""0"",""4629""
","
","
","""event"",""trial"",""time""
""fullscreenenter"",""0"",""4629""
","
",6889.049999997951,<img style='border: 4px solid darkgrey;' src='img/tf1_27_M_ss2.jpeg'></img>,1,NA,exp,NA,3,<img src='img/tf1_27_T1_ss2_md.jpeg'></img>,0,FALSE,NA,sub48
NA,html-keyboard-response,67,278318,0.0-10.0-0.27,"""event"",""trial"",""time""
""fullscreenenter"",""0"",""4629""
","
","
","""event"",""trial"",""time""
""fullscreenenter"",""0"",""4629""
","
",null,"<div style=""font-size:60px;"">+</div>",NA,null,fixation,2020-06-14T20:43:55Z,NA,NA,NA,NA,NA,sub48
NA,mars-trial,68,293313,0.0-10.0-1.27,"""event"",""trial"",""time""
""fullscreenenter"",""0"",""4629""
","
","
","""event"",""trial"",""time""
""fullscreenenter"",""0"",""4629""
","
",14389.805000042543,<img style='border: 4px solid darkgrey;' src='img/tf1_28_M_ss3.jpeg'></img>,2,NA,exp,NA,3,<img src='img/tf1_28_T1_ss3_md.jpeg'></img>,0,FALSE,NA,sub48
NA,html-keyboard-response,69,293815,0.0-10.0-0.28,"""event"",""trial"",""time""
""fullscreenenter"",""0"",""4629""
","
","
","""event"",""trial"",""time""
""fullscreenenter"",""0"",""4629""
","
",null,"<div style=""font-size:60px;"">+</div>",NA,null,fixation,2020-06-14T20:44:11Z,NA,NA,NA,NA,NA,sub48
NA,mars-trial,70,297634,0.0-10.0-1.28,"""event"",""trial"",""time""
""fullscreenenter"",""0"",""4629""
","
","
","""event"",""trial"",""time""
""fullscreenenter"",""0"",""4629""
","
",3217.1199999284,<img style='border: 4px solid darkgrey;' src='img/tf1_29_M_ss1.jpeg'></img>,1,NA,exp,NA,2,<img src='img/tf1_29_T1_ss1_md.jpeg'></img>,0,FALSE,NA,sub48
NA,html-keyboard-response,71,298137,0.0-10.0-0.29,"""event"",""trial"",""time""
""fullscreenenter"",""0"",""4629""
","
","
","""event"",""trial"",""time""
""fullscreenenter"",""0"",""4629""
","
",null,"<div style=""font-size:60px;"">+</div>",NA,null,fixation,2020-06-14T20:44:15Z,NA,NA,NA,NA,NA,sub48
NA,mars-trial,72,303465,0.0-10.0-1.29,"""event"",""trial"",""time""
""fullscreenenter"",""0"",""4629""
","
","
","""event"",""trial"",""time""
""fullscreenenter"",""0"",""4629""
","
",4724.679999984801,<img style='border: 4px solid darkgrey;' src='img/tf1_30_M_ss2.jpeg'></img>,3,NA,exp,NA,2,<img src='img/tf1_30_T1_ss2_md.jpeg'></img>,0,FALSE,NA,sub48
NA,html-keyboard-response,73,303967,0.0-10.0-0.30,"""event"",""trial"",""time""
""fullscreenenter"",""0"",""4629""
","
","
","""event"",""trial"",""time""
""fullscreenenter"",""0"",""4629""
","
",null,"<div style=""font-size:60px;"">+</div>",NA,null,fixation,2020-06-14T20:44:21Z,NA,NA,NA,NA,NA,sub48
NA,mars-trial,74,314824,0.0-10.0-1.30,"""event"",""trial"",""time""
""fullscreenenter"",""0"",""4629""
","
","
","""event"",""trial"",""time""
""fullscreenenter"",""0"",""4629""
","
",10252.799999900162,<img style='border: 4px solid darkgrey;' src='img/tf1_31_M_ss3.jpeg'></img>,3,NA,exp,NA,1,<img src='img/tf1_31_T1_ss3_md.jpeg'></img>,0,FALSE,NA,sub48
NA,html-keyboard-response,75,315326,0.0-10.0-0.31,"""event"",""trial"",""time""
""fullscreenenter"",""0"",""4629""
","
","
","""event"",""trial"",""time""
""fullscreenenter"",""0"",""4629""
","
",null,"<div style=""font-size:60px;"">+</div>",NA,null,fixation,2020-06-14T20:44:32Z,NA,NA,NA,NA,NA,sub48
NA,mars-trial,76,319563,0.0-10.0-1.31,"""event"",""trial"",""time""
""fullscreenenter"",""0"",""4629""
","
","
","""event"",""trial"",""time""
""fullscreenenter"",""0"",""4629""
","
",3631.2950000865385,<img style='border: 4px solid darkgrey;' src='img/tf1_32_M_ss1.jpeg'></img>,2,NA,exp,NA,2,<img src='img/tf1_32_T1_ss1_md.jpeg'></img>,0,FALSE,NA,sub48
NA,html-keyboard-response,77,320064,0.0-10.0-0.32,"""event"",""trial"",""time""
""fullscreenenter"",""0"",""4629""
","
","
","""event"",""trial"",""time""
""fullscreenenter"",""0"",""4629""
","
",null,"<div style=""font-size:60px;"">+</div>",NA,null,fixation,2020-06-14T20:44:37Z,NA,NA,NA,NA,NA,sub48
NA,mars-trial,78,328382,0.0-10.0-1.32,"""event"",""trial"",""time""
""fullscreenenter"",""0"",""4629""
","
","
","""event"",""trial"",""time""
""fullscreenenter"",""0"",""4629""
","
",7713.214999996126,<img style='border: 4px solid darkgrey;' src='img/tf1_33_M_ss2.jpeg'></img>,0,NA,exp,NA,0,<img src='img/tf1_33_T1_ss2_md.jpeg'></img>,0,TRUE,NA,sub48
NA,html-keyboard-response,79,328884,0.0-10.0-0.33,"""event"",""trial"",""time""
""fullscreenenter"",""0"",""4629""
","
","
","""event"",""trial"",""time""
""fullscreenenter"",""0"",""4629""
","
",null,"<div style=""font-size:60px;"">+</div>",NA,null,fixation,2020-06-14T20:44:46Z,NA,NA,NA,NA,NA,sub48
NA,mars-trial,80,340810,0.0-10.0-1.33,"""event"",""trial"",""time""
""fullscreenenter"",""0"",""4629""
","
","
","""event"",""trial"",""time""
""fullscreenenter"",""0"",""4629""
","
",11322.159999981523,<img style='border: 4px solid darkgrey;' src='img/tf1_34_M_ss3.jpeg'></img>,3,NA,exp,NA,3,<img src='img/tf1_34_T1_ss3_md.jpeg'></img>,0,FALSE,NA,sub48
NA,html-keyboard-response,81,341312,0.0-10.0-0.34,"""event"",""trial"",""time""
""fullscreenenter"",""0"",""4629""
","
","
","""event"",""trial"",""time""
""fullscreenenter"",""0"",""4629""
","
",null,"<div style=""font-size:60px;"">+</div>",NA,null,fixation,2020-06-14T20:44:58Z,NA,NA,NA,NA,NA,sub48
NA,mars-trial,82,344764,0.0-10.0-1.34,"""event"",""trial"",""time""
""fullscreenenter"",""0"",""4629""
","
","
","""event"",""trial"",""time""
""fullscreenenter"",""0"",""4629""
","
",2848.5999999102205,<img style='border: 4px solid darkgrey;' src='img/tf1_35_M_ss1.jpeg'></img>,1,NA,exp,NA,2,<img src='img/tf1_35_T1_ss1_md.jpeg'></img>,0,FALSE,NA,sub48
NA,html-keyboard-response,83,345266,0.0-10.0-0.35,"""event"",""trial"",""time""
""fullscreenenter"",""0"",""4629""
","
","
","""event"",""trial"",""time""
""fullscreenenter"",""0"",""4629""
","
",null,"<div style=""font-size:60px;"">+</div>",NA,null,fixation,2020-06-14T20:45:02Z,NA,NA,NA,NA,NA,sub48
NA,mars-trial,84,350574,0.0-10.0-1.35,"""event"",""trial"",""time""
""fullscreenenter"",""0"",""4629""
","
","
","""event"",""trial"",""time""
""fullscreenenter"",""0"",""4629""
","
",4702.129999990575,<img style='border: 4px solid darkgrey;' src='img/tf1_36_M_ss2.jpeg'></img>,3,NA,exp,NA,1,<img src='img/tf1_36_T1_ss2_md.jpeg'></img>,0,FALSE,NA,sub48
NA,html-keyboard-response,85,351076,0.0-10.0-0.36,"""event"",""trial"",""time""
""fullscreenenter"",""0"",""4629""
","
","
","""event"",""trial"",""time""
""fullscreenenter"",""0"",""4629""
","
",null,"<div style=""font-size:60px;"">+</div>",NA,null,fixation,2020-06-14T20:45:08Z,NA,NA,NA,NA,NA,sub48
NA,mars-trial,86,353634,0.0-10.0-1.36,"""event"",""trial"",""time""
""fullscreenenter"",""0"",""4629""
","
","
","""event"",""trial"",""time""
""fullscreenenter"",""0"",""4629""
","
",1953.2599999802187,<img style='border: 4px solid darkgrey;' src='img/tf1_37_M_ss3.jpeg'></img>,1,NA,exp,NA,2,<img src='img/tf1_37_T1_ss3_md.jpeg'></img>,0,FALSE,NA,sub48
NA,html-keyboard-response,87,354135,0.0-10.0-0.37,"""event"",""trial"",""time""
""fullscreenenter"",""0"",""4629""
","
","
","""event"",""trial"",""time""
""fullscreenenter"",""0"",""4629""
","
",null,"<div style=""font-size:60px;"">+</div>",NA,null,fixation,2020-06-14T20:45:11Z,NA,NA,NA,NA,NA,sub48
NA,mars-trial,88,359422,0.0-10.0-1.37,"""event"",""trial"",""time""
""fullscreenenter"",""0"",""4629""
","
","
","""event"",""trial"",""time""
""fullscreenenter"",""0"",""4629""
","
",4682.61999997776,<img style='border: 4px solid darkgrey;' src='img/tf1_38_M_ss1.jpeg'></img>,1,NA,exp,NA,0,<img src='img/tf1_38_T1_ss1_md.jpeg'></img>,0,TRUE,NA,sub48
NA,html-keyboard-response,89,359925,0.0-10.0-0.38,"""event"",""trial"",""time""
""fullscreenenter"",""0"",""4629""
","
","
","""event"",""trial"",""time""
""fullscreenenter"",""0"",""4629""
","
",null,"<div style=""font-size:60px;"">+</div>",NA,null,fixation,2020-06-14T20:45:17Z,NA,NA,NA,NA,NA,sub48
NA,mars-trial,90,363800,0.0-10.0-1.38,"""event"",""trial"",""time""
""fullscreenenter"",""0"",""4629""
","
","
","""event"",""trial"",""time""
""fullscreenenter"",""0"",""4629""
","
",3270.574999973178,<img style='border: 4px solid darkgrey;' src='img/tf1_39_M_ss2.jpeg'></img>,1,NA,exp,NA,0,<img src='img/tf1_39_T1_ss2_md.jpeg'></img>,0,TRUE,NA,sub48
NA,html-keyboard-response,91,364302,0.0-10.0-0.39,"""event"",""trial"",""time""
""fullscreenenter"",""0"",""4629""
","
","
","""event"",""trial"",""time""
""fullscreenenter"",""0"",""4629""
","
",null,"<div style=""font-size:60px;"">+</div>",NA,null,fixation,2020-06-14T20:45:21Z,NA,NA,NA,NA,NA,sub48
NA,mars-trial,92,368452,0.0-10.0-1.39,"""event"",""trial"",""time""
""fullscreenenter"",""0"",""4629""
","
","
","""event"",""trial"",""time""
""fullscreenenter"",""0"",""4629""
","
",3546.295000007376,<img style='border: 4px solid darkgrey;' src='img/tf1_40_M_ss3.jpeg'></img>,3,NA,exp,NA,2,<img src='img/tf1_40_T1_ss3_md.jpeg'></img>,0,FALSE,NA,sub48
NA,html-keyboard-response,93,368955,0.0-10.0-0.40,"""event"",""trial"",""time""
""fullscreenenter"",""0"",""4629""
","
","
","""event"",""trial"",""time""
""fullscreenenter"",""0"",""4629""
","
",null,"<div style=""font-size:60px;"">+</div>",NA,null,fixation,2020-06-14T20:45:26Z,NA,NA,NA,NA,NA,sub48
NA,mars-trial,94,374213,0.0-10.0-1.40,"""event"",""trial"",""time""
""fullscreenenter"",""0"",""4629""
","
","
","""event"",""trial"",""time""
""fullscreenenter"",""0"",""4629""
","
",4655.059999902733,<img style='border: 4px solid darkgrey;' src='img/tf1_41_M_ss1.jpeg'></img>,2,NA,exp,NA,0,<img src='img/tf1_41_T1_ss1_md.jpeg'></img>,0,TRUE,NA,sub48
NA,html-keyboard-response,95,374716,0.0-10.0-0.41,"""event"",""trial"",""time""
""fullscreenenter"",""0"",""4629""
","
","
","""event"",""trial"",""time""
""fullscreenenter"",""0"",""4629""
","
",null,"<div style=""font-size:60px;"">+</div>",NA,null,fixation,2020-06-14T20:45:32Z,NA,NA,NA,NA,NA,sub48
NA,mars-trial,96,381701,0.0-10.0-1.41,"""event"",""trial"",""time""
""fullscreenenter"",""0"",""4629""
","
","
","""event"",""trial"",""time""
""fullscreenenter"",""0"",""4629""
","
",6380.654999986291,<img style='border: 4px solid darkgrey;' src='img/tf1_42_M_ss2.jpeg'></img>,3,NA,exp,NA,3,<img src='img/tf1_42_T1_ss2_md.jpeg'></img>,0,FALSE,NA,sub48
NA,html-keyboard-response,97,382204,0.0-10.0-0.42,"""event"",""trial"",""time""
""fullscreenenter"",""0"",""4629""
","
","
","""event"",""trial"",""time""
""fullscreenenter"",""0"",""4629""
","
",null,"<div style=""font-size:60px;"">+</div>",NA,null,fixation,2020-06-14T20:45:39Z,NA,NA,NA,NA,NA,sub48
NA,mars-trial,98,394138,0.0-10.0-1.42,"""event"",""trial"",""time""
""fullscreenenter"",""0"",""4629""
","
","
","""event"",""trial"",""time""
""fullscreenenter"",""0"",""4629""
","
",11329.904999933206,<img style='border: 4px solid darkgrey;' src='img/tf1_43_M_ss3.jpeg'></img>,1,NA,exp,NA,2,<img src='img/tf1_43_T1_ss3_md.jpeg'></img>,0,FALSE,NA,sub48
NA,html-keyboard-response,99,394640,0.0-10.0-0.43,"""event"",""trial"",""time""
""fullscreenenter"",""0"",""4629""
","
","
","""event"",""trial"",""time""
""fullscreenenter"",""0"",""4629""
","
",null,"<div style=""font-size:60px;"">+</div>",NA,null,fixation,2020-06-14T20:45:52Z,NA,NA,NA,NA,NA,sub48
NA,mars-trial,100,400440,0.0-10.0-1.43,"""event"",""trial"",""time""
""fullscreenenter"",""0"",""4629""
","
","
","""event"",""trial"",""time""
""fullscreenenter"",""0"",""4629""
","
",5195.490000071004,<img style='border: 4px solid darkgrey;' src='img/tf1_44_M_ss1.jpeg'></img>,1,NA,exp,NA,2,<img src='img/tf1_44_T1_ss1_md.jpeg'></img>,0,FALSE,NA,sub48
NA,html-keyboard-response,101,400942,0.0-10.0-0.44,"""event"",""trial"",""time""
""fullscreenenter"",""0"",""4629""
","
","
","""event"",""trial"",""time""
""fullscreenenter"",""0"",""4629""
","
",null,"<div style=""font-size:60px;"">+</div>",NA,null,fixation,2020-06-14T20:45:58Z,NA,NA,NA,NA,NA,sub48
NA,mars-trial,102,411670,0.0-10.0-1.44,"""event"",""trial"",""time""
""fullscreenenter"",""0"",""4629""
","
","
","""event"",""trial"",""time""
""fullscreenenter"",""0"",""4629""
","
",10123.309999937192,<img style='border: 4px solid darkgrey;' src='img/tf1_45_M_ss2.jpeg'></img>,1,NA,exp,NA,0,<img src='img/tf1_45_T1_ss2_md.jpeg'></img>,0,TRUE,NA,sub48
NA,html-keyboard-response,103,412172,0.0-10.0-0.45,"""event"",""trial"",""time""
""fullscreenenter"",""0"",""4629""
","
","
","""event"",""trial"",""time""
""fullscreenenter"",""0"",""4629""
","
",null,"<div style=""font-size:60px;"">+</div>",NA,null,fixation,2020-06-14T20:46:09Z,NA,NA,NA,NA,NA,sub48
NA,mars-trial,104,426320,0.0-10.0-1.45,"""event"",""trial"",""time""
""fullscreenenter"",""0"",""4629""
","
","
","""event"",""trial"",""time""
""fullscreenenter"",""0"",""4629""
","
",13542.789999977686,<img style='border: 4px solid darkgrey;' src='img/tf1_46_M_ss3.jpeg'></img>,1,NA,exp,NA,3,<img src='img/tf1_46_T1_ss3_md.jpeg'></img>,0,FALSE,NA,sub48
NA,html-keyboard-response,105,426821,0.0-10.0-0.46,"""event"",""trial"",""time""
""fullscreenenter"",""0"",""4629""
","
","
","""event"",""trial"",""time""
""fullscreenenter"",""0"",""4629""
","
",null,"<div style=""font-size:60px;"">+</div>",NA,null,fixation,2020-06-14T20:46:24Z,NA,NA,NA,NA,NA,sub48
NA,mars-trial,106,432685,0.0-10.0-1.46,"""event"",""trial"",""time""
""fullscreenenter"",""0"",""4629""
","
","
","""event"",""trial"",""time""
""fullscreenenter"",""0"",""4629""
","
",5260.0600000005215,<img style='border: 4px solid darkgrey;' src='img/tf1_47_M_ss1.jpeg'></img>,3,NA,exp,NA,0,<img src='img/tf1_47_T1_ss1_md.jpeg'></img>,0,TRUE,NA,sub48
NA,html-keyboard-response,107,433187,0.0-10.0-0.47,"""event"",""trial"",""time""
""fullscreenenter"",""0"",""4629""
","
","
","""event"",""trial"",""time""
""fullscreenenter"",""0"",""4629""
","
",null,"<div style=""font-size:60px;"">+</div>",NA,null,fixation,2020-06-14T20:46:30Z,NA,NA,NA,NA,NA,sub48
NA,mars-trial,108,435661,0.0-10.0-1.47,"""event"",""trial"",""time""
""fullscreenenter"",""0"",""4629""
","
","
","""event"",""trial"",""time""
""fullscreenenter"",""0"",""4629""
","
",1869.0949999727309,<img style='border: 4px solid darkgrey;' src='img/tf1_48_M_ss2.jpeg'></img>,1,NA,exp,NA,0,<img src='img/tf1_48_T1_ss2_md.jpeg'></img>,0,TRUE,NA,sub48
NA,html-keyboard-response,109,436164,0.0-10.0-0.48,"""event"",""trial"",""time""
""fullscreenenter"",""0"",""4629""
","
","
","""event"",""trial"",""time""
""fullscreenenter"",""0"",""4629""
","
",null,"<div style=""font-size:60px;"">+</div>",NA,null,fixation,2020-06-14T20:46:33Z,NA,NA,NA,NA,NA,sub48
NA,mars-trial,110,445255,0.0-10.0-1.48,"""event"",""trial"",""time""
""fullscreenenter"",""0"",""4629""
","
","
","""event"",""trial"",""time""
""fullscreenenter"",""0"",""4629""
","
",8487.239999929443,<img style='border: 4px solid darkgrey;' src='img/tf1_49_M_ss3.jpeg'></img>,1,NA,exp,NA,0,<img src='img/tf1_49_T1_ss3_md.jpeg'></img>,0,TRUE,NA,sub48
NA,html-keyboard-response,111,445758,0.0-10.0-0.49,"""event"",""trial"",""time""
""fullscreenenter"",""0"",""4629""
","
","
","""event"",""trial"",""time""
""fullscreenenter"",""0"",""4629""
","
",null,"<div style=""font-size:60px;"">+</div>",NA,null,fixation,2020-06-14T20:46:43Z,NA,NA,NA,NA,NA,sub48
NA,mars-trial,112,454465,0.0-10.0-1.49,"""event"",""trial"",""time""
""fullscreenenter"",""0"",""4629""
","
","
","""event"",""trial"",""time""
""fullscreenenter"",""0"",""4629""
","
",8101.585000054911,<img style='border: 4px solid darkgrey;' src='img/tf1_50_M_ss1.jpeg'></img>,3,NA,exp,NA,3,<img src='img/tf1_50_T1_ss1_md.jpeg'></img>,0,FALSE,NA,sub48
NA,html-keyboard-response,113,454968,0.0-10.0-0.50,"""event"",""trial"",""time""
""fullscreenenter"",""0"",""4629""
","
","
","""event"",""trial"",""time""
""fullscreenenter"",""0"",""4629""
","
",null,"<div style=""font-size:60px;"">+</div>",NA,null,fixation,2020-06-14T20:46:52Z,NA,NA,NA,NA,NA,sub48
NA,mars-trial,114,456959,0.0-10.0-1.50,"""event"",""trial"",""time""
""fullscreenenter"",""0"",""4629""
","
","
","""event"",""trial"",""time""
""fullscreenenter"",""0"",""4629""
","
",1386.8899999652058,<img style='border: 4px solid darkgrey;' src='img/tf1_51_M_ss2.jpeg'></img>,1,NA,exp,NA,1,<img src='img/tf1_51_T1_ss2_md.jpeg'></img>,0,FALSE,NA,sub48
NA,html-keyboard-response,115,457461,0.0-10.0-0.51,"""event"",""trial"",""time""
""fullscreenenter"",""0"",""4629""
","
","
","""event"",""trial"",""time""
""fullscreenenter"",""0"",""4629""
","
",null,"<div style=""font-size:60px;"">+</div>",NA,null,fixation,2020-06-14T20:46:54Z,NA,NA,NA,NA,NA,sub48
NA,mars-trial,116,460062,0.0-10.0-1.51,"""event"",""trial"",""time""
""fullscreenenter"",""0"",""4629""
","
","
","""event"",""trial"",""time""
""fullscreenenter"",""0"",""4629""
","
",1995.9399999352172,<img style='border: 4px solid darkgrey;' src='img/tf1_52_M_ss3.jpeg'></img>,1,NA,exp,NA,3,<img src='img/tf1_52_T1_ss3_md.jpeg'></img>,0,FALSE,NA,sub48
NA,html-keyboard-response,117,460564,0.0-10.0-0.52,"""event"",""trial"",""time""
""fullscreenenter"",""0"",""4629""
","
","
","""event"",""trial"",""time""
""fullscreenenter"",""0"",""4629""
","
",null,"<div style=""font-size:60px;"">+</div>",NA,null,fixation,2020-06-14T20:46:57Z,NA,NA,NA,NA,NA,sub48
NA,mars-trial,118,464370,0.0-10.0-1.52,"""event"",""trial"",""time""
""fullscreenenter"",""0"",""4629""
","
","
","""event"",""trial"",""time""
""fullscreenenter"",""0"",""4629""
","
",3200.7800000719726,<img style='border: 4px solid darkgrey;' src='img/tf1_53_M_ss1.jpeg'></img>,3,NA,exp,NA,1,<img src='img/tf1_53_T1_ss1_md.jpeg'></img>,0,FALSE,NA,sub48
NA,html-keyboard-response,119,464871,0.0-10.0-0.53,"""event"",""trial"",""time""
""fullscreenenter"",""0"",""4629""
","
","
","""event"",""trial"",""time""
""fullscreenenter"",""0"",""4629""
","
",null,"<div style=""font-size:60px;"">+</div>",NA,null,fixation,2020-06-14T20:47:02Z,NA,NA,NA,NA,NA,sub48
NA,mars-trial,120,477201,0.0-10.0-1.53,"""event"",""trial"",""time""
""fullscreenenter"",""0"",""4629""
","
","
","""event"",""trial"",""time""
""fullscreenenter"",""0"",""4629""
","
",11726.459999918006,<img style='border: 4px solid darkgrey;' src='img/tf1_54_M_ss2.jpeg'></img>,0,NA,exp,NA,1,<img src='img/tf1_54_T1_ss2_md.jpeg'></img>,0,FALSE,NA,sub48
NA,html-keyboard-response,121,477704,0.0-10.0-0.54,"""event"",""trial"",""time""
""fullscreenenter"",""0"",""4629""
","
","
","""event"",""trial"",""time""
""fullscreenenter"",""0"",""4629""
","
",null,"<div style=""font-size:60px;"">+</div>",NA,null,fixation,2020-06-14T20:47:15Z,NA,NA,NA,NA,NA,sub48
NA,mars-trial,122,481712,0.0-10.0-1.54,"""event"",""trial"",""time""
""fullscreenenter"",""0"",""4629""
","
","
","""event"",""trial"",""time""
""fullscreenenter"",""0"",""4629""
","
",3404.2800000170246,<img style='border: 4px solid darkgrey;' src='img/tf1_55_M_ss3.jpeg'></img>,2,NA,exp,NA,3,<img src='img/tf1_55_T1_ss3_md.jpeg'></img>,0,FALSE,NA,sub48
NA,html-keyboard-response,123,482213,0.0-10.0-0.55,"""event"",""trial"",""time""
""fullscreenenter"",""0"",""4629""
","
","
","""event"",""trial"",""time""
""fullscreenenter"",""0"",""4629""
","
",null,"<div style=""font-size:60px;"">+</div>",NA,null,fixation,2020-06-14T20:47:19Z,NA,NA,NA,NA,NA,sub48
NA,mars-trial,124,487885,0.0-10.0-1.55,"""event"",""trial"",""time""
""fullscreenenter"",""0"",""4629""
","
","
","""event"",""trial"",""time""
""fullscreenenter"",""0"",""4629""
","
",5066.375000053085,<img style='border: 4px solid darkgrey;' src='img/tf1_56_M_ss1.jpeg'></img>,1,NA,exp,NA,1,<img src='img/tf1_56_T1_ss1_md.jpeg'></img>,0,FALSE,NA,sub48
NA,html-keyboard-response,125,488386,0.0-10.0-0.56,"""event"",""trial"",""time""
""fullscreenenter"",""0"",""4629""
","
","
","""event"",""trial"",""time""
""fullscreenenter"",""0"",""4629""
","
",null,"<div style=""font-size:60px;"">+</div>",NA,null,fixation,2020-06-14T20:47:25Z,NA,NA,NA,NA,NA,sub48
NA,mars-trial,126,494701,0.0-10.0-1.56,"""event"",""trial"",""time""
""fullscreenenter"",""0"",""4629""
","
","
","""event"",""trial"",""time""
""fullscreenenter"",""0"",""4629""
","
",5709.694999968633,<img style='border: 4px solid darkgrey;' src='img/tf1_57_M_ss2.jpeg'></img>,0,NA,exp,NA,0,<img src='img/tf1_57_T1_ss2_md.jpeg'></img>,0,TRUE,NA,sub48
NA,html-keyboard-response,127,495202,0.0-10.0-0.57,"""event"",""trial"",""time""
""fullscreenenter"",""0"",""4629""
","
","
","""event"",""trial"",""time""
""fullscreenenter"",""0"",""4629""
","
",null,"<div style=""font-size:60px;"">+</div>",NA,null,fixation,2020-06-14T20:47:32Z,NA,NA,NA,NA,NA,sub48
NA,mars-trial,128,503690,0.0-10.0-1.57,"""event"",""trial"",""time""
""fullscreenenter"",""0"",""4629""
","
","
","""event"",""trial"",""time""
""fullscreenenter"",""0"",""4629""
","
",7883.465000079013,<img style='border: 4px solid darkgrey;' src='img/tf1_58_M_ss3.jpeg'></img>,3,NA,exp,NA,1,<img src='img/tf1_58_T1_ss3_md.jpeg'></img>,0,FALSE,NA,sub48
NA,html-keyboard-response,129,504192,0.0-10.0-0.58,"""event"",""trial"",""time""
""fullscreenenter"",""0"",""4629""
","
","
","""event"",""trial"",""time""
""fullscreenenter"",""0"",""4629""
","
",null,"<div style=""font-size:60px;"">+</div>",NA,null,fixation,2020-06-14T20:47:41Z,NA,NA,NA,NA,NA,sub48
NA,mars-trial,130,508328,0.0-10.0-1.58,"""event"",""trial"",""time""
""fullscreenenter"",""0"",""4629""
","
","
","""event"",""trial"",""time""
""fullscreenenter"",""0"",""4629""
","
",3532.3549999156967,<img style='border: 4px solid darkgrey;' src='img/tf1_59_M_ss1.jpeg'></img>,3,NA,exp,NA,0,<img src='img/tf1_59_T1_ss1_md.jpeg'></img>,0,TRUE,NA,sub48
NA,html-keyboard-response,131,508831,0.0-10.0-0.59,"""event"",""trial"",""time""
""fullscreenenter"",""0"",""4629""
","
","
","""event"",""trial"",""time""
""fullscreenenter"",""0"",""4629""
","
",null,"<div style=""font-size:60px;"">+</div>",NA,null,fixation,2020-06-14T20:47:46Z,NA,NA,NA,NA,NA,sub48
NA,mars-trial,132,514386,0.0-10.0-1.59,"""event"",""trial"",""time""
""fullscreenenter"",""0"",""4629""
","
","
","""event"",""trial"",""time""
""fullscreenenter"",""0"",""4629""
","
",4951.12500002142,<img style='border: 4px solid darkgrey;' src='img/tf1_60_M_ss2.jpeg'></img>,3,NA,exp,NA,0,<img src='img/tf1_60_T1_ss2_md.jpeg'></img>,0,TRUE,NA,sub48
NA,html-keyboard-response,133,514888,0.0-10.0-0.60,"""event"",""trial"",""time""
""fullscreenenter"",""0"",""4629""
","
","
","""event"",""trial"",""time""
""fullscreenenter"",""0"",""4629""
","
",null,"<div style=""font-size:60px;"">+</div>",NA,null,fixation,2020-06-14T20:47:52Z,NA,NA,NA,NA,NA,sub48
NA,mars-trial,134,523601,0.0-10.0-1.60,"""event"",""trial"",""time""
""fullscreenenter"",""0"",""4629""
","
","
","""event"",""trial"",""time""
""fullscreenenter"",""0"",""4629""
","
",8109.225000021979,<img style='border: 4px solid darkgrey;' src='img/tf1_61_M_ss3.jpeg'></img>,0,NA,exp,NA,3,<img src='img/tf1_61_T1_ss3_md.jpeg'></img>,0,FALSE,NA,sub48
NA,html-keyboard-response,135,524103,0.0-10.0-0.61,"""event"",""trial"",""time""
""fullscreenenter"",""0"",""4629""
","
","
","""event"",""trial"",""time""
""fullscreenenter"",""0"",""4629""
","
",null,"<div style=""font-size:60px;"">+</div>",NA,null,fixation,2020-06-14T20:48:01Z,NA,NA,NA,NA,NA,sub48
NA,mars-trial,136,526752,0.0-10.0-1.61,"""event"",""trial"",""time""
""fullscreenenter"",""0"",""4629""
","
","
","""event"",""trial"",""time""
""fullscreenenter"",""0"",""4629""
","
",2043.9350000815466,<img style='border: 4px solid darkgrey;' src='img/tf1_62_M_ss1.jpeg'></img>,2,NA,exp,NA,0,<img src='img/tf1_62_T1_ss1_md.jpeg'></img>,0,TRUE,NA,sub48
NA,html-keyboard-response,137,527253,0.0-10.0-0.62,"""event"",""trial"",""time""
""fullscreenenter"",""0"",""4629""
","
","
","""event"",""trial"",""time""
""fullscreenenter"",""0"",""4629""
","
",null,"<div style=""font-size:60px;"">+</div>",NA,null,fixation,2020-06-14T20:48:04Z,NA,NA,NA,NA,NA,sub48
NA,mars-trial,138,539363,0.0-10.0-1.62,"""event"",""trial"",""time""
""fullscreenenter"",""0"",""4629""
","
","
","""event"",""trial"",""time""
""fullscreenenter"",""0"",""4629""
","
",11505.819999962114,<img style='border: 4px solid darkgrey;' src='img/tf1_63_M_ss2.jpeg'></img>,3,NA,exp,NA,0,<img src='img/tf1_63_T1_ss2_md.jpeg'></img>,0,TRUE,NA,sub48
NA,html-keyboard-response,139,539865,0.0-10.0-0.63,"""event"",""trial"",""time""
""fullscreenenter"",""0"",""4629""
","
","
","""event"",""trial"",""time""
""fullscreenenter"",""0"",""4629""
","
",null,"<div style=""font-size:60px;"">+</div>",NA,null,fixation,2020-06-14T20:48:17Z,NA,NA,NA,NA,NA,sub48
NA,mars-trial,140,543468,0.0-10.0-1.63,"""event"",""trial"",""time""
""fullscreenenter"",""0"",""4629""
","
","
","""event"",""trial"",""time""
""fullscreenenter"",""0"",""4629""
","
",NA,NA,NA,NA,exp,NA,NA,<img src='img/tf1_64_T1_ss3_md.jpeg'></img>,0,FALSE,NA,sub48
NA,html-keyboard-response,141,543750,0.0-10.0-0.64,"""event"",""trial"",""time""
""fullscreenenter"",""0"",""4629""
","
","
","""event"",""trial"",""time""
""fullscreenenter"",""0"",""4629""
","
",3279.424999956973,<img style='border: 4px solid darkgrey;' src='img/tf1_64_M_ss3.jpeg'></img>,1,NA,fixation,2020-06-14T20:48:21Z,1,NA,NA,NA,NA,sub48
NA,audio-button-response,142,547413,0.0-11.0,"""event"",""trial"",""time""
""fullscreenenter"",""0"",""4629""
","
","
","""event"",""trial"",""time""
""fullscreenenter"",""0"",""4629""
","
",3561.7050000000745,audio/mars_instructions_slide5.wav,0,NA,NA,NA,NA,NA,NA,NA,NA,sub48
