success,trial_type,trial_index,time_elapsed,internal_node_id,interactions,blur_events,focus_events,fullscreenenter_events,fullscreenexit_events,rt,stimulus,button_pressed,key_press,part,timestamp,unshuffled_button,correct_response,correct_button,correct,value,subject_id
TRUE,fullscreen,0,4940,0.0-0.0,"""event"",""trial"",""time""
""focus"",""0"",""3020""
""fullscreenenter"",""0"",""3960""
","
","""event"",""trial"",""time""
""focus"",""0"",""3020""
","""event"",""trial"",""time""
""fullscreenenter"",""0"",""3960""
","
",NA,NA,NA,NA,NA,NA,NA,NA,NA,NA,NA,sub41
NA,pavlovia,1,4944,0.0-1.0,"""event"",""trial"",""time""
""focus"",""0"",""3020""
""fullscreenenter"",""0"",""3960""
","
","""event"",""trial"",""time""
""focus"",""0"",""3020""
","""event"",""trial"",""time""
""fullscreenenter"",""0"",""3960""
","
",NA,NA,NA,NA,NA,NA,NA,NA,NA,NA,NA,sub41
NA,html-button-response,2,6226,0.0-2.0,"""event"",""trial"",""time""
""focus"",""0"",""3020""
""fullscreenenter"",""0"",""3960""
","
","""event"",""trial"",""time""
""focus"",""0"",""3020""
","""event"",""trial"",""time""
""fullscreenenter"",""0"",""3960""
","
",1280.3899999998976,<p>Welcome! Press START to begin.</p><br>,0,NA,NA,NA,NA,NA,NA,NA,NA,sub41
NA,audio-button-response,3,19027,0.0-3.0,"""event"",""trial"",""time""
""focus"",""0"",""3020""
""fullscreenenter"",""0"",""3960""
","
","""event"",""trial"",""time""
""focus"",""0"",""3020""
","""event"",""trial"",""time""
""fullscreenenter"",""0"",""3960""
","
",12799.035000000003,audio/mars_instructions_slide2.wav,0,NA,NA,NA,NA,NA,NA,NA,NA,sub41
NA,audio-button-response,4,35699,0.0-4.0,"""event"",""trial"",""time""
""focus"",""0"",""3020""
""fullscreenenter"",""0"",""3960""
","
","""event"",""trial"",""time""
""focus"",""0"",""3020""
","""event"",""trial"",""time""
""fullscreenenter"",""0"",""3960""
","
",16669.229999999516,audio/mars_instructions_slide3.wav,0,NA,NA,NA,NA,NA,NA,NA,NA,sub41
NA,html-keyboard-response,5,36201,0.0-5.0-0.0,"""event"",""trial"",""time""
""focus"",""0"",""3020""
""fullscreenenter"",""0"",""3960""
","
","""event"",""trial"",""time""
""focus"",""0"",""3020""
","""event"",""trial"",""time""
""fullscreenenter"",""0"",""3960""
","
",null,"<div style=""font-size:60px;"">+</div>",NA,null,fixation,2020-06-18T20:32:33Z,NA,NA,NA,NA,NA,sub41
NA,mars-trial,6,45123,0.0-5.0-1.0,"""event"",""trial"",""time""
""focus"",""0"",""3020""
""fullscreenenter"",""0"",""3960""
","
","""event"",""trial"",""time""
""focus"",""0"",""3020""
","""event"",""trial"",""time""
""fullscreenenter"",""0"",""3960""
","
",6813.060000000405,<img style='border: 4px solid darkgrey;' src='practice/pt1_M1.png'></img>,0,NA,practice,NA,2,<img src='practice/pt1_T1.png'></img>,0,FALSE,NA,sub41
NA,html-keyboard-response,7,45628,0.0-5.1-0.1,"""event"",""trial"",""time""
""focus"",""0"",""3020""
""fullscreenenter"",""0"",""3960""
","
","""event"",""trial"",""time""
""focus"",""0"",""3020""
","""event"",""trial"",""time""
""fullscreenenter"",""0"",""3960""
","
",null,"<div style=""font-size:60px;"">+</div>",NA,null,fixation,2020-06-18T20:32:42Z,NA,NA,NA,NA,NA,sub41
NA,mars-trial,8,54030,0.0-5.1-1.1,"""event"",""trial"",""time""
""focus"",""0"",""3020""
""fullscreenenter"",""0"",""3960""
","
","""event"",""trial"",""time""
""focus"",""0"",""3020""
","""event"",""trial"",""time""
""fullscreenenter"",""0"",""3960""
","
",6295.734999999695,<img style='border: 4px solid darkgrey;' src='practice/pt1_M1.png'></img>,2,NA,practice,NA,3,<img src='practice/pt1_T1.png'></img>,0,FALSE,NA,sub41
NA,html-keyboard-response,9,54531,0.0-5.2-0.2,"""event"",""trial"",""time""
""focus"",""0"",""3020""
""fullscreenenter"",""0"",""3960""
","
","""event"",""trial"",""time""
""focus"",""0"",""3020""
","""event"",""trial"",""time""
""fullscreenenter"",""0"",""3960""
","
",null,"<div style=""font-size:60px;"">+</div>",NA,null,fixation,2020-06-18T20:32:51Z,NA,NA,NA,NA,NA,sub41
NA,mars-trial,10,62235,0.0-5.2-1.2,"""event"",""trial"",""time""
""focus"",""0"",""3020""
""fullscreenenter"",""0"",""3960""
","
","""event"",""trial"",""time""
""focus"",""0"",""3020""
","""event"",""trial"",""time""
""fullscreenenter"",""0"",""3960""
","
",5598.115000000689,<img style='border: 4px solid darkgrey;' src='practice/pt1_M1.png'></img>,0,NA,practice,NA,0,<img src='practice/pt1_T1.png'></img>,0,TRUE,NA,sub41
NA,html-keyboard-response,11,62738,0.0-6.0-0.0,"""event"",""trial"",""time""
""focus"",""0"",""3020""
""fullscreenenter"",""0"",""3960""
","
","""event"",""trial"",""time""
""focus"",""0"",""3020""
","""event"",""trial"",""time""
""fullscreenenter"",""0"",""3960""
","
",null,"<div style=""font-size:60px;"">+</div>",NA,null,fixation,2020-06-18T20:32:59Z,NA,NA,NA,NA,NA,sub41
NA,mars-trial,12,68093,0.0-6.0-1.0,"""event"",""trial"",""time""
""focus"",""0"",""3020""
""fullscreenenter"",""0"",""3960""
","
","""event"",""trial"",""time""
""focus"",""0"",""3020""
","""event"",""trial"",""time""
""fullscreenenter"",""0"",""3960""
","
",3248.295000001235,<img style='border: 4px solid darkgrey;' src='practice/pt2_M1.png'></img>,2,NA,practice,NA,0,<img src='practice/pt2_T1.png'></img>,0,TRUE,NA,sub41
NA,html-keyboard-response,13,68601,0.0-7.0-0.0,"""event"",""trial"",""time""
""focus"",""0"",""3020""
""fullscreenenter"",""0"",""3960""
","
","""event"",""trial"",""time""
""focus"",""0"",""3020""
","""event"",""trial"",""time""
""fullscreenenter"",""0"",""3960""
","
",null,"<div style=""font-size:60px;"">+</div>",NA,null,fixation,2020-06-18T20:33:05Z,NA,NA,NA,NA,NA,sub41
NA,mars-trial,14,72645,0.0-7.0-1.0,"""event"",""trial"",""time""
""focus"",""0"",""3020""
""fullscreenenter"",""0"",""3960""
","
","""event"",""trial"",""time""
""focus"",""0"",""3020""
","""event"",""trial"",""time""
""fullscreenenter"",""0"",""3960""
","
",1934.7350000025472,<img style='border: 4px solid darkgrey;' src='practice/pt3_M1.png'></img>,3,NA,practice,NA,0,<img src='practice/pt3_T1.png'></img>,0,TRUE,NA,sub41
NA,audio-button-response,15,76660,0.0-8.0,"""event"",""trial"",""time""
""focus"",""0"",""3020""
""fullscreenenter"",""0"",""3960""
","
","""event"",""trial"",""time""
""focus"",""0"",""3020""
","""event"",""trial"",""time""
""fullscreenenter"",""0"",""3960""
","
",4011.6799999996147,audio/mars_instructions_slide4.wav,0,NA,NA,NA,NA,NA,NA,NA,NA,sub41
NA,call-function,16,76661,0.0-9.0,"""event"",""trial"",""time""
""focus"",""0"",""3020""
""fullscreenenter"",""0"",""3960""
","
","""event"",""trial"",""time""
""focus"",""0"",""3020""
","""event"",""trial"",""time""
""fullscreenenter"",""0"",""3960""
","
",NA,NA,NA,NA,NA,NA,NA,NA,NA,NA,NA,sub41
NA,html-keyboard-response,17,77164,0.0-10.0-0.0,"""event"",""trial"",""time""
""focus"",""0"",""3020""
""fullscreenenter"",""0"",""3960""
","
","""event"",""trial"",""time""
""focus"",""0"",""3020""
","""event"",""trial"",""time""
""fullscreenenter"",""0"",""3960""
","
",null,"<div style=""font-size:60px;"">+</div>",NA,null,fixation,2020-06-18T20:33:14Z,NA,NA,NA,NA,NA,sub41
NA,mars-trial,18,79436,0.0-10.0-1.0,"""event"",""trial"",""time""
""focus"",""0"",""3020""
""fullscreenenter"",""0"",""3960""
","
","""event"",""trial"",""time""
""focus"",""0"",""3020""
","""event"",""trial"",""time""
""fullscreenenter"",""0"",""3960""
","
",1660.6400000018766,<img style='border: 4px solid darkgrey;' src='img/tf1_1_M_ss3.jpeg'></img>,3,NA,exp,NA,0,<img src='img/tf1_1_T1_ss3_md.jpeg'></img>,0,TRUE,NA,sub41
NA,html-keyboard-response,19,79939,0.0-10.0-0.1,"""event"",""trial"",""time""
""focus"",""0"",""3020""
""fullscreenenter"",""0"",""3960""
","
","""event"",""trial"",""time""
""focus"",""0"",""3020""
","""event"",""trial"",""time""
""fullscreenenter"",""0"",""3960""
","
",null,"<div style=""font-size:60px;"">+</div>",NA,null,fixation,2020-06-18T20:33:16Z,NA,NA,NA,NA,NA,sub41
NA,mars-trial,20,83277,0.0-10.0-1.1,"""event"",""trial"",""time""
""focus"",""0"",""3020""
""fullscreenenter"",""0"",""3960""
","
","""event"",""trial"",""time""
""focus"",""0"",""3020""
","""event"",""trial"",""time""
""fullscreenenter"",""0"",""3960""
","
",2729.269999999815,<img style='border: 4px solid darkgrey;' src='img/tf1_2_M_ss1.jpeg'></img>,2,NA,exp,NA,0,<img src='img/tf1_2_T1_ss1_md.jpeg'></img>,0,TRUE,NA,sub41
NA,html-keyboard-response,21,83782,0.0-10.0-0.2,"""event"",""trial"",""time""
""focus"",""0"",""3020""
""fullscreenenter"",""0"",""3960""
","
","""event"",""trial"",""time""
""focus"",""0"",""3020""
","""event"",""trial"",""time""
""fullscreenenter"",""0"",""3960""
","
",null,"<div style=""font-size:60px;"">+</div>",NA,null,fixation,2020-06-18T20:33:20Z,NA,NA,NA,NA,NA,sub41
NA,mars-trial,22,86893,0.0-10.0-1.2,"""event"",""trial"",""time""
""focus"",""0"",""3020""
""fullscreenenter"",""0"",""3960""
","
","""event"",""trial"",""time""
""focus"",""0"",""3020""
","""event"",""trial"",""time""
""fullscreenenter"",""0"",""3960""
","
",2501.655000000028,<img style='border: 4px solid darkgrey;' src='img/tf1_3_M_ss2.jpeg'></img>,2,NA,exp,NA,0,<img src='img/tf1_3_T1_ss2_md.jpeg'></img>,0,TRUE,NA,sub41
NA,html-keyboard-response,23,87398,0.0-10.0-0.3,"""event"",""trial"",""time""
""focus"",""0"",""3020""
""fullscreenenter"",""0"",""3960""
","
","""event"",""trial"",""time""
""focus"",""0"",""3020""
","""event"",""trial"",""time""
""fullscreenenter"",""0"",""3960""
","
",null,"<div style=""font-size:60px;"">+</div>",NA,null,fixation,2020-06-18T20:33:24Z,NA,NA,NA,NA,NA,sub41
NA,mars-trial,24,93302,0.0-10.0-1.3,"""event"",""trial"",""time""
""focus"",""0"",""3020""
""fullscreenenter"",""0"",""3960""
","
","""event"",""trial"",""time""
""focus"",""0"",""3020""
","""event"",""trial"",""time""
""fullscreenenter"",""0"",""3960""
","
",5293.405000000348,<img style='border: 4px solid darkgrey;' src='img/tf1_4_M_ss3.jpeg'></img>,3,NA,exp,NA,0,<img src='img/tf1_4_T1_ss3_md.jpeg'></img>,0,TRUE,NA,sub41
NA,html-keyboard-response,25,93807,0.0-10.0-0.4,"""event"",""trial"",""time""
""focus"",""0"",""3020""
""fullscreenenter"",""0"",""3960""
","
","""event"",""trial"",""time""
""focus"",""0"",""3020""
","""event"",""trial"",""time""
""fullscreenenter"",""0"",""3960""
","
",null,"<div style=""font-size:60px;"">+</div>",NA,null,fixation,2020-06-18T20:33:30Z,NA,NA,NA,NA,NA,sub41
NA,mars-trial,26,96913,0.0-10.0-1.4,"""event"",""trial"",""time""
""focus"",""0"",""3020""
""fullscreenenter"",""0"",""3960""
","
","""event"",""trial"",""time""
""focus"",""0"",""3020""
","""event"",""trial"",""time""
""fullscreenenter"",""0"",""3960""
","
",2499.069999998028,<img style='border: 4px solid darkgrey;' src='img/tf1_5_M_ss1.jpeg'></img>,1,NA,exp,NA,0,<img src='img/tf1_5_T1_ss1_md.jpeg'></img>,0,TRUE,NA,sub41
NA,html-keyboard-response,27,97418,0.0-10.0-0.5,"""event"",""trial"",""time""
""focus"",""0"",""3020""
""fullscreenenter"",""0"",""3960""
","
","""event"",""trial"",""time""
""focus"",""0"",""3020""
","""event"",""trial"",""time""
""fullscreenenter"",""0"",""3960""
","
",null,"<div style=""font-size:60px;"">+</div>",NA,null,fixation,2020-06-18T20:33:34Z,NA,NA,NA,NA,NA,sub41
NA,mars-trial,28,106794,0.0-10.0-1.5,"""event"",""trial"",""time""
""focus"",""0"",""3020""
""fullscreenenter"",""0"",""3960""
","
","""event"",""trial"",""time""
""focus"",""0"",""3020""
","""event"",""trial"",""time""
""fullscreenenter"",""0"",""3960""
","
",8767.229999997653,<img style='border: 4px solid darkgrey;' src='img/tf1_6_M_ss2.jpeg'></img>,0,NA,exp,NA,0,<img src='img/tf1_6_T1_ss2_md.jpeg'></img>,0,TRUE,NA,sub41
NA,html-keyboard-response,29,107300,0.0-10.0-0.6,"""event"",""trial"",""time""
""focus"",""0"",""3020""
""fullscreenenter"",""0"",""3960""
","
","""event"",""trial"",""time""
""focus"",""0"",""3020""
","""event"",""trial"",""time""
""fullscreenenter"",""0"",""3960""
","
",null,"<div style=""font-size:60px;"">+</div>",NA,null,fixation,2020-06-18T20:33:44Z,NA,NA,NA,NA,NA,sub41
NA,mars-trial,30,110606,0.0-10.0-1.6,"""event"",""trial"",""time""
""focus"",""0"",""3020""
""fullscreenenter"",""0"",""3960""
","
","""event"",""trial"",""time""
""focus"",""0"",""3020""
","""event"",""trial"",""time""
""fullscreenenter"",""0"",""3960""
","
",2693.489999997837,<img style='border: 4px solid darkgrey;' src='img/tf1_7_M_ss3.jpeg'></img>,3,NA,exp,NA,0,<img src='img/tf1_7_T1_ss3_md.jpeg'></img>,0,TRUE,NA,sub41
NA,html-keyboard-response,31,111108,0.0-10.0-0.7,"""event"",""trial"",""time""
""focus"",""0"",""3020""
""fullscreenenter"",""0"",""3960""
","
","""event"",""trial"",""time""
""focus"",""0"",""3020""
","""event"",""trial"",""time""
""fullscreenenter"",""0"",""3960""
","
",null,"<div style=""font-size:60px;"">+</div>",NA,null,fixation,2020-06-18T20:33:48Z,NA,NA,NA,NA,NA,sub41
NA,mars-trial,32,119595,0.0-10.0-1.7,"""event"",""trial"",""time""
""focus"",""0"",""3020""
""fullscreenenter"",""0"",""3960""
","
","""event"",""trial"",""time""
""focus"",""0"",""3020""
","""event"",""trial"",""time""
""fullscreenenter"",""0"",""3960""
","
",7877.53000000157,<img style='border: 4px solid darkgrey;' src='img/tf1_8_M_ss1.jpeg'></img>,3,NA,exp,NA,1,<img src='img/tf1_8_T1_ss1_md.jpeg'></img>,0,FALSE,NA,sub41
NA,html-keyboard-response,33,120097,0.0-10.0-0.8,"""event"",""trial"",""time""
""focus"",""0"",""3020""
""fullscreenenter"",""0"",""3960""
","
","""event"",""trial"",""time""
""focus"",""0"",""3020""
","""event"",""trial"",""time""
""fullscreenenter"",""0"",""3960""
","
",null,"<div style=""font-size:60px;"">+</div>",NA,null,fixation,2020-06-18T20:33:57Z,NA,NA,NA,NA,NA,sub41
NA,mars-trial,34,125192,0.0-10.0-1.8,"""event"",""trial"",""time""
""focus"",""0"",""3020""
""fullscreenenter"",""0"",""3960""
","
","""event"",""trial"",""time""
""focus"",""0"",""3020""
","""event"",""trial"",""time""
""fullscreenenter"",""0"",""3960""
","
",4485.795000000508,<img style='border: 4px solid darkgrey;' src='img/tf1_9_M_ss2.jpeg'></img>,1,NA,exp,NA,2,<img src='img/tf1_9_T1_ss2_md.jpeg'></img>,0,FALSE,NA,sub41
NA,html-keyboard-response,35,125694,0.0-10.0-0.9,"""event"",""trial"",""time""
""focus"",""0"",""3020""
""fullscreenenter"",""0"",""3960""
","
","""event"",""trial"",""time""
""focus"",""0"",""3020""
","""event"",""trial"",""time""
""fullscreenenter"",""0"",""3960""
","
",null,"<div style=""font-size:60px;"">+</div>",NA,null,fixation,2020-06-18T20:34:02Z,NA,NA,NA,NA,NA,sub41
NA,mars-trial,36,139215,0.0-10.0-1.9,"""event"",""trial"",""time""
""focus"",""0"",""3020""
""fullscreenenter"",""0"",""3960""
","
","""event"",""trial"",""time""
""focus"",""0"",""3020""
","""event"",""trial"",""time""
""fullscreenenter"",""0"",""3960""
","
",12909.59500000099,<img style='border: 4px solid darkgrey;' src='img/tf1_10_M_ss3.jpeg'></img>,3,NA,exp,NA,0,<img src='img/tf1_10_T1_ss3_md.jpeg'></img>,0,TRUE,NA,sub41
NA,html-keyboard-response,37,139722,0.0-10.0-0.10,"""event"",""trial"",""time""
""focus"",""0"",""3020""
""fullscreenenter"",""0"",""3960""
","
","""event"",""trial"",""time""
""focus"",""0"",""3020""
","""event"",""trial"",""time""
""fullscreenenter"",""0"",""3960""
","
",null,"<div style=""font-size:60px;"">+</div>",NA,null,fixation,2020-06-18T20:34:16Z,NA,NA,NA,NA,NA,sub41
NA,mars-trial,38,143677,0.0-10.0-1.10,"""event"",""trial"",""time""
""focus"",""0"",""3020""
""fullscreenenter"",""0"",""3960""
","
","""event"",""trial"",""time""
""focus"",""0"",""3020""
","""event"",""trial"",""time""
""fullscreenenter"",""0"",""3960""
","
",3342.755000001489,<img style='border: 4px solid darkgrey;' src='img/tf1_11_M_ss1.jpeg'></img>,2,NA,exp,NA,2,<img src='img/tf1_11_T1_ss1_md.jpeg'></img>,0,FALSE,NA,sub41
NA,html-keyboard-response,39,144179,0.0-10.0-0.11,"""event"",""trial"",""time""
""focus"",""0"",""3020""
""fullscreenenter"",""0"",""3960""
","
","""event"",""trial"",""time""
""focus"",""0"",""3020""
","""event"",""trial"",""time""
""fullscreenenter"",""0"",""3960""
","
",null,"<div style=""font-size:60px;"">+</div>",NA,null,fixation,2020-06-18T20:34:21Z,NA,NA,NA,NA,NA,sub41
NA,mars-trial,40,147780,0.0-10.0-1.11,"""event"",""trial"",""time""
""focus"",""0"",""3020""
""fullscreenenter"",""0"",""3960""
","
","""event"",""trial"",""time""
""focus"",""0"",""3020""
","""event"",""trial"",""time""
""fullscreenenter"",""0"",""3960""
","
",2992.4099999989267,<img style='border: 4px solid darkgrey;' src='img/tf1_12_M_ss2.jpeg'></img>,0,NA,exp,NA,2,<img src='img/tf1_12_T1_ss2_md.jpeg'></img>,0,FALSE,NA,sub41
NA,html-keyboard-response,41,148282,0.0-10.0-0.12,"""event"",""trial"",""time""
""focus"",""0"",""3020""
""fullscreenenter"",""0"",""3960""
","
","""event"",""trial"",""time""
""focus"",""0"",""3020""
","""event"",""trial"",""time""
""fullscreenenter"",""0"",""3960""
","
",null,"<div style=""font-size:60px;"">+</div>",NA,null,fixation,2020-06-18T20:34:25Z,NA,NA,NA,NA,NA,sub41
NA,mars-trial,42,150055,0.0-10.0-1.12,"""event"",""trial"",""time""
""focus"",""0"",""3020""
""fullscreenenter"",""0"",""3960""
","
","""event"",""trial"",""time""
""focus"",""0"",""3020""
","""event"",""trial"",""time""
""fullscreenenter"",""0"",""3960""
","
",1166.2199999991572,<img style='border: 4px solid darkgrey;' src='img/tf1_13_M_ss3.jpeg'></img>,1,NA,exp,NA,3,<img src='img/tf1_13_T1_ss3_md.jpeg'></img>,0,FALSE,NA,sub41
NA,html-keyboard-response,43,150557,0.0-10.0-0.13,"""event"",""trial"",""time""
""focus"",""0"",""3020""
""fullscreenenter"",""0"",""3960""
","
","""event"",""trial"",""time""
""focus"",""0"",""3020""
","""event"",""trial"",""time""
""fullscreenenter"",""0"",""3960""
","
",null,"<div style=""font-size:60px;"">+</div>",NA,null,fixation,2020-06-18T20:34:27Z,NA,NA,NA,NA,NA,sub41
NA,mars-trial,44,158462,0.0-10.0-1.13,"""event"",""trial"",""time""
""focus"",""0"",""3020""
""fullscreenenter"",""0"",""3960""
","
","""event"",""trial"",""time""
""focus"",""0"",""3020""
","""event"",""trial"",""time""
""fullscreenenter"",""0"",""3960""
","
",7300.459999998566,<img style='border: 4px solid darkgrey;' src='img/tf1_14_M_ss1.jpeg'></img>,2,NA,exp,NA,3,<img src='img/tf1_14_T1_ss1_md.jpeg'></img>,0,FALSE,NA,sub41
NA,html-keyboard-response,45,158966,0.0-10.0-0.14,"""event"",""trial"",""time""
""focus"",""0"",""3020""
""fullscreenenter"",""0"",""3960""
","
","""event"",""trial"",""time""
""focus"",""0"",""3020""
","""event"",""trial"",""time""
""fullscreenenter"",""0"",""3960""
","
",null,"<div style=""font-size:60px;"">+</div>",NA,null,fixation,2020-06-18T20:34:35Z,NA,NA,NA,NA,NA,sub41
NA,mars-trial,46,161979,0.0-10.0-1.14,"""event"",""trial"",""time""
""focus"",""0"",""3020""
""fullscreenenter"",""0"",""3960""
","
","""event"",""trial"",""time""
""focus"",""0"",""3020""
","""event"",""trial"",""time""
""fullscreenenter"",""0"",""3960""
","
",2402.1949999987555,<img style='border: 4px solid darkgrey;' src='img/tf1_15_M_ss2.jpeg'></img>,1,NA,exp,NA,2,<img src='img/tf1_15_T1_ss2_md.jpeg'></img>,0,FALSE,NA,sub41
NA,html-keyboard-response,47,162486,0.0-10.0-0.15,"""event"",""trial"",""time""
""focus"",""0"",""3020""
""fullscreenenter"",""0"",""3960""
","
","""event"",""trial"",""time""
""focus"",""0"",""3020""
","""event"",""trial"",""time""
""fullscreenenter"",""0"",""3960""
","
",null,"<div style=""font-size:60px;"">+</div>",NA,null,fixation,2020-06-18T20:34:39Z,NA,NA,NA,NA,NA,sub41
NA,mars-trial,48,169909,0.0-10.0-1.15,"""event"",""trial"",""time""
""focus"",""0"",""3020""
""fullscreenenter"",""0"",""3960""
","
","""event"",""trial"",""time""
""focus"",""0"",""3020""
","""event"",""trial"",""time""
""fullscreenenter"",""0"",""3960""
","
",6809.189999999944,<img style='border: 4px solid darkgrey;' src='img/tf1_16_M_ss3.jpeg'></img>,0,NA,exp,NA,3,<img src='img/tf1_16_T1_ss3_md.jpeg'></img>,0,FALSE,NA,sub41
NA,html-keyboard-response,49,170416,0.0-10.0-0.16,"""event"",""trial"",""time""
""focus"",""0"",""3020""
""fullscreenenter"",""0"",""3960""
","
","""event"",""trial"",""time""
""focus"",""0"",""3020""
","""event"",""trial"",""time""
""fullscreenenter"",""0"",""3960""
","
",null,"<div style=""font-size:60px;"">+</div>",NA,null,fixation,2020-06-18T20:34:47Z,NA,NA,NA,NA,NA,sub41
NA,mars-trial,50,174390,0.0-10.0-1.16,"""event"",""trial"",""time""
""focus"",""0"",""3020""
""fullscreenenter"",""0"",""3960""
","
","""event"",""trial"",""time""
""focus"",""0"",""3020""
","""event"",""trial"",""time""
""fullscreenenter"",""0"",""3960""
","
",3358.185000000958,<img style='border: 4px solid darkgrey;' src='img/tf1_17_M_ss1.jpeg'></img>,1,NA,exp,NA,0,<img src='img/tf1_17_T1_ss1_md.jpeg'></img>,0,TRUE,NA,sub41
NA,html-keyboard-response,51,174892,0.0-10.0-0.17,"""event"",""trial"",""time""
""focus"",""0"",""3020""
""fullscreenenter"",""0"",""3960""
","
","""event"",""trial"",""time""
""focus"",""0"",""3020""
","""event"",""trial"",""time""
""fullscreenenter"",""0"",""3960""
","
",null,"<div style=""font-size:60px;"">+</div>",NA,null,fixation,2020-06-18T20:34:51Z,NA,NA,NA,NA,NA,sub41
NA,mars-trial,52,186220,0.0-10.0-1.17,"""event"",""trial"",""time""
""focus"",""0"",""3020""
""fullscreenenter"",""0"",""3960""
","
","""event"",""trial"",""time""
""focus"",""0"",""3020""
","""event"",""trial"",""time""
""fullscreenenter"",""0"",""3960""
","
",10719.930000002933,<img style='border: 4px solid darkgrey;' src='img/tf1_18_M_ss2.jpeg'></img>,2,NA,exp,NA,2,<img src='img/tf1_18_T1_ss2_md.jpeg'></img>,0,FALSE,NA,sub41
NA,html-keyboard-response,53,186726,0.0-10.0-0.18,"""event"",""trial"",""time""
""focus"",""0"",""3020""
""fullscreenenter"",""0"",""3960""
","
","""event"",""trial"",""time""
""focus"",""0"",""3020""
","""event"",""trial"",""time""
""fullscreenenter"",""0"",""3960""
","
",null,"<div style=""font-size:60px;"">+</div>",NA,null,fixation,2020-06-18T20:35:03Z,NA,NA,NA,NA,NA,sub41
NA,mars-trial,54,192530,0.0-10.0-1.18,"""event"",""trial"",""time""
""focus"",""0"",""3020""
""fullscreenenter"",""0"",""3960""
","
","""event"",""trial"",""time""
""focus"",""0"",""3020""
","""event"",""trial"",""time""
""fullscreenenter"",""0"",""3960""
","
",5195.045000000391,<img style='border: 4px solid darkgrey;' src='img/tf1_19_M_ss3.jpeg'></img>,0,NA,exp,NA,2,<img src='img/tf1_19_T1_ss3_md.jpeg'></img>,0,FALSE,NA,sub41
NA,html-keyboard-response,55,193035,0.0-10.0-0.19,"""event"",""trial"",""time""
""focus"",""0"",""3020""
""fullscreenenter"",""0"",""3960""
","
","""event"",""trial"",""time""
""focus"",""0"",""3020""
","""event"",""trial"",""time""
""fullscreenenter"",""0"",""3960""
","
",null,"<div style=""font-size:60px;"">+</div>",NA,null,fixation,2020-06-18T20:35:09Z,NA,NA,NA,NA,NA,sub41
NA,mars-trial,56,198453,0.0-10.0-1.19,"""event"",""trial"",""time""
""focus"",""0"",""3020""
""fullscreenenter"",""0"",""3960""
","
","""event"",""trial"",""time""
""focus"",""0"",""3020""
","""event"",""trial"",""time""
""fullscreenenter"",""0"",""3960""
","
",4804.3499999985215,<img style='border: 4px solid darkgrey;' src='img/tf1_20_M_ss1.jpeg'></img>,1,NA,exp,NA,0,<img src='img/tf1_20_T1_ss1_md.jpeg'></img>,0,TRUE,NA,sub41
NA,html-keyboard-response,57,198958,0.0-10.0-0.20,"""event"",""trial"",""time""
""focus"",""0"",""3020""
""fullscreenenter"",""0"",""3960""
","
","""event"",""trial"",""time""
""focus"",""0"",""3020""
","""event"",""trial"",""time""
""fullscreenenter"",""0"",""3960""
","
",null,"<div style=""font-size:60px;"">+</div>",NA,null,fixation,2020-06-18T20:35:15Z,NA,NA,NA,NA,NA,sub41
NA,mars-trial,58,200659,0.0-10.0-1.20,"""event"",""trial"",""time""
""focus"",""0"",""3020""
""fullscreenenter"",""0"",""3960""
","
","""event"",""trial"",""time""
""focus"",""0"",""3020""
","""event"",""trial"",""time""
""fullscreenenter"",""0"",""3960""
","
",1087.5400000004447,<img style='border: 4px solid darkgrey;' src='img/tf1_21_M_ss2.jpeg'></img>,2,NA,exp,NA,2,<img src='img/tf1_21_T1_ss2_md.jpeg'></img>,0,FALSE,NA,sub41
NA,html-keyboard-response,59,201164,0.0-10.0-0.21,"""event"",""trial"",""time""
""focus"",""0"",""3020""
""fullscreenenter"",""0"",""3960""
","
","""event"",""trial"",""time""
""focus"",""0"",""3020""
","""event"",""trial"",""time""
""fullscreenenter"",""0"",""3960""
","
",null,"<div style=""font-size:60px;"">+</div>",NA,null,fixation,2020-06-18T20:35:18Z,NA,NA,NA,NA,NA,sub41
NA,mars-trial,60,202005,0.0-10.0-1.21,"""event"",""trial"",""time""
""focus"",""0"",""3020""
""fullscreenenter"",""0"",""3960""
","
","""event"",""trial"",""time""
""focus"",""0"",""3020""
","""event"",""trial"",""time""
""fullscreenenter"",""0"",""3960""
","
",228.5249999986263,<img style='border: 4px solid darkgrey;' src='img/tf1_22_M_ss3.jpeg'></img>,1,NA,exp,NA,3,<img src='img/tf1_22_T1_ss3_md.jpeg'></img>,0,FALSE,NA,sub41
NA,html-keyboard-response,61,202508,0.0-10.0-0.22,"""event"",""trial"",""time""
""focus"",""0"",""3020""
""fullscreenenter"",""0"",""3960""
","
","""event"",""trial"",""time""
""focus"",""0"",""3020""
","""event"",""trial"",""time""
""fullscreenenter"",""0"",""3960""
","
",null,"<div style=""font-size:60px;"">+</div>",NA,null,fixation,2020-06-18T20:35:19Z,NA,NA,NA,NA,NA,sub41
NA,mars-trial,62,203463,0.0-10.0-1.22,"""event"",""trial"",""time""
""focus"",""0"",""3020""
""fullscreenenter"",""0"",""3960""
","
","""event"",""trial"",""time""
""focus"",""0"",""3020""
","""event"",""trial"",""time""
""fullscreenenter"",""0"",""3960""
","
",342.10499999971944,<img style='border: 4px solid darkgrey;' src='img/tf1_23_M_ss1.jpeg'></img>,1,NA,exp,NA,0,<img src='img/tf1_23_T1_ss1_md.jpeg'></img>,0,TRUE,NA,sub41
NA,html-keyboard-response,63,203967,0.0-10.0-0.23,"""event"",""trial"",""time""
""focus"",""0"",""3020""
""fullscreenenter"",""0"",""3960""
","
","""event"",""trial"",""time""
""focus"",""0"",""3020""
","""event"",""trial"",""time""
""fullscreenenter"",""0"",""3960""
","
",null,"<div style=""font-size:60px;"">+</div>",NA,null,fixation,2020-06-18T20:35:20Z,NA,NA,NA,NA,NA,sub41
NA,mars-trial,64,204745,0.0-10.0-1.23,"""event"",""trial"",""time""
""focus"",""0"",""3020""
""fullscreenenter"",""0"",""3960""
","
","""event"",""trial"",""time""
""focus"",""0"",""3020""
","""event"",""trial"",""time""
""fullscreenenter"",""0"",""3960""
","
",167.1749999986787,<img style='border: 4px solid darkgrey;' src='img/tf1_24_M_ss2.jpeg'></img>,1,NA,exp,NA,2,<img src='img/tf1_24_T1_ss2_md.jpeg'></img>,0,FALSE,NA,sub41
NA,html-keyboard-response,65,205247,0.0-10.0-0.24,"""event"",""trial"",""time""
""focus"",""0"",""3020""
""fullscreenenter"",""0"",""3960""
","
","""event"",""trial"",""time""
""focus"",""0"",""3020""
","""event"",""trial"",""time""
""fullscreenenter"",""0"",""3960""
","
",null,"<div style=""font-size:60px;"">+</div>",NA,null,fixation,2020-06-18T20:35:22Z,NA,NA,NA,NA,NA,sub41
NA,mars-trial,66,206197,0.0-10.0-1.24,"""event"",""trial"",""time""
""focus"",""0"",""3020""
""fullscreenenter"",""0"",""3960""
","
","""event"",""trial"",""time""
""focus"",""0"",""3020""
","""event"",""trial"",""time""
""fullscreenenter"",""0"",""3960""
","
",343.11999999772524,<img style='border: 4px solid darkgrey;' src='img/tf1_25_M_ss3.jpeg'></img>,2,NA,exp,NA,3,<img src='img/tf1_25_T1_ss3_md.jpeg'></img>,0,FALSE,NA,sub41
NA,html-keyboard-response,67,206698,0.0-10.0-0.25,"""event"",""trial"",""time""
""focus"",""0"",""3020""
""fullscreenenter"",""0"",""3960""
","
","""event"",""trial"",""time""
""focus"",""0"",""3020""
","""event"",""trial"",""time""
""fullscreenenter"",""0"",""3960""
","
",null,"<div style=""font-size:60px;"">+</div>",NA,null,fixation,2020-06-18T20:35:23Z,NA,NA,NA,NA,NA,sub41
NA,mars-trial,68,207830,0.0-10.0-1.25,"""event"",""trial"",""time""
""focus"",""0"",""3020""
""fullscreenenter"",""0"",""3960""
","
","""event"",""trial"",""time""
""focus"",""0"",""3020""
","""event"",""trial"",""time""
""fullscreenenter"",""0"",""3960""
","
",525.1099999986764,<img style='border: 4px solid darkgrey;' src='img/tf1_26_M_ss1.jpeg'></img>,1,NA,exp,NA,3,<img src='img/tf1_26_T1_ss1_md.jpeg'></img>,0,FALSE,NA,sub41
NA,html-keyboard-response,69,208334,0.0-10.0-0.26,"""event"",""trial"",""time""
""focus"",""0"",""3020""
""fullscreenenter"",""0"",""3960""
","
","""event"",""trial"",""time""
""focus"",""0"",""3020""
","""event"",""trial"",""time""
""fullscreenenter"",""0"",""3960""
","
",null,"<div style=""font-size:60px;"">+</div>",NA,null,fixation,2020-06-18T20:35:25Z,NA,NA,NA,NA,NA,sub41
NA,mars-trial,70,209062,0.0-10.0-1.26,"""event"",""trial"",""time""
""focus"",""0"",""3020""
""fullscreenenter"",""0"",""3960""
","
","""event"",""trial"",""time""
""focus"",""0"",""3020""
","""event"",""trial"",""time""
""fullscreenenter"",""0"",""3960""
","
",122.54499999835389,<img style='border: 4px solid darkgrey;' src='img/tf1_27_M_ss2.jpeg'></img>,1,NA,exp,NA,1,<img src='img/tf1_27_T1_ss2_md.jpeg'></img>,0,FALSE,NA,sub41
NA,html-keyboard-response,71,209569,0.0-10.0-0.27,"""event"",""trial"",""time""
""focus"",""0"",""3020""
""fullscreenenter"",""0"",""3960""
","
","""event"",""trial"",""time""
""focus"",""0"",""3020""
","""event"",""trial"",""time""
""fullscreenenter"",""0"",""3960""
","
",null,"<div style=""font-size:60px;"">+</div>",NA,null,fixation,2020-06-18T20:35:26Z,NA,NA,NA,NA,NA,sub41
NA,mars-trial,72,210738,0.0-10.0-1.27,"""event"",""trial"",""time""
""focus"",""0"",""3020""
""fullscreenenter"",""0"",""3960""
","
","""event"",""trial"",""time""
""focus"",""0"",""3020""
","""event"",""trial"",""time""
""fullscreenenter"",""0"",""3960""
","
",557.3499999991327,<img style='border: 4px solid darkgrey;' src='img/tf1_28_M_ss3.jpeg'></img>,1,NA,exp,NA,0,<img src='img/tf1_28_T1_ss3_md.jpeg'></img>,0,TRUE,NA,sub41
NA,html-keyboard-response,73,211242,0.0-10.0-0.28,"""event"",""trial"",""time""
""focus"",""0"",""3020""
""fullscreenenter"",""0"",""3960""
","
","""event"",""trial"",""time""
""focus"",""0"",""3020""
","""event"",""trial"",""time""
""fullscreenenter"",""0"",""3960""
","
",null,"<div style=""font-size:60px;"">+</div>",NA,null,fixation,2020-06-18T20:35:28Z,NA,NA,NA,NA,NA,sub41
NA,mars-trial,74,212350,0.0-10.0-1.28,"""event"",""trial"",""time""
""focus"",""0"",""3020""
""fullscreenenter"",""0"",""3960""
","
","""event"",""trial"",""time""
""focus"",""0"",""3020""
","""event"",""trial"",""time""
""fullscreenenter"",""0"",""3960""
","
",501.4499999997497,<img style='border: 4px solid darkgrey;' src='img/tf1_29_M_ss1.jpeg'></img>,1,NA,exp,NA,1,<img src='img/tf1_29_T1_ss1_md.jpeg'></img>,0,FALSE,NA,sub41
NA,html-keyboard-response,75,212853,0.0-10.0-0.29,"""event"",""trial"",""time""
""focus"",""0"",""3020""
""fullscreenenter"",""0"",""3960""
","
","""event"",""trial"",""time""
""focus"",""0"",""3020""
","""event"",""trial"",""time""
""fullscreenenter"",""0"",""3960""
","
",null,"<div style=""font-size:60px;"">+</div>",NA,null,fixation,2020-06-18T20:35:29Z,NA,NA,NA,NA,NA,sub41
NA,mars-trial,76,215740,0.0-10.0-1.29,"""event"",""trial"",""time""
""focus"",""0"",""3020""
""fullscreenenter"",""0"",""3960""
","
","""event"",""trial"",""time""
""focus"",""0"",""3020""
","""event"",""trial"",""time""
""fullscreenenter"",""0"",""3960""
","
",2278.3500000005006,<img style='border: 4px solid darkgrey;' src='img/tf1_30_M_ss2.jpeg'></img>,2,NA,exp,NA,3,<img src='img/tf1_30_T1_ss2_md.jpeg'></img>,0,FALSE,NA,sub41
NA,html-keyboard-response,77,216245,0.0-10.0-0.30,"""event"",""trial"",""time""
""focus"",""0"",""3020""
""fullscreenenter"",""0"",""3960""
","
","""event"",""trial"",""time""
""focus"",""0"",""3020""
","""event"",""trial"",""time""
""fullscreenenter"",""0"",""3960""
","
",null,"<div style=""font-size:60px;"">+</div>",NA,null,fixation,2020-06-18T20:35:33Z,NA,NA,NA,NA,NA,sub41
NA,mars-trial,78,217655,0.0-10.0-1.30,"""event"",""trial"",""time""
""focus"",""0"",""3020""
""fullscreenenter"",""0"",""3960""
","
","""event"",""trial"",""time""
""focus"",""0"",""3020""
","""event"",""trial"",""time""
""fullscreenenter"",""0"",""3960""
","
",799.1299999994226,<img style='border: 4px solid darkgrey;' src='img/tf1_31_M_ss3.jpeg'></img>,1,NA,exp,NA,2,<img src='img/tf1_31_T1_ss3_md.jpeg'></img>,0,FALSE,NA,sub41
NA,html-keyboard-response,79,218158,0.0-10.0-0.31,"""event"",""trial"",""time""
""focus"",""0"",""3020""
""fullscreenenter"",""0"",""3960""
","
","""event"",""trial"",""time""
""focus"",""0"",""3020""
","""event"",""trial"",""time""
""fullscreenenter"",""0"",""3960""
","
",null,"<div style=""font-size:60px;"">+</div>",NA,null,fixation,2020-06-18T20:35:35Z,NA,NA,NA,NA,NA,sub41
NA,mars-trial,80,219131,0.0-10.0-1.31,"""event"",""trial"",""time""
""focus"",""0"",""3020""
""fullscreenenter"",""0"",""3960""
","
","""event"",""trial"",""time""
""focus"",""0"",""3020""
","""event"",""trial"",""time""
""fullscreenenter"",""0"",""3960""
","
",363.245000000461,<img style='border: 4px solid darkgrey;' src='img/tf1_32_M_ss1.jpeg'></img>,2,NA,exp,NA,2,<img src='img/tf1_32_T1_ss1_md.jpeg'></img>,0,FALSE,NA,sub41
NA,html-keyboard-response,81,219636,0.0-10.0-0.32,"""event"",""trial"",""time""
""focus"",""0"",""3020""
""fullscreenenter"",""0"",""3960""
","
","""event"",""trial"",""time""
""focus"",""0"",""3020""
","""event"",""trial"",""time""
""fullscreenenter"",""0"",""3960""
","
",null,"<div style=""font-size:60px;"">+</div>",NA,null,fixation,2020-06-18T20:35:36Z,NA,NA,NA,NA,NA,sub41
NA,mars-trial,82,220628,0.0-10.0-1.32,"""event"",""trial"",""time""
""focus"",""0"",""3020""
""fullscreenenter"",""0"",""3960""
","
","""event"",""trial"",""time""
""focus"",""0"",""3020""
","""event"",""trial"",""time""
""fullscreenenter"",""0"",""3960""
","
",380.9700000019802,<img style='border: 4px solid darkgrey;' src='img/tf1_33_M_ss2.jpeg'></img>,1,NA,exp,NA,0,<img src='img/tf1_33_T1_ss2_md.jpeg'></img>,0,TRUE,NA,sub41
NA,html-keyboard-response,83,221134,0.0-10.0-0.33,"""event"",""trial"",""time""
""focus"",""0"",""3020""
""fullscreenenter"",""0"",""3960""
","
","""event"",""trial"",""time""
""focus"",""0"",""3020""
","""event"",""trial"",""time""
""fullscreenenter"",""0"",""3960""
","
",null,"<div style=""font-size:60px;"">+</div>",NA,null,fixation,2020-06-18T20:35:38Z,NA,NA,NA,NA,NA,sub41
NA,mars-trial,84,222384,0.0-10.0-1.33,"""event"",""trial"",""time""
""focus"",""0"",""3020""
""fullscreenenter"",""0"",""3960""
","
","""event"",""trial"",""time""
""focus"",""0"",""3020""
","""event"",""trial"",""time""
""fullscreenenter"",""0"",""3960""
","
",641.619999998511,<img style='border: 4px solid darkgrey;' src='img/tf1_34_M_ss3.jpeg'></img>,1,NA,exp,NA,1,<img src='img/tf1_34_T1_ss3_md.jpeg'></img>,0,FALSE,NA,sub41
NA,html-keyboard-response,85,222891,0.0-10.0-0.34,"""event"",""trial"",""time""
""focus"",""0"",""3020""
""fullscreenenter"",""0"",""3960""
","
","""event"",""trial"",""time""
""focus"",""0"",""3020""
","""event"",""trial"",""time""
""fullscreenenter"",""0"",""3960""
","
",null,"<div style=""font-size:60px;"">+</div>",NA,null,fixation,2020-06-18T20:35:39Z,NA,NA,NA,NA,NA,sub41
NA,mars-trial,86,224274,0.0-10.0-1.34,"""event"",""trial"",""time""
""focus"",""0"",""3020""
""fullscreenenter"",""0"",""3960""
","
","""event"",""trial"",""time""
""focus"",""0"",""3020""
","""event"",""trial"",""time""
""fullscreenenter"",""0"",""3960""
","
",777.6599999997416,<img style='border: 4px solid darkgrey;' src='img/tf1_35_M_ss1.jpeg'></img>,2,NA,exp,NA,3,<img src='img/tf1_35_T1_ss1_md.jpeg'></img>,0,FALSE,NA,sub41
NA,html-keyboard-response,87,224779,0.0-10.0-0.35,"""event"",""trial"",""time""
""focus"",""0"",""3020""
""fullscreenenter"",""0"",""3960""
","
","""event"",""trial"",""time""
""focus"",""0"",""3020""
","""event"",""trial"",""time""
""fullscreenenter"",""0"",""3960""
","
",null,"<div style=""font-size:60px;"">+</div>",NA,null,fixation,2020-06-18T20:35:41Z,NA,NA,NA,NA,NA,sub41
NA,mars-trial,88,226281,0.0-10.0-1.35,"""event"",""trial"",""time""
""focus"",""0"",""3020""
""fullscreenenter"",""0"",""3960""
","
","""event"",""trial"",""time""
""focus"",""0"",""3020""
","""event"",""trial"",""time""
""fullscreenenter"",""0"",""3960""
","
",890.4349999975238,<img style='border: 4px solid darkgrey;' src='img/tf1_36_M_ss2.jpeg'></img>,3,NA,exp,NA,0,<img src='img/tf1_36_T1_ss2_md.jpeg'></img>,0,TRUE,NA,sub41
NA,html-keyboard-response,89,226783,0.0-10.0-0.36,"""event"",""trial"",""time""
""focus"",""0"",""3020""
""fullscreenenter"",""0"",""3960""
","
","""event"",""trial"",""time""
""focus"",""0"",""3020""
","""event"",""trial"",""time""
""fullscreenenter"",""0"",""3960""
","
",null,"<div style=""font-size:60px;"">+</div>",NA,null,fixation,2020-06-18T20:35:43Z,NA,NA,NA,NA,NA,sub41
NA,mars-trial,90,228431,0.0-10.0-1.36,"""event"",""trial"",""time""
""focus"",""0"",""3020""
""fullscreenenter"",""0"",""3960""
","
","""event"",""trial"",""time""
""focus"",""0"",""3020""
","""event"",""trial"",""time""
""fullscreenenter"",""0"",""3960""
","
",1037.6649999998335,<img style='border: 4px solid darkgrey;' src='img/tf1_37_M_ss3.jpeg'></img>,3,NA,exp,NA,0,<img src='img/tf1_37_T1_ss3_md.jpeg'></img>,0,TRUE,NA,sub41
NA,html-keyboard-response,91,228935,0.0-10.0-0.37,"""event"",""trial"",""time""
""focus"",""0"",""3020""
""fullscreenenter"",""0"",""3960""
","
","""event"",""trial"",""time""
""focus"",""0"",""3020""
","""event"",""trial"",""time""
""fullscreenenter"",""0"",""3960""
","
",null,"<div style=""font-size:60px;"">+</div>",NA,null,fixation,2020-06-18T20:35:45Z,NA,NA,NA,NA,NA,sub41
NA,mars-trial,92,230012,0.0-10.0-1.37,"""event"",""trial"",""time""
""focus"",""0"",""3020""
""fullscreenenter"",""0"",""3960""
","
","""event"",""trial"",""time""
""focus"",""0"",""3020""
","""event"",""trial"",""time""
""fullscreenenter"",""0"",""3960""
","
",467.44500000204425,<img style='border: 4px solid darkgrey;' src='img/tf1_38_M_ss1.jpeg'></img>,3,NA,exp,NA,3,<img src='img/tf1_38_T1_ss1_md.jpeg'></img>,0,FALSE,NA,sub41
NA,html-keyboard-response,93,230516,0.0-10.0-0.38,"""event"",""trial"",""time""
""focus"",""0"",""3020""
""fullscreenenter"",""0"",""3960""
","
","""event"",""trial"",""time""
""focus"",""0"",""3020""
","""event"",""trial"",""time""
""fullscreenenter"",""0"",""3960""
","
",null,"<div style=""font-size:60px;"">+</div>",NA,null,fixation,2020-06-18T20:35:47Z,NA,NA,NA,NA,NA,sub41
NA,mars-trial,94,231687,0.0-10.0-1.38,"""event"",""trial"",""time""
""focus"",""0"",""3020""
""fullscreenenter"",""0"",""3960""
","
","""event"",""trial"",""time""
""focus"",""0"",""3020""
","""event"",""trial"",""time""
""fullscreenenter"",""0"",""3960""
","
",564.2299999999523,<img style='border: 4px solid darkgrey;' src='img/tf1_39_M_ss2.jpeg'></img>,1,NA,exp,NA,2,<img src='img/tf1_39_T1_ss2_md.jpeg'></img>,0,FALSE,NA,sub41
NA,html-keyboard-response,95,232189,0.0-10.0-0.39,"""event"",""trial"",""time""
""focus"",""0"",""3020""
""fullscreenenter"",""0"",""3960""
","
","""event"",""trial"",""time""
""focus"",""0"",""3020""
","""event"",""trial"",""time""
""fullscreenenter"",""0"",""3960""
","
",null,"<div style=""font-size:60px;"">+</div>",NA,null,fixation,2020-06-18T20:35:49Z,NA,NA,NA,NA,NA,sub41
NA,mars-trial,96,233409,0.0-10.0-1.39,"""event"",""trial"",""time""
""focus"",""0"",""3020""
""fullscreenenter"",""0"",""3960""
","
","""event"",""trial"",""time""
""focus"",""0"",""3020""
","""event"",""trial"",""time""
""fullscreenenter"",""0"",""3960""
","
",608.2749999986845,<img style='border: 4px solid darkgrey;' src='img/tf1_40_M_ss3.jpeg'></img>,2,NA,exp,NA,0,<img src='img/tf1_40_T1_ss3_md.jpeg'></img>,0,TRUE,NA,sub41
NA,html-keyboard-response,97,233915,0.0-10.0-0.40,"""event"",""trial"",""time""
""focus"",""0"",""3020""
""fullscreenenter"",""0"",""3960""
","
","""event"",""trial"",""time""
""focus"",""0"",""3020""
","""event"",""trial"",""time""
""fullscreenenter"",""0"",""3960""
","
",null,"<div style=""font-size:60px;"">+</div>",NA,null,fixation,2020-06-18T20:35:50Z,NA,NA,NA,NA,NA,sub41
NA,mars-trial,98,237911,0.0-10.0-1.40,"""event"",""trial"",""time""
""focus"",""0"",""3020""
""fullscreenenter"",""0"",""3960""
","
","""event"",""trial"",""time""
""focus"",""0"",""3020""
","""event"",""trial"",""time""
""fullscreenenter"",""0"",""3960""
","
",3384.265000000596,<img style='border: 4px solid darkgrey;' src='img/tf1_41_M_ss1.jpeg'></img>,1,NA,exp,NA,0,<img src='img/tf1_41_T1_ss1_md.jpeg'></img>,0,TRUE,NA,sub41
NA,html-keyboard-response,99,238416,0.0-10.0-0.41,"""event"",""trial"",""time""
""focus"",""0"",""3020""
""fullscreenenter"",""0"",""3960""
","
","""event"",""trial"",""time""
""focus"",""0"",""3020""
","""event"",""trial"",""time""
""fullscreenenter"",""0"",""3960""
","
",null,"<div style=""font-size:60px;"">+</div>",NA,null,fixation,2020-06-18T20:35:55Z,NA,NA,NA,NA,NA,sub41
NA,mars-trial,100,243541,0.0-10.0-1.41,"""event"",""trial"",""time""
""focus"",""0"",""3020""
""fullscreenenter"",""0"",""3960""
","
","""event"",""trial"",""time""
""focus"",""0"",""3020""
","""event"",""trial"",""time""
""fullscreenenter"",""0"",""3960""
","
",4511.069999996835,<img style='border: 4px solid darkgrey;' src='img/tf1_42_M_ss2.jpeg'></img>,2,NA,exp,NA,1,<img src='img/tf1_42_T1_ss2_md.jpeg'></img>,0,FALSE,NA,sub41
NA,html-keyboard-response,101,244046,0.0-10.0-0.42,"""event"",""trial"",""time""
""focus"",""0"",""3020""
""fullscreenenter"",""0"",""3960""
","
","""event"",""trial"",""time""
""focus"",""0"",""3020""
","""event"",""trial"",""time""
""fullscreenenter"",""0"",""3960""
","
",null,"<div style=""font-size:60px;"">+</div>",NA,null,fixation,2020-06-18T20:36:00Z,NA,NA,NA,NA,NA,sub41
NA,mars-trial,102,245849,0.0-10.0-1.42,"""event"",""trial"",""time""
""focus"",""0"",""3020""
""fullscreenenter"",""0"",""3960""
","
","""event"",""trial"",""time""
""focus"",""0"",""3020""
","""event"",""trial"",""time""
""fullscreenenter"",""0"",""3960""
","
",1193.3199999984936,<img style='border: 4px solid darkgrey;' src='img/tf1_43_M_ss3.jpeg'></img>,1,NA,exp,NA,1,<img src='img/tf1_43_T1_ss3_md.jpeg'></img>,0,FALSE,NA,sub41
NA,html-keyboard-response,103,246356,0.0-10.0-0.43,"""event"",""trial"",""time""
""focus"",""0"",""3020""
""fullscreenenter"",""0"",""3960""
","
","""event"",""trial"",""time""
""focus"",""0"",""3020""
","""event"",""trial"",""time""
""fullscreenenter"",""0"",""3960""
","
",null,"<div style=""font-size:60px;"">+</div>",NA,null,fixation,2020-06-18T20:36:03Z,NA,NA,NA,NA,NA,sub41
NA,mars-trial,104,254238,0.0-10.0-1.43,"""event"",""trial"",""time""
""focus"",""0"",""3020""
""fullscreenenter"",""0"",""3960""
","
","""event"",""trial"",""time""
""focus"",""0"",""3020""
","""event"",""trial"",""time""
""fullscreenenter"",""0"",""3960""
","
",7275.85000000181,<img style='border: 4px solid darkgrey;' src='img/tf1_44_M_ss1.jpeg'></img>,0,NA,exp,NA,1,<img src='img/tf1_44_T1_ss1_md.jpeg'></img>,0,FALSE,NA,sub41
NA,html-keyboard-response,105,254745,0.0-10.0-0.44,"""event"",""trial"",""time""
""focus"",""0"",""3020""
""fullscreenenter"",""0"",""3960""
","
","""event"",""trial"",""time""
""focus"",""0"",""3020""
","""event"",""trial"",""time""
""fullscreenenter"",""0"",""3960""
","
",null,"<div style=""font-size:60px;"">+</div>",NA,null,fixation,2020-06-18T20:36:11Z,NA,NA,NA,NA,NA,sub41
NA,mars-trial,106,257794,0.0-10.0-1.44,"""event"",""trial"",""time""
""focus"",""0"",""3020""
""fullscreenenter"",""0"",""3960""
","
","""event"",""trial"",""time""
""focus"",""0"",""3020""
","""event"",""trial"",""time""
""fullscreenenter"",""0"",""3960""
","
",2434.3100000005797,<img style='border: 4px solid darkgrey;' src='img/tf1_45_M_ss2.jpeg'></img>,1,NA,exp,NA,0,<img src='img/tf1_45_T1_ss2_md.jpeg'></img>,0,TRUE,NA,sub41
NA,html-keyboard-response,107,258298,0.0-10.0-0.45,"""event"",""trial"",""time""
""focus"",""0"",""3020""
""fullscreenenter"",""0"",""3960""
","
","""event"",""trial"",""time""
""focus"",""0"",""3020""
","""event"",""trial"",""time""
""fullscreenenter"",""0"",""3960""
","
",null,"<div style=""font-size:60px;"">+</div>",NA,null,fixation,2020-06-18T20:36:15Z,NA,NA,NA,NA,NA,sub41
NA,mars-trial,108,259855,0.0-10.0-1.45,"""event"",""trial"",""time""
""focus"",""0"",""3020""
""fullscreenenter"",""0"",""3960""
","
","""event"",""trial"",""time""
""focus"",""0"",""3020""
","""event"",""trial"",""time""
""fullscreenenter"",""0"",""3960""
","
",951.0100000007078,<img style='border: 4px solid darkgrey;' src='img/tf1_46_M_ss3.jpeg'></img>,1,NA,exp,NA,0,<img src='img/tf1_46_T1_ss3_md.jpeg'></img>,0,TRUE,NA,sub41
NA,html-keyboard-response,109,260362,0.0-10.0-0.46,"""event"",""trial"",""time""
""focus"",""0"",""3020""
""fullscreenenter"",""0"",""3960""
","
","""event"",""trial"",""time""
""focus"",""0"",""3020""
","""event"",""trial"",""time""
""fullscreenenter"",""0"",""3960""
","
",null,"<div style=""font-size:60px;"">+</div>",NA,null,fixation,2020-06-18T20:36:17Z,NA,NA,NA,NA,NA,sub41
NA,mars-trial,110,261225,0.0-10.0-1.46,"""event"",""trial"",""time""
""focus"",""0"",""3020""
""fullscreenenter"",""0"",""3960""
","
","""event"",""trial"",""time""
""focus"",""0"",""3020""
","""event"",""trial"",""time""
""fullscreenenter"",""0"",""3960""
","
",256.3250000021653,<img style='border: 4px solid darkgrey;' src='img/tf1_47_M_ss1.jpeg'></img>,1,NA,exp,NA,0,<img src='img/tf1_47_T1_ss1_md.jpeg'></img>,0,TRUE,NA,sub41
NA,html-keyboard-response,111,261729,0.0-10.0-0.47,"""event"",""trial"",""time""
""focus"",""0"",""3020""
""fullscreenenter"",""0"",""3960""
","
","""event"",""trial"",""time""
""focus"",""0"",""3020""
","""event"",""trial"",""time""
""fullscreenenter"",""0"",""3960""
","
",null,"<div style=""font-size:60px;"">+</div>",NA,null,fixation,2020-06-18T20:36:18Z,NA,NA,NA,NA,NA,sub41
NA,mars-trial,112,262676,0.0-10.0-1.47,"""event"",""trial"",""time""
""focus"",""0"",""3020""
""fullscreenenter"",""0"",""3960""
","
","""event"",""trial"",""time""
""focus"",""0"",""3020""
","""event"",""trial"",""time""
""fullscreenenter"",""0"",""3960""
","
",335.85499999753665,<img style='border: 4px solid darkgrey;' src='img/tf1_48_M_ss2.jpeg'></img>,1,NA,exp,NA,0,<img src='img/tf1_48_T1_ss2_md.jpeg'></img>,0,TRUE,NA,sub41
NA,html-keyboard-response,113,263180,0.0-10.0-0.48,"""event"",""trial"",""time""
""focus"",""0"",""3020""
""fullscreenenter"",""0"",""3960""
","
","""event"",""trial"",""time""
""focus"",""0"",""3020""
","""event"",""trial"",""time""
""fullscreenenter"",""0"",""3960""
","
",null,"<div style=""font-size:60px;"">+</div>",NA,null,fixation,2020-06-18T20:36:20Z,NA,NA,NA,NA,NA,sub41
NA,mars-trial,114,264287,0.0-10.0-1.48,"""event"",""trial"",""time""
""focus"",""0"",""3020""
""fullscreenenter"",""0"",""3960""
","
","""event"",""trial"",""time""
""focus"",""0"",""3020""
","""event"",""trial"",""time""
""fullscreenenter"",""0"",""3960""
","
",494.4599999981001,<img style='border: 4px solid darkgrey;' src='img/tf1_49_M_ss3.jpeg'></img>,1,NA,exp,NA,0,<img src='img/tf1_49_T1_ss3_md.jpeg'></img>,0,TRUE,NA,sub41
NA,html-keyboard-response,115,264788,0.0-10.0-0.49,"""event"",""trial"",""time""
""focus"",""0"",""3020""
""fullscreenenter"",""0"",""3960""
","
","""event"",""trial"",""time""
""focus"",""0"",""3020""
","""event"",""trial"",""time""
""fullscreenenter"",""0"",""3960""
","
",null,"<div style=""font-size:60px;"">+</div>",NA,null,fixation,2020-06-18T20:36:21Z,NA,NA,NA,NA,NA,sub41
NA,mars-trial,116,265618,0.0-10.0-1.49,"""event"",""trial"",""time""
""focus"",""0"",""3020""
""fullscreenenter"",""0"",""3960""
","
","""event"",""trial"",""time""
""focus"",""0"",""3020""
","""event"",""trial"",""time""
""fullscreenenter"",""0"",""3960""
","
",223.30499999946915,<img style='border: 4px solid darkgrey;' src='img/tf1_50_M_ss1.jpeg'></img>,1,NA,exp,NA,3,<img src='img/tf1_50_T1_ss1_md.jpeg'></img>,0,FALSE,NA,sub41
NA,html-keyboard-response,117,266120,0.0-10.0-0.50,"""event"",""trial"",""time""
""focus"",""0"",""3020""
""fullscreenenter"",""0"",""3960""
","
","""event"",""trial"",""time""
""focus"",""0"",""3020""
","""event"",""trial"",""time""
""fullscreenenter"",""0"",""3960""
","
",null,"<div style=""font-size:60px;"">+</div>",NA,null,fixation,2020-06-18T20:36:23Z,NA,NA,NA,NA,NA,sub41
NA,mars-trial,118,267284,0.0-10.0-1.50,"""event"",""trial"",""time""
""focus"",""0"",""3020""
""fullscreenenter"",""0"",""3960""
","
","""event"",""trial"",""time""
""focus"",""0"",""3020""
","""event"",""trial"",""time""
""fullscreenenter"",""0"",""3960""
","
",556.8999999996158,<img style='border: 4px solid darkgrey;' src='img/tf1_51_M_ss2.jpeg'></img>,2,NA,exp,NA,0,<img src='img/tf1_51_T1_ss2_md.jpeg'></img>,0,TRUE,NA,sub41
NA,html-keyboard-response,119,267785,0.0-10.0-0.51,"""event"",""trial"",""time""
""focus"",""0"",""3020""
""fullscreenenter"",""0"",""3960""
","
","""event"",""trial"",""time""
""focus"",""0"",""3020""
","""event"",""trial"",""time""
""fullscreenenter"",""0"",""3960""
","
",null,"<div style=""font-size:60px;"">+</div>",NA,null,fixation,2020-06-18T20:36:24Z,NA,NA,NA,NA,NA,sub41
NA,mars-trial,120,268981,0.0-10.0-1.51,"""event"",""trial"",""time""
""focus"",""0"",""3020""
""fullscreenenter"",""0"",""3960""
","
","""event"",""trial"",""time""
""focus"",""0"",""3020""
","""event"",""trial"",""time""
""fullscreenenter"",""0"",""3960""
","
",590.234999999695,<img style='border: 4px solid darkgrey;' src='img/tf1_52_M_ss3.jpeg'></img>,1,NA,exp,NA,0,<img src='img/tf1_52_T1_ss3_md.jpeg'></img>,0,TRUE,NA,sub41
NA,html-keyboard-response,121,269486,0.0-10.0-0.52,"""event"",""trial"",""time""
""focus"",""0"",""3020""
""fullscreenenter"",""0"",""3960""
","
","""event"",""trial"",""time""
""focus"",""0"",""3020""
","""event"",""trial"",""time""
""fullscreenenter"",""0"",""3960""
","
",null,"<div style=""font-size:60px;"">+</div>",NA,null,fixation,2020-06-18T20:36:26Z,NA,NA,NA,NA,NA,sub41
NA,mars-trial,122,270691,0.0-10.0-1.52,"""event"",""trial"",""time""
""focus"",""0"",""3020""
""fullscreenenter"",""0"",""3960""
","
","""event"",""trial"",""time""
""focus"",""0"",""3020""
","""event"",""trial"",""time""
""fullscreenenter"",""0"",""3960""
","
",593.5800000006566,<img style='border: 4px solid darkgrey;' src='img/tf1_53_M_ss1.jpeg'></img>,2,NA,exp,NA,2,<img src='img/tf1_53_T1_ss1_md.jpeg'></img>,0,FALSE,NA,sub41
NA,html-keyboard-response,123,271197,0.0-10.0-0.53,"""event"",""trial"",""time""
""focus"",""0"",""3020""
""fullscreenenter"",""0"",""3960""
","
","""event"",""trial"",""time""
""focus"",""0"",""3020""
","""event"",""trial"",""time""
""fullscreenenter"",""0"",""3960""
","
",null,"<div style=""font-size:60px;"">+</div>",NA,null,fixation,2020-06-18T20:36:28Z,NA,NA,NA,NA,NA,sub41
NA,mars-trial,124,272837,0.0-10.0-1.53,"""event"",""trial"",""time""
""focus"",""0"",""3020""
""fullscreenenter"",""0"",""3960""
","
","""event"",""trial"",""time""
""focus"",""0"",""3020""
","""event"",""trial"",""time""
""fullscreenenter"",""0"",""3960""
","
",1031.1350000011153,<img style='border: 4px solid darkgrey;' src='img/tf1_54_M_ss2.jpeg'></img>,3,NA,exp,NA,3,<img src='img/tf1_54_T1_ss2_md.jpeg'></img>,0,FALSE,NA,sub41
NA,html-keyboard-response,125,273339,0.0-10.0-0.54,"""event"",""trial"",""time""
""focus"",""0"",""3020""
""fullscreenenter"",""0"",""3960""
","
","""event"",""trial"",""time""
""focus"",""0"",""3020""
","""event"",""trial"",""time""
""fullscreenenter"",""0"",""3960""
","
",null,"<div style=""font-size:60px;"">+</div>",NA,null,fixation,2020-06-18T20:36:30Z,NA,NA,NA,NA,NA,sub41
NA,mars-trial,126,274375,0.0-10.0-1.54,"""event"",""trial"",""time""
""focus"",""0"",""3020""
""fullscreenenter"",""0"",""3960""
","
","""event"",""trial"",""time""
""focus"",""0"",""3020""
","""event"",""trial"",""time""
""fullscreenenter"",""0"",""3960""
","
",429.96000000135973,<img style='border: 4px solid darkgrey;' src='img/tf1_55_M_ss3.jpeg'></img>,0,NA,exp,NA,2,<img src='img/tf1_55_T1_ss3_md.jpeg'></img>,0,FALSE,NA,sub41
NA,html-keyboard-response,127,274878,0.0-10.0-0.55,"""event"",""trial"",""time""
""focus"",""0"",""3020""
""fullscreenenter"",""0"",""3960""
","
","""event"",""trial"",""time""
""focus"",""0"",""3020""
","""event"",""trial"",""time""
""fullscreenenter"",""0"",""3960""
","
",null,"<div style=""font-size:60px;"">+</div>",NA,null,fixation,2020-06-18T20:36:31Z,NA,NA,NA,NA,NA,sub41
NA,mars-trial,128,276277,0.0-10.0-1.55,"""event"",""trial"",""time""
""focus"",""0"",""3020""
""fullscreenenter"",""0"",""3960""
","
","""event"",""trial"",""time""
""focus"",""0"",""3020""
","""event"",""trial"",""time""
""fullscreenenter"",""0"",""3960""
","
",793.1400000015856,<img style='border: 4px solid darkgrey;' src='img/tf1_56_M_ss1.jpeg'></img>,2,NA,exp,NA,1,<img src='img/tf1_56_T1_ss1_md.jpeg'></img>,0,FALSE,NA,sub41
NA,html-keyboard-response,129,276781,0.0-10.0-0.56,"""event"",""trial"",""time""
""focus"",""0"",""3020""
""fullscreenenter"",""0"",""3960""
","
","""event"",""trial"",""time""
""focus"",""0"",""3020""
","""event"",""trial"",""time""
""fullscreenenter"",""0"",""3960""
","
",null,"<div style=""font-size:60px;"">+</div>",NA,null,fixation,2020-06-18T20:36:33Z,NA,NA,NA,NA,NA,sub41
NA,mars-trial,130,277630,0.0-10.0-1.56,"""event"",""trial"",""time""
""focus"",""0"",""3020""
""fullscreenenter"",""0"",""3960""
","
","""event"",""trial"",""time""
""focus"",""0"",""3020""
","""event"",""trial"",""time""
""fullscreenenter"",""0"",""3960""
","
",239.34000000008382,<img style='border: 4px solid darkgrey;' src='img/tf1_57_M_ss2.jpeg'></img>,1,NA,exp,NA,0,<img src='img/tf1_57_T1_ss2_md.jpeg'></img>,0,TRUE,NA,sub41
NA,html-keyboard-response,131,278136,0.0-10.0-0.57,"""event"",""trial"",""time""
""focus"",""0"",""3020""
""fullscreenenter"",""0"",""3960""
","
","""event"",""trial"",""time""
""focus"",""0"",""3020""
","""event"",""trial"",""time""
""fullscreenenter"",""0"",""3960""
","
",null,"<div style=""font-size:60px;"">+</div>",NA,null,fixation,2020-06-18T20:36:35Z,NA,NA,NA,NA,NA,sub41
NA,mars-trial,132,279065,0.0-10.0-1.57,"""event"",""trial"",""time""
""focus"",""0"",""3020""
""fullscreenenter"",""0"",""3960""
","
","""event"",""trial"",""time""
""focus"",""0"",""3020""
","""event"",""trial"",""time""
""fullscreenenter"",""0"",""3960""
","
",319.3649999993504,<img style='border: 4px solid darkgrey;' src='img/tf1_58_M_ss3.jpeg'></img>,1,NA,exp,NA,2,<img src='img/tf1_58_T1_ss3_md.jpeg'></img>,0,FALSE,NA,sub41
NA,html-keyboard-response,133,279567,0.0-10.0-0.58,"""event"",""trial"",""time""
""focus"",""0"",""3020""
""fullscreenenter"",""0"",""3960""
","
","""event"",""trial"",""time""
""focus"",""0"",""3020""
","""event"",""trial"",""time""
""fullscreenenter"",""0"",""3960""
","
",null,"<div style=""font-size:60px;"">+</div>",NA,null,fixation,2020-06-18T20:36:36Z,NA,NA,NA,NA,NA,sub41
NA,mars-trial,134,280532,0.0-10.0-1.58,"""event"",""trial"",""time""
""focus"",""0"",""3020""
""fullscreenenter"",""0"",""3960""
","
","""event"",""trial"",""time""
""focus"",""0"",""3020""
","""event"",""trial"",""time""
""fullscreenenter"",""0"",""3960""
","
",355.7699999982724,<img style='border: 4px solid darkgrey;' src='img/tf1_59_M_ss1.jpeg'></img>,2,NA,exp,NA,0,<img src='img/tf1_59_T1_ss1_md.jpeg'></img>,0,TRUE,NA,sub41
NA,html-keyboard-response,135,281036,0.0-10.0-0.59,"""event"",""trial"",""time""
""focus"",""0"",""3020""
""fullscreenenter"",""0"",""3960""
","
","""event"",""trial"",""time""
""focus"",""0"",""3020""
","""event"",""trial"",""time""
""fullscreenenter"",""0"",""3960""
","
",null,"<div style=""font-size:60px;"">+</div>",NA,null,fixation,2020-06-18T20:36:37Z,NA,NA,NA,NA,NA,sub41
NA,mars-trial,136,282268,0.0-10.0-1.59,"""event"",""trial"",""time""
""focus"",""0"",""3020""
""fullscreenenter"",""0"",""3960""
","
","""event"",""trial"",""time""
""focus"",""0"",""3020""
","""event"",""trial"",""time""
""fullscreenenter"",""0"",""3960""
","
",622.4250000013853,<img style='border: 4px solid darkgrey;' src='img/tf1_60_M_ss2.jpeg'></img>,1,NA,exp,NA,0,<img src='img/tf1_60_T1_ss2_md.jpeg'></img>,0,TRUE,NA,sub41
NA,html-keyboard-response,137,282770,0.0-10.0-0.60,"""event"",""trial"",""time""
""focus"",""0"",""3020""
""fullscreenenter"",""0"",""3960""
","
","""event"",""trial"",""time""
""focus"",""0"",""3020""
","""event"",""trial"",""time""
""fullscreenenter"",""0"",""3960""
","
",null,"<div style=""font-size:60px;"">+</div>",NA,null,fixation,2020-06-18T20:36:39Z,NA,NA,NA,NA,NA,sub41
NA,mars-trial,138,283862,0.0-10.0-1.60,"""event"",""trial"",""time""
""focus"",""0"",""3020""
""fullscreenenter"",""0"",""3960""
","
","""event"",""trial"",""time""
""focus"",""0"",""3020""
","""event"",""trial"",""time""
""fullscreenenter"",""0"",""3960""
","
",486.1799999998766,<img style='border: 4px solid darkgrey;' src='img/tf1_61_M_ss3.jpeg'></img>,1,NA,exp,NA,2,<img src='img/tf1_61_T1_ss3_md.jpeg'></img>,0,FALSE,NA,sub41
NA,html-keyboard-response,139,284363,0.0-10.0-0.61,"""event"",""trial"",""time""
""focus"",""0"",""3020""
""fullscreenenter"",""0"",""3960""
","
","""event"",""trial"",""time""
""focus"",""0"",""3020""
","""event"",""trial"",""time""
""fullscreenenter"",""0"",""3960""
","
",null,"<div style=""font-size:60px;"">+</div>",NA,null,fixation,2020-06-18T20:36:41Z,NA,NA,NA,NA,NA,sub41
NA,mars-trial,140,286288,0.0-10.0-1.61,"""event"",""trial"",""time""
""focus"",""0"",""3020""
""fullscreenenter"",""0"",""3960""
","
","""event"",""trial"",""time""
""focus"",""0"",""3020""
","""event"",""trial"",""time""
""fullscreenenter"",""0"",""3960""
","
",1314.4399999983143,<img style='border: 4px solid darkgrey;' src='img/tf1_62_M_ss1.jpeg'></img>,2,NA,exp,NA,1,<img src='img/tf1_62_T1_ss1_md.jpeg'></img>,0,FALSE,NA,sub41
NA,html-keyboard-response,141,286792,0.0-10.0-0.62,"""event"",""trial"",""time""
""focus"",""0"",""3020""
""fullscreenenter"",""0"",""3960""
","
","""event"",""trial"",""time""
""focus"",""0"",""3020""
","""event"",""trial"",""time""
""fullscreenenter"",""0"",""3960""
","
",null,"<div style=""font-size:60px;"">+</div>",NA,null,fixation,2020-06-18T20:36:43Z,NA,NA,NA,NA,NA,sub41
NA,mars-trial,142,287754,0.0-10.0-1.62,"""event"",""trial"",""time""
""focus"",""0"",""3020""
""fullscreenenter"",""0"",""3960""
","
","""event"",""trial"",""time""
""focus"",""0"",""3020""
","""event"",""trial"",""time""
""fullscreenenter"",""0"",""3960""
","
",356.1249999984284,<img style='border: 4px solid darkgrey;' src='img/tf1_63_M_ss2.jpeg'></img>,1,NA,exp,NA,3,<img src='img/tf1_63_T1_ss2_md.jpeg'></img>,0,FALSE,NA,sub41
NA,html-keyboard-response,143,288258,0.0-10.0-0.63,"""event"",""trial"",""time""
""focus"",""0"",""3020""
""fullscreenenter"",""0"",""3960""
","
","""event"",""trial"",""time""
""focus"",""0"",""3020""
","""event"",""trial"",""time""
""fullscreenenter"",""0"",""3960""
","
",null,"<div style=""font-size:60px;"">+</div>",NA,null,fixation,2020-06-18T20:36:45Z,NA,NA,NA,NA,NA,sub41
NA,mars-trial,144,289204,0.0-10.0-1.63,"""event"",""trial"",""time""
""focus"",""0"",""3020""
""fullscreenenter"",""0"",""3960""
","
","""event"",""trial"",""time""
""focus"",""0"",""3020""
","""event"",""trial"",""time""
""fullscreenenter"",""0"",""3960""
","
",335.37499999877764,<img style='border: 4px solid darkgrey;' src='img/tf1_64_M_ss3.jpeg'></img>,2,NA,exp,NA,2,<img src='img/tf1_64_T1_ss3_md.jpeg'></img>,0,FALSE,NA,sub41
NA,html-keyboard-response,145,289706,0.0-10.0-0.64,"""event"",""trial"",""time""
""focus"",""0"",""3020""
""fullscreenenter"",""0"",""3960""
","
","""event"",""trial"",""time""
""focus"",""0"",""3020""
","""event"",""trial"",""time""
""fullscreenenter"",""0"",""3960""
","
",null,"<div style=""font-size:60px;"">+</div>",NA,null,fixation,2020-06-18T20:36:46Z,NA,NA,NA,NA,NA,sub41
NA,mars-trial,146,291261,0.0-10.0-1.64,"""event"",""trial"",""time""
""focus"",""0"",""3020""
""fullscreenenter"",""0"",""3960""
","
","""event"",""trial"",""time""
""focus"",""0"",""3020""
","""event"",""trial"",""time""
""fullscreenenter"",""0"",""3960""
","
",949.9749999995693,<img style='border: 4px solid darkgrey;' src='img/tf1_65_M_ss1.jpeg'></img>,3,NA,exp,NA,1,<img src='img/tf1_65_T1_ss1_md.jpeg'></img>,0,FALSE,NA,sub41
NA,html-keyboard-response,147,291764,0.0-10.0-0.65,"""event"",""trial"",""time""
""focus"",""0"",""3020""
""fullscreenenter"",""0"",""3960""
","
","""event"",""trial"",""time""
""focus"",""0"",""3020""
","""event"",""trial"",""time""
""fullscreenenter"",""0"",""3960""
","
",null,"<div style=""font-size:60px;"">+</div>",NA,null,fixation,2020-06-18T20:36:48Z,NA,NA,NA,NA,NA,sub41
NA,mars-trial,148,292788,0.0-10.0-1.65,"""event"",""trial"",""time""
""focus"",""0"",""3020""
""fullscreenenter"",""0"",""3960""
","
","""event"",""trial"",""time""
""focus"",""0"",""3020""
","""event"",""trial"",""time""
""fullscreenenter"",""0"",""3960""
","
",416.69499999983236,<img style='border: 4px solid darkgrey;' src='img/tf1_66_M_ss2.jpeg'></img>,0,NA,exp,NA,0,<img src='img/tf1_66_T1_ss2_md.jpeg'></img>,0,TRUE,NA,sub41
NA,html-keyboard-response,149,293290,0.0-10.0-0.66,"""event"",""trial"",""time""
""focus"",""0"",""3020""
""fullscreenenter"",""0"",""3960""
","
","""event"",""trial"",""time""
""focus"",""0"",""3020""
","""event"",""trial"",""time""
""fullscreenenter"",""0"",""3960""
","
",null,"<div style=""font-size:60px;"">+</div>",NA,null,fixation,2020-06-18T20:36:50Z,NA,NA,NA,NA,NA,sub41
NA,mars-trial,150,294301,0.0-10.0-1.66,"""event"",""trial"",""time""
""focus"",""0"",""3020""
""fullscreenenter"",""0"",""3960""
","
","""event"",""trial"",""time""
""focus"",""0"",""3020""
","""event"",""trial"",""time""
""fullscreenenter"",""0"",""3960""
","
",405.56999999901745,<img style='border: 4px solid darkgrey;' src='img/tf1_67_M_ss3.jpeg'></img>,0,NA,exp,NA,0,<img src='img/tf1_67_T1_ss3_md.jpeg'></img>,0,TRUE,NA,sub41
NA,html-keyboard-response,151,294803,0.0-10.0-0.67,"""event"",""trial"",""time""
""focus"",""0"",""3020""
""fullscreenenter"",""0"",""3960""
","
","""event"",""trial"",""time""
""focus"",""0"",""3020""
","""event"",""trial"",""time""
""fullscreenenter"",""0"",""3960""
","
",null,"<div style=""font-size:60px;"">+</div>",NA,null,fixation,2020-06-18T20:36:51Z,NA,NA,NA,NA,NA,sub41
NA,mars-trial,152,295854,0.0-10.0-1.67,"""event"",""trial"",""time""
""focus"",""0"",""3020""
""fullscreenenter"",""0"",""3960""
","
","""event"",""trial"",""time""
""focus"",""0"",""3020""
","""event"",""trial"",""time""
""fullscreenenter"",""0"",""3960""
","
",445.4650000006659,<img style='border: 4px solid darkgrey;' src='img/tf1_68_M_ss1.jpeg'></img>,0,NA,exp,NA,3,<img src='img/tf1_68_T1_ss1_md.jpeg'></img>,0,FALSE,NA,sub41
NA,html-keyboard-response,153,296355,0.0-10.0-0.68,"""event"",""trial"",""time""
""focus"",""0"",""3020""
""fullscreenenter"",""0"",""3960""
","
","""event"",""trial"",""time""
""focus"",""0"",""3020""
","""event"",""trial"",""time""
""fullscreenenter"",""0"",""3960""
","
",null,"<div style=""font-size:60px;"">+</div>",NA,null,fixation,2020-06-18T20:36:53Z,NA,NA,NA,NA,NA,sub41
NA,mars-trial,154,297464,0.0-10.0-1.68,"""event"",""trial"",""time""
""focus"",""0"",""3020""
""fullscreenenter"",""0"",""3960""
","
","""event"",""trial"",""time""
""focus"",""0"",""3020""
","""event"",""trial"",""time""
""fullscreenenter"",""0"",""3960""
","
",503.49500000081025,<img style='border: 4px solid darkgrey;' src='img/tf1_69_M_ss2.jpeg'></img>,1,NA,exp,NA,0,<img src='img/tf1_69_T1_ss2_md.jpeg'></img>,0,TRUE,NA,sub41
NA,html-keyboard-response,155,297966,0.0-10.0-0.69,"""event"",""trial"",""time""
""focus"",""0"",""3020""
""fullscreenenter"",""0"",""3960""
","
","""event"",""trial"",""time""
""focus"",""0"",""3020""
","""event"",""trial"",""time""
""fullscreenenter"",""0"",""3960""
","
",null,"<div style=""font-size:60px;"">+</div>",NA,null,fixation,2020-06-18T20:36:54Z,NA,NA,NA,NA,NA,sub41
NA,mars-trial,156,298946,0.0-10.0-1.69,"""event"",""trial"",""time""
""focus"",""0"",""3020""
""fullscreenenter"",""0"",""3960""
","
","""event"",""trial"",""time""
""focus"",""0"",""3020""
","""event"",""trial"",""time""
""fullscreenenter"",""0"",""3960""
","
",365.9899999983609,<img style='border: 4px solid darkgrey;' src='img/tf1_70_M_ss3.jpeg'></img>,1,NA,exp,NA,2,<img src='img/tf1_70_T1_ss3_md.jpeg'></img>,0,FALSE,NA,sub41
NA,html-keyboard-response,157,299448,0.0-10.0-0.70,"""event"",""trial"",""time""
""focus"",""0"",""3020""
""fullscreenenter"",""0"",""3960""
","
","""event"",""trial"",""time""
""focus"",""0"",""3020""
","""event"",""trial"",""time""
""fullscreenenter"",""0"",""3960""
","
",null,"<div style=""font-size:60px;"">+</div>",NA,null,fixation,2020-06-18T20:36:56Z,NA,NA,NA,NA,NA,sub41
NA,mars-trial,158,300359,0.0-10.0-1.70,"""event"",""trial"",""time""
""focus"",""0"",""3020""
""fullscreenenter"",""0"",""3960""
","
","""event"",""trial"",""time""
""focus"",""0"",""3020""
","""event"",""trial"",""time""
""fullscreenenter"",""0"",""3960""
","
",305.5549999990035,<img style='border: 4px solid darkgrey;' src='img/tf1_71_M_ss1.jpeg'></img>,2,NA,exp,NA,0,<img src='img/tf1_71_T1_ss1_md.jpeg'></img>,0,TRUE,NA,sub41
NA,html-keyboard-response,159,300863,0.0-10.0-0.71,"""event"",""trial"",""time""
""focus"",""0"",""3020""
""fullscreenenter"",""0"",""3960""
","
","""event"",""trial"",""time""
""focus"",""0"",""3020""
","""event"",""trial"",""time""
""fullscreenenter"",""0"",""3960""
","
",null,"<div style=""font-size:60px;"">+</div>",NA,null,fixation,2020-06-18T20:36:57Z,NA,NA,NA,NA,NA,sub41
NA,mars-trial,160,302289,0.0-10.0-1.71,"""event"",""trial"",""time""
""focus"",""0"",""3020""
""fullscreenenter"",""0"",""3960""
","
","""event"",""trial"",""time""
""focus"",""0"",""3020""
","""event"",""trial"",""time""
""fullscreenenter"",""0"",""3960""
","
",818.084999998915,<img style='border: 4px solid darkgrey;' src='img/tf1_72_M_ss2.jpeg'></img>,2,NA,exp,NA,1,<img src='img/tf1_72_T1_ss2_md.jpeg'></img>,0,FALSE,NA,sub41
NA,html-keyboard-response,161,302790,0.0-10.0-0.72,"""event"",""trial"",""time""
""focus"",""0"",""3020""
""fullscreenenter"",""0"",""3960""
","
","""event"",""trial"",""time""
""focus"",""0"",""3020""
","""event"",""trial"",""time""
""fullscreenenter"",""0"",""3960""
","
",null,"<div style=""font-size:60px;"">+</div>",NA,null,fixation,2020-06-18T20:36:59Z,NA,NA,NA,NA,NA,sub41
NA,mars-trial,162,303791,0.0-10.0-1.72,"""event"",""trial"",""time""
""focus"",""0"",""3020""
""fullscreenenter"",""0"",""3960""
","
","""event"",""trial"",""time""
""focus"",""0"",""3020""
","""event"",""trial"",""time""
""fullscreenenter"",""0"",""3960""
","
",393.8350000025821,<img style='border: 4px solid darkgrey;' src='img/tf1_73_M_ss3.jpeg'></img>,0,NA,exp,NA,2,<img src='img/tf1_73_T1_ss3_md.jpeg'></img>,0,FALSE,NA,sub41
NA,html-keyboard-response,163,304293,0.0-10.0-0.73,"""event"",""trial"",""time""
""focus"",""0"",""3020""
""fullscreenenter"",""0"",""3960""
","
","""event"",""trial"",""time""
""focus"",""0"",""3020""
","""event"",""trial"",""time""
""fullscreenenter"",""0"",""3960""
","
",null,"<div style=""font-size:60px;"">+</div>",NA,null,fixation,2020-06-18T20:37:01Z,NA,NA,NA,NA,NA,sub41
NA,mars-trial,164,305265,0.0-10.0-1.73,"""event"",""trial"",""time""
""focus"",""0"",""3020""
""fullscreenenter"",""0"",""3960""
","
","""event"",""trial"",""time""
""focus"",""0"",""3020""
","""event"",""trial"",""time""
""fullscreenenter"",""0"",""3960""
","
",366.7649999988498,<img style='border: 4px solid darkgrey;' src='img/tf1_74_M_ss1.jpeg'></img>,3,NA,exp,NA,1,<img src='img/tf1_74_T1_ss1_md.jpeg'></img>,0,FALSE,NA,sub41
NA,html-keyboard-response,165,305766,0.0-10.0-0.74,"""event"",""trial"",""time""
""focus"",""0"",""3020""
""fullscreenenter"",""0"",""3960""
","
","""event"",""trial"",""time""
""focus"",""0"",""3020""
","""event"",""trial"",""time""
""fullscreenenter"",""0"",""3960""
","
",null,"<div style=""font-size:60px;"">+</div>",NA,null,fixation,2020-06-18T20:37:02Z,NA,NA,NA,NA,NA,sub41
NA,mars-trial,166,306749,0.0-10.0-1.74,"""event"",""trial"",""time""
""focus"",""0"",""3020""
""fullscreenenter"",""0"",""3960""
","
","""event"",""trial"",""time""
""focus"",""0"",""3020""
","""event"",""trial"",""time""
""fullscreenenter"",""0"",""3960""
","
",370.8699999988312,<img style='border: 4px solid darkgrey;' src='img/tf1_75_M_ss2.jpeg'></img>,1,NA,exp,NA,2,<img src='img/tf1_75_T1_ss2_md.jpeg'></img>,0,FALSE,NA,sub41
NA,html-keyboard-response,167,307253,0.0-10.0-0.75,"""event"",""trial"",""time""
""focus"",""0"",""3020""
""fullscreenenter"",""0"",""3960""
","
","""event"",""trial"",""time""
""focus"",""0"",""3020""
","""event"",""trial"",""time""
""fullscreenenter"",""0"",""3960""
","
",null,"<div style=""font-size:60px;"">+</div>",NA,null,fixation,2020-06-18T20:37:04Z,NA,NA,NA,NA,NA,sub41
NA,mars-trial,168,308224,0.0-10.0-1.75,"""event"",""trial"",""time""
""focus"",""0"",""3020""
""fullscreenenter"",""0"",""3960""
","
","""event"",""trial"",""time""
""focus"",""0"",""3020""
","""event"",""trial"",""time""
""fullscreenenter"",""0"",""3960""
","
",360.7899999988149,<img style='border: 4px solid darkgrey;' src='img/tf1_76_M_ss3.jpeg'></img>,2,NA,exp,NA,3,<img src='img/tf1_76_T1_ss3_md.jpeg'></img>,0,FALSE,NA,sub41
NA,html-keyboard-response,169,308726,0.0-10.0-0.76,"""event"",""trial"",""time""
""focus"",""0"",""3020""
""fullscreenenter"",""0"",""3960""
","
","""event"",""trial"",""time""
""focus"",""0"",""3020""
","""event"",""trial"",""time""
""fullscreenenter"",""0"",""3960""
","
",null,"<div style=""font-size:60px;"">+</div>",NA,null,fixation,2020-06-18T20:37:05Z,NA,NA,NA,NA,NA,sub41
NA,mars-trial,170,309738,0.0-10.0-1.76,"""event"",""trial"",""time""
""focus"",""0"",""3020""
""fullscreenenter"",""0"",""3960""
","
","""event"",""trial"",""time""
""focus"",""0"",""3020""
","""event"",""trial"",""time""
""fullscreenenter"",""0"",""3960""
","
",401.3650000015041,<img style='border: 4px solid darkgrey;' src='img/tf1_77_M_ss1.jpeg'></img>,0,NA,exp,NA,2,<img src='img/tf1_77_T1_ss1_md.jpeg'></img>,0,FALSE,NA,sub41
NA,html-keyboard-response,171,310243,0.0-10.0-0.77,"""event"",""trial"",""time""
""focus"",""0"",""3020""
""fullscreenenter"",""0"",""3960""
","
","""event"",""trial"",""time""
""focus"",""0"",""3020""
","""event"",""trial"",""time""
""fullscreenenter"",""0"",""3960""
","
",null,"<div style=""font-size:60px;"">+</div>",NA,null,fixation,2020-06-18T20:37:07Z,NA,NA,NA,NA,NA,sub41
NA,mars-trial,172,311021,0.0-10.0-1.77,"""event"",""trial"",""time""
""focus"",""0"",""3020""
""fullscreenenter"",""0"",""3960""
","
","""event"",""trial"",""time""
""focus"",""0"",""3020""
","""event"",""trial"",""time""
""fullscreenenter"",""0"",""3960""
","
",168.68000000249594,<img style='border: 4px solid darkgrey;' src='img/tf1_78_M_ss2.jpeg'></img>,2,NA,exp,NA,3,<img src='img/tf1_78_T1_ss2_md.jpeg'></img>,0,FALSE,NA,sub41
NA,html-keyboard-response,173,311525,0.0-10.0-0.78,"""event"",""trial"",""time""
""focus"",""0"",""3020""
""fullscreenenter"",""0"",""3960""
","
","""event"",""trial"",""time""
""focus"",""0"",""3020""
","""event"",""trial"",""time""
""fullscreenenter"",""0"",""3960""
","
",null,"<div style=""font-size:60px;"">+</div>",NA,null,fixation,2020-06-18T20:37:08Z,NA,NA,NA,NA,NA,sub41
NA,mars-trial,174,312349,0.0-10.0-1.78,"""event"",""trial"",""time""
""focus"",""0"",""3020""
""fullscreenenter"",""0"",""3960""
","
","""event"",""trial"",""time""
""focus"",""0"",""3020""
","""event"",""trial"",""time""
""fullscreenenter"",""0"",""3960""
","
",216.85000000073342,<img style='border: 4px solid darkgrey;' src='img/tf1_79_M_ss3.jpeg'></img>,2,NA,exp,NA,3,<img src='img/tf1_79_T1_ss3_md.jpeg'></img>,0,FALSE,NA,sub41
NA,html-keyboard-response,175,312851,0.0-10.0-0.79,"""event"",""trial"",""time""
""focus"",""0"",""3020""
""fullscreenenter"",""0"",""3960""
","
","""event"",""trial"",""time""
""focus"",""0"",""3020""
","""event"",""trial"",""time""
""fullscreenenter"",""0"",""3960""
","
",null,"<div style=""font-size:60px;"">+</div>",NA,null,fixation,2020-06-18T20:37:09Z,NA,NA,NA,NA,NA,sub41
NA,mars-trial,176,313614,0.0-10.0-1.79,"""event"",""trial"",""time""
""focus"",""0"",""3020""
""fullscreenenter"",""0"",""3960""
","
","""event"",""trial"",""time""
""focus"",""0"",""3020""
","""event"",""trial"",""time""
""fullscreenenter"",""0"",""3960""
","
",154.99999999883585,<img style='border: 4px solid darkgrey;' src='img/tf1_80_M_ss1.jpeg'></img>,2,NA,exp,NA,2,<img src='img/tf1_80_T1_ss1_md.jpeg'></img>,0,FALSE,NA,sub41
NA,audio-button-response,177,317183,0.0-11.0,"""event"",""trial"",""time""
""focus"",""0"",""3020""
""fullscreenenter"",""0"",""3960""
","
","""event"",""trial"",""time""
""focus"",""0"",""3020""
","""event"",""trial"",""time""
""fullscreenenter"",""0"",""3960""
","
",3565.53999999963,audio/mars_instructions_slide5.wav,0,NA,NA,NA,NA,NA,NA,NA,NA,sub41
