success,trial_type,trial_index,time_elapsed,internal_node_id,interactions,blur_events,focus_events,fullscreenenter_events,fullscreenexit_events,rt,stimulus,button_pressed,key_press,part,timestamp,unshuffled_button,correct_response,correct_button,correct,value,subject_id
TRUE,fullscreen,0,6516,0.0-0.0,"""event"",""trial"",""time""
""focus"",""0"",""0""
""fullscreenenter"",""0"",""5595""
","
","""event"",""trial"",""time""
""focus"",""0"",""0""
","""event"",""trial"",""time""
""fullscreenenter"",""0"",""5595""
","
",NA,NA,NA,NA,NA,NA,NA,NA,NA,NA,NA,sub2
NA,pavlovia,1,6518,0.0-1.0,"""event"",""trial"",""time""
""focus"",""0"",""0""
""fullscreenenter"",""0"",""5595""
","
","""event"",""trial"",""time""
""focus"",""0"",""0""
","""event"",""trial"",""time""
""fullscreenenter"",""0"",""5595""
","
",NA,NA,NA,NA,NA,NA,NA,NA,NA,NA,NA,sub2
NA,html-button-response,2,7657,0.0-2.0,"""event"",""trial"",""time""
""focus"",""0"",""0""
""fullscreenenter"",""0"",""5595""
","
","""event"",""trial"",""time""
""focus"",""0"",""0""
","""event"",""trial"",""time""
""fullscreenenter"",""0"",""5595""
","
",1136,<p>Welcome! Press START to begin.</p><br>,0,NA,NA,NA,NA,NA,NA,NA,NA,sub2
NA,audio-button-response,3,21038,0.0-3.0,"""event"",""trial"",""time""
""focus"",""0"",""0""
""fullscreenenter"",""0"",""5595""
","
","""event"",""trial"",""time""
""focus"",""0"",""0""
","""event"",""trial"",""time""
""fullscreenenter"",""0"",""5595""
","
",13373,audio/mars_instructions_slide2.wav,0,NA,NA,NA,NA,NA,NA,NA,NA,sub2
NA,audio-button-response,4,36720,0.0-4.0,"""event"",""trial"",""time""
""focus"",""0"",""0""
""fullscreenenter"",""0"",""5595""
","
","""event"",""trial"",""time""
""focus"",""0"",""0""
","""event"",""trial"",""time""
""fullscreenenter"",""0"",""5595""
","
",15679.000000000004,audio/mars_instructions_slide3.wav,0,NA,NA,NA,NA,NA,NA,NA,NA,sub2
NA,html-keyboard-response,5,37222,0.0-5.0-0.0,"""event"",""trial"",""time""
""focus"",""0"",""0""
""fullscreenenter"",""0"",""5595""
","
","""event"",""trial"",""time""
""focus"",""0"",""0""
","""event"",""trial"",""time""
""fullscreenenter"",""0"",""5595""
","
",null,"<div style=""font-size:60px;"">+</div>",NA,null,fixation,2020-06-09T20:25:53Z,NA,NA,NA,NA,NA,sub2
NA,mars-trial,6,42551,0.0-5.0-1.0,"""event"",""trial"",""time""
""focus"",""0"",""0""
""fullscreenenter"",""0"",""5595""
","
","""event"",""trial"",""time""
""focus"",""0"",""0""
","""event"",""trial"",""time""
""fullscreenenter"",""0"",""5595""
","
",3222,<img style='border: 4px solid darkgrey;' src='practice/pt1_M1.png'></img>,0,NA,practice,NA,2,<img src='practice/pt1_T1.png'></img>,0,FALSE,NA,sub2
NA,html-keyboard-response,7,43053,0.0-5.1-0.1,"""event"",""trial"",""time""
""focus"",""0"",""0""
""fullscreenenter"",""0"",""5595""
","
","""event"",""trial"",""time""
""focus"",""0"",""0""
","""event"",""trial"",""time""
""fullscreenenter"",""0"",""5595""
","
",null,"<div style=""font-size:60px;"">+</div>",NA,null,fixation,2020-06-09T20:25:59Z,NA,NA,NA,NA,NA,sub2
NA,mars-trial,8,48045,0.0-5.1-1.1,"""event"",""trial"",""time""
""focus"",""0"",""0""
""fullscreenenter"",""0"",""5595""
","
","""event"",""trial"",""time""
""focus"",""0"",""0""
","""event"",""trial"",""time""
""fullscreenenter"",""0"",""5595""
","
",2886.0000000000073,<img style='border: 4px solid darkgrey;' src='practice/pt1_M1.png'></img>,0,NA,practice,NA,0,<img src='practice/pt1_T1.png'></img>,0,TRUE,NA,sub2
NA,html-keyboard-response,9,48546,0.0-6.0-0.0,"""event"",""trial"",""time""
""focus"",""0"",""0""
""fullscreenenter"",""0"",""5595""
","
","""event"",""trial"",""time""
""focus"",""0"",""0""
","""event"",""trial"",""time""
""fullscreenenter"",""0"",""5595""
","
",null,"<div style=""font-size:60px;"">+</div>",NA,null,fixation,2020-06-09T20:26:04Z,NA,NA,NA,NA,NA,sub2
NA,mars-trial,10,52203,0.0-6.0-1.0,"""event"",""trial"",""time""
""focus"",""0"",""0""
""fullscreenenter"",""0"",""5595""
","
","""event"",""trial"",""time""
""focus"",""0"",""0""
","""event"",""trial"",""time""
""fullscreenenter"",""0"",""5595""
","
",1552.9999999999927,<img style='border: 4px solid darkgrey;' src='practice/pt2_M1.png'></img>,0,NA,practice,NA,0,<img src='practice/pt2_T1.png'></img>,0,TRUE,NA,sub2
NA,html-keyboard-response,11,52706,0.0-7.0-0.0,"""event"",""trial"",""time""
""focus"",""0"",""0""
""fullscreenenter"",""0"",""5595""
","
","""event"",""trial"",""time""
""focus"",""0"",""0""
","""event"",""trial"",""time""
""fullscreenenter"",""0"",""5595""
","
",null,"<div style=""font-size:60px;"">+</div>",NA,null,fixation,2020-06-09T20:26:08Z,NA,NA,NA,NA,NA,sub2
NA,mars-trial,12,56012,0.0-7.0-1.0,"""event"",""trial"",""time""
""focus"",""0"",""0""
""fullscreenenter"",""0"",""5595""
","
","""event"",""trial"",""time""
""focus"",""0"",""0""
","""event"",""trial"",""time""
""fullscreenenter"",""0"",""5595""
","
",1202,<img style='border: 4px solid darkgrey;' src='practice/pt3_M1.png'></img>,3,NA,practice,NA,0,<img src='practice/pt3_T1.png'></img>,0,TRUE,NA,sub2
NA,audio-button-response,13,59300,0.0-8.0,"""event"",""trial"",""time""
""focus"",""0"",""0""
""fullscreenenter"",""0"",""5595""
","
","""event"",""trial"",""time""
""focus"",""0"",""0""
","""event"",""trial"",""time""
""fullscreenenter"",""0"",""5595""
","
",3287,audio/mars_instructions_slide4.wav,0,NA,NA,NA,NA,NA,NA,NA,NA,sub2
NA,call-function,14,59300,0.0-9.0,"""event"",""trial"",""time""
""focus"",""0"",""0""
""fullscreenenter"",""0"",""5595""
","
","""event"",""trial"",""time""
""focus"",""0"",""0""
","""event"",""trial"",""time""
""fullscreenenter"",""0"",""5595""
","
",NA,NA,NA,NA,NA,NA,NA,NA,NA,NA,NA,sub2
NA,html-keyboard-response,15,59802,0.0-10.0-0.0,"""event"",""trial"",""time""
""focus"",""0"",""0""
""fullscreenenter"",""0"",""5595""
","
","""event"",""trial"",""time""
""focus"",""0"",""0""
","""event"",""trial"",""time""
""fullscreenenter"",""0"",""5595""
","
",null,"<div style=""font-size:60px;"">+</div>",NA,null,fixation,2020-06-09T20:26:15Z,NA,NA,NA,NA,NA,sub2
NA,mars-trial,16,61891,0.0-10.0-1.0,"""event"",""trial"",""time""
""focus"",""0"",""0""
""fullscreenenter"",""0"",""5595""
","
","""event"",""trial"",""time""
""focus"",""0"",""0""
","""event"",""trial"",""time""
""fullscreenenter"",""0"",""5595""
","
",1485,<img style='border: 4px solid darkgrey;' src='img/tf1_1_M_ss3.jpeg'></img>,1,NA,exp,NA,0,<img src='img/tf1_1_T1_ss3_md.jpeg'></img>,0,TRUE,NA,sub2
NA,html-keyboard-response,17,62393,0.0-10.0-0.1,"""event"",""trial"",""time""
""focus"",""0"",""0""
""fullscreenenter"",""0"",""5595""
","
","""event"",""trial"",""time""
""focus"",""0"",""0""
","""event"",""trial"",""time""
""fullscreenenter"",""0"",""5595""
","
",null,"<div style=""font-size:60px;"">+</div>",NA,null,fixation,2020-06-09T20:26:18Z,NA,NA,NA,NA,NA,sub2
NA,mars-trial,18,65278,0.0-10.0-1.1,"""event"",""trial"",""time""
""focus"",""0"",""0""
""fullscreenenter"",""0"",""5595""
","
","""event"",""trial"",""time""
""focus"",""0"",""0""
","""event"",""trial"",""time""
""fullscreenenter"",""0"",""5595""
","
",2279,<img style='border: 4px solid darkgrey;' src='img/tf1_2_M_ss1.jpeg'></img>,0,NA,exp,NA,0,<img src='img/tf1_2_T1_ss1_md.jpeg'></img>,0,TRUE,NA,sub2
NA,html-keyboard-response,19,65781,0.0-10.0-0.2,"""event"",""trial"",""time""
""focus"",""0"",""0""
""fullscreenenter"",""0"",""5595""
","
","""event"",""trial"",""time""
""focus"",""0"",""0""
","""event"",""trial"",""time""
""fullscreenenter"",""0"",""5595""
","
",null,"<div style=""font-size:60px;"">+</div>",NA,null,fixation,2020-06-09T20:26:21Z,NA,NA,NA,NA,NA,sub2
NA,mars-trial,20,68625,0.0-10.0-1.2,"""event"",""trial"",""time""
""focus"",""0"",""0""
""fullscreenenter"",""0"",""5595""
","
","""event"",""trial"",""time""
""focus"",""0"",""0""
","""event"",""trial"",""time""
""fullscreenenter"",""0"",""5595""
","
",2240,<img style='border: 4px solid darkgrey;' src='img/tf1_3_M_ss2.jpeg'></img>,0,NA,exp,NA,0,<img src='img/tf1_3_T1_ss2_md.jpeg'></img>,0,TRUE,NA,sub2
NA,html-keyboard-response,21,69127,0.0-10.0-0.3,"""event"",""trial"",""time""
""focus"",""0"",""0""
""fullscreenenter"",""0"",""5595""
","
","""event"",""trial"",""time""
""focus"",""0"",""0""
","""event"",""trial"",""time""
""fullscreenenter"",""0"",""5595""
","
",null,"<div style=""font-size:60px;"">+</div>",NA,null,fixation,2020-06-09T20:26:25Z,NA,NA,NA,NA,NA,sub2
NA,mars-trial,22,72461,0.0-10.0-1.3,"""event"",""trial"",""time""
""focus"",""0"",""0""
""fullscreenenter"",""0"",""5595""
","
","""event"",""trial"",""time""
""focus"",""0"",""0""
","""event"",""trial"",""time""
""fullscreenenter"",""0"",""5595""
","
",2729,<img style='border: 4px solid darkgrey;' src='img/tf1_4_M_ss3.jpeg'></img>,1,NA,exp,NA,0,<img src='img/tf1_4_T1_ss3_md.jpeg'></img>,0,TRUE,NA,sub2
NA,html-keyboard-response,23,72963,0.0-10.0-0.4,"""event"",""trial"",""time""
""focus"",""0"",""0""
""fullscreenenter"",""0"",""5595""
","
","""event"",""trial"",""time""
""focus"",""0"",""0""
","""event"",""trial"",""time""
""fullscreenenter"",""0"",""5595""
","
",null,"<div style=""font-size:60px;"">+</div>",NA,null,fixation,2020-06-09T20:26:29Z,NA,NA,NA,NA,NA,sub2
NA,mars-trial,24,75025,0.0-10.0-1.4,"""event"",""trial"",""time""
""focus"",""0"",""0""
""fullscreenenter"",""0"",""5595""
","
","""event"",""trial"",""time""
""focus"",""0"",""0""
","""event"",""trial"",""time""
""fullscreenenter"",""0"",""5595""
","
",1459,<img style='border: 4px solid darkgrey;' src='img/tf1_5_M_ss1.jpeg'></img>,1,NA,exp,NA,0,<img src='img/tf1_5_T1_ss1_md.jpeg'></img>,0,TRUE,NA,sub2
NA,html-keyboard-response,25,75528,0.0-10.0-0.5,"""event"",""trial"",""time""
""focus"",""0"",""0""
""fullscreenenter"",""0"",""5595""
","
","""event"",""trial"",""time""
""focus"",""0"",""0""
","""event"",""trial"",""time""
""fullscreenenter"",""0"",""5595""
","
",null,"<div style=""font-size:60px;"">+</div>",NA,null,fixation,2020-06-09T20:26:31Z,NA,NA,NA,NA,NA,sub2
NA,mars-trial,26,81309,0.0-10.0-1.5,"""event"",""trial"",""time""
""focus"",""0"",""0""
""fullscreenenter"",""0"",""5595""
","
","""event"",""trial"",""time""
""focus"",""0"",""0""
","""event"",""trial"",""time""
""fullscreenenter"",""0"",""5595""
","
",5177,<img style='border: 4px solid darkgrey;' src='img/tf1_6_M_ss2.jpeg'></img>,3,NA,exp,NA,2,<img src='img/tf1_6_T1_ss2_md.jpeg'></img>,0,FALSE,NA,sub2
NA,html-keyboard-response,27,81811,0.0-10.0-0.6,"""event"",""trial"",""time""
""focus"",""0"",""0""
""fullscreenenter"",""0"",""5595""
","
","""event"",""trial"",""time""
""focus"",""0"",""0""
","""event"",""trial"",""time""
""fullscreenenter"",""0"",""5595""
","
",null,"<div style=""font-size:60px;"">+</div>",NA,null,fixation,2020-06-09T20:26:37Z,NA,NA,NA,NA,NA,sub2
NA,mars-trial,28,85056,0.0-10.0-1.6,"""event"",""trial"",""time""
""focus"",""0"",""0""
""fullscreenenter"",""0"",""5595""
","
","""event"",""trial"",""time""
""focus"",""0"",""0""
","""event"",""trial"",""time""
""fullscreenenter"",""0"",""5595""
","
",2641,<img style='border: 4px solid darkgrey;' src='img/tf1_7_M_ss3.jpeg'></img>,2,NA,exp,NA,0,<img src='img/tf1_7_T1_ss3_md.jpeg'></img>,0,TRUE,NA,sub2
NA,html-keyboard-response,29,85558,0.0-10.0-0.7,"""event"",""trial"",""time""
""focus"",""0"",""0""
""fullscreenenter"",""0"",""5595""
","
","""event"",""trial"",""time""
""focus"",""0"",""0""
","""event"",""trial"",""time""
""fullscreenenter"",""0"",""5595""
","
",null,"<div style=""font-size:60px;"">+</div>",NA,null,fixation,2020-06-09T20:26:41Z,NA,NA,NA,NA,NA,sub2
NA,mars-trial,30,88590,0.0-10.0-1.7,"""event"",""trial"",""time""
""focus"",""0"",""0""
""fullscreenenter"",""0"",""5595""
","
","""event"",""trial"",""time""
""focus"",""0"",""0""
","""event"",""trial"",""time""
""fullscreenenter"",""0"",""5595""
","
",2428,<img style='border: 4px solid darkgrey;' src='img/tf1_8_M_ss1.jpeg'></img>,2,NA,exp,NA,0,<img src='img/tf1_8_T1_ss1_md.jpeg'></img>,0,TRUE,NA,sub2
NA,html-keyboard-response,31,89092,0.0-10.0-0.8,"""event"",""trial"",""time""
""focus"",""0"",""0""
""fullscreenenter"",""0"",""5595""
","
","""event"",""trial"",""time""
""focus"",""0"",""0""
","""event"",""trial"",""time""
""fullscreenenter"",""0"",""5595""
","
",null,"<div style=""font-size:60px;"">+</div>",NA,null,fixation,2020-06-09T20:26:45Z,NA,NA,NA,NA,NA,sub2
NA,mars-trial,32,92262,0.0-10.0-1.8,"""event"",""trial"",""time""
""focus"",""0"",""0""
""fullscreenenter"",""0"",""5595""
","
","""event"",""trial"",""time""
""focus"",""0"",""0""
","""event"",""trial"",""time""
""fullscreenenter"",""0"",""5595""
","
",2566,<img style='border: 4px solid darkgrey;' src='img/tf1_9_M_ss2.jpeg'></img>,1,NA,exp,NA,2,<img src='img/tf1_9_T1_ss2_md.jpeg'></img>,0,FALSE,NA,sub2
NA,html-keyboard-response,33,92764,0.0-10.0-0.9,"""event"",""trial"",""time""
""focus"",""0"",""0""
""fullscreenenter"",""0"",""5595""
","
","""event"",""trial"",""time""
""focus"",""0"",""0""
","""event"",""trial"",""time""
""fullscreenenter"",""0"",""5595""
","
",null,"<div style=""font-size:60px;"">+</div>",NA,null,fixation,2020-06-09T20:26:48Z,NA,NA,NA,NA,NA,sub2
NA,mars-trial,34,96132,0.0-10.0-1.9,"""event"",""trial"",""time""
""focus"",""0"",""0""
""fullscreenenter"",""0"",""5595""
","
","""event"",""trial"",""time""
""focus"",""0"",""0""
","""event"",""trial"",""time""
""fullscreenenter"",""0"",""5595""
","
",2765,<img style='border: 4px solid darkgrey;' src='img/tf1_10_M_ss3.jpeg'></img>,1,NA,exp,NA,0,<img src='img/tf1_10_T1_ss3_md.jpeg'></img>,0,TRUE,NA,sub2
NA,html-keyboard-response,35,96634,0.0-10.0-0.10,"""event"",""trial"",""time""
""focus"",""0"",""0""
""fullscreenenter"",""0"",""5595""
","
","""event"",""trial"",""time""
""focus"",""0"",""0""
","""event"",""trial"",""time""
""fullscreenenter"",""0"",""5595""
","
",null,"<div style=""font-size:60px;"">+</div>",NA,null,fixation,2020-06-09T20:26:52Z,NA,NA,NA,NA,NA,sub2
NA,mars-trial,36,100654,0.0-10.0-1.10,"""event"",""trial"",""time""
""focus"",""0"",""0""
""fullscreenenter"",""0"",""5595""
","
","""event"",""trial"",""time""
""focus"",""0"",""0""
","""event"",""trial"",""time""
""fullscreenenter"",""0"",""5595""
","
",3415,<img style='border: 4px solid darkgrey;' src='img/tf1_11_M_ss1.jpeg'></img>,0,NA,exp,NA,2,<img src='img/tf1_11_T1_ss1_md.jpeg'></img>,0,FALSE,NA,sub2
NA,html-keyboard-response,37,101156,0.0-10.0-0.11,"""event"",""trial"",""time""
""focus"",""0"",""0""
""fullscreenenter"",""0"",""5595""
","
","""event"",""trial"",""time""
""focus"",""0"",""0""
","""event"",""trial"",""time""
""fullscreenenter"",""0"",""5595""
","
",null,"<div style=""font-size:60px;"">+</div>",NA,null,fixation,2020-06-09T20:26:57Z,NA,NA,NA,NA,NA,sub2
NA,mars-trial,38,103772,0.0-10.0-1.11,"""event"",""trial"",""time""
""focus"",""0"",""0""
""fullscreenenter"",""0"",""5595""
","
","""event"",""trial"",""time""
""focus"",""0"",""0""
","""event"",""trial"",""time""
""fullscreenenter"",""0"",""5595""
","
",2013,<img style='border: 4px solid darkgrey;' src='img/tf1_12_M_ss2.jpeg'></img>,0,NA,exp,NA,1,<img src='img/tf1_12_T1_ss2_md.jpeg'></img>,0,FALSE,NA,sub2
NA,html-keyboard-response,39,104274,0.0-10.0-0.12,"""event"",""trial"",""time""
""focus"",""0"",""0""
""fullscreenenter"",""0"",""5595""
","
","""event"",""trial"",""time""
""focus"",""0"",""0""
","""event"",""trial"",""time""
""fullscreenenter"",""0"",""5595""
","
",null,"<div style=""font-size:60px;"">+</div>",NA,null,fixation,2020-06-09T20:27:00Z,NA,NA,NA,NA,NA,sub2
NA,mars-trial,40,107086,0.0-10.0-1.12,"""event"",""trial"",""time""
""focus"",""0"",""0""
""fullscreenenter"",""0"",""5595""
","
","""event"",""trial"",""time""
""focus"",""0"",""0""
","""event"",""trial"",""time""
""fullscreenenter"",""0"",""5595""
","
",2208.0000000000146,<img style='border: 4px solid darkgrey;' src='img/tf1_13_M_ss3.jpeg'></img>,1,NA,exp,NA,3,<img src='img/tf1_13_T1_ss3_md.jpeg'></img>,0,FALSE,NA,sub2
NA,html-keyboard-response,41,107588,0.0-10.0-0.13,"""event"",""trial"",""time""
""focus"",""0"",""0""
""fullscreenenter"",""0"",""5595""
","
","""event"",""trial"",""time""
""focus"",""0"",""0""
","""event"",""trial"",""time""
""fullscreenenter"",""0"",""5595""
","
",null,"<div style=""font-size:60px;"">+</div>",NA,null,fixation,2020-06-09T20:27:03Z,NA,NA,NA,NA,NA,sub2
NA,mars-trial,42,110808,0.0-10.0-1.13,"""event"",""trial"",""time""
""focus"",""0"",""0""
""fullscreenenter"",""0"",""5595""
","
","""event"",""trial"",""time""
""focus"",""0"",""0""
","""event"",""trial"",""time""
""fullscreenenter"",""0"",""5595""
","
",2614.9999999999854,<img style='border: 4px solid darkgrey;' src='img/tf1_14_M_ss1.jpeg'></img>,1,NA,exp,NA,0,<img src='img/tf1_14_T1_ss1_md.jpeg'></img>,0,TRUE,NA,sub2
NA,html-keyboard-response,43,111309,0.0-10.0-0.14,"""event"",""trial"",""time""
""focus"",""0"",""0""
""fullscreenenter"",""0"",""5595""
","
","""event"",""trial"",""time""
""focus"",""0"",""0""
","""event"",""trial"",""time""
""fullscreenenter"",""0"",""5595""
","
",null,"<div style=""font-size:60px;"">+</div>",NA,null,fixation,2020-06-09T20:27:07Z,NA,NA,NA,NA,NA,sub2
NA,mars-trial,44,115037,0.0-10.0-1.14,"""event"",""trial"",""time""
""focus"",""0"",""0""
""fullscreenenter"",""0"",""5595""
","
","""event"",""trial"",""time""
""focus"",""0"",""0""
","""event"",""trial"",""time""
""fullscreenenter"",""0"",""5595""
","
",3125,<img style='border: 4px solid darkgrey;' src='img/tf1_15_M_ss2.jpeg'></img>,0,NA,exp,NA,2,<img src='img/tf1_15_T1_ss2_md.jpeg'></img>,0,FALSE,NA,sub2
NA,html-keyboard-response,45,115538,0.0-10.0-0.15,"""event"",""trial"",""time""
""focus"",""0"",""0""
""fullscreenenter"",""0"",""5595""
","
","""event"",""trial"",""time""
""focus"",""0"",""0""
","""event"",""trial"",""time""
""fullscreenenter"",""0"",""5595""
","
",null,"<div style=""font-size:60px;"">+</div>",NA,null,fixation,2020-06-09T20:27:11Z,NA,NA,NA,NA,NA,sub2
NA,mars-trial,46,119061,0.0-10.0-1.15,"""event"",""trial"",""time""
""focus"",""0"",""0""
""fullscreenenter"",""0"",""5595""
","
","""event"",""trial"",""time""
""focus"",""0"",""0""
","""event"",""trial"",""time""
""fullscreenenter"",""0"",""5595""
","
",2920.0000000000146,<img style='border: 4px solid darkgrey;' src='img/tf1_16_M_ss3.jpeg'></img>,2,NA,exp,NA,3,<img src='img/tf1_16_T1_ss3_md.jpeg'></img>,0,FALSE,NA,sub2
NA,html-keyboard-response,47,119563,0.0-10.0-0.16,"""event"",""trial"",""time""
""focus"",""0"",""0""
""fullscreenenter"",""0"",""5595""
","
","""event"",""trial"",""time""
""focus"",""0"",""0""
","""event"",""trial"",""time""
""fullscreenenter"",""0"",""5595""
","
",null,"<div style=""font-size:60px;"">+</div>",NA,null,fixation,2020-06-09T20:27:15Z,NA,NA,NA,NA,NA,sub2
NA,mars-trial,48,123756,0.0-10.0-1.16,"""event"",""trial"",""time""
""focus"",""0"",""0""
""fullscreenenter"",""0"",""5595""
","
","""event"",""trial"",""time""
""focus"",""0"",""0""
","""event"",""trial"",""time""
""fullscreenenter"",""0"",""5595""
","
",3590.0000000000146,<img style='border: 4px solid darkgrey;' src='img/tf1_17_M_ss1.jpeg'></img>,3,NA,exp,NA,2,<img src='img/tf1_17_T1_ss1_md.jpeg'></img>,0,FALSE,NA,sub2
NA,html-keyboard-response,49,124258,0.0-10.0-0.17,"""event"",""trial"",""time""
""focus"",""0"",""0""
""fullscreenenter"",""0"",""5595""
","
","""event"",""trial"",""time""
""focus"",""0"",""0""
","""event"",""trial"",""time""
""fullscreenenter"",""0"",""5595""
","
",null,"<div style=""font-size:60px;"">+</div>",NA,null,fixation,2020-06-09T20:27:20Z,NA,NA,NA,NA,NA,sub2
NA,mars-trial,50,132635,0.0-10.0-1.17,"""event"",""trial"",""time""
""focus"",""0"",""0""
""fullscreenenter"",""0"",""5595""
","
","""event"",""trial"",""time""
""focus"",""0"",""0""
","""event"",""trial"",""time""
""fullscreenenter"",""0"",""5595""
","
",7773,<img style='border: 4px solid darkgrey;' src='img/tf1_18_M_ss2.jpeg'></img>,1,NA,exp,NA,1,<img src='img/tf1_18_T1_ss2_md.jpeg'></img>,0,FALSE,NA,sub2
NA,html-keyboard-response,51,133137,0.0-10.0-0.18,"""event"",""trial"",""time""
""focus"",""0"",""0""
""fullscreenenter"",""0"",""5595""
","
","""event"",""trial"",""time""
""focus"",""0"",""0""
","""event"",""trial"",""time""
""fullscreenenter"",""0"",""5595""
","
",null,"<div style=""font-size:60px;"">+</div>",NA,null,fixation,2020-06-09T20:27:29Z,NA,NA,NA,NA,NA,sub2
NA,mars-trial,52,137239,0.0-10.0-1.18,"""event"",""trial"",""time""
""focus"",""0"",""0""
""fullscreenenter"",""0"",""5595""
","
","""event"",""trial"",""time""
""focus"",""0"",""0""
","""event"",""trial"",""time""
""fullscreenenter"",""0"",""5595""
","
",3499,<img style='border: 4px solid darkgrey;' src='img/tf1_19_M_ss3.jpeg'></img>,3,NA,exp,NA,0,<img src='img/tf1_19_T1_ss3_md.jpeg'></img>,0,TRUE,NA,sub2
NA,html-keyboard-response,53,137741,0.0-10.0-0.19,"""event"",""trial"",""time""
""focus"",""0"",""0""
""fullscreenenter"",""0"",""5595""
","
","""event"",""trial"",""time""
""focus"",""0"",""0""
","""event"",""trial"",""time""
""fullscreenenter"",""0"",""5595""
","
",null,"<div style=""font-size:60px;"">+</div>",NA,null,fixation,2020-06-09T20:27:33Z,NA,NA,NA,NA,NA,sub2
NA,mars-trial,54,144782,0.0-10.0-1.19,"""event"",""trial"",""time""
""focus"",""0"",""0""
""fullscreenenter"",""0"",""5595""
","
","""event"",""trial"",""time""
""focus"",""0"",""0""
","""event"",""trial"",""time""
""fullscreenenter"",""0"",""5595""
","
",6438,<img style='border: 4px solid darkgrey;' src='img/tf1_20_M_ss1.jpeg'></img>,3,NA,exp,NA,0,<img src='img/tf1_20_T1_ss1_md.jpeg'></img>,0,TRUE,NA,sub2
NA,html-keyboard-response,55,145284,0.0-10.0-0.20,"""event"",""trial"",""time""
""focus"",""0"",""0""
""fullscreenenter"",""0"",""5595""
","
","""event"",""trial"",""time""
""focus"",""0"",""0""
","""event"",""trial"",""time""
""fullscreenenter"",""0"",""5595""
","
",null,"<div style=""font-size:60px;"">+</div>",NA,null,fixation,2020-06-09T20:27:41Z,NA,NA,NA,NA,NA,sub2
NA,mars-trial,56,152593,0.0-10.0-1.20,"""event"",""trial"",""time""
""focus"",""0"",""0""
""fullscreenenter"",""0"",""5595""
","
","""event"",""trial"",""time""
""focus"",""0"",""0""
","""event"",""trial"",""time""
""fullscreenenter"",""0"",""5595""
","
",6707,<img style='border: 4px solid darkgrey;' src='img/tf1_21_M_ss2.jpeg'></img>,3,NA,exp,NA,1,<img src='img/tf1_21_T1_ss2_md.jpeg'></img>,0,FALSE,NA,sub2
NA,html-keyboard-response,57,153095,0.0-10.0-0.21,"""event"",""trial"",""time""
""focus"",""0"",""0""
""fullscreenenter"",""0"",""5595""
","
","""event"",""trial"",""time""
""focus"",""0"",""0""
","""event"",""trial"",""time""
""fullscreenenter"",""0"",""5595""
","
",null,"<div style=""font-size:60px;"">+</div>",NA,null,fixation,2020-06-09T20:27:49Z,NA,NA,NA,NA,NA,sub2
NA,mars-trial,58,159476,0.0-10.0-1.21,"""event"",""trial"",""time""
""focus"",""0"",""0""
""fullscreenenter"",""0"",""5595""
","
","""event"",""trial"",""time""
""focus"",""0"",""0""
","""event"",""trial"",""time""
""fullscreenenter"",""0"",""5595""
","
",5777,<img style='border: 4px solid darkgrey;' src='img/tf1_22_M_ss3.jpeg'></img>,1,NA,exp,NA,3,<img src='img/tf1_22_T1_ss3_md.jpeg'></img>,0,FALSE,NA,sub2
NA,html-keyboard-response,59,159978,0.0-10.0-0.22,"""event"",""trial"",""time""
""focus"",""0"",""0""
""fullscreenenter"",""0"",""5595""
","
","""event"",""trial"",""time""
""focus"",""0"",""0""
","""event"",""trial"",""time""
""fullscreenenter"",""0"",""5595""
","
",null,"<div style=""font-size:60px;"">+</div>",NA,null,fixation,2020-06-09T20:27:56Z,NA,NA,NA,NA,NA,sub2
NA,mars-trial,60,163557,0.0-10.0-1.22,"""event"",""trial"",""time""
""focus"",""0"",""0""
""fullscreenenter"",""0"",""5595""
","
","""event"",""trial"",""time""
""focus"",""0"",""0""
","""event"",""trial"",""time""
""fullscreenenter"",""0"",""5595""
","
",2975,<img style='border: 4px solid darkgrey;' src='img/tf1_23_M_ss1.jpeg'></img>,2,NA,exp,NA,3,<img src='img/tf1_23_T1_ss1_md.jpeg'></img>,0,FALSE,NA,sub2
NA,html-keyboard-response,61,164059,0.0-10.0-0.23,"""event"",""trial"",""time""
""focus"",""0"",""0""
""fullscreenenter"",""0"",""5595""
","
","""event"",""trial"",""time""
""focus"",""0"",""0""
","""event"",""trial"",""time""
""fullscreenenter"",""0"",""5595""
","
",null,"<div style=""font-size:60px;"">+</div>",NA,null,fixation,2020-06-09T20:28:00Z,NA,NA,NA,NA,NA,sub2
NA,mars-trial,62,168535,0.0-10.0-1.23,"""event"",""trial"",""time""
""focus"",""0"",""0""
""fullscreenenter"",""0"",""5595""
","
","""event"",""trial"",""time""
""focus"",""0"",""0""
","""event"",""trial"",""time""
""fullscreenenter"",""0"",""5595""
","
",3872,<img style='border: 4px solid darkgrey;' src='img/tf1_24_M_ss2.jpeg'></img>,0,NA,exp,NA,0,<img src='img/tf1_24_T1_ss2_md.jpeg'></img>,0,TRUE,NA,sub2
NA,html-keyboard-response,63,169037,0.0-10.0-0.24,"""event"",""trial"",""time""
""focus"",""0"",""0""
""fullscreenenter"",""0"",""5595""
","
","""event"",""trial"",""time""
""focus"",""0"",""0""
","""event"",""trial"",""time""
""fullscreenenter"",""0"",""5595""
","
",null,"<div style=""font-size:60px;"">+</div>",NA,null,fixation,2020-06-09T20:28:05Z,NA,NA,NA,NA,NA,sub2
NA,mars-trial,64,172852,0.0-10.0-1.24,"""event"",""trial"",""time""
""focus"",""0"",""0""
""fullscreenenter"",""0"",""5595""
","
","""event"",""trial"",""time""
""focus"",""0"",""0""
","""event"",""trial"",""time""
""fullscreenenter"",""0"",""5595""
","
",3212,<img style='border: 4px solid darkgrey;' src='img/tf1_25_M_ss3.jpeg'></img>,2,NA,exp,NA,0,<img src='img/tf1_25_T1_ss3_md.jpeg'></img>,0,TRUE,NA,sub2
NA,html-keyboard-response,65,173353,0.0-10.0-0.25,"""event"",""trial"",""time""
""focus"",""0"",""0""
""fullscreenenter"",""0"",""5595""
","
","""event"",""trial"",""time""
""focus"",""0"",""0""
","""event"",""trial"",""time""
""fullscreenenter"",""0"",""5595""
","
",null,"<div style=""font-size:60px;"">+</div>",NA,null,fixation,2020-06-09T20:28:09Z,NA,NA,NA,NA,NA,sub2
NA,mars-trial,66,181269,0.0-10.0-1.25,"""event"",""trial"",""time""
""focus"",""0"",""0""
""fullscreenenter"",""0"",""5595""
","
","""event"",""trial"",""time""
""focus"",""0"",""0""
","""event"",""trial"",""time""
""fullscreenenter"",""0"",""5595""
","
",7312.000000000029,<img style='border: 4px solid darkgrey;' src='img/tf1_26_M_ss1.jpeg'></img>,0,NA,exp,NA,3,<img src='img/tf1_26_T1_ss1_md.jpeg'></img>,0,FALSE,NA,sub2
NA,html-keyboard-response,67,181771,0.0-10.0-0.26,"""event"",""trial"",""time""
""focus"",""0"",""0""
""fullscreenenter"",""0"",""5595""
","
","""event"",""trial"",""time""
""focus"",""0"",""0""
","""event"",""trial"",""time""
""fullscreenenter"",""0"",""5595""
","
",null,"<div style=""font-size:60px;"">+</div>",NA,null,fixation,2020-06-09T20:28:17Z,NA,NA,NA,NA,NA,sub2
NA,mars-trial,68,187705,0.0-10.0-1.26,"""event"",""trial"",""time""
""focus"",""0"",""0""
""fullscreenenter"",""0"",""5595""
","
","""event"",""trial"",""time""
""focus"",""0"",""0""
","""event"",""trial"",""time""
""fullscreenenter"",""0"",""5595""
","
",5329.000000000029,<img style='border: 4px solid darkgrey;' src='img/tf1_27_M_ss2.jpeg'></img>,2,NA,exp,NA,1,<img src='img/tf1_27_T1_ss2_md.jpeg'></img>,0,FALSE,NA,sub2
NA,html-keyboard-response,69,188207,0.0-10.0-0.27,"""event"",""trial"",""time""
""focus"",""0"",""0""
""fullscreenenter"",""0"",""5595""
","
","""event"",""trial"",""time""
""focus"",""0"",""0""
","""event"",""trial"",""time""
""fullscreenenter"",""0"",""5595""
","
",null,"<div style=""font-size:60px;"">+</div>",NA,null,fixation,2020-06-09T20:28:24Z,NA,NA,NA,NA,NA,sub2
NA,mars-trial,70,195159,0.0-10.0-1.27,"""event"",""trial"",""time""
""focus"",""0"",""0""
""fullscreenenter"",""0"",""5595""
","
","""event"",""trial"",""time""
""focus"",""0"",""0""
","""event"",""trial"",""time""
""fullscreenenter"",""0"",""5595""
","
",6348.999999999971,<img style='border: 4px solid darkgrey;' src='img/tf1_28_M_ss3.jpeg'></img>,3,NA,exp,NA,1,<img src='img/tf1_28_T1_ss3_md.jpeg'></img>,0,FALSE,NA,sub2
NA,html-keyboard-response,71,195661,0.0-10.0-0.28,"""event"",""trial"",""time""
""focus"",""0"",""0""
""fullscreenenter"",""0"",""5595""
","
","""event"",""trial"",""time""
""focus"",""0"",""0""
","""event"",""trial"",""time""
""fullscreenenter"",""0"",""5595""
","
",null,"<div style=""font-size:60px;"">+</div>",NA,null,fixation,2020-06-09T20:28:31Z,NA,NA,NA,NA,NA,sub2
NA,mars-trial,72,204392,0.0-10.0-1.28,"""event"",""trial"",""time""
""focus"",""0"",""0""
""fullscreenenter"",""0"",""5595""
","
","""event"",""trial"",""time""
""focus"",""0"",""0""
","""event"",""trial"",""time""
""fullscreenenter"",""0"",""5595""
","
",8126,<img style='border: 4px solid darkgrey;' src='img/tf1_29_M_ss1.jpeg'></img>,2,NA,exp,NA,1,<img src='img/tf1_29_T1_ss1_md.jpeg'></img>,0,FALSE,NA,sub2
NA,html-keyboard-response,73,204894,0.0-10.0-0.29,"""event"",""trial"",""time""
""focus"",""0"",""0""
""fullscreenenter"",""0"",""5595""
","
","""event"",""trial"",""time""
""focus"",""0"",""0""
","""event"",""trial"",""time""
""fullscreenenter"",""0"",""5595""
","
",null,"<div style=""font-size:60px;"">+</div>",NA,null,fixation,2020-06-09T20:28:41Z,NA,NA,NA,NA,NA,sub2
NA,mars-trial,74,213370,0.0-10.0-1.29,"""event"",""trial"",""time""
""focus"",""0"",""0""
""fullscreenenter"",""0"",""5595""
","
","""event"",""trial"",""time""
""focus"",""0"",""0""
","""event"",""trial"",""time""
""fullscreenenter"",""0"",""5595""
","
",7872,<img style='border: 4px solid darkgrey;' src='img/tf1_30_M_ss2.jpeg'></img>,3,NA,exp,NA,0,<img src='img/tf1_30_T1_ss2_md.jpeg'></img>,0,TRUE,NA,sub2
NA,html-keyboard-response,75,213872,0.0-10.0-0.30,"""event"",""trial"",""time""
""focus"",""0"",""0""
""fullscreenenter"",""0"",""5595""
","
","""event"",""trial"",""time""
""focus"",""0"",""0""
","""event"",""trial"",""time""
""fullscreenenter"",""0"",""5595""
","
",null,"<div style=""font-size:60px;"">+</div>",NA,null,fixation,2020-06-09T20:28:50Z,NA,NA,NA,NA,NA,sub2
NA,mars-trial,76,220097,0.0-10.0-1.30,"""event"",""trial"",""time""
""focus"",""0"",""0""
""fullscreenenter"",""0"",""5595""
","
","""event"",""trial"",""time""
""focus"",""0"",""0""
","""event"",""trial"",""time""
""fullscreenenter"",""0"",""5595""
","
",5620,<img style='border: 4px solid darkgrey;' src='img/tf1_31_M_ss3.jpeg'></img>,3,NA,exp,NA,2,<img src='img/tf1_31_T1_ss3_md.jpeg'></img>,0,FALSE,NA,sub2
NA,html-keyboard-response,77,220598,0.0-10.0-0.31,"""event"",""trial"",""time""
""focus"",""0"",""0""
""fullscreenenter"",""0"",""5595""
","
","""event"",""trial"",""time""
""focus"",""0"",""0""
","""event"",""trial"",""time""
""fullscreenenter"",""0"",""5595""
","
",null,"<div style=""font-size:60px;"">+</div>",NA,null,fixation,2020-06-09T20:28:56Z,NA,NA,NA,NA,NA,sub2
NA,mars-trial,78,227965,0.0-10.0-1.31,"""event"",""trial"",""time""
""focus"",""0"",""0""
""fullscreenenter"",""0"",""5595""
","
","""event"",""trial"",""time""
""focus"",""0"",""0""
","""event"",""trial"",""time""
""fullscreenenter"",""0"",""5595""
","
",6764,<img style='border: 4px solid darkgrey;' src='img/tf1_32_M_ss1.jpeg'></img>,1,NA,exp,NA,0,<img src='img/tf1_32_T1_ss1_md.jpeg'></img>,0,TRUE,NA,sub2
NA,html-keyboard-response,79,228467,0.0-10.0-0.32,"""event"",""trial"",""time""
""focus"",""0"",""0""
""fullscreenenter"",""0"",""5595""
","
","""event"",""trial"",""time""
""focus"",""0"",""0""
","""event"",""trial"",""time""
""fullscreenenter"",""0"",""5595""
","
",null,"<div style=""font-size:60px;"">+</div>",NA,null,fixation,2020-06-09T20:29:04Z,NA,NA,NA,NA,NA,sub2
NA,mars-trial,80,235392,0.0-10.0-1.32,"""event"",""trial"",""time""
""focus"",""0"",""0""
""fullscreenenter"",""0"",""5595""
","
","""event"",""trial"",""time""
""focus"",""0"",""0""
","""event"",""trial"",""time""
""fullscreenenter"",""0"",""5595""
","
",6321,<img style='border: 4px solid darkgrey;' src='img/tf1_33_M_ss2.jpeg'></img>,1,NA,exp,NA,0,<img src='img/tf1_33_T1_ss2_md.jpeg'></img>,0,TRUE,NA,sub2
NA,html-keyboard-response,81,235895,0.0-10.0-0.33,"""event"",""trial"",""time""
""focus"",""0"",""0""
""fullscreenenter"",""0"",""5595""
","
","""event"",""trial"",""time""
""focus"",""0"",""0""
","""event"",""trial"",""time""
""fullscreenenter"",""0"",""5595""
","
",null,"<div style=""font-size:60px;"">+</div>",NA,null,fixation,2020-06-09T20:29:12Z,NA,NA,NA,NA,NA,sub2
NA,mars-trial,82,246098,0.0-10.0-1.33,"""event"",""trial"",""time""
""focus"",""0"",""0""
""fullscreenenter"",""0"",""5595""
","
","""event"",""trial"",""time""
""focus"",""0"",""0""
","""event"",""trial"",""time""
""fullscreenenter"",""0"",""5595""
","
",9598,<img style='border: 4px solid darkgrey;' src='img/tf1_34_M_ss3.jpeg'></img>,1,NA,exp,NA,3,<img src='img/tf1_34_T1_ss3_md.jpeg'></img>,0,FALSE,NA,sub2
NA,html-keyboard-response,83,246600,0.0-10.0-0.34,"""event"",""trial"",""time""
""focus"",""0"",""0""
""fullscreenenter"",""0"",""5595""
","
","""event"",""trial"",""time""
""focus"",""0"",""0""
","""event"",""trial"",""time""
""fullscreenenter"",""0"",""5595""
","
",null,"<div style=""font-size:60px;"">+</div>",NA,null,fixation,2020-06-09T20:29:22Z,NA,NA,NA,NA,NA,sub2
NA,mars-trial,84,254377,0.0-10.0-1.34,"""event"",""trial"",""time""
""focus"",""0"",""0""
""fullscreenenter"",""0"",""5595""
","
","""event"",""trial"",""time""
""focus"",""0"",""0""
","""event"",""trial"",""time""
""fullscreenenter"",""0"",""5595""
","
",7172,<img style='border: 4px solid darkgrey;' src='img/tf1_35_M_ss1.jpeg'></img>,1,NA,exp,NA,3,<img src='img/tf1_35_T1_ss1_md.jpeg'></img>,0,FALSE,NA,sub2
NA,html-keyboard-response,85,254879,0.0-10.0-0.35,"""event"",""trial"",""time""
""focus"",""0"",""0""
""fullscreenenter"",""0"",""5595""
","
","""event"",""trial"",""time""
""focus"",""0"",""0""
","""event"",""trial"",""time""
""fullscreenenter"",""0"",""5595""
","
",null,"<div style=""font-size:60px;"">+</div>",NA,null,fixation,2020-06-09T20:29:31Z,NA,NA,NA,NA,NA,sub2
NA,mars-trial,86,263677,0.0-10.0-1.35,"""event"",""trial"",""time""
""focus"",""0"",""0""
""fullscreenenter"",""0"",""5595""
","
","""event"",""trial"",""time""
""focus"",""0"",""0""
","""event"",""trial"",""time""
""fullscreenenter"",""0"",""5595""
","
",8192,<img style='border: 4px solid darkgrey;' src='img/tf1_36_M_ss2.jpeg'></img>,3,NA,exp,NA,1,<img src='img/tf1_36_T1_ss2_md.jpeg'></img>,0,FALSE,NA,sub2
NA,html-keyboard-response,87,264179,0.0-10.0-0.36,"""event"",""trial"",""time""
""focus"",""0"",""0""
""fullscreenenter"",""0"",""5595""
","
","""event"",""trial"",""time""
""focus"",""0"",""0""
","""event"",""trial"",""time""
""fullscreenenter"",""0"",""5595""
","
",null,"<div style=""font-size:60px;"">+</div>",NA,null,fixation,2020-06-09T20:29:40Z,NA,NA,NA,NA,NA,sub2
NA,mars-trial,88,274730,0.0-10.0-1.36,"""event"",""trial"",""time""
""focus"",""0"",""0""
""fullscreenenter"",""0"",""5595""
","
","""event"",""trial"",""time""
""focus"",""0"",""0""
","""event"",""trial"",""time""
""fullscreenenter"",""0"",""5595""
","
",9948,<img style='border: 4px solid darkgrey;' src='img/tf1_37_M_ss3.jpeg'></img>,3,NA,exp,NA,1,<img src='img/tf1_37_T1_ss3_md.jpeg'></img>,0,FALSE,NA,sub2
NA,html-keyboard-response,89,275231,0.0-10.0-0.37,"""event"",""trial"",""time""
""focus"",""0"",""0""
""fullscreenenter"",""0"",""5595""
","
","""event"",""trial"",""time""
""focus"",""0"",""0""
","""event"",""trial"",""time""
""fullscreenenter"",""0"",""5595""
","
",null,"<div style=""font-size:60px;"">+</div>",NA,null,fixation,2020-06-09T20:29:51Z,NA,NA,NA,NA,NA,sub2
NA,mars-trial,90,279399,0.0-10.0-1.37,"""event"",""trial"",""time""
""focus"",""0"",""0""
""fullscreenenter"",""0"",""5595""
","
","""event"",""trial"",""time""
""focus"",""0"",""0""
","""event"",""trial"",""time""
""fullscreenenter"",""0"",""5595""
","
",3564,<img style='border: 4px solid darkgrey;' src='img/tf1_38_M_ss1.jpeg'></img>,1,NA,exp,NA,0,<img src='img/tf1_38_T1_ss1_md.jpeg'></img>,0,TRUE,NA,sub2
NA,html-keyboard-response,91,279901,0.0-10.0-0.38,"""event"",""trial"",""time""
""focus"",""0"",""0""
""fullscreenenter"",""0"",""5595""
","
","""event"",""trial"",""time""
""focus"",""0"",""0""
","""event"",""trial"",""time""
""fullscreenenter"",""0"",""5595""
","
",null,"<div style=""font-size:60px;"">+</div>",NA,null,fixation,2020-06-09T20:29:56Z,NA,NA,NA,NA,NA,sub2
NA,mars-trial,92,285941,0.0-10.0-1.38,"""event"",""trial"",""time""
""focus"",""0"",""0""
""fullscreenenter"",""0"",""5595""
","
","""event"",""trial"",""time""
""focus"",""0"",""0""
","""event"",""trial"",""time""
""fullscreenenter"",""0"",""5595""
","
",5435,<img style='border: 4px solid darkgrey;' src='img/tf1_39_M_ss2.jpeg'></img>,1,NA,exp,NA,0,<img src='img/tf1_39_T1_ss2_md.jpeg'></img>,0,TRUE,NA,sub2
NA,html-keyboard-response,93,286443,0.0-10.0-0.39,"""event"",""trial"",""time""
""focus"",""0"",""0""
""fullscreenenter"",""0"",""5595""
","
","""event"",""trial"",""time""
""focus"",""0"",""0""
","""event"",""trial"",""time""
""fullscreenenter"",""0"",""5595""
","
",null,"<div style=""font-size:60px;"">+</div>",NA,null,fixation,2020-06-09T20:30:02Z,NA,NA,NA,NA,NA,sub2
NA,mars-trial,94,291626,0.0-10.0-1.39,"""event"",""trial"",""time""
""focus"",""0"",""0""
""fullscreenenter"",""0"",""5595""
","
","""event"",""trial"",""time""
""focus"",""0"",""0""
","""event"",""trial"",""time""
""fullscreenenter"",""0"",""5595""
","
",4578.999999999942,<img style='border: 4px solid darkgrey;' src='img/tf1_40_M_ss3.jpeg'></img>,3,NA,exp,NA,3,<img src='img/tf1_40_T1_ss3_md.jpeg'></img>,0,FALSE,NA,sub2
NA,html-keyboard-response,95,292128,0.0-10.0-0.40,"""event"",""trial"",""time""
""focus"",""0"",""0""
""fullscreenenter"",""0"",""5595""
","
","""event"",""trial"",""time""
""focus"",""0"",""0""
","""event"",""trial"",""time""
""fullscreenenter"",""0"",""5595""
","
",null,"<div style=""font-size:60px;"">+</div>",NA,null,fixation,2020-06-09T20:30:08Z,NA,NA,NA,NA,NA,sub2
NA,mars-trial,96,295748,0.0-10.0-1.40,"""event"",""trial"",""time""
""focus"",""0"",""0""
""fullscreenenter"",""0"",""5595""
","
","""event"",""trial"",""time""
""focus"",""0"",""0""
","""event"",""trial"",""time""
""fullscreenenter"",""0"",""5595""
","
",3014.999999999942,<img style='border: 4px solid darkgrey;' src='img/tf1_41_M_ss1.jpeg'></img>,1,NA,exp,NA,0,<img src='img/tf1_41_T1_ss1_md.jpeg'></img>,0,TRUE,NA,sub2
NA,html-keyboard-response,97,296250,0.0-10.0-0.41,"""event"",""trial"",""time""
""focus"",""0"",""0""
""fullscreenenter"",""0"",""5595""
","
","""event"",""trial"",""time""
""focus"",""0"",""0""
","""event"",""trial"",""time""
""fullscreenenter"",""0"",""5595""
","
",null,"<div style=""font-size:60px;"">+</div>",NA,null,fixation,2020-06-09T20:30:12Z,NA,NA,NA,NA,NA,sub2
NA,mars-trial,98,305956,0.0-10.0-1.41,"""event"",""trial"",""time""
""focus"",""0"",""0""
""fullscreenenter"",""0"",""5595""
","
","""event"",""trial"",""time""
""focus"",""0"",""0""
","""event"",""trial"",""time""
""fullscreenenter"",""0"",""5595""
","
",9102,<img style='border: 4px solid darkgrey;' src='img/tf1_42_M_ss2.jpeg'></img>,3,NA,exp,NA,1,<img src='img/tf1_42_T1_ss2_md.jpeg'></img>,0,FALSE,NA,sub2
NA,html-keyboard-response,99,306458,0.0-10.0-0.42,"""event"",""trial"",""time""
""focus"",""0"",""0""
""fullscreenenter"",""0"",""5595""
","
","""event"",""trial"",""time""
""focus"",""0"",""0""
","""event"",""trial"",""time""
""fullscreenenter"",""0"",""5595""
","
",null,"<div style=""font-size:60px;"">+</div>",NA,null,fixation,2020-06-09T20:30:22Z,NA,NA,NA,NA,NA,sub2
NA,mars-trial,100,313380,0.0-10.0-1.42,"""event"",""trial"",""time""
""focus"",""0"",""0""
""fullscreenenter"",""0"",""5595""
","
","""event"",""trial"",""time""
""focus"",""0"",""0""
","""event"",""trial"",""time""
""fullscreenenter"",""0"",""5595""
","
",6318,<img style='border: 4px solid darkgrey;' src='img/tf1_43_M_ss3.jpeg'></img>,3,NA,exp,NA,0,<img src='img/tf1_43_T1_ss3_md.jpeg'></img>,0,TRUE,NA,sub2
NA,html-keyboard-response,101,313881,0.0-10.0-0.43,"""event"",""trial"",""time""
""focus"",""0"",""0""
""fullscreenenter"",""0"",""5595""
","
","""event"",""trial"",""time""
""focus"",""0"",""0""
","""event"",""trial"",""time""
""fullscreenenter"",""0"",""5595""
","
",null,"<div style=""font-size:60px;"">+</div>",NA,null,fixation,2020-06-09T20:30:30Z,NA,NA,NA,NA,NA,sub2
NA,mars-trial,102,323274,0.0-10.0-1.43,"""event"",""trial"",""time""
""focus"",""0"",""0""
""fullscreenenter"",""0"",""5595""
","
","""event"",""trial"",""time""
""focus"",""0"",""0""
","""event"",""trial"",""time""
""fullscreenenter"",""0"",""5595""
","
",8789.000000000058,<img style='border: 4px solid darkgrey;' src='img/tf1_44_M_ss1.jpeg'></img>,3,NA,exp,NA,1,<img src='img/tf1_44_T1_ss1_md.jpeg'></img>,0,FALSE,NA,sub2
NA,html-keyboard-response,103,323775,0.0-10.0-0.44,"""event"",""trial"",""time""
""focus"",""0"",""0""
""fullscreenenter"",""0"",""5595""
","
","""event"",""trial"",""time""
""focus"",""0"",""0""
","""event"",""trial"",""time""
""fullscreenenter"",""0"",""5595""
","
",null,"<div style=""font-size:60px;"">+</div>",NA,null,fixation,2020-06-09T20:30:39Z,NA,NA,NA,NA,NA,sub2
NA,mars-trial,104,329363,0.0-10.0-1.44,"""event"",""trial"",""time""
""focus"",""0"",""0""
""fullscreenenter"",""0"",""5595""
","
","""event"",""trial"",""time""
""focus"",""0"",""0""
","""event"",""trial"",""time""
""fullscreenenter"",""0"",""5595""
","
",4984,<img style='border: 4px solid darkgrey;' src='img/tf1_45_M_ss2.jpeg'></img>,2,NA,exp,NA,0,<img src='img/tf1_45_T1_ss2_md.jpeg'></img>,0,TRUE,NA,sub2
NA,html-keyboard-response,105,329865,0.0-10.0-0.45,"""event"",""trial"",""time""
""focus"",""0"",""0""
""fullscreenenter"",""0"",""5595""
","
","""event"",""trial"",""time""
""focus"",""0"",""0""
","""event"",""trial"",""time""
""fullscreenenter"",""0"",""5595""
","
",null,"<div style=""font-size:60px;"">+</div>",NA,null,fixation,2020-06-09T20:30:46Z,NA,NA,NA,NA,NA,sub2
NA,mars-trial,106,340358,0.0-10.0-1.45,"""event"",""trial"",""time""
""focus"",""0"",""0""
""fullscreenenter"",""0"",""5595""
","
","""event"",""trial"",""time""
""focus"",""0"",""0""
","""event"",""trial"",""time""
""fullscreenenter"",""0"",""5595""
","
",9889.000000000058,<img style='border: 4px solid darkgrey;' src='img/tf1_46_M_ss3.jpeg'></img>,0,NA,exp,NA,3,<img src='img/tf1_46_T1_ss3_md.jpeg'></img>,0,FALSE,NA,sub2
NA,html-keyboard-response,107,340860,0.0-10.0-0.46,"""event"",""trial"",""time""
""focus"",""0"",""0""
""fullscreenenter"",""0"",""5595""
","
","""event"",""trial"",""time""
""focus"",""0"",""0""
","""event"",""trial"",""time""
""fullscreenenter"",""0"",""5595""
","
",null,"<div style=""font-size:60px;"">+</div>",NA,null,fixation,2020-06-09T20:30:57Z,NA,NA,NA,NA,NA,sub2
NA,mars-trial,108,350871,0.0-10.0-1.46,"""event"",""trial"",""time""
""focus"",""0"",""0""
""fullscreenenter"",""0"",""5595""
","
","""event"",""trial"",""time""
""focus"",""0"",""0""
","""event"",""trial"",""time""
""fullscreenenter"",""0"",""5595""
","
",9407,<img style='border: 4px solid darkgrey;' src='img/tf1_47_M_ss1.jpeg'></img>,1,NA,exp,NA,0,<img src='img/tf1_47_T1_ss1_md.jpeg'></img>,0,TRUE,NA,sub2
NA,html-keyboard-response,109,351373,0.0-10.0-0.47,"""event"",""trial"",""time""
""focus"",""0"",""0""
""fullscreenenter"",""0"",""5595""
","
","""event"",""trial"",""time""
""focus"",""0"",""0""
","""event"",""trial"",""time""
""fullscreenenter"",""0"",""5595""
","
",null,"<div style=""font-size:60px;"">+</div>",NA,null,fixation,2020-06-09T20:31:07Z,NA,NA,NA,NA,NA,sub2
NA,mars-trial,110,359591,0.0-10.0-1.47,"""event"",""trial"",""time""
""focus"",""0"",""0""
""fullscreenenter"",""0"",""5595""
","
","""event"",""trial"",""time""
""focus"",""0"",""0""
","""event"",""trial"",""time""
""fullscreenenter"",""0"",""5595""
","
",7613,<img style='border: 4px solid darkgrey;' src='img/tf1_48_M_ss2.jpeg'></img>,1,NA,exp,NA,3,<img src='img/tf1_48_T1_ss2_md.jpeg'></img>,0,FALSE,NA,sub2
NA,html-keyboard-response,111,360093,0.0-10.0-0.48,"""event"",""trial"",""time""
""focus"",""0"",""0""
""fullscreenenter"",""0"",""5595""
","
","""event"",""trial"",""time""
""focus"",""0"",""0""
","""event"",""trial"",""time""
""fullscreenenter"",""0"",""5595""
","
",null,"<div style=""font-size:60px;"">+</div>",NA,null,fixation,2020-06-09T20:31:16Z,NA,NA,NA,NA,NA,sub2
NA,mars-trial,112,365580,0.0-10.0-1.48,"""event"",""trial"",""time""
""focus"",""0"",""0""
""fullscreenenter"",""0"",""5595""
","
","""event"",""trial"",""time""
""focus"",""0"",""0""
","""event"",""trial"",""time""
""fullscreenenter"",""0"",""5595""
","
",4882.999999999942,<img style='border: 4px solid darkgrey;' src='img/tf1_49_M_ss3.jpeg'></img>,2,NA,exp,NA,0,<img src='img/tf1_49_T1_ss3_md.jpeg'></img>,0,TRUE,NA,sub2
NA,html-keyboard-response,113,366082,0.0-10.0-0.49,"""event"",""trial"",""time""
""focus"",""0"",""0""
""fullscreenenter"",""0"",""5595""
","
","""event"",""trial"",""time""
""focus"",""0"",""0""
","""event"",""trial"",""time""
""fullscreenenter"",""0"",""5595""
","
",null,"<div style=""font-size:60px;"">+</div>",NA,null,fixation,2020-06-09T20:31:22Z,NA,NA,NA,NA,NA,sub2
NA,mars-trial,114,371024,0.0-10.0-1.49,"""event"",""trial"",""time""
""focus"",""0"",""0""
""fullscreenenter"",""0"",""5595""
","
","""event"",""trial"",""time""
""focus"",""0"",""0""
","""event"",""trial"",""time""
""fullscreenenter"",""0"",""5595""
","
",4339,<img style='border: 4px solid darkgrey;' src='img/tf1_50_M_ss1.jpeg'></img>,2,NA,exp,NA,0,<img src='img/tf1_50_T1_ss1_md.jpeg'></img>,0,TRUE,NA,sub2
NA,html-keyboard-response,115,371526,0.0-10.0-0.50,"""event"",""trial"",""time""
""focus"",""0"",""0""
""fullscreenenter"",""0"",""5595""
","
","""event"",""trial"",""time""
""focus"",""0"",""0""
","""event"",""trial"",""time""
""fullscreenenter"",""0"",""5595""
","
",null,"<div style=""font-size:60px;"">+</div>",NA,null,fixation,2020-06-09T20:31:27Z,NA,NA,NA,NA,NA,sub2
NA,mars-trial,116,379123,0.0-10.0-1.50,"""event"",""trial"",""time""
""focus"",""0"",""0""
""fullscreenenter"",""0"",""5595""
","
","""event"",""trial"",""time""
""focus"",""0"",""0""
","""event"",""trial"",""time""
""fullscreenenter"",""0"",""5595""
","
",6992,<img style='border: 4px solid darkgrey;' src='img/tf1_51_M_ss2.jpeg'></img>,0,NA,exp,NA,2,<img src='img/tf1_51_T1_ss2_md.jpeg'></img>,0,FALSE,NA,sub2
NA,html-keyboard-response,117,379624,0.0-10.0-0.51,"""event"",""trial"",""time""
""focus"",""0"",""0""
""fullscreenenter"",""0"",""5595""
","
","""event"",""trial"",""time""
""focus"",""0"",""0""
","""event"",""trial"",""time""
""fullscreenenter"",""0"",""5595""
","
",null,"<div style=""font-size:60px;"">+</div>",NA,null,fixation,2020-06-09T20:31:35Z,NA,NA,NA,NA,NA,sub2
NA,mars-trial,118,388225,0.0-10.0-1.51,"""event"",""trial"",""time""
""focus"",""0"",""0""
""fullscreenenter"",""0"",""5595""
","
","""event"",""trial"",""time""
""focus"",""0"",""0""
","""event"",""trial"",""time""
""fullscreenenter"",""0"",""5595""
","
",7998,<img style='border: 4px solid darkgrey;' src='img/tf1_52_M_ss3.jpeg'></img>,3,NA,exp,NA,1,<img src='img/tf1_52_T1_ss3_md.jpeg'></img>,0,FALSE,NA,sub2
NA,html-keyboard-response,119,388727,0.0-10.0-0.52,"""event"",""trial"",""time""
""focus"",""0"",""0""
""fullscreenenter"",""0"",""5595""
","
","""event"",""trial"",""time""
""focus"",""0"",""0""
","""event"",""trial"",""time""
""fullscreenenter"",""0"",""5595""
","
",null,"<div style=""font-size:60px;"">+</div>",NA,null,fixation,2020-06-09T20:31:44Z,NA,NA,NA,NA,NA,sub2
NA,mars-trial,120,397369,0.0-10.0-1.52,"""event"",""trial"",""time""
""focus"",""0"",""0""
""fullscreenenter"",""0"",""5595""
","
","""event"",""trial"",""time""
""focus"",""0"",""0""
","""event"",""trial"",""time""
""fullscreenenter"",""0"",""5595""
","
",8038,<img style='border: 4px solid darkgrey;' src='img/tf1_53_M_ss1.jpeg'></img>,1,NA,exp,NA,3,<img src='img/tf1_53_T1_ss1_md.jpeg'></img>,0,FALSE,NA,sub2
NA,html-keyboard-response,121,397870,0.0-10.0-0.53,"""event"",""trial"",""time""
""focus"",""0"",""0""
""fullscreenenter"",""0"",""5595""
","
","""event"",""trial"",""time""
""focus"",""0"",""0""
","""event"",""trial"",""time""
""fullscreenenter"",""0"",""5595""
","
",null,"<div style=""font-size:60px;"">+</div>",NA,null,fixation,2020-06-09T20:31:54Z,NA,NA,NA,NA,NA,sub2
NA,mars-trial,122,405823,0.0-10.0-1.53,"""event"",""trial"",""time""
""focus"",""0"",""0""
""fullscreenenter"",""0"",""5595""
","
","""event"",""trial"",""time""
""focus"",""0"",""0""
","""event"",""trial"",""time""
""fullscreenenter"",""0"",""5595""
","
",7349.000000000058,<img style='border: 4px solid darkgrey;' src='img/tf1_54_M_ss2.jpeg'></img>,1,NA,exp,NA,2,<img src='img/tf1_54_T1_ss2_md.jpeg'></img>,0,FALSE,NA,sub2
NA,html-keyboard-response,123,406325,0.0-10.0-0.54,"""event"",""trial"",""time""
""focus"",""0"",""0""
""fullscreenenter"",""0"",""5595""
","
","""event"",""trial"",""time""
""focus"",""0"",""0""
","""event"",""trial"",""time""
""fullscreenenter"",""0"",""5595""
","
",null,"<div style=""font-size:60px;"">+</div>",NA,null,fixation,2020-06-09T20:32:02Z,NA,NA,NA,NA,NA,sub2
NA,mars-trial,124,413838,0.0-10.0-1.54,"""event"",""trial"",""time""
""focus"",""0"",""0""
""fullscreenenter"",""0"",""5595""
","
","""event"",""trial"",""time""
""focus"",""0"",""0""
","""event"",""trial"",""time""
""fullscreenenter"",""0"",""5595""
","
",6910,<img style='border: 4px solid darkgrey;' src='img/tf1_55_M_ss3.jpeg'></img>,0,NA,exp,NA,0,<img src='img/tf1_55_T1_ss3_md.jpeg'></img>,0,TRUE,NA,sub2
NA,html-keyboard-response,125,414340,0.0-10.0-0.55,"""event"",""trial"",""time""
""focus"",""0"",""0""
""fullscreenenter"",""0"",""5595""
","
","""event"",""trial"",""time""
""focus"",""0"",""0""
","""event"",""trial"",""time""
""fullscreenenter"",""0"",""5595""
","
",null,"<div style=""font-size:60px;"">+</div>",NA,null,fixation,2020-06-09T20:32:10Z,NA,NA,NA,NA,NA,sub2
NA,mars-trial,126,418967,0.0-10.0-1.55,"""event"",""trial"",""time""
""focus"",""0"",""0""
""fullscreenenter"",""0"",""5595""
","
","""event"",""trial"",""time""
""focus"",""0"",""0""
","""event"",""trial"",""time""
""fullscreenenter"",""0"",""5595""
","
",4022.000000000058,<img style='border: 4px solid darkgrey;' src='img/tf1_56_M_ss1.jpeg'></img>,1,NA,exp,NA,2,<img src='img/tf1_56_T1_ss1_md.jpeg'></img>,0,FALSE,NA,sub2
NA,html-keyboard-response,127,419469,0.0-10.0-0.56,"""event"",""trial"",""time""
""focus"",""0"",""0""
""fullscreenenter"",""0"",""5595""
","
","""event"",""trial"",""time""
""focus"",""0"",""0""
","""event"",""trial"",""time""
""fullscreenenter"",""0"",""5595""
","
",null,"<div style=""font-size:60px;"">+</div>",NA,null,fixation,2020-06-09T20:32:15Z,NA,NA,NA,NA,NA,sub2
NA,mars-trial,128,426836,0.0-10.0-1.56,"""event"",""trial"",""time""
""focus"",""0"",""0""
""fullscreenenter"",""0"",""5595""
","
","""event"",""trial"",""time""
""focus"",""0"",""0""
","""event"",""trial"",""time""
""fullscreenenter"",""0"",""5595""
","
",6764,<img style='border: 4px solid darkgrey;' src='img/tf1_57_M_ss2.jpeg'></img>,2,NA,exp,NA,0,<img src='img/tf1_57_T1_ss2_md.jpeg'></img>,0,TRUE,NA,sub2
NA,html-keyboard-response,129,427338,0.0-10.0-0.57,"""event"",""trial"",""time""
""focus"",""0"",""0""
""fullscreenenter"",""0"",""5595""
","
","""event"",""trial"",""time""
""focus"",""0"",""0""
","""event"",""trial"",""time""
""fullscreenenter"",""0"",""5595""
","
",null,"<div style=""font-size:60px;"">+</div>",NA,null,fixation,2020-06-09T20:32:23Z,NA,NA,NA,NA,NA,sub2
NA,mars-trial,130,437631,0.0-10.0-1.57,"""event"",""trial"",""time""
""focus"",""0"",""0""
""fullscreenenter"",""0"",""5595""
","
","""event"",""trial"",""time""
""focus"",""0"",""0""
","""event"",""trial"",""time""
""fullscreenenter"",""0"",""5595""
","
",9687.999999999942,<img style='border: 4px solid darkgrey;' src='img/tf1_58_M_ss3.jpeg'></img>,1,NA,exp,NA,1,<img src='img/tf1_58_T1_ss3_md.jpeg'></img>,0,FALSE,NA,sub2
NA,html-keyboard-response,131,438133,0.0-10.0-0.58,"""event"",""trial"",""time""
""focus"",""0"",""0""
""fullscreenenter"",""0"",""5595""
","
","""event"",""trial"",""time""
""focus"",""0"",""0""
","""event"",""trial"",""time""
""fullscreenenter"",""0"",""5595""
","
",null,"<div style=""font-size:60px;"">+</div>",NA,null,fixation,2020-06-09T20:32:34Z,NA,NA,NA,NA,NA,sub2
NA,mars-trial,132,452678,0.0-10.0-1.58,"""event"",""trial"",""time""
""focus"",""0"",""0""
""fullscreenenter"",""0"",""5595""
","
","""event"",""trial"",""time""
""focus"",""0"",""0""
","""event"",""trial"",""time""
""fullscreenenter"",""0"",""5595""
","
",13941,<img style='border: 4px solid darkgrey;' src='img/tf1_59_M_ss1.jpeg'></img>,2,NA,exp,NA,0,<img src='img/tf1_59_T1_ss1_md.jpeg'></img>,0,TRUE,NA,sub2
NA,html-keyboard-response,133,453180,0.0-10.0-0.59,"""event"",""trial"",""time""
""focus"",""0"",""0""
""fullscreenenter"",""0"",""5595""
","
","""event"",""trial"",""time""
""focus"",""0"",""0""
","""event"",""trial"",""time""
""fullscreenenter"",""0"",""5595""
","
",null,"<div style=""font-size:60px;"">+</div>",NA,null,fixation,2020-06-09T20:32:49Z,NA,NA,NA,NA,NA,sub2
NA,mars-trial,134,463596,0.0-10.0-1.59,"""event"",""trial"",""time""
""focus"",""0"",""0""
""fullscreenenter"",""0"",""5595""
","
","""event"",""trial"",""time""
""focus"",""0"",""0""
","""event"",""trial"",""time""
""fullscreenenter"",""0"",""5595""
","
",9812,<img style='border: 4px solid darkgrey;' src='img/tf1_60_M_ss2.jpeg'></img>,3,NA,exp,NA,0,<img src='img/tf1_60_T1_ss2_md.jpeg'></img>,0,TRUE,NA,sub2
NA,html-keyboard-response,135,464098,0.0-10.0-0.60,"""event"",""trial"",""time""
""focus"",""0"",""0""
""fullscreenenter"",""0"",""5595""
","
","""event"",""trial"",""time""
""focus"",""0"",""0""
","""event"",""trial"",""time""
""fullscreenenter"",""0"",""5595""
","
",null,"<div style=""font-size:60px;"">+</div>",NA,null,fixation,2020-06-09T20:33:00Z,NA,NA,NA,NA,NA,sub2
NA,mars-trial,136,472230,0.0-10.0-1.60,"""event"",""trial"",""time""
""focus"",""0"",""0""
""fullscreenenter"",""0"",""5595""
","
","""event"",""trial"",""time""
""focus"",""0"",""0""
","""event"",""trial"",""time""
""fullscreenenter"",""0"",""5595""
","
",7528,<img style='border: 4px solid darkgrey;' src='img/tf1_61_M_ss3.jpeg'></img>,2,NA,exp,NA,1,<img src='img/tf1_61_T1_ss3_md.jpeg'></img>,0,FALSE,NA,sub2
NA,html-keyboard-response,137,472731,0.0-10.0-0.61,"""event"",""trial"",""time""
""focus"",""0"",""0""
""fullscreenenter"",""0"",""5595""
","
","""event"",""trial"",""time""
""focus"",""0"",""0""
","""event"",""trial"",""time""
""fullscreenenter"",""0"",""5595""
","
",null,"<div style=""font-size:60px;"">+</div>",NA,null,fixation,2020-06-09T20:33:08Z,NA,NA,NA,NA,NA,sub2
NA,mars-trial,138,480344,0.0-10.0-1.61,"""event"",""trial"",""time""
""focus"",""0"",""0""
""fullscreenenter"",""0"",""5595""
","
","""event"",""trial"",""time""
""focus"",""0"",""0""
","""event"",""trial"",""time""
""fullscreenenter"",""0"",""5595""
","
",7008.999999999942,<img style='border: 4px solid darkgrey;' src='img/tf1_62_M_ss1.jpeg'></img>,3,NA,exp,NA,3,<img src='img/tf1_62_T1_ss1_md.jpeg'></img>,0,FALSE,NA,sub2
NA,html-keyboard-response,139,480846,0.0-10.0-0.62,"""event"",""trial"",""time""
""focus"",""0"",""0""
""fullscreenenter"",""0"",""5595""
","
","""event"",""trial"",""time""
""focus"",""0"",""0""
","""event"",""trial"",""time""
""fullscreenenter"",""0"",""5595""
","
",null,"<div style=""font-size:60px;"">+</div>",NA,null,fixation,2020-06-09T20:33:17Z,NA,NA,NA,NA,NA,sub2
NA,mars-trial,140,496199,0.0-10.0-1.62,"""event"",""trial"",""time""
""focus"",""0"",""0""
""fullscreenenter"",""0"",""5595""
","
","""event"",""trial"",""time""
""focus"",""0"",""0""
","""event"",""trial"",""time""
""fullscreenenter"",""0"",""5595""
","
",14750,<img style='border: 4px solid darkgrey;' src='img/tf1_63_M_ss2.jpeg'></img>,1,NA,exp,NA,1,<img src='img/tf1_63_T1_ss2_md.jpeg'></img>,0,FALSE,NA,sub2
NA,html-keyboard-response,141,496701,0.0-10.0-0.63,"""event"",""trial"",""time""
""focus"",""0"",""0""
""fullscreenenter"",""0"",""5595""
","
","""event"",""trial"",""time""
""focus"",""0"",""0""
","""event"",""trial"",""time""
""fullscreenenter"",""0"",""5595""
","
",null,"<div style=""font-size:60px;"">+</div>",NA,null,fixation,2020-06-09T20:33:32Z,NA,NA,NA,NA,NA,sub2
NA,mars-trial,142,509662,0.0-10.0-1.63,"""event"",""trial"",""time""
""focus"",""0"",""0""
""fullscreenenter"",""0"",""5595""
","
","""event"",""trial"",""time""
""focus"",""0"",""0""
","""event"",""trial"",""time""
""fullscreenenter"",""0"",""5595""
","
",12356.000000000058,<img style='border: 4px solid darkgrey;' src='img/tf1_64_M_ss3.jpeg'></img>,3,NA,exp,NA,0,<img src='img/tf1_64_T1_ss3_md.jpeg'></img>,0,TRUE,NA,sub2
NA,html-keyboard-response,143,510164,0.0-10.0-0.64,"""event"",""trial"",""time""
""focus"",""0"",""0""
""fullscreenenter"",""0"",""5595""
","
","""event"",""trial"",""time""
""focus"",""0"",""0""
","""event"",""trial"",""time""
""fullscreenenter"",""0"",""5595""
","
",null,"<div style=""font-size:60px;"">+</div>",NA,null,fixation,2020-06-09T20:33:46Z,NA,NA,NA,NA,NA,sub2
NA,mars-trial,144,522244,0.0-10.0-1.64,"""event"",""trial"",""time""
""focus"",""0"",""0""
""fullscreenenter"",""0"",""5595""
","
","""event"",""trial"",""time""
""focus"",""0"",""0""
","""event"",""trial"",""time""
""fullscreenenter"",""0"",""5595""
","
",11475.999999999942,<img style='border: 4px solid darkgrey;' src='img/tf1_65_M_ss1.jpeg'></img>,0,NA,exp,NA,3,<img src='img/tf1_65_T1_ss1_md.jpeg'></img>,0,FALSE,NA,sub2
NA,html-keyboard-response,145,522745,0.0-10.0-0.65,"""event"",""trial"",""time""
""focus"",""0"",""0""
""fullscreenenter"",""0"",""5595""
","
","""event"",""trial"",""time""
""focus"",""0"",""0""
","""event"",""trial"",""time""
""fullscreenenter"",""0"",""5595""
","
",null,"<div style=""font-size:60px;"">+</div>",NA,null,fixation,2020-06-09T20:33:58Z,NA,NA,NA,NA,NA,sub2
NA,mars-trial,146,535273,0.0-10.0-1.65,"""event"",""trial"",""time""
""focus"",""0"",""0""
""fullscreenenter"",""0"",""5595""
","
","""event"",""trial"",""time""
""focus"",""0"",""0""
","""event"",""trial"",""time""
""fullscreenenter"",""0"",""5595""
","
",11925,<img style='border: 4px solid darkgrey;' src='img/tf1_66_M_ss2.jpeg'></img>,3,NA,exp,NA,1,<img src='img/tf1_66_T1_ss2_md.jpeg'></img>,0,FALSE,NA,sub2
NA,html-keyboard-response,147,535775,0.0-10.0-0.66,"""event"",""trial"",""time""
""focus"",""0"",""0""
""fullscreenenter"",""0"",""5595""
","
","""event"",""trial"",""time""
""focus"",""0"",""0""
","""event"",""trial"",""time""
""fullscreenenter"",""0"",""5595""
","
",null,"<div style=""font-size:60px;"">+</div>",NA,null,fixation,2020-06-09T20:34:11Z,NA,NA,NA,NA,NA,sub2
NA,mars-trial,148,539307,0.0-10.0-1.66,"""event"",""trial"",""time""
""focus"",""0"",""0""
""fullscreenenter"",""0"",""5595""
","
","""event"",""trial"",""time""
""focus"",""0"",""0""
","""event"",""trial"",""time""
""fullscreenenter"",""0"",""5595""
","
",NA,NA,NA,NA,exp,NA,NA,<img src='img/tf1_67_T1_ss3_md.jpeg'></img>,0,FALSE,NA,sub2
NA,html-keyboard-response,149,539809,0.0-10.0-0.67,"""event"",""trial"",""time""
""focus"",""0"",""0""
""fullscreenenter"",""0"",""5595""
","
","""event"",""trial"",""time""
""focus"",""0"",""0""
","""event"",""trial"",""time""
""fullscreenenter"",""0"",""5595""
","
",null,"<div style=""font-size:60px;"">+</div>",NA,null,fixation,2020-06-09T20:34:15Z,NA,NA,NA,NA,NA,sub2
NA,audio-button-response,150,544145,0.0-11.0,"""event"",""trial"",""time""
""focus"",""0"",""0""
""fullscreenenter"",""0"",""5595""
","
","""event"",""trial"",""time""
""focus"",""0"",""0""
","""event"",""trial"",""time""
""fullscreenenter"",""0"",""5595""
","
",4234.000000000116,audio/mars_instructions_slide5.wav,0,NA,NA,NA,NA,NA,NA,NA,NA,sub2
