success,trial_type,trial_index,time_elapsed,internal_node_id,interactions,blur_events,focus_events,fullscreenenter_events,fullscreenexit_events,rt,stimulus,button_pressed,key_press,part,timestamp,unshuffled_button,correct_response,correct_button,correct,value,subject_id
TRUE,fullscreen,0,4545,0.0-0.0,"""event"",""trial"",""time""
""fullscreenenter"",""0"",""3583""
","
","
","""event"",""trial"",""time""
""fullscreenenter"",""0"",""3583""
","
",NA,NA,NA,NA,NA,NA,NA,NA,NA,NA,NA,sub113
NA,pavlovia,1,4564,0.0-1.0,"""event"",""trial"",""time""
""fullscreenenter"",""0"",""3583""
","
","
","""event"",""trial"",""time""
""fullscreenenter"",""0"",""3583""
","
",NA,NA,NA,NA,NA,NA,NA,NA,NA,NA,NA,sub113
NA,html-button-response,2,6727,0.0-2.0,"""event"",""trial"",""time""
""fullscreenenter"",""0"",""3583""
","
","
","""event"",""trial"",""time""
""fullscreenenter"",""0"",""3583""
","
",2157.9600000113714,<p>Welcome! Press START to begin.</p><br>,0,NA,NA,NA,NA,NA,NA,NA,NA,sub113
NA,audio-button-response,3,28000,0.0-3.0,"""event"",""trial"",""time""
""fullscreenenter"",""0"",""3583""
","
","
","""event"",""trial"",""time""
""fullscreenenter"",""0"",""3583""
","
",21267.66499999212,audio/mars_instructions_slide2.wav,0,NA,NA,NA,NA,NA,NA,NA,NA,sub113
NA,audio-button-response,4,34162,0.0-4.0,"""event"",""trial"",""time""
""fullscreenenter"",""0"",""3583""
","
","
","""event"",""trial"",""time""
""fullscreenenter"",""0"",""3583""
","
",6158.770000009099,audio/mars_instructions_slide3.wav,0,NA,NA,NA,NA,NA,NA,NA,NA,sub113
NA,html-keyboard-response,5,34667,0.0-5.0-0.0,"""event"",""trial"",""time""
""fullscreenenter"",""0"",""3583""
","
","
","""event"",""trial"",""time""
""fullscreenenter"",""0"",""3583""
","
",null,"<div style=""font-size:60px;"">+</div>",NA,null,fixation,2020-07-02T22:21:00Z,NA,NA,NA,NA,NA,sub113
NA,mars-trial,6,46718,0.0-5.0-1.0,"""event"",""trial"",""time""
""fullscreenenter"",""0"",""3583""
","
","
","""event"",""trial"",""time""
""fullscreenenter"",""0"",""3583""
","
",9932.605000009062,<img style='border: 4px solid darkgrey;' src='practice/pt1_M1.png'></img>,1,NA,practice,NA,0,<img src='practice/pt1_T1.png'></img>,0,TRUE,NA,sub113
NA,html-keyboard-response,7,47225,0.0-6.0-0.0,"""event"",""trial"",""time""
""fullscreenenter"",""0"",""3583""
","
","
","""event"",""trial"",""time""
""fullscreenenter"",""0"",""3583""
","
",null,"<div style=""font-size:60px;"">+</div>",NA,null,fixation,2020-07-02T22:21:12Z,NA,NA,NA,NA,NA,sub113
NA,mars-trial,8,55417,0.0-6.0-1.0,"""event"",""trial"",""time""
""fullscreenenter"",""0"",""3583""
","
","
","""event"",""trial"",""time""
""fullscreenenter"",""0"",""3583""
","
",6081.200000015087,<img style='border: 4px solid darkgrey;' src='practice/pt2_M1.png'></img>,2,NA,practice,NA,0,<img src='practice/pt2_T1.png'></img>,0,TRUE,NA,sub113
NA,html-keyboard-response,9,55923,0.0-7.0-0.0,"""event"",""trial"",""time""
""fullscreenenter"",""0"",""3583""
","
","
","""event"",""trial"",""time""
""fullscreenenter"",""0"",""3583""
","
",null,"<div style=""font-size:60px;"">+</div>",NA,null,fixation,2020-07-02T22:21:21Z,NA,NA,NA,NA,NA,sub113
NA,mars-trial,10,61499,0.0-7.0-1.0,"""event"",""trial"",""time""
""fullscreenenter"",""0"",""3583""
","
","
","""event"",""trial"",""time""
""fullscreenenter"",""0"",""3583""
","
",3463.979999971343,<img style='border: 4px solid darkgrey;' src='practice/pt3_M1.png'></img>,1,NA,practice,NA,0,<img src='practice/pt3_T1.png'></img>,0,TRUE,NA,sub113
NA,audio-button-response,11,63947,0.0-8.0,"""event"",""trial"",""time""
""fullscreenenter"",""0"",""3583""
","
","
","""event"",""trial"",""time""
""fullscreenenter"",""0"",""3583""
","
",2444.000000017695,audio/mars_instructions_slide4.wav,0,NA,NA,NA,NA,NA,NA,NA,NA,sub113
NA,call-function,12,63949,0.0-9.0,"""event"",""trial"",""time""
""fullscreenenter"",""0"",""3583""
","
","
","""event"",""trial"",""time""
""fullscreenenter"",""0"",""3583""
","
",NA,NA,NA,NA,NA,NA,NA,NA,NA,NA,NA,sub113
NA,html-keyboard-response,13,64451,0.0-10.0-0.0,"""event"",""trial"",""time""
""fullscreenenter"",""0"",""3583""
","
","
","""event"",""trial"",""time""
""fullscreenenter"",""0"",""3583""
","
",null,"<div style=""font-size:60px;"">+</div>",NA,null,fixation,2020-07-02T22:21:29Z,NA,NA,NA,NA,NA,sub113
NA,mars-trial,14,67341,0.0-10.0-1.0,"""event"",""trial"",""time""
""fullscreenenter"",""0"",""3583""
","
","
","""event"",""trial"",""time""
""fullscreenenter"",""0"",""3583""
","
",2276.5650000073947,<img style='border: 4px solid darkgrey;' src='img/tf1_1_M_ss3.jpeg'></img>,2,NA,exp,NA,0,<img src='img/tf1_1_T1_ss3_md.jpeg'></img>,0,TRUE,NA,sub113
NA,html-keyboard-response,15,67845,0.0-10.0-0.1,"""event"",""trial"",""time""
""fullscreenenter"",""0"",""3583""
","
","
","""event"",""trial"",""time""
""fullscreenenter"",""0"",""3583""
","
",null,"<div style=""font-size:60px;"">+</div>",NA,null,fixation,2020-07-02T22:21:33Z,NA,NA,NA,NA,NA,sub113
NA,mars-trial,16,70486,0.0-10.0-1.1,"""event"",""trial"",""time""
""fullscreenenter"",""0"",""3583""
","
","
","""event"",""trial"",""time""
""fullscreenenter"",""0"",""3583""
","
",2028.6749999795575,<img style='border: 4px solid darkgrey;' src='img/tf1_2_M_ss1.jpeg'></img>,2,NA,exp,NA,0,<img src='img/tf1_2_T1_ss1_md.jpeg'></img>,0,TRUE,NA,sub113
NA,html-keyboard-response,17,70990,0.0-10.0-0.2,"""event"",""trial"",""time""
""fullscreenenter"",""0"",""3583""
","
","
","""event"",""trial"",""time""
""fullscreenenter"",""0"",""3583""
","
",null,"<div style=""font-size:60px;"">+</div>",NA,null,fixation,2020-07-02T22:21:36Z,NA,NA,NA,NA,NA,sub113
NA,mars-trial,18,73880,0.0-10.0-1.2,"""event"",""trial"",""time""
""fullscreenenter"",""0"",""3583""
","
","
","""event"",""trial"",""time""
""fullscreenenter"",""0"",""3583""
","
",2278.249999973923,<img style='border: 4px solid darkgrey;' src='img/tf1_3_M_ss2.jpeg'></img>,3,NA,exp,NA,0,<img src='img/tf1_3_T1_ss2_md.jpeg'></img>,0,TRUE,NA,sub113
NA,html-keyboard-response,19,74384,0.0-10.0-0.3,"""event"",""trial"",""time""
""fullscreenenter"",""0"",""3583""
","
","
","""event"",""trial"",""time""
""fullscreenenter"",""0"",""3583""
","
",null,"<div style=""font-size:60px;"">+</div>",NA,null,fixation,2020-07-02T22:21:39Z,NA,NA,NA,NA,NA,sub113
NA,mars-trial,20,77240,0.0-10.0-1.3,"""event"",""trial"",""time""
""fullscreenenter"",""0"",""3583""
","
","
","""event"",""trial"",""time""
""fullscreenenter"",""0"",""3583""
","
",2243.2950000220444,<img style='border: 4px solid darkgrey;' src='img/tf1_4_M_ss3.jpeg'></img>,0,NA,exp,NA,0,<img src='img/tf1_4_T1_ss3_md.jpeg'></img>,0,TRUE,NA,sub113
NA,html-keyboard-response,21,77744,0.0-10.0-0.4,"""event"",""trial"",""time""
""fullscreenenter"",""0"",""3583""
","
","
","""event"",""trial"",""time""
""fullscreenenter"",""0"",""3583""
","
",null,"<div style=""font-size:60px;"">+</div>",NA,null,fixation,2020-07-02T22:21:43Z,NA,NA,NA,NA,NA,sub113
NA,mars-trial,22,81076,0.0-10.0-1.4,"""event"",""trial"",""time""
""fullscreenenter"",""0"",""3583""
","
","
","""event"",""trial"",""time""
""fullscreenenter"",""0"",""3583""
","
",2720.560000016121,<img style='border: 4px solid darkgrey;' src='img/tf1_5_M_ss1.jpeg'></img>,0,NA,exp,NA,2,<img src='img/tf1_5_T1_ss1_md.jpeg'></img>,0,FALSE,NA,sub113
NA,html-keyboard-response,23,81582,0.0-10.0-0.5,"""event"",""trial"",""time""
""fullscreenenter"",""0"",""3583""
","
","
","""event"",""trial"",""time""
""fullscreenenter"",""0"",""3583""
","
",null,"<div style=""font-size:60px;"">+</div>",NA,null,fixation,2020-07-02T22:21:47Z,NA,NA,NA,NA,NA,sub113
NA,mars-trial,24,92619,0.0-10.0-1.5,"""event"",""trial"",""time""
""fullscreenenter"",""0"",""3583""
","
","
","""event"",""trial"",""time""
""fullscreenenter"",""0"",""3583""
","
",10423.979999992298,<img style='border: 4px solid darkgrey;' src='img/tf1_6_M_ss2.jpeg'></img>,3,NA,exp,NA,0,<img src='img/tf1_6_T1_ss2_md.jpeg'></img>,0,TRUE,NA,sub113
NA,html-keyboard-response,25,93123,0.0-10.0-0.6,"""event"",""trial"",""time""
""fullscreenenter"",""0"",""3583""
","
","
","""event"",""trial"",""time""
""fullscreenenter"",""0"",""3583""
","
",null,"<div style=""font-size:60px;"">+</div>",NA,null,fixation,2020-07-02T22:21:58Z,NA,NA,NA,NA,NA,sub113
NA,mars-trial,26,97835,0.0-10.0-1.6,"""event"",""trial"",""time""
""fullscreenenter"",""0"",""3583""
","
","
","""event"",""trial"",""time""
""fullscreenenter"",""0"",""3583""
","
",4099.784999998519,<img style='border: 4px solid darkgrey;' src='img/tf1_7_M_ss3.jpeg'></img>,0,NA,exp,NA,0,<img src='img/tf1_7_T1_ss3_md.jpeg'></img>,0,TRUE,NA,sub113
NA,html-keyboard-response,27,98339,0.0-10.0-0.7,"""event"",""trial"",""time""
""fullscreenenter"",""0"",""3583""
","
","
","""event"",""trial"",""time""
""fullscreenenter"",""0"",""3583""
","
",null,"<div style=""font-size:60px;"">+</div>",NA,null,fixation,2020-07-02T22:22:03Z,NA,NA,NA,NA,NA,sub113
NA,mars-trial,28,109669,0.0-10.0-1.7,"""event"",""trial"",""time""
""fullscreenenter"",""0"",""3583""
","
","
","""event"",""trial"",""time""
""fullscreenenter"",""0"",""3583""
","
",10717.634999979055,<img style='border: 4px solid darkgrey;' src='img/tf1_8_M_ss1.jpeg'></img>,1,NA,exp,NA,2,<img src='img/tf1_8_T1_ss1_md.jpeg'></img>,0,FALSE,NA,sub113
NA,html-keyboard-response,29,110172,0.0-10.0-0.8,"""event"",""trial"",""time""
""fullscreenenter"",""0"",""3583""
","
","
","""event"",""trial"",""time""
""fullscreenenter"",""0"",""3583""
","
",null,"<div style=""font-size:60px;"">+</div>",NA,null,fixation,2020-07-02T22:22:15Z,NA,NA,NA,NA,NA,sub113
NA,mars-trial,30,121524,0.0-10.0-1.8,"""event"",""trial"",""time""
""fullscreenenter"",""0"",""3583""
","
","
","""event"",""trial"",""time""
""fullscreenenter"",""0"",""3583""
","
",10739.90000001504,<img style='border: 4px solid darkgrey;' src='img/tf1_9_M_ss2.jpeg'></img>,0,NA,exp,NA,0,<img src='img/tf1_9_T1_ss2_md.jpeg'></img>,0,TRUE,NA,sub113
NA,html-keyboard-response,31,122028,0.0-10.0-0.9,"""event"",""trial"",""time""
""fullscreenenter"",""0"",""3583""
","
","
","""event"",""trial"",""time""
""fullscreenenter"",""0"",""3583""
","
",null,"<div style=""font-size:60px;"">+</div>",NA,null,fixation,2020-07-02T22:22:27Z,NA,NA,NA,NA,NA,sub113
NA,mars-trial,32,135797,0.0-10.0-1.9,"""event"",""trial"",""time""
""fullscreenenter"",""0"",""3583""
","
","
","""event"",""trial"",""time""
""fullscreenenter"",""0"",""3583""
","
",13156.849999999395,<img style='border: 4px solid darkgrey;' src='img/tf1_10_M_ss3.jpeg'></img>,3,NA,exp,NA,0,<img src='img/tf1_10_T1_ss3_md.jpeg'></img>,0,TRUE,NA,sub113
NA,html-keyboard-response,33,136301,0.0-10.0-0.10,"""event"",""trial"",""time""
""fullscreenenter"",""0"",""3583""
","
","
","""event"",""trial"",""time""
""fullscreenenter"",""0"",""3583""
","
",null,"<div style=""font-size:60px;"">+</div>",NA,null,fixation,2020-07-02T22:22:41Z,NA,NA,NA,NA,NA,sub113
NA,mars-trial,34,148550,0.0-10.0-1.10,"""event"",""trial"",""time""
""fullscreenenter"",""0"",""3583""
","
","
","""event"",""trial"",""time""
""fullscreenenter"",""0"",""3583""
","
",11636.599999997998,<img style='border: 4px solid darkgrey;' src='img/tf1_11_M_ss1.jpeg'></img>,2,NA,exp,NA,0,<img src='img/tf1_11_T1_ss1_md.jpeg'></img>,0,TRUE,NA,sub113
NA,html-keyboard-response,35,149055,0.0-10.0-0.11,"""event"",""trial"",""time""
""fullscreenenter"",""0"",""3583""
","
","
","""event"",""trial"",""time""
""fullscreenenter"",""0"",""3583""
","
",null,"<div style=""font-size:60px;"">+</div>",NA,null,fixation,2020-07-02T22:22:54Z,NA,NA,NA,NA,NA,sub113
NA,mars-trial,36,151464,0.0-10.0-1.11,"""event"",""trial"",""time""
""fullscreenenter"",""0"",""3583""
","
","
","""event"",""trial"",""time""
""fullscreenenter"",""0"",""3583""
","
",1796.2999999872409,<img style='border: 4px solid darkgrey;' src='img/tf1_12_M_ss2.jpeg'></img>,1,NA,exp,NA,3,<img src='img/tf1_12_T1_ss2_md.jpeg'></img>,0,FALSE,NA,sub113
NA,html-keyboard-response,37,151968,0.0-10.0-0.12,"""event"",""trial"",""time""
""fullscreenenter"",""0"",""3583""
","
","
","""event"",""trial"",""time""
""fullscreenenter"",""0"",""3583""
","
",null,"<div style=""font-size:60px;"">+</div>",NA,null,fixation,2020-07-02T22:22:57Z,NA,NA,NA,NA,NA,sub113
NA,mars-trial,38,163169,0.0-10.0-1.12,"""event"",""trial"",""time""
""fullscreenenter"",""0"",""3583""
","
","
","""event"",""trial"",""time""
""fullscreenenter"",""0"",""3583""
","
",10590.479999984382,<img style='border: 4px solid darkgrey;' src='img/tf1_13_M_ss3.jpeg'></img>,0,NA,exp,NA,2,<img src='img/tf1_13_T1_ss3_md.jpeg'></img>,0,FALSE,NA,sub113
NA,html-keyboard-response,39,163674,0.0-10.0-0.13,"""event"",""trial"",""time""
""fullscreenenter"",""0"",""3583""
","
","
","""event"",""trial"",""time""
""fullscreenenter"",""0"",""3583""
","
",null,"<div style=""font-size:60px;"">+</div>",NA,null,fixation,2020-07-02T22:23:09Z,NA,NA,NA,NA,NA,sub113
NA,mars-trial,40,165956,0.0-10.0-1.13,"""event"",""trial"",""time""
""fullscreenenter"",""0"",""3583""
","
","
","""event"",""trial"",""time""
""fullscreenenter"",""0"",""3583""
","
",1668.9750000077765,<img style='border: 4px solid darkgrey;' src='img/tf1_14_M_ss1.jpeg'></img>,2,NA,exp,NA,3,<img src='img/tf1_14_T1_ss1_md.jpeg'></img>,0,FALSE,NA,sub113
NA,html-keyboard-response,41,166460,0.0-10.0-0.14,"""event"",""trial"",""time""
""fullscreenenter"",""0"",""3583""
","
","
","""event"",""trial"",""time""
""fullscreenenter"",""0"",""3583""
","
",null,"<div style=""font-size:60px;"">+</div>",NA,null,fixation,2020-07-02T22:23:11Z,NA,NA,NA,NA,NA,sub113
NA,mars-trial,42,168139,0.0-10.0-1.14,"""event"",""trial"",""time""
""fullscreenenter"",""0"",""3583""
","
","
","""event"",""trial"",""time""
""fullscreenenter"",""0"",""3583""
","
",1066.8799999984913,<img style='border: 4px solid darkgrey;' src='img/tf1_15_M_ss2.jpeg'></img>,1,NA,exp,NA,2,<img src='img/tf1_15_T1_ss2_md.jpeg'></img>,0,FALSE,NA,sub113
NA,html-keyboard-response,43,168642,0.0-10.0-0.15,"""event"",""trial"",""time""
""fullscreenenter"",""0"",""3583""
","
","
","""event"",""trial"",""time""
""fullscreenenter"",""0"",""3583""
","
",null,"<div style=""font-size:60px;"">+</div>",NA,null,fixation,2020-07-02T22:23:14Z,NA,NA,NA,NA,NA,sub113
NA,mars-trial,44,170412,0.0-10.0-1.15,"""event"",""trial"",""time""
""fullscreenenter"",""0"",""3583""
","
","
","""event"",""trial"",""time""
""fullscreenenter"",""0"",""3583""
","
",1158.6949999909848,<img style='border: 4px solid darkgrey;' src='img/tf1_16_M_ss3.jpeg'></img>,3,NA,exp,NA,1,<img src='img/tf1_16_T1_ss3_md.jpeg'></img>,0,FALSE,NA,sub113
NA,html-keyboard-response,45,170915,0.0-10.0-0.16,"""event"",""trial"",""time""
""fullscreenenter"",""0"",""3583""
","
","
","""event"",""trial"",""time""
""fullscreenenter"",""0"",""3583""
","
",null,"<div style=""font-size:60px;"">+</div>",NA,null,fixation,2020-07-02T22:23:16Z,NA,NA,NA,NA,NA,sub113
NA,mars-trial,46,179504,0.0-10.0-1.16,"""event"",""trial"",""time""
""fullscreenenter"",""0"",""3583""
","
","
","""event"",""trial"",""time""
""fullscreenenter"",""0"",""3583""
","
",7978.094999998575,<img style='border: 4px solid darkgrey;' src='img/tf1_17_M_ss1.jpeg'></img>,3,NA,exp,NA,1,<img src='img/tf1_17_T1_ss1_md.jpeg'></img>,0,FALSE,NA,sub113
NA,html-keyboard-response,47,180010,0.0-10.0-0.17,"""event"",""trial"",""time""
""fullscreenenter"",""0"",""3583""
","
","
","""event"",""trial"",""time""
""fullscreenenter"",""0"",""3583""
","
",null,"<div style=""font-size:60px;"">+</div>",NA,null,fixation,2020-07-02T22:23:25Z,NA,NA,NA,NA,NA,sub113
NA,mars-trial,48,182837,0.0-10.0-1.17,"""event"",""trial"",""time""
""fullscreenenter"",""0"",""3583""
","
","
","""event"",""trial"",""time""
""fullscreenenter"",""0"",""3583""
","
",2214.6150000044145,<img style='border: 4px solid darkgrey;' src='img/tf1_18_M_ss2.jpeg'></img>,2,NA,exp,NA,2,<img src='img/tf1_18_T1_ss2_md.jpeg'></img>,0,FALSE,NA,sub113
NA,html-keyboard-response,49,183340,0.0-10.0-0.18,"""event"",""trial"",""time""
""fullscreenenter"",""0"",""3583""
","
","
","""event"",""trial"",""time""
""fullscreenenter"",""0"",""3583""
","
",null,"<div style=""font-size:60px;"">+</div>",NA,null,fixation,2020-07-02T22:23:28Z,NA,NA,NA,NA,NA,sub113
NA,mars-trial,50,193626,0.0-10.0-1.18,"""event"",""trial"",""time""
""fullscreenenter"",""0"",""3583""
","
","
","""event"",""trial"",""time""
""fullscreenenter"",""0"",""3583""
","
",9675.075000006473,<img style='border: 4px solid darkgrey;' src='img/tf1_19_M_ss3.jpeg'></img>,2,NA,exp,NA,0,<img src='img/tf1_19_T1_ss3_md.jpeg'></img>,0,TRUE,NA,sub113
NA,html-keyboard-response,51,194130,0.0-10.0-0.19,"""event"",""trial"",""time""
""fullscreenenter"",""0"",""3583""
","
","
","""event"",""trial"",""time""
""fullscreenenter"",""0"",""3583""
","
",null,"<div style=""font-size:60px;"">+</div>",NA,null,fixation,2020-07-02T22:23:39Z,NA,NA,NA,NA,NA,sub113
NA,mars-trial,52,195809,0.0-10.0-1.19,"""event"",""trial"",""time""
""fullscreenenter"",""0"",""3583""
","
","
","""event"",""trial"",""time""
""fullscreenenter"",""0"",""3583""
","
",1066.770000004908,<img style='border: 4px solid darkgrey;' src='img/tf1_20_M_ss1.jpeg'></img>,3,NA,exp,NA,1,<img src='img/tf1_20_T1_ss1_md.jpeg'></img>,0,FALSE,NA,sub113
NA,html-keyboard-response,53,196312,0.0-10.0-0.20,"""event"",""trial"",""time""
""fullscreenenter"",""0"",""3583""
","
","
","""event"",""trial"",""time""
""fullscreenenter"",""0"",""3583""
","
",null,"<div style=""font-size:60px;"">+</div>",NA,null,fixation,2020-07-02T22:23:41Z,NA,NA,NA,NA,NA,sub113
NA,mars-trial,54,213656,0.0-10.0-1.20,"""event"",""trial"",""time""
""fullscreenenter"",""0"",""3583""
","
","
","""event"",""trial"",""time""
""fullscreenenter"",""0"",""3583""
","
",16732.28999998537,<img style='border: 4px solid darkgrey;' src='img/tf1_21_M_ss2.jpeg'></img>,0,NA,exp,NA,3,<img src='img/tf1_21_T1_ss2_md.jpeg'></img>,0,FALSE,NA,sub113
NA,html-keyboard-response,55,214160,0.0-10.0-0.21,"""event"",""trial"",""time""
""fullscreenenter"",""0"",""3583""
","
","
","""event"",""trial"",""time""
""fullscreenenter"",""0"",""3583""
","
",null,"<div style=""font-size:60px;"">+</div>",NA,null,fixation,2020-07-02T22:23:59Z,NA,NA,NA,NA,NA,sub113
NA,mars-trial,56,224476,0.0-10.0-1.21,"""event"",""trial"",""time""
""fullscreenenter"",""0"",""3583""
","
","
","""event"",""trial"",""time""
""fullscreenenter"",""0"",""3583""
","
",9704.64000001084,<img style='border: 4px solid darkgrey;' src='img/tf1_22_M_ss3.jpeg'></img>,3,NA,exp,NA,0,<img src='img/tf1_22_T1_ss3_md.jpeg'></img>,0,TRUE,NA,sub113
NA,html-keyboard-response,57,224980,0.0-10.0-0.22,"""event"",""trial"",""time""
""fullscreenenter"",""0"",""3583""
","
","
","""event"",""trial"",""time""
""fullscreenenter"",""0"",""3583""
","
",null,"<div style=""font-size:60px;"">+</div>",NA,null,fixation,2020-07-02T22:24:10Z,NA,NA,NA,NA,NA,sub113
NA,mars-trial,58,229921,0.0-10.0-1.22,"""event"",""trial"",""time""
""fullscreenenter"",""0"",""3583""
","
","
","""event"",""trial"",""time""
""fullscreenenter"",""0"",""3583""
","
",4328.724999999395,<img style='border: 4px solid darkgrey;' src='img/tf1_23_M_ss1.jpeg'></img>,3,NA,exp,NA,2,<img src='img/tf1_23_T1_ss1_md.jpeg'></img>,0,FALSE,NA,sub113
NA,html-keyboard-response,59,230426,0.0-10.0-0.23,"""event"",""trial"",""time""
""fullscreenenter"",""0"",""3583""
","
","
","""event"",""trial"",""time""
""fullscreenenter"",""0"",""3583""
","
",null,"<div style=""font-size:60px;"">+</div>",NA,null,fixation,2020-07-02T22:24:15Z,NA,NA,NA,NA,NA,sub113
NA,mars-trial,60,232253,0.0-10.0-1.23,"""event"",""trial"",""time""
""fullscreenenter"",""0"",""3583""
","
","
","""event"",""trial"",""time""
""fullscreenenter"",""0"",""3583""
","
",1216.8449999880977,<img style='border: 4px solid darkgrey;' src='img/tf1_24_M_ss2.jpeg'></img>,2,NA,exp,NA,0,<img src='img/tf1_24_T1_ss2_md.jpeg'></img>,0,TRUE,NA,sub113
NA,html-keyboard-response,61,232756,0.0-10.0-0.24,"""event"",""trial"",""time""
""fullscreenenter"",""0"",""3583""
","
","
","""event"",""trial"",""time""
""fullscreenenter"",""0"",""3583""
","
",null,"<div style=""font-size:60px;"">+</div>",NA,null,fixation,2020-07-02T22:24:18Z,NA,NA,NA,NA,NA,sub113
NA,mars-trial,62,243951,0.0-10.0-1.24,"""event"",""trial"",""time""
""fullscreenenter"",""0"",""3583""
","
","
","""event"",""trial"",""time""
""fullscreenenter"",""0"",""3583""
","
",10579.139999987092,<img style='border: 4px solid darkgrey;' src='img/tf1_25_M_ss3.jpeg'></img>,1,NA,exp,NA,1,<img src='img/tf1_25_T1_ss3_md.jpeg'></img>,0,FALSE,NA,sub113
NA,html-keyboard-response,63,244456,0.0-10.0-0.25,"""event"",""trial"",""time""
""fullscreenenter"",""0"",""3583""
","
","
","""event"",""trial"",""time""
""fullscreenenter"",""0"",""3583""
","
",null,"<div style=""font-size:60px;"">+</div>",NA,null,fixation,2020-07-02T22:24:29Z,NA,NA,NA,NA,NA,sub113
NA,mars-trial,64,246146,0.0-10.0-1.25,"""event"",""trial"",""time""
""fullscreenenter"",""0"",""3583""
","
","
","""event"",""trial"",""time""
""fullscreenenter"",""0"",""3583""
","
",1078.7150000105612,<img style='border: 4px solid darkgrey;' src='img/tf1_26_M_ss1.jpeg'></img>,0,NA,exp,NA,2,<img src='img/tf1_26_T1_ss1_md.jpeg'></img>,0,FALSE,NA,sub113
NA,html-keyboard-response,65,246651,0.0-10.0-0.26,"""event"",""trial"",""time""
""fullscreenenter"",""0"",""3583""
","
","
","""event"",""trial"",""time""
""fullscreenenter"",""0"",""3583""
","
",null,"<div style=""font-size:60px;"">+</div>",NA,null,fixation,2020-07-02T22:24:32Z,NA,NA,NA,NA,NA,sub113
NA,mars-trial,66,247900,0.0-10.0-1.26,"""event"",""trial"",""time""
""fullscreenenter"",""0"",""3583""
","
","
","""event"",""trial"",""time""
""fullscreenenter"",""0"",""3583""
","
",638.7950000062119,<img style='border: 4px solid darkgrey;' src='img/tf1_27_M_ss2.jpeg'></img>,2,NA,exp,NA,0,<img src='img/tf1_27_T1_ss2_md.jpeg'></img>,0,TRUE,NA,sub113
NA,html-keyboard-response,67,248402,0.0-10.0-0.27,"""event"",""trial"",""time""
""fullscreenenter"",""0"",""3583""
","
","
","""event"",""trial"",""time""
""fullscreenenter"",""0"",""3583""
","
",null,"<div style=""font-size:60px;"">+</div>",NA,null,fixation,2020-07-02T22:24:33Z,NA,NA,NA,NA,NA,sub113
NA,mars-trial,68,251517,0.0-10.0-1.27,"""event"",""trial"",""time""
""fullscreenenter"",""0"",""3583""
","
","
","""event"",""trial"",""time""
""fullscreenenter"",""0"",""3583""
","
",2504.015000013169,<img style='border: 4px solid darkgrey;' src='img/tf1_28_M_ss3.jpeg'></img>,1,NA,exp,NA,1,<img src='img/tf1_28_T1_ss3_md.jpeg'></img>,0,FALSE,NA,sub113
NA,html-keyboard-response,69,252020,0.0-10.0-0.28,"""event"",""trial"",""time""
""fullscreenenter"",""0"",""3583""
","
","
","""event"",""trial"",""time""
""fullscreenenter"",""0"",""3583""
","
",null,"<div style=""font-size:60px;"">+</div>",NA,null,fixation,2020-07-02T22:24:37Z,NA,NA,NA,NA,NA,sub113
NA,mars-trial,70,253332,0.0-10.0-1.28,"""event"",""trial"",""time""
""fullscreenenter"",""0"",""3583""
","
","
","""event"",""trial"",""time""
""fullscreenenter"",""0"",""3583""
","
",696.5150000178255,<img style='border: 4px solid darkgrey;' src='img/tf1_29_M_ss1.jpeg'></img>,2,NA,exp,NA,2,<img src='img/tf1_29_T1_ss1_md.jpeg'></img>,0,FALSE,NA,sub113
NA,html-keyboard-response,71,253835,0.0-10.0-0.29,"""event"",""trial"",""time""
""fullscreenenter"",""0"",""3583""
","
","
","""event"",""trial"",""time""
""fullscreenenter"",""0"",""3583""
","
",null,"<div style=""font-size:60px;"">+</div>",NA,null,fixation,2020-07-02T22:24:39Z,NA,NA,NA,NA,NA,sub113
NA,mars-trial,72,255203,0.0-10.0-1.29,"""event"",""trial"",""time""
""fullscreenenter"",""0"",""3583""
","
","
","""event"",""trial"",""time""
""fullscreenenter"",""0"",""3583""
","
",757.9850000038277,<img style='border: 4px solid darkgrey;' src='img/tf1_30_M_ss2.jpeg'></img>,0,NA,exp,NA,3,<img src='img/tf1_30_T1_ss2_md.jpeg'></img>,0,FALSE,NA,sub113
NA,html-keyboard-response,73,255706,0.0-10.0-0.30,"""event"",""trial"",""time""
""fullscreenenter"",""0"",""3583""
","
","
","""event"",""trial"",""time""
""fullscreenenter"",""0"",""3583""
","
",null,"<div style=""font-size:60px;"">+</div>",NA,null,fixation,2020-07-02T22:24:41Z,NA,NA,NA,NA,NA,sub113
NA,mars-trial,74,257289,0.0-10.0-1.30,"""event"",""trial"",""time""
""fullscreenenter"",""0"",""3583""
","
","
","""event"",""trial"",""time""
""fullscreenenter"",""0"",""3583""
","
",972.5650000036694,<img style='border: 4px solid darkgrey;' src='img/tf1_31_M_ss3.jpeg'></img>,1,NA,exp,NA,0,<img src='img/tf1_31_T1_ss3_md.jpeg'></img>,0,TRUE,NA,sub113
NA,html-keyboard-response,75,257792,0.0-10.0-0.31,"""event"",""trial"",""time""
""fullscreenenter"",""0"",""3583""
","
","
","""event"",""trial"",""time""
""fullscreenenter"",""0"",""3583""
","
",null,"<div style=""font-size:60px;"">+</div>",NA,null,fixation,2020-07-02T22:24:43Z,NA,NA,NA,NA,NA,sub113
NA,mars-trial,76,259209,0.0-10.0-1.31,"""event"",""trial"",""time""
""fullscreenenter"",""0"",""3583""
","
","
","""event"",""trial"",""time""
""fullscreenenter"",""0"",""3583""
","
",805.770000006305,<img style='border: 4px solid darkgrey;' src='img/tf1_32_M_ss1.jpeg'></img>,2,NA,exp,NA,3,<img src='img/tf1_32_T1_ss1_md.jpeg'></img>,0,FALSE,NA,sub113
NA,html-keyboard-response,77,259713,0.0-10.0-0.32,"""event"",""trial"",""time""
""fullscreenenter"",""0"",""3583""
","
","
","""event"",""trial"",""time""
""fullscreenenter"",""0"",""3583""
","
",null,"<div style=""font-size:60px;"">+</div>",NA,null,fixation,2020-07-02T22:24:45Z,NA,NA,NA,NA,NA,sub113
NA,mars-trial,78,266802,0.0-10.0-1.32,"""event"",""trial"",""time""
""fullscreenenter"",""0"",""3583""
","
","
","""event"",""trial"",""time""
""fullscreenenter"",""0"",""3583""
","
",6478.69499999797,<img style='border: 4px solid darkgrey;' src='img/tf1_33_M_ss2.jpeg'></img>,0,NA,exp,NA,2,<img src='img/tf1_33_T1_ss2_md.jpeg'></img>,0,FALSE,NA,sub113
NA,html-keyboard-response,79,267306,0.0-10.0-0.33,"""event"",""trial"",""time""
""fullscreenenter"",""0"",""3583""
","
","
","""event"",""trial"",""time""
""fullscreenenter"",""0"",""3583""
","
",null,"<div style=""font-size:60px;"">+</div>",NA,null,fixation,2020-07-02T22:24:52Z,NA,NA,NA,NA,NA,sub113
NA,mars-trial,80,269574,0.0-10.0-1.33,"""event"",""trial"",""time""
""fullscreenenter"",""0"",""3583""
","
","
","""event"",""trial"",""time""
""fullscreenenter"",""0"",""3583""
","
",1654.8899999761488,<img style='border: 4px solid darkgrey;' src='img/tf1_34_M_ss3.jpeg'></img>,1,NA,exp,NA,3,<img src='img/tf1_34_T1_ss3_md.jpeg'></img>,0,FALSE,NA,sub113
NA,html-keyboard-response,81,270078,0.0-10.0-0.34,"""event"",""trial"",""time""
""fullscreenenter"",""0"",""3583""
","
","
","""event"",""trial"",""time""
""fullscreenenter"",""0"",""3583""
","
",null,"<div style=""font-size:60px;"">+</div>",NA,null,fixation,2020-07-02T22:24:55Z,NA,NA,NA,NA,NA,sub113
NA,mars-trial,82,275074,0.0-10.0-1.34,"""event"",""trial"",""time""
""fullscreenenter"",""0"",""3583""
","
","
","""event"",""trial"",""time""
""fullscreenenter"",""0"",""3583""
","
",4385.7500000158325,<img style='border: 4px solid darkgrey;' src='img/tf1_35_M_ss1.jpeg'></img>,2,NA,exp,NA,1,<img src='img/tf1_35_T1_ss1_md.jpeg'></img>,0,FALSE,NA,sub113
NA,html-keyboard-response,83,275578,0.0-10.0-0.35,"""event"",""trial"",""time""
""fullscreenenter"",""0"",""3583""
","
","
","""event"",""trial"",""time""
""fullscreenenter"",""0"",""3583""
","
",null,"<div style=""font-size:60px;"">+</div>",NA,null,fixation,2020-07-02T22:25:01Z,NA,NA,NA,NA,NA,sub113
NA,mars-trial,84,276887,0.0-10.0-1.35,"""event"",""trial"",""time""
""fullscreenenter"",""0"",""3583""
","
","
","""event"",""trial"",""time""
""fullscreenenter"",""0"",""3583""
","
",697.7849999966566,<img style='border: 4px solid darkgrey;' src='img/tf1_36_M_ss2.jpeg'></img>,3,NA,exp,NA,3,<img src='img/tf1_36_T1_ss2_md.jpeg'></img>,0,FALSE,NA,sub113
NA,html-keyboard-response,85,277389,0.0-10.0-0.36,"""event"",""trial"",""time""
""fullscreenenter"",""0"",""3583""
","
","
","""event"",""trial"",""time""
""fullscreenenter"",""0"",""3583""
","
",null,"<div style=""font-size:60px;"">+</div>",NA,null,fixation,2020-07-02T22:25:02Z,NA,NA,NA,NA,NA,sub113
NA,mars-trial,86,278718,0.0-10.0-1.36,"""event"",""trial"",""time""
""fullscreenenter"",""0"",""3583""
","
","
","""event"",""trial"",""time""
""fullscreenenter"",""0"",""3583""
","
",718.9000000071246,<img style='border: 4px solid darkgrey;' src='img/tf1_37_M_ss3.jpeg'></img>,0,NA,exp,NA,3,<img src='img/tf1_37_T1_ss3_md.jpeg'></img>,0,FALSE,NA,sub113
NA,html-keyboard-response,87,279221,0.0-10.0-0.37,"""event"",""trial"",""time""
""fullscreenenter"",""0"",""3583""
","
","
","""event"",""trial"",""time""
""fullscreenenter"",""0"",""3583""
","
",null,"<div style=""font-size:60px;"">+</div>",NA,null,fixation,2020-07-02T22:25:04Z,NA,NA,NA,NA,NA,sub113
NA,mars-trial,88,284455,0.0-10.0-1.37,"""event"",""trial"",""time""
""fullscreenenter"",""0"",""3583""
","
","
","""event"",""trial"",""time""
""fullscreenenter"",""0"",""3583""
","
",4623.759999987669,<img style='border: 4px solid darkgrey;' src='img/tf1_38_M_ss1.jpeg'></img>,3,NA,exp,NA,0,<img src='img/tf1_38_T1_ss1_md.jpeg'></img>,0,TRUE,NA,sub113
NA,html-keyboard-response,89,284959,0.0-10.0-0.38,"""event"",""trial"",""time""
""fullscreenenter"",""0"",""3583""
","
","
","""event"",""trial"",""time""
""fullscreenenter"",""0"",""3583""
","
",null,"<div style=""font-size:60px;"">+</div>",NA,null,fixation,2020-07-02T22:25:10Z,NA,NA,NA,NA,NA,sub113
NA,mars-trial,90,287157,0.0-10.0-1.38,"""event"",""trial"",""time""
""fullscreenenter"",""0"",""3583""
","
","
","""event"",""trial"",""time""
""fullscreenenter"",""0"",""3583""
","
",1585.6649999914225,<img style='border: 4px solid darkgrey;' src='img/tf1_39_M_ss2.jpeg'></img>,1,NA,exp,NA,0,<img src='img/tf1_39_T1_ss2_md.jpeg'></img>,0,TRUE,NA,sub113
NA,html-keyboard-response,91,287661,0.0-10.0-0.39,"""event"",""trial"",""time""
""fullscreenenter"",""0"",""3583""
","
","
","""event"",""trial"",""time""
""fullscreenenter"",""0"",""3583""
","
",null,"<div style=""font-size:60px;"">+</div>",NA,null,fixation,2020-07-02T22:25:13Z,NA,NA,NA,NA,NA,sub113
NA,mars-trial,92,290305,0.0-10.0-1.39,"""event"",""trial"",""time""
""fullscreenenter"",""0"",""3583""
","
","
","""event"",""trial"",""time""
""fullscreenenter"",""0"",""3583""
","
",2034.2099999834318,<img style='border: 4px solid darkgrey;' src='img/tf1_40_M_ss3.jpeg'></img>,2,NA,exp,NA,0,<img src='img/tf1_40_T1_ss3_md.jpeg'></img>,0,TRUE,NA,sub113
NA,html-keyboard-response,93,290808,0.0-10.0-0.40,"""event"",""trial"",""time""
""fullscreenenter"",""0"",""3583""
","
","
","""event"",""trial"",""time""
""fullscreenenter"",""0"",""3583""
","
",null,"<div style=""font-size:60px;"">+</div>",NA,null,fixation,2020-07-02T22:25:16Z,NA,NA,NA,NA,NA,sub113
NA,mars-trial,94,297339,0.0-10.0-1.40,"""event"",""trial"",""time""
""fullscreenenter"",""0"",""3583""
","
","
","""event"",""trial"",""time""
""fullscreenenter"",""0"",""3583""
","
",5920.20500000217,<img style='border: 4px solid darkgrey;' src='img/tf1_41_M_ss1.jpeg'></img>,1,NA,exp,NA,0,<img src='img/tf1_41_T1_ss1_md.jpeg'></img>,0,TRUE,NA,sub113
NA,html-keyboard-response,95,297844,0.0-10.0-0.41,"""event"",""trial"",""time""
""fullscreenenter"",""0"",""3583""
","
","
","""event"",""trial"",""time""
""fullscreenenter"",""0"",""3583""
","
",null,"<div style=""font-size:60px;"">+</div>",NA,null,fixation,2020-07-02T22:25:23Z,NA,NA,NA,NA,NA,sub113
NA,mars-trial,96,299503,0.0-10.0-1.41,"""event"",""trial"",""time""
""fullscreenenter"",""0"",""3583""
","
","
","""event"",""trial"",""time""
""fullscreenenter"",""0"",""3583""
","
",1047.6699999999255,<img style='border: 4px solid darkgrey;' src='img/tf1_42_M_ss2.jpeg'></img>,1,NA,exp,NA,3,<img src='img/tf1_42_T1_ss2_md.jpeg'></img>,0,FALSE,NA,sub113
NA,html-keyboard-response,97,300007,0.0-10.0-0.42,"""event"",""trial"",""time""
""fullscreenenter"",""0"",""3583""
","
","
","""event"",""trial"",""time""
""fullscreenenter"",""0"",""3583""
","
",null,"<div style=""font-size:60px;"">+</div>",NA,null,fixation,2020-07-02T22:25:25Z,NA,NA,NA,NA,NA,sub113
NA,mars-trial,98,301318,0.0-10.0-1.42,"""event"",""trial"",""time""
""fullscreenenter"",""0"",""3583""
","
","
","""event"",""trial"",""time""
""fullscreenenter"",""0"",""3583""
","
",700.5199999839533,<img style='border: 4px solid darkgrey;' src='img/tf1_43_M_ss3.jpeg'></img>,2,NA,exp,NA,3,<img src='img/tf1_43_T1_ss3_md.jpeg'></img>,0,FALSE,NA,sub113
NA,html-keyboard-response,99,301821,0.0-10.0-0.43,"""event"",""trial"",""time""
""fullscreenenter"",""0"",""3583""
","
","
","""event"",""trial"",""time""
""fullscreenenter"",""0"",""3583""
","
",null,"<div style=""font-size:60px;"">+</div>",NA,null,fixation,2020-07-02T22:25:27Z,NA,NA,NA,NA,NA,sub113
NA,mars-trial,100,303384,0.0-10.0-1.43,"""event"",""trial"",""time""
""fullscreenenter"",""0"",""3583""
","
","
","""event"",""trial"",""time""
""fullscreenenter"",""0"",""3583""
","
",951.7650000052527,<img style='border: 4px solid darkgrey;' src='img/tf1_44_M_ss1.jpeg'></img>,2,NA,exp,NA,0,<img src='img/tf1_44_T1_ss1_md.jpeg'></img>,0,TRUE,NA,sub113
NA,html-keyboard-response,101,303887,0.0-10.0-0.44,"""event"",""trial"",""time""
""fullscreenenter"",""0"",""3583""
","
","
","""event"",""trial"",""time""
""fullscreenenter"",""0"",""3583""
","
",null,"<div style=""font-size:60px;"">+</div>",NA,null,fixation,2020-07-02T22:25:29Z,NA,NA,NA,NA,NA,sub113
NA,mars-trial,102,305011,0.0-10.0-1.44,"""event"",""trial"",""time""
""fullscreenenter"",""0"",""3583""
","
","
","""event"",""trial"",""time""
""fullscreenenter"",""0"",""3583""
","
",514.2650000052527,<img style='border: 4px solid darkgrey;' src='img/tf1_45_M_ss2.jpeg'></img>,0,NA,exp,NA,3,<img src='img/tf1_45_T1_ss2_md.jpeg'></img>,0,FALSE,NA,sub113
NA,html-keyboard-response,103,305515,0.0-10.0-0.45,"""event"",""trial"",""time""
""fullscreenenter"",""0"",""3583""
","
","
","""event"",""trial"",""time""
""fullscreenenter"",""0"",""3583""
","
",null,"<div style=""font-size:60px;"">+</div>",NA,null,fixation,2020-07-02T22:25:30Z,NA,NA,NA,NA,NA,sub113
NA,mars-trial,104,310679,0.0-10.0-1.45,"""event"",""trial"",""time""
""fullscreenenter"",""0"",""3583""
","
","
","""event"",""trial"",""time""
""fullscreenenter"",""0"",""3583""
","
",4552.38000000827,<img style='border: 4px solid darkgrey;' src='img/tf1_46_M_ss3.jpeg'></img>,1,NA,exp,NA,1,<img src='img/tf1_46_T1_ss3_md.jpeg'></img>,0,FALSE,NA,sub113
NA,html-keyboard-response,105,311184,0.0-10.0-0.46,"""event"",""trial"",""time""
""fullscreenenter"",""0"",""3583""
","
","
","""event"",""trial"",""time""
""fullscreenenter"",""0"",""3583""
","
",null,"<div style=""font-size:60px;"">+</div>",NA,null,fixation,2020-07-02T22:25:36Z,NA,NA,NA,NA,NA,sub113
NA,mars-trial,106,312681,0.0-10.0-1.46,"""event"",""trial"",""time""
""fullscreenenter"",""0"",""3583""
","
","
","""event"",""trial"",""time""
""fullscreenenter"",""0"",""3583""
","
",883.9549999975134,<img style='border: 4px solid darkgrey;' src='img/tf1_47_M_ss1.jpeg'></img>,2,NA,exp,NA,0,<img src='img/tf1_47_T1_ss1_md.jpeg'></img>,0,TRUE,NA,sub113
NA,html-keyboard-response,107,313184,0.0-10.0-0.47,"""event"",""trial"",""time""
""fullscreenenter"",""0"",""3583""
","
","
","""event"",""trial"",""time""
""fullscreenenter"",""0"",""3583""
","
",null,"<div style=""font-size:60px;"">+</div>",NA,null,fixation,2020-07-02T22:25:38Z,NA,NA,NA,NA,NA,sub113
NA,mars-trial,108,314823,0.0-10.0-1.47,"""event"",""trial"",""time""
""fullscreenenter"",""0"",""3583""
","
","
","""event"",""trial"",""time""
""fullscreenenter"",""0"",""3583""
","
",1026.6199999896344,<img style='border: 4px solid darkgrey;' src='img/tf1_48_M_ss2.jpeg'></img>,3,NA,exp,NA,3,<img src='img/tf1_48_T1_ss2_md.jpeg'></img>,0,FALSE,NA,sub113
NA,html-keyboard-response,109,315327,0.0-10.0-0.48,"""event"",""trial"",""time""
""fullscreenenter"",""0"",""3583""
","
","
","""event"",""trial"",""time""
""fullscreenenter"",""0"",""3583""
","
",null,"<div style=""font-size:60px;"">+</div>",NA,null,fixation,2020-07-02T22:25:40Z,NA,NA,NA,NA,NA,sub113
NA,mars-trial,110,321660,0.0-10.0-1.48,"""event"",""trial"",""time""
""fullscreenenter"",""0"",""3583""
","
","
","""event"",""trial"",""time""
""fullscreenenter"",""0"",""3583""
","
",5721.154999977443,<img style='border: 4px solid darkgrey;' src='img/tf1_49_M_ss3.jpeg'></img>,0,NA,exp,NA,0,<img src='img/tf1_49_T1_ss3_md.jpeg'></img>,0,TRUE,NA,sub113
NA,html-keyboard-response,111,322164,0.0-10.0-0.49,"""event"",""trial"",""time""
""fullscreenenter"",""0"",""3583""
","
","
","""event"",""trial"",""time""
""fullscreenenter"",""0"",""3583""
","
",null,"<div style=""font-size:60px;"">+</div>",NA,null,fixation,2020-07-02T22:25:47Z,NA,NA,NA,NA,NA,sub113
NA,mars-trial,112,328714,0.0-10.0-1.49,"""event"",""trial"",""time""
""fullscreenenter"",""0"",""3583""
","
","
","""event"",""trial"",""time""
""fullscreenenter"",""0"",""3583""
","
",5936.789999977918,<img style='border: 4px solid darkgrey;' src='img/tf1_50_M_ss1.jpeg'></img>,1,NA,exp,NA,1,<img src='img/tf1_50_T1_ss1_md.jpeg'></img>,0,FALSE,NA,sub113
NA,html-keyboard-response,113,329219,0.0-10.0-0.50,"""event"",""trial"",""time""
""fullscreenenter"",""0"",""3583""
","
","
","""event"",""trial"",""time""
""fullscreenenter"",""0"",""3583""
","
",null,"<div style=""font-size:60px;"">+</div>",NA,null,fixation,2020-07-02T22:25:54Z,NA,NA,NA,NA,NA,sub113
NA,mars-trial,114,334257,0.0-10.0-1.50,"""event"",""trial"",""time""
""fullscreenenter"",""0"",""3583""
","
","
","""event"",""trial"",""time""
""fullscreenenter"",""0"",""3583""
","
",4424.529999989318,<img style='border: 4px solid darkgrey;' src='img/tf1_51_M_ss2.jpeg'></img>,0,NA,exp,NA,1,<img src='img/tf1_51_T1_ss2_md.jpeg'></img>,0,FALSE,NA,sub113
NA,html-keyboard-response,115,334761,0.0-10.0-0.51,"""event"",""trial"",""time""
""fullscreenenter"",""0"",""3583""
","
","
","""event"",""trial"",""time""
""fullscreenenter"",""0"",""3583""
","
",null,"<div style=""font-size:60px;"">+</div>",NA,null,fixation,2020-07-02T22:26:00Z,NA,NA,NA,NA,NA,sub113
NA,mars-trial,116,336973,0.0-10.0-1.51,"""event"",""trial"",""time""
""fullscreenenter"",""0"",""3583""
","
","
","""event"",""trial"",""time""
""fullscreenenter"",""0"",""3583""
","
",1600.2300000109244,<img style='border: 4px solid darkgrey;' src='img/tf1_52_M_ss3.jpeg'></img>,3,NA,exp,NA,2,<img src='img/tf1_52_T1_ss3_md.jpeg'></img>,0,FALSE,NA,sub113
NA,html-keyboard-response,117,337477,0.0-10.0-0.52,"""event"",""trial"",""time""
""fullscreenenter"",""0"",""3583""
","
","
","""event"",""trial"",""time""
""fullscreenenter"",""0"",""3583""
","
",null,"<div style=""font-size:60px;"">+</div>",NA,null,fixation,2020-07-02T22:26:02Z,NA,NA,NA,NA,NA,sub113
NA,mars-trial,118,339440,0.0-10.0-1.52,"""event"",""trial"",""time""
""fullscreenenter"",""0"",""3583""
","
","
","""event"",""trial"",""time""
""fullscreenenter"",""0"",""3583""
","
",1352.0949999801815,<img style='border: 4px solid darkgrey;' src='img/tf1_53_M_ss1.jpeg'></img>,1,NA,exp,NA,3,<img src='img/tf1_53_T1_ss1_md.jpeg'></img>,0,FALSE,NA,sub113
NA,html-keyboard-response,119,339943,0.0-10.0-0.53,"""event"",""trial"",""time""
""fullscreenenter"",""0"",""3583""
","
","
","""event"",""trial"",""time""
""fullscreenenter"",""0"",""3583""
","
",null,"<div style=""font-size:60px;"">+</div>",NA,null,fixation,2020-07-02T22:26:05Z,NA,NA,NA,NA,NA,sub113
NA,mars-trial,120,341518,0.0-10.0-1.53,"""event"",""trial"",""time""
""fullscreenenter"",""0"",""3583""
","
","
","""event"",""trial"",""time""
""fullscreenenter"",""0"",""3583""
","
",965.1050000102259,<img style='border: 4px solid darkgrey;' src='img/tf1_54_M_ss2.jpeg'></img>,2,NA,exp,NA,2,<img src='img/tf1_54_T1_ss2_md.jpeg'></img>,0,FALSE,NA,sub113
NA,html-keyboard-response,121,342022,0.0-10.0-0.54,"""event"",""trial"",""time""
""fullscreenenter"",""0"",""3583""
","
","
","""event"",""trial"",""time""
""fullscreenenter"",""0"",""3583""
","
",null,"<div style=""font-size:60px;"">+</div>",NA,null,fixation,2020-07-02T22:26:07Z,NA,NA,NA,NA,NA,sub113
NA,mars-trial,122,348517,0.0-10.0-1.54,"""event"",""trial"",""time""
""fullscreenenter"",""0"",""3583""
","
","
","""event"",""trial"",""time""
""fullscreenenter"",""0"",""3583""
","
",5884.300000005169,<img style='border: 4px solid darkgrey;' src='img/tf1_55_M_ss3.jpeg'></img>,3,NA,exp,NA,1,<img src='img/tf1_55_T1_ss3_md.jpeg'></img>,0,FALSE,NA,sub113
NA,html-keyboard-response,123,349021,0.0-10.0-0.55,"""event"",""trial"",""time""
""fullscreenenter"",""0"",""3583""
","
","
","""event"",""trial"",""time""
""fullscreenenter"",""0"",""3583""
","
",null,"<div style=""font-size:60px;"">+</div>",NA,null,fixation,2020-07-02T22:26:14Z,NA,NA,NA,NA,NA,sub113
NA,mars-trial,124,352717,0.0-10.0-1.55,"""event"",""trial"",""time""
""fullscreenenter"",""0"",""3583""
","
","
","""event"",""trial"",""time""
""fullscreenenter"",""0"",""3583""
","
",3083.3350000029895,<img style='border: 4px solid darkgrey;' src='img/tf1_56_M_ss1.jpeg'></img>,0,NA,exp,NA,2,<img src='img/tf1_56_T1_ss1_md.jpeg'></img>,0,FALSE,NA,sub113
NA,html-keyboard-response,125,353221,0.0-10.0-0.56,"""event"",""trial"",""time""
""fullscreenenter"",""0"",""3583""
","
","
","""event"",""trial"",""time""
""fullscreenenter"",""0"",""3583""
","
",null,"<div style=""font-size:60px;"">+</div>",NA,null,fixation,2020-07-02T22:26:18Z,NA,NA,NA,NA,NA,sub113
NA,mars-trial,126,355182,0.0-10.0-1.56,"""event"",""trial"",""time""
""fullscreenenter"",""0"",""3583""
","
","
","""event"",""trial"",""time""
""fullscreenenter"",""0"",""3583""
","
",1350.7550000213087,<img style='border: 4px solid darkgrey;' src='img/tf1_57_M_ss2.jpeg'></img>,2,NA,exp,NA,0,<img src='img/tf1_57_T1_ss2_md.jpeg'></img>,0,TRUE,NA,sub113
NA,html-keyboard-response,127,355686,0.0-10.0-0.57,"""event"",""trial"",""time""
""fullscreenenter"",""0"",""3583""
","
","
","""event"",""trial"",""time""
""fullscreenenter"",""0"",""3583""
","
",null,"<div style=""font-size:60px;"">+</div>",NA,null,fixation,2020-07-02T22:26:21Z,NA,NA,NA,NA,NA,sub113
NA,mars-trial,128,356984,0.0-10.0-1.57,"""event"",""trial"",""time""
""fullscreenenter"",""0"",""3583""
","
","
","""event"",""trial"",""time""
""fullscreenenter"",""0"",""3583""
","
",689.089999999851,<img style='border: 4px solid darkgrey;' src='img/tf1_58_M_ss3.jpeg'></img>,1,NA,exp,NA,3,<img src='img/tf1_58_T1_ss3_md.jpeg'></img>,0,FALSE,NA,sub113
NA,html-keyboard-response,129,357487,0.0-10.0-0.58,"""event"",""trial"",""time""
""fullscreenenter"",""0"",""3583""
","
","
","""event"",""trial"",""time""
""fullscreenenter"",""0"",""3583""
","
",null,"<div style=""font-size:60px;"">+</div>",NA,null,fixation,2020-07-02T22:26:22Z,NA,NA,NA,NA,NA,sub113
NA,mars-trial,130,363547,0.0-10.0-1.58,"""event"",""trial"",""time""
""fullscreenenter"",""0"",""3583""
","
","
","""event"",""trial"",""time""
""fullscreenenter"",""0"",""3583""
","
",5449.309999996331,<img style='border: 4px solid darkgrey;' src='img/tf1_59_M_ss1.jpeg'></img>,0,NA,exp,NA,2,<img src='img/tf1_59_T1_ss1_md.jpeg'></img>,0,FALSE,NA,sub113
NA,html-keyboard-response,131,364052,0.0-10.0-0.59,"""event"",""trial"",""time""
""fullscreenenter"",""0"",""3583""
","
","
","""event"",""trial"",""time""
""fullscreenenter"",""0"",""3583""
","
",null,"<div style=""font-size:60px;"">+</div>",NA,null,fixation,2020-07-02T22:26:29Z,NA,NA,NA,NA,NA,sub113
NA,mars-trial,132,368652,0.0-10.0-1.59,"""event"",""trial"",""time""
""fullscreenenter"",""0"",""3583""
","
","
","""event"",""trial"",""time""
""fullscreenenter"",""0"",""3583""
","
",3988.370000006398,<img style='border: 4px solid darkgrey;' src='img/tf1_60_M_ss2.jpeg'></img>,1,NA,exp,NA,3,<img src='img/tf1_60_T1_ss2_md.jpeg'></img>,0,FALSE,NA,sub113
NA,html-keyboard-response,133,369156,0.0-10.0-0.60,"""event"",""trial"",""time""
""fullscreenenter"",""0"",""3583""
","
","
","""event"",""trial"",""time""
""fullscreenenter"",""0"",""3583""
","
",null,"<div style=""font-size:60px;"">+</div>",NA,null,fixation,2020-07-02T22:26:34Z,NA,NA,NA,NA,NA,sub113
NA,mars-trial,134,370378,0.0-10.0-1.60,"""event"",""trial"",""time""
""fullscreenenter"",""0"",""3583""
","
","
","""event"",""trial"",""time""
""fullscreenenter"",""0"",""3583""
","
",610.0500000175089,<img style='border: 4px solid darkgrey;' src='img/tf1_61_M_ss3.jpeg'></img>,2,NA,exp,NA,1,<img src='img/tf1_61_T1_ss3_md.jpeg'></img>,0,FALSE,NA,sub113
NA,html-keyboard-response,135,370882,0.0-10.0-0.61,"""event"",""trial"",""time""
""fullscreenenter"",""0"",""3583""
","
","
","""event"",""trial"",""time""
""fullscreenenter"",""0"",""3583""
","
",null,"<div style=""font-size:60px;"">+</div>",NA,null,fixation,2020-07-02T22:26:36Z,NA,NA,NA,NA,NA,sub113
NA,mars-trial,136,372215,0.0-10.0-1.61,"""event"",""trial"",""time""
""fullscreenenter"",""0"",""3583""
","
","
","""event"",""trial"",""time""
""fullscreenenter"",""0"",""3583""
","
",721.6049999988172,<img style='border: 4px solid darkgrey;' src='img/tf1_62_M_ss1.jpeg'></img>,3,NA,exp,NA,1,<img src='img/tf1_62_T1_ss1_md.jpeg'></img>,0,FALSE,NA,sub113
NA,html-keyboard-response,137,372718,0.0-10.0-0.62,"""event"",""trial"",""time""
""fullscreenenter"",""0"",""3583""
","
","
","""event"",""trial"",""time""
""fullscreenenter"",""0"",""3583""
","
",null,"<div style=""font-size:60px;"">+</div>",NA,null,fixation,2020-07-02T22:26:38Z,NA,NA,NA,NA,NA,sub113
NA,mars-trial,138,374140,0.0-10.0-1.62,"""event"",""trial"",""time""
""fullscreenenter"",""0"",""3583""
","
","
","""event"",""trial"",""time""
""fullscreenenter"",""0"",""3583""
","
",812.3049999994691,<img style='border: 4px solid darkgrey;' src='img/tf1_63_M_ss2.jpeg'></img>,0,NA,exp,NA,1,<img src='img/tf1_63_T1_ss2_md.jpeg'></img>,0,FALSE,NA,sub113
NA,html-keyboard-response,139,374643,0.0-10.0-0.63,"""event"",""trial"",""time""
""fullscreenenter"",""0"",""3583""
","
","
","""event"",""trial"",""time""
""fullscreenenter"",""0"",""3583""
","
",null,"<div style=""font-size:60px;"">+</div>",NA,null,fixation,2020-07-02T22:26:40Z,NA,NA,NA,NA,NA,sub113
NA,mars-trial,140,375735,0.0-10.0-1.63,"""event"",""trial"",""time""
""fullscreenenter"",""0"",""3583""
","
","
","""event"",""trial"",""time""
""fullscreenenter"",""0"",""3583""
","
",480.4299999959767,<img style='border: 4px solid darkgrey;' src='img/tf1_64_M_ss3.jpeg'></img>,1,NA,exp,NA,0,<img src='img/tf1_64_T1_ss3_md.jpeg'></img>,0,TRUE,NA,sub113
NA,html-keyboard-response,141,376238,0.0-10.0-0.64,"""event"",""trial"",""time""
""fullscreenenter"",""0"",""3583""
","
","
","""event"",""trial"",""time""
""fullscreenenter"",""0"",""3583""
","
",null,"<div style=""font-size:60px;"">+</div>",NA,null,fixation,2020-07-02T22:26:41Z,NA,NA,NA,NA,NA,sub113
NA,mars-trial,142,377271,0.0-10.0-1.64,"""event"",""trial"",""time""
""fullscreenenter"",""0"",""3583""
","
","
","""event"",""trial"",""time""
""fullscreenenter"",""0"",""3583""
","
",424.01499999687076,<img style='border: 4px solid darkgrey;' src='img/tf1_65_M_ss1.jpeg'></img>,1,NA,exp,NA,2,<img src='img/tf1_65_T1_ss1_md.jpeg'></img>,0,FALSE,NA,sub113
NA,html-keyboard-response,143,377774,0.0-10.0-0.65,"""event"",""trial"",""time""
""fullscreenenter"",""0"",""3583""
","
","
","""event"",""trial"",""time""
""fullscreenenter"",""0"",""3583""
","
",null,"<div style=""font-size:60px;"">+</div>",NA,null,fixation,2020-07-02T22:26:43Z,NA,NA,NA,NA,NA,sub113
NA,mars-trial,144,378859,0.0-10.0-1.65,"""event"",""trial"",""time""
""fullscreenenter"",""0"",""3583""
","
","
","""event"",""trial"",""time""
""fullscreenenter"",""0"",""3583""
","
",474.45999999763444,<img style='border: 4px solid darkgrey;' src='img/tf1_66_M_ss2.jpeg'></img>,2,NA,exp,NA,2,<img src='img/tf1_66_T1_ss2_md.jpeg'></img>,0,FALSE,NA,sub113
NA,html-keyboard-response,145,379362,0.0-10.0-0.66,"""event"",""trial"",""time""
""fullscreenenter"",""0"",""3583""
","
","
","""event"",""trial"",""time""
""fullscreenenter"",""0"",""3583""
","
",null,"<div style=""font-size:60px;"">+</div>",NA,null,fixation,2020-07-02T22:26:44Z,NA,NA,NA,NA,NA,sub113
NA,mars-trial,146,380377,0.0-10.0-1.66,"""event"",""trial"",""time""
""fullscreenenter"",""0"",""3583""
","
","
","""event"",""trial"",""time""
""fullscreenenter"",""0"",""3583""
","
",403.8050000090152,<img style='border: 4px solid darkgrey;' src='img/tf1_67_M_ss3.jpeg'></img>,3,NA,exp,NA,1,<img src='img/tf1_67_T1_ss3_md.jpeg'></img>,0,FALSE,NA,sub113
NA,html-keyboard-response,147,380881,0.0-10.0-0.67,"""event"",""trial"",""time""
""fullscreenenter"",""0"",""3583""
","
","
","""event"",""trial"",""time""
""fullscreenenter"",""0"",""3583""
","
",null,"<div style=""font-size:60px;"">+</div>",NA,null,fixation,2020-07-02T22:26:46Z,NA,NA,NA,NA,NA,sub113
NA,mars-trial,148,381964,0.0-10.0-1.67,"""event"",""trial"",""time""
""fullscreenenter"",""0"",""3583""
","
","
","""event"",""trial"",""time""
""fullscreenenter"",""0"",""3583""
","
",473.1200000096578,<img style='border: 4px solid darkgrey;' src='img/tf1_68_M_ss1.jpeg'></img>,1,NA,exp,NA,1,<img src='img/tf1_68_T1_ss1_md.jpeg'></img>,0,FALSE,NA,sub113
NA,html-keyboard-response,149,382468,0.0-10.0-0.68,"""event"",""trial"",""time""
""fullscreenenter"",""0"",""3583""
","
","
","""event"",""trial"",""time""
""fullscreenenter"",""0"",""3583""
","
",null,"<div style=""font-size:60px;"">+</div>",NA,null,fixation,2020-07-02T22:26:47Z,NA,NA,NA,NA,NA,sub113
NA,mars-trial,150,385435,0.0-10.0-1.68,"""event"",""trial"",""time""
""fullscreenenter"",""0"",""3583""
","
","
","""event"",""trial"",""time""
""fullscreenenter"",""0"",""3583""
","
",2355.489999987185,<img style='border: 4px solid darkgrey;' src='img/tf1_69_M_ss2.jpeg'></img>,3,NA,exp,NA,0,<img src='img/tf1_69_T1_ss2_md.jpeg'></img>,0,TRUE,NA,sub113
NA,html-keyboard-response,151,385936,0.0-10.0-0.69,"""event"",""trial"",""time""
""fullscreenenter"",""0"",""3583""
","
","
","""event"",""trial"",""time""
""fullscreenenter"",""0"",""3583""
","
",null,"<div style=""font-size:60px;"">+</div>",NA,null,fixation,2020-07-02T22:26:51Z,NA,NA,NA,NA,NA,sub113
NA,mars-trial,152,395232,0.0-10.0-1.69,"""event"",""trial"",""time""
""fullscreenenter"",""0"",""3583""
","
","
","""event"",""trial"",""time""
""fullscreenenter"",""0"",""3583""
","
",8683.83999998332,<img style='border: 4px solid darkgrey;' src='img/tf1_70_M_ss3.jpeg'></img>,3,NA,exp,NA,0,<img src='img/tf1_70_T1_ss3_md.jpeg'></img>,0,TRUE,NA,sub113
NA,html-keyboard-response,153,395736,0.0-10.0-0.70,"""event"",""trial"",""time""
""fullscreenenter"",""0"",""3583""
","
","
","""event"",""trial"",""time""
""fullscreenenter"",""0"",""3583""
","
",null,"<div style=""font-size:60px;"">+</div>",NA,null,fixation,2020-07-02T22:27:01Z,NA,NA,NA,NA,NA,sub113
NA,mars-trial,154,403784,0.0-10.0-1.70,"""event"",""trial"",""time""
""fullscreenenter"",""0"",""3583""
","
","
","""event"",""trial"",""time""
""fullscreenenter"",""0"",""3583""
","
",7435.295000002952,<img style='border: 4px solid darkgrey;' src='img/tf1_71_M_ss1.jpeg'></img>,2,NA,exp,NA,0,<img src='img/tf1_71_T1_ss1_md.jpeg'></img>,0,TRUE,NA,sub113
NA,html-keyboard-response,155,404288,0.0-10.0-0.71,"""event"",""trial"",""time""
""fullscreenenter"",""0"",""3583""
","
","
","""event"",""trial"",""time""
""fullscreenenter"",""0"",""3583""
","
",null,"<div style=""font-size:60px;"">+</div>",NA,null,fixation,2020-07-02T22:27:09Z,NA,NA,NA,NA,NA,sub113
NA,mars-trial,156,405474,0.0-10.0-1.71,"""event"",""trial"",""time""
""fullscreenenter"",""0"",""3583""
","
","
","""event"",""trial"",""time""
""fullscreenenter"",""0"",""3583""
","
",573.5449999920093,<img style='border: 4px solid darkgrey;' src='img/tf1_72_M_ss2.jpeg'></img>,2,NA,exp,NA,0,<img src='img/tf1_72_T1_ss2_md.jpeg'></img>,0,TRUE,NA,sub113
NA,html-keyboard-response,157,405977,0.0-10.0-0.72,"""event"",""trial"",""time""
""fullscreenenter"",""0"",""3583""
","
","
","""event"",""trial"",""time""
""fullscreenenter"",""0"",""3583""
","
",null,"<div style=""font-size:60px;"">+</div>",NA,null,fixation,2020-07-02T22:27:11Z,NA,NA,NA,NA,NA,sub113
NA,mars-trial,158,416517,0.0-10.0-1.72,"""event"",""trial"",""time""
""fullscreenenter"",""0"",""3583""
","
","
","""event"",""trial"",""time""
""fullscreenenter"",""0"",""3583""
","
",9928.27999999281,<img style='border: 4px solid darkgrey;' src='img/tf1_73_M_ss3.jpeg'></img>,2,NA,exp,NA,3,<img src='img/tf1_73_T1_ss3_md.jpeg'></img>,0,FALSE,NA,sub113
NA,html-keyboard-response,159,417020,0.0-10.0-0.73,"""event"",""trial"",""time""
""fullscreenenter"",""0"",""3583""
","
","
","""event"",""trial"",""time""
""fullscreenenter"",""0"",""3583""
","
",null,"<div style=""font-size:60px;"">+</div>",NA,null,fixation,2020-07-02T22:27:22Z,NA,NA,NA,NA,NA,sub113
NA,mars-trial,160,429953,0.0-10.0-1.73,"""event"",""trial"",""time""
""fullscreenenter"",""0"",""3583""
","
","
","""event"",""trial"",""time""
""fullscreenenter"",""0"",""3583""
","
",12320.599999977276,<img style='border: 4px solid darkgrey;' src='img/tf1_74_M_ss1.jpeg'></img>,3,NA,exp,NA,0,<img src='img/tf1_74_T1_ss1_md.jpeg'></img>,0,TRUE,NA,sub113
NA,html-keyboard-response,161,430457,0.0-10.0-0.74,"""event"",""trial"",""time""
""fullscreenenter"",""0"",""3583""
","
","
","""event"",""trial"",""time""
""fullscreenenter"",""0"",""3583""
","
",null,"<div style=""font-size:60px;"">+</div>",NA,null,fixation,2020-07-02T22:27:35Z,NA,NA,NA,NA,NA,sub113
NA,mars-trial,162,431741,0.0-10.0-1.74,"""event"",""trial"",""time""
""fullscreenenter"",""0"",""3583""
","
","
","""event"",""trial"",""time""
""fullscreenenter"",""0"",""3583""
","
",670.4449999961071,<img style='border: 4px solid darkgrey;' src='img/tf1_75_M_ss2.jpeg'></img>,3,NA,exp,NA,0,<img src='img/tf1_75_T1_ss2_md.jpeg'></img>,0,TRUE,NA,sub113
NA,html-keyboard-response,163,432245,0.0-10.0-0.75,"""event"",""trial"",""time""
""fullscreenenter"",""0"",""3583""
","
","
","""event"",""trial"",""time""
""fullscreenenter"",""0"",""3583""
","
",null,"<div style=""font-size:60px;"">+</div>",NA,null,fixation,2020-07-02T22:27:37Z,NA,NA,NA,NA,NA,sub113
NA,mars-trial,164,444061,0.0-10.0-1.75,"""event"",""trial"",""time""
""fullscreenenter"",""0"",""3583""
","
","
","""event"",""trial"",""time""
""fullscreenenter"",""0"",""3583""
","
",11204.364999983227,<img style='border: 4px solid darkgrey;' src='img/tf1_76_M_ss3.jpeg'></img>,2,NA,exp,NA,1,<img src='img/tf1_76_T1_ss3_md.jpeg'></img>,0,FALSE,NA,sub113
NA,html-keyboard-response,165,444566,0.0-10.0-0.76,"""event"",""trial"",""time""
""fullscreenenter"",""0"",""3583""
","
","
","""event"",""trial"",""time""
""fullscreenenter"",""0"",""3583""
","
",null,"<div style=""font-size:60px;"">+</div>",NA,null,fixation,2020-07-02T22:27:49Z,NA,NA,NA,NA,NA,sub113
NA,mars-trial,166,446130,0.0-10.0-1.76,"""event"",""trial"",""time""
""fullscreenenter"",""0"",""3583""
","
","
","""event"",""trial"",""time""
""fullscreenenter"",""0"",""3583""
","
",950.3499999991618,<img style='border: 4px solid darkgrey;' src='img/tf1_77_M_ss1.jpeg'></img>,2,NA,exp,NA,0,<img src='img/tf1_77_T1_ss1_md.jpeg'></img>,0,TRUE,NA,sub113
NA,html-keyboard-response,167,446635,0.0-10.0-0.77,"""event"",""trial"",""time""
""fullscreenenter"",""0"",""3583""
","
","
","""event"",""trial"",""time""
""fullscreenenter"",""0"",""3583""
","
",null,"<div style=""font-size:60px;"">+</div>",NA,null,fixation,2020-07-02T22:27:52Z,NA,NA,NA,NA,NA,sub113
NA,mars-trial,168,448071,0.0-10.0-1.77,"""event"",""trial"",""time""
""fullscreenenter"",""0"",""3583""
","
","
","""event"",""trial"",""time""
""fullscreenenter"",""0"",""3583""
","
",824.2099999915808,<img style='border: 4px solid darkgrey;' src='img/tf1_78_M_ss2.jpeg'></img>,3,NA,exp,NA,3,<img src='img/tf1_78_T1_ss2_md.jpeg'></img>,0,FALSE,NA,sub113
NA,html-keyboard-response,169,448574,0.0-10.0-0.78,"""event"",""trial"",""time""
""fullscreenenter"",""0"",""3583""
","
","
","""event"",""trial"",""time""
""fullscreenenter"",""0"",""3583""
","
",null,"<div style=""font-size:60px;"">+</div>",NA,null,fixation,2020-07-02T22:27:54Z,NA,NA,NA,NA,NA,sub113
NA,mars-trial,170,451355,0.0-10.0-1.78,"""event"",""trial"",""time""
""fullscreenenter"",""0"",""3583""
","
","
","""event"",""trial"",""time""
""fullscreenenter"",""0"",""3583""
","
",2171.2700000207406,<img style='border: 4px solid darkgrey;' src='img/tf1_79_M_ss3.jpeg'></img>,0,NA,exp,NA,1,<img src='img/tf1_79_T1_ss3_md.jpeg'></img>,0,FALSE,NA,sub113
NA,html-keyboard-response,171,451858,0.0-10.0-0.79,"""event"",""trial"",""time""
""fullscreenenter"",""0"",""3583""
","
","
","""event"",""trial"",""time""
""fullscreenenter"",""0"",""3583""
","
",null,"<div style=""font-size:60px;"">+</div>",NA,null,fixation,2020-07-02T22:27:57Z,NA,NA,NA,NA,NA,sub113
NA,mars-trial,172,452956,0.0-10.0-1.79,"""event"",""trial"",""time""
""fullscreenenter"",""0"",""3583""
","
","
","""event"",""trial"",""time""
""fullscreenenter"",""0"",""3583""
","
",488.69999998714775,<img style='border: 4px solid darkgrey;' src='img/tf1_80_M_ss1.jpeg'></img>,1,NA,exp,NA,1,<img src='img/tf1_80_T1_ss1_md.jpeg'></img>,0,FALSE,NA,sub113
NA,audio-button-response,173,470769,0.0-11.0,"""event"",""trial"",""time""
""fullscreenenter"",""0"",""3583""
","
","
","""event"",""trial"",""time""
""fullscreenenter"",""0"",""3583""
","
",17810.074999986682,audio/mars_instructions_slide5.wav,0,NA,NA,NA,NA,NA,NA,NA,NA,sub113
