success,trial_type,trial_index,time_elapsed,internal_node_id,interactions,blur_events,focus_events,fullscreenenter_events,fullscreenexit_events,rt,stimulus,button_pressed,key_press,part,timestamp,unshuffled_button,correct_response,correct_button,correct,value,subject_id
TRUE,fullscreen,0,4594,0.0-0.0,"""event"",""trial"",""time""
""fullscreenenter"",""0"",""3608""
","
","
","""event"",""trial"",""time""
""fullscreenenter"",""0"",""3608""
","
",NA,NA,NA,NA,NA,NA,NA,NA,NA,NA,NA,sub8
NA,pavlovia,1,4596,0.0-1.0,"""event"",""trial"",""time""
""fullscreenenter"",""0"",""3608""
","
","
","""event"",""trial"",""time""
""fullscreenenter"",""0"",""3608""
","
",NA,NA,NA,NA,NA,NA,NA,NA,NA,NA,NA,sub8
NA,html-button-response,2,6625,0.0-2.0,"""event"",""trial"",""time""
""fullscreenenter"",""0"",""3608""
","
","
","""event"",""trial"",""time""
""fullscreenenter"",""0"",""3608""
","
",2027.7699999860488,<p>Welcome! Press START to begin.</p><br>,0,NA,NA,NA,NA,NA,NA,NA,NA,sub8
NA,audio-button-response,3,19586,0.0-3.0,"""event"",""trial"",""time""
""fullscreenenter"",""0"",""3608""
","
","
","""event"",""trial"",""time""
""fullscreenenter"",""0"",""3608""
","
",12960.030000016559,audio/mars_instructions_slide2.wav,0,NA,NA,NA,NA,NA,NA,NA,NA,sub8
NA,audio-button-response,4,35796,0.0-4.0,"""event"",""trial"",""time""
""fullscreenenter"",""0"",""3608""
","
","
","""event"",""trial"",""time""
""fullscreenenter"",""0"",""3608""
","
",16209.039999986999,audio/mars_instructions_slide3.wav,0,NA,NA,NA,NA,NA,NA,NA,NA,sub8
NA,html-keyboard-response,5,36299,0.0-5.0-0.0,"""event"",""trial"",""time""
""fullscreenenter"",""0"",""3608""
","
","
","""event"",""trial"",""time""
""fullscreenenter"",""0"",""3608""
","
",null,"<div style=""font-size:60px;"">+</div>",NA,null,fixation,2020-06-09T18:44:48Z,NA,NA,NA,NA,NA,sub8
NA,mars-trial,6,43103,0.0-5.0-1.0,"""event"",""trial"",""time""
""fullscreenenter"",""0"",""3608""
","
","
","""event"",""trial"",""time""
""fullscreenenter"",""0"",""3608""
","
",4700.230000016745,<img style='border: 4px solid darkgrey;' src='practice/pt1_M1.png'></img>,3,NA,practice,NA,0,<img src='practice/pt1_T1.png'></img>,0,TRUE,NA,sub8
NA,html-keyboard-response,7,43605,0.0-6.0-0.0,"""event"",""trial"",""time""
""fullscreenenter"",""0"",""3608""
","
","
","""event"",""trial"",""time""
""fullscreenenter"",""0"",""3608""
","
",null,"<div style=""font-size:60px;"">+</div>",NA,null,fixation,2020-06-09T18:44:55Z,NA,NA,NA,NA,NA,sub8
NA,mars-trial,8,47666,0.0-6.0-1.0,"""event"",""trial"",""time""
""fullscreenenter"",""0"",""3608""
","
","
","""event"",""trial"",""time""
""fullscreenenter"",""0"",""3608""
","
",1958.2500000251457,<img style='border: 4px solid darkgrey;' src='practice/pt2_M1.png'></img>,3,NA,practice,NA,0,<img src='practice/pt2_T1.png'></img>,0,TRUE,NA,sub8
NA,html-keyboard-response,9,48167,0.0-7.0-0.0,"""event"",""trial"",""time""
""fullscreenenter"",""0"",""3608""
","
","
","""event"",""trial"",""time""
""fullscreenenter"",""0"",""3608""
","
",null,"<div style=""font-size:60px;"">+</div>",NA,null,fixation,2020-06-09T18:45:00Z,NA,NA,NA,NA,NA,sub8
NA,mars-trial,10,51764,0.0-7.0-1.0,"""event"",""trial"",""time""
""fullscreenenter"",""0"",""3608""
","
","
","""event"",""trial"",""time""
""fullscreenenter"",""0"",""3608""
","
",1493.3999999775551,<img style='border: 4px solid darkgrey;' src='practice/pt3_M1.png'></img>,1,NA,practice,NA,0,<img src='practice/pt3_T1.png'></img>,0,TRUE,NA,sub8
NA,audio-button-response,11,57347,0.0-8.0,"""event"",""trial"",""time""
""fullscreenenter"",""0"",""3608""
","
","
","""event"",""trial"",""time""
""fullscreenenter"",""0"",""3608""
","
",5581.635000009555,audio/mars_instructions_slide4.wav,0,NA,NA,NA,NA,NA,NA,NA,NA,sub8
NA,call-function,12,57347,0.0-9.0,"""event"",""trial"",""time""
""fullscreenenter"",""0"",""3608""
","
","
","""event"",""trial"",""time""
""fullscreenenter"",""0"",""3608""
","
",NA,NA,NA,NA,NA,NA,NA,NA,NA,NA,NA,sub8
NA,html-keyboard-response,13,57848,0.0-10.0-0.0,"""event"",""trial"",""time""
""fullscreenenter"",""0"",""3608""
","
","
","""event"",""trial"",""time""
""fullscreenenter"",""0"",""3608""
","
",null,"<div style=""font-size:60px;"">+</div>",NA,null,fixation,2020-06-09T18:45:09Z,NA,NA,NA,NA,NA,sub8
NA,mars-trial,14,59981,0.0-10.0-1.0,"""event"",""trial"",""time""
""fullscreenenter"",""0"",""3608""
","
","
","""event"",""trial"",""time""
""fullscreenenter"",""0"",""3608""
","
",1529.0050000185147,<img style='border: 4px solid darkgrey;' src='img/tf1_1_M_ss3.jpeg'></img>,2,NA,exp,NA,0,<img src='img/tf1_1_T1_ss3_md.jpeg'></img>,0,TRUE,NA,sub8
NA,html-keyboard-response,15,60482,0.0-10.0-0.1,"""event"",""trial"",""time""
""fullscreenenter"",""0"",""3608""
","
","
","""event"",""trial"",""time""
""fullscreenenter"",""0"",""3608""
","
",null,"<div style=""font-size:60px;"">+</div>",NA,null,fixation,2020-06-09T18:45:12Z,NA,NA,NA,NA,NA,sub8
NA,mars-trial,16,63729,0.0-10.0-1.1,"""event"",""trial"",""time""
""fullscreenenter"",""0"",""3608""
","
","
","""event"",""trial"",""time""
""fullscreenenter"",""0"",""3608""
","
",2644.4200000260025,<img style='border: 4px solid darkgrey;' src='img/tf1_2_M_ss1.jpeg'></img>,0,NA,exp,NA,0,<img src='img/tf1_2_T1_ss1_md.jpeg'></img>,0,TRUE,NA,sub8
NA,html-keyboard-response,17,64231,0.0-10.0-0.2,"""event"",""trial"",""time""
""fullscreenenter"",""0"",""3608""
","
","
","""event"",""trial"",""time""
""fullscreenenter"",""0"",""3608""
","
",null,"<div style=""font-size:60px;"">+</div>",NA,null,fixation,2020-06-09T18:45:16Z,NA,NA,NA,NA,NA,sub8
NA,mars-trial,18,66479,0.0-10.0-1.2,"""event"",""trial"",""time""
""fullscreenenter"",""0"",""3608""
","
","
","""event"",""trial"",""time""
""fullscreenenter"",""0"",""3608""
","
",1645.0349999940954,<img style='border: 4px solid darkgrey;' src='img/tf1_3_M_ss2.jpeg'></img>,1,NA,exp,NA,0,<img src='img/tf1_3_T1_ss2_md.jpeg'></img>,0,TRUE,NA,sub8
NA,html-keyboard-response,19,66980,0.0-10.0-0.3,"""event"",""trial"",""time""
""fullscreenenter"",""0"",""3608""
","
","
","""event"",""trial"",""time""
""fullscreenenter"",""0"",""3608""
","
",null,"<div style=""font-size:60px;"">+</div>",NA,null,fixation,2020-06-09T18:45:18Z,NA,NA,NA,NA,NA,sub8
NA,mars-trial,20,70563,0.0-10.0-1.3,"""event"",""trial"",""time""
""fullscreenenter"",""0"",""3608""
","
","
","""event"",""trial"",""time""
""fullscreenenter"",""0"",""3608""
","
",2980.104999965988,<img style='border: 4px solid darkgrey;' src='img/tf1_4_M_ss3.jpeg'></img>,1,NA,exp,NA,0,<img src='img/tf1_4_T1_ss3_md.jpeg'></img>,0,TRUE,NA,sub8
NA,html-keyboard-response,21,71064,0.0-10.0-0.4,"""event"",""trial"",""time""
""fullscreenenter"",""0"",""3608""
","
","
","""event"",""trial"",""time""
""fullscreenenter"",""0"",""3608""
","
",null,"<div style=""font-size:60px;"">+</div>",NA,null,fixation,2020-06-09T18:45:22Z,NA,NA,NA,NA,NA,sub8
NA,mars-trial,22,73784,0.0-10.0-1.4,"""event"",""trial"",""time""
""fullscreenenter"",""0"",""3608""
","
","
","""event"",""trial"",""time""
""fullscreenenter"",""0"",""3608""
","
",2117.744999995921,<img style='border: 4px solid darkgrey;' src='img/tf1_5_M_ss1.jpeg'></img>,3,NA,exp,NA,0,<img src='img/tf1_5_T1_ss1_md.jpeg'></img>,0,TRUE,NA,sub8
NA,html-keyboard-response,23,74286,0.0-10.0-0.5,"""event"",""trial"",""time""
""fullscreenenter"",""0"",""3608""
","
","
","""event"",""trial"",""time""
""fullscreenenter"",""0"",""3608""
","
",null,"<div style=""font-size:60px;"">+</div>",NA,null,fixation,2020-06-09T18:45:26Z,NA,NA,NA,NA,NA,sub8
NA,mars-trial,24,79986,0.0-10.0-1.5,"""event"",""trial"",""time""
""fullscreenenter"",""0"",""3608""
","
","
","""event"",""trial"",""time""
""fullscreenenter"",""0"",""3608""
","
",5096.964999975171,<img style='border: 4px solid darkgrey;' src='img/tf1_6_M_ss2.jpeg'></img>,3,NA,exp,NA,0,<img src='img/tf1_6_T1_ss2_md.jpeg'></img>,0,TRUE,NA,sub8
NA,html-keyboard-response,25,80488,0.0-10.0-0.6,"""event"",""trial"",""time""
""fullscreenenter"",""0"",""3608""
","
","
","""event"",""trial"",""time""
""fullscreenenter"",""0"",""3608""
","
",null,"<div style=""font-size:60px;"">+</div>",NA,null,fixation,2020-06-09T18:45:32Z,NA,NA,NA,NA,NA,sub8
NA,mars-trial,26,84796,0.0-10.0-1.6,"""event"",""trial"",""time""
""fullscreenenter"",""0"",""3608""
","
","
","""event"",""trial"",""time""
""fullscreenenter"",""0"",""3608""
","
",3704.540000006091,<img style='border: 4px solid darkgrey;' src='img/tf1_7_M_ss3.jpeg'></img>,1,NA,exp,NA,0,<img src='img/tf1_7_T1_ss3_md.jpeg'></img>,0,TRUE,NA,sub8
NA,html-keyboard-response,27,85296,0.0-10.0-0.7,"""event"",""trial"",""time""
""fullscreenenter"",""0"",""3608""
","
","
","""event"",""trial"",""time""
""fullscreenenter"",""0"",""3608""
","
",null,"<div style=""font-size:60px;"">+</div>",NA,null,fixation,2020-06-09T18:45:37Z,NA,NA,NA,NA,NA,sub8
NA,mars-trial,28,90482,0.0-10.0-1.7,"""event"",""trial"",""time""
""fullscreenenter"",""0"",""3608""
","
","
","""event"",""trial"",""time""
""fullscreenenter"",""0"",""3608""
","
",4582.534999994095,<img style='border: 4px solid darkgrey;' src='img/tf1_8_M_ss1.jpeg'></img>,2,NA,exp,NA,0,<img src='img/tf1_8_T1_ss1_md.jpeg'></img>,0,TRUE,NA,sub8
NA,html-keyboard-response,29,90984,0.0-10.0-0.8,"""event"",""trial"",""time""
""fullscreenenter"",""0"",""3608""
","
","
","""event"",""trial"",""time""
""fullscreenenter"",""0"",""3608""
","
",null,"<div style=""font-size:60px;"">+</div>",NA,null,fixation,2020-06-09T18:45:42Z,NA,NA,NA,NA,NA,sub8
NA,mars-trial,30,95650,0.0-10.0-1.8,"""event"",""trial"",""time""
""fullscreenenter"",""0"",""3608""
","
","
","""event"",""trial"",""time""
""fullscreenenter"",""0"",""3608""
","
",4064.0349999885075,<img style='border: 4px solid darkgrey;' src='img/tf1_9_M_ss2.jpeg'></img>,2,NA,exp,NA,0,<img src='img/tf1_9_T1_ss2_md.jpeg'></img>,0,TRUE,NA,sub8
NA,html-keyboard-response,31,96151,0.0-10.0-0.9,"""event"",""trial"",""time""
""fullscreenenter"",""0"",""3608""
","
","
","""event"",""trial"",""time""
""fullscreenenter"",""0"",""3608""
","
",null,"<div style=""font-size:60px;"">+</div>",NA,null,fixation,2020-06-09T18:45:48Z,NA,NA,NA,NA,NA,sub8
NA,mars-trial,32,119622,0.0-10.0-1.9,"""event"",""trial"",""time""
""fullscreenenter"",""0"",""3608""
","
","
","""event"",""trial"",""time""
""fullscreenenter"",""0"",""3608""
","
",22867.260000028182,<img style='border: 4px solid darkgrey;' src='img/tf1_10_M_ss3.jpeg'></img>,3,NA,exp,NA,0,<img src='img/tf1_10_T1_ss3_md.jpeg'></img>,0,TRUE,NA,sub8
NA,html-keyboard-response,33,120123,0.0-10.0-0.10,"""event"",""trial"",""time""
""fullscreenenter"",""0"",""3608""
","
","
","""event"",""trial"",""time""
""fullscreenenter"",""0"",""3608""
","
",null,"<div style=""font-size:60px;"">+</div>",NA,null,fixation,2020-06-09T18:46:11Z,NA,NA,NA,NA,NA,sub8
NA,mars-trial,34,144998,0.0-10.0-1.10,"""event"",""trial"",""time""
""fullscreenenter"",""0"",""3608""
","
","
","""event"",""trial"",""time""
""fullscreenenter"",""0"",""3608""
","
",24271.309999981895,<img style='border: 4px solid darkgrey;' src='img/tf1_11_M_ss1.jpeg'></img>,2,NA,exp,NA,0,<img src='img/tf1_11_T1_ss1_md.jpeg'></img>,0,TRUE,NA,sub8
NA,html-keyboard-response,35,145499,0.0-10.0-0.11,"""event"",""trial"",""time""
""fullscreenenter"",""0"",""3608""
","
","
","""event"",""trial"",""time""
""fullscreenenter"",""0"",""3608""
","
",null,"<div style=""font-size:60px;"">+</div>",NA,null,fixation,2020-06-09T18:46:37Z,NA,NA,NA,NA,NA,sub8
NA,mars-trial,36,162981,0.0-10.0-1.11,"""event"",""trial"",""time""
""fullscreenenter"",""0"",""3608""
","
","
","""event"",""trial"",""time""
""fullscreenenter"",""0"",""3608""
","
",16877.304999972694,<img style='border: 4px solid darkgrey;' src='img/tf1_12_M_ss2.jpeg'></img>,2,NA,exp,NA,0,<img src='img/tf1_12_T1_ss2_md.jpeg'></img>,0,TRUE,NA,sub8
NA,html-keyboard-response,37,163482,0.0-10.0-0.12,"""event"",""trial"",""time""
""fullscreenenter"",""0"",""3608""
","
","
","""event"",""trial"",""time""
""fullscreenenter"",""0"",""3608""
","
",null,"<div style=""font-size:60px;"">+</div>",NA,null,fixation,2020-06-09T18:46:55Z,NA,NA,NA,NA,NA,sub8
NA,mars-trial,38,187070,0.0-10.0-1.12,"""event"",""trial"",""time""
""fullscreenenter"",""0"",""3608""
","
","
","""event"",""trial"",""time""
""fullscreenenter"",""0"",""3608""
","
",22984.469999966677,<img style='border: 4px solid darkgrey;' src='img/tf1_13_M_ss3.jpeg'></img>,3,NA,exp,NA,1,<img src='img/tf1_13_T1_ss3_md.jpeg'></img>,0,FALSE,NA,sub8
NA,html-keyboard-response,39,187571,0.0-10.0-0.13,"""event"",""trial"",""time""
""fullscreenenter"",""0"",""3608""
","
","
","""event"",""trial"",""time""
""fullscreenenter"",""0"",""3608""
","
",null,"<div style=""font-size:60px;"">+</div>",NA,null,fixation,2020-06-09T18:47:19Z,NA,NA,NA,NA,NA,sub8
NA,mars-trial,40,207408,0.0-10.0-1.13,"""event"",""trial"",""time""
""fullscreenenter"",""0"",""3608""
","
","
","""event"",""trial"",""time""
""fullscreenenter"",""0"",""3608""
","
",19233.75000001397,<img style='border: 4px solid darkgrey;' src='img/tf1_14_M_ss1.jpeg'></img>,3,NA,exp,NA,3,<img src='img/tf1_14_T1_ss1_md.jpeg'></img>,0,FALSE,NA,sub8
NA,html-keyboard-response,41,207910,0.0-10.0-0.14,"""event"",""trial"",""time""
""fullscreenenter"",""0"",""3608""
","
","
","""event"",""trial"",""time""
""fullscreenenter"",""0"",""3608""
","
",null,"<div style=""font-size:60px;"">+</div>",NA,null,fixation,2020-06-09T18:47:39Z,NA,NA,NA,NA,NA,sub8
NA,mars-trial,42,234084,0.0-10.0-1.14,"""event"",""trial"",""time""
""fullscreenenter"",""0"",""3608""
","
","
","""event"",""trial"",""time""
""fullscreenenter"",""0"",""3608""
","
",25572.299999999814,<img style='border: 4px solid darkgrey;' src='img/tf1_15_M_ss2.jpeg'></img>,0,NA,exp,NA,2,<img src='img/tf1_15_T1_ss2_md.jpeg'></img>,0,FALSE,NA,sub8
NA,html-keyboard-response,43,234585,0.0-10.0-0.15,"""event"",""trial"",""time""
""fullscreenenter"",""0"",""3608""
","
","
","""event"",""trial"",""time""
""fullscreenenter"",""0"",""3608""
","
",null,"<div style=""font-size:60px;"">+</div>",NA,null,fixation,2020-06-09T18:48:06Z,NA,NA,NA,NA,NA,sub8
NA,mars-trial,44,260050,0.0-10.0-1.15,"""event"",""trial"",""time""
""fullscreenenter"",""0"",""3608""
","
","
","""event"",""trial"",""time""
""fullscreenenter"",""0"",""3608""
","
",24860.920000006445,<img style='border: 4px solid darkgrey;' src='img/tf1_16_M_ss3.jpeg'></img>,3,NA,exp,NA,0,<img src='img/tf1_16_T1_ss3_md.jpeg'></img>,0,TRUE,NA,sub8
NA,html-keyboard-response,45,260552,0.0-10.0-0.16,"""event"",""trial"",""time""
""fullscreenenter"",""0"",""3608""
","
","
","""event"",""trial"",""time""
""fullscreenenter"",""0"",""3608""
","
",null,"<div style=""font-size:60px;"">+</div>",NA,null,fixation,2020-06-09T18:48:32Z,NA,NA,NA,NA,NA,sub8
NA,mars-trial,46,287331,0.0-10.0-1.16,"""event"",""trial"",""time""
""fullscreenenter"",""0"",""3608""
","
","
","""event"",""trial"",""time""
""fullscreenenter"",""0"",""3608""
","
",26174.959999974817,<img style='border: 4px solid darkgrey;' src='img/tf1_17_M_ss1.jpeg'></img>,1,NA,exp,NA,2,<img src='img/tf1_17_T1_ss1_md.jpeg'></img>,0,FALSE,NA,sub8
NA,html-keyboard-response,47,287831,0.0-10.0-0.17,"""event"",""trial"",""time""
""fullscreenenter"",""0"",""3608""
","
","
","""event"",""trial"",""time""
""fullscreenenter"",""0"",""3608""
","
",null,"<div style=""font-size:60px;"">+</div>",NA,null,fixation,2020-06-09T18:48:59Z,NA,NA,NA,NA,NA,sub8
NA,mars-trial,48,299885,0.0-10.0-1.17,"""event"",""trial"",""time""
""fullscreenenter"",""0"",""3608""
","
","
","""event"",""trial"",""time""
""fullscreenenter"",""0"",""3608""
","
",11450.439999985974,<img style='border: 4px solid darkgrey;' src='img/tf1_18_M_ss2.jpeg'></img>,3,NA,exp,NA,0,<img src='img/tf1_18_T1_ss2_md.jpeg'></img>,0,TRUE,NA,sub8
NA,html-keyboard-response,49,300386,0.0-10.0-0.18,"""event"",""trial"",""time""
""fullscreenenter"",""0"",""3608""
","
","
","""event"",""trial"",""time""
""fullscreenenter"",""0"",""3608""
","
",null,"<div style=""font-size:60px;"">+</div>",NA,null,fixation,2020-06-09T18:49:12Z,NA,NA,NA,NA,NA,sub8
NA,mars-trial,50,311007,0.0-10.0-1.18,"""event"",""trial"",""time""
""fullscreenenter"",""0"",""3608""
","
","
","""event"",""trial"",""time""
""fullscreenenter"",""0"",""3608""
","
",10017.429999948945,<img style='border: 4px solid darkgrey;' src='img/tf1_19_M_ss3.jpeg'></img>,3,NA,exp,NA,2,<img src='img/tf1_19_T1_ss3_md.jpeg'></img>,0,FALSE,NA,sub8
NA,html-keyboard-response,51,311508,0.0-10.0-0.19,"""event"",""trial"",""time""
""fullscreenenter"",""0"",""3608""
","
","
","""event"",""trial"",""time""
""fullscreenenter"",""0"",""3608""
","
",null,"<div style=""font-size:60px;"">+</div>",NA,null,fixation,2020-06-09T18:49:23Z,NA,NA,NA,NA,NA,sub8
NA,mars-trial,52,325311,0.0-10.0-1.19,"""event"",""trial"",""time""
""fullscreenenter"",""0"",""3608""
","
","
","""event"",""trial"",""time""
""fullscreenenter"",""0"",""3608""
","
",13199.015000020154,<img style='border: 4px solid darkgrey;' src='img/tf1_20_M_ss1.jpeg'></img>,1,NA,exp,NA,0,<img src='img/tf1_20_T1_ss1_md.jpeg'></img>,0,TRUE,NA,sub8
NA,html-keyboard-response,53,325812,0.0-10.0-0.20,"""event"",""trial"",""time""
""fullscreenenter"",""0"",""3608""
","
","
","""event"",""trial"",""time""
""fullscreenenter"",""0"",""3608""
","
",null,"<div style=""font-size:60px;"">+</div>",NA,null,fixation,2020-06-09T18:49:37Z,NA,NA,NA,NA,NA,sub8
NA,mars-trial,54,352378,0.0-10.0-1.20,"""event"",""trial"",""time""
""fullscreenenter"",""0"",""3608""
","
","
","""event"",""trial"",""time""
""fullscreenenter"",""0"",""3608""
","
",25962.58500003023,<img style='border: 4px solid darkgrey;' src='img/tf1_21_M_ss2.jpeg'></img>,0,NA,exp,NA,3,<img src='img/tf1_21_T1_ss2_md.jpeg'></img>,0,FALSE,NA,sub8
NA,html-keyboard-response,55,352879,0.0-10.0-0.21,"""event"",""trial"",""time""
""fullscreenenter"",""0"",""3608""
","
","
","""event"",""trial"",""time""
""fullscreenenter"",""0"",""3608""
","
",null,"<div style=""font-size:60px;"">+</div>",NA,null,fixation,2020-06-09T18:50:04Z,NA,NA,NA,NA,NA,sub8
NA,mars-trial,56,362756,0.0-10.0-1.21,"""event"",""trial"",""time""
""fullscreenenter"",""0"",""3608""
","
","
","""event"",""trial"",""time""
""fullscreenenter"",""0"",""3608""
","
",9273.274999985006,<img style='border: 4px solid darkgrey;' src='img/tf1_22_M_ss3.jpeg'></img>,2,NA,exp,NA,3,<img src='img/tf1_22_T1_ss3_md.jpeg'></img>,0,FALSE,NA,sub8
NA,html-keyboard-response,57,363258,0.0-10.0-0.22,"""event"",""trial"",""time""
""fullscreenenter"",""0"",""3608""
","
","
","""event"",""trial"",""time""
""fullscreenenter"",""0"",""3608""
","
",null,"<div style=""font-size:60px;"">+</div>",NA,null,fixation,2020-06-09T18:50:15Z,NA,NA,NA,NA,NA,sub8
NA,mars-trial,58,374074,0.0-10.0-1.22,"""event"",""trial"",""time""
""fullscreenenter"",""0"",""3608""
","
","
","""event"",""trial"",""time""
""fullscreenenter"",""0"",""3608""
","
",10212.475000007544,<img style='border: 4px solid darkgrey;' src='img/tf1_23_M_ss1.jpeg'></img>,0,NA,exp,NA,0,<img src='img/tf1_23_T1_ss1_md.jpeg'></img>,0,TRUE,NA,sub8
NA,html-keyboard-response,59,374575,0.0-10.0-0.23,"""event"",""trial"",""time""
""fullscreenenter"",""0"",""3608""
","
","
","""event"",""trial"",""time""
""fullscreenenter"",""0"",""3608""
","
",null,"<div style=""font-size:60px;"">+</div>",NA,null,fixation,2020-06-09T18:50:26Z,NA,NA,NA,NA,NA,sub8
NA,mars-trial,60,392788,0.0-10.0-1.23,"""event"",""trial"",""time""
""fullscreenenter"",""0"",""3608""
","
","
","""event"",""trial"",""time""
""fullscreenenter"",""0"",""3608""
","
",17608.364999992773,<img style='border: 4px solid darkgrey;' src='img/tf1_24_M_ss2.jpeg'></img>,0,NA,exp,NA,2,<img src='img/tf1_24_T1_ss2_md.jpeg'></img>,0,FALSE,NA,sub8
NA,html-keyboard-response,61,393289,0.0-10.0-0.24,"""event"",""trial"",""time""
""fullscreenenter"",""0"",""3608""
","
","
","""event"",""trial"",""time""
""fullscreenenter"",""0"",""3608""
","
",null,"<div style=""font-size:60px;"">+</div>",NA,null,fixation,2020-06-09T18:50:45Z,NA,NA,NA,NA,NA,sub8
NA,mars-trial,62,400281,0.0-10.0-1.24,"""event"",""trial"",""time""
""fullscreenenter"",""0"",""3608""
","
","
","""event"",""trial"",""time""
""fullscreenenter"",""0"",""3608""
","
",6387.795000046026,<img style='border: 4px solid darkgrey;' src='img/tf1_25_M_ss3.jpeg'></img>,1,NA,exp,NA,0,<img src='img/tf1_25_T1_ss3_md.jpeg'></img>,0,TRUE,NA,sub8
NA,html-keyboard-response,63,400782,0.0-10.0-0.25,"""event"",""trial"",""time""
""fullscreenenter"",""0"",""3608""
","
","
","""event"",""trial"",""time""
""fullscreenenter"",""0"",""3608""
","
",null,"<div style=""font-size:60px;"">+</div>",NA,null,fixation,2020-06-09T18:50:52Z,NA,NA,NA,NA,NA,sub8
NA,mars-trial,64,430188,0.0-10.0-1.25,"""event"",""trial"",""time""
""fullscreenenter"",""0"",""3608""
","
","
","""event"",""trial"",""time""
""fullscreenenter"",""0"",""3608""
","
",28802.219999954104,<img style='border: 4px solid darkgrey;' src='img/tf1_26_M_ss1.jpeg'></img>,0,NA,exp,NA,0,<img src='img/tf1_26_T1_ss1_md.jpeg'></img>,0,TRUE,NA,sub8
NA,html-keyboard-response,65,430689,0.0-10.0-0.26,"""event"",""trial"",""time""
""fullscreenenter"",""0"",""3608""
","
","
","""event"",""trial"",""time""
""fullscreenenter"",""0"",""3608""
","
",null,"<div style=""font-size:60px;"">+</div>",NA,null,fixation,2020-06-09T18:51:22Z,NA,NA,NA,NA,NA,sub8
NA,mars-trial,66,449704,0.0-10.0-1.26,"""event"",""trial"",""time""
""fullscreenenter"",""0"",""3608""
","
","
","""event"",""trial"",""time""
""fullscreenenter"",""0"",""3608""
","
",18411.98999999324,<img style='border: 4px solid darkgrey;' src='img/tf1_27_M_ss2.jpeg'></img>,1,NA,exp,NA,0,<img src='img/tf1_27_T1_ss2_md.jpeg'></img>,0,TRUE,NA,sub8
NA,html-keyboard-response,67,450205,0.0-10.0-0.27,"""event"",""trial"",""time""
""fullscreenenter"",""0"",""3608""
","
","
","""event"",""trial"",""time""
""fullscreenenter"",""0"",""3608""
","
",null,"<div style=""font-size:60px;"">+</div>",NA,null,fixation,2020-06-09T18:51:42Z,NA,NA,NA,NA,NA,sub8
NA,mars-trial,68,477540,0.0-10.0-1.27,"""event"",""trial"",""time""
""fullscreenenter"",""0"",""3608""
","
","
","""event"",""trial"",""time""
""fullscreenenter"",""0"",""3608""
","
",26731.540000007953,<img style='border: 4px solid darkgrey;' src='img/tf1_28_M_ss3.jpeg'></img>,2,NA,exp,NA,0,<img src='img/tf1_28_T1_ss3_md.jpeg'></img>,0,TRUE,NA,sub8
NA,html-keyboard-response,69,478042,0.0-10.0-0.28,"""event"",""trial"",""time""
""fullscreenenter"",""0"",""3608""
","
","
","""event"",""trial"",""time""
""fullscreenenter"",""0"",""3608""
","
",null,"<div style=""font-size:60px;"">+</div>",NA,null,fixation,2020-06-09T18:52:09Z,NA,NA,NA,NA,NA,sub8
NA,mars-trial,70,487900,0.0-10.0-1.28,"""event"",""trial"",""time""
""fullscreenenter"",""0"",""3608""
","
","
","""event"",""trial"",""time""
""fullscreenenter"",""0"",""3608""
","
",9254.320000007283,<img style='border: 4px solid darkgrey;' src='img/tf1_29_M_ss1.jpeg'></img>,0,NA,exp,NA,3,<img src='img/tf1_29_T1_ss1_md.jpeg'></img>,0,FALSE,NA,sub8
NA,html-keyboard-response,71,488401,0.0-10.0-0.29,"""event"",""trial"",""time""
""fullscreenenter"",""0"",""3608""
","
","
","""event"",""trial"",""time""
""fullscreenenter"",""0"",""3608""
","
",null,"<div style=""font-size:60px;"">+</div>",NA,null,fixation,2020-06-09T18:52:20Z,NA,NA,NA,NA,NA,sub8
NA,mars-trial,72,514516,0.0-10.0-1.29,"""event"",""trial"",""time""
""fullscreenenter"",""0"",""3608""
","
","
","""event"",""trial"",""time""
""fullscreenenter"",""0"",""3608""
","
",25511.629999964498,<img style='border: 4px solid darkgrey;' src='img/tf1_30_M_ss2.jpeg'></img>,2,NA,exp,NA,0,<img src='img/tf1_30_T1_ss2_md.jpeg'></img>,0,TRUE,NA,sub8
NA,html-keyboard-response,73,515017,0.0-10.0-0.30,"""event"",""trial"",""time""
""fullscreenenter"",""0"",""3608""
","
","
","""event"",""trial"",""time""
""fullscreenenter"",""0"",""3608""
","
",null,"<div style=""font-size:60px;"">+</div>",NA,null,fixation,2020-06-09T18:52:46Z,NA,NA,NA,NA,NA,sub8
NA,mars-trial,74,534663,0.0-10.0-1.30,"""event"",""trial"",""time""
""fullscreenenter"",""0"",""3608""
","
","
","""event"",""trial"",""time""
""fullscreenenter"",""0"",""3608""
","
",19041.81000002427,<img style='border: 4px solid darkgrey;' src='img/tf1_31_M_ss3.jpeg'></img>,3,NA,exp,NA,0,<img src='img/tf1_31_T1_ss3_md.jpeg'></img>,0,TRUE,NA,sub8
NA,html-keyboard-response,75,535164,0.0-10.0-0.31,"""event"",""trial"",""time""
""fullscreenenter"",""0"",""3608""
","
","
","""event"",""trial"",""time""
""fullscreenenter"",""0"",""3608""
","
",null,"<div style=""font-size:60px;"">+</div>",NA,null,fixation,2020-06-09T18:53:07Z,NA,NA,NA,NA,NA,sub8
NA,mars-trial,76,537348,0.0-10.0-1.31,"""event"",""trial"",""time""
""fullscreenenter"",""0"",""3608""
","
","
","""event"",""trial"",""time""
""fullscreenenter"",""0"",""3608""
","
",NA,NA,NA,NA,exp,NA,NA,<img src='img/tf1_32_T1_ss1_md.jpeg'></img>,0,FALSE,NA,sub8
NA,html-keyboard-response,77,537849,0.0-10.0-0.32,"""event"",""trial"",""time""
""fullscreenenter"",""0"",""3608""
","
","
","""event"",""trial"",""time""
""fullscreenenter"",""0"",""3608""
","
",null,"<div style=""font-size:60px;"">+</div>",NA,null,fixation,2020-06-09T18:53:09Z,NA,NA,NA,NA,NA,sub8
NA,audio-button-response,78,542063,0.0-11.0,"""event"",""trial"",""time""
""fullscreenenter"",""0"",""3608""
","
","
","""event"",""trial"",""time""
""fullscreenenter"",""0"",""3608""
","
",4113.115000014659,audio/mars_instructions_slide5.wav,0,NA,NA,NA,NA,NA,NA,NA,NA,sub8
