success,trial_type,trial_index,time_elapsed,internal_node_id,interactions,blur_events,focus_events,fullscreenenter_events,fullscreenexit_events,rt,stimulus,button_pressed,key_press,part,timestamp,unshuffled_button,correct_response,correct_button,correct,value,subject_id
TRUE,fullscreen,0,8314,0.0-0.0,"""event"",""trial"",""time""
""fullscreenenter"",""0"",""7337""
","
","
","""event"",""trial"",""time""
""fullscreenenter"",""0"",""7337""
","
",NA,NA,NA,NA,NA,NA,NA,NA,NA,NA,NA,sub68
NA,pavlovia,1,8324,0.0-1.0,"""event"",""trial"",""time""
""fullscreenenter"",""0"",""7337""
","
","
","""event"",""trial"",""time""
""fullscreenenter"",""0"",""7337""
","
",NA,NA,NA,NA,NA,NA,NA,NA,NA,NA,NA,sub68
NA,html-button-response,2,9834,0.0-2.0,"""event"",""trial"",""time""
""fullscreenenter"",""0"",""7337""
","
","
","""event"",""trial"",""time""
""fullscreenenter"",""0"",""7337""
","
",1507.0850000047358,<p>Welcome! Press START to begin.</p><br>,0,NA,NA,NA,NA,NA,NA,NA,NA,sub68
NA,audio-button-response,3,39585,0.0-3.0,"""event"",""trial"",""time""
""fullscreenenter"",""0"",""7337""
","
","
","""event"",""trial"",""time""
""fullscreenenter"",""0"",""7337""
","
",29748.859999999695,audio/mars_instructions_slide2.wav,0,NA,NA,NA,NA,NA,NA,NA,NA,sub68
NA,audio-button-response,4,56306,0.0-4.0,"""event"",""trial"",""time""
""fullscreenenter"",""0"",""7337""
","
","
","""event"",""trial"",""time""
""fullscreenenter"",""0"",""7337""
","
",16718.4849999976,audio/mars_instructions_slide3.wav,0,NA,NA,NA,NA,NA,NA,NA,NA,sub68
NA,html-keyboard-response,5,56809,0.0-5.0-0.0,"""event"",""trial"",""time""
""fullscreenenter"",""0"",""7337""
","
","
","""event"",""trial"",""time""
""fullscreenenter"",""0"",""7337""
","
",null,"<div style=""font-size:60px;"">+</div>",NA,null,fixation,2020-06-20T18:30:58Z,NA,NA,NA,NA,NA,sub68
NA,mars-trial,6,65257,0.0-5.0-1.0,"""event"",""trial"",""time""
""fullscreenenter"",""0"",""7337""
","
","
","""event"",""trial"",""time""
""fullscreenenter"",""0"",""7337""
","
",6335.509999997157,<img style='border: 4px solid darkgrey;' src='practice/pt1_M1.png'></img>,0,NA,practice,NA,0,<img src='practice/pt1_T1.png'></img>,0,TRUE,NA,sub68
NA,html-keyboard-response,7,65763,0.0-6.0-0.0,"""event"",""trial"",""time""
""fullscreenenter"",""0"",""7337""
","
","
","""event"",""trial"",""time""
""fullscreenenter"",""0"",""7337""
","
",null,"<div style=""font-size:60px;"">+</div>",NA,null,fixation,2020-06-20T18:31:07Z,NA,NA,NA,NA,NA,sub68
NA,mars-trial,8,71187,0.0-6.0-1.0,"""event"",""trial"",""time""
""fullscreenenter"",""0"",""7337""
","
","
","""event"",""trial"",""time""
""fullscreenenter"",""0"",""7337""
","
",3318.475000000035,<img style='border: 4px solid darkgrey;' src='practice/pt2_M1.png'></img>,0,NA,practice,NA,0,<img src='practice/pt2_T1.png'></img>,0,TRUE,NA,sub68
NA,html-keyboard-response,9,71690,0.0-7.0-0.0,"""event"",""trial"",""time""
""fullscreenenter"",""0"",""7337""
","
","
","""event"",""trial"",""time""
""fullscreenenter"",""0"",""7337""
","
",null,"<div style=""font-size:60px;"">+</div>",NA,null,fixation,2020-06-20T18:31:13Z,NA,NA,NA,NA,NA,sub68
NA,mars-trial,10,75178,0.0-7.0-1.0,"""event"",""trial"",""time""
""fullscreenenter"",""0"",""7337""
","
","
","""event"",""trial"",""time""
""fullscreenenter"",""0"",""7337""
","
",1382.0249999989755,<img style='border: 4px solid darkgrey;' src='practice/pt3_M1.png'></img>,2,NA,practice,NA,0,<img src='practice/pt3_T1.png'></img>,0,TRUE,NA,sub68
NA,audio-button-response,11,94872,0.0-8.0,"""event"",""trial"",""time""
""fullscreenenter"",""0"",""7337""
","
","
","""event"",""trial"",""time""
""fullscreenenter"",""0"",""7337""
","
",19689.100000003236,audio/mars_instructions_slide4.wav,0,NA,NA,NA,NA,NA,NA,NA,NA,sub68
NA,call-function,12,94875,0.0-9.0,"""event"",""trial"",""time""
""fullscreenenter"",""0"",""7337""
","
","
","""event"",""trial"",""time""
""fullscreenenter"",""0"",""7337""
","
",NA,NA,NA,NA,NA,NA,NA,NA,NA,NA,NA,sub68
NA,html-keyboard-response,13,95377,0.0-10.0-0.0,"""event"",""trial"",""time""
""fullscreenenter"",""0"",""7337""
","
","
","""event"",""trial"",""time""
""fullscreenenter"",""0"",""7337""
","
",null,"<div style=""font-size:60px;"">+</div>",NA,null,fixation,2020-06-20T18:31:36Z,NA,NA,NA,NA,NA,sub68
NA,mars-trial,14,97705,0.0-10.0-1.0,"""event"",""trial"",""time""
""fullscreenenter"",""0"",""7337""
","
","
","""event"",""trial"",""time""
""fullscreenenter"",""0"",""7337""
","
",1721.0500000001048,<img style='border: 4px solid darkgrey;' src='img/tf1_1_M_ss3.jpeg'></img>,3,NA,exp,NA,0,<img src='img/tf1_1_T1_ss3_md.jpeg'></img>,0,TRUE,NA,sub68
NA,html-keyboard-response,15,98208,0.0-10.0-0.1,"""event"",""trial"",""time""
""fullscreenenter"",""0"",""7337""
","
","
","""event"",""trial"",""time""
""fullscreenenter"",""0"",""7337""
","
",null,"<div style=""font-size:60px;"">+</div>",NA,null,fixation,2020-06-20T18:31:39Z,NA,NA,NA,NA,NA,sub68
NA,mars-trial,16,101445,0.0-10.0-1.1,"""event"",""trial"",""time""
""fullscreenenter"",""0"",""7337""
","
","
","""event"",""trial"",""time""
""fullscreenenter"",""0"",""7337""
","
",2632.229999995616,<img style='border: 4px solid darkgrey;' src='img/tf1_2_M_ss1.jpeg'></img>,1,NA,exp,NA,0,<img src='img/tf1_2_T1_ss1_md.jpeg'></img>,0,TRUE,NA,sub68
NA,html-keyboard-response,17,101947,0.0-10.0-0.2,"""event"",""trial"",""time""
""fullscreenenter"",""0"",""7337""
","
","
","""event"",""trial"",""time""
""fullscreenenter"",""0"",""7337""
","
",null,"<div style=""font-size:60px;"">+</div>",NA,null,fixation,2020-06-20T18:31:43Z,NA,NA,NA,NA,NA,sub68
NA,mars-trial,18,104913,0.0-10.0-1.2,"""event"",""trial"",""time""
""fullscreenenter"",""0"",""7337""
","
","
","""event"",""trial"",""time""
""fullscreenenter"",""0"",""7337""
","
",2358.845000002475,<img style='border: 4px solid darkgrey;' src='img/tf1_3_M_ss2.jpeg'></img>,0,NA,exp,NA,0,<img src='img/tf1_3_T1_ss2_md.jpeg'></img>,0,TRUE,NA,sub68
NA,html-keyboard-response,19,105415,0.0-10.0-0.3,"""event"",""trial"",""time""
""fullscreenenter"",""0"",""7337""
","
","
","""event"",""trial"",""time""
""fullscreenenter"",""0"",""7337""
","
",null,"<div style=""font-size:60px;"">+</div>",NA,null,fixation,2020-06-20T18:31:46Z,NA,NA,NA,NA,NA,sub68
NA,mars-trial,20,108683,0.0-10.0-1.3,"""event"",""trial"",""time""
""fullscreenenter"",""0"",""7337""
","
","
","""event"",""trial"",""time""
""fullscreenenter"",""0"",""7337""
","
",2663.2450000033714,<img style='border: 4px solid darkgrey;' src='img/tf1_4_M_ss3.jpeg'></img>,0,NA,exp,NA,0,<img src='img/tf1_4_T1_ss3_md.jpeg'></img>,0,TRUE,NA,sub68
NA,html-keyboard-response,21,109185,0.0-10.0-0.4,"""event"",""trial"",""time""
""fullscreenenter"",""0"",""7337""
","
","
","""event"",""trial"",""time""
""fullscreenenter"",""0"",""7337""
","
",null,"<div style=""font-size:60px;"">+</div>",NA,null,fixation,2020-06-20T18:31:50Z,NA,NA,NA,NA,NA,sub68
NA,mars-trial,22,111770,0.0-10.0-1.4,"""event"",""trial"",""time""
""fullscreenenter"",""0"",""7337""
","
","
","""event"",""trial"",""time""
""fullscreenenter"",""0"",""7337""
","
",1978.9349999991828,<img style='border: 4px solid darkgrey;' src='img/tf1_5_M_ss1.jpeg'></img>,3,NA,exp,NA,0,<img src='img/tf1_5_T1_ss1_md.jpeg'></img>,0,TRUE,NA,sub68
NA,html-keyboard-response,23,112273,0.0-10.0-0.5,"""event"",""trial"",""time""
""fullscreenenter"",""0"",""7337""
""blur"",""24"",""119250""
""focus"",""24"",""124869""
","""event"",""trial"",""time""
""blur"",""24"",""119250""
","""event"",""trial"",""time""
""focus"",""24"",""124869""
","""event"",""trial"",""time""
""fullscreenenter"",""0"",""7337""
","
",null,"<div style=""font-size:60px;"">+</div>",NA,null,fixation,2020-06-20T18:31:53Z,NA,NA,NA,NA,NA,sub68
NA,mars-trial,24,125474,0.0-10.0-1.5,"""event"",""trial"",""time""
""fullscreenenter"",""0"",""7337""
""blur"",""24"",""119250""
""focus"",""24"",""124869""
","""event"",""trial"",""time""
""blur"",""24"",""119250""
","""event"",""trial"",""time""
""focus"",""24"",""124869""
","""event"",""trial"",""time""
""fullscreenenter"",""0"",""7337""
","
",12593.610000003537,<img style='border: 4px solid darkgrey;' src='img/tf1_6_M_ss2.jpeg'></img>,0,NA,exp,NA,0,<img src='img/tf1_6_T1_ss2_md.jpeg'></img>,0,TRUE,NA,sub68
NA,html-keyboard-response,25,125976,0.0-10.0-0.6,"""event"",""trial"",""time""
""fullscreenenter"",""0"",""7337""
""blur"",""24"",""119250""
""focus"",""24"",""124869""
","""event"",""trial"",""time""
""blur"",""24"",""119250""
","""event"",""trial"",""time""
""focus"",""24"",""124869""
","""event"",""trial"",""time""
""fullscreenenter"",""0"",""7337""
","
",null,"<div style=""font-size:60px;"">+</div>",NA,null,fixation,2020-06-20T18:32:07Z,NA,NA,NA,NA,NA,sub68
NA,mars-trial,26,130466,0.0-10.0-1.6,"""event"",""trial"",""time""
""fullscreenenter"",""0"",""7337""
""blur"",""24"",""119250""
""focus"",""24"",""124869""
","""event"",""trial"",""time""
""blur"",""24"",""119250""
","""event"",""trial"",""time""
""focus"",""24"",""124869""
","""event"",""trial"",""time""
""fullscreenenter"",""0"",""7337""
","
",3883.289999997942,<img style='border: 4px solid darkgrey;' src='img/tf1_7_M_ss3.jpeg'></img>,0,NA,exp,NA,0,<img src='img/tf1_7_T1_ss3_md.jpeg'></img>,0,TRUE,NA,sub68
NA,html-keyboard-response,27,130968,0.0-10.0-0.7,"""event"",""trial"",""time""
""fullscreenenter"",""0"",""7337""
""blur"",""24"",""119250""
""focus"",""24"",""124869""
","""event"",""trial"",""time""
""blur"",""24"",""119250""
","""event"",""trial"",""time""
""focus"",""24"",""124869""
","""event"",""trial"",""time""
""fullscreenenter"",""0"",""7337""
","
",null,"<div style=""font-size:60px;"">+</div>",NA,null,fixation,2020-06-20T18:32:12Z,NA,NA,NA,NA,NA,sub68
NA,mars-trial,28,134810,0.0-10.0-1.7,"""event"",""trial"",""time""
""fullscreenenter"",""0"",""7337""
""blur"",""24"",""119250""
""focus"",""24"",""124869""
","""event"",""trial"",""time""
""blur"",""24"",""119250""
","""event"",""trial"",""time""
""focus"",""24"",""124869""
","""event"",""trial"",""time""
""fullscreenenter"",""0"",""7337""
","
",3232.98000000068,<img style='border: 4px solid darkgrey;' src='img/tf1_8_M_ss1.jpeg'></img>,2,NA,exp,NA,0,<img src='img/tf1_8_T1_ss1_md.jpeg'></img>,0,TRUE,NA,sub68
NA,html-keyboard-response,29,135314,0.0-10.0-0.8,"""event"",""trial"",""time""
""fullscreenenter"",""0"",""7337""
""blur"",""24"",""119250""
""focus"",""24"",""124869""
","""event"",""trial"",""time""
""blur"",""24"",""119250""
","""event"",""trial"",""time""
""focus"",""24"",""124869""
","""event"",""trial"",""time""
""fullscreenenter"",""0"",""7337""
","
",null,"<div style=""font-size:60px;"">+</div>",NA,null,fixation,2020-06-20T18:32:16Z,NA,NA,NA,NA,NA,sub68
NA,mars-trial,30,142550,0.0-10.0-1.8,"""event"",""trial"",""time""
""fullscreenenter"",""0"",""7337""
""blur"",""24"",""119250""
""focus"",""24"",""124869""
","""event"",""trial"",""time""
""blur"",""24"",""119250""
","""event"",""trial"",""time""
""focus"",""24"",""124869""
","""event"",""trial"",""time""
""fullscreenenter"",""0"",""7337""
","
",6630.99499999953,<img style='border: 4px solid darkgrey;' src='img/tf1_9_M_ss2.jpeg'></img>,0,NA,exp,NA,0,<img src='img/tf1_9_T1_ss2_md.jpeg'></img>,0,TRUE,NA,sub68
NA,html-keyboard-response,31,143053,0.0-10.0-0.9,"""event"",""trial"",""time""
""fullscreenenter"",""0"",""7337""
""blur"",""24"",""119250""
""focus"",""24"",""124869""
","""event"",""trial"",""time""
""blur"",""24"",""119250""
","""event"",""trial"",""time""
""focus"",""24"",""124869""
","""event"",""trial"",""time""
""fullscreenenter"",""0"",""7337""
","
",null,"<div style=""font-size:60px;"">+</div>",NA,null,fixation,2020-06-20T18:32:24Z,NA,NA,NA,NA,NA,sub68
NA,mars-trial,32,148682,0.0-10.0-1.9,"""event"",""trial"",""time""
""fullscreenenter"",""0"",""7337""
""blur"",""24"",""119250""
""focus"",""24"",""124869""
","""event"",""trial"",""time""
""blur"",""24"",""119250""
","""event"",""trial"",""time""
""focus"",""24"",""124869""
","""event"",""trial"",""time""
""fullscreenenter"",""0"",""7337""
","
",5023.139999997511,<img style='border: 4px solid darkgrey;' src='img/tf1_10_M_ss3.jpeg'></img>,3,NA,exp,NA,0,<img src='img/tf1_10_T1_ss3_md.jpeg'></img>,0,TRUE,NA,sub68
NA,html-keyboard-response,33,149184,0.0-10.0-0.10,"""event"",""trial"",""time""
""fullscreenenter"",""0"",""7337""
""blur"",""24"",""119250""
""focus"",""24"",""124869""
","""event"",""trial"",""time""
""blur"",""24"",""119250""
","""event"",""trial"",""time""
""focus"",""24"",""124869""
","""event"",""trial"",""time""
""fullscreenenter"",""0"",""7337""
","
",null,"<div style=""font-size:60px;"">+</div>",NA,null,fixation,2020-06-20T18:32:30Z,NA,NA,NA,NA,NA,sub68
NA,mars-trial,34,160655,0.0-10.0-1.10,"""event"",""trial"",""time""
""fullscreenenter"",""0"",""7337""
""blur"",""24"",""119250""
""focus"",""24"",""124869""
","""event"",""trial"",""time""
""blur"",""24"",""119250""
","""event"",""trial"",""time""
""focus"",""24"",""124869""
","""event"",""trial"",""time""
""fullscreenenter"",""0"",""7337""
","
",10863.180000000284,<img style='border: 4px solid darkgrey;' src='img/tf1_11_M_ss1.jpeg'></img>,0,NA,exp,NA,1,<img src='img/tf1_11_T1_ss1_md.jpeg'></img>,0,FALSE,NA,sub68
NA,html-keyboard-response,35,161159,0.0-10.0-0.11,"""event"",""trial"",""time""
""fullscreenenter"",""0"",""7337""
""blur"",""24"",""119250""
""focus"",""24"",""124869""
","""event"",""trial"",""time""
""blur"",""24"",""119250""
","""event"",""trial"",""time""
""focus"",""24"",""124869""
","""event"",""trial"",""time""
""fullscreenenter"",""0"",""7337""
","
",null,"<div style=""font-size:60px;"">+</div>",NA,null,fixation,2020-06-20T18:32:42Z,NA,NA,NA,NA,NA,sub68
NA,mars-trial,36,183031,0.0-10.0-1.11,"""event"",""trial"",""time""
""fullscreenenter"",""0"",""7337""
""blur"",""24"",""119250""
""focus"",""24"",""124869""
","""event"",""trial"",""time""
""blur"",""24"",""119250""
","""event"",""trial"",""time""
""focus"",""24"",""124869""
","""event"",""trial"",""time""
""fullscreenenter"",""0"",""7337""
","
",21262.65499999863,<img style='border: 4px solid darkgrey;' src='img/tf1_12_M_ss2.jpeg'></img>,2,NA,exp,NA,1,<img src='img/tf1_12_T1_ss2_md.jpeg'></img>,0,FALSE,NA,sub68
NA,html-keyboard-response,37,183535,0.0-10.0-0.12,"""event"",""trial"",""time""
""fullscreenenter"",""0"",""7337""
""blur"",""24"",""119250""
""focus"",""24"",""124869""
","""event"",""trial"",""time""
""blur"",""24"",""119250""
","""event"",""trial"",""time""
""focus"",""24"",""124869""
","""event"",""trial"",""time""
""fullscreenenter"",""0"",""7337""
","
",null,"<div style=""font-size:60px;"">+</div>",NA,null,fixation,2020-06-20T18:33:04Z,NA,NA,NA,NA,NA,sub68
NA,mars-trial,38,198440,0.0-10.0-1.12,"""event"",""trial"",""time""
""fullscreenenter"",""0"",""7337""
""blur"",""24"",""119250""
""focus"",""24"",""124869""
","""event"",""trial"",""time""
""blur"",""24"",""119250""
","""event"",""trial"",""time""
""focus"",""24"",""124869""
","""event"",""trial"",""time""
""fullscreenenter"",""0"",""7337""
","
",14298.485000006622,<img style='border: 4px solid darkgrey;' src='img/tf1_13_M_ss3.jpeg'></img>,1,NA,exp,NA,3,<img src='img/tf1_13_T1_ss3_md.jpeg'></img>,0,FALSE,NA,sub68
NA,html-keyboard-response,39,198942,0.0-10.0-0.13,"""event"",""trial"",""time""
""fullscreenenter"",""0"",""7337""
""blur"",""24"",""119250""
""focus"",""24"",""124869""
","""event"",""trial"",""time""
""blur"",""24"",""119250""
","""event"",""trial"",""time""
""focus"",""24"",""124869""
","""event"",""trial"",""time""
""fullscreenenter"",""0"",""7337""
","
",null,"<div style=""font-size:60px;"">+</div>",NA,null,fixation,2020-06-20T18:33:20Z,NA,NA,NA,NA,NA,sub68
NA,mars-trial,40,220413,0.0-10.0-1.13,"""event"",""trial"",""time""
""fullscreenenter"",""0"",""7337""
""blur"",""24"",""119250""
""focus"",""24"",""124869""
","""event"",""trial"",""time""
""blur"",""24"",""119250""
","""event"",""trial"",""time""
""focus"",""24"",""124869""
","""event"",""trial"",""time""
""fullscreenenter"",""0"",""7337""
","
",20862.82499999652,<img style='border: 4px solid darkgrey;' src='img/tf1_14_M_ss1.jpeg'></img>,2,NA,exp,NA,0,<img src='img/tf1_14_T1_ss1_md.jpeg'></img>,0,TRUE,NA,sub68
NA,html-keyboard-response,41,220916,0.0-10.0-0.14,"""event"",""trial"",""time""
""fullscreenenter"",""0"",""7337""
""blur"",""24"",""119250""
""focus"",""24"",""124869""
","""event"",""trial"",""time""
""blur"",""24"",""119250""
","""event"",""trial"",""time""
""focus"",""24"",""124869""
","""event"",""trial"",""time""
""fullscreenenter"",""0"",""7337""
","
",null,"<div style=""font-size:60px;"">+</div>",NA,null,fixation,2020-06-20T18:33:42Z,NA,NA,NA,NA,NA,sub68
NA,mars-trial,42,238898,0.0-10.0-1.14,"""event"",""trial"",""time""
""fullscreenenter"",""0"",""7337""
""blur"",""24"",""119250""
""focus"",""24"",""124869""
","""event"",""trial"",""time""
""blur"",""24"",""119250""
","""event"",""trial"",""time""
""focus"",""24"",""124869""
","""event"",""trial"",""time""
""fullscreenenter"",""0"",""7337""
","
",17374.259999996866,<img style='border: 4px solid darkgrey;' src='img/tf1_15_M_ss2.jpeg'></img>,0,NA,exp,NA,0,<img src='img/tf1_15_T1_ss2_md.jpeg'></img>,0,TRUE,NA,sub68
NA,html-keyboard-response,43,239401,0.0-10.0-0.15,"""event"",""trial"",""time""
""fullscreenenter"",""0"",""7337""
""blur"",""24"",""119250""
""focus"",""24"",""124869""
","""event"",""trial"",""time""
""blur"",""24"",""119250""
","""event"",""trial"",""time""
""focus"",""24"",""124869""
","""event"",""trial"",""time""
""fullscreenenter"",""0"",""7337""
","
",null,"<div style=""font-size:60px;"">+</div>",NA,null,fixation,2020-06-20T18:34:00Z,NA,NA,NA,NA,NA,sub68
NA,mars-trial,44,252909,0.0-10.0-1.15,"""event"",""trial"",""time""
""fullscreenenter"",""0"",""7337""
""blur"",""24"",""119250""
""focus"",""24"",""124869""
","""event"",""trial"",""time""
""blur"",""24"",""119250""
","""event"",""trial"",""time""
""focus"",""24"",""124869""
","""event"",""trial"",""time""
""fullscreenenter"",""0"",""7337""
","
",12900.470000000496,<img style='border: 4px solid darkgrey;' src='img/tf1_16_M_ss3.jpeg'></img>,0,NA,exp,NA,1,<img src='img/tf1_16_T1_ss3_md.jpeg'></img>,0,FALSE,NA,sub68
NA,html-keyboard-response,45,253414,0.0-10.0-0.16,"""event"",""trial"",""time""
""fullscreenenter"",""0"",""7337""
""blur"",""24"",""119250""
""focus"",""24"",""124869""
","""event"",""trial"",""time""
""blur"",""24"",""119250""
","""event"",""trial"",""time""
""focus"",""24"",""124869""
","""event"",""trial"",""time""
""fullscreenenter"",""0"",""7337""
","
",null,"<div style=""font-size:60px;"">+</div>",NA,null,fixation,2020-06-20T18:34:14Z,NA,NA,NA,NA,NA,sub68
NA,mars-trial,46,272419,0.0-10.0-1.16,"""event"",""trial"",""time""
""fullscreenenter"",""0"",""7337""
""blur"",""24"",""119250""
""focus"",""24"",""124869""
","""event"",""trial"",""time""
""blur"",""24"",""119250""
","""event"",""trial"",""time""
""focus"",""24"",""124869""
","""event"",""trial"",""time""
""fullscreenenter"",""0"",""7337""
","
",18396.905000001425,<img style='border: 4px solid darkgrey;' src='img/tf1_17_M_ss1.jpeg'></img>,3,NA,exp,NA,0,<img src='img/tf1_17_T1_ss1_md.jpeg'></img>,0,TRUE,NA,sub68
NA,html-keyboard-response,47,272924,0.0-10.0-0.17,"""event"",""trial"",""time""
""fullscreenenter"",""0"",""7337""
""blur"",""24"",""119250""
""focus"",""24"",""124869""
","""event"",""trial"",""time""
""blur"",""24"",""119250""
","""event"",""trial"",""time""
""focus"",""24"",""124869""
","""event"",""trial"",""time""
""fullscreenenter"",""0"",""7337""
","
",null,"<div style=""font-size:60px;"">+</div>",NA,null,fixation,2020-06-20T18:34:34Z,NA,NA,NA,NA,NA,sub68
NA,mars-trial,48,292954,0.0-10.0-1.17,"""event"",""trial"",""time""
""fullscreenenter"",""0"",""7337""
""blur"",""24"",""119250""
""focus"",""24"",""124869""
","""event"",""trial"",""time""
""blur"",""24"",""119250""
","""event"",""trial"",""time""
""focus"",""24"",""124869""
","""event"",""trial"",""time""
""fullscreenenter"",""0"",""7337""
","
",19421.249999999418,<img style='border: 4px solid darkgrey;' src='img/tf1_18_M_ss2.jpeg'></img>,0,NA,exp,NA,3,<img src='img/tf1_18_T1_ss2_md.jpeg'></img>,0,FALSE,NA,sub68
NA,html-keyboard-response,49,293458,0.0-10.0-0.18,"""event"",""trial"",""time""
""fullscreenenter"",""0"",""7337""
""blur"",""24"",""119250""
""focus"",""24"",""124869""
","""event"",""trial"",""time""
""blur"",""24"",""119250""
","""event"",""trial"",""time""
""focus"",""24"",""124869""
","""event"",""trial"",""time""
""fullscreenenter"",""0"",""7337""
","
",null,"<div style=""font-size:60px;"">+</div>",NA,null,fixation,2020-06-20T18:34:54Z,NA,NA,NA,NA,NA,sub68
NA,mars-trial,50,311728,0.0-10.0-1.18,"""event"",""trial"",""time""
""fullscreenenter"",""0"",""7337""
""blur"",""24"",""119250""
""focus"",""24"",""124869""
","""event"",""trial"",""time""
""blur"",""24"",""119250""
","""event"",""trial"",""time""
""focus"",""24"",""124869""
","""event"",""trial"",""time""
""fullscreenenter"",""0"",""7337""
","
",17662.44000000006,<img style='border: 4px solid darkgrey;' src='img/tf1_19_M_ss3.jpeg'></img>,2,NA,exp,NA,0,<img src='img/tf1_19_T1_ss3_md.jpeg'></img>,0,TRUE,NA,sub68
NA,html-keyboard-response,51,312231,0.0-10.0-0.19,"""event"",""trial"",""time""
""fullscreenenter"",""0"",""7337""
""blur"",""24"",""119250""
""focus"",""24"",""124869""
","""event"",""trial"",""time""
""blur"",""24"",""119250""
","""event"",""trial"",""time""
""focus"",""24"",""124869""
","""event"",""trial"",""time""
""fullscreenenter"",""0"",""7337""
","
",null,"<div style=""font-size:60px;"">+</div>",NA,null,fixation,2020-06-20T18:35:13Z,NA,NA,NA,NA,NA,sub68
NA,mars-trial,52,326855,0.0-10.0-1.19,"""event"",""trial"",""time""
""fullscreenenter"",""0"",""7337""
""blur"",""24"",""119250""
""focus"",""24"",""124869""
","""event"",""trial"",""time""
""blur"",""24"",""119250""
","""event"",""trial"",""time""
""focus"",""24"",""124869""
","""event"",""trial"",""time""
""fullscreenenter"",""0"",""7337""
","
",14016.13499999803,<img style='border: 4px solid darkgrey;' src='img/tf1_20_M_ss1.jpeg'></img>,0,NA,exp,NA,0,<img src='img/tf1_20_T1_ss1_md.jpeg'></img>,0,TRUE,NA,sub68
NA,html-keyboard-response,53,327359,0.0-10.0-0.20,"""event"",""trial"",""time""
""fullscreenenter"",""0"",""7337""
""blur"",""24"",""119250""
""focus"",""24"",""124869""
","""event"",""trial"",""time""
""blur"",""24"",""119250""
","""event"",""trial"",""time""
""focus"",""24"",""124869""
","""event"",""trial"",""time""
""fullscreenenter"",""0"",""7337""
","
",null,"<div style=""font-size:60px;"">+</div>",NA,null,fixation,2020-06-20T18:35:28Z,NA,NA,NA,NA,NA,sub68
NA,mars-trial,54,353750,0.0-10.0-1.20,"""event"",""trial"",""time""
""fullscreenenter"",""0"",""7337""
""blur"",""24"",""119250""
""focus"",""24"",""124869""
","""event"",""trial"",""time""
""blur"",""24"",""119250""
","""event"",""trial"",""time""
""focus"",""24"",""124869""
","""event"",""trial"",""time""
""fullscreenenter"",""0"",""7337""
","
",25782.914999996137,<img style='border: 4px solid darkgrey;' src='img/tf1_21_M_ss2.jpeg'></img>,3,NA,exp,NA,3,<img src='img/tf1_21_T1_ss2_md.jpeg'></img>,0,FALSE,NA,sub68
NA,html-keyboard-response,55,354251,0.0-10.0-0.21,"""event"",""trial"",""time""
""fullscreenenter"",""0"",""7337""
""blur"",""24"",""119250""
""focus"",""24"",""124869""
","""event"",""trial"",""time""
""blur"",""24"",""119250""
","""event"",""trial"",""time""
""focus"",""24"",""124869""
","""event"",""trial"",""time""
""fullscreenenter"",""0"",""7337""
","
",null,"<div style=""font-size:60px;"">+</div>",NA,null,fixation,2020-06-20T18:35:55Z,NA,NA,NA,NA,NA,sub68
NA,mars-trial,56,362716,0.0-10.0-1.21,"""event"",""trial"",""time""
""fullscreenenter"",""0"",""7337""
""blur"",""24"",""119250""
""focus"",""24"",""124869""
","""event"",""trial"",""time""
""blur"",""24"",""119250""
","""event"",""trial"",""time""
""focus"",""24"",""124869""
","""event"",""trial"",""time""
""fullscreenenter"",""0"",""7337""
","
",7855.940000001283,<img style='border: 4px solid darkgrey;' src='img/tf1_22_M_ss3.jpeg'></img>,3,NA,exp,NA,0,<img src='img/tf1_22_T1_ss3_md.jpeg'></img>,0,TRUE,NA,sub68
NA,html-keyboard-response,57,363219,0.0-10.0-0.22,"""event"",""trial"",""time""
""fullscreenenter"",""0"",""7337""
""blur"",""24"",""119250""
""focus"",""24"",""124869""
","""event"",""trial"",""time""
""blur"",""24"",""119250""
","""event"",""trial"",""time""
""focus"",""24"",""124869""
","""event"",""trial"",""time""
""fullscreenenter"",""0"",""7337""
","
",null,"<div style=""font-size:60px;"">+</div>",NA,null,fixation,2020-06-20T18:36:04Z,NA,NA,NA,NA,NA,sub68
NA,mars-trial,58,377711,0.0-10.0-1.22,"""event"",""trial"",""time""
""fullscreenenter"",""0"",""7337""
""blur"",""24"",""119250""
""focus"",""24"",""124869""
","""event"",""trial"",""time""
""blur"",""24"",""119250""
","""event"",""trial"",""time""
""focus"",""24"",""124869""
","""event"",""trial"",""time""
""fullscreenenter"",""0"",""7337""
","
",13885.025000003225,<img style='border: 4px solid darkgrey;' src='img/tf1_23_M_ss1.jpeg'></img>,2,NA,exp,NA,0,<img src='img/tf1_23_T1_ss1_md.jpeg'></img>,0,TRUE,NA,sub68
NA,html-keyboard-response,59,378213,0.0-10.0-0.23,"""event"",""trial"",""time""
""fullscreenenter"",""0"",""7337""
""blur"",""24"",""119250""
""focus"",""24"",""124869""
","""event"",""trial"",""time""
""blur"",""24"",""119250""
","""event"",""trial"",""time""
""focus"",""24"",""124869""
","""event"",""trial"",""time""
""fullscreenenter"",""0"",""7337""
","
",null,"<div style=""font-size:60px;"">+</div>",NA,null,fixation,2020-06-20T18:36:19Z,NA,NA,NA,NA,NA,sub68
NA,mars-trial,60,406034,0.0-10.0-1.23,"""event"",""trial"",""time""
""fullscreenenter"",""0"",""7337""
""blur"",""24"",""119250""
""focus"",""24"",""124869""
","""event"",""trial"",""time""
""blur"",""24"",""119250""
","""event"",""trial"",""time""
""focus"",""24"",""124869""
","""event"",""trial"",""time""
""fullscreenenter"",""0"",""7337""
","
",27213.68000000075,<img style='border: 4px solid darkgrey;' src='img/tf1_24_M_ss2.jpeg'></img>,2,NA,exp,NA,1,<img src='img/tf1_24_T1_ss2_md.jpeg'></img>,0,FALSE,NA,sub68
NA,html-keyboard-response,61,406538,0.0-10.0-0.24,"""event"",""trial"",""time""
""fullscreenenter"",""0"",""7337""
""blur"",""24"",""119250""
""focus"",""24"",""124869""
","""event"",""trial"",""time""
""blur"",""24"",""119250""
","""event"",""trial"",""time""
""focus"",""24"",""124869""
","""event"",""trial"",""time""
""fullscreenenter"",""0"",""7337""
","
",null,"<div style=""font-size:60px;"">+</div>",NA,null,fixation,2020-06-20T18:36:47Z,NA,NA,NA,NA,NA,sub68
NA,mars-trial,62,417003,0.0-10.0-1.24,"""event"",""trial"",""time""
""fullscreenenter"",""0"",""7337""
""blur"",""24"",""119250""
""focus"",""24"",""124869""
","""event"",""trial"",""time""
""blur"",""24"",""119250""
","""event"",""trial"",""time""
""focus"",""24"",""124869""
","""event"",""trial"",""time""
""fullscreenenter"",""0"",""7337""
","
",9837.524999995367,<img style='border: 4px solid darkgrey;' src='img/tf1_25_M_ss3.jpeg'></img>,3,NA,exp,NA,1,<img src='img/tf1_25_T1_ss3_md.jpeg'></img>,0,FALSE,NA,sub68
NA,html-keyboard-response,63,417511,0.0-10.0-0.25,"""event"",""trial"",""time""
""fullscreenenter"",""0"",""7337""
""blur"",""24"",""119250""
""focus"",""24"",""124869""
","""event"",""trial"",""time""
""blur"",""24"",""119250""
","""event"",""trial"",""time""
""focus"",""24"",""124869""
","""event"",""trial"",""time""
""fullscreenenter"",""0"",""7337""
","
",null,"<div style=""font-size:60px;"">+</div>",NA,null,fixation,2020-06-20T18:36:58Z,NA,NA,NA,NA,NA,sub68
NA,mars-trial,64,434078,0.0-10.0-1.25,"""event"",""trial"",""time""
""fullscreenenter"",""0"",""7337""
""blur"",""24"",""119250""
""focus"",""24"",""124869""
","""event"",""trial"",""time""
""blur"",""24"",""119250""
","""event"",""trial"",""time""
""focus"",""24"",""124869""
","""event"",""trial"",""time""
""fullscreenenter"",""0"",""7337""
","
",15960.764999996172,<img style='border: 4px solid darkgrey;' src='img/tf1_26_M_ss1.jpeg'></img>,1,NA,exp,NA,2,<img src='img/tf1_26_T1_ss1_md.jpeg'></img>,0,FALSE,NA,sub68
NA,html-keyboard-response,65,434581,0.0-10.0-0.26,"""event"",""trial"",""time""
""fullscreenenter"",""0"",""7337""
""blur"",""24"",""119250""
""focus"",""24"",""124869""
","""event"",""trial"",""time""
""blur"",""24"",""119250""
","""event"",""trial"",""time""
""focus"",""24"",""124869""
","""event"",""trial"",""time""
""fullscreenenter"",""0"",""7337""
","
",null,"<div style=""font-size:60px;"">+</div>",NA,null,fixation,2020-06-20T18:37:16Z,NA,NA,NA,NA,NA,sub68
NA,mars-trial,66,449747,0.0-10.0-1.26,"""event"",""trial"",""time""
""fullscreenenter"",""0"",""7337""
""blur"",""24"",""119250""
""focus"",""24"",""124869""
","""event"",""trial"",""time""
""blur"",""24"",""119250""
","""event"",""trial"",""time""
""focus"",""24"",""124869""
","""event"",""trial"",""time""
""fullscreenenter"",""0"",""7337""
","
",14562.08499999775,<img style='border: 4px solid darkgrey;' src='img/tf1_27_M_ss2.jpeg'></img>,1,NA,exp,NA,1,<img src='img/tf1_27_T1_ss2_md.jpeg'></img>,0,FALSE,NA,sub68
NA,html-keyboard-response,67,450250,0.0-10.0-0.27,"""event"",""trial"",""time""
""fullscreenenter"",""0"",""7337""
""blur"",""24"",""119250""
""focus"",""24"",""124869""
","""event"",""trial"",""time""
""blur"",""24"",""119250""
","""event"",""trial"",""time""
""focus"",""24"",""124869""
","""event"",""trial"",""time""
""fullscreenenter"",""0"",""7337""
","
",null,"<div style=""font-size:60px;"">+</div>",NA,null,fixation,2020-06-20T18:37:31Z,NA,NA,NA,NA,NA,sub68
NA,mars-trial,68,465609,0.0-10.0-1.27,"""event"",""trial"",""time""
""fullscreenenter"",""0"",""7337""
""blur"",""24"",""119250""
""focus"",""24"",""124869""
","""event"",""trial"",""time""
""blur"",""24"",""119250""
","""event"",""trial"",""time""
""focus"",""24"",""124869""
","""event"",""trial"",""time""
""fullscreenenter"",""0"",""7337""
","
",14752.634999997099,<img style='border: 4px solid darkgrey;' src='img/tf1_28_M_ss3.jpeg'></img>,2,NA,exp,NA,0,<img src='img/tf1_28_T1_ss3_md.jpeg'></img>,0,TRUE,NA,sub68
NA,html-keyboard-response,69,466112,0.0-10.0-0.28,"""event"",""trial"",""time""
""fullscreenenter"",""0"",""7337""
""blur"",""24"",""119250""
""focus"",""24"",""124869""
","""event"",""trial"",""time""
""blur"",""24"",""119250""
","""event"",""trial"",""time""
""focus"",""24"",""124869""
","""event"",""trial"",""time""
""fullscreenenter"",""0"",""7337""
","
",null,"<div style=""font-size:60px;"">+</div>",NA,null,fixation,2020-06-20T18:37:47Z,NA,NA,NA,NA,NA,sub68
NA,mars-trial,70,488146,0.0-10.0-1.28,"""event"",""trial"",""time""
""fullscreenenter"",""0"",""7337""
""blur"",""24"",""119250""
""focus"",""24"",""124869""
","""event"",""trial"",""time""
""blur"",""24"",""119250""
","""event"",""trial"",""time""
""focus"",""24"",""124869""
","""event"",""trial"",""time""
""fullscreenenter"",""0"",""7337""
","
",21428.46499999723,<img style='border: 4px solid darkgrey;' src='img/tf1_29_M_ss1.jpeg'></img>,1,NA,exp,NA,0,<img src='img/tf1_29_T1_ss1_md.jpeg'></img>,0,TRUE,NA,sub68
NA,html-keyboard-response,71,488652,0.0-10.0-0.29,"""event"",""trial"",""time""
""fullscreenenter"",""0"",""7337""
""blur"",""24"",""119250""
""focus"",""24"",""124869""
","""event"",""trial"",""time""
""blur"",""24"",""119250""
","""event"",""trial"",""time""
""focus"",""24"",""124869""
","""event"",""trial"",""time""
""fullscreenenter"",""0"",""7337""
","
",null,"<div style=""font-size:60px;"">+</div>",NA,null,fixation,2020-06-20T18:38:10Z,NA,NA,NA,NA,NA,sub68
NA,mars-trial,72,506748,0.0-10.0-1.29,"""event"",""trial"",""time""
""fullscreenenter"",""0"",""7337""
""blur"",""24"",""119250""
""focus"",""24"",""124869""
","""event"",""trial"",""time""
""blur"",""24"",""119250""
","""event"",""trial"",""time""
""focus"",""24"",""124869""
","""event"",""trial"",""time""
""fullscreenenter"",""0"",""7337""
","
",17469.99499999947,<img style='border: 4px solid darkgrey;' src='img/tf1_30_M_ss2.jpeg'></img>,3,NA,exp,NA,0,<img src='img/tf1_30_T1_ss2_md.jpeg'></img>,0,TRUE,NA,sub68
NA,html-keyboard-response,73,507252,0.0-10.0-0.30,"""event"",""trial"",""time""
""fullscreenenter"",""0"",""7337""
""blur"",""24"",""119250""
""focus"",""24"",""124869""
","""event"",""trial"",""time""
""blur"",""24"",""119250""
","""event"",""trial"",""time""
""focus"",""24"",""124869""
","""event"",""trial"",""time""
""fullscreenenter"",""0"",""7337""
","
",null,"<div style=""font-size:60px;"">+</div>",NA,null,fixation,2020-06-20T18:38:28Z,NA,NA,NA,NA,NA,sub68
NA,mars-trial,74,532773,0.0-10.0-1.30,"""event"",""trial"",""time""
""fullscreenenter"",""0"",""7337""
""blur"",""24"",""119250""
""focus"",""24"",""124869""
","""event"",""trial"",""time""
""blur"",""24"",""119250""
","""event"",""trial"",""time""
""focus"",""24"",""124869""
","""event"",""trial"",""time""
""fullscreenenter"",""0"",""7337""
","
",24909.91500000388,<img style='border: 4px solid darkgrey;' src='img/tf1_31_M_ss3.jpeg'></img>,0,NA,exp,NA,0,<img src='img/tf1_31_T1_ss3_md.jpeg'></img>,0,TRUE,NA,sub68
NA,html-keyboard-response,75,533276,0.0-10.0-0.31,"""event"",""trial"",""time""
""fullscreenenter"",""0"",""7337""
""blur"",""24"",""119250""
""focus"",""24"",""124869""
","""event"",""trial"",""time""
""blur"",""24"",""119250""
","""event"",""trial"",""time""
""focus"",""24"",""124869""
","""event"",""trial"",""time""
""fullscreenenter"",""0"",""7337""
","
",null,"<div style=""font-size:60px;"">+</div>",NA,null,fixation,2020-06-20T18:38:54Z,NA,NA,NA,NA,NA,sub68
NA,mars-trial,76,543805,0.0-10.0-1.31,"""event"",""trial"",""time""
""fullscreenenter"",""0"",""7337""
""blur"",""24"",""119250""
""focus"",""24"",""124869""
","""event"",""trial"",""time""
""blur"",""24"",""119250""
","""event"",""trial"",""time""
""focus"",""24"",""124869""
","""event"",""trial"",""time""
""fullscreenenter"",""0"",""7337""
","
",9914.270000001183,<img style='border: 4px solid darkgrey;' src='img/tf1_32_M_ss1.jpeg'></img>,0,NA,exp,NA,0,<img src='img/tf1_32_T1_ss1_md.jpeg'></img>,0,TRUE,NA,sub68
NA,html-keyboard-response,77,544310,0.0-10.0-0.32,"""event"",""trial"",""time""
""fullscreenenter"",""0"",""7337""
""blur"",""24"",""119250""
""focus"",""24"",""124869""
","""event"",""trial"",""time""
""blur"",""24"",""119250""
","""event"",""trial"",""time""
""focus"",""24"",""124869""
","""event"",""trial"",""time""
""fullscreenenter"",""0"",""7337""
","
",null,"<div style=""font-size:60px;"">+</div>",NA,null,fixation,2020-06-20T18:39:05Z,NA,NA,NA,NA,NA,sub68
NA,mars-trial,78,552616,0.0-10.0-1.32,"""event"",""trial"",""time""
""fullscreenenter"",""0"",""7337""
""blur"",""24"",""119250""
""focus"",""24"",""124869""
","""event"",""trial"",""time""
""blur"",""24"",""119250""
","""event"",""trial"",""time""
""focus"",""24"",""124869""
","""event"",""trial"",""time""
""fullscreenenter"",""0"",""7337""
","
",7683.245000000228,<img style='border: 4px solid darkgrey;' src='img/tf1_33_M_ss2.jpeg'></img>,2,NA,exp,NA,2,<img src='img/tf1_33_T1_ss2_md.jpeg'></img>,0,FALSE,NA,sub68
NA,html-keyboard-response,79,553120,0.0-10.0-0.33,"""event"",""trial"",""time""
""fullscreenenter"",""0"",""7337""
""blur"",""24"",""119250""
""focus"",""24"",""124869""
","""event"",""trial"",""time""
""blur"",""24"",""119250""
","""event"",""trial"",""time""
""focus"",""24"",""124869""
","""event"",""trial"",""time""
""fullscreenenter"",""0"",""7337""
","
",null,"<div style=""font-size:60px;"">+</div>",NA,null,fixation,2020-06-20T18:39:14Z,NA,NA,NA,NA,NA,sub68
NA,mars-trial,80,574877,0.0-10.0-1.33,"""event"",""trial"",""time""
""fullscreenenter"",""0"",""7337""
""blur"",""24"",""119250""
""focus"",""24"",""124869""
","""event"",""trial"",""time""
""blur"",""24"",""119250""
","""event"",""trial"",""time""
""focus"",""24"",""124869""
","""event"",""trial"",""time""
""fullscreenenter"",""0"",""7337""
","
",NA,NA,NA,NA,exp,NA,NA,<img src='img/tf1_34_T1_ss3_md.jpeg'></img>,0,FALSE,NA,sub68
NA,html-keyboard-response,81,575380,0.0-10.0-0.34,"""event"",""trial"",""time""
""fullscreenenter"",""0"",""7337""
""blur"",""24"",""119250""
""focus"",""24"",""124869""
","""event"",""trial"",""time""
""blur"",""24"",""119250""
","""event"",""trial"",""time""
""focus"",""24"",""124869""
","""event"",""trial"",""time""
""fullscreenenter"",""0"",""7337""
","
",null,"<div style=""font-size:60px;"">+</div>",NA,null,fixation,2020-06-20T18:39:36Z,NA,NA,NA,NA,NA,sub68
NA,audio-button-response,82,579314,0.0-11.0,"""event"",""trial"",""time""
""fullscreenenter"",""0"",""7337""
""blur"",""24"",""119250""
""focus"",""24"",""124869""
","""event"",""trial"",""time""
""blur"",""24"",""119250""
","""event"",""trial"",""time""
""focus"",""24"",""124869""
","""event"",""trial"",""time""
""fullscreenenter"",""0"",""7337""
","
",3831.4049999971176,audio/mars_instructions_slide5.wav,0,NA,NA,NA,NA,NA,NA,NA,NA,sub68
