success,trial_type,trial_index,time_elapsed,internal_node_id,interactions,blur_events,focus_events,fullscreenenter_events,fullscreenexit_events,rt,stimulus,button_pressed,key_press,part,timestamp,unshuffled_button,correct_response,correct_button,correct,value,subject_id
TRUE,fullscreen,0,4805,0.0-0.0,"""event"",""trial"",""time""
""fullscreenenter"",""0"",""3863""
","
","
","""event"",""trial"",""time""
""fullscreenenter"",""0"",""3863""
","
",NA,NA,NA,NA,NA,NA,NA,NA,NA,NA,NA,sub143
NA,pavlovia,1,4812,0.0-1.0,"""event"",""trial"",""time""
""fullscreenenter"",""0"",""3863""
""fullscreenexit"",""2"",""7548""
","
","
","""event"",""trial"",""time""
""fullscreenenter"",""0"",""3863""
","""event"",""trial"",""time""
""fullscreenexit"",""2"",""7548""
",NA,NA,NA,NA,NA,NA,NA,NA,NA,NA,NA,sub143
NA,html-button-response,2,8986,0.0-2.0,"""event"",""trial"",""time""
""fullscreenenter"",""0"",""3863""
""fullscreenexit"",""2"",""7548""
","
","
","""event"",""trial"",""time""
""fullscreenenter"",""0"",""3863""
","""event"",""trial"",""time""
""fullscreenexit"",""2"",""7548""
",4171.824999852106,<p>Welcome! Press START to begin.</p><br>,0,NA,NA,NA,NA,NA,NA,NA,NA,sub143
NA,audio-button-response,3,24831,0.0-3.0,"""event"",""trial"",""time""
""fullscreenenter"",""0"",""3863""
""fullscreenexit"",""2"",""7548""
","
","
","""event"",""trial"",""time""
""fullscreenenter"",""0"",""3863""
","""event"",""trial"",""time""
""fullscreenexit"",""2"",""7548""
",15843.385000014678,audio/mars_instructions_slide2.wav,0,NA,NA,NA,NA,NA,NA,NA,NA,sub143
NA,audio-button-response,4,35403,0.0-4.0,"""event"",""trial"",""time""
""fullscreenenter"",""0"",""3863""
""fullscreenexit"",""2"",""7548""
","
","
","""event"",""trial"",""time""
""fullscreenenter"",""0"",""3863""
","""event"",""trial"",""time""
""fullscreenexit"",""2"",""7548""
",10569.76000010036,audio/mars_instructions_slide3.wav,0,NA,NA,NA,NA,NA,NA,NA,NA,sub143
NA,html-keyboard-response,5,35906,0.0-5.0-0.0,"""event"",""trial"",""time""
""fullscreenenter"",""0"",""3863""
""fullscreenexit"",""2"",""7548""
","
","
","""event"",""trial"",""time""
""fullscreenenter"",""0"",""3863""
","""event"",""trial"",""time""
""fullscreenexit"",""2"",""7548""
",null,"<div style=""font-size:60px;"">+</div>",NA,null,fixation,2020-07-02T12:53:05Z,NA,NA,NA,NA,NA,sub143
NA,mars-trial,6,53749,0.0-5.0-1.0,"""event"",""trial"",""time""
""fullscreenenter"",""0"",""3863""
""fullscreenexit"",""2"",""7548""
","
","
","""event"",""trial"",""time""
""fullscreenenter"",""0"",""3863""
","""event"",""trial"",""time""
""fullscreenexit"",""2"",""7548""
",15714.290000032634,<img style='border: 4px solid darkgrey;' src='practice/pt1_M1.png'></img>,0,NA,practice,NA,0,<img src='practice/pt1_T1.png'></img>,0,TRUE,NA,sub143
NA,html-keyboard-response,7,54254,0.0-6.0-0.0,"""event"",""trial"",""time""
""fullscreenenter"",""0"",""3863""
""fullscreenexit"",""2"",""7548""
","
","
","""event"",""trial"",""time""
""fullscreenenter"",""0"",""3863""
","""event"",""trial"",""time""
""fullscreenexit"",""2"",""7548""
",null,"<div style=""font-size:60px;"">+</div>",NA,null,fixation,2020-07-02T12:53:23Z,NA,NA,NA,NA,NA,sub143
NA,mars-trial,8,60469,0.0-6.0-1.0,"""event"",""trial"",""time""
""fullscreenenter"",""0"",""3863""
""fullscreenexit"",""2"",""7548""
","
","
","""event"",""trial"",""time""
""fullscreenenter"",""0"",""3863""
","""event"",""trial"",""time""
""fullscreenexit"",""2"",""7548""
",4104.980000061914,<img style='border: 4px solid darkgrey;' src='practice/pt2_M1.png'></img>,0,NA,practice,NA,0,<img src='practice/pt2_T1.png'></img>,0,TRUE,NA,sub143
NA,html-keyboard-response,9,60973,0.0-7.0-0.0,"""event"",""trial"",""time""
""fullscreenenter"",""0"",""3863""
""fullscreenexit"",""2"",""7548""
","
","
","""event"",""trial"",""time""
""fullscreenenter"",""0"",""3863""
","""event"",""trial"",""time""
""fullscreenexit"",""2"",""7548""
",null,"<div style=""font-size:60px;"">+</div>",NA,null,fixation,2020-07-02T12:53:30Z,NA,NA,NA,NA,NA,sub143
NA,mars-trial,10,65160,0.0-7.0-1.0,"""event"",""trial"",""time""
""fullscreenenter"",""0"",""3863""
""fullscreenexit"",""2"",""7548""
","
","
","""event"",""trial"",""time""
""fullscreenenter"",""0"",""3863""
","""event"",""trial"",""time""
""fullscreenexit"",""2"",""7548""
",2079.820000100881,<img style='border: 4px solid darkgrey;' src='practice/pt3_M1.png'></img>,2,NA,practice,NA,0,<img src='practice/pt3_T1.png'></img>,0,TRUE,NA,sub143
NA,audio-button-response,11,70546,0.0-8.0,"""event"",""trial"",""time""
""fullscreenenter"",""0"",""3863""
""fullscreenexit"",""2"",""7548""
","
","
","""event"",""trial"",""time""
""fullscreenenter"",""0"",""3863""
","""event"",""trial"",""time""
""fullscreenexit"",""2"",""7548""
",5381.980000063777,audio/mars_instructions_slide4.wav,0,NA,NA,NA,NA,NA,NA,NA,NA,sub143
NA,call-function,12,70547,0.0-9.0,"""event"",""trial"",""time""
""fullscreenenter"",""0"",""3863""
""fullscreenexit"",""2"",""7548""
","
","
","""event"",""trial"",""time""
""fullscreenenter"",""0"",""3863""
","""event"",""trial"",""time""
""fullscreenexit"",""2"",""7548""
",NA,NA,NA,NA,NA,NA,NA,NA,NA,NA,NA,sub143
NA,html-keyboard-response,13,71049,0.0-10.0-0.0,"""event"",""trial"",""time""
""fullscreenenter"",""0"",""3863""
""fullscreenexit"",""2"",""7548""
","
","
","""event"",""trial"",""time""
""fullscreenenter"",""0"",""3863""
","""event"",""trial"",""time""
""fullscreenexit"",""2"",""7548""
",null,"<div style=""font-size:60px;"">+</div>",NA,null,fixation,2020-07-02T12:53:40Z,NA,NA,NA,NA,NA,sub143
NA,mars-trial,14,73597,0.0-10.0-1.0,"""event"",""trial"",""time""
""fullscreenenter"",""0"",""3863""
""fullscreenexit"",""2"",""7548""
","
","
","""event"",""trial"",""time""
""fullscreenenter"",""0"",""3863""
","""event"",""trial"",""time""
""fullscreenexit"",""2"",""7548""
",1941.1100000143051,<img style='border: 4px solid darkgrey;' src='img/tf1_1_M_ss3.jpeg'></img>,0,NA,exp,NA,0,<img src='img/tf1_1_T1_ss3_md.jpeg'></img>,0,TRUE,NA,sub143
NA,html-keyboard-response,15,74100,0.0-10.0-0.1,"""event"",""trial"",""time""
""fullscreenenter"",""0"",""3863""
""fullscreenexit"",""2"",""7548""
","
","
","""event"",""trial"",""time""
""fullscreenenter"",""0"",""3863""
","""event"",""trial"",""time""
""fullscreenexit"",""2"",""7548""
",null,"<div style=""font-size:60px;"">+</div>",NA,null,fixation,2020-07-02T12:53:43Z,NA,NA,NA,NA,NA,sub143
NA,mars-trial,16,78404,0.0-10.0-1.1,"""event"",""trial"",""time""
""fullscreenenter"",""0"",""3863""
""fullscreenexit"",""2"",""7548""
","
","
","""event"",""trial"",""time""
""fullscreenenter"",""0"",""3863""
","""event"",""trial"",""time""
""fullscreenexit"",""2"",""7548""
",3694.8899999260902,<img style='border: 4px solid darkgrey;' src='img/tf1_2_M_ss1.jpeg'></img>,3,NA,exp,NA,0,<img src='img/tf1_2_T1_ss1_md.jpeg'></img>,0,TRUE,NA,sub143
NA,html-keyboard-response,17,78907,0.0-10.0-0.2,"""event"",""trial"",""time""
""fullscreenenter"",""0"",""3863""
""fullscreenexit"",""2"",""7548""
","
","
","""event"",""trial"",""time""
""fullscreenenter"",""0"",""3863""
","""event"",""trial"",""time""
""fullscreenexit"",""2"",""7548""
",null,"<div style=""font-size:60px;"">+</div>",NA,null,fixation,2020-07-02T12:53:48Z,NA,NA,NA,NA,NA,sub143
NA,mars-trial,18,81915,0.0-10.0-1.2,"""event"",""trial"",""time""
""fullscreenenter"",""0"",""3863""
""fullscreenexit"",""2"",""7548""
","
","
","""event"",""trial"",""time""
""fullscreenenter"",""0"",""3863""
","""event"",""trial"",""time""
""fullscreenexit"",""2"",""7548""
",2397.465000161901,<img style='border: 4px solid darkgrey;' src='img/tf1_3_M_ss2.jpeg'></img>,2,NA,exp,NA,0,<img src='img/tf1_3_T1_ss2_md.jpeg'></img>,0,TRUE,NA,sub143
NA,html-keyboard-response,19,82419,0.0-10.0-0.3,"""event"",""trial"",""time""
""fullscreenenter"",""0"",""3863""
""fullscreenexit"",""2"",""7548""
","
","
","""event"",""trial"",""time""
""fullscreenenter"",""0"",""3863""
","""event"",""trial"",""time""
""fullscreenexit"",""2"",""7548""
",null,"<div style=""font-size:60px;"">+</div>",NA,null,fixation,2020-07-02T12:53:51Z,NA,NA,NA,NA,NA,sub143
NA,mars-trial,20,86843,0.0-10.0-1.3,"""event"",""trial"",""time""
""fullscreenenter"",""0"",""3863""
""fullscreenexit"",""2"",""7548""
","
","
","""event"",""trial"",""time""
""fullscreenenter"",""0"",""3863""
","""event"",""trial"",""time""
""fullscreenexit"",""2"",""7548""
",3817.405000096187,<img style='border: 4px solid darkgrey;' src='img/tf1_4_M_ss3.jpeg'></img>,3,NA,exp,NA,0,<img src='img/tf1_4_T1_ss3_md.jpeg'></img>,0,TRUE,NA,sub143
NA,html-keyboard-response,21,87346,0.0-10.0-0.4,"""event"",""trial"",""time""
""fullscreenenter"",""0"",""3863""
""fullscreenexit"",""2"",""7548""
","
","
","""event"",""trial"",""time""
""fullscreenenter"",""0"",""3863""
","""event"",""trial"",""time""
""fullscreenexit"",""2"",""7548""
",null,"<div style=""font-size:60px;"">+</div>",NA,null,fixation,2020-07-02T12:53:56Z,NA,NA,NA,NA,NA,sub143
NA,mars-trial,22,90501,0.0-10.0-1.4,"""event"",""trial"",""time""
""fullscreenenter"",""0"",""3863""
""fullscreenexit"",""2"",""7548""
","
","
","""event"",""trial"",""time""
""fullscreenenter"",""0"",""3863""
","""event"",""trial"",""time""
""fullscreenexit"",""2"",""7548""
",2545.3850000631064,<img style='border: 4px solid darkgrey;' src='img/tf1_5_M_ss1.jpeg'></img>,2,NA,exp,NA,0,<img src='img/tf1_5_T1_ss1_md.jpeg'></img>,0,TRUE,NA,sub143
NA,html-keyboard-response,23,91004,0.0-10.0-0.5,"""event"",""trial"",""time""
""fullscreenenter"",""0"",""3863""
""fullscreenexit"",""2"",""7548""
","
","
","""event"",""trial"",""time""
""fullscreenenter"",""0"",""3863""
","""event"",""trial"",""time""
""fullscreenexit"",""2"",""7548""
",null,"<div style=""font-size:60px;"">+</div>",NA,null,fixation,2020-07-02T12:54:00Z,NA,NA,NA,NA,NA,sub143
NA,mars-trial,24,99554,0.0-10.0-1.5,"""event"",""trial"",""time""
""fullscreenenter"",""0"",""3863""
""fullscreenexit"",""2"",""7548""
","
","
","""event"",""trial"",""time""
""fullscreenenter"",""0"",""3863""
","""event"",""trial"",""time""
""fullscreenexit"",""2"",""7548""
",7941.550000105053,<img style='border: 4px solid darkgrey;' src='img/tf1_6_M_ss2.jpeg'></img>,2,NA,exp,NA,0,<img src='img/tf1_6_T1_ss2_md.jpeg'></img>,0,TRUE,NA,sub143
NA,html-keyboard-response,25,100057,0.0-10.0-0.6,"""event"",""trial"",""time""
""fullscreenenter"",""0"",""3863""
""fullscreenexit"",""2"",""7548""
","
","
","""event"",""trial"",""time""
""fullscreenenter"",""0"",""3863""
","""event"",""trial"",""time""
""fullscreenexit"",""2"",""7548""
",null,"<div style=""font-size:60px;"">+</div>",NA,null,fixation,2020-07-02T12:54:09Z,NA,NA,NA,NA,NA,sub143
NA,mars-trial,26,105931,0.0-10.0-1.6,"""event"",""trial"",""time""
""fullscreenenter"",""0"",""3863""
""fullscreenexit"",""2"",""7548""
","
","
","""event"",""trial"",""time""
""fullscreenenter"",""0"",""3863""
","""event"",""trial"",""time""
""fullscreenexit"",""2"",""7548""
",5264.674999983981,<img style='border: 4px solid darkgrey;' src='img/tf1_7_M_ss3.jpeg'></img>,0,NA,exp,NA,0,<img src='img/tf1_7_T1_ss3_md.jpeg'></img>,0,TRUE,NA,sub143
NA,html-keyboard-response,27,106435,0.0-10.0-0.7,"""event"",""trial"",""time""
""fullscreenenter"",""0"",""3863""
""fullscreenexit"",""2"",""7548""
","
","
","""event"",""trial"",""time""
""fullscreenenter"",""0"",""3863""
","""event"",""trial"",""time""
""fullscreenexit"",""2"",""7548""
",null,"<div style=""font-size:60px;"">+</div>",NA,null,fixation,2020-07-02T12:54:15Z,NA,NA,NA,NA,NA,sub143
NA,mars-trial,28,111768,0.0-10.0-1.7,"""event"",""trial"",""time""
""fullscreenenter"",""0"",""3863""
""fullscreenexit"",""2"",""7548""
","
","
","""event"",""trial"",""time""
""fullscreenenter"",""0"",""3863""
","""event"",""trial"",""time""
""fullscreenexit"",""2"",""7548""
",4725.734999869019,<img style='border: 4px solid darkgrey;' src='img/tf1_8_M_ss1.jpeg'></img>,2,NA,exp,NA,0,<img src='img/tf1_8_T1_ss1_md.jpeg'></img>,0,TRUE,NA,sub143
NA,html-keyboard-response,29,112271,0.0-10.0-0.8,"""event"",""trial"",""time""
""fullscreenenter"",""0"",""3863""
""fullscreenexit"",""2"",""7548""
","
","
","""event"",""trial"",""time""
""fullscreenenter"",""0"",""3863""
","""event"",""trial"",""time""
""fullscreenexit"",""2"",""7548""
",null,"<div style=""font-size:60px;"">+</div>",NA,null,fixation,2020-07-02T12:54:21Z,NA,NA,NA,NA,NA,sub143
NA,mars-trial,30,116732,0.0-10.0-1.8,"""event"",""trial"",""time""
""fullscreenenter"",""0"",""3863""
""fullscreenexit"",""2"",""7548""
","
","
","""event"",""trial"",""time""
""fullscreenenter"",""0"",""3863""
","""event"",""trial"",""time""
""fullscreenexit"",""2"",""7548""
",3851.8400001339614,<img style='border: 4px solid darkgrey;' src='img/tf1_9_M_ss2.jpeg'></img>,1,NA,exp,NA,0,<img src='img/tf1_9_T1_ss2_md.jpeg'></img>,0,TRUE,NA,sub143
NA,html-keyboard-response,31,117237,0.0-10.0-0.9,"""event"",""trial"",""time""
""fullscreenenter"",""0"",""3863""
""fullscreenexit"",""2"",""7548""
","
","
","""event"",""trial"",""time""
""fullscreenenter"",""0"",""3863""
","""event"",""trial"",""time""
""fullscreenexit"",""2"",""7548""
",null,"<div style=""font-size:60px;"">+</div>",NA,null,fixation,2020-07-02T12:54:26Z,NA,NA,NA,NA,NA,sub143
NA,mars-trial,32,122532,0.0-10.0-1.9,"""event"",""trial"",""time""
""fullscreenenter"",""0"",""3863""
""fullscreenexit"",""2"",""7548""
","
","
","""event"",""trial"",""time""
""fullscreenenter"",""0"",""3863""
","""event"",""trial"",""time""
""fullscreenexit"",""2"",""7548""
",4686.934999888763,<img style='border: 4px solid darkgrey;' src='img/tf1_10_M_ss3.jpeg'></img>,2,NA,exp,NA,0,<img src='img/tf1_10_T1_ss3_md.jpeg'></img>,0,TRUE,NA,sub143
NA,html-keyboard-response,33,123037,0.0-10.0-0.10,"""event"",""trial"",""time""
""fullscreenenter"",""0"",""3863""
""fullscreenexit"",""2"",""7548""
","
","
","""event"",""trial"",""time""
""fullscreenenter"",""0"",""3863""
","""event"",""trial"",""time""
""fullscreenexit"",""2"",""7548""
",null,"<div style=""font-size:60px;"">+</div>",NA,null,fixation,2020-07-02T12:54:32Z,NA,NA,NA,NA,NA,sub143
NA,mars-trial,34,134021,0.0-10.0-1.10,"""event"",""trial"",""time""
""fullscreenenter"",""0"",""3863""
""fullscreenexit"",""2"",""7548""
","
","
","""event"",""trial"",""time""
""fullscreenenter"",""0"",""3863""
","""event"",""trial"",""time""
""fullscreenexit"",""2"",""7548""
",10377.110000001267,<img style='border: 4px solid darkgrey;' src='img/tf1_11_M_ss1.jpeg'></img>,1,NA,exp,NA,0,<img src='img/tf1_11_T1_ss1_md.jpeg'></img>,0,TRUE,NA,sub143
NA,html-keyboard-response,35,134524,0.0-10.0-0.11,"""event"",""trial"",""time""
""fullscreenenter"",""0"",""3863""
""fullscreenexit"",""2"",""7548""
","
","
","""event"",""trial"",""time""
""fullscreenenter"",""0"",""3863""
","""event"",""trial"",""time""
""fullscreenexit"",""2"",""7548""
",null,"<div style=""font-size:60px;"">+</div>",NA,null,fixation,2020-07-02T12:54:43Z,NA,NA,NA,NA,NA,sub143
NA,mars-trial,36,147252,0.0-10.0-1.11,"""event"",""trial"",""time""
""fullscreenenter"",""0"",""3863""
""fullscreenexit"",""2"",""7548""
","
","
","""event"",""trial"",""time""
""fullscreenenter"",""0"",""3863""
","""event"",""trial"",""time""
""fullscreenexit"",""2"",""7548""
",12118.814999936149,<img style='border: 4px solid darkgrey;' src='img/tf1_12_M_ss2.jpeg'></img>,2,NA,exp,NA,3,<img src='img/tf1_12_T1_ss2_md.jpeg'></img>,0,FALSE,NA,sub143
NA,html-keyboard-response,37,147756,0.0-10.0-0.12,"""event"",""trial"",""time""
""fullscreenenter"",""0"",""3863""
""fullscreenexit"",""2"",""7548""
","
","
","""event"",""trial"",""time""
""fullscreenenter"",""0"",""3863""
","""event"",""trial"",""time""
""fullscreenexit"",""2"",""7548""
",null,"<div style=""font-size:60px;"">+</div>",NA,null,fixation,2020-07-02T12:54:57Z,NA,NA,NA,NA,NA,sub143
NA,mars-trial,38,159997,0.0-10.0-1.12,"""event"",""trial"",""time""
""fullscreenenter"",""0"",""3863""
""fullscreenexit"",""2"",""7548""
","
","
","""event"",""trial"",""time""
""fullscreenenter"",""0"",""3863""
","""event"",""trial"",""time""
""fullscreenexit"",""2"",""7548""
",11634.109999984503,<img style='border: 4px solid darkgrey;' src='img/tf1_13_M_ss3.jpeg'></img>,1,NA,exp,NA,0,<img src='img/tf1_13_T1_ss3_md.jpeg'></img>,0,TRUE,NA,sub143
NA,html-keyboard-response,39,160502,0.0-10.0-0.13,"""event"",""trial"",""time""
""fullscreenenter"",""0"",""3863""
""fullscreenexit"",""2"",""7548""
","
","
","""event"",""trial"",""time""
""fullscreenenter"",""0"",""3863""
","""event"",""trial"",""time""
""fullscreenexit"",""2"",""7548""
",null,"<div style=""font-size:60px;"">+</div>",NA,null,fixation,2020-07-02T12:55:09Z,NA,NA,NA,NA,NA,sub143
NA,mars-trial,40,179996,0.0-10.0-1.13,"""event"",""trial"",""time""
""fullscreenenter"",""0"",""3863""
""fullscreenexit"",""2"",""7548""
","
","
","""event"",""trial"",""time""
""fullscreenenter"",""0"",""3863""
","""event"",""trial"",""time""
""fullscreenexit"",""2"",""7548""
",18885.16000006348,<img style='border: 4px solid darkgrey;' src='img/tf1_14_M_ss1.jpeg'></img>,2,NA,exp,NA,0,<img src='img/tf1_14_T1_ss1_md.jpeg'></img>,0,TRUE,NA,sub143
NA,html-keyboard-response,41,180500,0.0-10.0-0.14,"""event"",""trial"",""time""
""fullscreenenter"",""0"",""3863""
""fullscreenexit"",""2"",""7548""
","
","
","""event"",""trial"",""time""
""fullscreenenter"",""0"",""3863""
","""event"",""trial"",""time""
""fullscreenexit"",""2"",""7548""
",null,"<div style=""font-size:60px;"">+</div>",NA,null,fixation,2020-07-02T12:55:29Z,NA,NA,NA,NA,NA,sub143
NA,mars-trial,42,188881,0.0-10.0-1.14,"""event"",""trial"",""time""
""fullscreenenter"",""0"",""3863""
""fullscreenexit"",""2"",""7548""
","
","
","""event"",""trial"",""time""
""fullscreenenter"",""0"",""3863""
","""event"",""trial"",""time""
""fullscreenexit"",""2"",""7548""
",7773.41500017792,<img style='border: 4px solid darkgrey;' src='img/tf1_15_M_ss2.jpeg'></img>,0,NA,exp,NA,3,<img src='img/tf1_15_T1_ss2_md.jpeg'></img>,0,FALSE,NA,sub143
NA,html-keyboard-response,43,189384,0.0-10.0-0.15,"""event"",""trial"",""time""
""fullscreenenter"",""0"",""3863""
""fullscreenexit"",""2"",""7548""
","
","
","""event"",""trial"",""time""
""fullscreenenter"",""0"",""3863""
","""event"",""trial"",""time""
""fullscreenexit"",""2"",""7548""
",null,"<div style=""font-size:60px;"">+</div>",NA,null,fixation,2020-07-02T12:55:38Z,NA,NA,NA,NA,NA,sub143
NA,mars-trial,44,203739,0.0-10.0-1.15,"""event"",""trial"",""time""
""fullscreenenter"",""0"",""3863""
""fullscreenexit"",""2"",""7548""
","
","
","""event"",""trial"",""time""
""fullscreenenter"",""0"",""3863""
","""event"",""trial"",""time""
""fullscreenexit"",""2"",""7548""
",13745.649999938905,<img style='border: 4px solid darkgrey;' src='img/tf1_16_M_ss3.jpeg'></img>,0,NA,exp,NA,0,<img src='img/tf1_16_T1_ss3_md.jpeg'></img>,0,TRUE,NA,sub143
NA,html-keyboard-response,45,204244,0.0-10.0-0.16,"""event"",""trial"",""time""
""fullscreenenter"",""0"",""3863""
""fullscreenexit"",""2"",""7548""
","
","
","""event"",""trial"",""time""
""fullscreenenter"",""0"",""3863""
","""event"",""trial"",""time""
""fullscreenexit"",""2"",""7548""
",null,"<div style=""font-size:60px;"">+</div>",NA,null,fixation,2020-07-02T12:55:53Z,NA,NA,NA,NA,NA,sub143
NA,mars-trial,46,222168,0.0-10.0-1.16,"""event"",""trial"",""time""
""fullscreenenter"",""0"",""3863""
""fullscreenexit"",""2"",""7548""
","
","
","""event"",""trial"",""time""
""fullscreenenter"",""0"",""3863""
","""event"",""trial"",""time""
""fullscreenexit"",""2"",""7548""
",17315.024999901652,<img style='border: 4px solid darkgrey;' src='img/tf1_17_M_ss1.jpeg'></img>,2,NA,exp,NA,3,<img src='img/tf1_17_T1_ss1_md.jpeg'></img>,0,FALSE,NA,sub143
NA,html-keyboard-response,47,222672,0.0-10.0-0.17,"""event"",""trial"",""time""
""fullscreenenter"",""0"",""3863""
""fullscreenexit"",""2"",""7548""
","
","
","""event"",""trial"",""time""
""fullscreenenter"",""0"",""3863""
","""event"",""trial"",""time""
""fullscreenexit"",""2"",""7548""
",null,"<div style=""font-size:60px;"">+</div>",NA,null,fixation,2020-07-02T12:56:11Z,NA,NA,NA,NA,NA,sub143
NA,mars-trial,48,234657,0.0-10.0-1.17,"""event"",""trial"",""time""
""fullscreenenter"",""0"",""3863""
""fullscreenexit"",""2"",""7548""
","
","
","""event"",""trial"",""time""
""fullscreenenter"",""0"",""3863""
","""event"",""trial"",""time""
""fullscreenexit"",""2"",""7548""
",11373.43499995768,<img style='border: 4px solid darkgrey;' src='img/tf1_18_M_ss2.jpeg'></img>,3,NA,exp,NA,0,<img src='img/tf1_18_T1_ss2_md.jpeg'></img>,0,TRUE,NA,sub143
NA,html-keyboard-response,49,235162,0.0-10.0-0.18,"""event"",""trial"",""time""
""fullscreenenter"",""0"",""3863""
""fullscreenexit"",""2"",""7548""
","
","
","""event"",""trial"",""time""
""fullscreenenter"",""0"",""3863""
","""event"",""trial"",""time""
""fullscreenexit"",""2"",""7548""
",null,"<div style=""font-size:60px;"">+</div>",NA,null,fixation,2020-07-02T12:56:24Z,NA,NA,NA,NA,NA,sub143
NA,mars-trial,50,245287,0.0-10.0-1.18,"""event"",""trial"",""time""
""fullscreenenter"",""0"",""3863""
""fullscreenexit"",""2"",""7548""
","
","
","""event"",""trial"",""time""
""fullscreenenter"",""0"",""3863""
","""event"",""trial"",""time""
""fullscreenexit"",""2"",""7548""
",9514.80000000447,<img style='border: 4px solid darkgrey;' src='img/tf1_19_M_ss3.jpeg'></img>,3,NA,exp,NA,0,<img src='img/tf1_19_T1_ss3_md.jpeg'></img>,0,TRUE,NA,sub143
NA,html-keyboard-response,51,245791,0.0-10.0-0.19,"""event"",""trial"",""time""
""fullscreenenter"",""0"",""3863""
""fullscreenexit"",""2"",""7548""
","
","
","""event"",""trial"",""time""
""fullscreenenter"",""0"",""3863""
","""event"",""trial"",""time""
""fullscreenexit"",""2"",""7548""
",null,"<div style=""font-size:60px;"">+</div>",NA,null,fixation,2020-07-02T12:56:35Z,NA,NA,NA,NA,NA,sub143
NA,mars-trial,52,254644,0.0-10.0-1.19,"""event"",""trial"",""time""
""fullscreenenter"",""0"",""3863""
""fullscreenexit"",""2"",""7548""
","
","
","""event"",""trial"",""time""
""fullscreenenter"",""0"",""3863""
","""event"",""trial"",""time""
""fullscreenexit"",""2"",""7548""
",8245.069999946281,<img style='border: 4px solid darkgrey;' src='img/tf1_20_M_ss1.jpeg'></img>,0,NA,exp,NA,0,<img src='img/tf1_20_T1_ss1_md.jpeg'></img>,0,TRUE,NA,sub143
NA,html-keyboard-response,53,255148,0.0-10.0-0.20,"""event"",""trial"",""time""
""fullscreenenter"",""0"",""3863""
""fullscreenexit"",""2"",""7548""
","
","
","""event"",""trial"",""time""
""fullscreenenter"",""0"",""3863""
","""event"",""trial"",""time""
""fullscreenexit"",""2"",""7548""
",null,"<div style=""font-size:60px;"">+</div>",NA,null,fixation,2020-07-02T12:56:44Z,NA,NA,NA,NA,NA,sub143
NA,mars-trial,54,269996,0.0-10.0-1.20,"""event"",""trial"",""time""
""fullscreenenter"",""0"",""3863""
""fullscreenexit"",""2"",""7548""
","
","
","""event"",""trial"",""time""
""fullscreenenter"",""0"",""3863""
","""event"",""trial"",""time""
""fullscreenexit"",""2"",""7548""
",14238.709999946877,<img style='border: 4px solid darkgrey;' src='img/tf1_21_M_ss2.jpeg'></img>,1,NA,exp,NA,2,<img src='img/tf1_21_T1_ss2_md.jpeg'></img>,0,FALSE,NA,sub143
NA,html-keyboard-response,55,270500,0.0-10.0-0.21,"""event"",""trial"",""time""
""fullscreenenter"",""0"",""3863""
""fullscreenexit"",""2"",""7548""
","
","
","""event"",""trial"",""time""
""fullscreenenter"",""0"",""3863""
","""event"",""trial"",""time""
""fullscreenexit"",""2"",""7548""
",null,"<div style=""font-size:60px;"">+</div>",NA,null,fixation,2020-07-02T12:56:59Z,NA,NA,NA,NA,NA,sub143
NA,mars-trial,56,277878,0.0-10.0-1.21,"""event"",""trial"",""time""
""fullscreenenter"",""0"",""3863""
""fullscreenexit"",""2"",""7548""
","
","
","""event"",""trial"",""time""
""fullscreenenter"",""0"",""3863""
","""event"",""trial"",""time""
""fullscreenexit"",""2"",""7548""
",6767.874999903142,<img style='border: 4px solid darkgrey;' src='img/tf1_22_M_ss3.jpeg'></img>,0,NA,exp,NA,0,<img src='img/tf1_22_T1_ss3_md.jpeg'></img>,0,TRUE,NA,sub143
NA,html-keyboard-response,57,278381,0.0-10.0-0.22,"""event"",""trial"",""time""
""fullscreenenter"",""0"",""3863""
""fullscreenexit"",""2"",""7548""
","
","
","""event"",""trial"",""time""
""fullscreenenter"",""0"",""3863""
","""event"",""trial"",""time""
""fullscreenexit"",""2"",""7548""
",null,"<div style=""font-size:60px;"">+</div>",NA,null,fixation,2020-07-02T12:57:07Z,NA,NA,NA,NA,NA,sub143
NA,mars-trial,58,288502,0.0-10.0-1.22,"""event"",""trial"",""time""
""fullscreenenter"",""0"",""3863""
""fullscreenexit"",""2"",""7548""
","
","
","""event"",""trial"",""time""
""fullscreenenter"",""0"",""3863""
","""event"",""trial"",""time""
""fullscreenexit"",""2"",""7548""
",9512.140000006184,<img style='border: 4px solid darkgrey;' src='img/tf1_23_M_ss1.jpeg'></img>,3,NA,exp,NA,0,<img src='img/tf1_23_T1_ss1_md.jpeg'></img>,0,TRUE,NA,sub143
NA,html-keyboard-response,59,289010,0.0-10.0-0.23,"""event"",""trial"",""time""
""fullscreenenter"",""0"",""3863""
""fullscreenexit"",""2"",""7548""
","
","
","""event"",""trial"",""time""
""fullscreenenter"",""0"",""3863""
","""event"",""trial"",""time""
""fullscreenexit"",""2"",""7548""
",null,"<div style=""font-size:60px;"">+</div>",NA,null,fixation,2020-07-02T12:57:18Z,NA,NA,NA,NA,NA,sub143
NA,mars-trial,60,304361,0.0-10.0-1.23,"""event"",""trial"",""time""
""fullscreenenter"",""0"",""3863""
""fullscreenexit"",""2"",""7548""
","
","
","""event"",""trial"",""time""
""fullscreenenter"",""0"",""3863""
","""event"",""trial"",""time""
""fullscreenexit"",""2"",""7548""
",14742.31499992311,<img style='border: 4px solid darkgrey;' src='img/tf1_24_M_ss2.jpeg'></img>,1,NA,exp,NA,0,<img src='img/tf1_24_T1_ss2_md.jpeg'></img>,0,TRUE,NA,sub143
NA,html-keyboard-response,61,304865,0.0-10.0-0.24,"""event"",""trial"",""time""
""fullscreenenter"",""0"",""3863""
""fullscreenexit"",""2"",""7548""
","
","
","""event"",""trial"",""time""
""fullscreenenter"",""0"",""3863""
","""event"",""trial"",""time""
""fullscreenexit"",""2"",""7548""
",null,"<div style=""font-size:60px;"">+</div>",NA,null,fixation,2020-07-02T12:57:34Z,NA,NA,NA,NA,NA,sub143
NA,mars-trial,62,316404,0.0-10.0-1.24,"""event"",""trial"",""time""
""fullscreenenter"",""0"",""3863""
""fullscreenexit"",""2"",""7548""
","
","
","""event"",""trial"",""time""
""fullscreenenter"",""0"",""3863""
","""event"",""trial"",""time""
""fullscreenexit"",""2"",""7548""
",10930.1549999509,<img style='border: 4px solid darkgrey;' src='img/tf1_25_M_ss3.jpeg'></img>,0,NA,exp,NA,0,<img src='img/tf1_25_T1_ss3_md.jpeg'></img>,0,TRUE,NA,sub143
NA,html-keyboard-response,63,316908,0.0-10.0-0.25,"""event"",""trial"",""time""
""fullscreenenter"",""0"",""3863""
""fullscreenexit"",""2"",""7548""
","
","
","""event"",""trial"",""time""
""fullscreenenter"",""0"",""3863""
","""event"",""trial"",""time""
""fullscreenexit"",""2"",""7548""
",null,"<div style=""font-size:60px;"">+</div>",NA,null,fixation,2020-07-02T12:57:46Z,NA,NA,NA,NA,NA,sub143
NA,mars-trial,64,340008,0.0-10.0-1.25,"""event"",""trial"",""time""
""fullscreenenter"",""0"",""3863""
""fullscreenexit"",""2"",""7548""
","
","
","""event"",""trial"",""time""
""fullscreenenter"",""0"",""3863""
","""event"",""trial"",""time""
""fullscreenexit"",""2"",""7548""
",22490.549999987707,<img style='border: 4px solid darkgrey;' src='img/tf1_26_M_ss1.jpeg'></img>,3,NA,exp,NA,0,<img src='img/tf1_26_T1_ss1_md.jpeg'></img>,0,TRUE,NA,sub143
NA,html-keyboard-response,65,340514,0.0-10.0-0.26,"""event"",""trial"",""time""
""fullscreenenter"",""0"",""3863""
""fullscreenexit"",""2"",""7548""
","
","
","""event"",""trial"",""time""
""fullscreenenter"",""0"",""3863""
","""event"",""trial"",""time""
""fullscreenexit"",""2"",""7548""
",null,"<div style=""font-size:60px;"">+</div>",NA,null,fixation,2020-07-02T12:58:09Z,NA,NA,NA,NA,NA,sub143
NA,mars-trial,66,359014,0.0-10.0-1.26,"""event"",""trial"",""time""
""fullscreenenter"",""0"",""3863""
""fullscreenexit"",""2"",""7548""
","
","
","""event"",""trial"",""time""
""fullscreenenter"",""0"",""3863""
","""event"",""trial"",""time""
""fullscreenexit"",""2"",""7548""
",17891.85000001453,<img style='border: 4px solid darkgrey;' src='img/tf1_27_M_ss2.jpeg'></img>,0,NA,exp,NA,1,<img src='img/tf1_27_T1_ss2_md.jpeg'></img>,0,FALSE,NA,sub143
NA,html-keyboard-response,67,359517,0.0-10.0-0.27,"""event"",""trial"",""time""
""fullscreenenter"",""0"",""3863""
""fullscreenexit"",""2"",""7548""
","
","
","""event"",""trial"",""time""
""fullscreenenter"",""0"",""3863""
","""event"",""trial"",""time""
""fullscreenexit"",""2"",""7548""
",null,"<div style=""font-size:60px;"">+</div>",NA,null,fixation,2020-07-02T12:58:28Z,NA,NA,NA,NA,NA,sub143
NA,mars-trial,68,387075,0.0-10.0-1.27,"""event"",""trial"",""time""
""fullscreenenter"",""0"",""3863""
""fullscreenexit"",""2"",""7548""
","
","
","""event"",""trial"",""time""
""fullscreenenter"",""0"",""3863""
","""event"",""trial"",""time""
""fullscreenexit"",""2"",""7548""
",26949.139999924228,<img style='border: 4px solid darkgrey;' src='img/tf1_28_M_ss3.jpeg'></img>,0,NA,exp,NA,2,<img src='img/tf1_28_T1_ss3_md.jpeg'></img>,0,FALSE,NA,sub143
NA,html-keyboard-response,69,387579,0.0-10.0-0.28,"""event"",""trial"",""time""
""fullscreenenter"",""0"",""3863""
""fullscreenexit"",""2"",""7548""
","
","
","""event"",""trial"",""time""
""fullscreenenter"",""0"",""3863""
","""event"",""trial"",""time""
""fullscreenexit"",""2"",""7548""
",null,"<div style=""font-size:60px;"">+</div>",NA,null,fixation,2020-07-02T12:58:56Z,NA,NA,NA,NA,NA,sub143
NA,mars-trial,70,407300,0.0-10.0-1.28,"""event"",""trial"",""time""
""fullscreenenter"",""0"",""3863""
""fullscreenexit"",""2"",""7548""
","
","
","""event"",""trial"",""time""
""fullscreenenter"",""0"",""3863""
","""event"",""trial"",""time""
""fullscreenexit"",""2"",""7548""
",19110.98499991931,<img style='border: 4px solid darkgrey;' src='img/tf1_29_M_ss1.jpeg'></img>,1,NA,exp,NA,0,<img src='img/tf1_29_T1_ss1_md.jpeg'></img>,0,TRUE,NA,sub143
NA,html-keyboard-response,71,407804,0.0-10.0-0.29,"""event"",""trial"",""time""
""fullscreenenter"",""0"",""3863""
""fullscreenexit"",""2"",""7548""
","
","
","""event"",""trial"",""time""
""fullscreenenter"",""0"",""3863""
","""event"",""trial"",""time""
""fullscreenexit"",""2"",""7548""
",null,"<div style=""font-size:60px;"">+</div>",NA,null,fixation,2020-07-02T12:59:17Z,NA,NA,NA,NA,NA,sub143
NA,mars-trial,72,418726,0.0-10.0-1.29,"""event"",""trial"",""time""
""fullscreenenter"",""0"",""3863""
""fullscreenexit"",""2"",""7548""
","
","
","""event"",""trial"",""time""
""fullscreenenter"",""0"",""3863""
","""event"",""trial"",""time""
""fullscreenexit"",""2"",""7548""
",10313.459999859333,<img style='border: 4px solid darkgrey;' src='img/tf1_30_M_ss2.jpeg'></img>,0,NA,exp,NA,0,<img src='img/tf1_30_T1_ss2_md.jpeg'></img>,0,TRUE,NA,sub143
NA,html-keyboard-response,73,419230,0.0-10.0-0.30,"""event"",""trial"",""time""
""fullscreenenter"",""0"",""3863""
""fullscreenexit"",""2"",""7548""
","
","
","""event"",""trial"",""time""
""fullscreenenter"",""0"",""3863""
","""event"",""trial"",""time""
""fullscreenexit"",""2"",""7548""
",null,"<div style=""font-size:60px;"">+</div>",NA,null,fixation,2020-07-02T12:59:28Z,NA,NA,NA,NA,NA,sub143
NA,mars-trial,74,428884,0.0-10.0-1.30,"""event"",""trial"",""time""
""fullscreenenter"",""0"",""3863""
""fullscreenexit"",""2"",""7548""
","
","
","""event"",""trial"",""time""
""fullscreenenter"",""0"",""3863""
","""event"",""trial"",""time""
""fullscreenexit"",""2"",""7548""
",9045.510000083596,<img style='border: 4px solid darkgrey;' src='img/tf1_31_M_ss3.jpeg'></img>,0,NA,exp,NA,0,<img src='img/tf1_31_T1_ss3_md.jpeg'></img>,0,TRUE,NA,sub143
NA,html-keyboard-response,75,429388,0.0-10.0-0.31,"""event"",""trial"",""time""
""fullscreenenter"",""0"",""3863""
""fullscreenexit"",""2"",""7548""
","
","
","""event"",""trial"",""time""
""fullscreenenter"",""0"",""3863""
","""event"",""trial"",""time""
""fullscreenexit"",""2"",""7548""
",null,"<div style=""font-size:60px;"">+</div>",NA,null,fixation,2020-07-02T12:59:38Z,NA,NA,NA,NA,NA,sub143
NA,mars-trial,76,441296,0.0-10.0-1.31,"""event"",""trial"",""time""
""fullscreenenter"",""0"",""3863""
""fullscreenexit"",""2"",""7548""
","
","
","""event"",""trial"",""time""
""fullscreenenter"",""0"",""3863""
","""event"",""trial"",""time""
""fullscreenexit"",""2"",""7548""
",11298.854999942705,<img style='border: 4px solid darkgrey;' src='img/tf1_32_M_ss1.jpeg'></img>,3,NA,exp,NA,0,<img src='img/tf1_32_T1_ss1_md.jpeg'></img>,0,TRUE,NA,sub143
NA,html-keyboard-response,77,441799,0.0-10.0-0.32,"""event"",""trial"",""time""
""fullscreenenter"",""0"",""3863""
""fullscreenexit"",""2"",""7548""
","
","
","""event"",""trial"",""time""
""fullscreenenter"",""0"",""3863""
","""event"",""trial"",""time""
""fullscreenexit"",""2"",""7548""
",null,"<div style=""font-size:60px;"">+</div>",NA,null,fixation,2020-07-02T12:59:51Z,NA,NA,NA,NA,NA,sub143
NA,mars-trial,78,452730,0.0-10.0-1.32,"""event"",""trial"",""time""
""fullscreenenter"",""0"",""3863""
""fullscreenexit"",""2"",""7548""
","
","
","""event"",""trial"",""time""
""fullscreenenter"",""0"",""3863""
","""event"",""trial"",""time""
""fullscreenexit"",""2"",""7548""
",10321.995000122115,<img style='border: 4px solid darkgrey;' src='img/tf1_33_M_ss2.jpeg'></img>,3,NA,exp,NA,0,<img src='img/tf1_33_T1_ss2_md.jpeg'></img>,0,TRUE,NA,sub143
NA,html-keyboard-response,79,453234,0.0-10.0-0.33,"""event"",""trial"",""time""
""fullscreenenter"",""0"",""3863""
""fullscreenexit"",""2"",""7548""
","
","
","""event"",""trial"",""time""
""fullscreenenter"",""0"",""3863""
","""event"",""trial"",""time""
""fullscreenexit"",""2"",""7548""
",null,"<div style=""font-size:60px;"">+</div>",NA,null,fixation,2020-07-02T13:00:02Z,NA,NA,NA,NA,NA,sub143
NA,mars-trial,80,467095,0.0-10.0-1.33,"""event"",""trial"",""time""
""fullscreenenter"",""0"",""3863""
""fullscreenexit"",""2"",""7548""
","
","
","""event"",""trial"",""time""
""fullscreenenter"",""0"",""3863""
","""event"",""trial"",""time""
""fullscreenexit"",""2"",""7548""
",13251.450000097975,<img style='border: 4px solid darkgrey;' src='img/tf1_34_M_ss3.jpeg'></img>,0,NA,exp,NA,3,<img src='img/tf1_34_T1_ss3_md.jpeg'></img>,0,FALSE,NA,sub143
NA,html-keyboard-response,81,467599,0.0-10.0-0.34,"""event"",""trial"",""time""
""fullscreenenter"",""0"",""3863""
""fullscreenexit"",""2"",""7548""
","
","
","""event"",""trial"",""time""
""fullscreenenter"",""0"",""3863""
","""event"",""trial"",""time""
""fullscreenexit"",""2"",""7548""
",null,"<div style=""font-size:60px;"">+</div>",NA,null,fixation,2020-07-02T13:00:16Z,NA,NA,NA,NA,NA,sub143
NA,mars-trial,82,486927,0.0-10.0-1.34,"""event"",""trial"",""time""
""fullscreenenter"",""0"",""3863""
""fullscreenexit"",""2"",""7548""
","
","
","""event"",""trial"",""time""
""fullscreenenter"",""0"",""3863""
","""event"",""trial"",""time""
""fullscreenexit"",""2"",""7548""
",18720.0600001961,<img style='border: 4px solid darkgrey;' src='img/tf1_35_M_ss1.jpeg'></img>,0,NA,exp,NA,0,<img src='img/tf1_35_T1_ss1_md.jpeg'></img>,0,TRUE,NA,sub143
NA,html-keyboard-response,83,487431,0.0-10.0-0.35,"""event"",""trial"",""time""
""fullscreenenter"",""0"",""3863""
""fullscreenexit"",""2"",""7548""
","
","
","""event"",""trial"",""time""
""fullscreenenter"",""0"",""3863""
","""event"",""trial"",""time""
""fullscreenexit"",""2"",""7548""
",null,"<div style=""font-size:60px;"">+</div>",NA,null,fixation,2020-07-02T13:00:36Z,NA,NA,NA,NA,NA,sub143
NA,mars-trial,84,503565,0.0-10.0-1.35,"""event"",""trial"",""time""
""fullscreenenter"",""0"",""3863""
""fullscreenexit"",""2"",""7548""
","
","
","""event"",""trial"",""time""
""fullscreenenter"",""0"",""3863""
","""event"",""trial"",""time""
""fullscreenexit"",""2"",""7548""
",15524.9199999962,<img style='border: 4px solid darkgrey;' src='img/tf1_36_M_ss2.jpeg'></img>,3,NA,exp,NA,0,<img src='img/tf1_36_T1_ss2_md.jpeg'></img>,0,TRUE,NA,sub143
NA,html-keyboard-response,85,504069,0.0-10.0-0.36,"""event"",""trial"",""time""
""fullscreenenter"",""0"",""3863""
""fullscreenexit"",""2"",""7548""
","
","
","""event"",""trial"",""time""
""fullscreenenter"",""0"",""3863""
","""event"",""trial"",""time""
""fullscreenexit"",""2"",""7548""
",null,"<div style=""font-size:60px;"">+</div>",NA,null,fixation,2020-07-02T13:00:53Z,NA,NA,NA,NA,NA,sub143
NA,mars-trial,86,515870,0.0-10.0-1.36,"""event"",""trial"",""time""
""fullscreenenter"",""0"",""3863""
""fullscreenexit"",""2"",""7548""
","
","
","""event"",""trial"",""time""
""fullscreenenter"",""0"",""3863""
","""event"",""trial"",""time""
""fullscreenexit"",""2"",""7548""
",11191.679999930784,<img style='border: 4px solid darkgrey;' src='img/tf1_37_M_ss3.jpeg'></img>,3,NA,exp,NA,2,<img src='img/tf1_37_T1_ss3_md.jpeg'></img>,0,FALSE,NA,sub143
NA,html-keyboard-response,87,516374,0.0-10.0-0.37,"""event"",""trial"",""time""
""fullscreenenter"",""0"",""3863""
""fullscreenexit"",""2"",""7548""
","
","
","""event"",""trial"",""time""
""fullscreenenter"",""0"",""3863""
","""event"",""trial"",""time""
""fullscreenexit"",""2"",""7548""
",null,"<div style=""font-size:60px;"">+</div>",NA,null,fixation,2020-07-02T13:01:05Z,NA,NA,NA,NA,NA,sub143
NA,mars-trial,88,522222,0.0-10.0-1.37,"""event"",""trial"",""time""
""fullscreenenter"",""0"",""3863""
""fullscreenexit"",""2"",""7548""
","
","
","""event"",""trial"",""time""
""fullscreenenter"",""0"",""3863""
","""event"",""trial"",""time""
""fullscreenexit"",""2"",""7548""
",5237.97499993816,<img style='border: 4px solid darkgrey;' src='img/tf1_38_M_ss1.jpeg'></img>,0,NA,exp,NA,0,<img src='img/tf1_38_T1_ss1_md.jpeg'></img>,0,TRUE,NA,sub143
NA,html-keyboard-response,89,522726,0.0-10.0-0.38,"""event"",""trial"",""time""
""fullscreenenter"",""0"",""3863""
""fullscreenexit"",""2"",""7548""
","
","
","""event"",""trial"",""time""
""fullscreenenter"",""0"",""3863""
","""event"",""trial"",""time""
""fullscreenexit"",""2"",""7548""
",null,"<div style=""font-size:60px;"">+</div>",NA,null,fixation,2020-07-02T13:01:12Z,NA,NA,NA,NA,NA,sub143
NA,mars-trial,90,541210,0.0-10.0-1.38,"""event"",""trial"",""time""
""fullscreenenter"",""0"",""3863""
""fullscreenexit"",""2"",""7548""
","
","
","""event"",""trial"",""time""
""fullscreenenter"",""0"",""3863""
","""event"",""trial"",""time""
""fullscreenexit"",""2"",""7548""
",17875.754999928176,<img style='border: 4px solid darkgrey;' src='img/tf1_39_M_ss2.jpeg'></img>,1,NA,exp,NA,0,<img src='img/tf1_39_T1_ss2_md.jpeg'></img>,0,TRUE,NA,sub143
NA,html-keyboard-response,91,541712,0.0-10.0-0.39,"""event"",""trial"",""time""
""fullscreenenter"",""0"",""3863""
""fullscreenexit"",""2"",""7548""
","
","
","""event"",""trial"",""time""
""fullscreenenter"",""0"",""3863""
","""event"",""trial"",""time""
""fullscreenexit"",""2"",""7548""
",null,"<div style=""font-size:60px;"">+</div>",NA,null,fixation,2020-07-02T13:01:30Z,NA,NA,NA,NA,NA,sub143
NA,mars-trial,92,550547,0.0-10.0-1.39,"""event"",""trial"",""time""
""fullscreenenter"",""0"",""3863""
""fullscreenexit"",""2"",""7548""
","
","
","""event"",""trial"",""time""
""fullscreenenter"",""0"",""3863""
","""event"",""trial"",""time""
""fullscreenexit"",""2"",""7548""
",NA,NA,NA,NA,exp,NA,NA,<img src='img/tf1_40_T1_ss3_md.jpeg'></img>,0,FALSE,NA,sub143
NA,html-keyboard-response,93,551049,0.0-10.0-0.40,"""event"",""trial"",""time""
""fullscreenenter"",""0"",""3863""
""fullscreenexit"",""2"",""7548""
","
","
","""event"",""trial"",""time""
""fullscreenenter"",""0"",""3863""
","""event"",""trial"",""time""
""fullscreenexit"",""2"",""7548""
",null,"<div style=""font-size:60px;"">+</div>",NA,null,fixation,2020-07-02T13:01:40Z,NA,NA,NA,NA,NA,sub143
NA,audio-button-response,94,554070,0.0-11.0,"""event"",""trial"",""time""
""fullscreenenter"",""0"",""3863""
""fullscreenexit"",""2"",""7548""
","
","
","""event"",""trial"",""time""
""fullscreenenter"",""0"",""3863""
","""event"",""trial"",""time""
""fullscreenexit"",""2"",""7548""
",2917.009999975562,audio/mars_instructions_slide5.wav,0,NA,NA,NA,NA,NA,NA,NA,NA,sub143
