success,trial_type,trial_index,time_elapsed,internal_node_id,interactions,blur_events,focus_events,fullscreenenter_events,fullscreenexit_events,rt,stimulus,button_pressed,key_press,part,timestamp,unshuffled_button,correct_response,correct_button,correct,value,subject_id
TRUE,fullscreen,0,4403,0.0-0.0,"""event"",""trial"",""time""
""focus"",""0"",""654""
""fullscreenenter"",""0"",""3458""
","
","""event"",""trial"",""time""
""focus"",""0"",""654""
","""event"",""trial"",""time""
""fullscreenenter"",""0"",""3458""
","
",NA,NA,NA,NA,NA,NA,NA,NA,NA,NA,NA,sub42
NA,pavlovia,1,4404,0.0-1.0,"""event"",""trial"",""time""
""focus"",""0"",""654""
""fullscreenenter"",""0"",""3458""
","
","""event"",""trial"",""time""
""focus"",""0"",""654""
","""event"",""trial"",""time""
""fullscreenenter"",""0"",""3458""
","
",NA,NA,NA,NA,NA,NA,NA,NA,NA,NA,NA,sub42
NA,html-button-response,2,5399,0.0-2.0,"""event"",""trial"",""time""
""focus"",""0"",""654""
""fullscreenenter"",""0"",""3458""
","
","""event"",""trial"",""time""
""focus"",""0"",""654""
","""event"",""trial"",""time""
""fullscreenenter"",""0"",""3458""
","
",993.0000000000018,<p>Welcome! Press START to begin.</p><br>,0,NA,NA,NA,NA,NA,NA,NA,NA,sub42
NA,audio-button-response,3,19381,0.0-3.0,"""event"",""trial"",""time""
""focus"",""0"",""654""
""fullscreenenter"",""0"",""3458""
","
","""event"",""trial"",""time""
""focus"",""0"",""654""
","""event"",""trial"",""time""
""fullscreenenter"",""0"",""3458""
","
",13981,audio/mars_instructions_slide2.wav,0,NA,NA,NA,NA,NA,NA,NA,NA,sub42
NA,audio-button-response,4,24191,0.0-4.0,"""event"",""trial"",""time""
""focus"",""0"",""654""
""fullscreenenter"",""0"",""3458""
","
","""event"",""trial"",""time""
""focus"",""0"",""654""
","""event"",""trial"",""time""
""fullscreenenter"",""0"",""3458""
","
",4809,audio/mars_instructions_slide3.wav,0,NA,NA,NA,NA,NA,NA,NA,NA,sub42
NA,html-keyboard-response,5,24693,0.0-5.0-0.0,"""event"",""trial"",""time""
""focus"",""0"",""654""
""fullscreenenter"",""0"",""3458""
","
","""event"",""trial"",""time""
""focus"",""0"",""654""
","""event"",""trial"",""time""
""fullscreenenter"",""0"",""3458""
","
",null,"<div style=""font-size:60px;"">+</div>",NA,null,fixation,2020-06-12T18:57:10Z,NA,NA,NA,NA,NA,sub42
NA,mars-trial,6,31379,0.0-5.0-1.0,"""event"",""trial"",""time""
""focus"",""0"",""654""
""fullscreenenter"",""0"",""3458""
","
","""event"",""trial"",""time""
""focus"",""0"",""654""
","""event"",""trial"",""time""
""fullscreenenter"",""0"",""3458""
","
",4582,<img style='border: 4px solid darkgrey;' src='practice/pt1_M1.png'></img>,0,NA,practice,NA,0,<img src='practice/pt1_T1.png'></img>,0,TRUE,NA,sub42
NA,html-keyboard-response,7,31882,0.0-6.0-0.0,"""event"",""trial"",""time""
""focus"",""0"",""654""
""fullscreenenter"",""0"",""3458""
","
","""event"",""trial"",""time""
""focus"",""0"",""654""
","""event"",""trial"",""time""
""fullscreenenter"",""0"",""3458""
","
",null,"<div style=""font-size:60px;"">+</div>",NA,null,fixation,2020-06-12T18:57:17Z,NA,NA,NA,NA,NA,sub42
NA,mars-trial,8,36685,0.0-6.0-1.0,"""event"",""trial"",""time""
""focus"",""0"",""654""
""fullscreenenter"",""0"",""3458""
","
","""event"",""trial"",""time""
""focus"",""0"",""654""
","""event"",""trial"",""time""
""fullscreenenter"",""0"",""3458""
","
",2700,<img style='border: 4px solid darkgrey;' src='practice/pt2_M1.png'></img>,0,NA,practice,NA,0,<img src='practice/pt2_T1.png'></img>,0,TRUE,NA,sub42
NA,html-keyboard-response,9,37188,0.0-7.0-0.0,"""event"",""trial"",""time""
""focus"",""0"",""654""
""fullscreenenter"",""0"",""3458""
","
","""event"",""trial"",""time""
""focus"",""0"",""654""
","""event"",""trial"",""time""
""fullscreenenter"",""0"",""3458""
","
",null,"<div style=""font-size:60px;"">+</div>",NA,null,fixation,2020-06-12T18:57:22Z,NA,NA,NA,NA,NA,sub42
NA,mars-trial,10,42264,0.0-7.0-1.0,"""event"",""trial"",""time""
""focus"",""0"",""654""
""fullscreenenter"",""0"",""3458""
","
","""event"",""trial"",""time""
""focus"",""0"",""654""
","""event"",""trial"",""time""
""fullscreenenter"",""0"",""3458""
","
",2973,<img style='border: 4px solid darkgrey;' src='practice/pt3_M1.png'></img>,3,NA,practice,NA,0,<img src='practice/pt3_T1.png'></img>,0,TRUE,NA,sub42
NA,audio-button-response,11,43381,0.0-8.0,"""event"",""trial"",""time""
""focus"",""0"",""654""
""fullscreenenter"",""0"",""3458""
","
","""event"",""trial"",""time""
""focus"",""0"",""654""
","""event"",""trial"",""time""
""fullscreenenter"",""0"",""3458""
","
",1113,audio/mars_instructions_slide4.wav,0,NA,NA,NA,NA,NA,NA,NA,NA,sub42
NA,call-function,12,43383,0.0-9.0,"""event"",""trial"",""time""
""focus"",""0"",""654""
""fullscreenenter"",""0"",""3458""
","
","""event"",""trial"",""time""
""focus"",""0"",""654""
","""event"",""trial"",""time""
""fullscreenenter"",""0"",""3458""
","
",NA,NA,NA,NA,NA,NA,NA,NA,NA,NA,NA,sub42
NA,html-keyboard-response,13,43883,0.0-10.0-0.0,"""event"",""trial"",""time""
""focus"",""0"",""654""
""fullscreenenter"",""0"",""3458""
","
","""event"",""trial"",""time""
""focus"",""0"",""654""
","""event"",""trial"",""time""
""fullscreenenter"",""0"",""3458""
","
",null,"<div style=""font-size:60px;"">+</div>",NA,null,fixation,2020-06-12T18:57:29Z,NA,NA,NA,NA,NA,sub42
NA,mars-trial,14,47681,0.0-10.0-1.0,"""event"",""trial"",""time""
""focus"",""0"",""654""
""fullscreenenter"",""0"",""3458""
","
","""event"",""trial"",""time""
""focus"",""0"",""654""
","""event"",""trial"",""time""
""fullscreenenter"",""0"",""3458""
","
",3194,<img style='border: 4px solid darkgrey;' src='img/tf1_1_M_ss3.jpeg'></img>,0,NA,exp,NA,0,<img src='img/tf1_1_T1_ss3_md.jpeg'></img>,0,TRUE,NA,sub42
NA,html-keyboard-response,15,48183,0.0-10.0-0.1,"""event"",""trial"",""time""
""focus"",""0"",""654""
""fullscreenenter"",""0"",""3458""
","
","""event"",""trial"",""time""
""focus"",""0"",""654""
","""event"",""trial"",""time""
""fullscreenenter"",""0"",""3458""
","
",null,"<div style=""font-size:60px;"">+</div>",NA,null,fixation,2020-06-12T18:57:33Z,NA,NA,NA,NA,NA,sub42
NA,mars-trial,16,52242,0.0-10.0-1.1,"""event"",""trial"",""time""
""focus"",""0"",""654""
""fullscreenenter"",""0"",""3458""
","
","""event"",""trial"",""time""
""focus"",""0"",""654""
","""event"",""trial"",""time""
""fullscreenenter"",""0"",""3458""
","
",3454,<img style='border: 4px solid darkgrey;' src='img/tf1_2_M_ss1.jpeg'></img>,1,NA,exp,NA,0,<img src='img/tf1_2_T1_ss1_md.jpeg'></img>,0,TRUE,NA,sub42
NA,html-keyboard-response,17,52744,0.0-10.0-0.2,"""event"",""trial"",""time""
""focus"",""0"",""654""
""fullscreenenter"",""0"",""3458""
","
","""event"",""trial"",""time""
""focus"",""0"",""654""
","""event"",""trial"",""time""
""fullscreenenter"",""0"",""3458""
","
",null,"<div style=""font-size:60px;"">+</div>",NA,null,fixation,2020-06-12T18:57:38Z,NA,NA,NA,NA,NA,sub42
NA,mars-trial,18,55640,0.0-10.0-1.2,"""event"",""trial"",""time""
""focus"",""0"",""654""
""fullscreenenter"",""0"",""3458""
","
","""event"",""trial"",""time""
""focus"",""0"",""654""
","""event"",""trial"",""time""
""fullscreenenter"",""0"",""3458""
","
",2294.0000000000073,<img style='border: 4px solid darkgrey;' src='img/tf1_3_M_ss2.jpeg'></img>,2,NA,exp,NA,0,<img src='img/tf1_3_T1_ss2_md.jpeg'></img>,0,TRUE,NA,sub42
NA,html-keyboard-response,19,56141,0.0-10.0-0.3,"""event"",""trial"",""time""
""focus"",""0"",""654""
""fullscreenenter"",""0"",""3458""
","
","""event"",""trial"",""time""
""focus"",""0"",""654""
","""event"",""trial"",""time""
""fullscreenenter"",""0"",""3458""
","
",null,"<div style=""font-size:60px;"">+</div>",NA,null,fixation,2020-06-12T18:57:41Z,NA,NA,NA,NA,NA,sub42
NA,mars-trial,20,62605,0.0-10.0-1.3,"""event"",""trial"",""time""
""focus"",""0"",""654""
""fullscreenenter"",""0"",""3458""
","
","""event"",""trial"",""time""
""focus"",""0"",""654""
","""event"",""trial"",""time""
""fullscreenenter"",""0"",""3458""
","
",5859,<img style='border: 4px solid darkgrey;' src='img/tf1_4_M_ss3.jpeg'></img>,0,NA,exp,NA,0,<img src='img/tf1_4_T1_ss3_md.jpeg'></img>,0,TRUE,NA,sub42
NA,html-keyboard-response,21,63107,0.0-10.0-0.4,"""event"",""trial"",""time""
""focus"",""0"",""654""
""fullscreenenter"",""0"",""3458""
","
","""event"",""trial"",""time""
""focus"",""0"",""654""
","""event"",""trial"",""time""
""fullscreenenter"",""0"",""3458""
","
",null,"<div style=""font-size:60px;"">+</div>",NA,null,fixation,2020-06-12T18:57:48Z,NA,NA,NA,NA,NA,sub42
NA,mars-trial,22,66830,0.0-10.0-1.4,"""event"",""trial"",""time""
""focus"",""0"",""654""
""fullscreenenter"",""0"",""3458""
","
","""event"",""trial"",""time""
""focus"",""0"",""654""
","""event"",""trial"",""time""
""fullscreenenter"",""0"",""3458""
","
",3119,<img style='border: 4px solid darkgrey;' src='img/tf1_5_M_ss1.jpeg'></img>,1,NA,exp,NA,0,<img src='img/tf1_5_T1_ss1_md.jpeg'></img>,0,TRUE,NA,sub42
NA,html-keyboard-response,23,67332,0.0-10.0-0.5,"""event"",""trial"",""time""
""focus"",""0"",""654""
""fullscreenenter"",""0"",""3458""
","
","""event"",""trial"",""time""
""focus"",""0"",""654""
","""event"",""trial"",""time""
""fullscreenenter"",""0"",""3458""
","
",null,"<div style=""font-size:60px;"">+</div>",NA,null,fixation,2020-06-12T18:57:52Z,NA,NA,NA,NA,NA,sub42
NA,mars-trial,24,76201,0.0-10.0-1.5,"""event"",""trial"",""time""
""focus"",""0"",""654""
""fullscreenenter"",""0"",""3458""
","
","""event"",""trial"",""time""
""focus"",""0"",""654""
","""event"",""trial"",""time""
""fullscreenenter"",""0"",""3458""
","
",8265,<img style='border: 4px solid darkgrey;' src='img/tf1_6_M_ss2.jpeg'></img>,3,NA,exp,NA,0,<img src='img/tf1_6_T1_ss2_md.jpeg'></img>,0,TRUE,NA,sub42
NA,html-keyboard-response,25,76703,0.0-10.0-0.6,"""event"",""trial"",""time""
""focus"",""0"",""654""
""fullscreenenter"",""0"",""3458""
","
","""event"",""trial"",""time""
""focus"",""0"",""654""
","""event"",""trial"",""time""
""fullscreenenter"",""0"",""3458""
","
",null,"<div style=""font-size:60px;"">+</div>",NA,null,fixation,2020-06-12T18:58:02Z,NA,NA,NA,NA,NA,sub42
NA,mars-trial,26,82858,0.0-10.0-1.6,"""event"",""trial"",""time""
""focus"",""0"",""654""
""fullscreenenter"",""0"",""3458""
","
","""event"",""trial"",""time""
""focus"",""0"",""654""
","""event"",""trial"",""time""
""fullscreenenter"",""0"",""3458""
","
",5551,<img style='border: 4px solid darkgrey;' src='img/tf1_7_M_ss3.jpeg'></img>,1,NA,exp,NA,0,<img src='img/tf1_7_T1_ss3_md.jpeg'></img>,0,TRUE,NA,sub42
NA,html-keyboard-response,27,83359,0.0-10.0-0.7,"""event"",""trial"",""time""
""focus"",""0"",""654""
""fullscreenenter"",""0"",""3458""
","
","""event"",""trial"",""time""
""focus"",""0"",""654""
","""event"",""trial"",""time""
""fullscreenenter"",""0"",""3458""
","
",null,"<div style=""font-size:60px;"">+</div>",NA,null,fixation,2020-06-12T18:58:08Z,NA,NA,NA,NA,NA,sub42
NA,mars-trial,28,89588,0.0-10.0-1.7,"""event"",""trial"",""time""
""focus"",""0"",""654""
""fullscreenenter"",""0"",""3458""
","
","""event"",""trial"",""time""
""focus"",""0"",""654""
","""event"",""trial"",""time""
""fullscreenenter"",""0"",""3458""
","
",5625,<img style='border: 4px solid darkgrey;' src='img/tf1_8_M_ss1.jpeg'></img>,0,NA,exp,NA,0,<img src='img/tf1_8_T1_ss1_md.jpeg'></img>,0,TRUE,NA,sub42
NA,html-keyboard-response,29,90090,0.0-10.0-0.8,"""event"",""trial"",""time""
""focus"",""0"",""654""
""fullscreenenter"",""0"",""3458""
","
","""event"",""trial"",""time""
""focus"",""0"",""654""
","""event"",""trial"",""time""
""fullscreenenter"",""0"",""3458""
","
",null,"<div style=""font-size:60px;"">+</div>",NA,null,fixation,2020-06-12T18:58:15Z,NA,NA,NA,NA,NA,sub42
NA,mars-trial,30,94912,0.0-10.0-1.8,"""event"",""trial"",""time""
""focus"",""0"",""654""
""fullscreenenter"",""0"",""3458""
","
","""event"",""trial"",""time""
""focus"",""0"",""654""
","""event"",""trial"",""time""
""fullscreenenter"",""0"",""3458""
","
",4217,<img style='border: 4px solid darkgrey;' src='img/tf1_9_M_ss2.jpeg'></img>,0,NA,exp,NA,0,<img src='img/tf1_9_T1_ss2_md.jpeg'></img>,0,TRUE,NA,sub42
NA,html-keyboard-response,31,95414,0.0-10.0-0.9,"""event"",""trial"",""time""
""focus"",""0"",""654""
""fullscreenenter"",""0"",""3458""
","
","""event"",""trial"",""time""
""focus"",""0"",""654""
","""event"",""trial"",""time""
""fullscreenenter"",""0"",""3458""
","
",null,"<div style=""font-size:60px;"">+</div>",NA,null,fixation,2020-06-12T18:58:20Z,NA,NA,NA,NA,NA,sub42
NA,mars-trial,32,110202,0.0-10.0-1.9,"""event"",""trial"",""time""
""focus"",""0"",""654""
""fullscreenenter"",""0"",""3458""
","
","""event"",""trial"",""time""
""focus"",""0"",""654""
","""event"",""trial"",""time""
""fullscreenenter"",""0"",""3458""
","
",14183.999999999985,<img style='border: 4px solid darkgrey;' src='img/tf1_10_M_ss3.jpeg'></img>,2,NA,exp,NA,0,<img src='img/tf1_10_T1_ss3_md.jpeg'></img>,0,TRUE,NA,sub42
NA,html-keyboard-response,33,110704,0.0-10.0-0.10,"""event"",""trial"",""time""
""focus"",""0"",""654""
""fullscreenenter"",""0"",""3458""
","
","""event"",""trial"",""time""
""focus"",""0"",""654""
","""event"",""trial"",""time""
""fullscreenenter"",""0"",""3458""
","
",null,"<div style=""font-size:60px;"">+</div>",NA,null,fixation,2020-06-12T18:58:36Z,NA,NA,NA,NA,NA,sub42
NA,mars-trial,34,119116,0.0-10.0-1.10,"""event"",""trial"",""time""
""focus"",""0"",""654""
""fullscreenenter"",""0"",""3458""
","
","""event"",""trial"",""time""
""focus"",""0"",""654""
","""event"",""trial"",""time""
""fullscreenenter"",""0"",""3458""
","
",7809.000000000015,<img style='border: 4px solid darkgrey;' src='img/tf1_11_M_ss1.jpeg'></img>,3,NA,exp,NA,0,<img src='img/tf1_11_T1_ss1_md.jpeg'></img>,0,TRUE,NA,sub42
NA,html-keyboard-response,35,119618,0.0-10.0-0.11,"""event"",""trial"",""time""
""focus"",""0"",""654""
""fullscreenenter"",""0"",""3458""
","
","""event"",""trial"",""time""
""focus"",""0"",""654""
","""event"",""trial"",""time""
""fullscreenenter"",""0"",""3458""
","
",null,"<div style=""font-size:60px;"">+</div>",NA,null,fixation,2020-06-12T18:58:45Z,NA,NA,NA,NA,NA,sub42
NA,mars-trial,36,134090,0.0-10.0-1.11,"""event"",""trial"",""time""
""focus"",""0"",""654""
""fullscreenenter"",""0"",""3458""
","
","""event"",""trial"",""time""
""focus"",""0"",""654""
","""event"",""trial"",""time""
""fullscreenenter"",""0"",""3458""
","
",13868,<img style='border: 4px solid darkgrey;' src='img/tf1_12_M_ss2.jpeg'></img>,1,NA,exp,NA,2,<img src='img/tf1_12_T1_ss2_md.jpeg'></img>,0,FALSE,NA,sub42
NA,html-keyboard-response,37,134591,0.0-10.0-0.12,"""event"",""trial"",""time""
""focus"",""0"",""654""
""fullscreenenter"",""0"",""3458""
","
","""event"",""trial"",""time""
""focus"",""0"",""654""
","""event"",""trial"",""time""
""fullscreenenter"",""0"",""3458""
","
",null,"<div style=""font-size:60px;"">+</div>",NA,null,fixation,2020-06-12T18:59:00Z,NA,NA,NA,NA,NA,sub42
NA,mars-trial,38,138691,0.0-10.0-1.12,"""event"",""trial"",""time""
""focus"",""0"",""654""
""fullscreenenter"",""0"",""3458""
","
","""event"",""trial"",""time""
""focus"",""0"",""654""
","""event"",""trial"",""time""
""fullscreenenter"",""0"",""3458""
","
",3497,<img style='border: 4px solid darkgrey;' src='img/tf1_13_M_ss3.jpeg'></img>,2,NA,exp,NA,0,<img src='img/tf1_13_T1_ss3_md.jpeg'></img>,0,TRUE,NA,sub42
NA,html-keyboard-response,39,139193,0.0-10.0-0.13,"""event"",""trial"",""time""
""focus"",""0"",""654""
""fullscreenenter"",""0"",""3458""
","
","""event"",""trial"",""time""
""focus"",""0"",""654""
","""event"",""trial"",""time""
""fullscreenenter"",""0"",""3458""
","
",null,"<div style=""font-size:60px;"">+</div>",NA,null,fixation,2020-06-12T18:59:04Z,NA,NA,NA,NA,NA,sub42
NA,mars-trial,40,146251,0.0-10.0-1.13,"""event"",""trial"",""time""
""focus"",""0"",""654""
""fullscreenenter"",""0"",""3458""
","
","""event"",""trial"",""time""
""focus"",""0"",""654""
","""event"",""trial"",""time""
""fullscreenenter"",""0"",""3458""
","
",6454.999999999971,<img style='border: 4px solid darkgrey;' src='img/tf1_14_M_ss1.jpeg'></img>,2,NA,exp,NA,1,<img src='img/tf1_14_T1_ss1_md.jpeg'></img>,0,FALSE,NA,sub42
NA,html-keyboard-response,41,146753,0.0-10.0-0.14,"""event"",""trial"",""time""
""focus"",""0"",""654""
""fullscreenenter"",""0"",""3458""
","
","""event"",""trial"",""time""
""focus"",""0"",""654""
","""event"",""trial"",""time""
""fullscreenenter"",""0"",""3458""
","
",null,"<div style=""font-size:60px;"">+</div>",NA,null,fixation,2020-06-12T18:59:12Z,NA,NA,NA,NA,NA,sub42
NA,mars-trial,42,159635,0.0-10.0-1.14,"""event"",""trial"",""time""
""focus"",""0"",""654""
""fullscreenenter"",""0"",""3458""
","
","""event"",""trial"",""time""
""focus"",""0"",""654""
","""event"",""trial"",""time""
""fullscreenenter"",""0"",""3458""
","
",12279,<img style='border: 4px solid darkgrey;' src='img/tf1_15_M_ss2.jpeg'></img>,0,NA,exp,NA,3,<img src='img/tf1_15_T1_ss2_md.jpeg'></img>,0,FALSE,NA,sub42
NA,html-keyboard-response,43,160137,0.0-10.0-0.15,"""event"",""trial"",""time""
""focus"",""0"",""654""
""fullscreenenter"",""0"",""3458""
","
","""event"",""trial"",""time""
""focus"",""0"",""654""
","""event"",""trial"",""time""
""fullscreenenter"",""0"",""3458""
","
",null,"<div style=""font-size:60px;"">+</div>",NA,null,fixation,2020-06-12T18:59:25Z,NA,NA,NA,NA,NA,sub42
NA,mars-trial,44,166546,0.0-10.0-1.15,"""event"",""trial"",""time""
""focus"",""0"",""654""
""fullscreenenter"",""0"",""3458""
","
","""event"",""trial"",""time""
""focus"",""0"",""654""
","""event"",""trial"",""time""
""fullscreenenter"",""0"",""3458""
","
",5805.000000000029,<img style='border: 4px solid darkgrey;' src='img/tf1_16_M_ss3.jpeg'></img>,0,NA,exp,NA,1,<img src='img/tf1_16_T1_ss3_md.jpeg'></img>,0,FALSE,NA,sub42
NA,html-keyboard-response,45,167048,0.0-10.0-0.16,"""event"",""trial"",""time""
""focus"",""0"",""654""
""fullscreenenter"",""0"",""3458""
","
","""event"",""trial"",""time""
""focus"",""0"",""654""
","""event"",""trial"",""time""
""fullscreenenter"",""0"",""3458""
","
",null,"<div style=""font-size:60px;"">+</div>",NA,null,fixation,2020-06-12T18:59:32Z,NA,NA,NA,NA,NA,sub42
NA,mars-trial,46,180814,0.0-10.0-1.16,"""event"",""trial"",""time""
""focus"",""0"",""654""
""fullscreenenter"",""0"",""3458""
","
","""event"",""trial"",""time""
""focus"",""0"",""654""
","""event"",""trial"",""time""
""fullscreenenter"",""0"",""3458""
","
",13161,<img style='border: 4px solid darkgrey;' src='img/tf1_17_M_ss1.jpeg'></img>,3,NA,exp,NA,0,<img src='img/tf1_17_T1_ss1_md.jpeg'></img>,0,TRUE,NA,sub42
NA,html-keyboard-response,47,181316,0.0-10.0-0.17,"""event"",""trial"",""time""
""focus"",""0"",""654""
""fullscreenenter"",""0"",""3458""
","
","""event"",""trial"",""time""
""focus"",""0"",""654""
","""event"",""trial"",""time""
""fullscreenenter"",""0"",""3458""
","
",null,"<div style=""font-size:60px;"">+</div>",NA,null,fixation,2020-06-12T18:59:46Z,NA,NA,NA,NA,NA,sub42
NA,mars-trial,48,189473,0.0-10.0-1.17,"""event"",""trial"",""time""
""focus"",""0"",""654""
""fullscreenenter"",""0"",""3458""
","
","""event"",""trial"",""time""
""focus"",""0"",""654""
","""event"",""trial"",""time""
""fullscreenenter"",""0"",""3458""
","
",7552,<img style='border: 4px solid darkgrey;' src='img/tf1_18_M_ss2.jpeg'></img>,0,NA,exp,NA,0,<img src='img/tf1_18_T1_ss2_md.jpeg'></img>,0,TRUE,NA,sub42
NA,html-keyboard-response,49,189975,0.0-10.0-0.18,"""event"",""trial"",""time""
""focus"",""0"",""654""
""fullscreenenter"",""0"",""3458""
","
","""event"",""trial"",""time""
""focus"",""0"",""654""
","""event"",""trial"",""time""
""fullscreenenter"",""0"",""3458""
","
",null,"<div style=""font-size:60px;"">+</div>",NA,null,fixation,2020-06-12T18:59:55Z,NA,NA,NA,NA,NA,sub42
NA,mars-trial,50,202050,0.0-10.0-1.18,"""event"",""trial"",""time""
""focus"",""0"",""654""
""fullscreenenter"",""0"",""3458""
","
","""event"",""trial"",""time""
""focus"",""0"",""654""
","""event"",""trial"",""time""
""fullscreenenter"",""0"",""3458""
","
",11471,<img style='border: 4px solid darkgrey;' src='img/tf1_19_M_ss3.jpeg'></img>,2,NA,exp,NA,3,<img src='img/tf1_19_T1_ss3_md.jpeg'></img>,0,FALSE,NA,sub42
NA,html-keyboard-response,51,202552,0.0-10.0-0.19,"""event"",""trial"",""time""
""focus"",""0"",""654""
""fullscreenenter"",""0"",""3458""
","
","""event"",""trial"",""time""
""focus"",""0"",""654""
","""event"",""trial"",""time""
""fullscreenenter"",""0"",""3458""
","
",null,"<div style=""font-size:60px;"">+</div>",NA,null,fixation,2020-06-12T19:00:08Z,NA,NA,NA,NA,NA,sub42
NA,mars-trial,52,214780,0.0-10.0-1.19,"""event"",""trial"",""time""
""focus"",""0"",""654""
""fullscreenenter"",""0"",""3458""
","
","""event"",""trial"",""time""
""focus"",""0"",""654""
","""event"",""trial"",""time""
""fullscreenenter"",""0"",""3458""
","
",11625,<img style='border: 4px solid darkgrey;' src='img/tf1_20_M_ss1.jpeg'></img>,2,NA,exp,NA,3,<img src='img/tf1_20_T1_ss1_md.jpeg'></img>,0,FALSE,NA,sub42
NA,html-keyboard-response,53,215282,0.0-10.0-0.20,"""event"",""trial"",""time""
""focus"",""0"",""654""
""fullscreenenter"",""0"",""3458""
","
","""event"",""trial"",""time""
""focus"",""0"",""654""
","""event"",""trial"",""time""
""fullscreenenter"",""0"",""3458""
","
",null,"<div style=""font-size:60px;"">+</div>",NA,null,fixation,2020-06-12T19:00:20Z,NA,NA,NA,NA,NA,sub42
NA,mars-trial,54,220199,0.0-10.0-1.20,"""event"",""trial"",""time""
""focus"",""0"",""654""
""fullscreenenter"",""0"",""3458""
","
","""event"",""trial"",""time""
""focus"",""0"",""654""
","""event"",""trial"",""time""
""fullscreenenter"",""0"",""3458""
","
",4314,<img style='border: 4px solid darkgrey;' src='img/tf1_21_M_ss2.jpeg'></img>,0,NA,exp,NA,3,<img src='img/tf1_21_T1_ss2_md.jpeg'></img>,0,FALSE,NA,sub42
NA,html-keyboard-response,55,220701,0.0-10.0-0.21,"""event"",""trial"",""time""
""focus"",""0"",""654""
""fullscreenenter"",""0"",""3458""
","
","""event"",""trial"",""time""
""focus"",""0"",""654""
","""event"",""trial"",""time""
""fullscreenenter"",""0"",""3458""
","
",null,"<div style=""font-size:60px;"">+</div>",NA,null,fixation,2020-06-12T19:00:26Z,NA,NA,NA,NA,NA,sub42
NA,mars-trial,56,226167,0.0-10.0-1.21,"""event"",""trial"",""time""
""focus"",""0"",""654""
""fullscreenenter"",""0"",""3458""
","
","""event"",""trial"",""time""
""focus"",""0"",""654""
","""event"",""trial"",""time""
""fullscreenenter"",""0"",""3458""
","
",4863,<img style='border: 4px solid darkgrey;' src='img/tf1_22_M_ss3.jpeg'></img>,2,NA,exp,NA,3,<img src='img/tf1_22_T1_ss3_md.jpeg'></img>,0,FALSE,NA,sub42
NA,html-keyboard-response,57,226668,0.0-10.0-0.22,"""event"",""trial"",""time""
""focus"",""0"",""654""
""fullscreenenter"",""0"",""3458""
","
","""event"",""trial"",""time""
""focus"",""0"",""654""
","""event"",""trial"",""time""
""fullscreenenter"",""0"",""3458""
","
",null,"<div style=""font-size:60px;"">+</div>",NA,null,fixation,2020-06-12T19:00:32Z,NA,NA,NA,NA,NA,sub42
NA,mars-trial,58,240148,0.0-10.0-1.22,"""event"",""trial"",""time""
""focus"",""0"",""654""
""fullscreenenter"",""0"",""3458""
","
","""event"",""trial"",""time""
""focus"",""0"",""654""
","""event"",""trial"",""time""
""fullscreenenter"",""0"",""3458""
","
",12875,<img style='border: 4px solid darkgrey;' src='img/tf1_23_M_ss1.jpeg'></img>,3,NA,exp,NA,0,<img src='img/tf1_23_T1_ss1_md.jpeg'></img>,0,TRUE,NA,sub42
NA,html-keyboard-response,59,240649,0.0-10.0-0.23,"""event"",""trial"",""time""
""focus"",""0"",""654""
""fullscreenenter"",""0"",""3458""
","
","""event"",""trial"",""time""
""focus"",""0"",""654""
","""event"",""trial"",""time""
""fullscreenenter"",""0"",""3458""
","
",null,"<div style=""font-size:60px;"">+</div>",NA,null,fixation,2020-06-12T19:00:46Z,NA,NA,NA,NA,NA,sub42
NA,mars-trial,60,248369,0.0-10.0-1.23,"""event"",""trial"",""time""
""focus"",""0"",""654""
""fullscreenenter"",""0"",""3458""
","
","""event"",""trial"",""time""
""focus"",""0"",""654""
","""event"",""trial"",""time""
""fullscreenenter"",""0"",""3458""
","
",7116,<img style='border: 4px solid darkgrey;' src='img/tf1_24_M_ss2.jpeg'></img>,2,NA,exp,NA,2,<img src='img/tf1_24_T1_ss2_md.jpeg'></img>,0,FALSE,NA,sub42
NA,html-keyboard-response,61,248870,0.0-10.0-0.24,"""event"",""trial"",""time""
""focus"",""0"",""654""
""fullscreenenter"",""0"",""3458""
","
","""event"",""trial"",""time""
""focus"",""0"",""654""
","""event"",""trial"",""time""
""fullscreenenter"",""0"",""3458""
","
",null,"<div style=""font-size:60px;"">+</div>",NA,null,fixation,2020-06-12T19:00:54Z,NA,NA,NA,NA,NA,sub42
NA,mars-trial,62,261650,0.0-10.0-1.24,"""event"",""trial"",""time""
""focus"",""0"",""654""
""fullscreenenter"",""0"",""3458""
","
","""event"",""trial"",""time""
""focus"",""0"",""654""
","""event"",""trial"",""time""
""fullscreenenter"",""0"",""3458""
","
",12176,<img style='border: 4px solid darkgrey;' src='img/tf1_25_M_ss3.jpeg'></img>,3,NA,exp,NA,0,<img src='img/tf1_25_T1_ss3_md.jpeg'></img>,0,TRUE,NA,sub42
NA,html-keyboard-response,63,262153,0.0-10.0-0.25,"""event"",""trial"",""time""
""focus"",""0"",""654""
""fullscreenenter"",""0"",""3458""
","
","""event"",""trial"",""time""
""focus"",""0"",""654""
","""event"",""trial"",""time""
""fullscreenenter"",""0"",""3458""
","
",null,"<div style=""font-size:60px;"">+</div>",NA,null,fixation,2020-06-12T19:01:07Z,NA,NA,NA,NA,NA,sub42
NA,mars-trial,64,271174,0.0-10.0-1.25,"""event"",""trial"",""time""
""focus"",""0"",""654""
""fullscreenenter"",""0"",""3458""
","
","""event"",""trial"",""time""
""focus"",""0"",""654""
","""event"",""trial"",""time""
""fullscreenenter"",""0"",""3458""
","
",8417,<img style='border: 4px solid darkgrey;' src='img/tf1_26_M_ss1.jpeg'></img>,3,NA,exp,NA,1,<img src='img/tf1_26_T1_ss1_md.jpeg'></img>,0,FALSE,NA,sub42
NA,html-keyboard-response,65,271676,0.0-10.0-0.26,"""event"",""trial"",""time""
""focus"",""0"",""654""
""fullscreenenter"",""0"",""3458""
","
","""event"",""trial"",""time""
""focus"",""0"",""654""
","""event"",""trial"",""time""
""fullscreenenter"",""0"",""3458""
","
",null,"<div style=""font-size:60px;"">+</div>",NA,null,fixation,2020-06-12T19:01:17Z,NA,NA,NA,NA,NA,sub42
NA,mars-trial,66,280945,0.0-10.0-1.26,"""event"",""trial"",""time""
""focus"",""0"",""654""
""fullscreenenter"",""0"",""3458""
","
","""event"",""trial"",""time""
""focus"",""0"",""654""
","""event"",""trial"",""time""
""fullscreenenter"",""0"",""3458""
","
",8665,<img style='border: 4px solid darkgrey;' src='img/tf1_27_M_ss2.jpeg'></img>,0,NA,exp,NA,2,<img src='img/tf1_27_T1_ss2_md.jpeg'></img>,0,FALSE,NA,sub42
NA,html-keyboard-response,67,281446,0.0-10.0-0.27,"""event"",""trial"",""time""
""focus"",""0"",""654""
""fullscreenenter"",""0"",""3458""
","
","""event"",""trial"",""time""
""focus"",""0"",""654""
","""event"",""trial"",""time""
""fullscreenenter"",""0"",""3458""
","
",null,"<div style=""font-size:60px;"">+</div>",NA,null,fixation,2020-06-12T19:01:26Z,NA,NA,NA,NA,NA,sub42
NA,mars-trial,68,293506,0.0-10.0-1.27,"""event"",""trial"",""time""
""focus"",""0"",""654""
""fullscreenenter"",""0"",""3458""
","
","""event"",""trial"",""time""
""focus"",""0"",""654""
","""event"",""trial"",""time""
""fullscreenenter"",""0"",""3458""
","
",11458,<img style='border: 4px solid darkgrey;' src='img/tf1_28_M_ss3.jpeg'></img>,2,NA,exp,NA,3,<img src='img/tf1_28_T1_ss3_md.jpeg'></img>,0,FALSE,NA,sub42
NA,html-keyboard-response,69,294008,0.0-10.0-0.28,"""event"",""trial"",""time""
""focus"",""0"",""654""
""fullscreenenter"",""0"",""3458""
","
","""event"",""trial"",""time""
""focus"",""0"",""654""
","""event"",""trial"",""time""
""fullscreenenter"",""0"",""3458""
","
",null,"<div style=""font-size:60px;"">+</div>",NA,null,fixation,2020-06-12T19:01:39Z,NA,NA,NA,NA,NA,sub42
NA,mars-trial,70,302618,0.0-10.0-1.28,"""event"",""trial"",""time""
""focus"",""0"",""654""
""fullscreenenter"",""0"",""3458""
","
","""event"",""trial"",""time""
""focus"",""0"",""654""
","""event"",""trial"",""time""
""fullscreenenter"",""0"",""3458""
","
",8008,<img style='border: 4px solid darkgrey;' src='img/tf1_29_M_ss1.jpeg'></img>,1,NA,exp,NA,0,<img src='img/tf1_29_T1_ss1_md.jpeg'></img>,0,TRUE,NA,sub42
NA,html-keyboard-response,71,303119,0.0-10.0-0.29,"""event"",""trial"",""time""
""focus"",""0"",""654""
""fullscreenenter"",""0"",""3458""
","
","""event"",""trial"",""time""
""focus"",""0"",""654""
","""event"",""trial"",""time""
""fullscreenenter"",""0"",""3458""
","
",null,"<div style=""font-size:60px;"">+</div>",NA,null,fixation,2020-06-12T19:01:48Z,NA,NA,NA,NA,NA,sub42
NA,mars-trial,72,320856,0.0-10.0-1.29,"""event"",""trial"",""time""
""focus"",""0"",""654""
""fullscreenenter"",""0"",""3458""
","
","""event"",""trial"",""time""
""focus"",""0"",""654""
","""event"",""trial"",""time""
""fullscreenenter"",""0"",""3458""
","
",17134,<img style='border: 4px solid darkgrey;' src='img/tf1_30_M_ss2.jpeg'></img>,1,NA,exp,NA,0,<img src='img/tf1_30_T1_ss2_md.jpeg'></img>,0,TRUE,NA,sub42
NA,html-keyboard-response,73,321358,0.0-10.0-0.30,"""event"",""trial"",""time""
""focus"",""0"",""654""
""fullscreenenter"",""0"",""3458""
","
","""event"",""trial"",""time""
""focus"",""0"",""654""
","""event"",""trial"",""time""
""fullscreenenter"",""0"",""3458""
","
",null,"<div style=""font-size:60px;"">+</div>",NA,null,fixation,2020-06-12T19:02:06Z,NA,NA,NA,NA,NA,sub42
NA,mars-trial,74,324432,0.0-10.0-1.30,"""event"",""trial"",""time""
""focus"",""0"",""654""
""fullscreenenter"",""0"",""3458""
","
","""event"",""trial"",""time""
""focus"",""0"",""654""
","""event"",""trial"",""time""
""fullscreenenter"",""0"",""3458""
","
",2471,<img style='border: 4px solid darkgrey;' src='img/tf1_31_M_ss3.jpeg'></img>,2,NA,exp,NA,3,<img src='img/tf1_31_T1_ss3_md.jpeg'></img>,0,FALSE,NA,sub42
NA,html-keyboard-response,75,324934,0.0-10.0-0.31,"""event"",""trial"",""time""
""focus"",""0"",""654""
""fullscreenenter"",""0"",""3458""
","
","""event"",""trial"",""time""
""focus"",""0"",""654""
","""event"",""trial"",""time""
""fullscreenenter"",""0"",""3458""
","
",null,"<div style=""font-size:60px;"">+</div>",NA,null,fixation,2020-06-12T19:02:10Z,NA,NA,NA,NA,NA,sub42
NA,mars-trial,76,327504,0.0-10.0-1.31,"""event"",""trial"",""time""
""focus"",""0"",""654""
""fullscreenenter"",""0"",""3458""
","
","""event"",""trial"",""time""
""focus"",""0"",""654""
","""event"",""trial"",""time""
""fullscreenenter"",""0"",""3458""
","
",1968,<img style='border: 4px solid darkgrey;' src='img/tf1_32_M_ss1.jpeg'></img>,0,NA,exp,NA,2,<img src='img/tf1_32_T1_ss1_md.jpeg'></img>,0,FALSE,NA,sub42
NA,html-keyboard-response,77,328005,0.0-10.0-0.32,"""event"",""trial"",""time""
""focus"",""0"",""654""
""fullscreenenter"",""0"",""3458""
","
","""event"",""trial"",""time""
""focus"",""0"",""654""
","""event"",""trial"",""time""
""fullscreenenter"",""0"",""3458""
","
",null,"<div style=""font-size:60px;"">+</div>",NA,null,fixation,2020-06-12T19:02:13Z,NA,NA,NA,NA,NA,sub42
NA,mars-trial,78,337999,0.0-10.0-1.32,"""event"",""trial"",""time""
""focus"",""0"",""654""
""fullscreenenter"",""0"",""3458""
","
","""event"",""trial"",""time""
""focus"",""0"",""654""
","""event"",""trial"",""time""
""fullscreenenter"",""0"",""3458""
","
",9390.000000000058,<img style='border: 4px solid darkgrey;' src='img/tf1_33_M_ss2.jpeg'></img>,1,NA,exp,NA,0,<img src='img/tf1_33_T1_ss2_md.jpeg'></img>,0,TRUE,NA,sub42
NA,html-keyboard-response,79,338501,0.0-10.0-0.33,"""event"",""trial"",""time""
""focus"",""0"",""654""
""fullscreenenter"",""0"",""3458""
","
","""event"",""trial"",""time""
""focus"",""0"",""654""
","""event"",""trial"",""time""
""fullscreenenter"",""0"",""3458""
","
",null,"<div style=""font-size:60px;"">+</div>",NA,null,fixation,2020-06-12T19:02:23Z,NA,NA,NA,NA,NA,sub42
NA,mars-trial,80,340654,0.0-10.0-1.33,"""event"",""trial"",""time""
""focus"",""0"",""654""
""fullscreenenter"",""0"",""3458""
","
","""event"",""trial"",""time""
""focus"",""0"",""654""
","""event"",""trial"",""time""
""fullscreenenter"",""0"",""3458""
","
",1549,<img style='border: 4px solid darkgrey;' src='img/tf1_34_M_ss3.jpeg'></img>,1,NA,exp,NA,3,<img src='img/tf1_34_T1_ss3_md.jpeg'></img>,0,FALSE,NA,sub42
NA,html-keyboard-response,81,341156,0.0-10.0-0.34,"""event"",""trial"",""time""
""focus"",""0"",""654""
""fullscreenenter"",""0"",""3458""
","
","""event"",""trial"",""time""
""focus"",""0"",""654""
","""event"",""trial"",""time""
""fullscreenenter"",""0"",""3458""
","
",null,"<div style=""font-size:60px;"">+</div>",NA,null,fixation,2020-06-12T19:02:26Z,NA,NA,NA,NA,NA,sub42
NA,mars-trial,82,349637,0.0-10.0-1.34,"""event"",""trial"",""time""
""focus"",""0"",""654""
""fullscreenenter"",""0"",""3458""
","
","""event"",""trial"",""time""
""focus"",""0"",""654""
","""event"",""trial"",""time""
""fullscreenenter"",""0"",""3458""
","
",7877,<img style='border: 4px solid darkgrey;' src='img/tf1_35_M_ss1.jpeg'></img>,1,NA,exp,NA,0,<img src='img/tf1_35_T1_ss1_md.jpeg'></img>,0,TRUE,NA,sub42
NA,html-keyboard-response,83,350139,0.0-10.0-0.35,"""event"",""trial"",""time""
""focus"",""0"",""654""
""fullscreenenter"",""0"",""3458""
","
","""event"",""trial"",""time""
""focus"",""0"",""654""
","""event"",""trial"",""time""
""fullscreenenter"",""0"",""3458""
","
",null,"<div style=""font-size:60px;"">+</div>",NA,null,fixation,2020-06-12T19:02:35Z,NA,NA,NA,NA,NA,sub42
NA,mars-trial,84,365470,0.0-10.0-1.35,"""event"",""trial"",""time""
""focus"",""0"",""654""
""fullscreenenter"",""0"",""3458""
","
","""event"",""trial"",""time""
""focus"",""0"",""654""
","""event"",""trial"",""time""
""fullscreenenter"",""0"",""3458""
","
",14727.000000000058,<img style='border: 4px solid darkgrey;' src='img/tf1_36_M_ss2.jpeg'></img>,1,NA,exp,NA,0,<img src='img/tf1_36_T1_ss2_md.jpeg'></img>,0,TRUE,NA,sub42
NA,html-keyboard-response,85,365971,0.0-10.0-0.36,"""event"",""trial"",""time""
""focus"",""0"",""654""
""fullscreenenter"",""0"",""3458""
","
","""event"",""trial"",""time""
""focus"",""0"",""654""
","""event"",""trial"",""time""
""fullscreenenter"",""0"",""3458""
","
",null,"<div style=""font-size:60px;"">+</div>",NA,null,fixation,2020-06-12T19:02:51Z,NA,NA,NA,NA,NA,sub42
NA,mars-trial,86,369887,0.0-10.0-1.36,"""event"",""trial"",""time""
""focus"",""0"",""654""
""fullscreenenter"",""0"",""3458""
","
","""event"",""trial"",""time""
""focus"",""0"",""654""
","""event"",""trial"",""time""
""fullscreenenter"",""0"",""3458""
","
",3312,<img style='border: 4px solid darkgrey;' src='img/tf1_37_M_ss3.jpeg'></img>,0,NA,exp,NA,0,<img src='img/tf1_37_T1_ss3_md.jpeg'></img>,0,TRUE,NA,sub42
NA,html-keyboard-response,87,370388,0.0-10.0-0.37,"""event"",""trial"",""time""
""focus"",""0"",""654""
""fullscreenenter"",""0"",""3458""
","
","""event"",""trial"",""time""
""focus"",""0"",""654""
","""event"",""trial"",""time""
""fullscreenenter"",""0"",""3458""
","
",null,"<div style=""font-size:60px;"">+</div>",NA,null,fixation,2020-06-12T19:02:55Z,NA,NA,NA,NA,NA,sub42
NA,mars-trial,88,376175,0.0-10.0-1.37,"""event"",""trial"",""time""
""focus"",""0"",""654""
""fullscreenenter"",""0"",""3458""
","
","""event"",""trial"",""time""
""focus"",""0"",""654""
","""event"",""trial"",""time""
""fullscreenenter"",""0"",""3458""
","
",5184,<img style='border: 4px solid darkgrey;' src='img/tf1_38_M_ss1.jpeg'></img>,0,NA,exp,NA,0,<img src='img/tf1_38_T1_ss1_md.jpeg'></img>,0,TRUE,NA,sub42
NA,html-keyboard-response,89,376678,0.0-10.0-0.38,"""event"",""trial"",""time""
""focus"",""0"",""654""
""fullscreenenter"",""0"",""3458""
","
","""event"",""trial"",""time""
""focus"",""0"",""654""
","""event"",""trial"",""time""
""fullscreenenter"",""0"",""3458""
","
",null,"<div style=""font-size:60px;"">+</div>",NA,null,fixation,2020-06-12T19:03:02Z,NA,NA,NA,NA,NA,sub42
NA,mars-trial,90,378934,0.0-10.0-1.38,"""event"",""trial"",""time""
""focus"",""0"",""654""
""fullscreenenter"",""0"",""3458""
","
","""event"",""trial"",""time""
""focus"",""0"",""654""
","""event"",""trial"",""time""
""fullscreenenter"",""0"",""3458""
","
",1652.0000000000582,<img style='border: 4px solid darkgrey;' src='img/tf1_39_M_ss2.jpeg'></img>,2,NA,exp,NA,2,<img src='img/tf1_39_T1_ss2_md.jpeg'></img>,0,FALSE,NA,sub42
NA,html-keyboard-response,91,379437,0.0-10.0-0.39,"""event"",""trial"",""time""
""focus"",""0"",""654""
""fullscreenenter"",""0"",""3458""
","
","""event"",""trial"",""time""
""focus"",""0"",""654""
","""event"",""trial"",""time""
""fullscreenenter"",""0"",""3458""
","
",null,"<div style=""font-size:60px;"">+</div>",NA,null,fixation,2020-06-12T19:03:04Z,NA,NA,NA,NA,NA,sub42
NA,mars-trial,92,387768,0.0-10.0-1.39,"""event"",""trial"",""time""
""focus"",""0"",""654""
""fullscreenenter"",""0"",""3458""
","
","""event"",""trial"",""time""
""focus"",""0"",""654""
","""event"",""trial"",""time""
""fullscreenenter"",""0"",""3458""
","
",7728,<img style='border: 4px solid darkgrey;' src='img/tf1_40_M_ss3.jpeg'></img>,3,NA,exp,NA,3,<img src='img/tf1_40_T1_ss3_md.jpeg'></img>,0,FALSE,NA,sub42
NA,html-keyboard-response,93,388270,0.0-10.0-0.40,"""event"",""trial"",""time""
""focus"",""0"",""654""
""fullscreenenter"",""0"",""3458""
","
","""event"",""trial"",""time""
""focus"",""0"",""654""
","""event"",""trial"",""time""
""fullscreenenter"",""0"",""3458""
","
",null,"<div style=""font-size:60px;"">+</div>",NA,null,fixation,2020-06-12T19:03:13Z,NA,NA,NA,NA,NA,sub42
NA,mars-trial,94,392214,0.0-10.0-1.40,"""event"",""trial"",""time""
""focus"",""0"",""654""
""fullscreenenter"",""0"",""3458""
","
","""event"",""trial"",""time""
""focus"",""0"",""654""
","""event"",""trial"",""time""
""fullscreenenter"",""0"",""3458""
","
",3339,<img style='border: 4px solid darkgrey;' src='img/tf1_41_M_ss1.jpeg'></img>,3,NA,exp,NA,0,<img src='img/tf1_41_T1_ss1_md.jpeg'></img>,0,TRUE,NA,sub42
NA,html-keyboard-response,95,392716,0.0-10.0-0.41,"""event"",""trial"",""time""
""focus"",""0"",""654""
""fullscreenenter"",""0"",""3458""
","
","""event"",""trial"",""time""
""focus"",""0"",""654""
","""event"",""trial"",""time""
""fullscreenenter"",""0"",""3458""
","
",null,"<div style=""font-size:60px;"">+</div>",NA,null,fixation,2020-06-12T19:03:18Z,NA,NA,NA,NA,NA,sub42
NA,mars-trial,96,404962,0.0-10.0-1.41,"""event"",""trial"",""time""
""focus"",""0"",""654""
""fullscreenenter"",""0"",""3458""
","
","""event"",""trial"",""time""
""focus"",""0"",""654""
","""event"",""trial"",""time""
""fullscreenenter"",""0"",""3458""
","
",11643,<img style='border: 4px solid darkgrey;' src='img/tf1_42_M_ss2.jpeg'></img>,3,NA,exp,NA,3,<img src='img/tf1_42_T1_ss2_md.jpeg'></img>,0,FALSE,NA,sub42
NA,html-keyboard-response,97,405463,0.0-10.0-0.42,"""event"",""trial"",""time""
""focus"",""0"",""654""
""fullscreenenter"",""0"",""3458""
","
","""event"",""trial"",""time""
""focus"",""0"",""654""
","""event"",""trial"",""time""
""fullscreenenter"",""0"",""3458""
","
",null,"<div style=""font-size:60px;"">+</div>",NA,null,fixation,2020-06-12T19:03:30Z,NA,NA,NA,NA,NA,sub42
NA,mars-trial,98,408866,0.0-10.0-1.42,"""event"",""trial"",""time""
""focus"",""0"",""654""
""fullscreenenter"",""0"",""3458""
","
","""event"",""trial"",""time""
""focus"",""0"",""654""
","""event"",""trial"",""time""
""fullscreenenter"",""0"",""3458""
","
",2799,<img style='border: 4px solid darkgrey;' src='img/tf1_43_M_ss3.jpeg'></img>,0,NA,exp,NA,1,<img src='img/tf1_43_T1_ss3_md.jpeg'></img>,0,FALSE,NA,sub42
NA,html-keyboard-response,99,409368,0.0-10.0-0.43,"""event"",""trial"",""time""
""focus"",""0"",""654""
""fullscreenenter"",""0"",""3458""
","
","""event"",""trial"",""time""
""focus"",""0"",""654""
","""event"",""trial"",""time""
""fullscreenenter"",""0"",""3458""
","
",null,"<div style=""font-size:60px;"">+</div>",NA,null,fixation,2020-06-12T19:03:34Z,NA,NA,NA,NA,NA,sub42
NA,mars-trial,100,410335,0.0-10.0-1.43,"""event"",""trial"",""time""
""focus"",""0"",""654""
""fullscreenenter"",""0"",""3458""
","
","""event"",""trial"",""time""
""focus"",""0"",""654""
","""event"",""trial"",""time""
""fullscreenenter"",""0"",""3458""
","
",365,<img style='border: 4px solid darkgrey;' src='img/tf1_44_M_ss1.jpeg'></img>,2,NA,exp,NA,0,<img src='img/tf1_44_T1_ss1_md.jpeg'></img>,0,TRUE,NA,sub42
NA,html-keyboard-response,101,410836,0.0-10.0-0.44,"""event"",""trial"",""time""
""focus"",""0"",""654""
""fullscreenenter"",""0"",""3458""
","
","""event"",""trial"",""time""
""focus"",""0"",""654""
","""event"",""trial"",""time""
""fullscreenenter"",""0"",""3458""
","
",null,"<div style=""font-size:60px;"">+</div>",NA,null,fixation,2020-06-12T19:03:36Z,NA,NA,NA,NA,NA,sub42
NA,mars-trial,102,419769,0.0-10.0-1.44,"""event"",""trial"",""time""
""focus"",""0"",""654""
""fullscreenenter"",""0"",""3458""
","
","""event"",""trial"",""time""
""focus"",""0"",""654""
","""event"",""trial"",""time""
""fullscreenenter"",""0"",""3458""
","
",8328,<img style='border: 4px solid darkgrey;' src='img/tf1_45_M_ss2.jpeg'></img>,1,NA,exp,NA,0,<img src='img/tf1_45_T1_ss2_md.jpeg'></img>,0,TRUE,NA,sub42
NA,html-keyboard-response,103,420269,0.0-10.0-0.45,"""event"",""trial"",""time""
""focus"",""0"",""654""
""fullscreenenter"",""0"",""3458""
","
","""event"",""trial"",""time""
""focus"",""0"",""654""
","""event"",""trial"",""time""
""fullscreenenter"",""0"",""3458""
","
",null,"<div style=""font-size:60px;"">+</div>",NA,null,fixation,2020-06-12T19:03:45Z,NA,NA,NA,NA,NA,sub42
NA,mars-trial,104,432984,0.0-10.0-1.45,"""event"",""trial"",""time""
""focus"",""0"",""654""
""fullscreenenter"",""0"",""3458""
","
","""event"",""trial"",""time""
""focus"",""0"",""654""
","""event"",""trial"",""time""
""fullscreenenter"",""0"",""3458""
","
",12111,<img style='border: 4px solid darkgrey;' src='img/tf1_46_M_ss3.jpeg'></img>,1,NA,exp,NA,0,<img src='img/tf1_46_T1_ss3_md.jpeg'></img>,0,TRUE,NA,sub42
NA,html-keyboard-response,105,433486,0.0-10.0-0.46,"""event"",""trial"",""time""
""focus"",""0"",""654""
""fullscreenenter"",""0"",""3458""
","
","""event"",""trial"",""time""
""focus"",""0"",""654""
","""event"",""trial"",""time""
""fullscreenenter"",""0"",""3458""
","
",null,"<div style=""font-size:60px;"">+</div>",NA,null,fixation,2020-06-12T19:03:58Z,NA,NA,NA,NA,NA,sub42
NA,mars-trial,106,438760,0.0-10.0-1.46,"""event"",""trial"",""time""
""focus"",""0"",""654""
""fullscreenenter"",""0"",""3458""
","
","""event"",""trial"",""time""
""focus"",""0"",""654""
","""event"",""trial"",""time""
""fullscreenenter"",""0"",""3458""
","
",4670,<img style='border: 4px solid darkgrey;' src='img/tf1_47_M_ss1.jpeg'></img>,2,NA,exp,NA,2,<img src='img/tf1_47_T1_ss1_md.jpeg'></img>,0,FALSE,NA,sub42
NA,html-keyboard-response,107,439261,0.0-10.0-0.47,"""event"",""trial"",""time""
""focus"",""0"",""654""
""fullscreenenter"",""0"",""3458""
","
","""event"",""trial"",""time""
""focus"",""0"",""654""
","""event"",""trial"",""time""
""fullscreenenter"",""0"",""3458""
","
",null,"<div style=""font-size:60px;"">+</div>",NA,null,fixation,2020-06-12T19:04:04Z,NA,NA,NA,NA,NA,sub42
NA,mars-trial,108,440537,0.0-10.0-1.47,"""event"",""trial"",""time""
""focus"",""0"",""654""
""fullscreenenter"",""0"",""3458""
","
","""event"",""trial"",""time""
""focus"",""0"",""654""
","""event"",""trial"",""time""
""fullscreenenter"",""0"",""3458""
","
",673,<img style='border: 4px solid darkgrey;' src='img/tf1_48_M_ss2.jpeg'></img>,1,NA,exp,NA,3,<img src='img/tf1_48_T1_ss2_md.jpeg'></img>,0,FALSE,NA,sub42
NA,html-keyboard-response,109,441038,0.0-10.0-0.48,"""event"",""trial"",""time""
""focus"",""0"",""654""
""fullscreenenter"",""0"",""3458""
","
","""event"",""trial"",""time""
""focus"",""0"",""654""
","""event"",""trial"",""time""
""fullscreenenter"",""0"",""3458""
","
",null,"<div style=""font-size:60px;"">+</div>",NA,null,fixation,2020-06-12T19:04:06Z,NA,NA,NA,NA,NA,sub42
NA,mars-trial,110,442138,0.0-10.0-1.48,"""event"",""trial"",""time""
""focus"",""0"",""654""
""fullscreenenter"",""0"",""3458""
","
","""event"",""trial"",""time""
""focus"",""0"",""654""
","""event"",""trial"",""time""
""fullscreenenter"",""0"",""3458""
","
",497,<img style='border: 4px solid darkgrey;' src='img/tf1_49_M_ss3.jpeg'></img>,3,NA,exp,NA,1,<img src='img/tf1_49_T1_ss3_md.jpeg'></img>,0,FALSE,NA,sub42
NA,html-keyboard-response,111,442639,0.0-10.0-0.49,"""event"",""trial"",""time""
""focus"",""0"",""654""
""fullscreenenter"",""0"",""3458""
","
","""event"",""trial"",""time""
""focus"",""0"",""654""
","""event"",""trial"",""time""
""fullscreenenter"",""0"",""3458""
","
",null,"<div style=""font-size:60px;"">+</div>",NA,null,fixation,2020-06-12T19:04:08Z,NA,NA,NA,NA,NA,sub42
NA,mars-trial,112,450614,0.0-10.0-1.49,"""event"",""trial"",""time""
""focus"",""0"",""654""
""fullscreenenter"",""0"",""3458""
","
","""event"",""trial"",""time""
""focus"",""0"",""654""
","""event"",""trial"",""time""
""fullscreenenter"",""0"",""3458""
","
",7372,<img style='border: 4px solid darkgrey;' src='img/tf1_50_M_ss1.jpeg'></img>,0,NA,exp,NA,0,<img src='img/tf1_50_T1_ss1_md.jpeg'></img>,0,TRUE,NA,sub42
NA,html-keyboard-response,113,451116,0.0-10.0-0.50,"""event"",""trial"",""time""
""focus"",""0"",""654""
""fullscreenenter"",""0"",""3458""
","
","""event"",""trial"",""time""
""focus"",""0"",""654""
","""event"",""trial"",""time""
""fullscreenenter"",""0"",""3458""
","
",null,"<div style=""font-size:60px;"">+</div>",NA,null,fixation,2020-06-12T19:04:16Z,NA,NA,NA,NA,NA,sub42
NA,mars-trial,114,462561,0.0-10.0-1.50,"""event"",""trial"",""time""
""focus"",""0"",""654""
""fullscreenenter"",""0"",""3458""
","
","""event"",""trial"",""time""
""focus"",""0"",""654""
","""event"",""trial"",""time""
""fullscreenenter"",""0"",""3458""
","
",10841,<img style='border: 4px solid darkgrey;' src='img/tf1_51_M_ss2.jpeg'></img>,0,NA,exp,NA,0,<img src='img/tf1_51_T1_ss2_md.jpeg'></img>,0,TRUE,NA,sub42
NA,html-keyboard-response,115,463061,0.0-10.0-0.51,"""event"",""trial"",""time""
""focus"",""0"",""654""
""fullscreenenter"",""0"",""3458""
","
","""event"",""trial"",""time""
""focus"",""0"",""654""
","""event"",""trial"",""time""
""fullscreenenter"",""0"",""3458""
","
",null,"<div style=""font-size:60px;"">+</div>",NA,null,fixation,2020-06-12T19:04:28Z,NA,NA,NA,NA,NA,sub42
NA,mars-trial,116,466705,0.0-10.0-1.51,"""event"",""trial"",""time""
""focus"",""0"",""654""
""fullscreenenter"",""0"",""3458""
","
","""event"",""trial"",""time""
""focus"",""0"",""654""
","""event"",""trial"",""time""
""fullscreenenter"",""0"",""3458""
","
",3042,<img style='border: 4px solid darkgrey;' src='img/tf1_52_M_ss3.jpeg'></img>,0,NA,exp,NA,0,<img src='img/tf1_52_T1_ss3_md.jpeg'></img>,0,TRUE,NA,sub42
NA,html-keyboard-response,117,467207,0.0-10.0-0.52,"""event"",""trial"",""time""
""focus"",""0"",""654""
""fullscreenenter"",""0"",""3458""
","
","""event"",""trial"",""time""
""focus"",""0"",""654""
","""event"",""trial"",""time""
""fullscreenenter"",""0"",""3458""
","
",null,"<div style=""font-size:60px;"">+</div>",NA,null,fixation,2020-06-12T19:04:32Z,NA,NA,NA,NA,NA,sub42
NA,mars-trial,118,469212,0.0-10.0-1.52,"""event"",""trial"",""time""
""focus"",""0"",""654""
""fullscreenenter"",""0"",""3458""
","
","""event"",""trial"",""time""
""focus"",""0"",""654""
","""event"",""trial"",""time""
""fullscreenenter"",""0"",""3458""
","
",1402,<img style='border: 4px solid darkgrey;' src='img/tf1_53_M_ss1.jpeg'></img>,1,NA,exp,NA,1,<img src='img/tf1_53_T1_ss1_md.jpeg'></img>,0,FALSE,NA,sub42
NA,html-keyboard-response,119,469713,0.0-10.0-0.53,"""event"",""trial"",""time""
""focus"",""0"",""654""
""fullscreenenter"",""0"",""3458""
","
","""event"",""trial"",""time""
""focus"",""0"",""654""
","""event"",""trial"",""time""
""fullscreenenter"",""0"",""3458""
","
",null,"<div style=""font-size:60px;"">+</div>",NA,null,fixation,2020-06-12T19:04:35Z,NA,NA,NA,NA,NA,sub42
NA,mars-trial,120,482382,0.0-10.0-1.53,"""event"",""trial"",""time""
""focus"",""0"",""654""
""fullscreenenter"",""0"",""3458""
","
","""event"",""trial"",""time""
""focus"",""0"",""654""
","""event"",""trial"",""time""
""fullscreenenter"",""0"",""3458""
","
",12066.000000000058,<img style='border: 4px solid darkgrey;' src='img/tf1_54_M_ss2.jpeg'></img>,0,NA,exp,NA,0,<img src='img/tf1_54_T1_ss2_md.jpeg'></img>,0,TRUE,NA,sub42
NA,html-keyboard-response,121,482883,0.0-10.0-0.54,"""event"",""trial"",""time""
""focus"",""0"",""654""
""fullscreenenter"",""0"",""3458""
","
","""event"",""trial"",""time""
""focus"",""0"",""654""
","""event"",""trial"",""time""
""fullscreenenter"",""0"",""3458""
","
",null,"<div style=""font-size:60px;"">+</div>",NA,null,fixation,2020-06-12T19:04:48Z,NA,NA,NA,NA,NA,sub42
NA,mars-trial,122,485162,0.0-10.0-1.54,"""event"",""trial"",""time""
""focus"",""0"",""654""
""fullscreenenter"",""0"",""3458""
","
","""event"",""trial"",""time""
""focus"",""0"",""654""
","""event"",""trial"",""time""
""fullscreenenter"",""0"",""3458""
","
",1676,<img style='border: 4px solid darkgrey;' src='img/tf1_55_M_ss3.jpeg'></img>,2,NA,exp,NA,3,<img src='img/tf1_55_T1_ss3_md.jpeg'></img>,0,FALSE,NA,sub42
NA,html-keyboard-response,123,485663,0.0-10.0-0.55,"""event"",""trial"",""time""
""focus"",""0"",""654""
""fullscreenenter"",""0"",""3458""
","
","""event"",""trial"",""time""
""focus"",""0"",""654""
","""event"",""trial"",""time""
""fullscreenenter"",""0"",""3458""
","
",null,"<div style=""font-size:60px;"">+</div>",NA,null,fixation,2020-06-12T19:04:51Z,NA,NA,NA,NA,NA,sub42
NA,mars-trial,124,493083,0.0-10.0-1.55,"""event"",""trial"",""time""
""focus"",""0"",""654""
""fullscreenenter"",""0"",""3458""
","
","""event"",""trial"",""time""
""focus"",""0"",""654""
","""event"",""trial"",""time""
""fullscreenenter"",""0"",""3458""
","
",6816,<img style='border: 4px solid darkgrey;' src='img/tf1_56_M_ss1.jpeg'></img>,0,NA,exp,NA,3,<img src='img/tf1_56_T1_ss1_md.jpeg'></img>,0,FALSE,NA,sub42
NA,html-keyboard-response,125,493585,0.0-10.0-0.56,"""event"",""trial"",""time""
""focus"",""0"",""654""
""fullscreenenter"",""0"",""3458""
","
","""event"",""trial"",""time""
""focus"",""0"",""654""
","""event"",""trial"",""time""
""fullscreenenter"",""0"",""3458""
","
",null,"<div style=""font-size:60px;"">+</div>",NA,null,fixation,2020-06-12T19:04:59Z,NA,NA,NA,NA,NA,sub42
NA,mars-trial,126,504302,0.0-10.0-1.56,"""event"",""trial"",""time""
""focus"",""0"",""654""
""fullscreenenter"",""0"",""3458""
","
","""event"",""trial"",""time""
""focus"",""0"",""654""
","""event"",""trial"",""time""
""fullscreenenter"",""0"",""3458""
","
",10113,<img style='border: 4px solid darkgrey;' src='img/tf1_57_M_ss2.jpeg'></img>,3,NA,exp,NA,0,<img src='img/tf1_57_T1_ss2_md.jpeg'></img>,0,TRUE,NA,sub42
NA,html-keyboard-response,127,504803,0.0-10.0-0.57,"""event"",""trial"",""time""
""focus"",""0"",""654""
""fullscreenenter"",""0"",""3458""
","
","""event"",""trial"",""time""
""focus"",""0"",""654""
","""event"",""trial"",""time""
""fullscreenenter"",""0"",""3458""
","
",null,"<div style=""font-size:60px;"">+</div>",NA,null,fixation,2020-06-12T19:05:10Z,NA,NA,NA,NA,NA,sub42
NA,mars-trial,128,512455,0.0-10.0-1.57,"""event"",""trial"",""time""
""focus"",""0"",""654""
""fullscreenenter"",""0"",""3458""
","
","""event"",""trial"",""time""
""focus"",""0"",""654""
","""event"",""trial"",""time""
""fullscreenenter"",""0"",""3458""
","
",7048.999999999884,<img style='border: 4px solid darkgrey;' src='img/tf1_58_M_ss3.jpeg'></img>,2,NA,exp,NA,3,<img src='img/tf1_58_T1_ss3_md.jpeg'></img>,0,FALSE,NA,sub42
NA,html-keyboard-response,129,512957,0.0-10.0-0.58,"""event"",""trial"",""time""
""focus"",""0"",""654""
""fullscreenenter"",""0"",""3458""
","
","""event"",""trial"",""time""
""focus"",""0"",""654""
","""event"",""trial"",""time""
""fullscreenenter"",""0"",""3458""
","
",null,"<div style=""font-size:60px;"">+</div>",NA,null,fixation,2020-06-12T19:05:18Z,NA,NA,NA,NA,NA,sub42
NA,mars-trial,130,517899,0.0-10.0-1.58,"""event"",""trial"",""time""
""focus"",""0"",""654""
""fullscreenenter"",""0"",""3458""
","
","""event"",""trial"",""time""
""focus"",""0"",""654""
","""event"",""trial"",""time""
""fullscreenenter"",""0"",""3458""
","
",4338.000000000058,<img style='border: 4px solid darkgrey;' src='img/tf1_59_M_ss1.jpeg'></img>,2,NA,exp,NA,2,<img src='img/tf1_59_T1_ss1_md.jpeg'></img>,0,FALSE,NA,sub42
NA,html-keyboard-response,131,518401,0.0-10.0-0.59,"""event"",""trial"",""time""
""focus"",""0"",""654""
""fullscreenenter"",""0"",""3458""
","
","""event"",""trial"",""time""
""focus"",""0"",""654""
","""event"",""trial"",""time""
""fullscreenenter"",""0"",""3458""
","
",null,"<div style=""font-size:60px;"">+</div>",NA,null,fixation,2020-06-12T19:05:23Z,NA,NA,NA,NA,NA,sub42
NA,mars-trial,132,523389,0.0-10.0-1.59,"""event"",""trial"",""time""
""focus"",""0"",""654""
""fullscreenenter"",""0"",""3458""
","
","""event"",""trial"",""time""
""focus"",""0"",""654""
","""event"",""trial"",""time""
""fullscreenenter"",""0"",""3458""
","
",NA,NA,NA,NA,exp,NA,NA,<img src='img/tf1_60_T1_ss2_md.jpeg'></img>,0,FALSE,NA,sub42
NA,html-keyboard-response,133,523891,0.0-10.0-0.60,"""event"",""trial"",""time""
""focus"",""0"",""654""
""fullscreenenter"",""0"",""3458""
","
","""event"",""trial"",""time""
""focus"",""0"",""654""
","""event"",""trial"",""time""
""fullscreenenter"",""0"",""3458""
","
",null,"<div style=""font-size:60px;"">+</div>",NA,null,fixation,2020-06-12T19:05:29Z,NA,NA,NA,NA,NA,sub42
NA,audio-button-response,134,526688,0.0-11.0,"""event"",""trial"",""time""
""focus"",""0"",""654""
""fullscreenenter"",""0"",""3458""
","
","""event"",""trial"",""time""
""focus"",""0"",""654""
","""event"",""trial"",""time""
""fullscreenenter"",""0"",""3458""
","
",2696,audio/mars_instructions_slide5.wav,0,NA,NA,NA,NA,NA,NA,NA,NA,sub42
