success,trial_type,trial_index,time_elapsed,internal_node_id,interactions,blur_events,focus_events,fullscreenenter_events,fullscreenexit_events,rt,stimulus,button_pressed,key_press,part,timestamp,unshuffled_button,correct_response,correct_button,correct,value,subject_id
TRUE,fullscreen,0,3907,0.0-0.0,"""event"",""trial"",""time""
""fullscreenenter"",""0"",""2944""
","
","
","""event"",""trial"",""time""
""fullscreenenter"",""0"",""2944""
","
",NA,NA,NA,NA,NA,NA,NA,NA,NA,NA,NA,sub34
NA,pavlovia,1,3917,0.0-1.0,"""event"",""trial"",""time""
""fullscreenenter"",""0"",""2944""
","
","
","""event"",""trial"",""time""
""fullscreenenter"",""0"",""2944""
","
",NA,NA,NA,NA,NA,NA,NA,NA,NA,NA,NA,sub34
NA,html-button-response,2,6411,0.0-2.0,"""event"",""trial"",""time""
""fullscreenenter"",""0"",""2944""
","
","
","""event"",""trial"",""time""
""fullscreenenter"",""0"",""2944""
","
",2482.5000000018917,<p>Welcome! Press START to begin.</p><br>,0,NA,NA,NA,NA,NA,NA,NA,NA,sub34
NA,audio-button-response,3,21449,0.0-3.0,"""event"",""trial"",""time""
""fullscreenenter"",""0"",""2944""
","
","
","""event"",""trial"",""time""
""fullscreenenter"",""0"",""2944""
","
",15034.700000000157,audio/mars_instructions_slide2.wav,0,NA,NA,NA,NA,NA,NA,NA,NA,sub34
NA,audio-button-response,4,38376,0.0-4.0,"""event"",""trial"",""time""
""fullscreenenter"",""0"",""2944""
","
","
","""event"",""trial"",""time""
""fullscreenenter"",""0"",""2944""
","
",16925.609999998414,audio/mars_instructions_slide3.wav,0,NA,NA,NA,NA,NA,NA,NA,NA,sub34
NA,html-keyboard-response,5,38881,0.0-5.0-0.0,"""event"",""trial"",""time""
""fullscreenenter"",""0"",""2944""
","
","
","""event"",""trial"",""time""
""fullscreenenter"",""0"",""2944""
","
",null,"<div style=""font-size:60px;"">+</div>",NA,null,fixation,2020-06-10T21:48:03Z,NA,NA,NA,NA,NA,sub34
NA,mars-trial,6,47204,0.0-5.0-1.0,"""event"",""trial"",""time""
""fullscreenenter"",""0"",""2944""
","
","
","""event"",""trial"",""time""
""fullscreenenter"",""0"",""2944""
","
",6196.295000001555,<img style='border: 4px solid darkgrey;' src='practice/pt1_M1.png'></img>,3,NA,practice,NA,0,<img src='practice/pt1_T1.png'></img>,0,TRUE,NA,sub34
NA,html-keyboard-response,7,47728,0.0-6.0-0.0,"""event"",""trial"",""time""
""fullscreenenter"",""0"",""2944""
","
","
","""event"",""trial"",""time""
""fullscreenenter"",""0"",""2944""
","
",null,"<div style=""font-size:60px;"">+</div>",NA,null,fixation,2020-06-10T21:48:12Z,NA,NA,NA,NA,NA,sub34
NA,mars-trial,8,52357,0.0-6.0-1.0,"""event"",""trial"",""time""
""fullscreenenter"",""0"",""2944""
","
","
","""event"",""trial"",""time""
""fullscreenenter"",""0"",""2944""
","
",2516.4550000008603,<img style='border: 4px solid darkgrey;' src='practice/pt2_M1.png'></img>,1,NA,practice,NA,0,<img src='practice/pt2_T1.png'></img>,0,TRUE,NA,sub34
NA,html-keyboard-response,9,52861,0.0-7.0-0.0,"""event"",""trial"",""time""
""fullscreenenter"",""0"",""2944""
","
","
","""event"",""trial"",""time""
""fullscreenenter"",""0"",""2944""
","
",null,"<div style=""font-size:60px;"">+</div>",NA,null,fixation,2020-06-10T21:48:17Z,NA,NA,NA,NA,NA,sub34
NA,mars-trial,10,57679,0.0-7.0-1.0,"""event"",""trial"",""time""
""fullscreenenter"",""0"",""2944""
","
","
","""event"",""trial"",""time""
""fullscreenenter"",""0"",""2944""
","
",2706.9049999990966,<img style='border: 4px solid darkgrey;' src='practice/pt3_M1.png'></img>,1,NA,practice,NA,0,<img src='practice/pt3_T1.png'></img>,0,TRUE,NA,sub34
NA,audio-button-response,11,61815,0.0-8.0,"""event"",""trial"",""time""
""fullscreenenter"",""0"",""2944""
","
","
","""event"",""trial"",""time""
""fullscreenenter"",""0"",""2944""
","
",4132.004999999481,audio/mars_instructions_slide4.wav,0,NA,NA,NA,NA,NA,NA,NA,NA,sub34
NA,call-function,12,61817,0.0-9.0,"""event"",""trial"",""time""
""fullscreenenter"",""0"",""2944""
","
","
","""event"",""trial"",""time""
""fullscreenenter"",""0"",""2944""
","
",NA,NA,NA,NA,NA,NA,NA,NA,NA,NA,NA,sub34
NA,html-keyboard-response,13,62322,0.0-10.0-0.0,"""event"",""trial"",""time""
""fullscreenenter"",""0"",""2944""
","
","
","""event"",""trial"",""time""
""fullscreenenter"",""0"",""2944""
","
",null,"<div style=""font-size:60px;"">+</div>",NA,null,fixation,2020-06-10T21:48:27Z,NA,NA,NA,NA,NA,sub34
NA,mars-trial,14,64569,0.0-10.0-1.0,"""event"",""trial"",""time""
""fullscreenenter"",""0"",""2944""
","
","
","""event"",""trial"",""time""
""fullscreenenter"",""0"",""2944""
","
",1618.7250000002678,<img style='border: 4px solid darkgrey;' src='img/tf1_1_M_ss3.jpeg'></img>,1,NA,exp,NA,0,<img src='img/tf1_1_T1_ss3_md.jpeg'></img>,0,TRUE,NA,sub34
NA,html-keyboard-response,15,65082,0.0-10.0-0.1,"""event"",""trial"",""time""
""fullscreenenter"",""0"",""2944""
","
","
","""event"",""trial"",""time""
""fullscreenenter"",""0"",""2944""
","
",null,"<div style=""font-size:60px;"">+</div>",NA,null,fixation,2020-06-10T21:48:30Z,NA,NA,NA,NA,NA,sub34
NA,mars-trial,16,68318,0.0-10.0-1.1,"""event"",""trial"",""time""
""fullscreenenter"",""0"",""2944""
","
","
","""event"",""trial"",""time""
""fullscreenenter"",""0"",""2944""
","
",2615.399999998772,<img style='border: 4px solid darkgrey;' src='img/tf1_2_M_ss1.jpeg'></img>,3,NA,exp,NA,0,<img src='img/tf1_2_T1_ss1_md.jpeg'></img>,0,TRUE,NA,sub34
NA,html-keyboard-response,17,68824,0.0-10.0-0.2,"""event"",""trial"",""time""
""fullscreenenter"",""0"",""2944""
","
","
","""event"",""trial"",""time""
""fullscreenenter"",""0"",""2944""
","
",null,"<div style=""font-size:60px;"">+</div>",NA,null,fixation,2020-06-10T21:48:33Z,NA,NA,NA,NA,NA,sub34
NA,mars-trial,18,71550,0.0-10.0-1.2,"""event"",""trial"",""time""
""fullscreenenter"",""0"",""2944""
","
","
","""event"",""trial"",""time""
""fullscreenenter"",""0"",""2944""
","
",2078.0200000008335,<img style='border: 4px solid darkgrey;' src='img/tf1_3_M_ss2.jpeg'></img>,3,NA,exp,NA,0,<img src='img/tf1_3_T1_ss2_md.jpeg'></img>,0,TRUE,NA,sub34
NA,html-keyboard-response,19,72060,0.0-10.0-0.3,"""event"",""trial"",""time""
""fullscreenenter"",""0"",""2944""
","
","
","""event"",""trial"",""time""
""fullscreenenter"",""0"",""2944""
","
",null,"<div style=""font-size:60px;"">+</div>",NA,null,fixation,2020-06-10T21:48:36Z,NA,NA,NA,NA,NA,sub34
NA,mars-trial,20,75550,0.0-10.0-1.3,"""event"",""trial"",""time""
""fullscreenenter"",""0"",""2944""
","
","
","""event"",""trial"",""time""
""fullscreenenter"",""0"",""2944""
","
",2855.2249999993364,<img style='border: 4px solid darkgrey;' src='img/tf1_4_M_ss3.jpeg'></img>,2,NA,exp,NA,0,<img src='img/tf1_4_T1_ss3_md.jpeg'></img>,0,TRUE,NA,sub34
NA,html-keyboard-response,21,76071,0.0-10.0-0.4,"""event"",""trial"",""time""
""fullscreenenter"",""0"",""2944""
","
","
","""event"",""trial"",""time""
""fullscreenenter"",""0"",""2944""
","
",null,"<div style=""font-size:60px;"">+</div>",NA,null,fixation,2020-06-10T21:48:40Z,NA,NA,NA,NA,NA,sub34
NA,mars-trial,22,79058,0.0-10.0-1.4,"""event"",""trial"",""time""
""fullscreenenter"",""0"",""2944""
","
","
","""event"",""trial"",""time""
""fullscreenenter"",""0"",""2944""
","
",2370.179999998072,<img style='border: 4px solid darkgrey;' src='img/tf1_5_M_ss1.jpeg'></img>,2,NA,exp,NA,0,<img src='img/tf1_5_T1_ss1_md.jpeg'></img>,0,TRUE,NA,sub34
NA,html-keyboard-response,23,79570,0.0-10.0-0.5,"""event"",""trial"",""time""
""fullscreenenter"",""0"",""2944""
","
","
","""event"",""trial"",""time""
""fullscreenenter"",""0"",""2944""
","
",null,"<div style=""font-size:60px;"">+</div>",NA,null,fixation,2020-06-10T21:48:44Z,NA,NA,NA,NA,NA,sub34
NA,mars-trial,24,87914,0.0-10.0-1.5,"""event"",""trial"",""time""
""fullscreenenter"",""0"",""2944""
","
","
","""event"",""trial"",""time""
""fullscreenenter"",""0"",""2944""
","
",7715.495000000374,<img style='border: 4px solid darkgrey;' src='img/tf1_6_M_ss2.jpeg'></img>,1,NA,exp,NA,0,<img src='img/tf1_6_T1_ss2_md.jpeg'></img>,0,TRUE,NA,sub34
NA,html-keyboard-response,25,88435,0.0-10.0-0.6,"""event"",""trial"",""time""
""fullscreenenter"",""0"",""2944""
","
","
","""event"",""trial"",""time""
""fullscreenenter"",""0"",""2944""
","
",null,"<div style=""font-size:60px;"">+</div>",NA,null,fixation,2020-06-10T21:48:53Z,NA,NA,NA,NA,NA,sub34
NA,mars-trial,26,91642,0.0-10.0-1.6,"""event"",""trial"",""time""
""fullscreenenter"",""0"",""2944""
","
","
","""event"",""trial"",""time""
""fullscreenenter"",""0"",""2944""
","
",2594.7550000018964,<img style='border: 4px solid darkgrey;' src='img/tf1_7_M_ss3.jpeg'></img>,0,NA,exp,NA,0,<img src='img/tf1_7_T1_ss3_md.jpeg'></img>,0,TRUE,NA,sub34
NA,html-keyboard-response,27,92150,0.0-10.0-0.7,"""event"",""trial"",""time""
""fullscreenenter"",""0"",""2944""
","
","
","""event"",""trial"",""time""
""fullscreenenter"",""0"",""2944""
","
",null,"<div style=""font-size:60px;"">+</div>",NA,null,fixation,2020-06-10T21:48:57Z,NA,NA,NA,NA,NA,sub34
NA,mars-trial,28,100219,0.0-10.0-1.7,"""event"",""trial"",""time""
""fullscreenenter"",""0"",""2944""
","
","
","""event"",""trial"",""time""
""fullscreenenter"",""0"",""2944""
","
",7458.329999997659,<img style='border: 4px solid darkgrey;' src='img/tf1_8_M_ss1.jpeg'></img>,1,NA,exp,NA,0,<img src='img/tf1_8_T1_ss1_md.jpeg'></img>,0,TRUE,NA,sub34
NA,html-keyboard-response,29,100725,0.0-10.0-0.8,"""event"",""trial"",""time""
""fullscreenenter"",""0"",""2944""
","
","
","""event"",""trial"",""time""
""fullscreenenter"",""0"",""2944""
","
",null,"<div style=""font-size:60px;"">+</div>",NA,null,fixation,2020-06-10T21:49:05Z,NA,NA,NA,NA,NA,sub34
NA,mars-trial,30,108330,0.0-10.0-1.8,"""event"",""trial"",""time""
""fullscreenenter"",""0"",""2944""
","
","
","""event"",""trial"",""time""
""fullscreenenter"",""0"",""2944""
","
",6995.249999999942,<img style='border: 4px solid darkgrey;' src='img/tf1_9_M_ss2.jpeg'></img>,1,NA,exp,NA,0,<img src='img/tf1_9_T1_ss2_md.jpeg'></img>,0,TRUE,NA,sub34
NA,html-keyboard-response,31,108835,0.0-10.0-0.9,"""event"",""trial"",""time""
""fullscreenenter"",""0"",""2944""
","
","
","""event"",""trial"",""time""
""fullscreenenter"",""0"",""2944""
","
",null,"<div style=""font-size:60px;"">+</div>",NA,null,fixation,2020-06-10T21:49:13Z,NA,NA,NA,NA,NA,sub34
NA,mars-trial,32,116195,0.0-10.0-1.9,"""event"",""trial"",""time""
""fullscreenenter"",""0"",""2944""
","
","
","""event"",""trial"",""time""
""fullscreenenter"",""0"",""2944""
","
",6750.325000000885,<img style='border: 4px solid darkgrey;' src='img/tf1_10_M_ss3.jpeg'></img>,2,NA,exp,NA,1,<img src='img/tf1_10_T1_ss3_md.jpeg'></img>,0,FALSE,NA,sub34
NA,html-keyboard-response,33,116699,0.0-10.0-0.10,"""event"",""trial"",""time""
""fullscreenenter"",""0"",""2944""
","
","
","""event"",""trial"",""time""
""fullscreenenter"",""0"",""2944""
","
",null,"<div style=""font-size:60px;"">+</div>",NA,null,fixation,2020-06-10T21:49:21Z,NA,NA,NA,NA,NA,sub34
NA,mars-trial,34,130532,0.0-10.0-1.10,"""event"",""trial"",""time""
""fullscreenenter"",""0"",""2944""
","
","
","""event"",""trial"",""time""
""fullscreenenter"",""0"",""2944""
","
",13224.8150000014,<img style='border: 4px solid darkgrey;' src='img/tf1_11_M_ss1.jpeg'></img>,1,NA,exp,NA,3,<img src='img/tf1_11_T1_ss1_md.jpeg'></img>,0,FALSE,NA,sub34
NA,html-keyboard-response,35,131035,0.0-10.0-0.11,"""event"",""trial"",""time""
""fullscreenenter"",""0"",""2944""
","
","
","""event"",""trial"",""time""
""fullscreenenter"",""0"",""2944""
","
",null,"<div style=""font-size:60px;"">+</div>",NA,null,fixation,2020-06-10T21:49:35Z,NA,NA,NA,NA,NA,sub34
NA,mars-trial,36,136439,0.0-10.0-1.11,"""event"",""trial"",""time""
""fullscreenenter"",""0"",""2944""
","
","
","""event"",""trial"",""time""
""fullscreenenter"",""0"",""2944""
","
",4794.314999999187,<img style='border: 4px solid darkgrey;' src='img/tf1_12_M_ss2.jpeg'></img>,3,NA,exp,NA,1,<img src='img/tf1_12_T1_ss2_md.jpeg'></img>,0,FALSE,NA,sub34
NA,html-keyboard-response,37,136942,0.0-10.0-0.12,"""event"",""trial"",""time""
""fullscreenenter"",""0"",""2944""
","
","
","""event"",""trial"",""time""
""fullscreenenter"",""0"",""2944""
","
",null,"<div style=""font-size:60px;"">+</div>",NA,null,fixation,2020-06-10T21:49:41Z,NA,NA,NA,NA,NA,sub34
NA,mars-trial,38,149483,0.0-10.0-1.12,"""event"",""trial"",""time""
""fullscreenenter"",""0"",""2944""
","
","
","""event"",""trial"",""time""
""fullscreenenter"",""0"",""2944""
","
",11928.270000000339,<img style='border: 4px solid darkgrey;' src='img/tf1_13_M_ss3.jpeg'></img>,1,NA,exp,NA,3,<img src='img/tf1_13_T1_ss3_md.jpeg'></img>,0,FALSE,NA,sub34
NA,html-keyboard-response,39,149987,0.0-10.0-0.13,"""event"",""trial"",""time""
""fullscreenenter"",""0"",""2944""
","
","
","""event"",""trial"",""time""
""fullscreenenter"",""0"",""2944""
","
",null,"<div style=""font-size:60px;"">+</div>",NA,null,fixation,2020-06-10T21:49:54Z,NA,NA,NA,NA,NA,sub34
NA,mars-trial,40,155662,0.0-10.0-1.13,"""event"",""trial"",""time""
""fullscreenenter"",""0"",""2944""
","
","
","""event"",""trial"",""time""
""fullscreenenter"",""0"",""2944""
","
",5061.609999997017,<img style='border: 4px solid darkgrey;' src='img/tf1_14_M_ss1.jpeg'></img>,0,NA,exp,NA,0,<img src='img/tf1_14_T1_ss1_md.jpeg'></img>,0,TRUE,NA,sub34
NA,html-keyboard-response,41,156170,0.0-10.0-0.14,"""event"",""trial"",""time""
""fullscreenenter"",""0"",""2944""
","
","
","""event"",""trial"",""time""
""fullscreenenter"",""0"",""2944""
","
",null,"<div style=""font-size:60px;"">+</div>",NA,null,fixation,2020-06-10T21:50:01Z,NA,NA,NA,NA,NA,sub34
NA,mars-trial,42,163426,0.0-10.0-1.14,"""event"",""trial"",""time""
""fullscreenenter"",""0"",""2944""
","
","
","""event"",""trial"",""time""
""fullscreenenter"",""0"",""2944""
","
",6648.144999999204,<img style='border: 4px solid darkgrey;' src='img/tf1_15_M_ss2.jpeg'></img>,0,NA,exp,NA,2,<img src='img/tf1_15_T1_ss2_md.jpeg'></img>,0,FALSE,NA,sub34
NA,html-keyboard-response,43,163930,0.0-10.0-0.15,"""event"",""trial"",""time""
""fullscreenenter"",""0"",""2944""
","
","
","""event"",""trial"",""time""
""fullscreenenter"",""0"",""2944""
","
",null,"<div style=""font-size:60px;"">+</div>",NA,null,fixation,2020-06-10T21:50:08Z,NA,NA,NA,NA,NA,sub34
NA,mars-trial,44,171398,0.0-10.0-1.15,"""event"",""trial"",""time""
""fullscreenenter"",""0"",""2944""
","
","
","""event"",""trial"",""time""
""fullscreenenter"",""0"",""2944""
","
",6854.634999999689,<img style='border: 4px solid darkgrey;' src='img/tf1_16_M_ss3.jpeg'></img>,2,NA,exp,NA,0,<img src='img/tf1_16_T1_ss3_md.jpeg'></img>,0,TRUE,NA,sub34
NA,html-keyboard-response,45,171911,0.0-10.0-0.16,"""event"",""trial"",""time""
""fullscreenenter"",""0"",""2944""
","
","
","""event"",""trial"",""time""
""fullscreenenter"",""0"",""2944""
","
",null,"<div style=""font-size:60px;"">+</div>",NA,null,fixation,2020-06-10T21:50:16Z,NA,NA,NA,NA,NA,sub34
NA,mars-trial,46,183641,0.0-10.0-1.16,"""event"",""trial"",""time""
""fullscreenenter"",""0"",""2944""
","
","
","""event"",""trial"",""time""
""fullscreenenter"",""0"",""2944""
","
",11119.675000001735,<img style='border: 4px solid darkgrey;' src='img/tf1_17_M_ss1.jpeg'></img>,2,NA,exp,NA,1,<img src='img/tf1_17_T1_ss1_md.jpeg'></img>,0,FALSE,NA,sub34
NA,html-keyboard-response,47,184147,0.0-10.0-0.17,"""event"",""trial"",""time""
""fullscreenenter"",""0"",""2944""
","
","
","""event"",""trial"",""time""
""fullscreenenter"",""0"",""2944""
","
",null,"<div style=""font-size:60px;"">+</div>",NA,null,fixation,2020-06-10T21:50:29Z,NA,NA,NA,NA,NA,sub34
NA,mars-trial,48,190545,0.0-10.0-1.17,"""event"",""trial"",""time""
""fullscreenenter"",""0"",""2944""
","
","
","""event"",""trial"",""time""
""fullscreenenter"",""0"",""2944""
","
",5786.430000000109,<img style='border: 4px solid darkgrey;' src='img/tf1_18_M_ss2.jpeg'></img>,0,NA,exp,NA,1,<img src='img/tf1_18_T1_ss2_md.jpeg'></img>,0,FALSE,NA,sub34
NA,html-keyboard-response,49,191051,0.0-10.0-0.18,"""event"",""trial"",""time""
""fullscreenenter"",""0"",""2944""
","
","
","""event"",""trial"",""time""
""fullscreenenter"",""0"",""2944""
","
",null,"<div style=""font-size:60px;"">+</div>",NA,null,fixation,2020-06-10T21:50:35Z,NA,NA,NA,NA,NA,sub34
NA,mars-trial,50,196344,0.0-10.0-1.18,"""event"",""trial"",""time""
""fullscreenenter"",""0"",""2944""
","
","
","""event"",""trial"",""time""
""fullscreenenter"",""0"",""2944""
","
",4682.880000000296,<img style='border: 4px solid darkgrey;' src='img/tf1_19_M_ss3.jpeg'></img>,2,NA,exp,NA,2,<img src='img/tf1_19_T1_ss3_md.jpeg'></img>,0,FALSE,NA,sub34
NA,html-keyboard-response,51,196849,0.0-10.0-0.19,"""event"",""trial"",""time""
""fullscreenenter"",""0"",""2944""
","
","
","""event"",""trial"",""time""
""fullscreenenter"",""0"",""2944""
","
",null,"<div style=""font-size:60px;"">+</div>",NA,null,fixation,2020-06-10T21:50:41Z,NA,NA,NA,NA,NA,sub34
NA,mars-trial,52,205292,0.0-10.0-1.19,"""event"",""trial"",""time""
""fullscreenenter"",""0"",""2944""
","
","
","""event"",""trial"",""time""
""fullscreenenter"",""0"",""2944""
","
",7830.924999998388,<img style='border: 4px solid darkgrey;' src='img/tf1_20_M_ss1.jpeg'></img>,2,NA,exp,NA,3,<img src='img/tf1_20_T1_ss1_md.jpeg'></img>,0,FALSE,NA,sub34
NA,html-keyboard-response,53,205809,0.0-10.0-0.20,"""event"",""trial"",""time""
""fullscreenenter"",""0"",""2944""
","
","
","""event"",""trial"",""time""
""fullscreenenter"",""0"",""2944""
","
",null,"<div style=""font-size:60px;"">+</div>",NA,null,fixation,2020-06-10T21:50:50Z,NA,NA,NA,NA,NA,sub34
NA,mars-trial,54,214868,0.0-10.0-1.20,"""event"",""trial"",""time""
""fullscreenenter"",""0"",""2944""
","
","
","""event"",""trial"",""time""
""fullscreenenter"",""0"",""2944""
","
",8447.199999998702,<img style='border: 4px solid darkgrey;' src='img/tf1_21_M_ss2.jpeg'></img>,1,NA,exp,NA,2,<img src='img/tf1_21_T1_ss2_md.jpeg'></img>,0,FALSE,NA,sub34
NA,html-keyboard-response,55,215375,0.0-10.0-0.21,"""event"",""trial"",""time""
""fullscreenenter"",""0"",""2944""
","
","
","""event"",""trial"",""time""
""fullscreenenter"",""0"",""2944""
","
",null,"<div style=""font-size:60px;"">+</div>",NA,null,fixation,2020-06-10T21:51:00Z,NA,NA,NA,NA,NA,sub34
NA,mars-trial,56,219946,0.0-10.0-1.21,"""event"",""trial"",""time""
""fullscreenenter"",""0"",""2944""
","
","
","""event"",""trial"",""time""
""fullscreenenter"",""0"",""2944""
","
",3958.6699999999837,<img style='border: 4px solid darkgrey;' src='img/tf1_22_M_ss3.jpeg'></img>,3,NA,exp,NA,2,<img src='img/tf1_22_T1_ss3_md.jpeg'></img>,0,FALSE,NA,sub34
NA,html-keyboard-response,57,220452,0.0-10.0-0.22,"""event"",""trial"",""time""
""fullscreenenter"",""0"",""2944""
","
","
","""event"",""trial"",""time""
""fullscreenenter"",""0"",""2944""
","
",null,"<div style=""font-size:60px;"">+</div>",NA,null,fixation,2020-06-10T21:51:05Z,NA,NA,NA,NA,NA,sub34
NA,mars-trial,58,228931,0.0-10.0-1.22,"""event"",""trial"",""time""
""fullscreenenter"",""0"",""2944""
","
","
","""event"",""trial"",""time""
""fullscreenenter"",""0"",""2944""
","
",7866.874999999709,<img style='border: 4px solid darkgrey;' src='img/tf1_23_M_ss1.jpeg'></img>,1,NA,exp,NA,2,<img src='img/tf1_23_T1_ss1_md.jpeg'></img>,0,FALSE,NA,sub34
NA,html-keyboard-response,59,229433,0.0-10.0-0.23,"""event"",""trial"",""time""
""fullscreenenter"",""0"",""2944""
","
","
","""event"",""trial"",""time""
""fullscreenenter"",""0"",""2944""
","
",null,"<div style=""font-size:60px;"">+</div>",NA,null,fixation,2020-06-10T21:51:14Z,NA,NA,NA,NA,NA,sub34
NA,mars-trial,60,238338,0.0-10.0-1.23,"""event"",""trial"",""time""
""fullscreenenter"",""0"",""2944""
","
","
","""event"",""trial"",""time""
""fullscreenenter"",""0"",""2944""
","
",8291.035000002012,<img style='border: 4px solid darkgrey;' src='img/tf1_24_M_ss2.jpeg'></img>,2,NA,exp,NA,2,<img src='img/tf1_24_T1_ss2_md.jpeg'></img>,0,FALSE,NA,sub34
NA,html-keyboard-response,61,238842,0.0-10.0-0.24,"""event"",""trial"",""time""
""fullscreenenter"",""0"",""2944""
","
","
","""event"",""trial"",""time""
""fullscreenenter"",""0"",""2944""
","
",null,"<div style=""font-size:60px;"">+</div>",NA,null,fixation,2020-06-10T21:51:23Z,NA,NA,NA,NA,NA,sub34
NA,mars-trial,62,247719,0.0-10.0-1.24,"""event"",""trial"",""time""
""fullscreenenter"",""0"",""2944""
","
","
","""event"",""trial"",""time""
""fullscreenenter"",""0"",""2944""
","
",8259.205000002112,<img style='border: 4px solid darkgrey;' src='img/tf1_25_M_ss3.jpeg'></img>,1,NA,exp,NA,0,<img src='img/tf1_25_T1_ss3_md.jpeg'></img>,0,TRUE,NA,sub34
NA,html-keyboard-response,63,248222,0.0-10.0-0.25,"""event"",""trial"",""time""
""fullscreenenter"",""0"",""2944""
","
","
","""event"",""trial"",""time""
""fullscreenenter"",""0"",""2944""
","
",null,"<div style=""font-size:60px;"">+</div>",NA,null,fixation,2020-06-10T21:51:33Z,NA,NA,NA,NA,NA,sub34
NA,mars-trial,64,253153,0.0-10.0-1.25,"""event"",""trial"",""time""
""fullscreenenter"",""0"",""2944""
","
","
","""event"",""trial"",""time""
""fullscreenenter"",""0"",""2944""
","
",4322.245000003022,<img style='border: 4px solid darkgrey;' src='img/tf1_26_M_ss1.jpeg'></img>,1,NA,exp,NA,0,<img src='img/tf1_26_T1_ss1_md.jpeg'></img>,0,TRUE,NA,sub34
NA,html-keyboard-response,65,253656,0.0-10.0-0.26,"""event"",""trial"",""time""
""fullscreenenter"",""0"",""2944""
","
","
","""event"",""trial"",""time""
""fullscreenenter"",""0"",""2944""
","
",null,"<div style=""font-size:60px;"">+</div>",NA,null,fixation,2020-06-10T21:51:38Z,NA,NA,NA,NA,NA,sub34
NA,mars-trial,66,261043,0.0-10.0-1.26,"""event"",""trial"",""time""
""fullscreenenter"",""0"",""2944""
","
","
","""event"",""trial"",""time""
""fullscreenenter"",""0"",""2944""
","
",6776.909999996889,<img style='border: 4px solid darkgrey;' src='img/tf1_27_M_ss2.jpeg'></img>,1,NA,exp,NA,3,<img src='img/tf1_27_T1_ss2_md.jpeg'></img>,0,FALSE,NA,sub34
NA,html-keyboard-response,67,261547,0.0-10.0-0.27,"""event"",""trial"",""time""
""fullscreenenter"",""0"",""2944""
","
","
","""event"",""trial"",""time""
""fullscreenenter"",""0"",""2944""
","
",null,"<div style=""font-size:60px;"">+</div>",NA,null,fixation,2020-06-10T21:51:46Z,NA,NA,NA,NA,NA,sub34
NA,mars-trial,68,267666,0.0-10.0-1.27,"""event"",""trial"",""time""
""fullscreenenter"",""0"",""2944""
","
","
","""event"",""trial"",""time""
""fullscreenenter"",""0"",""2944""
","
",5503.40999999753,<img style='border: 4px solid darkgrey;' src='img/tf1_28_M_ss3.jpeg'></img>,2,NA,exp,NA,3,<img src='img/tf1_28_T1_ss3_md.jpeg'></img>,0,FALSE,NA,sub34
NA,html-keyboard-response,69,268171,0.0-10.0-0.28,"""event"",""trial"",""time""
""fullscreenenter"",""0"",""2944""
","
","
","""event"",""trial"",""time""
""fullscreenenter"",""0"",""2944""
","
",null,"<div style=""font-size:60px;"">+</div>",NA,null,fixation,2020-06-10T21:51:53Z,NA,NA,NA,NA,NA,sub34
NA,mars-trial,70,276994,0.0-10.0-1.28,"""event"",""trial"",""time""
""fullscreenenter"",""0"",""2944""
","
","
","""event"",""trial"",""time""
""fullscreenenter"",""0"",""2944""
","
",8214.10499999905,<img style='border: 4px solid darkgrey;' src='img/tf1_29_M_ss1.jpeg'></img>,0,NA,exp,NA,2,<img src='img/tf1_29_T1_ss1_md.jpeg'></img>,0,FALSE,NA,sub34
NA,html-keyboard-response,71,277500,0.0-10.0-0.29,"""event"",""trial"",""time""
""fullscreenenter"",""0"",""2944""
","
","
","""event"",""trial"",""time""
""fullscreenenter"",""0"",""2944""
","
",null,"<div style=""font-size:60px;"">+</div>",NA,null,fixation,2020-06-10T21:52:02Z,NA,NA,NA,NA,NA,sub34
NA,mars-trial,72,286769,0.0-10.0-1.29,"""event"",""trial"",""time""
""fullscreenenter"",""0"",""2944""
","
","
","""event"",""trial"",""time""
""fullscreenenter"",""0"",""2944""
","
",8659.429999999702,<img style='border: 4px solid darkgrey;' src='img/tf1_30_M_ss2.jpeg'></img>,2,NA,exp,NA,0,<img src='img/tf1_30_T1_ss2_md.jpeg'></img>,0,TRUE,NA,sub34
NA,html-keyboard-response,73,287272,0.0-10.0-0.30,"""event"",""trial"",""time""
""fullscreenenter"",""0"",""2944""
","
","
","""event"",""trial"",""time""
""fullscreenenter"",""0"",""2944""
","
",null,"<div style=""font-size:60px;"">+</div>",NA,null,fixation,2020-06-10T21:52:12Z,NA,NA,NA,NA,NA,sub34
NA,mars-trial,74,290522,0.0-10.0-1.30,"""event"",""trial"",""time""
""fullscreenenter"",""0"",""2944""
","
","
","""event"",""trial"",""time""
""fullscreenenter"",""0"",""2944""
","
",2639.86500000098,<img style='border: 4px solid darkgrey;' src='img/tf1_31_M_ss3.jpeg'></img>,2,NA,exp,NA,0,<img src='img/tf1_31_T1_ss3_md.jpeg'></img>,0,TRUE,NA,sub34
NA,html-keyboard-response,75,291028,0.0-10.0-0.31,"""event"",""trial"",""time""
""fullscreenenter"",""0"",""2944""
","
","
","""event"",""trial"",""time""
""fullscreenenter"",""0"",""2944""
","
",null,"<div style=""font-size:60px;"">+</div>",NA,null,fixation,2020-06-10T21:52:15Z,NA,NA,NA,NA,NA,sub34
NA,mars-trial,76,295420,0.0-10.0-1.31,"""event"",""trial"",""time""
""fullscreenenter"",""0"",""2944""
","
","
","""event"",""trial"",""time""
""fullscreenenter"",""0"",""2944""
","
",3780.080000000482,<img style='border: 4px solid darkgrey;' src='img/tf1_32_M_ss1.jpeg'></img>,3,NA,exp,NA,3,<img src='img/tf1_32_T1_ss1_md.jpeg'></img>,0,FALSE,NA,sub34
NA,html-keyboard-response,77,295926,0.0-10.0-0.32,"""event"",""trial"",""time""
""fullscreenenter"",""0"",""2944""
","
","
","""event"",""trial"",""time""
""fullscreenenter"",""0"",""2944""
","
",null,"<div style=""font-size:60px;"">+</div>",NA,null,fixation,2020-06-10T21:52:20Z,NA,NA,NA,NA,NA,sub34
NA,mars-trial,78,303896,0.0-10.0-1.32,"""event"",""trial"",""time""
""fullscreenenter"",""0"",""2944""
","
","
","""event"",""trial"",""time""
""fullscreenenter"",""0"",""2944""
","
",7357.319999999192,<img style='border: 4px solid darkgrey;' src='img/tf1_33_M_ss2.jpeg'></img>,3,NA,exp,NA,2,<img src='img/tf1_33_T1_ss2_md.jpeg'></img>,0,FALSE,NA,sub34
NA,html-keyboard-response,79,304402,0.0-10.0-0.33,"""event"",""trial"",""time""
""fullscreenenter"",""0"",""2944""
","
","
","""event"",""trial"",""time""
""fullscreenenter"",""0"",""2944""
","
",null,"<div style=""font-size:60px;"">+</div>",NA,null,fixation,2020-06-10T21:52:29Z,NA,NA,NA,NA,NA,sub34
NA,mars-trial,80,310039,0.0-10.0-1.33,"""event"",""trial"",""time""
""fullscreenenter"",""0"",""2944""
","
","
","""event"",""trial"",""time""
""fullscreenenter"",""0"",""2944""
","
",5027.354999998352,<img style='border: 4px solid darkgrey;' src='img/tf1_34_M_ss3.jpeg'></img>,3,NA,exp,NA,2,<img src='img/tf1_34_T1_ss3_md.jpeg'></img>,0,FALSE,NA,sub34
NA,html-keyboard-response,81,310545,0.0-10.0-0.34,"""event"",""trial"",""time""
""fullscreenenter"",""0"",""2944""
","
","
","""event"",""trial"",""time""
""fullscreenenter"",""0"",""2944""
","
",null,"<div style=""font-size:60px;"">+</div>",NA,null,fixation,2020-06-10T21:52:35Z,NA,NA,NA,NA,NA,sub34
NA,mars-trial,82,313356,0.0-10.0-1.34,"""event"",""trial"",""time""
""fullscreenenter"",""0"",""2944""
","
","
","""event"",""trial"",""time""
""fullscreenenter"",""0"",""2944""
","
",2199.1300000008196,<img style='border: 4px solid darkgrey;' src='img/tf1_35_M_ss1.jpeg'></img>,0,NA,exp,NA,3,<img src='img/tf1_35_T1_ss1_md.jpeg'></img>,0,FALSE,NA,sub34
NA,html-keyboard-response,83,313867,0.0-10.0-0.35,"""event"",""trial"",""time""
""fullscreenenter"",""0"",""2944""
","
","
","""event"",""trial"",""time""
""fullscreenenter"",""0"",""2944""
","
",null,"<div style=""font-size:60px;"">+</div>",NA,null,fixation,2020-06-10T21:52:38Z,NA,NA,NA,NA,NA,sub34
NA,mars-trial,84,315495,0.0-10.0-1.35,"""event"",""trial"",""time""
""fullscreenenter"",""0"",""2944""
","
","
","""event"",""trial"",""time""
""fullscreenenter"",""0"",""2944""
","
",1019.6599999981117,<img style='border: 4px solid darkgrey;' src='img/tf1_36_M_ss2.jpeg'></img>,1,NA,exp,NA,2,<img src='img/tf1_36_T1_ss2_md.jpeg'></img>,0,FALSE,NA,sub34
NA,html-keyboard-response,85,316001,0.0-10.0-0.36,"""event"",""trial"",""time""
""fullscreenenter"",""0"",""2944""
","
","
","""event"",""trial"",""time""
""fullscreenenter"",""0"",""2944""
","
",null,"<div style=""font-size:60px;"">+</div>",NA,null,fixation,2020-06-10T21:52:40Z,NA,NA,NA,NA,NA,sub34
NA,mars-trial,86,317870,0.0-10.0-1.36,"""event"",""trial"",""time""
""fullscreenenter"",""0"",""2944""
","
","
","""event"",""trial"",""time""
""fullscreenenter"",""0"",""2944""
","
",1256.199999999837,<img style='border: 4px solid darkgrey;' src='img/tf1_37_M_ss3.jpeg'></img>,2,NA,exp,NA,3,<img src='img/tf1_37_T1_ss3_md.jpeg'></img>,0,FALSE,NA,sub34
NA,html-keyboard-response,87,318372,0.0-10.0-0.37,"""event"",""trial"",""time""
""fullscreenenter"",""0"",""2944""
","
","
","""event"",""trial"",""time""
""fullscreenenter"",""0"",""2944""
","
",null,"<div style=""font-size:60px;"">+</div>",NA,null,fixation,2020-06-10T21:52:43Z,NA,NA,NA,NA,NA,sub34
NA,mars-trial,88,319645,0.0-10.0-1.37,"""event"",""trial"",""time""
""fullscreenenter"",""0"",""2944""
","
","
","""event"",""trial"",""time""
""fullscreenenter"",""0"",""2944""
","
",662.2950000019046,<img style='border: 4px solid darkgrey;' src='img/tf1_38_M_ss1.jpeg'></img>,2,NA,exp,NA,2,<img src='img/tf1_38_T1_ss1_md.jpeg'></img>,0,FALSE,NA,sub34
NA,html-keyboard-response,89,320149,0.0-10.0-0.38,"""event"",""trial"",""time""
""fullscreenenter"",""0"",""2944""
","
","
","""event"",""trial"",""time""
""fullscreenenter"",""0"",""2944""
","
",null,"<div style=""font-size:60px;"">+</div>",NA,null,fixation,2020-06-10T21:52:45Z,NA,NA,NA,NA,NA,sub34
NA,mars-trial,90,322200,0.0-10.0-1.38,"""event"",""trial"",""time""
""fullscreenenter"",""0"",""2944""
","
","
","""event"",""trial"",""time""
""fullscreenenter"",""0"",""2944""
","
",1443.2850000011967,<img style='border: 4px solid darkgrey;' src='img/tf1_39_M_ss2.jpeg'></img>,3,NA,exp,NA,1,<img src='img/tf1_39_T1_ss2_md.jpeg'></img>,0,FALSE,NA,sub34
NA,html-keyboard-response,91,322705,0.0-10.0-0.39,"""event"",""trial"",""time""
""fullscreenenter"",""0"",""2944""
","
","
","""event"",""trial"",""time""
""fullscreenenter"",""0"",""2944""
","
",null,"<div style=""font-size:60px;"">+</div>",NA,null,fixation,2020-06-10T21:52:47Z,NA,NA,NA,NA,NA,sub34
NA,mars-trial,92,324502,0.0-10.0-1.39,"""event"",""trial"",""time""
""fullscreenenter"",""0"",""2944""
","
","
","""event"",""trial"",""time""
""fullscreenenter"",""0"",""2944""
","
",1191.2650000012945,<img style='border: 4px solid darkgrey;' src='img/tf1_40_M_ss3.jpeg'></img>,0,NA,exp,NA,0,<img src='img/tf1_40_T1_ss3_md.jpeg'></img>,0,TRUE,NA,sub34
NA,html-keyboard-response,93,325005,0.0-10.0-0.40,"""event"",""trial"",""time""
""fullscreenenter"",""0"",""2944""
","
","
","""event"",""trial"",""time""
""fullscreenenter"",""0"",""2944""
","
",null,"<div style=""font-size:60px;"">+</div>",NA,null,fixation,2020-06-10T21:52:49Z,NA,NA,NA,NA,NA,sub34
NA,mars-trial,94,332260,0.0-10.0-1.40,"""event"",""trial"",""time""
""fullscreenenter"",""0"",""2944""
","
","
","""event"",""trial"",""time""
""fullscreenenter"",""0"",""2944""
","
",6644.894999997632,<img style='border: 4px solid darkgrey;' src='img/tf1_41_M_ss1.jpeg'></img>,1,NA,exp,NA,0,<img src='img/tf1_41_T1_ss1_md.jpeg'></img>,0,TRUE,NA,sub34
NA,html-keyboard-response,95,332767,0.0-10.0-0.41,"""event"",""trial"",""time""
""fullscreenenter"",""0"",""2944""
","
","
","""event"",""trial"",""time""
""fullscreenenter"",""0"",""2944""
","
",null,"<div style=""font-size:60px;"">+</div>",NA,null,fixation,2020-06-10T21:52:57Z,NA,NA,NA,NA,NA,sub34
NA,mars-trial,96,338848,0.0-10.0-1.41,"""event"",""trial"",""time""
""fullscreenenter"",""0"",""2944""
","
","
","""event"",""trial"",""time""
""fullscreenenter"",""0"",""2944""
","
",5472.649999999674,<img style='border: 4px solid darkgrey;' src='img/tf1_42_M_ss2.jpeg'></img>,1,NA,exp,NA,3,<img src='img/tf1_42_T1_ss2_md.jpeg'></img>,0,FALSE,NA,sub34
NA,html-keyboard-response,97,339355,0.0-10.0-0.42,"""event"",""trial"",""time""
""fullscreenenter"",""0"",""2944""
","
","
","""event"",""trial"",""time""
""fullscreenenter"",""0"",""2944""
","
",null,"<div style=""font-size:60px;"">+</div>",NA,null,fixation,2020-06-10T21:53:04Z,NA,NA,NA,NA,NA,sub34
NA,mars-trial,98,345333,0.0-10.0-1.42,"""event"",""trial"",""time""
""fullscreenenter"",""0"",""2944""
","
","
","""event"",""trial"",""time""
""fullscreenenter"",""0"",""2944""
","
",5365.9850000003935,<img style='border: 4px solid darkgrey;' src='img/tf1_43_M_ss3.jpeg'></img>,0,NA,exp,NA,0,<img src='img/tf1_43_T1_ss3_md.jpeg'></img>,0,TRUE,NA,sub34
NA,html-keyboard-response,99,345838,0.0-10.0-0.43,"""event"",""trial"",""time""
""fullscreenenter"",""0"",""2944""
","
","
","""event"",""trial"",""time""
""fullscreenenter"",""0"",""2944""
","
",null,"<div style=""font-size:60px;"">+</div>",NA,null,fixation,2020-06-10T21:53:10Z,NA,NA,NA,NA,NA,sub34
NA,mars-trial,100,355156,0.0-10.0-1.43,"""event"",""trial"",""time""
""fullscreenenter"",""0"",""2944""
","
","
","""event"",""trial"",""time""
""fullscreenenter"",""0"",""2944""
","
",8705.085000001476,<img style='border: 4px solid darkgrey;' src='img/tf1_44_M_ss1.jpeg'></img>,3,NA,exp,NA,1,<img src='img/tf1_44_T1_ss1_md.jpeg'></img>,0,FALSE,NA,sub34
NA,html-keyboard-response,101,355661,0.0-10.0-0.44,"""event"",""trial"",""time""
""fullscreenenter"",""0"",""2944""
","
","
","""event"",""trial"",""time""
""fullscreenenter"",""0"",""2944""
","
",null,"<div style=""font-size:60px;"">+</div>",NA,null,fixation,2020-06-10T21:53:20Z,NA,NA,NA,NA,NA,sub34
NA,mars-trial,102,363712,0.0-10.0-1.44,"""event"",""trial"",""time""
""fullscreenenter"",""0"",""2944""
","
","
","""event"",""trial"",""time""
""fullscreenenter"",""0"",""2944""
","
",7439.759999997506,<img style='border: 4px solid darkgrey;' src='img/tf1_45_M_ss2.jpeg'></img>,2,NA,exp,NA,1,<img src='img/tf1_45_T1_ss2_md.jpeg'></img>,0,FALSE,NA,sub34
NA,html-keyboard-response,103,364215,0.0-10.0-0.45,"""event"",""trial"",""time""
""fullscreenenter"",""0"",""2944""
","
","
","""event"",""trial"",""time""
""fullscreenenter"",""0"",""2944""
","
",null,"<div style=""font-size:60px;"">+</div>",NA,null,fixation,2020-06-10T21:53:29Z,NA,NA,NA,NA,NA,sub34
NA,mars-trial,104,372193,0.0-10.0-1.45,"""event"",""trial"",""time""
""fullscreenenter"",""0"",""2944""
","
","
","""event"",""trial"",""time""
""fullscreenenter"",""0"",""2944""
","
",7366.004999999888,<img style='border: 4px solid darkgrey;' src='img/tf1_46_M_ss3.jpeg'></img>,0,NA,exp,NA,3,<img src='img/tf1_46_T1_ss3_md.jpeg'></img>,0,FALSE,NA,sub34
NA,html-keyboard-response,105,372695,0.0-10.0-0.46,"""event"",""trial"",""time""
""fullscreenenter"",""0"",""2944""
","
","
","""event"",""trial"",""time""
""fullscreenenter"",""0"",""2944""
","
",null,"<div style=""font-size:60px;"">+</div>",NA,null,fixation,2020-06-10T21:53:37Z,NA,NA,NA,NA,NA,sub34
NA,mars-trial,106,381650,0.0-10.0-1.46,"""event"",""trial"",""time""
""fullscreenenter"",""0"",""2944""
","
","
","""event"",""trial"",""time""
""fullscreenenter"",""0"",""2944""
","
",8346.000000001397,<img style='border: 4px solid darkgrey;' src='img/tf1_47_M_ss1.jpeg'></img>,0,NA,exp,NA,1,<img src='img/tf1_47_T1_ss1_md.jpeg'></img>,0,FALSE,NA,sub34
NA,html-keyboard-response,107,382155,0.0-10.0-0.47,"""event"",""trial"",""time""
""fullscreenenter"",""0"",""2944""
","
","
","""event"",""trial"",""time""
""fullscreenenter"",""0"",""2944""
","
",null,"<div style=""font-size:60px;"">+</div>",NA,null,fixation,2020-06-10T21:53:47Z,NA,NA,NA,NA,NA,sub34
NA,mars-trial,108,388047,0.0-10.0-1.47,"""event"",""trial"",""time""
""fullscreenenter"",""0"",""2944""
","
","
","""event"",""trial"",""time""
""fullscreenenter"",""0"",""2944""
","
",5286.505000000063,<img style='border: 4px solid darkgrey;' src='img/tf1_48_M_ss2.jpeg'></img>,1,NA,exp,NA,0,<img src='img/tf1_48_T1_ss2_md.jpeg'></img>,0,TRUE,NA,sub34
NA,html-keyboard-response,109,388551,0.0-10.0-0.48,"""event"",""trial"",""time""
""fullscreenenter"",""0"",""2944""
","
","
","""event"",""trial"",""time""
""fullscreenenter"",""0"",""2944""
","
",null,"<div style=""font-size:60px;"">+</div>",NA,null,fixation,2020-06-10T21:53:53Z,NA,NA,NA,NA,NA,sub34
NA,mars-trial,110,395327,0.0-10.0-1.48,"""event"",""trial"",""time""
""fullscreenenter"",""0"",""2944""
","
","
","""event"",""trial"",""time""
""fullscreenenter"",""0"",""2944""
","
",6167.934999997669,<img style='border: 4px solid darkgrey;' src='img/tf1_49_M_ss3.jpeg'></img>,3,NA,exp,NA,0,<img src='img/tf1_49_T1_ss3_md.jpeg'></img>,0,TRUE,NA,sub34
NA,html-keyboard-response,111,395831,0.0-10.0-0.49,"""event"",""trial"",""time""
""fullscreenenter"",""0"",""2944""
","
","
","""event"",""trial"",""time""
""fullscreenenter"",""0"",""2944""
","
",null,"<div style=""font-size:60px;"">+</div>",NA,null,fixation,2020-06-10T21:54:00Z,NA,NA,NA,NA,NA,sub34
NA,mars-trial,112,402267,0.0-10.0-1.49,"""event"",""trial"",""time""
""fullscreenenter"",""0"",""2944""
","
","
","""event"",""trial"",""time""
""fullscreenenter"",""0"",""2944""
","
",5822.93000000203,<img style='border: 4px solid darkgrey;' src='img/tf1_50_M_ss1.jpeg'></img>,2,NA,exp,NA,2,<img src='img/tf1_50_T1_ss1_md.jpeg'></img>,0,FALSE,NA,sub34
NA,html-keyboard-response,113,402774,0.0-10.0-0.50,"""event"",""trial"",""time""
""fullscreenenter"",""0"",""2944""
","
","
","""event"",""trial"",""time""
""fullscreenenter"",""0"",""2944""
","
",null,"<div style=""font-size:60px;"">+</div>",NA,null,fixation,2020-06-10T21:54:07Z,NA,NA,NA,NA,NA,sub34
NA,mars-trial,114,408775,0.0-10.0-1.50,"""event"",""trial"",""time""
""fullscreenenter"",""0"",""2944""
","
","
","""event"",""trial"",""time""
""fullscreenenter"",""0"",""2944""
","
",5389.085000002524,<img style='border: 4px solid darkgrey;' src='img/tf1_51_M_ss2.jpeg'></img>,3,NA,exp,NA,1,<img src='img/tf1_51_T1_ss2_md.jpeg'></img>,0,FALSE,NA,sub34
NA,html-keyboard-response,115,409278,0.0-10.0-0.51,"""event"",""trial"",""time""
""fullscreenenter"",""0"",""2944""
","
","
","""event"",""trial"",""time""
""fullscreenenter"",""0"",""2944""
","
",null,"<div style=""font-size:60px;"">+</div>",NA,null,fixation,2020-06-10T21:54:14Z,NA,NA,NA,NA,NA,sub34
NA,mars-trial,116,414327,0.0-10.0-1.51,"""event"",""trial"",""time""
""fullscreenenter"",""0"",""2944""
","
","
","""event"",""trial"",""time""
""fullscreenenter"",""0"",""2944""
","
",4438.500000000233,<img style='border: 4px solid darkgrey;' src='img/tf1_52_M_ss3.jpeg'></img>,3,NA,exp,NA,3,<img src='img/tf1_52_T1_ss3_md.jpeg'></img>,0,FALSE,NA,sub34
NA,html-keyboard-response,117,414835,0.0-10.0-0.52,"""event"",""trial"",""time""
""fullscreenenter"",""0"",""2944""
","
","
","""event"",""trial"",""time""
""fullscreenenter"",""0"",""2944""
","
",null,"<div style=""font-size:60px;"">+</div>",NA,null,fixation,2020-06-10T21:54:19Z,NA,NA,NA,NA,NA,sub34
NA,mars-trial,118,417320,0.0-10.0-1.52,"""event"",""trial"",""time""
""fullscreenenter"",""0"",""2944""
","
","
","""event"",""trial"",""time""
""fullscreenenter"",""0"",""2944""
","
",1873.4800000019604,<img style='border: 4px solid darkgrey;' src='img/tf1_53_M_ss1.jpeg'></img>,2,NA,exp,NA,1,<img src='img/tf1_53_T1_ss1_md.jpeg'></img>,0,FALSE,NA,sub34
NA,html-keyboard-response,119,417823,0.0-10.0-0.53,"""event"",""trial"",""time""
""fullscreenenter"",""0"",""2944""
","
","
","""event"",""trial"",""time""
""fullscreenenter"",""0"",""2944""
","
",null,"<div style=""font-size:60px;"">+</div>",NA,null,fixation,2020-06-10T21:54:22Z,NA,NA,NA,NA,NA,sub34
NA,mars-trial,120,420300,0.0-10.0-1.53,"""event"",""trial"",""time""
""fullscreenenter"",""0"",""2944""
","
","
","""event"",""trial"",""time""
""fullscreenenter"",""0"",""2944""
","
",1862.6750000002794,<img style='border: 4px solid darkgrey;' src='img/tf1_54_M_ss2.jpeg'></img>,0,NA,exp,NA,1,<img src='img/tf1_54_T1_ss2_md.jpeg'></img>,0,FALSE,NA,sub34
NA,html-keyboard-response,121,420805,0.0-10.0-0.54,"""event"",""trial"",""time""
""fullscreenenter"",""0"",""2944""
","
","
","""event"",""trial"",""time""
""fullscreenenter"",""0"",""2944""
","
",null,"<div style=""font-size:60px;"">+</div>",NA,null,fixation,2020-06-10T21:54:25Z,NA,NA,NA,NA,NA,sub34
NA,mars-trial,122,427505,0.0-10.0-1.54,"""event"",""trial"",""time""
""fullscreenenter"",""0"",""2944""
","
","
","""event"",""trial"",""time""
""fullscreenenter"",""0"",""2944""
","
",6093.335000001418,<img style='border: 4px solid darkgrey;' src='img/tf1_55_M_ss3.jpeg'></img>,0,NA,exp,NA,0,<img src='img/tf1_55_T1_ss3_md.jpeg'></img>,0,TRUE,NA,sub34
NA,html-keyboard-response,123,428010,0.0-10.0-0.55,"""event"",""trial"",""time""
""fullscreenenter"",""0"",""2944""
","
","
","""event"",""trial"",""time""
""fullscreenenter"",""0"",""2944""
","
",null,"<div style=""font-size:60px;"">+</div>",NA,null,fixation,2020-06-10T21:54:32Z,NA,NA,NA,NA,NA,sub34
NA,mars-trial,124,435043,0.0-10.0-1.55,"""event"",""trial"",""time""
""fullscreenenter"",""0"",""2944""
","
","
","""event"",""trial"",""time""
""fullscreenenter"",""0"",""2944""
","
",6424.129999999423,<img style='border: 4px solid darkgrey;' src='img/tf1_56_M_ss1.jpeg'></img>,2,NA,exp,NA,0,<img src='img/tf1_56_T1_ss1_md.jpeg'></img>,0,TRUE,NA,sub34
NA,html-keyboard-response,125,435545,0.0-10.0-0.56,"""event"",""trial"",""time""
""fullscreenenter"",""0"",""2944""
","
","
","""event"",""trial"",""time""
""fullscreenenter"",""0"",""2944""
","
",null,"<div style=""font-size:60px;"">+</div>",NA,null,fixation,2020-06-10T21:54:40Z,NA,NA,NA,NA,NA,sub34
NA,mars-trial,126,440498,0.0-10.0-1.56,"""event"",""trial"",""time""
""fullscreenenter"",""0"",""2944""
","
","
","""event"",""trial"",""time""
""fullscreenenter"",""0"",""2944""
","
",4341.44500000187,<img style='border: 4px solid darkgrey;' src='img/tf1_57_M_ss2.jpeg'></img>,0,NA,exp,NA,0,<img src='img/tf1_57_T1_ss2_md.jpeg'></img>,0,TRUE,NA,sub34
NA,html-keyboard-response,127,441008,0.0-10.0-0.57,"""event"",""trial"",""time""
""fullscreenenter"",""0"",""2944""
","
","
","""event"",""trial"",""time""
""fullscreenenter"",""0"",""2944""
","
",null,"<div style=""font-size:60px;"">+</div>",NA,null,fixation,2020-06-10T21:54:45Z,NA,NA,NA,NA,NA,sub34
NA,mars-trial,128,451772,0.0-10.0-1.57,"""event"",""trial"",""time""
""fullscreenenter"",""0"",""2944""
","
","
","""event"",""trial"",""time""
""fullscreenenter"",""0"",""2944""
","
",10150.33499999845,<img style='border: 4px solid darkgrey;' src='img/tf1_58_M_ss3.jpeg'></img>,3,NA,exp,NA,0,<img src='img/tf1_58_T1_ss3_md.jpeg'></img>,0,TRUE,NA,sub34
NA,html-keyboard-response,129,452275,0.0-10.0-0.58,"""event"",""trial"",""time""
""fullscreenenter"",""0"",""2944""
","
","
","""event"",""trial"",""time""
""fullscreenenter"",""0"",""2944""
","
",null,"<div style=""font-size:60px;"">+</div>",NA,null,fixation,2020-06-10T21:54:57Z,NA,NA,NA,NA,NA,sub34
NA,mars-trial,130,460575,0.0-10.0-1.58,"""event"",""trial"",""time""
""fullscreenenter"",""0"",""2944""
","
","
","""event"",""trial"",""time""
""fullscreenenter"",""0"",""2944""
","
",7689.870000001974,<img style='border: 4px solid darkgrey;' src='img/tf1_59_M_ss1.jpeg'></img>,2,NA,exp,NA,3,<img src='img/tf1_59_T1_ss1_md.jpeg'></img>,0,FALSE,NA,sub34
NA,html-keyboard-response,131,461080,0.0-10.0-0.59,"""event"",""trial"",""time""
""fullscreenenter"",""0"",""2944""
","
","
","""event"",""trial"",""time""
""fullscreenenter"",""0"",""2944""
","
",null,"<div style=""font-size:60px;"">+</div>",NA,null,fixation,2020-06-10T21:55:06Z,NA,NA,NA,NA,NA,sub34
NA,mars-trial,132,469284,0.0-10.0-1.59,"""event"",""trial"",""time""
""fullscreenenter"",""0"",""2944""
","
","
","""event"",""trial"",""time""
""fullscreenenter"",""0"",""2944""
","
",7592.829999997746,<img style='border: 4px solid darkgrey;' src='img/tf1_60_M_ss2.jpeg'></img>,2,NA,exp,NA,0,<img src='img/tf1_60_T1_ss2_md.jpeg'></img>,0,TRUE,NA,sub34
NA,html-keyboard-response,133,469786,0.0-10.0-0.60,"""event"",""trial"",""time""
""fullscreenenter"",""0"",""2944""
","
","
","""event"",""trial"",""time""
""fullscreenenter"",""0"",""2944""
","
",null,"<div style=""font-size:60px;"">+</div>",NA,null,fixation,2020-06-10T21:55:14Z,NA,NA,NA,NA,NA,sub34
NA,mars-trial,134,480668,0.0-10.0-1.60,"""event"",""trial"",""time""
""fullscreenenter"",""0"",""2944""
","
","
","""event"",""trial"",""time""
""fullscreenenter"",""0"",""2944""
","
",10268.199999998673,<img style='border: 4px solid darkgrey;' src='img/tf1_61_M_ss3.jpeg'></img>,1,NA,exp,NA,1,<img src='img/tf1_61_T1_ss3_md.jpeg'></img>,0,FALSE,NA,sub34
NA,html-keyboard-response,135,481174,0.0-10.0-0.61,"""event"",""trial"",""time""
""fullscreenenter"",""0"",""2944""
","
","
","""event"",""trial"",""time""
""fullscreenenter"",""0"",""2944""
","
",null,"<div style=""font-size:60px;"">+</div>",NA,null,fixation,2020-06-10T21:55:26Z,NA,NA,NA,NA,NA,sub34
NA,mars-trial,136,483915,0.0-10.0-1.61,"""event"",""trial"",""time""
""fullscreenenter"",""0"",""2944""
","
","
","""event"",""trial"",""time""
""fullscreenenter"",""0"",""2944""
","
",2132.014999999199,<img style='border: 4px solid darkgrey;' src='img/tf1_62_M_ss1.jpeg'></img>,1,NA,exp,NA,0,<img src='img/tf1_62_T1_ss1_md.jpeg'></img>,0,TRUE,NA,sub34
NA,html-keyboard-response,137,484419,0.0-10.0-0.62,"""event"",""trial"",""time""
""fullscreenenter"",""0"",""2944""
","
","
","""event"",""trial"",""time""
""fullscreenenter"",""0"",""2944""
","
",null,"<div style=""font-size:60px;"">+</div>",NA,null,fixation,2020-06-10T21:55:29Z,NA,NA,NA,NA,NA,sub34
NA,mars-trial,138,489573,0.0-10.0-1.62,"""event"",""trial"",""time""
""fullscreenenter"",""0"",""2944""
","
","
","""event"",""trial"",""time""
""fullscreenenter"",""0"",""2944""
","
",4545.074999998207,<img style='border: 4px solid darkgrey;' src='img/tf1_63_M_ss2.jpeg'></img>,3,NA,exp,NA,2,<img src='img/tf1_63_T1_ss2_md.jpeg'></img>,0,FALSE,NA,sub34
NA,html-keyboard-response,139,490080,0.0-10.0-0.63,"""event"",""trial"",""time""
""fullscreenenter"",""0"",""2944""
","
","
","""event"",""trial"",""time""
""fullscreenenter"",""0"",""2944""
","
",null,"<div style=""font-size:60px;"">+</div>",NA,null,fixation,2020-06-10T21:55:35Z,NA,NA,NA,NA,NA,sub34
NA,mars-trial,140,500126,0.0-10.0-1.63,"""event"",""trial"",""time""
""fullscreenenter"",""0"",""2944""
","
","
","""event"",""trial"",""time""
""fullscreenenter"",""0"",""2944""
","
",9433.13500000292,<img style='border: 4px solid darkgrey;' src='img/tf1_64_M_ss3.jpeg'></img>,0,NA,exp,NA,2,<img src='img/tf1_64_T1_ss3_md.jpeg'></img>,0,FALSE,NA,sub34
NA,html-keyboard-response,141,500630,0.0-10.0-0.64,"""event"",""trial"",""time""
""fullscreenenter"",""0"",""2944""
","
","
","""event"",""trial"",""time""
""fullscreenenter"",""0"",""2944""
","
",null,"<div style=""font-size:60px;"">+</div>",NA,null,fixation,2020-06-10T21:55:45Z,NA,NA,NA,NA,NA,sub34
NA,mars-trial,142,505795,0.0-10.0-1.64,"""event"",""trial"",""time""
""fullscreenenter"",""0"",""2944""
","
","
","""event"",""trial"",""time""
""fullscreenenter"",""0"",""2944""
","
",4557.209999999031,<img style='border: 4px solid darkgrey;' src='img/tf1_65_M_ss1.jpeg'></img>,2,NA,exp,NA,2,<img src='img/tf1_65_T1_ss1_md.jpeg'></img>,0,FALSE,NA,sub34
NA,html-keyboard-response,143,506299,0.0-10.0-0.65,"""event"",""trial"",""time""
""fullscreenenter"",""0"",""2944""
","
","
","""event"",""trial"",""time""
""fullscreenenter"",""0"",""2944""
","
",null,"<div style=""font-size:60px;"">+</div>",NA,null,fixation,2020-06-10T21:55:51Z,NA,NA,NA,NA,NA,sub34
NA,mars-trial,144,516363,0.0-10.0-1.65,"""event"",""trial"",""time""
""fullscreenenter"",""0"",""2944""
","
","
","""event"",""trial"",""time""
""fullscreenenter"",""0"",""2944""
","
",9449.375000000233,<img style='border: 4px solid darkgrey;' src='img/tf1_66_M_ss2.jpeg'></img>,1,NA,exp,NA,1,<img src='img/tf1_66_T1_ss2_md.jpeg'></img>,0,FALSE,NA,sub34
NA,html-keyboard-response,145,516865,0.0-10.0-0.66,"""event"",""trial"",""time""
""fullscreenenter"",""0"",""2944""
","
","
","""event"",""trial"",""time""
""fullscreenenter"",""0"",""2944""
","
",null,"<div style=""font-size:60px;"">+</div>",NA,null,fixation,2020-06-10T21:56:01Z,NA,NA,NA,NA,NA,sub34
NA,mars-trial,146,523209,0.0-10.0-1.66,"""event"",""trial"",""time""
""fullscreenenter"",""0"",""2944""
","
","
","""event"",""trial"",""time""
""fullscreenenter"",""0"",""2944""
","
",5732.33999999857,<img style='border: 4px solid darkgrey;' src='img/tf1_67_M_ss3.jpeg'></img>,2,NA,exp,NA,2,<img src='img/tf1_67_T1_ss3_md.jpeg'></img>,0,FALSE,NA,sub34
NA,html-keyboard-response,147,523714,0.0-10.0-0.67,"""event"",""trial"",""time""
""fullscreenenter"",""0"",""2944""
","
","
","""event"",""trial"",""time""
""fullscreenenter"",""0"",""2944""
","
",null,"<div style=""font-size:60px;"">+</div>",NA,null,fixation,2020-06-10T21:56:08Z,NA,NA,NA,NA,NA,sub34
NA,mars-trial,148,526127,0.0-10.0-1.67,"""event"",""trial"",""time""
""fullscreenenter"",""0"",""2944""
","
","
","""event"",""trial"",""time""
""fullscreenenter"",""0"",""2944""
","
",1800.9650000021793,<img style='border: 4px solid darkgrey;' src='img/tf1_68_M_ss1.jpeg'></img>,1,NA,exp,NA,0,<img src='img/tf1_68_T1_ss1_md.jpeg'></img>,0,TRUE,NA,sub34
NA,html-keyboard-response,149,526631,0.0-10.0-0.68,"""event"",""trial"",""time""
""fullscreenenter"",""0"",""2944""
","
","
","""event"",""trial"",""time""
""fullscreenenter"",""0"",""2944""
","
",null,"<div style=""font-size:60px;"">+</div>",NA,null,fixation,2020-06-10T21:56:11Z,NA,NA,NA,NA,NA,sub34
NA,mars-trial,150,534304,0.0-10.0-1.68,"""event"",""trial"",""time""
""fullscreenenter"",""0"",""2944""
","
","
","""event"",""trial"",""time""
""fullscreenenter"",""0"",""2944""
","
",7064.0050000002375,<img style='border: 4px solid darkgrey;' src='img/tf1_69_M_ss2.jpeg'></img>,3,NA,exp,NA,1,<img src='img/tf1_69_T1_ss2_md.jpeg'></img>,0,FALSE,NA,sub34
NA,html-keyboard-response,151,534808,0.0-10.0-0.69,"""event"",""trial"",""time""
""fullscreenenter"",""0"",""2944""
","
","
","""event"",""trial"",""time""
""fullscreenenter"",""0"",""2944""
","
",null,"<div style=""font-size:60px;"">+</div>",NA,null,fixation,2020-06-10T21:56:19Z,NA,NA,NA,NA,NA,sub34
NA,mars-trial,152,540273,0.0-10.0-1.69,"""event"",""trial"",""time""
""fullscreenenter"",""0"",""2944""
","
","
","""event"",""trial"",""time""
""fullscreenenter"",""0"",""2944""
","
",4854.159999998985,<img style='border: 4px solid darkgrey;' src='img/tf1_70_M_ss3.jpeg'></img>,1,NA,exp,NA,0,<img src='img/tf1_70_T1_ss3_md.jpeg'></img>,0,TRUE,NA,sub34
NA,html-keyboard-response,153,540779,0.0-10.0-0.70,"""event"",""trial"",""time""
""fullscreenenter"",""0"",""2944""
","
","
","""event"",""trial"",""time""
""fullscreenenter"",""0"",""2944""
","
",null,"<div style=""font-size:60px;"">+</div>",NA,null,fixation,2020-06-10T21:56:25Z,NA,NA,NA,NA,NA,sub34
NA,mars-trial,154,541823,0.0-10.0-1.70,"""event"",""trial"",""time""
""fullscreenenter"",""0"",""2944""
","
","
","""event"",""trial"",""time""
""fullscreenenter"",""0"",""2944""
","
",NA,NA,NA,NA,exp,NA,NA,<img src='img/tf1_71_T1_ss1_md.jpeg'></img>,0,FALSE,NA,sub34
NA,html-keyboard-response,155,542326,0.0-10.0-0.71,"""event"",""trial"",""time""
""fullscreenenter"",""0"",""2944""
","
","
","""event"",""trial"",""time""
""fullscreenenter"",""0"",""2944""
","
",null,"<div style=""font-size:60px;"">+</div>",NA,null,fixation,2020-06-10T21:56:27Z,NA,NA,NA,NA,NA,sub34
NA,audio-button-response,156,544870,0.0-11.0,"""event"",""trial"",""time""
""fullscreenenter"",""0"",""2944""
","
","
","""event"",""trial"",""time""
""fullscreenenter"",""0"",""2944""
","
",2438.405000000843,audio/mars_instructions_slide5.wav,0,NA,NA,NA,NA,NA,NA,NA,NA,sub34
