success,trial_type,trial_index,time_elapsed,internal_node_id,interactions,blur_events,focus_events,fullscreenenter_events,fullscreenexit_events,rt,stimulus,button_pressed,key_press,part,timestamp,unshuffled_button,correct_response,correct_button,correct,value,subject_id
TRUE,fullscreen,0,5838,0.0-0.0,"""event"",""trial"",""time""
""fullscreenenter"",""0"",""4885""
","
","
","""event"",""trial"",""time""
""fullscreenenter"",""0"",""4885""
","
",NA,NA,NA,NA,NA,NA,NA,NA,NA,NA,NA,sub102
NA,pavlovia,1,5846,0.0-1.0,"""event"",""trial"",""time""
""fullscreenenter"",""0"",""4885""
","
","
","""event"",""trial"",""time""
""fullscreenenter"",""0"",""4885""
","
",NA,NA,NA,NA,NA,NA,NA,NA,NA,NA,NA,sub102
NA,html-button-response,2,6956,0.0-2.0,"""event"",""trial"",""time""
""fullscreenenter"",""0"",""4885""
","
","
","""event"",""trial"",""time""
""fullscreenenter"",""0"",""4885""
","
",1108.0150000052527,<p>Welcome! Press START to begin.</p><br>,0,NA,NA,NA,NA,NA,NA,NA,NA,sub102
NA,audio-button-response,3,10805,0.0-3.0,"""event"",""trial"",""time""
""fullscreenenter"",""0"",""4885""
","
","
","""event"",""trial"",""time""
""fullscreenenter"",""0"",""4885""
","
",3845.175000024028,audio/mars_instructions_slide2.wav,0,NA,NA,NA,NA,NA,NA,NA,NA,sub102
NA,audio-button-response,4,12361,0.0-4.0,"""event"",""trial"",""time""
""fullscreenenter"",""0"",""4885""
","
","
","""event"",""trial"",""time""
""fullscreenenter"",""0"",""4885""
","
",1558.4700000472367,audio/mars_instructions_slide3.wav,0,NA,NA,NA,NA,NA,NA,NA,NA,sub102
NA,html-keyboard-response,5,12867,0.0-5.0-0.0,"""event"",""trial"",""time""
""fullscreenenter"",""0"",""4885""
","
","
","""event"",""trial"",""time""
""fullscreenenter"",""0"",""4885""
","
",null,"<div style=""font-size:60px;"">+</div>",NA,null,fixation,2020-06-23T17:51:03Z,NA,NA,NA,NA,NA,sub102
NA,mars-trial,6,23374,0.0-5.0-1.0,"""event"",""trial"",""time""
""fullscreenenter"",""0"",""4885""
","
","
","""event"",""trial"",""time""
""fullscreenenter"",""0"",""4885""
","
",8387.244999990799,<img style='border: 4px solid darkgrey;' src='practice/pt1_M1.png'></img>,1,NA,practice,NA,2,<img src='practice/pt1_T1.png'></img>,0,FALSE,NA,sub102
NA,html-keyboard-response,7,23880,0.0-5.1-0.1,"""event"",""trial"",""time""
""fullscreenenter"",""0"",""4885""
","
","
","""event"",""trial"",""time""
""fullscreenenter"",""0"",""4885""
","
",null,"<div style=""font-size:60px;"">+</div>",NA,null,fixation,2020-06-23T17:51:14Z,NA,NA,NA,NA,NA,sub102
NA,mars-trial,8,28482,0.0-5.1-1.1,"""event"",""trial"",""time""
""fullscreenenter"",""0"",""4885""
","
","
","""event"",""trial"",""time""
""fullscreenenter"",""0"",""4885""
","
",2493.0549999698997,<img style='border: 4px solid darkgrey;' src='practice/pt1_M1.png'></img>,1,NA,practice,NA,0,<img src='practice/pt1_T1.png'></img>,0,TRUE,NA,sub102
NA,html-keyboard-response,9,28986,0.0-6.0-0.0,"""event"",""trial"",""time""
""fullscreenenter"",""0"",""4885""
","
","
","""event"",""trial"",""time""
""fullscreenenter"",""0"",""4885""
","
",null,"<div style=""font-size:60px;"">+</div>",NA,null,fixation,2020-06-23T17:51:19Z,NA,NA,NA,NA,NA,sub102
NA,mars-trial,10,33537,0.0-6.0-1.0,"""event"",""trial"",""time""
""fullscreenenter"",""0"",""4885""
","
","
","""event"",""trial"",""time""
""fullscreenenter"",""0"",""4885""
","
",2437.6450000563636,<img style='border: 4px solid darkgrey;' src='practice/pt2_M1.png'></img>,3,NA,practice,NA,0,<img src='practice/pt2_T1.png'></img>,0,TRUE,NA,sub102
NA,html-keyboard-response,11,34044,0.0-7.0-0.0,"""event"",""trial"",""time""
""fullscreenenter"",""0"",""4885""
","
","
","""event"",""trial"",""time""
""fullscreenenter"",""0"",""4885""
","
",null,"<div style=""font-size:60px;"">+</div>",NA,null,fixation,2020-06-23T17:51:24Z,NA,NA,NA,NA,NA,sub102
NA,mars-trial,12,37871,0.0-7.0-1.0,"""event"",""trial"",""time""
""fullscreenenter"",""0"",""4885""
","
","
","""event"",""trial"",""time""
""fullscreenenter"",""0"",""4885""
","
",1710.1399999810383,<img style='border: 4px solid darkgrey;' src='practice/pt3_M1.png'></img>,2,NA,practice,NA,0,<img src='practice/pt3_T1.png'></img>,0,TRUE,NA,sub102
NA,audio-button-response,13,43163,0.0-8.0,"""event"",""trial"",""time""
""fullscreenenter"",""0"",""4885""
","
","
","""event"",""trial"",""time""
""fullscreenenter"",""0"",""4885""
","
",5289.469999959692,audio/mars_instructions_slide4.wav,0,NA,NA,NA,NA,NA,NA,NA,NA,sub102
NA,call-function,14,43165,0.0-9.0,"""event"",""trial"",""time""
""fullscreenenter"",""0"",""4885""
","
","
","""event"",""trial"",""time""
""fullscreenenter"",""0"",""4885""
","
",NA,NA,NA,NA,NA,NA,NA,NA,NA,NA,NA,sub102
NA,html-keyboard-response,15,43674,0.0-10.0-0.0,"""event"",""trial"",""time""
""fullscreenenter"",""0"",""4885""
","
","
","""event"",""trial"",""time""
""fullscreenenter"",""0"",""4885""
","
",null,"<div style=""font-size:60px;"">+</div>",NA,null,fixation,2020-06-23T17:51:34Z,NA,NA,NA,NA,NA,sub102
NA,mars-trial,16,46391,0.0-10.0-1.0,"""event"",""trial"",""time""
""fullscreenenter"",""0"",""4885""
","
","
","""event"",""trial"",""time""
""fullscreenenter"",""0"",""4885""
","
",2100.109999999404,<img style='border: 4px solid darkgrey;' src='img/tf1_1_M_ss3.jpeg'></img>,2,NA,exp,NA,0,<img src='img/tf1_1_T1_ss3_md.jpeg'></img>,0,TRUE,NA,sub102
NA,html-keyboard-response,17,46894,0.0-10.0-0.1,"""event"",""trial"",""time""
""fullscreenenter"",""0"",""4885""
","
","
","""event"",""trial"",""time""
""fullscreenenter"",""0"",""4885""
","
",null,"<div style=""font-size:60px;"">+</div>",NA,null,fixation,2020-06-23T17:51:37Z,NA,NA,NA,NA,NA,sub102
NA,mars-trial,18,49385,0.0-10.0-1.1,"""event"",""trial"",""time""
""fullscreenenter"",""0"",""4885""
","
","
","""event"",""trial"",""time""
""fullscreenenter"",""0"",""4885""
","
",1878.0249999836087,<img style='border: 4px solid darkgrey;' src='img/tf1_2_M_ss1.jpeg'></img>,0,NA,exp,NA,0,<img src='img/tf1_2_T1_ss1_md.jpeg'></img>,0,TRUE,NA,sub102
NA,html-keyboard-response,19,49894,0.0-10.0-0.2,"""event"",""trial"",""time""
""fullscreenenter"",""0"",""4885""
","
","
","""event"",""trial"",""time""
""fullscreenenter"",""0"",""4885""
","
",null,"<div style=""font-size:60px;"">+</div>",NA,null,fixation,2020-06-23T17:51:40Z,NA,NA,NA,NA,NA,sub102
NA,mars-trial,20,53057,0.0-10.0-1.2,"""event"",""trial"",""time""
""fullscreenenter"",""0"",""4885""
","
","
","""event"",""trial"",""time""
""fullscreenenter"",""0"",""4885""
","
",2545.8099999232218,<img style='border: 4px solid darkgrey;' src='img/tf1_3_M_ss2.jpeg'></img>,2,NA,exp,NA,0,<img src='img/tf1_3_T1_ss2_md.jpeg'></img>,0,TRUE,NA,sub102
NA,html-keyboard-response,21,53565,0.0-10.0-0.3,"""event"",""trial"",""time""
""fullscreenenter"",""0"",""4885""
","
","
","""event"",""trial"",""time""
""fullscreenenter"",""0"",""4885""
","
",null,"<div style=""font-size:60px;"">+</div>",NA,null,fixation,2020-06-23T17:51:44Z,NA,NA,NA,NA,NA,sub102
NA,mars-trial,22,57903,0.0-10.0-1.3,"""event"",""trial"",""time""
""fullscreenenter"",""0"",""4885""
","
","
","""event"",""trial"",""time""
""fullscreenenter"",""0"",""4885""
","
",3713.994999998249,<img style='border: 4px solid darkgrey;' src='img/tf1_4_M_ss3.jpeg'></img>,1,NA,exp,NA,3,<img src='img/tf1_4_T1_ss3_md.jpeg'></img>,0,FALSE,NA,sub102
NA,html-keyboard-response,23,58409,0.0-10.0-0.4,"""event"",""trial"",""time""
""fullscreenenter"",""0"",""4885""
","
","
","""event"",""trial"",""time""
""fullscreenenter"",""0"",""4885""
","
",null,"<div style=""font-size:60px;"">+</div>",NA,null,fixation,2020-06-23T17:51:49Z,NA,NA,NA,NA,NA,sub102
NA,mars-trial,24,60869,0.0-10.0-1.4,"""event"",""trial"",""time""
""fullscreenenter"",""0"",""4885""
","
","
","""event"",""trial"",""time""
""fullscreenenter"",""0"",""4885""
","
",1842.0400000177324,<img style='border: 4px solid darkgrey;' src='img/tf1_5_M_ss1.jpeg'></img>,0,NA,exp,NA,0,<img src='img/tf1_5_T1_ss1_md.jpeg'></img>,0,TRUE,NA,sub102
NA,html-keyboard-response,25,61376,0.0-10.0-0.5,"""event"",""trial"",""time""
""fullscreenenter"",""0"",""4885""
","
","
","""event"",""trial"",""time""
""fullscreenenter"",""0"",""4885""
","
",null,"<div style=""font-size:60px;"">+</div>",NA,null,fixation,2020-06-23T17:51:52Z,NA,NA,NA,NA,NA,sub102
NA,mars-trial,26,67905,0.0-10.0-1.5,"""event"",""trial"",""time""
""fullscreenenter"",""0"",""4885""
","
","
","""event"",""trial"",""time""
""fullscreenenter"",""0"",""4885""
","
",5910.254999995232,<img style='border: 4px solid darkgrey;' src='img/tf1_6_M_ss2.jpeg'></img>,3,NA,exp,NA,3,<img src='img/tf1_6_T1_ss2_md.jpeg'></img>,0,FALSE,NA,sub102
NA,html-keyboard-response,27,68412,0.0-10.0-0.6,"""event"",""trial"",""time""
""fullscreenenter"",""0"",""4885""
","
","
","""event"",""trial"",""time""
""fullscreenenter"",""0"",""4885""
","
",null,"<div style=""font-size:60px;"">+</div>",NA,null,fixation,2020-06-23T17:51:59Z,NA,NA,NA,NA,NA,sub102
NA,mars-trial,28,73069,0.0-10.0-1.6,"""event"",""trial"",""time""
""fullscreenenter"",""0"",""4885""
","
","
","""event"",""trial"",""time""
""fullscreenenter"",""0"",""4885""
","
",4041.8599999975413,<img style='border: 4px solid darkgrey;' src='img/tf1_7_M_ss3.jpeg'></img>,3,NA,exp,NA,0,<img src='img/tf1_7_T1_ss3_md.jpeg'></img>,0,TRUE,NA,sub102
NA,html-keyboard-response,29,73578,0.0-10.0-0.7,"""event"",""trial"",""time""
""fullscreenenter"",""0"",""4885""
","
","
","""event"",""trial"",""time""
""fullscreenenter"",""0"",""4885""
","
",null,"<div style=""font-size:60px;"">+</div>",NA,null,fixation,2020-06-23T17:52:04Z,NA,NA,NA,NA,NA,sub102
NA,mars-trial,30,78838,0.0-10.0-1.7,"""event"",""trial"",""time""
""fullscreenenter"",""0"",""4885""
","
","
","""event"",""trial"",""time""
""fullscreenenter"",""0"",""4885""
","
",4649.970000027679,<img style='border: 4px solid darkgrey;' src='img/tf1_8_M_ss1.jpeg'></img>,3,NA,exp,NA,1,<img src='img/tf1_8_T1_ss1_md.jpeg'></img>,0,FALSE,NA,sub102
NA,html-keyboard-response,31,79342,0.0-10.0-0.8,"""event"",""trial"",""time""
""fullscreenenter"",""0"",""4885""
","
","
","""event"",""trial"",""time""
""fullscreenenter"",""0"",""4885""
","
",null,"<div style=""font-size:60px;"">+</div>",NA,null,fixation,2020-06-23T17:52:10Z,NA,NA,NA,NA,NA,sub102
NA,mars-trial,32,83335,0.0-10.0-1.8,"""event"",""trial"",""time""
""fullscreenenter"",""0"",""4885""
","
","
","""event"",""trial"",""time""
""fullscreenenter"",""0"",""4885""
","
",3379.4450000859797,<img style='border: 4px solid darkgrey;' src='img/tf1_9_M_ss2.jpeg'></img>,2,NA,exp,NA,0,<img src='img/tf1_9_T1_ss2_md.jpeg'></img>,0,TRUE,NA,sub102
NA,html-keyboard-response,33,83840,0.0-10.0-0.9,"""event"",""trial"",""time""
""fullscreenenter"",""0"",""4885""
","
","
","""event"",""trial"",""time""
""fullscreenenter"",""0"",""4885""
","
",null,"<div style=""font-size:60px;"">+</div>",NA,null,fixation,2020-06-23T17:52:14Z,NA,NA,NA,NA,NA,sub102
NA,mars-trial,34,94127,0.0-10.0-1.9,"""event"",""trial"",""time""
""fullscreenenter"",""0"",""4885""
","
","
","""event"",""trial"",""time""
""fullscreenenter"",""0"",""4885""
","
",9674.274999997579,<img style='border: 4px solid darkgrey;' src='img/tf1_10_M_ss3.jpeg'></img>,3,NA,exp,NA,1,<img src='img/tf1_10_T1_ss3_md.jpeg'></img>,0,FALSE,NA,sub102
NA,html-keyboard-response,35,94630,0.0-10.0-0.10,"""event"",""trial"",""time""
""fullscreenenter"",""0"",""4885""
","
","
","""event"",""trial"",""time""
""fullscreenenter"",""0"",""4885""
","
",null,"<div style=""font-size:60px;"">+</div>",NA,null,fixation,2020-06-23T17:52:25Z,NA,NA,NA,NA,NA,sub102
NA,mars-trial,36,107123,0.0-10.0-1.10,"""event"",""trial"",""time""
""fullscreenenter"",""0"",""4885""
","
","
","""event"",""trial"",""time""
""fullscreenenter"",""0"",""4885""
","
",11880.494999932125,<img style='border: 4px solid darkgrey;' src='img/tf1_11_M_ss1.jpeg'></img>,1,NA,exp,NA,1,<img src='img/tf1_11_T1_ss1_md.jpeg'></img>,0,FALSE,NA,sub102
NA,html-keyboard-response,37,107630,0.0-10.0-0.11,"""event"",""trial"",""time""
""fullscreenenter"",""0"",""4885""
","
","
","""event"",""trial"",""time""
""fullscreenenter"",""0"",""4885""
","
",null,"<div style=""font-size:60px;"">+</div>",NA,null,fixation,2020-06-23T17:52:38Z,NA,NA,NA,NA,NA,sub102
NA,mars-trial,38,114754,0.0-10.0-1.11,"""event"",""trial"",""time""
""fullscreenenter"",""0"",""4885""
","
","
","""event"",""trial"",""time""
""fullscreenenter"",""0"",""4885""
","
",6510.9250000678,<img style='border: 4px solid darkgrey;' src='img/tf1_12_M_ss2.jpeg'></img>,0,NA,exp,NA,3,<img src='img/tf1_12_T1_ss2_md.jpeg'></img>,0,FALSE,NA,sub102
NA,html-keyboard-response,39,115264,0.0-10.0-0.12,"""event"",""trial"",""time""
""fullscreenenter"",""0"",""4885""
","
","
","""event"",""trial"",""time""
""fullscreenenter"",""0"",""4885""
","
",null,"<div style=""font-size:60px;"">+</div>",NA,null,fixation,2020-06-23T17:52:46Z,NA,NA,NA,NA,NA,sub102
NA,mars-trial,40,121612,0.0-10.0-1.12,"""event"",""trial"",""time""
""fullscreenenter"",""0"",""4885""
","
","
","""event"",""trial"",""time""
""fullscreenenter"",""0"",""4885""
","
",5730.809999979101,<img style='border: 4px solid darkgrey;' src='img/tf1_13_M_ss3.jpeg'></img>,0,NA,exp,NA,2,<img src='img/tf1_13_T1_ss3_md.jpeg'></img>,0,FALSE,NA,sub102
NA,html-keyboard-response,41,122119,0.0-10.0-0.13,"""event"",""trial"",""time""
""fullscreenenter"",""0"",""4885""
","
","
","""event"",""trial"",""time""
""fullscreenenter"",""0"",""4885""
","
",null,"<div style=""font-size:60px;"">+</div>",NA,null,fixation,2020-06-23T17:52:52Z,NA,NA,NA,NA,NA,sub102
NA,mars-trial,42,125913,0.0-10.0-1.13,"""event"",""trial"",""time""
""fullscreenenter"",""0"",""4885""
","
","
","""event"",""trial"",""time""
""fullscreenenter"",""0"",""4885""
","
",3178.414999973029,<img style='border: 4px solid darkgrey;' src='img/tf1_14_M_ss1.jpeg'></img>,1,NA,exp,NA,0,<img src='img/tf1_14_T1_ss1_md.jpeg'></img>,0,TRUE,NA,sub102
NA,html-keyboard-response,43,126417,0.0-10.0-0.14,"""event"",""trial"",""time""
""fullscreenenter"",""0"",""4885""
","
","
","""event"",""trial"",""time""
""fullscreenenter"",""0"",""4885""
","
",null,"<div style=""font-size:60px;"">+</div>",NA,null,fixation,2020-06-23T17:52:57Z,NA,NA,NA,NA,NA,sub102
NA,mars-trial,44,141761,0.0-10.0-1.14,"""event"",""trial"",""time""
""fullscreenenter"",""0"",""4885""
","
","
","""event"",""trial"",""time""
""fullscreenenter"",""0"",""4885""
","
",14715.525000006892,<img style='border: 4px solid darkgrey;' src='img/tf1_15_M_ss2.jpeg'></img>,1,NA,exp,NA,1,<img src='img/tf1_15_T1_ss2_md.jpeg'></img>,0,FALSE,NA,sub102
NA,html-keyboard-response,45,142270,0.0-10.0-0.15,"""event"",""trial"",""time""
""fullscreenenter"",""0"",""4885""
","
","
","""event"",""trial"",""time""
""fullscreenenter"",""0"",""4885""
","
",null,"<div style=""font-size:60px;"">+</div>",NA,null,fixation,2020-06-23T17:53:13Z,NA,NA,NA,NA,NA,sub102
NA,mars-trial,46,153275,0.0-10.0-1.15,"""event"",""trial"",""time""
""fullscreenenter"",""0"",""4885""
","
","
","""event"",""trial"",""time""
""fullscreenenter"",""0"",""4885""
","
",10383.239999995567,<img style='border: 4px solid darkgrey;' src='img/tf1_16_M_ss3.jpeg'></img>,2,NA,exp,NA,1,<img src='img/tf1_16_T1_ss3_md.jpeg'></img>,0,FALSE,NA,sub102
NA,html-keyboard-response,47,153778,0.0-10.0-0.16,"""event"",""trial"",""time""
""fullscreenenter"",""0"",""4885""
","
","
","""event"",""trial"",""time""
""fullscreenenter"",""0"",""4885""
","
",null,"<div style=""font-size:60px;"">+</div>",NA,null,fixation,2020-06-23T17:53:24Z,NA,NA,NA,NA,NA,sub102
NA,mars-trial,48,172444,0.0-10.0-1.16,"""event"",""trial"",""time""
""fullscreenenter"",""0"",""4885""
","
","
","""event"",""trial"",""time""
""fullscreenenter"",""0"",""4885""
","
",18052.27499990724,<img style='border: 4px solid darkgrey;' src='img/tf1_17_M_ss1.jpeg'></img>,1,NA,exp,NA,0,<img src='img/tf1_17_T1_ss1_md.jpeg'></img>,0,TRUE,NA,sub102
NA,html-keyboard-response,49,172950,0.0-10.0-0.17,"""event"",""trial"",""time""
""fullscreenenter"",""0"",""4885""
","
","
","""event"",""trial"",""time""
""fullscreenenter"",""0"",""4885""
","
",null,"<div style=""font-size:60px;"">+</div>",NA,null,fixation,2020-06-23T17:53:43Z,NA,NA,NA,NA,NA,sub102
NA,mars-trial,50,182074,0.0-10.0-1.17,"""event"",""trial"",""time""
""fullscreenenter"",""0"",""4885""
","
","
","""event"",""trial"",""time""
""fullscreenenter"",""0"",""4885""
","
",8510.144999949262,<img style='border: 4px solid darkgrey;' src='img/tf1_18_M_ss2.jpeg'></img>,0,NA,exp,NA,3,<img src='img/tf1_18_T1_ss2_md.jpeg'></img>,0,FALSE,NA,sub102
NA,html-keyboard-response,51,182583,0.0-10.0-0.18,"""event"",""trial"",""time""
""fullscreenenter"",""0"",""4885""
","
","
","""event"",""trial"",""time""
""fullscreenenter"",""0"",""4885""
","
",null,"<div style=""font-size:60px;"">+</div>",NA,null,fixation,2020-06-23T17:53:53Z,NA,NA,NA,NA,NA,sub102
NA,mars-trial,52,189213,0.0-10.0-1.18,"""event"",""trial"",""time""
""fullscreenenter"",""0"",""4885""
","
","
","""event"",""trial"",""time""
""fullscreenenter"",""0"",""4885""
","
",6017.660000012256,<img style='border: 4px solid darkgrey;' src='img/tf1_19_M_ss3.jpeg'></img>,3,NA,exp,NA,1,<img src='img/tf1_19_T1_ss3_md.jpeg'></img>,0,FALSE,NA,sub102
NA,html-keyboard-response,53,189715,0.0-10.0-0.19,"""event"",""trial"",""time""
""fullscreenenter"",""0"",""4885""
","
","
","""event"",""trial"",""time""
""fullscreenenter"",""0"",""4885""
","
",null,"<div style=""font-size:60px;"">+</div>",NA,null,fixation,2020-06-23T17:54:00Z,NA,NA,NA,NA,NA,sub102
NA,mars-trial,54,191881,0.0-10.0-1.19,"""event"",""trial"",""time""
""fullscreenenter"",""0"",""4885""
","
","
","""event"",""trial"",""time""
""fullscreenenter"",""0"",""4885""
","
",1550.334999919869,<img style='border: 4px solid darkgrey;' src='img/tf1_20_M_ss1.jpeg'></img>,2,NA,exp,NA,1,<img src='img/tf1_20_T1_ss1_md.jpeg'></img>,0,FALSE,NA,sub102
NA,html-keyboard-response,55,192390,0.0-10.0-0.20,"""event"",""trial"",""time""
""fullscreenenter"",""0"",""4885""
","
","
","""event"",""trial"",""time""
""fullscreenenter"",""0"",""4885""
","
",null,"<div style=""font-size:60px;"">+</div>",NA,null,fixation,2020-06-23T17:54:03Z,NA,NA,NA,NA,NA,sub102
NA,mars-trial,56,193462,0.0-10.0-1.20,"""event"",""trial"",""time""
""fullscreenenter"",""0"",""4885""
","
","
","""event"",""trial"",""time""
""fullscreenenter"",""0"",""4885""
","
",462.2349999845028,<img style='border: 4px solid darkgrey;' src='img/tf1_21_M_ss2.jpeg'></img>,3,NA,exp,NA,3,<img src='img/tf1_21_T1_ss2_md.jpeg'></img>,0,FALSE,NA,sub102
NA,html-keyboard-response,57,193967,0.0-10.0-0.21,"""event"",""trial"",""time""
""fullscreenenter"",""0"",""4885""
","
","
","""event"",""trial"",""time""
""fullscreenenter"",""0"",""4885""
","
",null,"<div style=""font-size:60px;"">+</div>",NA,null,fixation,2020-06-23T17:54:04Z,NA,NA,NA,NA,NA,sub102
NA,mars-trial,58,195072,0.0-10.0-1.21,"""event"",""trial"",""time""
""fullscreenenter"",""0"",""4885""
","
","
","""event"",""trial"",""time""
""fullscreenenter"",""0"",""4885""
","
",495.35500002093613,<img style='border: 4px solid darkgrey;' src='img/tf1_22_M_ss3.jpeg'></img>,1,NA,exp,NA,1,<img src='img/tf1_22_T1_ss3_md.jpeg'></img>,0,FALSE,NA,sub102
NA,html-keyboard-response,59,195581,0.0-10.0-0.22,"""event"",""trial"",""time""
""fullscreenenter"",""0"",""4885""
","
","
","""event"",""trial"",""time""
""fullscreenenter"",""0"",""4885""
","
",null,"<div style=""font-size:60px;"">+</div>",NA,null,fixation,2020-06-23T17:54:06Z,NA,NA,NA,NA,NA,sub102
NA,mars-trial,60,196694,0.0-10.0-1.22,"""event"",""trial"",""time""
""fullscreenenter"",""0"",""4885""
","
","
","""event"",""trial"",""time""
""fullscreenenter"",""0"",""4885""
","
",498.6750000389293,<img style='border: 4px solid darkgrey;' src='img/tf1_23_M_ss1.jpeg'></img>,2,NA,exp,NA,0,<img src='img/tf1_23_T1_ss1_md.jpeg'></img>,0,TRUE,NA,sub102
NA,html-keyboard-response,61,197196,0.0-10.0-0.23,"""event"",""trial"",""time""
""fullscreenenter"",""0"",""4885""
","
","
","""event"",""trial"",""time""
""fullscreenenter"",""0"",""4885""
","
",null,"<div style=""font-size:60px;"">+</div>",NA,null,fixation,2020-06-23T17:54:07Z,NA,NA,NA,NA,NA,sub102
NA,mars-trial,62,217702,0.0-10.0-1.23,"""event"",""trial"",""time""
""fullscreenenter"",""0"",""4885""
","
","
","""event"",""trial"",""time""
""fullscreenenter"",""0"",""4885""
","
",19891.379999928176,<img style='border: 4px solid darkgrey;' src='img/tf1_24_M_ss2.jpeg'></img>,3,NA,exp,NA,1,<img src='img/tf1_24_T1_ss2_md.jpeg'></img>,0,FALSE,NA,sub102
NA,html-keyboard-response,63,218205,0.0-10.0-0.24,"""event"",""trial"",""time""
""fullscreenenter"",""0"",""4885""
","
","
","""event"",""trial"",""time""
""fullscreenenter"",""0"",""4885""
","
",null,"<div style=""font-size:60px;"">+</div>",NA,null,fixation,2020-06-23T17:54:28Z,NA,NA,NA,NA,NA,sub102
NA,mars-trial,64,241047,0.0-10.0-1.24,"""event"",""trial"",""time""
""fullscreenenter"",""0"",""4885""
","
","
","""event"",""trial"",""time""
""fullscreenenter"",""0"",""4885""
","
",22223.950000014156,<img style='border: 4px solid darkgrey;' src='img/tf1_25_M_ss3.jpeg'></img>,0,NA,exp,NA,3,<img src='img/tf1_25_T1_ss3_md.jpeg'></img>,0,FALSE,NA,sub102
NA,html-keyboard-response,65,241556,0.0-10.0-0.25,"""event"",""trial"",""time""
""fullscreenenter"",""0"",""4885""
","
","
","""event"",""trial"",""time""
""fullscreenenter"",""0"",""4885""
","
",null,"<div style=""font-size:60px;"">+</div>",NA,null,fixation,2020-06-23T17:54:52Z,NA,NA,NA,NA,NA,sub102
NA,mars-trial,66,243103,0.0-10.0-1.25,"""event"",""trial"",""time""
""fullscreenenter"",""0"",""4885""
","
","
","""event"",""trial"",""time""
""fullscreenenter"",""0"",""4885""
","
",937.8199999919161,<img style='border: 4px solid darkgrey;' src='img/tf1_26_M_ss1.jpeg'></img>,3,NA,exp,NA,3,<img src='img/tf1_26_T1_ss1_md.jpeg'></img>,0,FALSE,NA,sub102
NA,html-keyboard-response,67,243609,0.0-10.0-0.26,"""event"",""trial"",""time""
""fullscreenenter"",""0"",""4885""
","
","
","""event"",""trial"",""time""
""fullscreenenter"",""0"",""4885""
","
",null,"<div style=""font-size:60px;"">+</div>",NA,null,fixation,2020-06-23T17:54:54Z,NA,NA,NA,NA,NA,sub102
NA,mars-trial,68,257946,0.0-10.0-1.26,"""event"",""trial"",""time""
""fullscreenenter"",""0"",""4885""
","
","
","""event"",""trial"",""time""
""fullscreenenter"",""0"",""4885""
","
",13722.855000058189,<img style='border: 4px solid darkgrey;' src='img/tf1_27_M_ss2.jpeg'></img>,2,NA,exp,NA,1,<img src='img/tf1_27_T1_ss2_md.jpeg'></img>,0,FALSE,NA,sub102
NA,html-keyboard-response,69,258450,0.0-10.0-0.27,"""event"",""trial"",""time""
""fullscreenenter"",""0"",""4885""
","
","
","""event"",""trial"",""time""
""fullscreenenter"",""0"",""4885""
","
",null,"<div style=""font-size:60px;"">+</div>",NA,null,fixation,2020-06-23T17:55:09Z,NA,NA,NA,NA,NA,sub102
NA,mars-trial,70,284908,0.0-10.0-1.27,"""event"",""trial"",""time""
""fullscreenenter"",""0"",""4885""
","
","
","""event"",""trial"",""time""
""fullscreenenter"",""0"",""4885""
","
",25846.09000000637,<img style='border: 4px solid darkgrey;' src='img/tf1_28_M_ss3.jpeg'></img>,2,NA,exp,NA,1,<img src='img/tf1_28_T1_ss3_md.jpeg'></img>,0,FALSE,NA,sub102
NA,html-keyboard-response,71,285416,0.0-10.0-0.28,"""event"",""trial"",""time""
""fullscreenenter"",""0"",""4885""
","
","
","""event"",""trial"",""time""
""fullscreenenter"",""0"",""4885""
","
",null,"<div style=""font-size:60px;"">+</div>",NA,null,fixation,2020-06-23T17:55:36Z,NA,NA,NA,NA,NA,sub102
NA,mars-trial,72,300589,0.0-10.0-1.28,"""event"",""trial"",""time""
""fullscreenenter"",""0"",""4885""
","
","
","""event"",""trial"",""time""
""fullscreenenter"",""0"",""4885""
","
",14561.300000059418,<img style='border: 4px solid darkgrey;' src='img/tf1_29_M_ss1.jpeg'></img>,3,NA,exp,NA,1,<img src='img/tf1_29_T1_ss1_md.jpeg'></img>,0,FALSE,NA,sub102
NA,html-keyboard-response,73,301093,0.0-10.0-0.29,"""event"",""trial"",""time""
""fullscreenenter"",""0"",""4885""
","
","
","""event"",""trial"",""time""
""fullscreenenter"",""0"",""4885""
","
",null,"<div style=""font-size:60px;"">+</div>",NA,null,fixation,2020-06-23T17:55:51Z,NA,NA,NA,NA,NA,sub102
NA,mars-trial,74,307385,0.0-10.0-1.29,"""event"",""trial"",""time""
""fullscreenenter"",""0"",""4885""
","
","
","""event"",""trial"",""time""
""fullscreenenter"",""0"",""4885""
","
",5680.069999885745,<img style='border: 4px solid darkgrey;' src='img/tf1_30_M_ss2.jpeg'></img>,2,NA,exp,NA,2,<img src='img/tf1_30_T1_ss2_md.jpeg'></img>,0,FALSE,NA,sub102
NA,html-keyboard-response,75,307892,0.0-10.0-0.30,"""event"",""trial"",""time""
""fullscreenenter"",""0"",""4885""
","
","
","""event"",""trial"",""time""
""fullscreenenter"",""0"",""4885""
","
",null,"<div style=""font-size:60px;"">+</div>",NA,null,fixation,2020-06-23T17:55:58Z,NA,NA,NA,NA,NA,sub102
NA,mars-trial,76,326296,0.0-10.0-1.30,"""event"",""trial"",""time""
""fullscreenenter"",""0"",""4885""
","
","
","""event"",""trial"",""time""
""fullscreenenter"",""0"",""4885""
","
",17798.444999963976,<img style='border: 4px solid darkgrey;' src='img/tf1_31_M_ss3.jpeg'></img>,1,NA,exp,NA,0,<img src='img/tf1_31_T1_ss3_md.jpeg'></img>,0,TRUE,NA,sub102
NA,html-keyboard-response,77,326801,0.0-10.0-0.31,"""event"",""trial"",""time""
""fullscreenenter"",""0"",""4885""
","
","
","""event"",""trial"",""time""
""fullscreenenter"",""0"",""4885""
","
",null,"<div style=""font-size:60px;"">+</div>",NA,null,fixation,2020-06-23T17:56:17Z,NA,NA,NA,NA,NA,sub102
NA,mars-trial,78,338949,0.0-10.0-1.31,"""event"",""trial"",""time""
""fullscreenenter"",""0"",""4885""
","
","
","""event"",""trial"",""time""
""fullscreenenter"",""0"",""4885""
","
",11528.225000016391,<img style='border: 4px solid darkgrey;' src='img/tf1_32_M_ss1.jpeg'></img>,1,NA,exp,NA,0,<img src='img/tf1_32_T1_ss1_md.jpeg'></img>,0,TRUE,NA,sub102
NA,html-keyboard-response,79,339455,0.0-10.0-0.32,"""event"",""trial"",""time""
""fullscreenenter"",""0"",""4885""
","
","
","""event"",""trial"",""time""
""fullscreenenter"",""0"",""4885""
","
",null,"<div style=""font-size:60px;"">+</div>",NA,null,fixation,2020-06-23T17:56:30Z,NA,NA,NA,NA,NA,sub102
NA,mars-trial,80,345568,0.0-10.0-1.32,"""event"",""trial"",""time""
""fullscreenenter"",""0"",""4885""
","
","
","""event"",""trial"",""time""
""fullscreenenter"",""0"",""4885""
","
",5501.600000075996,<img style='border: 4px solid darkgrey;' src='img/tf1_33_M_ss2.jpeg'></img>,3,NA,exp,NA,0,<img src='img/tf1_33_T1_ss2_md.jpeg'></img>,0,TRUE,NA,sub102
NA,html-keyboard-response,81,346070,0.0-10.0-0.33,"""event"",""trial"",""time""
""fullscreenenter"",""0"",""4885""
","
","
","""event"",""trial"",""time""
""fullscreenenter"",""0"",""4885""
","
",null,"<div style=""font-size:60px;"">+</div>",NA,null,fixation,2020-06-23T17:56:36Z,NA,NA,NA,NA,NA,sub102
NA,mars-trial,82,363327,0.0-10.0-1.33,"""event"",""trial"",""time""
""fullscreenenter"",""0"",""4885""
","
","
","""event"",""trial"",""time""
""fullscreenenter"",""0"",""4885""
","
",16640.710000065155,<img style='border: 4px solid darkgrey;' src='img/tf1_34_M_ss3.jpeg'></img>,2,NA,exp,NA,1,<img src='img/tf1_34_T1_ss3_md.jpeg'></img>,0,FALSE,NA,sub102
NA,html-keyboard-response,83,363834,0.0-10.0-0.34,"""event"",""trial"",""time""
""fullscreenenter"",""0"",""4885""
","
","
","""event"",""trial"",""time""
""fullscreenenter"",""0"",""4885""
","
",null,"<div style=""font-size:60px;"">+</div>",NA,null,fixation,2020-06-23T17:56:54Z,NA,NA,NA,NA,NA,sub102
NA,mars-trial,84,386533,0.0-10.0-1.34,"""event"",""trial"",""time""
""fullscreenenter"",""0"",""4885""
","
","
","""event"",""trial"",""time""
""fullscreenenter"",""0"",""4885""
","
",22078.26500001829,<img style='border: 4px solid darkgrey;' src='img/tf1_35_M_ss1.jpeg'></img>,1,NA,exp,NA,3,<img src='img/tf1_35_T1_ss1_md.jpeg'></img>,0,FALSE,NA,sub102
NA,html-keyboard-response,85,387036,0.0-10.0-0.35,"""event"",""trial"",""time""
""fullscreenenter"",""0"",""4885""
","
","
","""event"",""trial"",""time""
""fullscreenenter"",""0"",""4885""
","
",null,"<div style=""font-size:60px;"">+</div>",NA,null,fixation,2020-06-23T17:57:17Z,NA,NA,NA,NA,NA,sub102
NA,mars-trial,86,398683,0.0-10.0-1.35,"""event"",""trial"",""time""
""fullscreenenter"",""0"",""4885""
","
","
","""event"",""trial"",""time""
""fullscreenenter"",""0"",""4885""
","
",11036.635000025854,<img style='border: 4px solid darkgrey;' src='img/tf1_36_M_ss2.jpeg'></img>,0,NA,exp,NA,3,<img src='img/tf1_36_T1_ss2_md.jpeg'></img>,0,FALSE,NA,sub102
NA,html-keyboard-response,87,399192,0.0-10.0-0.36,"""event"",""trial"",""time""
""fullscreenenter"",""0"",""4885""
","
","
","""event"",""trial"",""time""
""fullscreenenter"",""0"",""4885""
","
",null,"<div style=""font-size:60px;"">+</div>",NA,null,fixation,2020-06-23T17:57:29Z,NA,NA,NA,NA,NA,sub102
NA,mars-trial,88,426759,0.0-10.0-1.36,"""event"",""trial"",""time""
""fullscreenenter"",""0"",""4885""
","
","
","""event"",""trial"",""time""
""fullscreenenter"",""0"",""4885""
","
",26951.255000079982,<img style='border: 4px solid darkgrey;' src='img/tf1_37_M_ss3.jpeg'></img>,0,NA,exp,NA,0,<img src='img/tf1_37_T1_ss3_md.jpeg'></img>,0,TRUE,NA,sub102
NA,html-keyboard-response,89,427267,0.0-10.0-0.37,"""event"",""trial"",""time""
""fullscreenenter"",""0"",""4885""
","
","
","""event"",""trial"",""time""
""fullscreenenter"",""0"",""4885""
","
",null,"<div style=""font-size:60px;"">+</div>",NA,null,fixation,2020-06-23T17:57:58Z,NA,NA,NA,NA,NA,sub102
NA,mars-trial,90,433183,0.0-10.0-1.37,"""event"",""trial"",""time""
""fullscreenenter"",""0"",""4885""
","
","
","""event"",""trial"",""time""
""fullscreenenter"",""0"",""4885""
","
",5299.604999949224,<img style='border: 4px solid darkgrey;' src='img/tf1_38_M_ss1.jpeg'></img>,2,NA,exp,NA,0,<img src='img/tf1_38_T1_ss1_md.jpeg'></img>,0,TRUE,NA,sub102
NA,html-keyboard-response,91,433692,0.0-10.0-0.38,"""event"",""trial"",""time""
""fullscreenenter"",""0"",""4885""
","
","
","""event"",""trial"",""time""
""fullscreenenter"",""0"",""4885""
","
",null,"<div style=""font-size:60px;"">+</div>",NA,null,fixation,2020-06-23T17:58:04Z,NA,NA,NA,NA,NA,sub102
NA,mars-trial,92,444223,0.0-10.0-1.38,"""event"",""trial"",""time""
""fullscreenenter"",""0"",""4885""
","
","
","""event"",""trial"",""time""
""fullscreenenter"",""0"",""4885""
","
",9911.994999973103,<img style='border: 4px solid darkgrey;' src='img/tf1_39_M_ss2.jpeg'></img>,0,NA,exp,NA,0,<img src='img/tf1_39_T1_ss2_md.jpeg'></img>,0,TRUE,NA,sub102
NA,html-keyboard-response,93,444728,0.0-10.0-0.39,"""event"",""trial"",""time""
""fullscreenenter"",""0"",""4885""
","
","
","""event"",""trial"",""time""
""fullscreenenter"",""0"",""4885""
","
",null,"<div style=""font-size:60px;"">+</div>",NA,null,fixation,2020-06-23T17:58:15Z,NA,NA,NA,NA,NA,sub102
NA,mars-trial,94,454694,0.0-10.0-1.39,"""event"",""trial"",""time""
""fullscreenenter"",""0"",""4885""
","
","
","""event"",""trial"",""time""
""fullscreenenter"",""0"",""4885""
","
",9358.074999996461,<img style='border: 4px solid darkgrey;' src='img/tf1_40_M_ss3.jpeg'></img>,3,NA,exp,NA,0,<img src='img/tf1_40_T1_ss3_md.jpeg'></img>,0,TRUE,NA,sub102
NA,html-keyboard-response,95,455202,0.0-10.0-0.40,"""event"",""trial"",""time""
""fullscreenenter"",""0"",""4885""
","
","
","""event"",""trial"",""time""
""fullscreenenter"",""0"",""4885""
","
",null,"<div style=""font-size:60px;"">+</div>",NA,null,fixation,2020-06-23T17:58:25Z,NA,NA,NA,NA,NA,sub102
NA,mars-trial,96,460927,0.0-10.0-1.40,"""event"",""trial"",""time""
""fullscreenenter"",""0"",""4885""
","
","
","""event"",""trial"",""time""
""fullscreenenter"",""0"",""4885""
","
",5112.135000061244,<img style='border: 4px solid darkgrey;' src='img/tf1_41_M_ss1.jpeg'></img>,2,NA,exp,NA,0,<img src='img/tf1_41_T1_ss1_md.jpeg'></img>,0,TRUE,NA,sub102
NA,html-keyboard-response,97,461432,0.0-10.0-0.41,"""event"",""trial"",""time""
""fullscreenenter"",""0"",""4885""
","
","
","""event"",""trial"",""time""
""fullscreenenter"",""0"",""4885""
","
",null,"<div style=""font-size:60px;"">+</div>",NA,null,fixation,2020-06-23T17:58:32Z,NA,NA,NA,NA,NA,sub102
NA,mars-trial,98,473468,0.0-10.0-1.41,"""event"",""trial"",""time""
""fullscreenenter"",""0"",""4885""
","
","
","""event"",""trial"",""time""
""fullscreenenter"",""0"",""4885""
","
",11424.609999987297,<img style='border: 4px solid darkgrey;' src='img/tf1_42_M_ss2.jpeg'></img>,0,NA,exp,NA,0,<img src='img/tf1_42_T1_ss2_md.jpeg'></img>,0,TRUE,NA,sub102
NA,html-keyboard-response,99,473977,0.0-10.0-0.42,"""event"",""trial"",""time""
""fullscreenenter"",""0"",""4885""
","
","
","""event"",""trial"",""time""
""fullscreenenter"",""0"",""4885""
","
",null,"<div style=""font-size:60px;"">+</div>",NA,null,fixation,2020-06-23T17:58:44Z,NA,NA,NA,NA,NA,sub102
NA,mars-trial,100,504089,0.0-10.0-1.42,"""event"",""trial"",""time""
""fullscreenenter"",""0"",""4885""
","
","
","""event"",""trial"",""time""
""fullscreenenter"",""0"",""4885""
","
",null,<img style='border: 4px solid darkgrey;' src='img/tf1_43_M_ss3.jpeg'></img>,null,NA,exp,NA,null,<img src='img/tf1_43_T1_ss3_md.jpeg'></img>,0,FALSE,NA,sub102
NA,html-keyboard-response,101,504596,0.0-10.0-0.43,"""event"",""trial"",""time""
""fullscreenenter"",""0"",""4885""
","
","
","""event"",""trial"",""time""
""fullscreenenter"",""0"",""4885""
","
",null,"<div style=""font-size:60px;"">+</div>",NA,null,fixation,2020-06-23T17:59:15Z,NA,NA,NA,NA,NA,sub102
NA,mars-trial,102,513845,0.0-10.0-1.43,"""event"",""trial"",""time""
""fullscreenenter"",""0"",""4885""
","
","
","""event"",""trial"",""time""
""fullscreenenter"",""0"",""4885""
","
",8629.13000001572,<img style='border: 4px solid darkgrey;' src='img/tf1_44_M_ss1.jpeg'></img>,3,NA,exp,NA,2,<img src='img/tf1_44_T1_ss1_md.jpeg'></img>,0,FALSE,NA,sub102
NA,html-keyboard-response,103,514352,0.0-10.0-0.44,"""event"",""trial"",""time""
""fullscreenenter"",""0"",""4885""
","
","
","""event"",""trial"",""time""
""fullscreenenter"",""0"",""4885""
","
",null,"<div style=""font-size:60px;"">+</div>",NA,null,fixation,2020-06-23T17:59:25Z,NA,NA,NA,NA,NA,sub102
NA,mars-trial,104,523174,0.0-10.0-1.44,"""event"",""trial"",""time""
""fullscreenenter"",""0"",""4885""
","
","
","""event"",""trial"",""time""
""fullscreenenter"",""0"",""4885""
","
",NA,NA,NA,NA,exp,NA,NA,<img src='img/tf1_45_T1_ss2_md.jpeg'></img>,0,FALSE,NA,sub102
NA,html-keyboard-response,105,523678,0.0-10.0-0.45,"""event"",""trial"",""time""
""fullscreenenter"",""0"",""4885""
","
","
","""event"",""trial"",""time""
""fullscreenenter"",""0"",""4885""
","
",null,"<div style=""font-size:60px;"">+</div>",NA,null,fixation,2020-06-23T17:59:34Z,NA,NA,NA,NA,NA,sub102
NA,audio-button-response,106,560143,0.0-11.0,"""event"",""trial"",""time""
""fullscreenenter"",""0"",""4885""
","
","
","""event"",""trial"",""time""
""fullscreenenter"",""0"",""4885""
","
",36360.020000021905,audio/mars_instructions_slide5.wav,0,NA,NA,NA,NA,NA,NA,NA,NA,sub102
