success,trial_type,trial_index,time_elapsed,internal_node_id,interactions,blur_events,focus_events,fullscreenenter_events,fullscreenexit_events,rt,stimulus,button_pressed,key_press,part,timestamp,unshuffled_button,correct_response,correct_button,correct,value,subject_id
TRUE,fullscreen,0,4543,0.0-0.0,"""event"",""trial"",""time""
""fullscreenenter"",""0"",""3577""
","
","
","""event"",""trial"",""time""
""fullscreenenter"",""0"",""3577""
","
",NA,NA,NA,NA,NA,NA,NA,NA,NA,NA,NA,sub130
NA,pavlovia,1,4548,0.0-1.0,"""event"",""trial"",""time""
""fullscreenenter"",""0"",""3577""
","
","
","""event"",""trial"",""time""
""fullscreenenter"",""0"",""3577""
","
",NA,NA,NA,NA,NA,NA,NA,NA,NA,NA,NA,sub130
NA,html-button-response,2,6326,0.0-2.0,"""event"",""trial"",""time""
""fullscreenenter"",""0"",""3577""
","
","
","""event"",""trial"",""time""
""fullscreenenter"",""0"",""3577""
","
",1776.0899999993853,<p>Welcome! Press START to begin.</p><br>,0,NA,NA,NA,NA,NA,NA,NA,NA,sub130
NA,audio-button-response,3,40670,0.0-3.0,"""event"",""trial"",""time""
""fullscreenenter"",""0"",""3577""
","
","
","""event"",""trial"",""time""
""fullscreenenter"",""0"",""3577""
","
",34341.87999999995,audio/mars_instructions_slide2.wav,0,NA,NA,NA,NA,NA,NA,NA,NA,sub130
NA,audio-button-response,4,57887,0.0-4.0,"""event"",""trial"",""time""
""fullscreenenter"",""0"",""3577""
","
","
","""event"",""trial"",""time""
""fullscreenenter"",""0"",""3577""
","
",17214.7399999958,audio/mars_instructions_slide3.wav,0,NA,NA,NA,NA,NA,NA,NA,NA,sub130
NA,html-keyboard-response,5,58405,0.0-5.0-0.0,"""event"",""trial"",""time""
""fullscreenenter"",""0"",""3577""
","
","
","""event"",""trial"",""time""
""fullscreenenter"",""0"",""3577""
","
",null,"<div style=""font-size:60px;"">+</div>",NA,null,fixation,2020-06-20T19:53:25Z,NA,NA,NA,NA,NA,sub130
NA,mars-trial,6,64788,0.0-5.0-1.0,"""event"",""trial"",""time""
""fullscreenenter"",""0"",""3577""
","
","
","""event"",""trial"",""time""
""fullscreenenter"",""0"",""3577""
","
",4260.2050000059535,<img style='border: 4px solid darkgrey;' src='practice/pt1_M1.png'></img>,3,NA,practice,NA,0,<img src='practice/pt1_T1.png'></img>,0,TRUE,NA,sub130
NA,html-keyboard-response,7,65291,0.0-6.0-0.0,"""event"",""trial"",""time""
""fullscreenenter"",""0"",""3577""
","
","
","""event"",""trial"",""time""
""fullscreenenter"",""0"",""3577""
","
",null,"<div style=""font-size:60px;"">+</div>",NA,null,fixation,2020-06-20T19:53:32Z,NA,NA,NA,NA,NA,sub130
NA,mars-trial,8,69861,0.0-6.0-1.0,"""event"",""trial"",""time""
""fullscreenenter"",""0"",""3577""
","
","
","""event"",""trial"",""time""
""fullscreenenter"",""0"",""3577""
","
",2463.999999999942,<img style='border: 4px solid darkgrey;' src='practice/pt2_M1.png'></img>,0,NA,practice,NA,0,<img src='practice/pt2_T1.png'></img>,0,TRUE,NA,sub130
NA,html-keyboard-response,9,70365,0.0-7.0-0.0,"""event"",""trial"",""time""
""fullscreenenter"",""0"",""3577""
","
","
","""event"",""trial"",""time""
""fullscreenenter"",""0"",""3577""
","
",null,"<div style=""font-size:60px;"">+</div>",NA,null,fixation,2020-06-20T19:53:37Z,NA,NA,NA,NA,NA,sub130
NA,mars-trial,10,74388,0.0-7.0-1.0,"""event"",""trial"",""time""
""fullscreenenter"",""0"",""3577""
","
","
","""event"",""trial"",""time""
""fullscreenenter"",""0"",""3577""
","
",1902.0000000018626,<img style='border: 4px solid darkgrey;' src='practice/pt3_M1.png'></img>,1,NA,practice,NA,0,<img src='practice/pt3_T1.png'></img>,0,TRUE,NA,sub130
NA,audio-button-response,11,78749,0.0-8.0,"""event"",""trial"",""time""
""fullscreenenter"",""0"",""3577""
","
","
","""event"",""trial"",""time""
""fullscreenenter"",""0"",""3577""
","
",4358.6450000002515,audio/mars_instructions_slide4.wav,0,NA,NA,NA,NA,NA,NA,NA,NA,sub130
NA,call-function,12,78750,0.0-9.0,"""event"",""trial"",""time""
""fullscreenenter"",""0"",""3577""
","
","
","""event"",""trial"",""time""
""fullscreenenter"",""0"",""3577""
","
",NA,NA,NA,NA,NA,NA,NA,NA,NA,NA,NA,sub130
NA,html-keyboard-response,13,79252,0.0-10.0-0.0,"""event"",""trial"",""time""
""fullscreenenter"",""0"",""3577""
","
","
","""event"",""trial"",""time""
""fullscreenenter"",""0"",""3577""
","
",null,"<div style=""font-size:60px;"">+</div>",NA,null,fixation,2020-06-20T19:53:46Z,NA,NA,NA,NA,NA,sub130
NA,mars-trial,14,82018,0.0-10.0-1.0,"""event"",""trial"",""time""
""fullscreenenter"",""0"",""3577""
","
","
","""event"",""trial"",""time""
""fullscreenenter"",""0"",""3577""
","
",2144.594999997935,<img style='border: 4px solid darkgrey;' src='img/tf1_1_M_ss3.jpeg'></img>,0,NA,exp,NA,0,<img src='img/tf1_1_T1_ss3_md.jpeg'></img>,0,TRUE,NA,sub130
NA,html-keyboard-response,15,82538,0.0-10.0-0.1,"""event"",""trial"",""time""
""fullscreenenter"",""0"",""3577""
","
","
","""event"",""trial"",""time""
""fullscreenenter"",""0"",""3577""
","
",null,"<div style=""font-size:60px;"">+</div>",NA,null,fixation,2020-06-20T19:53:49Z,NA,NA,NA,NA,NA,sub130
NA,mars-trial,16,84768,0.0-10.0-1.1,"""event"",""trial"",""time""
""fullscreenenter"",""0"",""3577""
","
","
","""event"",""trial"",""time""
""fullscreenenter"",""0"",""3577""
","
",1614.2299999992247,<img style='border: 4px solid darkgrey;' src='img/tf1_2_M_ss1.jpeg'></img>,3,NA,exp,NA,0,<img src='img/tf1_2_T1_ss1_md.jpeg'></img>,0,TRUE,NA,sub130
NA,html-keyboard-response,17,85271,0.0-10.0-0.2,"""event"",""trial"",""time""
""fullscreenenter"",""0"",""3577""
","
","
","""event"",""trial"",""time""
""fullscreenenter"",""0"",""3577""
","
",null,"<div style=""font-size:60px;"">+</div>",NA,null,fixation,2020-06-20T19:53:52Z,NA,NA,NA,NA,NA,sub130
NA,mars-trial,18,87796,0.0-10.0-1.2,"""event"",""trial"",""time""
""fullscreenenter"",""0"",""3577""
","
","
","""event"",""trial"",""time""
""fullscreenenter"",""0"",""3577""
","
",1919.9750000043423,<img style='border: 4px solid darkgrey;' src='img/tf1_3_M_ss2.jpeg'></img>,3,NA,exp,NA,0,<img src='img/tf1_3_T1_ss2_md.jpeg'></img>,0,TRUE,NA,sub130
NA,html-keyboard-response,19,88299,0.0-10.0-0.3,"""event"",""trial"",""time""
""fullscreenenter"",""0"",""3577""
","
","
","""event"",""trial"",""time""
""fullscreenenter"",""0"",""3577""
","
",null,"<div style=""font-size:60px;"">+</div>",NA,null,fixation,2020-06-20T19:53:55Z,NA,NA,NA,NA,NA,sub130
NA,mars-trial,20,90778,0.0-10.0-1.3,"""event"",""trial"",""time""
""fullscreenenter"",""0"",""3577""
","
","
","""event"",""trial"",""time""
""fullscreenenter"",""0"",""3577""
","
",1839.49500000017,<img style='border: 4px solid darkgrey;' src='img/tf1_4_M_ss3.jpeg'></img>,1,NA,exp,NA,0,<img src='img/tf1_4_T1_ss3_md.jpeg'></img>,0,TRUE,NA,sub130
NA,html-keyboard-response,21,91279,0.0-10.0-0.4,"""event"",""trial"",""time""
""fullscreenenter"",""0"",""3577""
","
","
","""event"",""trial"",""time""
""fullscreenenter"",""0"",""3577""
","
",null,"<div style=""font-size:60px;"">+</div>",NA,null,fixation,2020-06-20T19:53:58Z,NA,NA,NA,NA,NA,sub130
NA,mars-trial,22,93786,0.0-10.0-1.4,"""event"",""trial"",""time""
""fullscreenenter"",""0"",""3577""
","
","
","""event"",""trial"",""time""
""fullscreenenter"",""0"",""3577""
","
",1900.7050000000163,<img style='border: 4px solid darkgrey;' src='img/tf1_5_M_ss1.jpeg'></img>,2,NA,exp,NA,0,<img src='img/tf1_5_T1_ss1_md.jpeg'></img>,0,TRUE,NA,sub130
NA,html-keyboard-response,23,94307,0.0-10.0-0.5,"""event"",""trial"",""time""
""fullscreenenter"",""0"",""3577""
","
","
","""event"",""trial"",""time""
""fullscreenenter"",""0"",""3577""
","
",null,"<div style=""font-size:60px;"">+</div>",NA,null,fixation,2020-06-20T19:54:01Z,NA,NA,NA,NA,NA,sub130
NA,mars-trial,24,99048,0.0-10.0-1.5,"""event"",""trial"",""time""
""fullscreenenter"",""0"",""3577""
","
","
","""event"",""trial"",""time""
""fullscreenenter"",""0"",""3577""
","
",4100.239999999758,<img style='border: 4px solid darkgrey;' src='img/tf1_6_M_ss2.jpeg'></img>,3,NA,exp,NA,0,<img src='img/tf1_6_T1_ss2_md.jpeg'></img>,0,TRUE,NA,sub130
NA,html-keyboard-response,25,99549,0.0-10.0-0.6,"""event"",""trial"",""time""
""fullscreenenter"",""0"",""3577""
","
","
","""event"",""trial"",""time""
""fullscreenenter"",""0"",""3577""
","
",null,"<div style=""font-size:60px;"">+</div>",NA,null,fixation,2020-06-20T19:54:06Z,NA,NA,NA,NA,NA,sub130
NA,mars-trial,26,104446,0.0-10.0-1.6,"""event"",""trial"",""time""
""fullscreenenter"",""0"",""3577""
","
","
","""event"",""trial"",""time""
""fullscreenenter"",""0"",""3577""
","
",4289.68999999779,<img style='border: 4px solid darkgrey;' src='img/tf1_7_M_ss3.jpeg'></img>,3,NA,exp,NA,2,<img src='img/tf1_7_T1_ss3_md.jpeg'></img>,0,FALSE,NA,sub130
NA,html-keyboard-response,27,104957,0.0-10.0-0.7,"""event"",""trial"",""time""
""fullscreenenter"",""0"",""3577""
","
","
","""event"",""trial"",""time""
""fullscreenenter"",""0"",""3577""
","
",null,"<div style=""font-size:60px;"">+</div>",NA,null,fixation,2020-06-20T19:54:12Z,NA,NA,NA,NA,NA,sub130
NA,mars-trial,28,111675,0.0-10.0-1.7,"""event"",""trial"",""time""
""fullscreenenter"",""0"",""3577""
","
","
","""event"",""trial"",""time""
""fullscreenenter"",""0"",""3577""
","
",6094.184999994468,<img style='border: 4px solid darkgrey;' src='img/tf1_8_M_ss1.jpeg'></img>,2,NA,exp,NA,0,<img src='img/tf1_8_T1_ss1_md.jpeg'></img>,0,TRUE,NA,sub130
NA,html-keyboard-response,29,112177,0.0-10.0-0.8,"""event"",""trial"",""time""
""fullscreenenter"",""0"",""3577""
","
","
","""event"",""trial"",""time""
""fullscreenenter"",""0"",""3577""
","
",null,"<div style=""font-size:60px;"">+</div>",NA,null,fixation,2020-06-20T19:54:19Z,NA,NA,NA,NA,NA,sub130
NA,mars-trial,30,124740,0.0-10.0-1.8,"""event"",""trial"",""time""
""fullscreenenter"",""0"",""3577""
","
","
","""event"",""trial"",""time""
""fullscreenenter"",""0"",""3577""
","
",11956.32000000478,<img style='border: 4px solid darkgrey;' src='img/tf1_9_M_ss2.jpeg'></img>,1,NA,exp,NA,0,<img src='img/tf1_9_T1_ss2_md.jpeg'></img>,0,TRUE,NA,sub130
NA,html-keyboard-response,31,125243,0.0-10.0-0.9,"""event"",""trial"",""time""
""fullscreenenter"",""0"",""3577""
","
","
","""event"",""trial"",""time""
""fullscreenenter"",""0"",""3577""
","
",null,"<div style=""font-size:60px;"">+</div>",NA,null,fixation,2020-06-20T19:54:32Z,NA,NA,NA,NA,NA,sub130
NA,mars-trial,32,135582,0.0-10.0-1.9,"""event"",""trial"",""time""
""fullscreenenter"",""0"",""3577""
","
","
","""event"",""trial"",""time""
""fullscreenenter"",""0"",""3577""
","
",9732.66500000318,<img style='border: 4px solid darkgrey;' src='img/tf1_10_M_ss3.jpeg'></img>,2,NA,exp,NA,0,<img src='img/tf1_10_T1_ss3_md.jpeg'></img>,0,TRUE,NA,sub130
NA,html-keyboard-response,33,136084,0.0-10.0-0.10,"""event"",""trial"",""time""
""fullscreenenter"",""0"",""3577""
","
","
","""event"",""trial"",""time""
""fullscreenenter"",""0"",""3577""
","
",null,"<div style=""font-size:60px;"">+</div>",NA,null,fixation,2020-06-20T19:54:43Z,NA,NA,NA,NA,NA,sub130
NA,mars-trial,34,144203,0.0-10.0-1.10,"""event"",""trial"",""time""
""fullscreenenter"",""0"",""3577""
","
","
","""event"",""trial"",""time""
""fullscreenenter"",""0"",""3577""
","
",7513.364999998885,<img style='border: 4px solid darkgrey;' src='img/tf1_11_M_ss1.jpeg'></img>,3,NA,exp,NA,1,<img src='img/tf1_11_T1_ss1_md.jpeg'></img>,0,FALSE,NA,sub130
NA,html-keyboard-response,35,144705,0.0-10.0-0.11,"""event"",""trial"",""time""
""fullscreenenter"",""0"",""3577""
","
","
","""event"",""trial"",""time""
""fullscreenenter"",""0"",""3577""
","
",null,"<div style=""font-size:60px;"">+</div>",NA,null,fixation,2020-06-20T19:54:51Z,NA,NA,NA,NA,NA,sub130
NA,mars-trial,36,160701,0.0-10.0-1.11,"""event"",""trial"",""time""
""fullscreenenter"",""0"",""3577""
","
","
","""event"",""trial"",""time""
""fullscreenenter"",""0"",""3577""
","
",15390.915000003588,<img style='border: 4px solid darkgrey;' src='img/tf1_12_M_ss2.jpeg'></img>,1,NA,exp,NA,3,<img src='img/tf1_12_T1_ss2_md.jpeg'></img>,0,FALSE,NA,sub130
NA,html-keyboard-response,37,161203,0.0-10.0-0.12,"""event"",""trial"",""time""
""fullscreenenter"",""0"",""3577""
","
","
","""event"",""trial"",""time""
""fullscreenenter"",""0"",""3577""
","
",null,"<div style=""font-size:60px;"">+</div>",NA,null,fixation,2020-06-20T19:55:08Z,NA,NA,NA,NA,NA,sub130
NA,mars-trial,38,175173,0.0-10.0-1.12,"""event"",""trial"",""time""
""fullscreenenter"",""0"",""3577""
","
","
","""event"",""trial"",""time""
""fullscreenenter"",""0"",""3577""
","
",13363.370000006398,<img style='border: 4px solid darkgrey;' src='img/tf1_13_M_ss3.jpeg'></img>,0,NA,exp,NA,0,<img src='img/tf1_13_T1_ss3_md.jpeg'></img>,0,TRUE,NA,sub130
NA,html-keyboard-response,39,175675,0.0-10.0-0.13,"""event"",""trial"",""time""
""fullscreenenter"",""0"",""3577""
","
","
","""event"",""trial"",""time""
""fullscreenenter"",""0"",""3577""
","
",null,"<div style=""font-size:60px;"">+</div>",NA,null,fixation,2020-06-20T19:55:22Z,NA,NA,NA,NA,NA,sub130
NA,mars-trial,40,202222,0.0-10.0-1.13,"""event"",""trial"",""time""
""fullscreenenter"",""0"",""3577""
","
","
","""event"",""trial"",""time""
""fullscreenenter"",""0"",""3577""
","
",25940.840000002936,<img style='border: 4px solid darkgrey;' src='img/tf1_14_M_ss1.jpeg'></img>,3,NA,exp,NA,1,<img src='img/tf1_14_T1_ss1_md.jpeg'></img>,0,FALSE,NA,sub130
NA,html-keyboard-response,41,202724,0.0-10.0-0.14,"""event"",""trial"",""time""
""fullscreenenter"",""0"",""3577""
","
","
","""event"",""trial"",""time""
""fullscreenenter"",""0"",""3577""
","
",null,"<div style=""font-size:60px;"">+</div>",NA,null,fixation,2020-06-20T19:55:49Z,NA,NA,NA,NA,NA,sub130
NA,mars-trial,42,209144,0.0-10.0-1.14,"""event"",""trial"",""time""
""fullscreenenter"",""0"",""3577""
","
","
","""event"",""trial"",""time""
""fullscreenenter"",""0"",""3577""
","
",5814.135000000533,<img style='border: 4px solid darkgrey;' src='img/tf1_15_M_ss2.jpeg'></img>,3,NA,exp,NA,3,<img src='img/tf1_15_T1_ss2_md.jpeg'></img>,0,FALSE,NA,sub130
NA,html-keyboard-response,43,209647,0.0-10.0-0.15,"""event"",""trial"",""time""
""fullscreenenter"",""0"",""3577""
","
","
","""event"",""trial"",""time""
""fullscreenenter"",""0"",""3577""
","
",null,"<div style=""font-size:60px;"">+</div>",NA,null,fixation,2020-06-20T19:55:56Z,NA,NA,NA,NA,NA,sub130
NA,mars-trial,44,230053,0.0-10.0-1.15,"""event"",""trial"",""time""
""fullscreenenter"",""0"",""3577""
","
","
","""event"",""trial"",""time""
""fullscreenenter"",""0"",""3577""
","
",19799.715000001015,<img style='border: 4px solid darkgrey;' src='img/tf1_16_M_ss3.jpeg'></img>,1,NA,exp,NA,3,<img src='img/tf1_16_T1_ss3_md.jpeg'></img>,0,FALSE,NA,sub130
NA,html-keyboard-response,45,230555,0.0-10.0-0.16,"""event"",""trial"",""time""
""fullscreenenter"",""0"",""3577""
","
","
","""event"",""trial"",""time""
""fullscreenenter"",""0"",""3577""
","
",null,"<div style=""font-size:60px;"">+</div>",NA,null,fixation,2020-06-20T19:56:17Z,NA,NA,NA,NA,NA,sub130
NA,mars-trial,46,250164,0.0-10.0-1.16,"""event"",""trial"",""time""
""fullscreenenter"",""0"",""3577""
","
","
","""event"",""trial"",""time""
""fullscreenenter"",""0"",""3577""
","
",19001.499999998487,<img style='border: 4px solid darkgrey;' src='img/tf1_17_M_ss1.jpeg'></img>,3,NA,exp,NA,2,<img src='img/tf1_17_T1_ss1_md.jpeg'></img>,0,FALSE,NA,sub130
NA,html-keyboard-response,47,250666,0.0-10.0-0.17,"""event"",""trial"",""time""
""fullscreenenter"",""0"",""3577""
","
","
","""event"",""trial"",""time""
""fullscreenenter"",""0"",""3577""
","
",null,"<div style=""font-size:60px;"">+</div>",NA,null,fixation,2020-06-20T19:56:37Z,NA,NA,NA,NA,NA,sub130
NA,mars-trial,48,267284,0.0-10.0-1.17,"""event"",""trial"",""time""
""fullscreenenter"",""0"",""3577""
","
","
","""event"",""trial"",""time""
""fullscreenenter"",""0"",""3577""
","
",16012.094999998226,<img style='border: 4px solid darkgrey;' src='img/tf1_18_M_ss2.jpeg'></img>,2,NA,exp,NA,0,<img src='img/tf1_18_T1_ss2_md.jpeg'></img>,0,TRUE,NA,sub130
NA,html-keyboard-response,49,267787,0.0-10.0-0.18,"""event"",""trial"",""time""
""fullscreenenter"",""0"",""3577""
","
","
","""event"",""trial"",""time""
""fullscreenenter"",""0"",""3577""
","
",null,"<div style=""font-size:60px;"">+</div>",NA,null,fixation,2020-06-20T19:56:54Z,NA,NA,NA,NA,NA,sub130
NA,mars-trial,50,272735,0.0-10.0-1.18,"""event"",""trial"",""time""
""fullscreenenter"",""0"",""3577""
","
","
","""event"",""trial"",""time""
""fullscreenenter"",""0"",""3577""
","
",4341.135000002396,<img style='border: 4px solid darkgrey;' src='img/tf1_19_M_ss3.jpeg'></img>,0,NA,exp,NA,3,<img src='img/tf1_19_T1_ss3_md.jpeg'></img>,0,FALSE,NA,sub130
NA,html-keyboard-response,51,273237,0.0-10.0-0.19,"""event"",""trial"",""time""
""fullscreenenter"",""0"",""3577""
","
","
","""event"",""trial"",""time""
""fullscreenenter"",""0"",""3577""
","
",null,"<div style=""font-size:60px;"">+</div>",NA,null,fixation,2020-06-20T19:57:00Z,NA,NA,NA,NA,NA,sub130
NA,mars-trial,52,280333,0.0-10.0-1.19,"""event"",""trial"",""time""
""fullscreenenter"",""0"",""3577""
","
","
","""event"",""trial"",""time""
""fullscreenenter"",""0"",""3577""
","
",6490.399999995134,<img style='border: 4px solid darkgrey;' src='img/tf1_20_M_ss1.jpeg'></img>,2,NA,exp,NA,0,<img src='img/tf1_20_T1_ss1_md.jpeg'></img>,0,TRUE,NA,sub130
NA,html-keyboard-response,53,280835,0.0-10.0-0.20,"""event"",""trial"",""time""
""fullscreenenter"",""0"",""3577""
","
","
","""event"",""trial"",""time""
""fullscreenenter"",""0"",""3577""
","
",null,"<div style=""font-size:60px;"">+</div>",NA,null,fixation,2020-06-20T19:57:07Z,NA,NA,NA,NA,NA,sub130
NA,mars-trial,54,306286,0.0-10.0-1.20,"""event"",""trial"",""time""
""fullscreenenter"",""0"",""3577""
","
","
","""event"",""trial"",""time""
""fullscreenenter"",""0"",""3577""
","
",24844.929999999295,<img style='border: 4px solid darkgrey;' src='img/tf1_21_M_ss2.jpeg'></img>,0,NA,exp,NA,2,<img src='img/tf1_21_T1_ss2_md.jpeg'></img>,0,FALSE,NA,sub130
NA,html-keyboard-response,55,306788,0.0-10.0-0.21,"""event"",""trial"",""time""
""fullscreenenter"",""0"",""3577""
","
","
","""event"",""trial"",""time""
""fullscreenenter"",""0"",""3577""
","
",null,"<div style=""font-size:60px;"">+</div>",NA,null,fixation,2020-06-20T19:57:33Z,NA,NA,NA,NA,NA,sub130
NA,mars-trial,56,313747,0.0-10.0-1.21,"""event"",""trial"",""time""
""fullscreenenter"",""0"",""3577""
","
","
","""event"",""trial"",""time""
""fullscreenenter"",""0"",""3577""
","
",6352.155000000494,<img style='border: 4px solid darkgrey;' src='img/tf1_22_M_ss3.jpeg'></img>,2,NA,exp,NA,0,<img src='img/tf1_22_T1_ss3_md.jpeg'></img>,0,TRUE,NA,sub130
NA,html-keyboard-response,57,314249,0.0-10.0-0.22,"""event"",""trial"",""time""
""fullscreenenter"",""0"",""3577""
","
","
","""event"",""trial"",""time""
""fullscreenenter"",""0"",""3577""
","
",null,"<div style=""font-size:60px;"">+</div>",NA,null,fixation,2020-06-20T19:57:41Z,NA,NA,NA,NA,NA,sub130
NA,mars-trial,58,321251,0.0-10.0-1.22,"""event"",""trial"",""time""
""fullscreenenter"",""0"",""3577""
","
","
","""event"",""trial"",""time""
""fullscreenenter"",""0"",""3577""
","
",6395.954999999958,<img style='border: 4px solid darkgrey;' src='img/tf1_23_M_ss1.jpeg'></img>,3,NA,exp,NA,3,<img src='img/tf1_23_T1_ss1_md.jpeg'></img>,0,FALSE,NA,sub130
NA,html-keyboard-response,59,321753,0.0-10.0-0.23,"""event"",""trial"",""time""
""fullscreenenter"",""0"",""3577""
","
","
","""event"",""trial"",""time""
""fullscreenenter"",""0"",""3577""
","
",null,"<div style=""font-size:60px;"">+</div>",NA,null,fixation,2020-06-20T19:57:48Z,NA,NA,NA,NA,NA,sub130
NA,mars-trial,60,338649,0.0-10.0-1.23,"""event"",""trial"",""time""
""fullscreenenter"",""0"",""3577""
","
","
","""event"",""trial"",""time""
""fullscreenenter"",""0"",""3577""
","
",16289.550000001327,<img style='border: 4px solid darkgrey;' src='img/tf1_24_M_ss2.jpeg'></img>,0,NA,exp,NA,1,<img src='img/tf1_24_T1_ss2_md.jpeg'></img>,0,FALSE,NA,sub130
NA,html-keyboard-response,61,339151,0.0-10.0-0.24,"""event"",""trial"",""time""
""fullscreenenter"",""0"",""3577""
","
","
","""event"",""trial"",""time""
""fullscreenenter"",""0"",""3577""
","
",null,"<div style=""font-size:60px;"">+</div>",NA,null,fixation,2020-06-20T19:58:06Z,NA,NA,NA,NA,NA,sub130
NA,mars-trial,62,349602,0.0-10.0-1.24,"""event"",""trial"",""time""
""fullscreenenter"",""0"",""3577""
","
","
","""event"",""trial"",""time""
""fullscreenenter"",""0"",""3577""
","
",9842.335000001185,<img style='border: 4px solid darkgrey;' src='img/tf1_25_M_ss3.jpeg'></img>,0,NA,exp,NA,0,<img src='img/tf1_25_T1_ss3_md.jpeg'></img>,0,TRUE,NA,sub130
NA,html-keyboard-response,63,350104,0.0-10.0-0.25,"""event"",""trial"",""time""
""fullscreenenter"",""0"",""3577""
","
","
","""event"",""trial"",""time""
""fullscreenenter"",""0"",""3577""
","
",null,"<div style=""font-size:60px;"">+</div>",NA,null,fixation,2020-06-20T19:58:17Z,NA,NA,NA,NA,NA,sub130
NA,mars-trial,64,362791,0.0-10.0-1.25,"""event"",""trial"",""time""
""fullscreenenter"",""0"",""3577""
","
","
","""event"",""trial"",""time""
""fullscreenenter"",""0"",""3577""
","
",12081.035000002885,<img style='border: 4px solid darkgrey;' src='img/tf1_26_M_ss1.jpeg'></img>,0,NA,exp,NA,1,<img src='img/tf1_26_T1_ss1_md.jpeg'></img>,0,FALSE,NA,sub130
NA,html-keyboard-response,65,363292,0.0-10.0-0.26,"""event"",""trial"",""time""
""fullscreenenter"",""0"",""3577""
","
","
","""event"",""trial"",""time""
""fullscreenenter"",""0"",""3577""
","
",null,"<div style=""font-size:60px;"">+</div>",NA,null,fixation,2020-06-20T19:58:30Z,NA,NA,NA,NA,NA,sub130
NA,mars-trial,66,387971,0.0-10.0-1.26,"""event"",""trial"",""time""
""fullscreenenter"",""0"",""3577""
","
","
","""event"",""trial"",""time""
""fullscreenenter"",""0"",""3577""
","
",24073.629999998957,<img style='border: 4px solid darkgrey;' src='img/tf1_27_M_ss2.jpeg'></img>,0,NA,exp,NA,2,<img src='img/tf1_27_T1_ss2_md.jpeg'></img>,0,FALSE,NA,sub130
NA,html-keyboard-response,67,388474,0.0-10.0-0.27,"""event"",""trial"",""time""
""fullscreenenter"",""0"",""3577""
","
","
","""event"",""trial"",""time""
""fullscreenenter"",""0"",""3577""
","
",null,"<div style=""font-size:60px;"">+</div>",NA,null,fixation,2020-06-20T19:58:55Z,NA,NA,NA,NA,NA,sub130
NA,mars-trial,68,405889,0.0-10.0-1.27,"""event"",""trial"",""time""
""fullscreenenter"",""0"",""3577""
","
","
","""event"",""trial"",""time""
""fullscreenenter"",""0"",""3577""
","
",16807.82000000181,<img style='border: 4px solid darkgrey;' src='img/tf1_28_M_ss3.jpeg'></img>,2,NA,exp,NA,0,<img src='img/tf1_28_T1_ss3_md.jpeg'></img>,0,TRUE,NA,sub130
NA,html-keyboard-response,69,406391,0.0-10.0-0.28,"""event"",""trial"",""time""
""fullscreenenter"",""0"",""3577""
","
","
","""event"",""trial"",""time""
""fullscreenenter"",""0"",""3577""
","
",null,"<div style=""font-size:60px;"">+</div>",NA,null,fixation,2020-06-20T19:59:13Z,NA,NA,NA,NA,NA,sub130
NA,mars-trial,70,433305,0.0-10.0-1.28,"""event"",""trial"",""time""
""fullscreenenter"",""0"",""3577""
","
","
","""event"",""trial"",""time""
""fullscreenenter"",""0"",""3577""
","
",26308.300000004238,<img style='border: 4px solid darkgrey;' src='img/tf1_29_M_ss1.jpeg'></img>,2,NA,exp,NA,1,<img src='img/tf1_29_T1_ss1_md.jpeg'></img>,0,FALSE,NA,sub130
NA,html-keyboard-response,71,433807,0.0-10.0-0.29,"""event"",""trial"",""time""
""fullscreenenter"",""0"",""3577""
","
","
","""event"",""trial"",""time""
""fullscreenenter"",""0"",""3577""
","
",null,"<div style=""font-size:60px;"">+</div>",NA,null,fixation,2020-06-20T19:59:40Z,NA,NA,NA,NA,NA,sub130
NA,mars-trial,72,460404,0.0-10.0-1.29,"""event"",""trial"",""time""
""fullscreenenter"",""0"",""3577""
","
","
","""event"",""trial"",""time""
""fullscreenenter"",""0"",""3577""
","
",25989.345000001776,<img style='border: 4px solid darkgrey;' src='img/tf1_30_M_ss2.jpeg'></img>,0,NA,exp,NA,0,<img src='img/tf1_30_T1_ss2_md.jpeg'></img>,0,TRUE,NA,sub130
NA,html-keyboard-response,73,460906,0.0-10.0-0.30,"""event"",""trial"",""time""
""fullscreenenter"",""0"",""3577""
","
","
","""event"",""trial"",""time""
""fullscreenenter"",""0"",""3577""
","
",null,"<div style=""font-size:60px;"">+</div>",NA,null,fixation,2020-06-20T20:00:08Z,NA,NA,NA,NA,NA,sub130
NA,mars-trial,74,488248,0.0-10.0-1.30,"""event"",""trial"",""time""
""fullscreenenter"",""0"",""3577""
","
","
","""event"",""trial"",""time""
""fullscreenenter"",""0"",""3577""
","
",26735.115000003134,<img style='border: 4px solid darkgrey;' src='img/tf1_31_M_ss3.jpeg'></img>,2,NA,exp,NA,1,<img src='img/tf1_31_T1_ss3_md.jpeg'></img>,0,FALSE,NA,sub130
NA,html-keyboard-response,75,488750,0.0-10.0-0.31,"""event"",""trial"",""time""
""fullscreenenter"",""0"",""3577""
","
","
","""event"",""trial"",""time""
""fullscreenenter"",""0"",""3577""
","
",null,"<div style=""font-size:60px;"">+</div>",NA,null,fixation,2020-06-20T20:00:35Z,NA,NA,NA,NA,NA,sub130
NA,mars-trial,76,502159,0.0-10.0-1.31,"""event"",""trial"",""time""
""fullscreenenter"",""0"",""3577""
","
","
","""event"",""trial"",""time""
""fullscreenenter"",""0"",""3577""
","
",12801.56999999599,<img style='border: 4px solid darkgrey;' src='img/tf1_32_M_ss1.jpeg'></img>,1,NA,exp,NA,0,<img src='img/tf1_32_T1_ss1_md.jpeg'></img>,0,TRUE,NA,sub130
NA,html-keyboard-response,77,502661,0.0-10.0-0.32,"""event"",""trial"",""time""
""fullscreenenter"",""0"",""3577""
","
","
","""event"",""trial"",""time""
""fullscreenenter"",""0"",""3577""
","
",null,"<div style=""font-size:60px;"">+</div>",NA,null,fixation,2020-06-20T20:00:49Z,NA,NA,NA,NA,NA,sub130
NA,mars-trial,78,516687,0.0-10.0-1.32,"""event"",""trial"",""time""
""fullscreenenter"",""0"",""3577""
","
","
","""event"",""trial"",""time""
""fullscreenenter"",""0"",""3577""
","
",13418.180000000517,<img style='border: 4px solid darkgrey;' src='img/tf1_33_M_ss2.jpeg'></img>,0,NA,exp,NA,0,<img src='img/tf1_33_T1_ss2_md.jpeg'></img>,0,TRUE,NA,sub130
NA,html-keyboard-response,79,517189,0.0-10.0-0.33,"""event"",""trial"",""time""
""fullscreenenter"",""0"",""3577""
","
","
","""event"",""trial"",""time""
""fullscreenenter"",""0"",""3577""
","
",null,"<div style=""font-size:60px;"">+</div>",NA,null,fixation,2020-06-20T20:01:04Z,NA,NA,NA,NA,NA,sub130
NA,mars-trial,80,544572,0.0-10.0-1.33,"""event"",""trial"",""time""
""fullscreenenter"",""0"",""3577""
","
","
","""event"",""trial"",""time""
""fullscreenenter"",""0"",""3577""
","
",26777.620000000694,<img style='border: 4px solid darkgrey;' src='img/tf1_34_M_ss3.jpeg'></img>,3,NA,exp,NA,3,<img src='img/tf1_34_T1_ss3_md.jpeg'></img>,0,FALSE,NA,sub130
NA,html-keyboard-response,81,545074,0.0-10.0-0.34,"""event"",""trial"",""time""
""fullscreenenter"",""0"",""3577""
","
","
","""event"",""trial"",""time""
""fullscreenenter"",""0"",""3577""
","
",null,"<div style=""font-size:60px;"">+</div>",NA,null,fixation,2020-06-20T20:01:32Z,NA,NA,NA,NA,NA,sub130
NA,mars-trial,82,558751,0.0-10.0-1.34,"""event"",""trial"",""time""
""fullscreenenter"",""0"",""3577""
","
","
","""event"",""trial"",""time""
""fullscreenenter"",""0"",""3577""
","
",NA,NA,NA,NA,exp,NA,NA,<img src='img/tf1_35_T1_ss1_md.jpeg'></img>,0,FALSE,NA,sub130
NA,html-keyboard-response,83,559252,0.0-10.0-0.35,"""event"",""trial"",""time""
""fullscreenenter"",""0"",""3577""
","
","
","""event"",""trial"",""time""
""fullscreenenter"",""0"",""3577""
","
",null,"<div style=""font-size:60px;"">+</div>",NA,null,fixation,2020-06-20T20:01:46Z,NA,NA,NA,NA,NA,sub130
NA,audio-button-response,84,564032,0.0-11.0,"""event"",""trial"",""time""
""fullscreenenter"",""0"",""3577""
","
","
","""event"",""trial"",""time""
""fullscreenenter"",""0"",""3577""
","
",4678.185000004247,audio/mars_instructions_slide5.wav,0,NA,NA,NA,NA,NA,NA,NA,NA,sub130
