success,trial_type,trial_index,time_elapsed,internal_node_id,interactions,blur_events,focus_events,fullscreenenter_events,fullscreenexit_events,rt,stimulus,button_pressed,key_press,part,timestamp,unshuffled_button,correct_response,correct_button,correct,value,subject_id
TRUE,fullscreen,0,5905,0.0-0.0,"""event"",""trial"",""time""
""focus"",""0"",""0""
""fullscreenenter"",""0"",""5139""
","
","""event"",""trial"",""time""
""focus"",""0"",""0""
","""event"",""trial"",""time""
""fullscreenenter"",""0"",""5139""
","
",NA,NA,NA,NA,NA,NA,NA,NA,NA,NA,NA,sub9
NA,pavlovia,1,5913,0.0-1.0,"""event"",""trial"",""time""
""focus"",""0"",""0""
""fullscreenenter"",""0"",""5139""
","
","""event"",""trial"",""time""
""focus"",""0"",""0""
","""event"",""trial"",""time""
""fullscreenenter"",""0"",""5139""
","
",NA,NA,NA,NA,NA,NA,NA,NA,NA,NA,NA,sub9
NA,html-button-response,2,9136,0.0-2.0,"""event"",""trial"",""time""
""focus"",""0"",""0""
""fullscreenenter"",""0"",""5139""
","
","""event"",""trial"",""time""
""focus"",""0"",""0""
","""event"",""trial"",""time""
""fullscreenenter"",""0"",""5139""
","
",3218,<p>Welcome! Press START to begin.</p><br>,0,NA,NA,NA,NA,NA,NA,NA,NA,sub9
NA,audio-button-response,3,33337,0.0-3.0,"""event"",""trial"",""time""
""focus"",""0"",""0""
""fullscreenenter"",""0"",""5139""
","
","""event"",""trial"",""time""
""focus"",""0"",""0""
","""event"",""trial"",""time""
""fullscreenenter"",""0"",""5139""
","
",24198,audio/mars_instructions_slide2.wav,0,NA,NA,NA,NA,NA,NA,NA,NA,sub9
NA,audio-button-response,4,49088,0.0-4.0,"""event"",""trial"",""time""
""focus"",""0"",""0""
""fullscreenenter"",""0"",""5139""
","
","""event"",""trial"",""time""
""focus"",""0"",""0""
","""event"",""trial"",""time""
""fullscreenenter"",""0"",""5139""
","
",15748,audio/mars_instructions_slide3.wav,0,NA,NA,NA,NA,NA,NA,NA,NA,sub9
NA,html-keyboard-response,5,49600,0.0-5.0-0.0,"""event"",""trial"",""time""
""focus"",""0"",""0""
""fullscreenenter"",""0"",""5139""
","
","""event"",""trial"",""time""
""focus"",""0"",""0""
","""event"",""trial"",""time""
""fullscreenenter"",""0"",""5139""
","
",null,"<div style=""font-size:60px;"">+</div>",NA,null,fixation,2020-06-05T13:03:20Z,NA,NA,NA,NA,NA,sub9
NA,mars-trial,6,54940,0.0-5.0-1.0,"""event"",""trial"",""time""
""focus"",""0"",""0""
""fullscreenenter"",""0"",""5139""
","
","""event"",""trial"",""time""
""focus"",""0"",""0""
","""event"",""trial"",""time""
""fullscreenenter"",""0"",""5139""
","
",3210,<img style='border: 4px solid darkgrey;' src='practice/pt1_M1.png'></img>,3,NA,practice,NA,1,<img src='practice/pt1_T1.png'></img>,0,FALSE,NA,sub9
NA,html-keyboard-response,7,55449,0.0-5.1-0.1,"""event"",""trial"",""time""
""focus"",""0"",""0""
""fullscreenenter"",""0"",""5139""
","
","""event"",""trial"",""time""
""focus"",""0"",""0""
","""event"",""trial"",""time""
""fullscreenenter"",""0"",""5139""
","
",null,"<div style=""font-size:60px;"">+</div>",NA,null,fixation,2020-06-05T13:03:25Z,NA,NA,NA,NA,NA,sub9
NA,mars-trial,8,59060,0.0-5.1-1.1,"""event"",""trial"",""time""
""focus"",""0"",""0""
""fullscreenenter"",""0"",""5139""
","
","""event"",""trial"",""time""
""focus"",""0"",""0""
","""event"",""trial"",""time""
""fullscreenenter"",""0"",""5139""
","
",1481,<img style='border: 4px solid darkgrey;' src='practice/pt1_M1.png'></img>,1,NA,practice,NA,3,<img src='practice/pt1_T1.png'></img>,0,FALSE,NA,sub9
NA,html-keyboard-response,9,59570,0.0-5.2-0.2,"""event"",""trial"",""time""
""focus"",""0"",""0""
""fullscreenenter"",""0"",""5139""
","
","""event"",""trial"",""time""
""focus"",""0"",""0""
","""event"",""trial"",""time""
""fullscreenenter"",""0"",""5139""
","
",null,"<div style=""font-size:60px;"">+</div>",NA,null,fixation,2020-06-05T13:03:30Z,NA,NA,NA,NA,NA,sub9
NA,mars-trial,10,63810,0.0-5.2-1.2,"""event"",""trial"",""time""
""focus"",""0"",""0""
""fullscreenenter"",""0"",""5139""
","
","""event"",""trial"",""time""
""focus"",""0"",""0""
","""event"",""trial"",""time""
""fullscreenenter"",""0"",""5139""
","
",2107,<img style='border: 4px solid darkgrey;' src='practice/pt1_M1.png'></img>,3,NA,practice,NA,2,<img src='practice/pt1_T1.png'></img>,0,FALSE,NA,sub9
NA,html-keyboard-response,11,64330,0.0-5.3-0.3,"""event"",""trial"",""time""
""focus"",""0"",""0""
""fullscreenenter"",""0"",""5139""
","
","""event"",""trial"",""time""
""focus"",""0"",""0""
","""event"",""trial"",""time""
""fullscreenenter"",""0"",""5139""
","
",null,"<div style=""font-size:60px;"">+</div>",NA,null,fixation,2020-06-05T13:03:34Z,NA,NA,NA,NA,NA,sub9
NA,mars-trial,12,69073,0.0-5.3-1.3,"""event"",""trial"",""time""
""focus"",""0"",""0""
""fullscreenenter"",""0"",""5139""
","
","""event"",""trial"",""time""
""focus"",""0"",""0""
","""event"",""trial"",""time""
""fullscreenenter"",""0"",""5139""
","
",2600,<img style='border: 4px solid darkgrey;' src='practice/pt1_M1.png'></img>,1,NA,practice,NA,1,<img src='practice/pt1_T1.png'></img>,0,FALSE,NA,sub9
NA,html-keyboard-response,13,69584,0.0-5.4-0.4,"""event"",""trial"",""time""
""focus"",""0"",""0""
""fullscreenenter"",""0"",""5139""
","
","""event"",""trial"",""time""
""focus"",""0"",""0""
","""event"",""trial"",""time""
""fullscreenenter"",""0"",""5139""
","
",null,"<div style=""font-size:60px;"">+</div>",NA,null,fixation,2020-06-05T13:03:40Z,NA,NA,NA,NA,NA,sub9
NA,mars-trial,14,78601,0.0-5.4-1.4,"""event"",""trial"",""time""
""focus"",""0"",""0""
""fullscreenenter"",""0"",""5139""
","
","""event"",""trial"",""time""
""focus"",""0"",""0""
","""event"",""trial"",""time""
""fullscreenenter"",""0"",""5139""
","
",6904,<img style='border: 4px solid darkgrey;' src='practice/pt1_M1.png'></img>,0,NA,practice,NA,2,<img src='practice/pt1_T1.png'></img>,0,FALSE,NA,sub9
NA,html-keyboard-response,15,79111,0.0-5.5-0.5,"""event"",""trial"",""time""
""focus"",""0"",""0""
""fullscreenenter"",""0"",""5139""
","
","""event"",""trial"",""time""
""focus"",""0"",""0""
","""event"",""trial"",""time""
""fullscreenenter"",""0"",""5139""
","
",null,"<div style=""font-size:60px;"">+</div>",NA,null,fixation,2020-06-05T13:03:49Z,NA,NA,NA,NA,NA,sub9
NA,mars-trial,16,86352,0.0-5.5-1.5,"""event"",""trial"",""time""
""focus"",""0"",""0""
""fullscreenenter"",""0"",""5139""
","
","""event"",""trial"",""time""
""focus"",""0"",""0""
","""event"",""trial"",""time""
""fullscreenenter"",""0"",""5139""
","
",5116,<img style='border: 4px solid darkgrey;' src='practice/pt1_M1.png'></img>,1,NA,practice,NA,0,<img src='practice/pt1_T1.png'></img>,0,TRUE,NA,sub9
NA,html-keyboard-response,17,86869,0.0-6.0-0.0,"""event"",""trial"",""time""
""focus"",""0"",""0""
""fullscreenenter"",""0"",""5139""
","
","""event"",""trial"",""time""
""focus"",""0"",""0""
","""event"",""trial"",""time""
""fullscreenenter"",""0"",""5139""
","
",null,"<div style=""font-size:60px;"">+</div>",NA,null,fixation,2020-06-05T13:03:57Z,NA,NA,NA,NA,NA,sub9
NA,mars-trial,18,92291,0.0-6.0-1.0,"""event"",""trial"",""time""
""focus"",""0"",""0""
""fullscreenenter"",""0"",""5139""
","
","""event"",""trial"",""time""
""focus"",""0"",""0""
","""event"",""trial"",""time""
""fullscreenenter"",""0"",""5139""
","
",3312,<img style='border: 4px solid darkgrey;' src='practice/pt2_M1.png'></img>,2,NA,practice,NA,0,<img src='practice/pt2_T1.png'></img>,0,TRUE,NA,sub9
NA,html-keyboard-response,19,92938,0.0-7.0-0.0,"""event"",""trial"",""time""
""focus"",""0"",""0""
""fullscreenenter"",""0"",""5139""
","
","""event"",""trial"",""time""
""focus"",""0"",""0""
","""event"",""trial"",""time""
""fullscreenenter"",""0"",""5139""
","
",null,"<div style=""font-size:60px;"">+</div>",NA,null,fixation,2020-06-05T13:04:03Z,NA,NA,NA,NA,NA,sub9
NA,mars-trial,20,97053,0.0-7.0-1.0,"""event"",""trial"",""time""
""focus"",""0"",""0""
""fullscreenenter"",""0"",""5139""
","
","""event"",""trial"",""time""
""focus"",""0"",""0""
","""event"",""trial"",""time""
""fullscreenenter"",""0"",""5139""
","
",1992,<img style='border: 4px solid darkgrey;' src='practice/pt3_M1.png'></img>,1,NA,practice,NA,0,<img src='practice/pt3_T1.png'></img>,0,TRUE,NA,sub9
NA,audio-button-response,21,101272,0.0-8.0,"""event"",""trial"",""time""
""focus"",""0"",""0""
""fullscreenenter"",""0"",""5139""
","
","""event"",""trial"",""time""
""focus"",""0"",""0""
","""event"",""trial"",""time""
""fullscreenenter"",""0"",""5139""
","
",4213,audio/mars_instructions_slide4.wav,0,NA,NA,NA,NA,NA,NA,NA,NA,sub9
NA,call-function,22,101274,0.0-9.0,"""event"",""trial"",""time""
""focus"",""0"",""0""
""fullscreenenter"",""0"",""5139""
","
","""event"",""trial"",""time""
""focus"",""0"",""0""
","""event"",""trial"",""time""
""fullscreenenter"",""0"",""5139""
","
",NA,NA,NA,NA,NA,NA,NA,NA,NA,NA,NA,sub9
NA,html-keyboard-response,23,101792,0.0-10.0-0.0,"""event"",""trial"",""time""
""focus"",""0"",""0""
""fullscreenenter"",""0"",""5139""
","
","""event"",""trial"",""time""
""focus"",""0"",""0""
","""event"",""trial"",""time""
""fullscreenenter"",""0"",""5139""
","
",null,"<div style=""font-size:60px;"">+</div>",NA,null,fixation,2020-06-05T13:04:12Z,NA,NA,NA,NA,NA,sub9
NA,mars-trial,24,104514,0.0-10.0-1.0,"""event"",""trial"",""time""
""focus"",""0"",""0""
""fullscreenenter"",""0"",""5139""
","
","""event"",""trial"",""time""
""focus"",""0"",""0""
","""event"",""trial"",""time""
""fullscreenenter"",""0"",""5139""
","
",2084,<img style='border: 4px solid darkgrey;' src='img/tf1_1_M_ss3.jpeg'></img>,1,NA,exp,NA,0,<img src='img/tf1_1_T1_ss3_md.jpeg'></img>,0,TRUE,NA,sub9
NA,html-keyboard-response,25,105020,0.0-10.0-0.1,"""event"",""trial"",""time""
""focus"",""0"",""0""
""fullscreenenter"",""0"",""5139""
","
","""event"",""trial"",""time""
""focus"",""0"",""0""
","""event"",""trial"",""time""
""fullscreenenter"",""0"",""5139""
","
",null,"<div style=""font-size:60px;"">+</div>",NA,null,fixation,2020-06-05T13:04:15Z,NA,NA,NA,NA,NA,sub9
NA,mars-trial,26,108584,0.0-10.0-1.1,"""event"",""trial"",""time""
""focus"",""0"",""0""
""fullscreenenter"",""0"",""5139""
","
","""event"",""trial"",""time""
""focus"",""0"",""0""
","""event"",""trial"",""time""
""fullscreenenter"",""0"",""5139""
","
",2944,<img style='border: 4px solid darkgrey;' src='img/tf1_2_M_ss1.jpeg'></img>,2,NA,exp,NA,0,<img src='img/tf1_2_T1_ss1_md.jpeg'></img>,0,TRUE,NA,sub9
NA,html-keyboard-response,27,109104,0.0-10.0-0.2,"""event"",""trial"",""time""
""focus"",""0"",""0""
""fullscreenenter"",""0"",""5139""
","
","""event"",""trial"",""time""
""focus"",""0"",""0""
","""event"",""trial"",""time""
""fullscreenenter"",""0"",""5139""
","
",null,"<div style=""font-size:60px;"">+</div>",NA,null,fixation,2020-06-05T13:04:19Z,NA,NA,NA,NA,NA,sub9
NA,mars-trial,28,111943,0.0-10.0-1.2,"""event"",""trial"",""time""
""focus"",""0"",""0""
""fullscreenenter"",""0"",""5139""
","
","""event"",""trial"",""time""
""focus"",""0"",""0""
","""event"",""trial"",""time""
""fullscreenenter"",""0"",""5139""
","
",2211,<img style='border: 4px solid darkgrey;' src='img/tf1_3_M_ss2.jpeg'></img>,2,NA,exp,NA,2,<img src='img/tf1_3_T1_ss2_md.jpeg'></img>,0,FALSE,NA,sub9
NA,html-keyboard-response,29,112464,0.0-10.0-0.3,"""event"",""trial"",""time""
""focus"",""0"",""0""
""fullscreenenter"",""0"",""5139""
","
","""event"",""trial"",""time""
""focus"",""0"",""0""
","""event"",""trial"",""time""
""fullscreenenter"",""0"",""5139""
","
",null,"<div style=""font-size:60px;"">+</div>",NA,null,fixation,2020-06-05T13:04:22Z,NA,NA,NA,NA,NA,sub9
NA,mars-trial,30,116393,0.0-10.0-1.3,"""event"",""trial"",""time""
""focus"",""0"",""0""
""fullscreenenter"",""0"",""5139""
","
","""event"",""trial"",""time""
""focus"",""0"",""0""
","""event"",""trial"",""time""
""fullscreenenter"",""0"",""5139""
","
",3303,<img style='border: 4px solid darkgrey;' src='img/tf1_4_M_ss3.jpeg'></img>,3,NA,exp,NA,0,<img src='img/tf1_4_T1_ss3_md.jpeg'></img>,0,TRUE,NA,sub9
NA,html-keyboard-response,31,116904,0.0-10.0-0.4,"""event"",""trial"",""time""
""focus"",""0"",""0""
""fullscreenenter"",""0"",""5139""
","
","""event"",""trial"",""time""
""focus"",""0"",""0""
","""event"",""trial"",""time""
""fullscreenenter"",""0"",""5139""
","
",null,"<div style=""font-size:60px;"">+</div>",NA,null,fixation,2020-06-05T13:04:27Z,NA,NA,NA,NA,NA,sub9
NA,mars-trial,32,119535,0.0-10.0-1.4,"""event"",""trial"",""time""
""focus"",""0"",""0""
""fullscreenenter"",""0"",""5139""
","
","""event"",""trial"",""time""
""focus"",""0"",""0""
","""event"",""trial"",""time""
""fullscreenenter"",""0"",""5139""
","
",2001,<img style='border: 4px solid darkgrey;' src='img/tf1_5_M_ss1.jpeg'></img>,3,NA,exp,NA,0,<img src='img/tf1_5_T1_ss1_md.jpeg'></img>,0,TRUE,NA,sub9
NA,html-keyboard-response,33,120054,0.0-10.0-0.5,"""event"",""trial"",""time""
""focus"",""0"",""0""
""fullscreenenter"",""0"",""5139""
","
","""event"",""trial"",""time""
""focus"",""0"",""0""
","""event"",""trial"",""time""
""fullscreenenter"",""0"",""5139""
","
",null,"<div style=""font-size:60px;"">+</div>",NA,null,fixation,2020-06-05T13:04:30Z,NA,NA,NA,NA,NA,sub9
NA,mars-trial,34,125015,0.0-10.0-1.5,"""event"",""trial"",""time""
""focus"",""0"",""0""
""fullscreenenter"",""0"",""5139""
","
","""event"",""trial"",""time""
""focus"",""0"",""0""
","""event"",""trial"",""time""
""fullscreenenter"",""0"",""5139""
","
",4332,<img style='border: 4px solid darkgrey;' src='img/tf1_6_M_ss2.jpeg'></img>,1,NA,exp,NA,3,<img src='img/tf1_6_T1_ss2_md.jpeg'></img>,0,FALSE,NA,sub9
NA,html-keyboard-response,35,125534,0.0-10.0-0.6,"""event"",""trial"",""time""
""focus"",""0"",""0""
""fullscreenenter"",""0"",""5139""
","
","""event"",""trial"",""time""
""focus"",""0"",""0""
","""event"",""trial"",""time""
""fullscreenenter"",""0"",""5139""
","
",null,"<div style=""font-size:60px;"">+</div>",NA,null,fixation,2020-06-05T13:04:35Z,NA,NA,NA,NA,NA,sub9
NA,mars-trial,36,130079,0.0-10.0-1.6,"""event"",""trial"",""time""
""focus"",""0"",""0""
""fullscreenenter"",""0"",""5139""
","
","""event"",""trial"",""time""
""focus"",""0"",""0""
","""event"",""trial"",""time""
""fullscreenenter"",""0"",""5139""
","
",3926,<img style='border: 4px solid darkgrey;' src='img/tf1_7_M_ss3.jpeg'></img>,3,NA,exp,NA,0,<img src='img/tf1_7_T1_ss3_md.jpeg'></img>,0,TRUE,NA,sub9
NA,html-keyboard-response,37,130594,0.0-10.0-0.7,"""event"",""trial"",""time""
""focus"",""0"",""0""
""fullscreenenter"",""0"",""5139""
","
","""event"",""trial"",""time""
""focus"",""0"",""0""
","""event"",""trial"",""time""
""fullscreenenter"",""0"",""5139""
","
",null,"<div style=""font-size:60px;"">+</div>",NA,null,fixation,2020-06-05T13:04:41Z,NA,NA,NA,NA,NA,sub9
NA,mars-trial,38,133924,0.0-10.0-1.7,"""event"",""trial"",""time""
""focus"",""0"",""0""
""fullscreenenter"",""0"",""5139""
","
","""event"",""trial"",""time""
""focus"",""0"",""0""
","""event"",""trial"",""time""
""fullscreenenter"",""0"",""5139""
","
",2706,<img style='border: 4px solid darkgrey;' src='img/tf1_8_M_ss1.jpeg'></img>,1,NA,exp,NA,2,<img src='img/tf1_8_T1_ss1_md.jpeg'></img>,0,FALSE,NA,sub9
NA,html-keyboard-response,39,134445,0.0-10.0-0.8,"""event"",""trial"",""time""
""focus"",""0"",""0""
""fullscreenenter"",""0"",""5139""
","
","""event"",""trial"",""time""
""focus"",""0"",""0""
","""event"",""trial"",""time""
""fullscreenenter"",""0"",""5139""
","
",null,"<div style=""font-size:60px;"">+</div>",NA,null,fixation,2020-06-05T13:04:44Z,NA,NA,NA,NA,NA,sub9
NA,mars-trial,40,139797,0.0-10.0-1.8,"""event"",""trial"",""time""
""focus"",""0"",""0""
""fullscreenenter"",""0"",""5139""
","
","""event"",""trial"",""time""
""focus"",""0"",""0""
","""event"",""trial"",""time""
""fullscreenenter"",""0"",""5139""
","
",4722,<img style='border: 4px solid darkgrey;' src='img/tf1_9_M_ss2.jpeg'></img>,1,NA,exp,NA,2,<img src='img/tf1_9_T1_ss2_md.jpeg'></img>,0,FALSE,NA,sub9
NA,html-keyboard-response,41,140316,0.0-10.0-0.9,"""event"",""trial"",""time""
""focus"",""0"",""0""
""fullscreenenter"",""0"",""5139""
","
","""event"",""trial"",""time""
""focus"",""0"",""0""
","""event"",""trial"",""time""
""fullscreenenter"",""0"",""5139""
","
",null,"<div style=""font-size:60px;"">+</div>",NA,null,fixation,2020-06-05T13:04:50Z,NA,NA,NA,NA,NA,sub9
NA,mars-trial,42,145026,0.0-10.0-1.9,"""event"",""trial"",""time""
""focus"",""0"",""0""
""fullscreenenter"",""0"",""5139""
","
","""event"",""trial"",""time""
""focus"",""0"",""0""
","""event"",""trial"",""time""
""fullscreenenter"",""0"",""5139""
","
",4087,<img style='border: 4px solid darkgrey;' src='img/tf1_10_M_ss3.jpeg'></img>,2,NA,exp,NA,1,<img src='img/tf1_10_T1_ss3_md.jpeg'></img>,0,FALSE,NA,sub9
NA,html-keyboard-response,43,145545,0.0-10.0-0.10,"""event"",""trial"",""time""
""focus"",""0"",""0""
""fullscreenenter"",""0"",""5139""
","
","""event"",""trial"",""time""
""focus"",""0"",""0""
","""event"",""trial"",""time""
""fullscreenenter"",""0"",""5139""
","
",null,"<div style=""font-size:60px;"">+</div>",NA,null,fixation,2020-06-05T13:04:55Z,NA,NA,NA,NA,NA,sub9
NA,mars-trial,44,154718,0.0-10.0-1.10,"""event"",""trial"",""time""
""focus"",""0"",""0""
""fullscreenenter"",""0"",""5139""
","
","""event"",""trial"",""time""
""focus"",""0"",""0""
","""event"",""trial"",""time""
""fullscreenenter"",""0"",""5139""
","
",8528,<img style='border: 4px solid darkgrey;' src='img/tf1_11_M_ss1.jpeg'></img>,0,NA,exp,NA,2,<img src='img/tf1_11_T1_ss1_md.jpeg'></img>,0,FALSE,NA,sub9
NA,html-keyboard-response,45,155237,0.0-10.0-0.11,"""event"",""trial"",""time""
""focus"",""0"",""0""
""fullscreenenter"",""0"",""5139""
","
","""event"",""trial"",""time""
""focus"",""0"",""0""
","""event"",""trial"",""time""
""fullscreenenter"",""0"",""5139""
","
",null,"<div style=""font-size:60px;"">+</div>",NA,null,fixation,2020-06-05T13:05:05Z,NA,NA,NA,NA,NA,sub9
NA,mars-trial,46,160096,0.0-10.0-1.11,"""event"",""trial"",""time""
""focus"",""0"",""0""
""fullscreenenter"",""0"",""5139""
","
","""event"",""trial"",""time""
""focus"",""0"",""0""
","""event"",""trial"",""time""
""fullscreenenter"",""0"",""5139""
","
",4236,<img style='border: 4px solid darkgrey;' src='img/tf1_12_M_ss2.jpeg'></img>,0,NA,exp,NA,1,<img src='img/tf1_12_T1_ss2_md.jpeg'></img>,0,FALSE,NA,sub9
NA,html-keyboard-response,47,160611,0.0-10.0-0.12,"""event"",""trial"",""time""
""focus"",""0"",""0""
""fullscreenenter"",""0"",""5139""
","
","""event"",""trial"",""time""
""focus"",""0"",""0""
","""event"",""trial"",""time""
""fullscreenenter"",""0"",""5139""
","
",null,"<div style=""font-size:60px;"">+</div>",NA,null,fixation,2020-06-05T13:05:11Z,NA,NA,NA,NA,NA,sub9
NA,mars-trial,48,164698,0.0-10.0-1.12,"""event"",""trial"",""time""
""focus"",""0"",""0""
""fullscreenenter"",""0"",""5139""
","
","""event"",""trial"",""time""
""focus"",""0"",""0""
","""event"",""trial"",""time""
""fullscreenenter"",""0"",""5139""
","
",3450,<img style='border: 4px solid darkgrey;' src='img/tf1_13_M_ss3.jpeg'></img>,3,NA,exp,NA,1,<img src='img/tf1_13_T1_ss3_md.jpeg'></img>,0,FALSE,NA,sub9
NA,html-keyboard-response,49,165208,0.0-10.0-0.13,"""event"",""trial"",""time""
""focus"",""0"",""0""
""fullscreenenter"",""0"",""5139""
","
","""event"",""trial"",""time""
""focus"",""0"",""0""
","""event"",""trial"",""time""
""fullscreenenter"",""0"",""5139""
","
",null,"<div style=""font-size:60px;"">+</div>",NA,null,fixation,2020-06-05T13:05:15Z,NA,NA,NA,NA,NA,sub9
NA,mars-trial,50,170017,0.0-10.0-1.13,"""event"",""trial"",""time""
""focus"",""0"",""0""
""fullscreenenter"",""0"",""5139""
","
","""event"",""trial"",""time""
""focus"",""0"",""0""
","""event"",""trial"",""time""
""fullscreenenter"",""0"",""5139""
","
",4183,<img style='border: 4px solid darkgrey;' src='img/tf1_14_M_ss1.jpeg'></img>,3,NA,exp,NA,1,<img src='img/tf1_14_T1_ss1_md.jpeg'></img>,0,FALSE,NA,sub9
NA,html-keyboard-response,51,170525,0.0-10.0-0.14,"""event"",""trial"",""time""
""focus"",""0"",""0""
""fullscreenenter"",""0"",""5139""
","
","""event"",""trial"",""time""
""focus"",""0"",""0""
","""event"",""trial"",""time""
""fullscreenenter"",""0"",""5139""
","
",null,"<div style=""font-size:60px;"">+</div>",NA,null,fixation,2020-06-05T13:05:20Z,NA,NA,NA,NA,NA,sub9
NA,mars-trial,52,172698,0.0-10.0-1.14,"""event"",""trial"",""time""
""focus"",""0"",""0""
""fullscreenenter"",""0"",""5139""
","
","""event"",""trial"",""time""
""focus"",""0"",""0""
","""event"",""trial"",""time""
""fullscreenenter"",""0"",""5139""
","
",1542,<img style='border: 4px solid darkgrey;' src='img/tf1_15_M_ss2.jpeg'></img>,2,NA,exp,NA,1,<img src='img/tf1_15_T1_ss2_md.jpeg'></img>,0,FALSE,NA,sub9
NA,html-keyboard-response,53,173217,0.0-10.0-0.15,"""event"",""trial"",""time""
""focus"",""0"",""0""
""fullscreenenter"",""0"",""5139""
","
","""event"",""trial"",""time""
""focus"",""0"",""0""
","""event"",""trial"",""time""
""fullscreenenter"",""0"",""5139""
","
",null,"<div style=""font-size:60px;"">+</div>",NA,null,fixation,2020-06-05T13:05:23Z,NA,NA,NA,NA,NA,sub9
NA,mars-trial,54,181298,0.0-10.0-1.15,"""event"",""trial"",""time""
""focus"",""0"",""0""
""fullscreenenter"",""0"",""5139""
","
","""event"",""trial"",""time""
""focus"",""0"",""0""
","""event"",""trial"",""time""
""fullscreenenter"",""0"",""5139""
","
",7457,<img style='border: 4px solid darkgrey;' src='img/tf1_16_M_ss3.jpeg'></img>,2,NA,exp,NA,3,<img src='img/tf1_16_T1_ss3_md.jpeg'></img>,0,FALSE,NA,sub9
NA,html-keyboard-response,55,181809,0.0-10.0-0.16,"""event"",""trial"",""time""
""focus"",""0"",""0""
""fullscreenenter"",""0"",""5139""
","
","""event"",""trial"",""time""
""focus"",""0"",""0""
","""event"",""trial"",""time""
""fullscreenenter"",""0"",""5139""
","
",null,"<div style=""font-size:60px;"">+</div>",NA,null,fixation,2020-06-05T13:05:32Z,NA,NA,NA,NA,NA,sub9
NA,mars-trial,56,187158,0.0-10.0-1.16,"""event"",""trial"",""time""
""focus"",""0"",""0""
""fullscreenenter"",""0"",""5139""
","
","""event"",""trial"",""time""
""focus"",""0"",""0""
","""event"",""trial"",""time""
""fullscreenenter"",""0"",""5139""
","
",4733,<img style='border: 4px solid darkgrey;' src='img/tf1_17_M_ss1.jpeg'></img>,0,NA,exp,NA,3,<img src='img/tf1_17_T1_ss1_md.jpeg'></img>,0,FALSE,NA,sub9
NA,html-keyboard-response,57,187677,0.0-10.0-0.17,"""event"",""trial"",""time""
""focus"",""0"",""0""
""fullscreenenter"",""0"",""5139""
","
","""event"",""trial"",""time""
""focus"",""0"",""0""
","""event"",""trial"",""time""
""fullscreenenter"",""0"",""5139""
","
",null,"<div style=""font-size:60px;"">+</div>",NA,null,fixation,2020-06-05T13:05:38Z,NA,NA,NA,NA,NA,sub9
NA,mars-trial,58,191458,0.0-10.0-1.17,"""event"",""trial"",""time""
""focus"",""0"",""0""
""fullscreenenter"",""0"",""5139""
","
","""event"",""trial"",""time""
""focus"",""0"",""0""
","""event"",""trial"",""time""
""fullscreenenter"",""0"",""5139""
","
",3160,<img style='border: 4px solid darkgrey;' src='img/tf1_18_M_ss2.jpeg'></img>,3,NA,exp,NA,1,<img src='img/tf1_18_T1_ss2_md.jpeg'></img>,0,FALSE,NA,sub9
NA,html-keyboard-response,59,191978,0.0-10.0-0.18,"""event"",""trial"",""time""
""focus"",""0"",""0""
""fullscreenenter"",""0"",""5139""
","
","""event"",""trial"",""time""
""focus"",""0"",""0""
","""event"",""trial"",""time""
""fullscreenenter"",""0"",""5139""
","
",null,"<div style=""font-size:60px;"">+</div>",NA,null,fixation,2020-06-05T13:05:42Z,NA,NA,NA,NA,NA,sub9
NA,mars-trial,60,194200,0.0-10.0-1.18,"""event"",""trial"",""time""
""focus"",""0"",""0""
""fullscreenenter"",""0"",""5139""
","
","""event"",""trial"",""time""
""focus"",""0"",""0""
","""event"",""trial"",""time""
""fullscreenenter"",""0"",""5139""
","
",1591,<img style='border: 4px solid darkgrey;' src='img/tf1_19_M_ss3.jpeg'></img>,2,NA,exp,NA,3,<img src='img/tf1_19_T1_ss3_md.jpeg'></img>,0,FALSE,NA,sub9
NA,html-keyboard-response,61,194708,0.0-10.0-0.19,"""event"",""trial"",""time""
""focus"",""0"",""0""
""fullscreenenter"",""0"",""5139""
","
","""event"",""trial"",""time""
""focus"",""0"",""0""
","""event"",""trial"",""time""
""fullscreenenter"",""0"",""5139""
","
",null,"<div style=""font-size:60px;"">+</div>",NA,null,fixation,2020-06-05T13:05:45Z,NA,NA,NA,NA,NA,sub9
NA,mars-trial,62,197789,0.0-10.0-1.19,"""event"",""trial"",""time""
""focus"",""0"",""0""
""fullscreenenter"",""0"",""5139""
","
","""event"",""trial"",""time""
""focus"",""0"",""0""
","""event"",""trial"",""time""
""fullscreenenter"",""0"",""5139""
","
",2455,<img style='border: 4px solid darkgrey;' src='img/tf1_20_M_ss1.jpeg'></img>,1,NA,exp,NA,2,<img src='img/tf1_20_T1_ss1_md.jpeg'></img>,0,FALSE,NA,sub9
NA,html-keyboard-response,63,198309,0.0-10.0-0.20,"""event"",""trial"",""time""
""focus"",""0"",""0""
""fullscreenenter"",""0"",""5139""
","
","""event"",""trial"",""time""
""focus"",""0"",""0""
","""event"",""trial"",""time""
""fullscreenenter"",""0"",""5139""
","
",null,"<div style=""font-size:60px;"">+</div>",NA,null,fixation,2020-06-05T13:05:48Z,NA,NA,NA,NA,NA,sub9
NA,mars-trial,64,201549,0.0-10.0-1.20,"""event"",""trial"",""time""
""focus"",""0"",""0""
""fullscreenenter"",""0"",""5139""
","
","""event"",""trial"",""time""
""focus"",""0"",""0""
","""event"",""trial"",""time""
""fullscreenenter"",""0"",""5139""
","
",2622,<img style='border: 4px solid darkgrey;' src='img/tf1_21_M_ss2.jpeg'></img>,2,NA,exp,NA,0,<img src='img/tf1_21_T1_ss2_md.jpeg'></img>,0,TRUE,NA,sub9
NA,html-keyboard-response,65,202071,0.0-10.0-0.21,"""event"",""trial"",""time""
""focus"",""0"",""0""
""fullscreenenter"",""0"",""5139""
","
","""event"",""trial"",""time""
""focus"",""0"",""0""
","""event"",""trial"",""time""
""fullscreenenter"",""0"",""5139""
","
",null,"<div style=""font-size:60px;"">+</div>",NA,null,fixation,2020-06-05T13:05:52Z,NA,NA,NA,NA,NA,sub9
NA,mars-trial,66,205661,0.0-10.0-1.21,"""event"",""trial"",""time""
""focus"",""0"",""0""
""fullscreenenter"",""0"",""5139""
","
","""event"",""trial"",""time""
""focus"",""0"",""0""
","""event"",""trial"",""time""
""fullscreenenter"",""0"",""5139""
","
",2955,<img style='border: 4px solid darkgrey;' src='img/tf1_22_M_ss3.jpeg'></img>,1,NA,exp,NA,2,<img src='img/tf1_22_T1_ss3_md.jpeg'></img>,0,FALSE,NA,sub9
NA,html-keyboard-response,67,206179,0.0-10.0-0.22,"""event"",""trial"",""time""
""focus"",""0"",""0""
""fullscreenenter"",""0"",""5139""
","
","""event"",""trial"",""time""
""focus"",""0"",""0""
","""event"",""trial"",""time""
""fullscreenenter"",""0"",""5139""
","
",null,"<div style=""font-size:60px;"">+</div>",NA,null,fixation,2020-06-05T13:05:56Z,NA,NA,NA,NA,NA,sub9
NA,mars-trial,68,211781,0.0-10.0-1.22,"""event"",""trial"",""time""
""focus"",""0"",""0""
""fullscreenenter"",""0"",""5139""
","
","""event"",""trial"",""time""
""focus"",""0"",""0""
","""event"",""trial"",""time""
""fullscreenenter"",""0"",""5139""
","
",4966,<img style='border: 4px solid darkgrey;' src='img/tf1_23_M_ss1.jpeg'></img>,1,NA,exp,NA,3,<img src='img/tf1_23_T1_ss1_md.jpeg'></img>,0,FALSE,NA,sub9
NA,html-keyboard-response,69,212300,0.0-10.0-0.23,"""event"",""trial"",""time""
""focus"",""0"",""0""
""fullscreenenter"",""0"",""5139""
","
","""event"",""trial"",""time""
""focus"",""0"",""0""
","""event"",""trial"",""time""
""fullscreenenter"",""0"",""5139""
","
",null,"<div style=""font-size:60px;"">+</div>",NA,null,fixation,2020-06-05T13:06:02Z,NA,NA,NA,NA,NA,sub9
NA,mars-trial,70,217301,0.0-10.0-1.23,"""event"",""trial"",""time""
""focus"",""0"",""0""
""fullscreenenter"",""0"",""5139""
","
","""event"",""trial"",""time""
""focus"",""0"",""0""
","""event"",""trial"",""time""
""fullscreenenter"",""0"",""5139""
","
",4371,<img style='border: 4px solid darkgrey;' src='img/tf1_24_M_ss2.jpeg'></img>,2,NA,exp,NA,2,<img src='img/tf1_24_T1_ss2_md.jpeg'></img>,0,FALSE,NA,sub9
NA,html-keyboard-response,71,217820,0.0-10.0-0.24,"""event"",""trial"",""time""
""focus"",""0"",""0""
""fullscreenenter"",""0"",""5139""
","
","""event"",""trial"",""time""
""focus"",""0"",""0""
","""event"",""trial"",""time""
""fullscreenenter"",""0"",""5139""
","
",null,"<div style=""font-size:60px;"">+</div>",NA,null,fixation,2020-06-05T13:06:08Z,NA,NA,NA,NA,NA,sub9
NA,mars-trial,72,224982,0.0-10.0-1.24,"""event"",""trial"",""time""
""focus"",""0"",""0""
""fullscreenenter"",""0"",""5139""
","
","""event"",""trial"",""time""
""focus"",""0"",""0""
","""event"",""trial"",""time""
""fullscreenenter"",""0"",""5139""
","
",6525,<img style='border: 4px solid darkgrey;' src='img/tf1_25_M_ss3.jpeg'></img>,2,NA,exp,NA,2,<img src='img/tf1_25_T1_ss3_md.jpeg'></img>,0,FALSE,NA,sub9
NA,html-keyboard-response,73,225496,0.0-10.0-0.25,"""event"",""trial"",""time""
""focus"",""0"",""0""
""fullscreenenter"",""0"",""5139""
","
","""event"",""trial"",""time""
""focus"",""0"",""0""
","""event"",""trial"",""time""
""fullscreenenter"",""0"",""5139""
","
",null,"<div style=""font-size:60px;"">+</div>",NA,null,fixation,2020-06-05T13:06:15Z,NA,NA,NA,NA,NA,sub9
NA,mars-trial,74,234781,0.0-10.0-1.25,"""event"",""trial"",""time""
""focus"",""0"",""0""
""fullscreenenter"",""0"",""5139""
","
","""event"",""trial"",""time""
""focus"",""0"",""0""
","""event"",""trial"",""time""
""fullscreenenter"",""0"",""5139""
","
",8675,<img style='border: 4px solid darkgrey;' src='img/tf1_26_M_ss1.jpeg'></img>,0,NA,exp,NA,0,<img src='img/tf1_26_T1_ss1_md.jpeg'></img>,0,TRUE,NA,sub9
NA,html-keyboard-response,75,235292,0.0-10.0-0.26,"""event"",""trial"",""time""
""focus"",""0"",""0""
""fullscreenenter"",""0"",""5139""
","
","""event"",""trial"",""time""
""focus"",""0"",""0""
","""event"",""trial"",""time""
""fullscreenenter"",""0"",""5139""
","
",null,"<div style=""font-size:60px;"">+</div>",NA,null,fixation,2020-06-05T13:06:25Z,NA,NA,NA,NA,NA,sub9
NA,mars-trial,76,245084,0.0-10.0-1.26,"""event"",""trial"",""time""
""focus"",""0"",""0""
""fullscreenenter"",""0"",""5139""
","
","""event"",""trial"",""time""
""focus"",""0"",""0""
","""event"",""trial"",""time""
""fullscreenenter"",""0"",""5139""
","
",9178,<img style='border: 4px solid darkgrey;' src='img/tf1_27_M_ss2.jpeg'></img>,0,NA,exp,NA,3,<img src='img/tf1_27_T1_ss2_md.jpeg'></img>,0,FALSE,NA,sub9
NA,html-keyboard-response,77,245598,0.0-10.0-0.27,"""event"",""trial"",""time""
""focus"",""0"",""0""
""fullscreenenter"",""0"",""5139""
","
","""event"",""trial"",""time""
""focus"",""0"",""0""
","""event"",""trial"",""time""
""fullscreenenter"",""0"",""5139""
","
",null,"<div style=""font-size:60px;"">+</div>",NA,null,fixation,2020-06-05T13:06:36Z,NA,NA,NA,NA,NA,sub9
NA,mars-trial,78,253673,0.0-10.0-1.27,"""event"",""trial"",""time""
""focus"",""0"",""0""
""fullscreenenter"",""0"",""5139""
","
","""event"",""trial"",""time""
""focus"",""0"",""0""
","""event"",""trial"",""time""
""fullscreenenter"",""0"",""5139""
","
",7451,<img style='border: 4px solid darkgrey;' src='img/tf1_28_M_ss3.jpeg'></img>,2,NA,exp,NA,3,<img src='img/tf1_28_T1_ss3_md.jpeg'></img>,0,FALSE,NA,sub9
NA,html-keyboard-response,79,254194,0.0-10.0-0.28,"""event"",""trial"",""time""
""focus"",""0"",""0""
""fullscreenenter"",""0"",""5139""
","
","""event"",""trial"",""time""
""focus"",""0"",""0""
","""event"",""trial"",""time""
""fullscreenenter"",""0"",""5139""
","
",null,"<div style=""font-size:60px;"">+</div>",NA,null,fixation,2020-06-05T13:06:44Z,NA,NA,NA,NA,NA,sub9
NA,mars-trial,80,267184,0.0-10.0-1.28,"""event"",""trial"",""time""
""focus"",""0"",""0""
""fullscreenenter"",""0"",""5139""
","
","""event"",""trial"",""time""
""focus"",""0"",""0""
","""event"",""trial"",""time""
""fullscreenenter"",""0"",""5139""
","
",12356,<img style='border: 4px solid darkgrey;' src='img/tf1_29_M_ss1.jpeg'></img>,2,NA,exp,NA,2,<img src='img/tf1_29_T1_ss1_md.jpeg'></img>,0,FALSE,NA,sub9
NA,html-keyboard-response,81,267704,0.0-10.0-0.29,"""event"",""trial"",""time""
""focus"",""0"",""0""
""fullscreenenter"",""0"",""5139""
","
","""event"",""trial"",""time""
""focus"",""0"",""0""
","""event"",""trial"",""time""
""fullscreenenter"",""0"",""5139""
","
",null,"<div style=""font-size:60px;"">+</div>",NA,null,fixation,2020-06-05T13:06:58Z,NA,NA,NA,NA,NA,sub9
NA,mars-trial,82,272226,0.0-10.0-1.29,"""event"",""trial"",""time""
""focus"",""0"",""0""
""fullscreenenter"",""0"",""5139""
","
","""event"",""trial"",""time""
""focus"",""0"",""0""
","""event"",""trial"",""time""
""fullscreenenter"",""0"",""5139""
","
",3893,<img style='border: 4px solid darkgrey;' src='img/tf1_30_M_ss2.jpeg'></img>,3,NA,exp,NA,0,<img src='img/tf1_30_T1_ss2_md.jpeg'></img>,0,TRUE,NA,sub9
NA,html-keyboard-response,83,272745,0.0-10.0-0.30,"""event"",""trial"",""time""
""focus"",""0"",""0""
""fullscreenenter"",""0"",""5139""
","
","""event"",""trial"",""time""
""focus"",""0"",""0""
","""event"",""trial"",""time""
""fullscreenenter"",""0"",""5139""
","
",null,"<div style=""font-size:60px;"">+</div>",NA,null,fixation,2020-06-05T13:07:03Z,NA,NA,NA,NA,NA,sub9
NA,mars-trial,84,277695,0.0-10.0-1.30,"""event"",""trial"",""time""
""focus"",""0"",""0""
""fullscreenenter"",""0"",""5139""
","
","""event"",""trial"",""time""
""focus"",""0"",""0""
","""event"",""trial"",""time""
""fullscreenenter"",""0"",""5139""
","
",4322,<img style='border: 4px solid darkgrey;' src='img/tf1_31_M_ss3.jpeg'></img>,3,NA,exp,NA,3,<img src='img/tf1_31_T1_ss3_md.jpeg'></img>,0,FALSE,NA,sub9
NA,html-keyboard-response,85,278215,0.0-10.0-0.31,"""event"",""trial"",""time""
""focus"",""0"",""0""
""fullscreenenter"",""0"",""5139""
","
","""event"",""trial"",""time""
""focus"",""0"",""0""
","""event"",""trial"",""time""
""fullscreenenter"",""0"",""5139""
","
",null,"<div style=""font-size:60px;"">+</div>",NA,null,fixation,2020-06-05T13:07:08Z,NA,NA,NA,NA,NA,sub9
NA,mars-trial,86,282996,0.0-10.0-1.31,"""event"",""trial"",""time""
""focus"",""0"",""0""
""fullscreenenter"",""0"",""5139""
","
","""event"",""trial"",""time""
""focus"",""0"",""0""
","""event"",""trial"",""time""
""fullscreenenter"",""0"",""5139""
","
",4156,<img style='border: 4px solid darkgrey;' src='img/tf1_32_M_ss1.jpeg'></img>,1,NA,exp,NA,0,<img src='img/tf1_32_T1_ss1_md.jpeg'></img>,0,TRUE,NA,sub9
NA,html-keyboard-response,87,283515,0.0-10.0-0.32,"""event"",""trial"",""time""
""focus"",""0"",""0""
""fullscreenenter"",""0"",""5139""
","
","""event"",""trial"",""time""
""focus"",""0"",""0""
","""event"",""trial"",""time""
""fullscreenenter"",""0"",""5139""
","
",null,"<div style=""font-size:60px;"">+</div>",NA,null,fixation,2020-06-05T13:07:13Z,NA,NA,NA,NA,NA,sub9
NA,mars-trial,88,286435,0.0-10.0-1.32,"""event"",""trial"",""time""
""focus"",""0"",""0""
""fullscreenenter"",""0"",""5139""
","
","""event"",""trial"",""time""
""focus"",""0"",""0""
","""event"",""trial"",""time""
""fullscreenenter"",""0"",""5139""
","
",2293,<img style='border: 4px solid darkgrey;' src='img/tf1_33_M_ss2.jpeg'></img>,3,NA,exp,NA,2,<img src='img/tf1_33_T1_ss2_md.jpeg'></img>,0,FALSE,NA,sub9
NA,html-keyboard-response,89,286945,0.0-10.0-0.33,"""event"",""trial"",""time""
""focus"",""0"",""0""
""fullscreenenter"",""0"",""5139""
","
","""event"",""trial"",""time""
""focus"",""0"",""0""
","""event"",""trial"",""time""
""fullscreenenter"",""0"",""5139""
","
",null,"<div style=""font-size:60px;"">+</div>",NA,null,fixation,2020-06-05T13:07:17Z,NA,NA,NA,NA,NA,sub9
NA,mars-trial,90,288367,0.0-10.0-1.33,"""event"",""trial"",""time""
""focus"",""0"",""0""
""fullscreenenter"",""0"",""5139""
","
","""event"",""trial"",""time""
""focus"",""0"",""0""
","""event"",""trial"",""time""
""fullscreenenter"",""0"",""5139""
","
",808,<img style='border: 4px solid darkgrey;' src='img/tf1_34_M_ss3.jpeg'></img>,0,NA,exp,NA,1,<img src='img/tf1_34_T1_ss3_md.jpeg'></img>,0,FALSE,NA,sub9
NA,html-keyboard-response,91,288885,0.0-10.0-0.34,"""event"",""trial"",""time""
""focus"",""0"",""0""
""fullscreenenter"",""0"",""5139""
","
","""event"",""trial"",""time""
""focus"",""0"",""0""
","""event"",""trial"",""time""
""fullscreenenter"",""0"",""5139""
","
",null,"<div style=""font-size:60px;"">+</div>",NA,null,fixation,2020-06-05T13:07:19Z,NA,NA,NA,NA,NA,sub9
NA,mars-trial,92,290027,0.0-10.0-1.34,"""event"",""trial"",""time""
""focus"",""0"",""0""
""fullscreenenter"",""0"",""5139""
","
","""event"",""trial"",""time""
""focus"",""0"",""0""
","""event"",""trial"",""time""
""fullscreenenter"",""0"",""5139""
","
",530,<img style='border: 4px solid darkgrey;' src='img/tf1_35_M_ss1.jpeg'></img>,1,NA,exp,NA,2,<img src='img/tf1_35_T1_ss1_md.jpeg'></img>,0,FALSE,NA,sub9
NA,html-keyboard-response,93,290546,0.0-10.0-0.35,"""event"",""trial"",""time""
""focus"",""0"",""0""
""fullscreenenter"",""0"",""5139""
","
","""event"",""trial"",""time""
""focus"",""0"",""0""
","""event"",""trial"",""time""
""fullscreenenter"",""0"",""5139""
","
",null,"<div style=""font-size:60px;"">+</div>",NA,null,fixation,2020-06-05T13:07:20Z,NA,NA,NA,NA,NA,sub9
NA,mars-trial,94,291547,0.0-10.0-1.35,"""event"",""trial"",""time""
""focus"",""0"",""0""
""fullscreenenter"",""0"",""5139""
","
","""event"",""trial"",""time""
""focus"",""0"",""0""
","""event"",""trial"",""time""
""fullscreenenter"",""0"",""5139""
","
",371,<img style='border: 4px solid darkgrey;' src='img/tf1_36_M_ss2.jpeg'></img>,1,NA,exp,NA,2,<img src='img/tf1_36_T1_ss2_md.jpeg'></img>,0,FALSE,NA,sub9
NA,html-keyboard-response,95,292066,0.0-10.0-0.36,"""event"",""trial"",""time""
""focus"",""0"",""0""
""fullscreenenter"",""0"",""5139""
","
","""event"",""trial"",""time""
""focus"",""0"",""0""
","""event"",""trial"",""time""
""fullscreenenter"",""0"",""5139""
","
",null,"<div style=""font-size:60px;"">+</div>",NA,null,fixation,2020-06-05T13:07:22Z,NA,NA,NA,NA,NA,sub9
NA,mars-trial,96,293848,0.0-10.0-1.36,"""event"",""trial"",""time""
""focus"",""0"",""0""
""fullscreenenter"",""0"",""5139""
","
","""event"",""trial"",""time""
""focus"",""0"",""0""
","""event"",""trial"",""time""
""fullscreenenter"",""0"",""5139""
","
",1158,<img style='border: 4px solid darkgrey;' src='img/tf1_37_M_ss3.jpeg'></img>,2,NA,exp,NA,3,<img src='img/tf1_37_T1_ss3_md.jpeg'></img>,0,FALSE,NA,sub9
NA,html-keyboard-response,97,294353,0.0-10.0-0.37,"""event"",""trial"",""time""
""focus"",""0"",""0""
""fullscreenenter"",""0"",""5139""
","
","""event"",""trial"",""time""
""focus"",""0"",""0""
","""event"",""trial"",""time""
""fullscreenenter"",""0"",""5139""
","
",null,"<div style=""font-size:60px;"">+</div>",NA,null,fixation,2020-06-05T13:07:24Z,NA,NA,NA,NA,NA,sub9
NA,mars-trial,98,295748,0.0-10.0-1.37,"""event"",""trial"",""time""
""focus"",""0"",""0""
""fullscreenenter"",""0"",""5139""
","
","""event"",""trial"",""time""
""focus"",""0"",""0""
","""event"",""trial"",""time""
""fullscreenenter"",""0"",""5139""
","
",768,<img style='border: 4px solid darkgrey;' src='img/tf1_38_M_ss1.jpeg'></img>,3,NA,exp,NA,0,<img src='img/tf1_38_T1_ss1_md.jpeg'></img>,0,TRUE,NA,sub9
NA,html-keyboard-response,99,296252,0.0-10.0-0.38,"""event"",""trial"",""time""
""focus"",""0"",""0""
""fullscreenenter"",""0"",""5139""
","
","""event"",""trial"",""time""
""focus"",""0"",""0""
","""event"",""trial"",""time""
""fullscreenenter"",""0"",""5139""
","
",null,"<div style=""font-size:60px;"">+</div>",NA,null,fixation,2020-06-05T13:07:26Z,NA,NA,NA,NA,NA,sub9
NA,mars-trial,100,297606,0.0-10.0-1.38,"""event"",""trial"",""time""
""focus"",""0"",""0""
""fullscreenenter"",""0"",""5139""
","
","""event"",""trial"",""time""
""focus"",""0"",""0""
","""event"",""trial"",""time""
""fullscreenenter"",""0"",""5139""
","
",719,<img style='border: 4px solid darkgrey;' src='img/tf1_39_M_ss2.jpeg'></img>,2,NA,exp,NA,0,<img src='img/tf1_39_T1_ss2_md.jpeg'></img>,0,TRUE,NA,sub9
NA,html-keyboard-response,101,298119,0.0-10.0-0.39,"""event"",""trial"",""time""
""focus"",""0"",""0""
""fullscreenenter"",""0"",""5139""
","
","""event"",""trial"",""time""
""focus"",""0"",""0""
","""event"",""trial"",""time""
""fullscreenenter"",""0"",""5139""
","
",null,"<div style=""font-size:60px;"">+</div>",NA,null,fixation,2020-06-05T13:07:28Z,NA,NA,NA,NA,NA,sub9
NA,mars-trial,102,300008,0.0-10.0-1.39,"""event"",""trial"",""time""
""focus"",""0"",""0""
""fullscreenenter"",""0"",""5139""
","
","""event"",""trial"",""time""
""focus"",""0"",""0""
","""event"",""trial"",""time""
""fullscreenenter"",""0"",""5139""
","
",1258,<img style='border: 4px solid darkgrey;' src='img/tf1_40_M_ss3.jpeg'></img>,2,NA,exp,NA,2,<img src='img/tf1_40_T1_ss3_md.jpeg'></img>,0,FALSE,NA,sub9
NA,html-keyboard-response,103,300518,0.0-10.0-0.40,"""event"",""trial"",""time""
""focus"",""0"",""0""
""fullscreenenter"",""0"",""5139""
","
","""event"",""trial"",""time""
""focus"",""0"",""0""
","""event"",""trial"",""time""
""fullscreenenter"",""0"",""5139""
","
",null,"<div style=""font-size:60px;"">+</div>",NA,null,fixation,2020-06-05T13:07:30Z,NA,NA,NA,NA,NA,sub9
NA,mars-trial,104,302038,0.0-10.0-1.40,"""event"",""trial"",""time""
""focus"",""0"",""0""
""fullscreenenter"",""0"",""5139""
","
","""event"",""trial"",""time""
""focus"",""0"",""0""
","""event"",""trial"",""time""
""fullscreenenter"",""0"",""5139""
","
",883,<img style='border: 4px solid darkgrey;' src='img/tf1_41_M_ss1.jpeg'></img>,1,NA,exp,NA,3,<img src='img/tf1_41_T1_ss1_md.jpeg'></img>,0,FALSE,NA,sub9
NA,html-keyboard-response,105,302556,0.0-10.0-0.41,"""event"",""trial"",""time""
""focus"",""0"",""0""
""fullscreenenter"",""0"",""5139""
","
","""event"",""trial"",""time""
""focus"",""0"",""0""
","""event"",""trial"",""time""
""fullscreenenter"",""0"",""5139""
","
",null,"<div style=""font-size:60px;"">+</div>",NA,null,fixation,2020-06-05T13:07:32Z,NA,NA,NA,NA,NA,sub9
NA,mars-trial,106,304398,0.0-10.0-1.41,"""event"",""trial"",""time""
""focus"",""0"",""0""
""fullscreenenter"",""0"",""5139""
","
","""event"",""trial"",""time""
""focus"",""0"",""0""
","""event"",""trial"",""time""
""fullscreenenter"",""0"",""5139""
","
",1214,<img style='border: 4px solid darkgrey;' src='img/tf1_42_M_ss2.jpeg'></img>,0,NA,exp,NA,1,<img src='img/tf1_42_T1_ss2_md.jpeg'></img>,0,FALSE,NA,sub9
NA,html-keyboard-response,107,304916,0.0-10.0-0.42,"""event"",""trial"",""time""
""focus"",""0"",""0""
""fullscreenenter"",""0"",""5139""
","
","""event"",""trial"",""time""
""focus"",""0"",""0""
","""event"",""trial"",""time""
""fullscreenenter"",""0"",""5139""
","
",null,"<div style=""font-size:60px;"">+</div>",NA,null,fixation,2020-06-05T13:07:35Z,NA,NA,NA,NA,NA,sub9
NA,mars-trial,108,307138,0.0-10.0-1.42,"""event"",""trial"",""time""
""focus"",""0"",""0""
""fullscreenenter"",""0"",""5139""
","
","""event"",""trial"",""time""
""focus"",""0"",""0""
","""event"",""trial"",""time""
""fullscreenenter"",""0"",""5139""
","
",1604,<img style='border: 4px solid darkgrey;' src='img/tf1_43_M_ss3.jpeg'></img>,0,NA,exp,NA,1,<img src='img/tf1_43_T1_ss3_md.jpeg'></img>,0,FALSE,NA,sub9
NA,html-keyboard-response,109,307657,0.0-10.0-0.43,"""event"",""trial"",""time""
""focus"",""0"",""0""
""fullscreenenter"",""0"",""5139""
","
","""event"",""trial"",""time""
""focus"",""0"",""0""
","""event"",""trial"",""time""
""fullscreenenter"",""0"",""5139""
","
",null,"<div style=""font-size:60px;"">+</div>",NA,null,fixation,2020-06-05T13:07:38Z,NA,NA,NA,NA,NA,sub9
NA,mars-trial,110,318168,0.0-10.0-1.43,"""event"",""trial"",""time""
""focus"",""0"",""0""
""fullscreenenter"",""0"",""5139""
","
","""event"",""trial"",""time""
""focus"",""0"",""0""
","""event"",""trial"",""time""
""fullscreenenter"",""0"",""5139""
","
",9881,<img style='border: 4px solid darkgrey;' src='img/tf1_44_M_ss1.jpeg'></img>,3,NA,exp,NA,2,<img src='img/tf1_44_T1_ss1_md.jpeg'></img>,0,FALSE,NA,sub9
NA,html-keyboard-response,111,318687,0.0-10.0-0.44,"""event"",""trial"",""time""
""focus"",""0"",""0""
""fullscreenenter"",""0"",""5139""
","
","""event"",""trial"",""time""
""focus"",""0"",""0""
","""event"",""trial"",""time""
""fullscreenenter"",""0"",""5139""
","
",null,"<div style=""font-size:60px;"">+</div>",NA,null,fixation,2020-06-05T13:07:49Z,NA,NA,NA,NA,NA,sub9
NA,mars-trial,112,322509,0.0-10.0-1.44,"""event"",""trial"",""time""
""focus"",""0"",""0""
""fullscreenenter"",""0"",""5139""
","
","""event"",""trial"",""time""
""focus"",""0"",""0""
","""event"",""trial"",""time""
""fullscreenenter"",""0"",""5139""
","
",3214,<img style='border: 4px solid darkgrey;' src='img/tf1_45_M_ss2.jpeg'></img>,2,NA,exp,NA,0,<img src='img/tf1_45_T1_ss2_md.jpeg'></img>,0,TRUE,NA,sub9
NA,html-keyboard-response,113,323027,0.0-10.0-0.45,"""event"",""trial"",""time""
""focus"",""0"",""0""
""fullscreenenter"",""0"",""5139""
","
","""event"",""trial"",""time""
""focus"",""0"",""0""
","""event"",""trial"",""time""
""fullscreenenter"",""0"",""5139""
","
",null,"<div style=""font-size:60px;"">+</div>",NA,null,fixation,2020-06-05T13:07:53Z,NA,NA,NA,NA,NA,sub9
NA,mars-trial,114,325529,0.0-10.0-1.45,"""event"",""trial"",""time""
""focus"",""0"",""0""
""fullscreenenter"",""0"",""5139""
","
","""event"",""trial"",""time""
""focus"",""0"",""0""
","""event"",""trial"",""time""
""fullscreenenter"",""0"",""5139""
","
",1867,<img style='border: 4px solid darkgrey;' src='img/tf1_46_M_ss3.jpeg'></img>,2,NA,exp,NA,1,<img src='img/tf1_46_T1_ss3_md.jpeg'></img>,0,FALSE,NA,sub9
NA,html-keyboard-response,115,326048,0.0-10.0-0.46,"""event"",""trial"",""time""
""focus"",""0"",""0""
""fullscreenenter"",""0"",""5139""
","
","""event"",""trial"",""time""
""focus"",""0"",""0""
","""event"",""trial"",""time""
""fullscreenenter"",""0"",""5139""
","
",null,"<div style=""font-size:60px;"">+</div>",NA,null,fixation,2020-06-05T13:07:56Z,NA,NA,NA,NA,NA,sub9
NA,mars-trial,116,328104,0.0-10.0-1.46,"""event"",""trial"",""time""
""focus"",""0"",""0""
""fullscreenenter"",""0"",""5139""
","
","""event"",""trial"",""time""
""focus"",""0"",""0""
","""event"",""trial"",""time""
""fullscreenenter"",""0"",""5139""
","
",1427,<img style='border: 4px solid darkgrey;' src='img/tf1_47_M_ss1.jpeg'></img>,2,NA,exp,NA,2,<img src='img/tf1_47_T1_ss1_md.jpeg'></img>,0,FALSE,NA,sub9
NA,html-keyboard-response,117,328618,0.0-10.0-0.47,"""event"",""trial"",""time""
""focus"",""0"",""0""
""fullscreenenter"",""0"",""5139""
","
","""event"",""trial"",""time""
""focus"",""0"",""0""
","""event"",""trial"",""time""
""fullscreenenter"",""0"",""5139""
","
",null,"<div style=""font-size:60px;"">+</div>",NA,null,fixation,2020-06-05T13:07:59Z,NA,NA,NA,NA,NA,sub9
NA,mars-trial,118,337761,0.0-10.0-1.47,"""event"",""trial"",""time""
""focus"",""0"",""0""
""fullscreenenter"",""0"",""5139""
","
","""event"",""trial"",""time""
""focus"",""0"",""0""
","""event"",""trial"",""time""
""fullscreenenter"",""0"",""5139""
","
",8505,<img style='border: 4px solid darkgrey;' src='img/tf1_48_M_ss2.jpeg'></img>,1,NA,exp,NA,2,<img src='img/tf1_48_T1_ss2_md.jpeg'></img>,0,FALSE,NA,sub9
NA,html-keyboard-response,119,338279,0.0-10.0-0.48,"""event"",""trial"",""time""
""focus"",""0"",""0""
""fullscreenenter"",""0"",""5139""
","
","""event"",""trial"",""time""
""focus"",""0"",""0""
","""event"",""trial"",""time""
""fullscreenenter"",""0"",""5139""
","
",null,"<div style=""font-size:60px;"">+</div>",NA,null,fixation,2020-06-05T13:08:08Z,NA,NA,NA,NA,NA,sub9
NA,mars-trial,120,343431,0.0-10.0-1.48,"""event"",""trial"",""time""
""focus"",""0"",""0""
""fullscreenenter"",""0"",""5139""
","
","""event"",""trial"",""time""
""focus"",""0"",""0""
","""event"",""trial"",""time""
""fullscreenenter"",""0"",""5139""
","
",4517,<img style='border: 4px solid darkgrey;' src='img/tf1_49_M_ss3.jpeg'></img>,1,NA,exp,NA,3,<img src='img/tf1_49_T1_ss3_md.jpeg'></img>,0,FALSE,NA,sub9
NA,html-keyboard-response,121,343938,0.0-10.0-0.49,"""event"",""trial"",""time""
""focus"",""0"",""0""
""fullscreenenter"",""0"",""5139""
","
","""event"",""trial"",""time""
""focus"",""0"",""0""
","""event"",""trial"",""time""
""fullscreenenter"",""0"",""5139""
","
",null,"<div style=""font-size:60px;"">+</div>",NA,null,fixation,2020-06-05T13:08:14Z,NA,NA,NA,NA,NA,sub9
NA,mars-trial,122,350111,0.0-10.0-1.49,"""event"",""trial"",""time""
""focus"",""0"",""0""
""fullscreenenter"",""0"",""5139""
","
","""event"",""trial"",""time""
""focus"",""0"",""0""
","""event"",""trial"",""time""
""fullscreenenter"",""0"",""5139""
","
",5545,<img style='border: 4px solid darkgrey;' src='img/tf1_50_M_ss1.jpeg'></img>,1,NA,exp,NA,3,<img src='img/tf1_50_T1_ss1_md.jpeg'></img>,0,FALSE,NA,sub9
NA,html-keyboard-response,123,350629,0.0-10.0-0.50,"""event"",""trial"",""time""
""focus"",""0"",""0""
""fullscreenenter"",""0"",""5139""
","
","""event"",""trial"",""time""
""focus"",""0"",""0""
","""event"",""trial"",""time""
""fullscreenenter"",""0"",""5139""
","
",null,"<div style=""font-size:60px;"">+</div>",NA,null,fixation,2020-06-05T13:08:21Z,NA,NA,NA,NA,NA,sub9
NA,mars-trial,124,356821,0.0-10.0-1.50,"""event"",""trial"",""time""
""focus"",""0"",""0""
""fullscreenenter"",""0"",""5139""
","
","""event"",""trial"",""time""
""focus"",""0"",""0""
","""event"",""trial"",""time""
""fullscreenenter"",""0"",""5139""
","
",5566,<img style='border: 4px solid darkgrey;' src='img/tf1_51_M_ss2.jpeg'></img>,2,NA,exp,NA,2,<img src='img/tf1_51_T1_ss2_md.jpeg'></img>,0,FALSE,NA,sub9
NA,html-keyboard-response,125,357324,0.0-10.0-0.51,"""event"",""trial"",""time""
""focus"",""0"",""0""
""fullscreenenter"",""0"",""5139""
","
","""event"",""trial"",""time""
""focus"",""0"",""0""
","""event"",""trial"",""time""
""fullscreenenter"",""0"",""5139""
","
",null,"<div style=""font-size:60px;"">+</div>",NA,null,fixation,2020-06-05T13:08:27Z,NA,NA,NA,NA,NA,sub9
NA,mars-trial,126,363741,0.0-10.0-1.51,"""event"",""trial"",""time""
""focus"",""0"",""0""
""fullscreenenter"",""0"",""5139""
","
","""event"",""trial"",""time""
""focus"",""0"",""0""
","""event"",""trial"",""time""
""fullscreenenter"",""0"",""5139""
","
",5782,<img style='border: 4px solid darkgrey;' src='img/tf1_52_M_ss3.jpeg'></img>,3,NA,exp,NA,1,<img src='img/tf1_52_T1_ss3_md.jpeg'></img>,0,FALSE,NA,sub9
NA,html-keyboard-response,127,364257,0.0-10.0-0.52,"""event"",""trial"",""time""
""focus"",""0"",""0""
""fullscreenenter"",""0"",""5139""
","
","""event"",""trial"",""time""
""focus"",""0"",""0""
","""event"",""trial"",""time""
""fullscreenenter"",""0"",""5139""
","
",null,"<div style=""font-size:60px;"">+</div>",NA,null,fixation,2020-06-05T13:08:34Z,NA,NA,NA,NA,NA,sub9
NA,mars-trial,128,370101,0.0-10.0-1.52,"""event"",""trial"",""time""
""focus"",""0"",""0""
""fullscreenenter"",""0"",""5139""
","
","""event"",""trial"",""time""
""focus"",""0"",""0""
","""event"",""trial"",""time""
""fullscreenenter"",""0"",""5139""
","
",5232,<img style='border: 4px solid darkgrey;' src='img/tf1_53_M_ss1.jpeg'></img>,3,NA,exp,NA,3,<img src='img/tf1_53_T1_ss1_md.jpeg'></img>,0,FALSE,NA,sub9
NA,html-keyboard-response,129,370621,0.0-10.0-0.53,"""event"",""trial"",""time""
""focus"",""0"",""0""
""fullscreenenter"",""0"",""5139""
","
","""event"",""trial"",""time""
""focus"",""0"",""0""
","""event"",""trial"",""time""
""fullscreenenter"",""0"",""5139""
","
",null,"<div style=""font-size:60px;"">+</div>",NA,null,fixation,2020-06-05T13:08:41Z,NA,NA,NA,NA,NA,sub9
NA,mars-trial,130,372522,0.0-10.0-1.53,"""event"",""trial"",""time""
""focus"",""0"",""0""
""fullscreenenter"",""0"",""5139""
","
","""event"",""trial"",""time""
""focus"",""0"",""0""
","""event"",""trial"",""time""
""fullscreenenter"",""0"",""5139""
","
",1287,<img style='border: 4px solid darkgrey;' src='img/tf1_54_M_ss2.jpeg'></img>,2,NA,exp,NA,2,<img src='img/tf1_54_T1_ss2_md.jpeg'></img>,0,FALSE,NA,sub9
NA,html-keyboard-response,131,373042,0.0-10.0-0.54,"""event"",""trial"",""time""
""focus"",""0"",""0""
""fullscreenenter"",""0"",""5139""
","
","""event"",""trial"",""time""
""focus"",""0"",""0""
","""event"",""trial"",""time""
""fullscreenenter"",""0"",""5139""
","
",null,"<div style=""font-size:60px;"">+</div>",NA,null,fixation,2020-06-05T13:08:43Z,NA,NA,NA,NA,NA,sub9
NA,mars-trial,132,375808,0.0-10.0-1.54,"""event"",""trial"",""time""
""focus"",""0"",""0""
""fullscreenenter"",""0"",""5139""
","
","""event"",""trial"",""time""
""focus"",""0"",""0""
","""event"",""trial"",""time""
""fullscreenenter"",""0"",""5139""
","
",2144,<img style='border: 4px solid darkgrey;' src='img/tf1_55_M_ss3.jpeg'></img>,1,NA,exp,NA,3,<img src='img/tf1_55_T1_ss3_md.jpeg'></img>,0,FALSE,NA,sub9
NA,html-keyboard-response,133,376321,0.0-10.0-0.55,"""event"",""trial"",""time""
""focus"",""0"",""0""
""fullscreenenter"",""0"",""5139""
","
","""event"",""trial"",""time""
""focus"",""0"",""0""
","""event"",""trial"",""time""
""fullscreenenter"",""0"",""5139""
","
",null,"<div style=""font-size:60px;"">+</div>",NA,null,fixation,2020-06-05T13:08:46Z,NA,NA,NA,NA,NA,sub9
NA,mars-trial,134,377859,0.0-10.0-1.55,"""event"",""trial"",""time""
""focus"",""0"",""0""
""fullscreenenter"",""0"",""5139""
","
","""event"",""trial"",""time""
""focus"",""0"",""0""
","""event"",""trial"",""time""
""fullscreenenter"",""0"",""5139""
","
",917,<img style='border: 4px solid darkgrey;' src='img/tf1_56_M_ss1.jpeg'></img>,0,NA,exp,NA,1,<img src='img/tf1_56_T1_ss1_md.jpeg'></img>,0,FALSE,NA,sub9
NA,html-keyboard-response,135,378375,0.0-10.0-0.56,"""event"",""trial"",""time""
""focus"",""0"",""0""
""fullscreenenter"",""0"",""5139""
","
","""event"",""trial"",""time""
""focus"",""0"",""0""
","""event"",""trial"",""time""
""fullscreenenter"",""0"",""5139""
","
",null,"<div style=""font-size:60px;"">+</div>",NA,null,fixation,2020-06-05T13:08:48Z,NA,NA,NA,NA,NA,sub9
NA,mars-trial,136,380442,0.0-10.0-1.56,"""event"",""trial"",""time""
""focus"",""0"",""0""
""fullscreenenter"",""0"",""5139""
","
","""event"",""trial"",""time""
""focus"",""0"",""0""
","""event"",""trial"",""time""
""fullscreenenter"",""0"",""5139""
","
",1458,<img style='border: 4px solid darkgrey;' src='img/tf1_57_M_ss2.jpeg'></img>,1,NA,exp,NA,3,<img src='img/tf1_57_T1_ss2_md.jpeg'></img>,0,FALSE,NA,sub9
NA,html-keyboard-response,137,380958,0.0-10.0-0.57,"""event"",""trial"",""time""
""focus"",""0"",""0""
""fullscreenenter"",""0"",""5139""
","
","""event"",""trial"",""time""
""focus"",""0"",""0""
","""event"",""trial"",""time""
""fullscreenenter"",""0"",""5139""
","
",null,"<div style=""font-size:60px;"">+</div>",NA,null,fixation,2020-06-05T13:08:51Z,NA,NA,NA,NA,NA,sub9
NA,mars-trial,138,383122,0.0-10.0-1.57,"""event"",""trial"",""time""
""focus"",""0"",""0""
""fullscreenenter"",""0"",""5139""
","
","""event"",""trial"",""time""
""focus"",""0"",""0""
","""event"",""trial"",""time""
""fullscreenenter"",""0"",""5139""
","
",1556,<img style='border: 4px solid darkgrey;' src='img/tf1_58_M_ss3.jpeg'></img>,2,NA,exp,NA,2,<img src='img/tf1_58_T1_ss3_md.jpeg'></img>,0,FALSE,NA,sub9
NA,html-keyboard-response,139,383642,0.0-10.0-0.58,"""event"",""trial"",""time""
""focus"",""0"",""0""
""fullscreenenter"",""0"",""5139""
","
","""event"",""trial"",""time""
""focus"",""0"",""0""
","""event"",""trial"",""time""
""fullscreenenter"",""0"",""5139""
","
",null,"<div style=""font-size:60px;"">+</div>",NA,null,fixation,2020-06-05T13:08:54Z,NA,NA,NA,NA,NA,sub9
NA,mars-trial,140,385642,0.0-10.0-1.58,"""event"",""trial"",""time""
""focus"",""0"",""0""
""fullscreenenter"",""0"",""5139""
","
","""event"",""trial"",""time""
""focus"",""0"",""0""
","""event"",""trial"",""time""
""fullscreenenter"",""0"",""5139""
","
",1361,<img style='border: 4px solid darkgrey;' src='img/tf1_59_M_ss1.jpeg'></img>,3,NA,exp,NA,2,<img src='img/tf1_59_T1_ss1_md.jpeg'></img>,0,FALSE,NA,sub9
NA,html-keyboard-response,141,386161,0.0-10.0-0.59,"""event"",""trial"",""time""
""focus"",""0"",""0""
""fullscreenenter"",""0"",""5139""
","
","""event"",""trial"",""time""
""focus"",""0"",""0""
","""event"",""trial"",""time""
""fullscreenenter"",""0"",""5139""
","
",null,"<div style=""font-size:60px;"">+</div>",NA,null,fixation,2020-06-05T13:08:56Z,NA,NA,NA,NA,NA,sub9
NA,mars-trial,142,394965,0.0-10.0-1.59,"""event"",""trial"",""time""
""focus"",""0"",""0""
""fullscreenenter"",""0"",""5139""
","
","""event"",""trial"",""time""
""focus"",""0"",""0""
","""event"",""trial"",""time""
""fullscreenenter"",""0"",""5139""
","
",8159,<img style='border: 4px solid darkgrey;' src='img/tf1_60_M_ss2.jpeg'></img>,1,NA,exp,NA,3,<img src='img/tf1_60_T1_ss2_md.jpeg'></img>,0,FALSE,NA,sub9
NA,html-keyboard-response,143,395483,0.0-10.0-0.60,"""event"",""trial"",""time""
""focus"",""0"",""0""
""fullscreenenter"",""0"",""5139""
","
","""event"",""trial"",""time""
""focus"",""0"",""0""
","""event"",""trial"",""time""
""fullscreenenter"",""0"",""5139""
","
",null,"<div style=""font-size:60px;"">+</div>",NA,null,fixation,2020-06-05T13:09:05Z,NA,NA,NA,NA,NA,sub9
NA,mars-trial,144,410784,0.0-10.0-1.60,"""event"",""trial"",""time""
""focus"",""0"",""0""
""fullscreenenter"",""0"",""5139""
","
","""event"",""trial"",""time""
""focus"",""0"",""0""
","""event"",""trial"",""time""
""fullscreenenter"",""0"",""5139""
","
",14668,<img style='border: 4px solid darkgrey;' src='img/tf1_61_M_ss3.jpeg'></img>,1,NA,exp,NA,0,<img src='img/tf1_61_T1_ss3_md.jpeg'></img>,0,TRUE,NA,sub9
NA,html-keyboard-response,145,411294,0.0-10.0-0.61,"""event"",""trial"",""time""
""focus"",""0"",""0""
""fullscreenenter"",""0"",""5139""
","
","""event"",""trial"",""time""
""focus"",""0"",""0""
","""event"",""trial"",""time""
""fullscreenenter"",""0"",""5139""
","
",null,"<div style=""font-size:60px;"">+</div>",NA,null,fixation,2020-06-05T13:09:21Z,NA,NA,NA,NA,NA,sub9
NA,mars-trial,146,424206,0.0-10.0-1.61,"""event"",""trial"",""time""
""focus"",""0"",""0""
""fullscreenenter"",""0"",""5139""
","
","""event"",""trial"",""time""
""focus"",""0"",""0""
","""event"",""trial"",""time""
""fullscreenenter"",""0"",""5139""
","
",12277,<img style='border: 4px solid darkgrey;' src='img/tf1_62_M_ss1.jpeg'></img>,0,NA,exp,NA,0,<img src='img/tf1_62_T1_ss1_md.jpeg'></img>,0,TRUE,NA,sub9
NA,html-keyboard-response,147,424725,0.0-10.0-0.62,"""event"",""trial"",""time""
""focus"",""0"",""0""
""fullscreenenter"",""0"",""5139""
","
","""event"",""trial"",""time""
""focus"",""0"",""0""
","""event"",""trial"",""time""
""fullscreenenter"",""0"",""5139""
","
",null,"<div style=""font-size:60px;"">+</div>",NA,null,fixation,2020-06-05T13:09:35Z,NA,NA,NA,NA,NA,sub9
NA,mars-trial,148,434737,0.0-10.0-1.62,"""event"",""trial"",""time""
""focus"",""0"",""0""
""fullscreenenter"",""0"",""5139""
","
","""event"",""trial"",""time""
""focus"",""0"",""0""
","""event"",""trial"",""time""
""fullscreenenter"",""0"",""5139""
","
",9374,<img style='border: 4px solid darkgrey;' src='img/tf1_63_M_ss2.jpeg'></img>,2,NA,exp,NA,2,<img src='img/tf1_63_T1_ss2_md.jpeg'></img>,0,FALSE,NA,sub9
NA,html-keyboard-response,149,435256,0.0-10.0-0.63,"""event"",""trial"",""time""
""focus"",""0"",""0""
""fullscreenenter"",""0"",""5139""
","
","""event"",""trial"",""time""
""focus"",""0"",""0""
","""event"",""trial"",""time""
""fullscreenenter"",""0"",""5139""
","
",null,"<div style=""font-size:60px;"">+</div>",NA,null,fixation,2020-06-05T13:09:45Z,NA,NA,NA,NA,NA,sub9
NA,mars-trial,150,443598,0.0-10.0-1.63,"""event"",""trial"",""time""
""focus"",""0"",""0""
""fullscreenenter"",""0"",""5139""
","
","""event"",""trial"",""time""
""focus"",""0"",""0""
","""event"",""trial"",""time""
""fullscreenenter"",""0"",""5139""
","
",7711,<img style='border: 4px solid darkgrey;' src='img/tf1_64_M_ss3.jpeg'></img>,3,NA,exp,NA,3,<img src='img/tf1_64_T1_ss3_md.jpeg'></img>,0,FALSE,NA,sub9
NA,html-keyboard-response,151,444111,0.0-10.0-0.64,"""event"",""trial"",""time""
""focus"",""0"",""0""
""fullscreenenter"",""0"",""5139""
","
","""event"",""trial"",""time""
""focus"",""0"",""0""
","""event"",""trial"",""time""
""fullscreenenter"",""0"",""5139""
","
",null,"<div style=""font-size:60px;"">+</div>",NA,null,fixation,2020-06-05T13:09:54Z,NA,NA,NA,NA,NA,sub9
NA,mars-trial,152,449928,0.0-10.0-1.64,"""event"",""trial"",""time""
""focus"",""0"",""0""
""fullscreenenter"",""0"",""5139""
","
","""event"",""trial"",""time""
""focus"",""0"",""0""
","""event"",""trial"",""time""
""fullscreenenter"",""0"",""5139""
","
",5178,<img style='border: 4px solid darkgrey;' src='img/tf1_65_M_ss1.jpeg'></img>,2,NA,exp,NA,1,<img src='img/tf1_65_T1_ss1_md.jpeg'></img>,0,FALSE,NA,sub9
NA,html-keyboard-response,153,450447,0.0-10.0-0.65,"""event"",""trial"",""time""
""focus"",""0"",""0""
""fullscreenenter"",""0"",""5139""
","
","""event"",""trial"",""time""
""focus"",""0"",""0""
","""event"",""trial"",""time""
""fullscreenenter"",""0"",""5139""
","
",null,"<div style=""font-size:60px;"">+</div>",NA,null,fixation,2020-06-05T13:10:00Z,NA,NA,NA,NA,NA,sub9
NA,mars-trial,154,479360,0.0-10.0-1.65,"""event"",""trial"",""time""
""focus"",""0"",""0""
""fullscreenenter"",""0"",""5139""
","
","""event"",""trial"",""time""
""focus"",""0"",""0""
","""event"",""trial"",""time""
""fullscreenenter"",""0"",""5139""
","
",28275,<img style='border: 4px solid darkgrey;' src='img/tf1_66_M_ss2.jpeg'></img>,2,NA,exp,NA,2,<img src='img/tf1_66_T1_ss2_md.jpeg'></img>,0,FALSE,NA,sub9
NA,html-keyboard-response,155,479880,0.0-10.0-0.66,"""event"",""trial"",""time""
""focus"",""0"",""0""
""fullscreenenter"",""0"",""5139""
","
","""event"",""trial"",""time""
""focus"",""0"",""0""
","""event"",""trial"",""time""
""fullscreenenter"",""0"",""5139""
","
",null,"<div style=""font-size:60px;"">+</div>",NA,null,fixation,2020-06-05T13:10:30Z,NA,NA,NA,NA,NA,sub9
NA,mars-trial,156,487160,0.0-10.0-1.66,"""event"",""trial"",""time""
""focus"",""0"",""0""
""fullscreenenter"",""0"",""5139""
","
","""event"",""trial"",""time""
""focus"",""0"",""0""
","""event"",""trial"",""time""
""fullscreenenter"",""0"",""5139""
","
",6654,<img style='border: 4px solid darkgrey;' src='img/tf1_67_M_ss3.jpeg'></img>,0,NA,exp,NA,3,<img src='img/tf1_67_T1_ss3_md.jpeg'></img>,0,FALSE,NA,sub9
NA,html-keyboard-response,157,487667,0.0-10.0-0.67,"""event"",""trial"",""time""
""focus"",""0"",""0""
""fullscreenenter"",""0"",""5139""
","
","""event"",""trial"",""time""
""focus"",""0"",""0""
","""event"",""trial"",""time""
""fullscreenenter"",""0"",""5139""
","
",null,"<div style=""font-size:60px;"">+</div>",NA,null,fixation,2020-06-05T13:10:38Z,NA,NA,NA,NA,NA,sub9
NA,mars-trial,158,490330,0.0-10.0-1.67,"""event"",""trial"",""time""
""focus"",""0"",""0""
""fullscreenenter"",""0"",""5139""
","
","""event"",""trial"",""time""
""focus"",""0"",""0""
","""event"",""trial"",""time""
""fullscreenenter"",""0"",""5139""
","
",2052,<img style='border: 4px solid darkgrey;' src='img/tf1_68_M_ss1.jpeg'></img>,0,NA,exp,NA,2,<img src='img/tf1_68_T1_ss1_md.jpeg'></img>,0,FALSE,NA,sub9
NA,html-keyboard-response,159,490850,0.0-10.0-0.68,"""event"",""trial"",""time""
""focus"",""0"",""0""
""fullscreenenter"",""0"",""5139""
","
","""event"",""trial"",""time""
""focus"",""0"",""0""
","""event"",""trial"",""time""
""fullscreenenter"",""0"",""5139""
","
",null,"<div style=""font-size:60px;"">+</div>",NA,null,fixation,2020-06-05T13:10:41Z,NA,NA,NA,NA,NA,sub9
NA,mars-trial,160,497332,0.0-10.0-1.68,"""event"",""trial"",""time""
""focus"",""0"",""0""
""fullscreenenter"",""0"",""5139""
","
","""event"",""trial"",""time""
""focus"",""0"",""0""
","""event"",""trial"",""time""
""fullscreenenter"",""0"",""5139""
","
",5842,<img style='border: 4px solid darkgrey;' src='img/tf1_69_M_ss2.jpeg'></img>,0,NA,exp,NA,2,<img src='img/tf1_69_T1_ss2_md.jpeg'></img>,0,FALSE,NA,sub9
NA,html-keyboard-response,161,497851,0.0-10.0-0.69,"""event"",""trial"",""time""
""focus"",""0"",""0""
""fullscreenenter"",""0"",""5139""
","
","""event"",""trial"",""time""
""focus"",""0"",""0""
","""event"",""trial"",""time""
""fullscreenenter"",""0"",""5139""
","
",null,"<div style=""font-size:60px;"">+</div>",NA,null,fixation,2020-06-05T13:10:48Z,NA,NA,NA,NA,NA,sub9
NA,mars-trial,162,501002,0.0-10.0-1.69,"""event"",""trial"",""time""
""focus"",""0"",""0""
""fullscreenenter"",""0"",""5139""
","
","""event"",""trial"",""time""
""focus"",""0"",""0""
","""event"",""trial"",""time""
""fullscreenenter"",""0"",""5139""
","
",2532,<img style='border: 4px solid darkgrey;' src='img/tf1_70_M_ss3.jpeg'></img>,2,NA,exp,NA,0,<img src='img/tf1_70_T1_ss3_md.jpeg'></img>,0,TRUE,NA,sub9
NA,html-keyboard-response,163,501522,0.0-10.0-0.70,"""event"",""trial"",""time""
""focus"",""0"",""0""
""fullscreenenter"",""0"",""5139""
","
","""event"",""trial"",""time""
""focus"",""0"",""0""
","""event"",""trial"",""time""
""fullscreenenter"",""0"",""5139""
","
",null,"<div style=""font-size:60px;"">+</div>",NA,null,fixation,2020-06-05T13:10:51Z,NA,NA,NA,NA,NA,sub9
NA,mars-trial,164,508952,0.0-10.0-1.70,"""event"",""trial"",""time""
""focus"",""0"",""0""
""fullscreenenter"",""0"",""5139""
","
","""event"",""trial"",""time""
""focus"",""0"",""0""
","""event"",""trial"",""time""
""fullscreenenter"",""0"",""5139""
","
",6797,<img style='border: 4px solid darkgrey;' src='img/tf1_71_M_ss1.jpeg'></img>,3,NA,exp,NA,1,<img src='img/tf1_71_T1_ss1_md.jpeg'></img>,0,FALSE,NA,sub9
NA,html-keyboard-response,165,509471,0.0-10.0-0.71,"""event"",""trial"",""time""
""focus"",""0"",""0""
""fullscreenenter"",""0"",""5139""
","
","""event"",""trial"",""time""
""focus"",""0"",""0""
","""event"",""trial"",""time""
""fullscreenenter"",""0"",""5139""
","
",null,"<div style=""font-size:60px;"">+</div>",NA,null,fixation,2020-06-05T13:10:59Z,NA,NA,NA,NA,NA,sub9
NA,mars-trial,166,523093,0.0-10.0-1.71,"""event"",""trial"",""time""
""focus"",""0"",""0""
""fullscreenenter"",""0"",""5139""
","
","""event"",""trial"",""time""
""focus"",""0"",""0""
","""event"",""trial"",""time""
""fullscreenenter"",""0"",""5139""
","
",12993,<img style='border: 4px solid darkgrey;' src='img/tf1_72_M_ss2.jpeg'></img>,0,NA,exp,NA,2,<img src='img/tf1_72_T1_ss2_md.jpeg'></img>,0,FALSE,NA,sub9
NA,html-keyboard-response,167,523612,0.0-10.0-0.72,"""event"",""trial"",""time""
""focus"",""0"",""0""
""fullscreenenter"",""0"",""5139""
","
","""event"",""trial"",""time""
""focus"",""0"",""0""
","""event"",""trial"",""time""
""fullscreenenter"",""0"",""5139""
","
",null,"<div style=""font-size:60px;"">+</div>",NA,null,fixation,2020-06-05T13:11:14Z,NA,NA,NA,NA,NA,sub9
NA,mars-trial,168,531654,0.0-10.0-1.72,"""event"",""trial"",""time""
""focus"",""0"",""0""
""fullscreenenter"",""0"",""5139""
","
","""event"",""trial"",""time""
""focus"",""0"",""0""
","""event"",""trial"",""time""
""fullscreenenter"",""0"",""5139""
","
",7417,<img style='border: 4px solid darkgrey;' src='img/tf1_73_M_ss3.jpeg'></img>,2,NA,exp,NA,3,<img src='img/tf1_73_T1_ss3_md.jpeg'></img>,0,FALSE,NA,sub9
NA,html-keyboard-response,169,532173,0.0-10.0-0.73,"""event"",""trial"",""time""
""focus"",""0"",""0""
""fullscreenenter"",""0"",""5139""
","
","""event"",""trial"",""time""
""focus"",""0"",""0""
","""event"",""trial"",""time""
""fullscreenenter"",""0"",""5139""
","
",null,"<div style=""font-size:60px;"">+</div>",NA,null,fixation,2020-06-05T13:11:22Z,NA,NA,NA,NA,NA,sub9
NA,mars-trial,170,539964,0.0-10.0-1.73,"""event"",""trial"",""time""
""focus"",""0"",""0""
""fullscreenenter"",""0"",""5139""
","
","""event"",""trial"",""time""
""focus"",""0"",""0""
","""event"",""trial"",""time""
""fullscreenenter"",""0"",""5139""
","
",7154,<img style='border: 4px solid darkgrey;' src='img/tf1_74_M_ss1.jpeg'></img>,3,NA,exp,NA,3,<img src='img/tf1_74_T1_ss1_md.jpeg'></img>,0,FALSE,NA,sub9
NA,html-keyboard-response,171,540484,0.0-10.0-0.74,"""event"",""trial"",""time""
""focus"",""0"",""0""
""fullscreenenter"",""0"",""5139""
","
","""event"",""trial"",""time""
""focus"",""0"",""0""
","""event"",""trial"",""time""
""fullscreenenter"",""0"",""5139""
","
",null,"<div style=""font-size:60px;"">+</div>",NA,null,fixation,2020-06-05T13:11:30Z,NA,NA,NA,NA,NA,sub9
NA,mars-trial,172,552016,0.0-10.0-1.74,"""event"",""trial"",""time""
""focus"",""0"",""0""
""fullscreenenter"",""0"",""5139""
","
","""event"",""trial"",""time""
""focus"",""0"",""0""
","""event"",""trial"",""time""
""fullscreenenter"",""0"",""5139""
","
",10899,<img style='border: 4px solid darkgrey;' src='img/tf1_75_M_ss2.jpeg'></img>,3,NA,exp,NA,3,<img src='img/tf1_75_T1_ss2_md.jpeg'></img>,0,FALSE,NA,sub9
NA,html-keyboard-response,173,552536,0.0-10.0-0.75,"""event"",""trial"",""time""
""focus"",""0"",""0""
""fullscreenenter"",""0"",""5139""
","
","""event"",""trial"",""time""
""focus"",""0"",""0""
","""event"",""trial"",""time""
""fullscreenenter"",""0"",""5139""
","
",null,"<div style=""font-size:60px;"">+</div>",NA,null,fixation,2020-06-05T13:11:42Z,NA,NA,NA,NA,NA,sub9
NA,mars-trial,174,567377,0.0-10.0-1.75,"""event"",""trial"",""time""
""focus"",""0"",""0""
""fullscreenenter"",""0"",""5139""
","
","""event"",""trial"",""time""
""focus"",""0"",""0""
","""event"",""trial"",""time""
""fullscreenenter"",""0"",""5139""
","
",14215,<img style='border: 4px solid darkgrey;' src='img/tf1_76_M_ss3.jpeg'></img>,2,NA,exp,NA,0,<img src='img/tf1_76_T1_ss3_md.jpeg'></img>,0,TRUE,NA,sub9
NA,html-keyboard-response,175,567895,0.0-10.0-0.76,"""event"",""trial"",""time""
""focus"",""0"",""0""
""fullscreenenter"",""0"",""5139""
","
","""event"",""trial"",""time""
""focus"",""0"",""0""
","""event"",""trial"",""time""
""fullscreenenter"",""0"",""5139""
","
",null,"<div style=""font-size:60px;"">+</div>",NA,null,fixation,2020-06-05T13:11:58Z,NA,NA,NA,NA,NA,sub9
NA,mars-trial,176,579848,0.0-10.0-1.76,"""event"",""trial"",""time""
""focus"",""0"",""0""
""fullscreenenter"",""0"",""5139""
","
","""event"",""trial"",""time""
""focus"",""0"",""0""
","""event"",""trial"",""time""
""fullscreenenter"",""0"",""5139""
","
",11325,<img style='border: 4px solid darkgrey;' src='img/tf1_77_M_ss1.jpeg'></img>,0,NA,exp,NA,3,<img src='img/tf1_77_T1_ss1_md.jpeg'></img>,0,FALSE,NA,sub9
NA,html-keyboard-response,177,580356,0.0-10.0-0.77,"""event"",""trial"",""time""
""focus"",""0"",""0""
""fullscreenenter"",""0"",""5139""
","
","""event"",""trial"",""time""
""focus"",""0"",""0""
","""event"",""trial"",""time""
""fullscreenenter"",""0"",""5139""
","
",null,"<div style=""font-size:60px;"">+</div>",NA,null,fixation,2020-06-05T13:12:10Z,NA,NA,NA,NA,NA,sub9
NA,mars-trial,178,581276,0.0-10.0-1.77,"""event"",""trial"",""time""
""focus"",""0"",""0""
""fullscreenenter"",""0"",""5139""
","
","""event"",""trial"",""time""
""focus"",""0"",""0""
","""event"",""trial"",""time""
""fullscreenenter"",""0"",""5139""
","
",NA,NA,NA,NA,exp,NA,NA,<img src='img/tf1_78_T1_ss2_md.jpeg'></img>,0,FALSE,NA,sub9
NA,html-keyboard-response,179,581796,0.0-10.0-0.78,"""event"",""trial"",""time""
""focus"",""0"",""0""
""fullscreenenter"",""0"",""5139""
","
","""event"",""trial"",""time""
""focus"",""0"",""0""
","""event"",""trial"",""time""
""fullscreenenter"",""0"",""5139""
","
",null,"<div style=""font-size:60px;"">+</div>",NA,null,fixation,2020-06-05T13:12:12Z,NA,NA,NA,NA,NA,sub9
NA,audio-button-response,180,587921,0.0-11.0,"""event"",""trial"",""time""
""focus"",""0"",""0""
""fullscreenenter"",""0"",""5139""
","
","""event"",""trial"",""time""
""focus"",""0"",""0""
","""event"",""trial"",""time""
""fullscreenenter"",""0"",""5139""
","
",6003,audio/mars_instructions_slide5.wav,0,NA,NA,NA,NA,NA,NA,NA,NA,sub9
