success,trial_type,trial_index,time_elapsed,internal_node_id,interactions,blur_events,focus_events,fullscreenenter_events,fullscreenexit_events,rt,stimulus,button_pressed,key_press,part,timestamp,unshuffled_button,correct_response,correct_button,correct,value,subject_id
TRUE,fullscreen,0,10758,0.0-0.0,"""event"",""trial"",""time""
""focus"",""0"",""7631""
""fullscreenenter"",""0"",""9793""
","
","""event"",""trial"",""time""
""focus"",""0"",""7631""
","""event"",""trial"",""time""
""fullscreenenter"",""0"",""9793""
","
",NA,NA,NA,NA,NA,NA,NA,NA,NA,NA,NA,sub142
NA,pavlovia,1,10762,0.0-1.0,"""event"",""trial"",""time""
""focus"",""0"",""7631""
""fullscreenenter"",""0"",""9793""
","
","""event"",""trial"",""time""
""focus"",""0"",""7631""
","""event"",""trial"",""time""
""fullscreenenter"",""0"",""9793""
","
",NA,NA,NA,NA,NA,NA,NA,NA,NA,NA,NA,sub142
NA,html-button-response,2,12917,0.0-2.0,"""event"",""trial"",""time""
""focus"",""0"",""7631""
""fullscreenenter"",""0"",""9793""
","
","""event"",""trial"",""time""
""focus"",""0"",""7631""
","""event"",""trial"",""time""
""fullscreenenter"",""0"",""9793""
","
",2154.050000011921,<p>Welcome! Press START to begin.</p><br>,0,NA,NA,NA,NA,NA,NA,NA,NA,sub142
NA,audio-button-response,3,26098,0.0-3.0,"""event"",""trial"",""time""
""focus"",""0"",""7631""
""fullscreenenter"",""0"",""9793""
","
","""event"",""trial"",""time""
""focus"",""0"",""7631""
","""event"",""trial"",""time""
""fullscreenenter"",""0"",""9793""
","
",13178.190000005998,audio/mars_instructions_slide2.wav,0,NA,NA,NA,NA,NA,NA,NA,NA,sub142
NA,audio-button-response,4,42020,0.0-4.0,"""event"",""trial"",""time""
""focus"",""0"",""7631""
""fullscreenenter"",""0"",""9793""
","
","""event"",""trial"",""time""
""focus"",""0"",""7631""
","""event"",""trial"",""time""
""fullscreenenter"",""0"",""9793""
","
",15920.619999989867,audio/mars_instructions_slide3.wav,0,NA,NA,NA,NA,NA,NA,NA,NA,sub142
NA,html-keyboard-response,5,42522,0.0-5.0-0.0,"""event"",""trial"",""time""
""focus"",""0"",""7631""
""fullscreenenter"",""0"",""9793""
","
","""event"",""trial"",""time""
""focus"",""0"",""7631""
","""event"",""trial"",""time""
""fullscreenenter"",""0"",""9793""
","
",null,"<div style=""font-size:60px;"">+</div>",NA,null,fixation,2020-06-28T01:19:41Z,NA,NA,NA,NA,NA,sub142
NA,mars-trial,6,46829,0.0-5.0-1.0,"""event"",""trial"",""time""
""focus"",""0"",""7631""
""fullscreenenter"",""0"",""9793""
","
","""event"",""trial"",""time""
""focus"",""0"",""7631""
","""event"",""trial"",""time""
""fullscreenenter"",""0"",""9793""
","
",2196.2200000416487,<img style='border: 4px solid darkgrey;' src='practice/pt1_M1.png'></img>,2,NA,practice,NA,2,<img src='practice/pt1_T1.png'></img>,0,FALSE,NA,sub142
NA,html-keyboard-response,7,47332,0.0-5.1-0.1,"""event"",""trial"",""time""
""focus"",""0"",""7631""
""fullscreenenter"",""0"",""9793""
","
","""event"",""trial"",""time""
""focus"",""0"",""7631""
","""event"",""trial"",""time""
""fullscreenenter"",""0"",""9793""
","
",null,"<div style=""font-size:60px;"">+</div>",NA,null,fixation,2020-06-28T01:19:46Z,NA,NA,NA,NA,NA,sub142
NA,mars-trial,8,52447,0.0-5.1-1.1,"""event"",""trial"",""time""
""focus"",""0"",""7631""
""fullscreenenter"",""0"",""9793""
","
","""event"",""trial"",""time""
""focus"",""0"",""7631""
","""event"",""trial"",""time""
""fullscreenenter"",""0"",""9793""
","
",3007.355000008829,<img style='border: 4px solid darkgrey;' src='practice/pt1_M1.png'></img>,0,NA,practice,NA,0,<img src='practice/pt1_T1.png'></img>,0,TRUE,NA,sub142
NA,html-keyboard-response,9,52950,0.0-6.0-0.0,"""event"",""trial"",""time""
""focus"",""0"",""7631""
""fullscreenenter"",""0"",""9793""
","
","""event"",""trial"",""time""
""focus"",""0"",""7631""
","""event"",""trial"",""time""
""fullscreenenter"",""0"",""9793""
","
",null,"<div style=""font-size:60px;"">+</div>",NA,null,fixation,2020-06-28T01:19:52Z,NA,NA,NA,NA,NA,sub142
NA,mars-trial,10,57078,0.0-6.0-1.0,"""event"",""trial"",""time""
""focus"",""0"",""7631""
""fullscreenenter"",""0"",""9793""
","
","""event"",""trial"",""time""
""focus"",""0"",""7631""
","""event"",""trial"",""time""
""fullscreenenter"",""0"",""9793""
","
",2020.3900000778958,<img style='border: 4px solid darkgrey;' src='practice/pt2_M1.png'></img>,0,NA,practice,NA,0,<img src='practice/pt2_T1.png'></img>,0,TRUE,NA,sub142
NA,html-keyboard-response,11,57583,0.0-7.0-0.0,"""event"",""trial"",""time""
""focus"",""0"",""7631""
""fullscreenenter"",""0"",""9793""
","
","""event"",""trial"",""time""
""focus"",""0"",""7631""
","""event"",""trial"",""time""
""fullscreenenter"",""0"",""9793""
","
",null,"<div style=""font-size:60px;"">+</div>",NA,null,fixation,2020-06-28T01:19:56Z,NA,NA,NA,NA,NA,sub142
NA,mars-trial,12,61548,0.0-7.0-1.0,"""event"",""trial"",""time""
""focus"",""0"",""7631""
""fullscreenenter"",""0"",""9793""
","
","""event"",""trial"",""time""
""focus"",""0"",""7631""
","""event"",""trial"",""time""
""fullscreenenter"",""0"",""9793""
","
",1854.7549999784678,<img style='border: 4px solid darkgrey;' src='practice/pt3_M1.png'></img>,2,NA,practice,NA,0,<img src='practice/pt3_T1.png'></img>,0,TRUE,NA,sub142
NA,audio-button-response,13,62832,0.0-8.0,"""event"",""trial"",""time""
""focus"",""0"",""7631""
""fullscreenenter"",""0"",""9793""
","
","""event"",""trial"",""time""
""focus"",""0"",""7631""
","""event"",""trial"",""time""
""fullscreenenter"",""0"",""9793""
","
",1282.6949999434873,audio/mars_instructions_slide4.wav,0,NA,NA,NA,NA,NA,NA,NA,NA,sub142
NA,call-function,14,62833,0.0-9.0,"""event"",""trial"",""time""
""focus"",""0"",""7631""
""fullscreenenter"",""0"",""9793""
","
","""event"",""trial"",""time""
""focus"",""0"",""7631""
","""event"",""trial"",""time""
""fullscreenenter"",""0"",""9793""
","
",NA,NA,NA,NA,NA,NA,NA,NA,NA,NA,NA,sub142
NA,html-keyboard-response,15,63334,0.0-10.0-0.0,"""event"",""trial"",""time""
""focus"",""0"",""7631""
""fullscreenenter"",""0"",""9793""
","
","""event"",""trial"",""time""
""focus"",""0"",""7631""
","""event"",""trial"",""time""
""fullscreenenter"",""0"",""9793""
","
",null,"<div style=""font-size:60px;"">+</div>",NA,null,fixation,2020-06-28T01:20:02Z,NA,NA,NA,NA,NA,sub142
NA,mars-trial,16,65347,0.0-10.0-1.0,"""event"",""trial"",""time""
""focus"",""0"",""7631""
""fullscreenenter"",""0"",""9793""
","
","""event"",""trial"",""time""
""focus"",""0"",""7631""
","""event"",""trial"",""time""
""fullscreenenter"",""0"",""9793""
","
",1407.5850000372157,<img style='border: 4px solid darkgrey;' src='img/tf1_1_M_ss3.jpeg'></img>,0,NA,exp,NA,0,<img src='img/tf1_1_T1_ss3_md.jpeg'></img>,0,TRUE,NA,sub142
NA,html-keyboard-response,17,65849,0.0-10.0-0.1,"""event"",""trial"",""time""
""focus"",""0"",""7631""
""fullscreenenter"",""0"",""9793""
","
","""event"",""trial"",""time""
""focus"",""0"",""7631""
","""event"",""trial"",""time""
""fullscreenenter"",""0"",""9793""
","
",null,"<div style=""font-size:60px;"">+</div>",NA,null,fixation,2020-06-28T01:20:05Z,NA,NA,NA,NA,NA,sub142
NA,mars-trial,18,68270,0.0-10.0-1.1,"""event"",""trial"",""time""
""focus"",""0"",""7631""
""fullscreenenter"",""0"",""9793""
","
","""event"",""trial"",""time""
""focus"",""0"",""7631""
","""event"",""trial"",""time""
""fullscreenenter"",""0"",""9793""
","
",1813.6850000591949,<img style='border: 4px solid darkgrey;' src='img/tf1_2_M_ss1.jpeg'></img>,2,NA,exp,NA,0,<img src='img/tf1_2_T1_ss1_md.jpeg'></img>,0,TRUE,NA,sub142
NA,html-keyboard-response,19,68775,0.0-10.0-0.2,"""event"",""trial"",""time""
""focus"",""0"",""7631""
""fullscreenenter"",""0"",""9793""
","
","""event"",""trial"",""time""
""focus"",""0"",""7631""
","""event"",""trial"",""time""
""fullscreenenter"",""0"",""9793""
","
",null,"<div style=""font-size:60px;"">+</div>",NA,null,fixation,2020-06-28T01:20:08Z,NA,NA,NA,NA,NA,sub142
NA,mars-trial,20,71100,0.0-10.0-1.2,"""event"",""trial"",""time""
""focus"",""0"",""7631""
""fullscreenenter"",""0"",""9793""
","
","""event"",""trial"",""time""
""focus"",""0"",""7631""
","""event"",""trial"",""time""
""fullscreenenter"",""0"",""9793""
","
",1715.8150000032037,<img style='border: 4px solid darkgrey;' src='img/tf1_3_M_ss2.jpeg'></img>,1,NA,exp,NA,0,<img src='img/tf1_3_T1_ss2_md.jpeg'></img>,0,TRUE,NA,sub142
NA,html-keyboard-response,21,71602,0.0-10.0-0.3,"""event"",""trial"",""time""
""focus"",""0"",""7631""
""fullscreenenter"",""0"",""9793""
","
","""event"",""trial"",""time""
""focus"",""0"",""7631""
","""event"",""trial"",""time""
""fullscreenenter"",""0"",""9793""
","
",null,"<div style=""font-size:60px;"">+</div>",NA,null,fixation,2020-06-28T01:20:10Z,NA,NA,NA,NA,NA,sub142
NA,mars-trial,22,74351,0.0-10.0-1.3,"""event"",""trial"",""time""
""focus"",""0"",""7631""
""fullscreenenter"",""0"",""9793""
","
","""event"",""trial"",""time""
""focus"",""0"",""7631""
","""event"",""trial"",""time""
""fullscreenenter"",""0"",""9793""
","
",2139.6099999547005,<img style='border: 4px solid darkgrey;' src='img/tf1_4_M_ss3.jpeg'></img>,3,NA,exp,NA,0,<img src='img/tf1_4_T1_ss3_md.jpeg'></img>,0,TRUE,NA,sub142
NA,html-keyboard-response,23,74853,0.0-10.0-0.4,"""event"",""trial"",""time""
""focus"",""0"",""7631""
""fullscreenenter"",""0"",""9793""
","
","""event"",""trial"",""time""
""focus"",""0"",""7631""
","""event"",""trial"",""time""
""fullscreenenter"",""0"",""9793""
","
",null,"<div style=""font-size:60px;"">+</div>",NA,null,fixation,2020-06-28T01:20:14Z,NA,NA,NA,NA,NA,sub142
NA,mars-trial,24,76611,0.0-10.0-1.4,"""event"",""trial"",""time""
""focus"",""0"",""7631""
""fullscreenenter"",""0"",""9793""
","
","""event"",""trial"",""time""
""focus"",""0"",""7631""
","""event"",""trial"",""time""
""fullscreenenter"",""0"",""9793""
","
",1148.975000018254,<img style='border: 4px solid darkgrey;' src='img/tf1_5_M_ss1.jpeg'></img>,3,NA,exp,NA,0,<img src='img/tf1_5_T1_ss1_md.jpeg'></img>,0,TRUE,NA,sub142
NA,html-keyboard-response,25,77117,0.0-10.0-0.5,"""event"",""trial"",""time""
""focus"",""0"",""7631""
""fullscreenenter"",""0"",""9793""
","
","""event"",""trial"",""time""
""focus"",""0"",""7631""
","""event"",""trial"",""time""
""fullscreenenter"",""0"",""9793""
","
",null,"<div style=""font-size:60px;"">+</div>",NA,null,fixation,2020-06-28T01:20:16Z,NA,NA,NA,NA,NA,sub142
NA,mars-trial,26,81529,0.0-10.0-1.5,"""event"",""trial"",""time""
""focus"",""0"",""7631""
""fullscreenenter"",""0"",""9793""
","
","""event"",""trial"",""time""
""focus"",""0"",""7631""
","""event"",""trial"",""time""
""fullscreenenter"",""0"",""9793""
","
",3805.049999966286,<img style='border: 4px solid darkgrey;' src='img/tf1_6_M_ss2.jpeg'></img>,1,NA,exp,NA,0,<img src='img/tf1_6_T1_ss2_md.jpeg'></img>,0,TRUE,NA,sub142
NA,html-keyboard-response,27,82034,0.0-10.0-0.6,"""event"",""trial"",""time""
""focus"",""0"",""7631""
""fullscreenenter"",""0"",""9793""
","
","""event"",""trial"",""time""
""focus"",""0"",""7631""
","""event"",""trial"",""time""
""fullscreenenter"",""0"",""9793""
","
",null,"<div style=""font-size:60px;"">+</div>",NA,null,fixation,2020-06-28T01:20:21Z,NA,NA,NA,NA,NA,sub142
NA,mars-trial,28,84966,0.0-10.0-1.6,"""event"",""trial"",""time""
""focus"",""0"",""7631""
""fullscreenenter"",""0"",""9793""
","
","""event"",""trial"",""time""
""focus"",""0"",""7631""
","""event"",""trial"",""time""
""fullscreenenter"",""0"",""9793""
","
",2322.719999938272,<img style='border: 4px solid darkgrey;' src='img/tf1_7_M_ss3.jpeg'></img>,2,NA,exp,NA,0,<img src='img/tf1_7_T1_ss3_md.jpeg'></img>,0,TRUE,NA,sub142
NA,html-keyboard-response,29,85471,0.0-10.0-0.7,"""event"",""trial"",""time""
""focus"",""0"",""7631""
""fullscreenenter"",""0"",""9793""
","
","""event"",""trial"",""time""
""focus"",""0"",""7631""
","""event"",""trial"",""time""
""fullscreenenter"",""0"",""9793""
","
",null,"<div style=""font-size:60px;"">+</div>",NA,null,fixation,2020-06-28T01:20:24Z,NA,NA,NA,NA,NA,sub142
NA,mars-trial,30,87473,0.0-10.0-1.7,"""event"",""trial"",""time""
""focus"",""0"",""7631""
""fullscreenenter"",""0"",""9793""
","
","""event"",""trial"",""time""
""focus"",""0"",""7631""
","""event"",""trial"",""time""
""fullscreenenter"",""0"",""9793""
","
",1394.635000033304,<img style='border: 4px solid darkgrey;' src='img/tf1_8_M_ss1.jpeg'></img>,3,NA,exp,NA,2,<img src='img/tf1_8_T1_ss1_md.jpeg'></img>,0,FALSE,NA,sub142
NA,html-keyboard-response,31,87975,0.0-10.0-0.8,"""event"",""trial"",""time""
""focus"",""0"",""7631""
""fullscreenenter"",""0"",""9793""
","
","""event"",""trial"",""time""
""focus"",""0"",""7631""
","""event"",""trial"",""time""
""fullscreenenter"",""0"",""9793""
","
",null,"<div style=""font-size:60px;"">+</div>",NA,null,fixation,2020-06-28T01:20:27Z,NA,NA,NA,NA,NA,sub142
NA,mars-trial,32,91601,0.0-10.0-1.8,"""event"",""trial"",""time""
""focus"",""0"",""7631""
""fullscreenenter"",""0"",""9793""
","
","""event"",""trial"",""time""
""focus"",""0"",""7631""
","""event"",""trial"",""time""
""fullscreenenter"",""0"",""9793""
","
",3018.6850000172853,<img style='border: 4px solid darkgrey;' src='img/tf1_9_M_ss2.jpeg'></img>,2,NA,exp,NA,0,<img src='img/tf1_9_T1_ss2_md.jpeg'></img>,0,TRUE,NA,sub142
NA,html-keyboard-response,33,92102,0.0-10.0-0.9,"""event"",""trial"",""time""
""focus"",""0"",""7631""
""fullscreenenter"",""0"",""9793""
","
","""event"",""trial"",""time""
""focus"",""0"",""7631""
","""event"",""trial"",""time""
""fullscreenenter"",""0"",""9793""
","
",null,"<div style=""font-size:60px;"">+</div>",NA,null,fixation,2020-06-28T01:20:31Z,NA,NA,NA,NA,NA,sub142
NA,mars-trial,34,96740,0.0-10.0-1.9,"""event"",""trial"",""time""
""focus"",""0"",""7631""
""fullscreenenter"",""0"",""9793""
","
","""event"",""trial"",""time""
""focus"",""0"",""7631""
","""event"",""trial"",""time""
""fullscreenenter"",""0"",""9793""
","
",4031.510000000708,<img style='border: 4px solid darkgrey;' src='img/tf1_10_M_ss3.jpeg'></img>,0,NA,exp,NA,0,<img src='img/tf1_10_T1_ss3_md.jpeg'></img>,0,TRUE,NA,sub142
NA,html-keyboard-response,35,97246,0.0-10.0-0.10,"""event"",""trial"",""time""
""focus"",""0"",""7631""
""fullscreenenter"",""0"",""9793""
","
","""event"",""trial"",""time""
""focus"",""0"",""7631""
","""event"",""trial"",""time""
""fullscreenenter"",""0"",""9793""
","
",null,"<div style=""font-size:60px;"">+</div>",NA,null,fixation,2020-06-28T01:20:36Z,NA,NA,NA,NA,NA,sub142
NA,mars-trial,36,102298,0.0-10.0-1.10,"""event"",""trial"",""time""
""focus"",""0"",""7631""
""fullscreenenter"",""0"",""9793""
","
","""event"",""trial"",""time""
""focus"",""0"",""7631""
","""event"",""trial"",""time""
""fullscreenenter"",""0"",""9793""
","
",4446.7949999962,<img style='border: 4px solid darkgrey;' src='img/tf1_11_M_ss1.jpeg'></img>,2,NA,exp,NA,1,<img src='img/tf1_11_T1_ss1_md.jpeg'></img>,0,FALSE,NA,sub142
NA,html-keyboard-response,37,102801,0.0-10.0-0.11,"""event"",""trial"",""time""
""focus"",""0"",""7631""
""fullscreenenter"",""0"",""9793""
","
","""event"",""trial"",""time""
""focus"",""0"",""7631""
","""event"",""trial"",""time""
""fullscreenenter"",""0"",""9793""
","
",null,"<div style=""font-size:60px;"">+</div>",NA,null,fixation,2020-06-28T01:20:42Z,NA,NA,NA,NA,NA,sub142
NA,mars-trial,38,105662,0.0-10.0-1.11,"""event"",""trial"",""time""
""focus"",""0"",""7631""
""fullscreenenter"",""0"",""9793""
","
","""event"",""trial"",""time""
""focus"",""0"",""7631""
","""event"",""trial"",""time""
""fullscreenenter"",""0"",""9793""
","
",2253.1550000421703,<img style='border: 4px solid darkgrey;' src='img/tf1_12_M_ss2.jpeg'></img>,0,NA,exp,NA,1,<img src='img/tf1_12_T1_ss2_md.jpeg'></img>,0,FALSE,NA,sub142
NA,html-keyboard-response,39,106165,0.0-10.0-0.12,"""event"",""trial"",""time""
""focus"",""0"",""7631""
""fullscreenenter"",""0"",""9793""
","
","""event"",""trial"",""time""
""focus"",""0"",""7631""
","""event"",""trial"",""time""
""fullscreenenter"",""0"",""9793""
","
",null,"<div style=""font-size:60px;"">+</div>",NA,null,fixation,2020-06-28T01:20:45Z,NA,NA,NA,NA,NA,sub142
NA,mars-trial,40,110048,0.0-10.0-1.12,"""event"",""trial"",""time""
""focus"",""0"",""7631""
""fullscreenenter"",""0"",""9793""
","
","""event"",""trial"",""time""
""focus"",""0"",""7631""
","""event"",""trial"",""time""
""fullscreenenter"",""0"",""9793""
","
",3275.9949999162927,<img style='border: 4px solid darkgrey;' src='img/tf1_13_M_ss3.jpeg'></img>,2,NA,exp,NA,1,<img src='img/tf1_13_T1_ss3_md.jpeg'></img>,0,FALSE,NA,sub142
NA,html-keyboard-response,41,110549,0.0-10.0-0.13,"""event"",""trial"",""time""
""focus"",""0"",""7631""
""fullscreenenter"",""0"",""9793""
","
","""event"",""trial"",""time""
""focus"",""0"",""7631""
","""event"",""trial"",""time""
""fullscreenenter"",""0"",""9793""
","
",null,"<div style=""font-size:60px;"">+</div>",NA,null,fixation,2020-06-28T01:20:49Z,NA,NA,NA,NA,NA,sub142
NA,mars-trial,42,116177,0.0-10.0-1.13,"""event"",""trial"",""time""
""focus"",""0"",""7631""
""fullscreenenter"",""0"",""9793""
","
","""event"",""trial"",""time""
""focus"",""0"",""7631""
","""event"",""trial"",""time""
""fullscreenenter"",""0"",""9793""
","
",5018.859999952838,<img style='border: 4px solid darkgrey;' src='img/tf1_14_M_ss1.jpeg'></img>,0,NA,exp,NA,1,<img src='img/tf1_14_T1_ss1_md.jpeg'></img>,0,FALSE,NA,sub142
NA,html-keyboard-response,43,116681,0.0-10.0-0.14,"""event"",""trial"",""time""
""focus"",""0"",""7631""
""fullscreenenter"",""0"",""9793""
","
","""event"",""trial"",""time""
""focus"",""0"",""7631""
","""event"",""trial"",""time""
""fullscreenenter"",""0"",""9793""
","
",null,"<div style=""font-size:60px;"">+</div>",NA,null,fixation,2020-06-28T01:20:55Z,NA,NA,NA,NA,NA,sub142
NA,mars-trial,44,121662,0.0-10.0-1.14,"""event"",""trial"",""time""
""focus"",""0"",""7631""
""fullscreenenter"",""0"",""9793""
","
","""event"",""trial"",""time""
""focus"",""0"",""7631""
","""event"",""trial"",""time""
""fullscreenenter"",""0"",""9793""
","
",4369.865000015125,<img style='border: 4px solid darkgrey;' src='img/tf1_15_M_ss2.jpeg'></img>,1,NA,exp,NA,3,<img src='img/tf1_15_T1_ss2_md.jpeg'></img>,0,FALSE,NA,sub142
NA,html-keyboard-response,45,122166,0.0-10.0-0.15,"""event"",""trial"",""time""
""focus"",""0"",""7631""
""fullscreenenter"",""0"",""9793""
","
","""event"",""trial"",""time""
""focus"",""0"",""7631""
","""event"",""trial"",""time""
""fullscreenenter"",""0"",""9793""
","
",null,"<div style=""font-size:60px;"">+</div>",NA,null,fixation,2020-06-28T01:21:01Z,NA,NA,NA,NA,NA,sub142
NA,mars-trial,46,128421,0.0-10.0-1.15,"""event"",""trial"",""time""
""focus"",""0"",""7631""
""fullscreenenter"",""0"",""9793""
","
","""event"",""trial"",""time""
""focus"",""0"",""7631""
","""event"",""trial"",""time""
""fullscreenenter"",""0"",""9793""
","
",5647.070000064559,<img style='border: 4px solid darkgrey;' src='img/tf1_16_M_ss3.jpeg'></img>,3,NA,exp,NA,1,<img src='img/tf1_16_T1_ss3_md.jpeg'></img>,0,FALSE,NA,sub142
NA,html-keyboard-response,47,128923,0.0-10.0-0.16,"""event"",""trial"",""time""
""focus"",""0"",""7631""
""fullscreenenter"",""0"",""9793""
","
","""event"",""trial"",""time""
""focus"",""0"",""7631""
","""event"",""trial"",""time""
""fullscreenenter"",""0"",""9793""
","
",null,"<div style=""font-size:60px;"">+</div>",NA,null,fixation,2020-06-28T01:21:08Z,NA,NA,NA,NA,NA,sub142
NA,mars-trial,48,136682,0.0-10.0-1.16,"""event"",""trial"",""time""
""focus"",""0"",""7631""
""fullscreenenter"",""0"",""9793""
","
","""event"",""trial"",""time""
""focus"",""0"",""7631""
","""event"",""trial"",""time""
""fullscreenenter"",""0"",""9793""
","
",7149.29500001017,<img style='border: 4px solid darkgrey;' src='img/tf1_17_M_ss1.jpeg'></img>,3,NA,exp,NA,1,<img src='img/tf1_17_T1_ss1_md.jpeg'></img>,0,FALSE,NA,sub142
NA,html-keyboard-response,49,137185,0.0-10.0-0.17,"""event"",""trial"",""time""
""focus"",""0"",""7631""
""fullscreenenter"",""0"",""9793""
","
","""event"",""trial"",""time""
""focus"",""0"",""7631""
","""event"",""trial"",""time""
""fullscreenenter"",""0"",""9793""
","
",null,"<div style=""font-size:60px;"">+</div>",NA,null,fixation,2020-06-28T01:21:16Z,NA,NA,NA,NA,NA,sub142
NA,mars-trial,50,142162,0.0-10.0-1.17,"""event"",""trial"",""time""
""focus"",""0"",""7631""
""fullscreenenter"",""0"",""9793""
","
","""event"",""trial"",""time""
""focus"",""0"",""7631""
","""event"",""trial"",""time""
""fullscreenenter"",""0"",""9793""
","
",4366.975000011735,<img style='border: 4px solid darkgrey;' src='img/tf1_18_M_ss2.jpeg'></img>,2,NA,exp,NA,1,<img src='img/tf1_18_T1_ss2_md.jpeg'></img>,0,FALSE,NA,sub142
NA,html-keyboard-response,51,142664,0.0-10.0-0.18,"""event"",""trial"",""time""
""focus"",""0"",""7631""
""fullscreenenter"",""0"",""9793""
","
","""event"",""trial"",""time""
""focus"",""0"",""7631""
","""event"",""trial"",""time""
""fullscreenenter"",""0"",""9793""
","
",null,"<div style=""font-size:60px;"">+</div>",NA,null,fixation,2020-06-28T01:21:21Z,NA,NA,NA,NA,NA,sub142
NA,mars-trial,52,148636,0.0-10.0-1.18,"""event"",""trial"",""time""
""focus"",""0"",""7631""
""fullscreenenter"",""0"",""9793""
","
","""event"",""trial"",""time""
""focus"",""0"",""7631""
","""event"",""trial"",""time""
""fullscreenenter"",""0"",""9793""
","
",5362.955000018701,<img style='border: 4px solid darkgrey;' src='img/tf1_19_M_ss3.jpeg'></img>,2,NA,exp,NA,0,<img src='img/tf1_19_T1_ss3_md.jpeg'></img>,0,TRUE,NA,sub142
NA,html-keyboard-response,53,149138,0.0-10.0-0.19,"""event"",""trial"",""time""
""focus"",""0"",""7631""
""fullscreenenter"",""0"",""9793""
","
","""event"",""trial"",""time""
""focus"",""0"",""7631""
","""event"",""trial"",""time""
""fullscreenenter"",""0"",""9793""
","
",null,"<div style=""font-size:60px;"">+</div>",NA,null,fixation,2020-06-28T01:21:28Z,NA,NA,NA,NA,NA,sub142
NA,mars-trial,54,152074,0.0-10.0-1.19,"""event"",""trial"",""time""
""focus"",""0"",""7631""
""fullscreenenter"",""0"",""9793""
","
","""event"",""trial"",""time""
""focus"",""0"",""7631""
","""event"",""trial"",""time""
""fullscreenenter"",""0"",""9793""
","
",2329.260000027716,<img style='border: 4px solid darkgrey;' src='img/tf1_20_M_ss1.jpeg'></img>,2,NA,exp,NA,3,<img src='img/tf1_20_T1_ss1_md.jpeg'></img>,0,FALSE,NA,sub142
NA,html-keyboard-response,55,152577,0.0-10.0-0.20,"""event"",""trial"",""time""
""focus"",""0"",""7631""
""fullscreenenter"",""0"",""9793""
","
","""event"",""trial"",""time""
""focus"",""0"",""7631""
","""event"",""trial"",""time""
""fullscreenenter"",""0"",""9793""
","
",null,"<div style=""font-size:60px;"">+</div>",NA,null,fixation,2020-06-28T01:21:31Z,NA,NA,NA,NA,NA,sub142
NA,mars-trial,56,159362,0.0-10.0-1.20,"""event"",""trial"",""time""
""focus"",""0"",""7631""
""fullscreenenter"",""0"",""9793""
","
","""event"",""trial"",""time""
""focus"",""0"",""7631""
","""event"",""trial"",""time""
""fullscreenenter"",""0"",""9793""
","
",6179.254999966361,<img style='border: 4px solid darkgrey;' src='img/tf1_21_M_ss2.jpeg'></img>,2,NA,exp,NA,0,<img src='img/tf1_21_T1_ss2_md.jpeg'></img>,0,TRUE,NA,sub142
NA,html-keyboard-response,57,159866,0.0-10.0-0.21,"""event"",""trial"",""time""
""focus"",""0"",""7631""
""fullscreenenter"",""0"",""9793""
","
","""event"",""trial"",""time""
""focus"",""0"",""7631""
","""event"",""trial"",""time""
""fullscreenenter"",""0"",""9793""
","
",null,"<div style=""font-size:60px;"">+</div>",NA,null,fixation,2020-06-28T01:21:39Z,NA,NA,NA,NA,NA,sub142
NA,mars-trial,58,165306,0.0-10.0-1.21,"""event"",""trial"",""time""
""focus"",""0"",""7631""
""fullscreenenter"",""0"",""9793""
","
","""event"",""trial"",""time""
""focus"",""0"",""7631""
","""event"",""trial"",""time""
""fullscreenenter"",""0"",""9793""
","
",4827.255000011064,<img style='border: 4px solid darkgrey;' src='img/tf1_22_M_ss3.jpeg'></img>,3,NA,exp,NA,0,<img src='img/tf1_22_T1_ss3_md.jpeg'></img>,0,TRUE,NA,sub142
NA,html-keyboard-response,59,165810,0.0-10.0-0.22,"""event"",""trial"",""time""
""focus"",""0"",""7631""
""fullscreenenter"",""0"",""9793""
","
","""event"",""trial"",""time""
""focus"",""0"",""7631""
","""event"",""trial"",""time""
""fullscreenenter"",""0"",""9793""
","
",null,"<div style=""font-size:60px;"">+</div>",NA,null,fixation,2020-06-28T01:21:45Z,NA,NA,NA,NA,NA,sub142
NA,mars-trial,60,173933,0.0-10.0-1.22,"""event"",""trial"",""time""
""focus"",""0"",""7631""
""fullscreenenter"",""0"",""9793""
","
","""event"",""trial"",""time""
""focus"",""0"",""7631""
","""event"",""trial"",""time""
""fullscreenenter"",""0"",""9793""
","
",7512.355000013486,<img style='border: 4px solid darkgrey;' src='img/tf1_23_M_ss1.jpeg'></img>,3,NA,exp,NA,0,<img src='img/tf1_23_T1_ss1_md.jpeg'></img>,0,TRUE,NA,sub142
NA,html-keyboard-response,61,174436,0.0-10.0-0.23,"""event"",""trial"",""time""
""focus"",""0"",""7631""
""fullscreenenter"",""0"",""9793""
","
","""event"",""trial"",""time""
""focus"",""0"",""7631""
","""event"",""trial"",""time""
""fullscreenenter"",""0"",""9793""
","
",null,"<div style=""font-size:60px;"">+</div>",NA,null,fixation,2020-06-28T01:21:53Z,NA,NA,NA,NA,NA,sub142
NA,mars-trial,62,178904,0.0-10.0-1.23,"""event"",""trial"",""time""
""focus"",""0"",""7631""
""fullscreenenter"",""0"",""9793""
","
","""event"",""trial"",""time""
""focus"",""0"",""7631""
","""event"",""trial"",""time""
""fullscreenenter"",""0"",""9793""
","
",3858.905000030063,<img style='border: 4px solid darkgrey;' src='img/tf1_24_M_ss2.jpeg'></img>,3,NA,exp,NA,1,<img src='img/tf1_24_T1_ss2_md.jpeg'></img>,0,FALSE,NA,sub142
NA,html-keyboard-response,63,179406,0.0-10.0-0.24,"""event"",""trial"",""time""
""focus"",""0"",""7631""
""fullscreenenter"",""0"",""9793""
","
","""event"",""trial"",""time""
""focus"",""0"",""7631""
","""event"",""trial"",""time""
""fullscreenenter"",""0"",""9793""
","
",null,"<div style=""font-size:60px;"">+</div>",NA,null,fixation,2020-06-28T01:21:58Z,NA,NA,NA,NA,NA,sub142
NA,mars-trial,64,183889,0.0-10.0-1.24,"""event"",""trial"",""time""
""focus"",""0"",""7631""
""fullscreenenter"",""0"",""9793""
","
","""event"",""trial"",""time""
""focus"",""0"",""7631""
","""event"",""trial"",""time""
""fullscreenenter"",""0"",""9793""
","
",3874.5399999897927,<img style='border: 4px solid darkgrey;' src='img/tf1_25_M_ss3.jpeg'></img>,3,NA,exp,NA,0,<img src='img/tf1_25_T1_ss3_md.jpeg'></img>,0,TRUE,NA,sub142
NA,html-keyboard-response,65,184394,0.0-10.0-0.25,"""event"",""trial"",""time""
""focus"",""0"",""7631""
""fullscreenenter"",""0"",""9793""
","
","""event"",""trial"",""time""
""focus"",""0"",""7631""
","""event"",""trial"",""time""
""fullscreenenter"",""0"",""9793""
","
",null,"<div style=""font-size:60px;"">+</div>",NA,null,fixation,2020-06-28T01:22:03Z,NA,NA,NA,NA,NA,sub142
NA,mars-trial,66,192673,0.0-10.0-1.25,"""event"",""trial"",""time""
""focus"",""0"",""7631""
""fullscreenenter"",""0"",""9793""
","
","""event"",""trial"",""time""
""focus"",""0"",""7631""
","""event"",""trial"",""time""
""fullscreenenter"",""0"",""9793""
","
",7669.690000009723,<img style='border: 4px solid darkgrey;' src='img/tf1_26_M_ss1.jpeg'></img>,3,NA,exp,NA,2,<img src='img/tf1_26_T1_ss1_md.jpeg'></img>,0,FALSE,NA,sub142
NA,html-keyboard-response,67,193176,0.0-10.0-0.26,"""event"",""trial"",""time""
""focus"",""0"",""7631""
""fullscreenenter"",""0"",""9793""
","
","""event"",""trial"",""time""
""focus"",""0"",""7631""
","""event"",""trial"",""time""
""fullscreenenter"",""0"",""9793""
","
",null,"<div style=""font-size:60px;"">+</div>",NA,null,fixation,2020-06-28T01:22:12Z,NA,NA,NA,NA,NA,sub142
NA,mars-trial,68,196758,0.0-10.0-1.26,"""event"",""trial"",""time""
""focus"",""0"",""7631""
""fullscreenenter"",""0"",""9793""
","
","""event"",""trial"",""time""
""focus"",""0"",""7631""
","""event"",""trial"",""time""
""fullscreenenter"",""0"",""9793""
","
",2971.804999979213,<img style='border: 4px solid darkgrey;' src='img/tf1_27_M_ss2.jpeg'></img>,2,NA,exp,NA,3,<img src='img/tf1_27_T1_ss2_md.jpeg'></img>,0,FALSE,NA,sub142
NA,html-keyboard-response,69,197261,0.0-10.0-0.27,"""event"",""trial"",""time""
""focus"",""0"",""7631""
""fullscreenenter"",""0"",""9793""
","
","""event"",""trial"",""time""
""focus"",""0"",""7631""
","""event"",""trial"",""time""
""fullscreenenter"",""0"",""9793""
","
",null,"<div style=""font-size:60px;"">+</div>",NA,null,fixation,2020-06-28T01:22:16Z,NA,NA,NA,NA,NA,sub142
NA,mars-trial,70,205387,0.0-10.0-1.27,"""event"",""trial"",""time""
""focus"",""0"",""7631""
""fullscreenenter"",""0"",""9793""
","
","""event"",""trial"",""time""
""focus"",""0"",""7631""
","""event"",""trial"",""time""
""fullscreenenter"",""0"",""9793""
","
",7518.675000057556,<img style='border: 4px solid darkgrey;' src='img/tf1_28_M_ss3.jpeg'></img>,2,NA,exp,NA,0,<img src='img/tf1_28_T1_ss3_md.jpeg'></img>,0,TRUE,NA,sub142
NA,html-keyboard-response,71,205890,0.0-10.0-0.28,"""event"",""trial"",""time""
""focus"",""0"",""7631""
""fullscreenenter"",""0"",""9793""
","
","""event"",""trial"",""time""
""focus"",""0"",""7631""
","""event"",""trial"",""time""
""fullscreenenter"",""0"",""9793""
","
",null,"<div style=""font-size:60px;"">+</div>",NA,null,fixation,2020-06-28T01:22:25Z,NA,NA,NA,NA,NA,sub142
NA,mars-trial,72,209029,0.0-10.0-1.28,"""event"",""trial"",""time""
""focus"",""0"",""7631""
""fullscreenenter"",""0"",""9793""
","
","""event"",""trial"",""time""
""focus"",""0"",""7631""
","""event"",""trial"",""time""
""fullscreenenter"",""0"",""9793""
","
",2530.4400000022724,<img style='border: 4px solid darkgrey;' src='img/tf1_29_M_ss1.jpeg'></img>,3,NA,exp,NA,1,<img src='img/tf1_29_T1_ss1_md.jpeg'></img>,0,FALSE,NA,sub142
NA,html-keyboard-response,73,209534,0.0-10.0-0.29,"""event"",""trial"",""time""
""focus"",""0"",""7631""
""fullscreenenter"",""0"",""9793""
","
","""event"",""trial"",""time""
""focus"",""0"",""7631""
","""event"",""trial"",""time""
""fullscreenenter"",""0"",""9793""
","
",null,"<div style=""font-size:60px;"">+</div>",NA,null,fixation,2020-06-28T01:22:28Z,NA,NA,NA,NA,NA,sub142
NA,mars-trial,74,214219,0.0-10.0-1.29,"""event"",""trial"",""time""
""focus"",""0"",""7631""
""fullscreenenter"",""0"",""9793""
","
","""event"",""trial"",""time""
""focus"",""0"",""7631""
","""event"",""trial"",""time""
""fullscreenenter"",""0"",""9793""
","
",4074.265000061132,<img style='border: 4px solid darkgrey;' src='img/tf1_30_M_ss2.jpeg'></img>,2,NA,exp,NA,3,<img src='img/tf1_30_T1_ss2_md.jpeg'></img>,0,FALSE,NA,sub142
NA,html-keyboard-response,75,214724,0.0-10.0-0.30,"""event"",""trial"",""time""
""focus"",""0"",""7631""
""fullscreenenter"",""0"",""9793""
","
","""event"",""trial"",""time""
""focus"",""0"",""7631""
","""event"",""trial"",""time""
""fullscreenenter"",""0"",""9793""
","
",null,"<div style=""font-size:60px;"">+</div>",NA,null,fixation,2020-06-28T01:22:33Z,NA,NA,NA,NA,NA,sub142
NA,mars-trial,76,217794,0.0-10.0-1.30,"""event"",""trial"",""time""
""focus"",""0"",""7631""
""fullscreenenter"",""0"",""9793""
","
","""event"",""trial"",""time""
""focus"",""0"",""7631""
","""event"",""trial"",""time""
""fullscreenenter"",""0"",""9793""
","
",2460.8749999897555,<img style='border: 4px solid darkgrey;' src='img/tf1_31_M_ss3.jpeg'></img>,3,NA,exp,NA,0,<img src='img/tf1_31_T1_ss3_md.jpeg'></img>,0,TRUE,NA,sub142
NA,html-keyboard-response,77,218300,0.0-10.0-0.31,"""event"",""trial"",""time""
""focus"",""0"",""7631""
""fullscreenenter"",""0"",""9793""
","
","""event"",""trial"",""time""
""focus"",""0"",""7631""
","""event"",""trial"",""time""
""fullscreenenter"",""0"",""9793""
","
",null,"<div style=""font-size:60px;"">+</div>",NA,null,fixation,2020-06-28T01:22:37Z,NA,NA,NA,NA,NA,sub142
NA,mars-trial,78,222392,0.0-10.0-1.31,"""event"",""trial"",""time""
""focus"",""0"",""7631""
""fullscreenenter"",""0"",""9793""
","
","""event"",""trial"",""time""
""focus"",""0"",""7631""
","""event"",""trial"",""time""
""fullscreenenter"",""0"",""9793""
","
",3486.200000043027,<img style='border: 4px solid darkgrey;' src='img/tf1_32_M_ss1.jpeg'></img>,3,NA,exp,NA,0,<img src='img/tf1_32_T1_ss1_md.jpeg'></img>,0,TRUE,NA,sub142
NA,html-keyboard-response,79,222895,0.0-10.0-0.32,"""event"",""trial"",""time""
""focus"",""0"",""7631""
""fullscreenenter"",""0"",""9793""
","
","""event"",""trial"",""time""
""focus"",""0"",""7631""
","""event"",""trial"",""time""
""fullscreenenter"",""0"",""9793""
","
",null,"<div style=""font-size:60px;"">+</div>",NA,null,fixation,2020-06-28T01:22:42Z,NA,NA,NA,NA,NA,sub142
NA,mars-trial,80,227710,0.0-10.0-1.32,"""event"",""trial"",""time""
""focus"",""0"",""7631""
""fullscreenenter"",""0"",""9793""
","
","""event"",""trial"",""time""
""focus"",""0"",""7631""
","""event"",""trial"",""time""
""fullscreenenter"",""0"",""9793""
","
",4206.469999975525,<img style='border: 4px solid darkgrey;' src='img/tf1_33_M_ss2.jpeg'></img>,3,NA,exp,NA,0,<img src='img/tf1_33_T1_ss2_md.jpeg'></img>,0,TRUE,NA,sub142
NA,html-keyboard-response,81,228215,0.0-10.0-0.33,"""event"",""trial"",""time""
""focus"",""0"",""7631""
""fullscreenenter"",""0"",""9793""
","
","""event"",""trial"",""time""
""focus"",""0"",""7631""
","""event"",""trial"",""time""
""fullscreenenter"",""0"",""9793""
","
",null,"<div style=""font-size:60px;"">+</div>",NA,null,fixation,2020-06-28T01:22:47Z,NA,NA,NA,NA,NA,sub142
NA,mars-trial,82,230894,0.0-10.0-1.33,"""event"",""trial"",""time""
""focus"",""0"",""7631""
""fullscreenenter"",""0"",""9793""
","
","""event"",""trial"",""time""
""focus"",""0"",""7631""
","""event"",""trial"",""time""
""fullscreenenter"",""0"",""9793""
","
",2068.2050000177696,<img style='border: 4px solid darkgrey;' src='img/tf1_34_M_ss3.jpeg'></img>,3,NA,exp,NA,2,<img src='img/tf1_34_T1_ss3_md.jpeg'></img>,0,FALSE,NA,sub142
NA,html-keyboard-response,83,231397,0.0-10.0-0.34,"""event"",""trial"",""time""
""focus"",""0"",""7631""
""fullscreenenter"",""0"",""9793""
","
","""event"",""trial"",""time""
""focus"",""0"",""7631""
","""event"",""trial"",""time""
""fullscreenenter"",""0"",""9793""
","
",null,"<div style=""font-size:60px;"">+</div>",NA,null,fixation,2020-06-28T01:22:50Z,NA,NA,NA,NA,NA,sub142
NA,mars-trial,84,233817,0.0-10.0-1.34,"""event"",""trial"",""time""
""focus"",""0"",""7631""
""fullscreenenter"",""0"",""9793""
","
","""event"",""trial"",""time""
""focus"",""0"",""7631""
","""event"",""trial"",""time""
""fullscreenenter"",""0"",""9793""
","
",1814.7299999836832,<img style='border: 4px solid darkgrey;' src='img/tf1_35_M_ss1.jpeg'></img>,0,NA,exp,NA,0,<img src='img/tf1_35_T1_ss1_md.jpeg'></img>,0,TRUE,NA,sub142
NA,html-keyboard-response,85,234322,0.0-10.0-0.35,"""event"",""trial"",""time""
""focus"",""0"",""7631""
""fullscreenenter"",""0"",""9793""
","
","""event"",""trial"",""time""
""focus"",""0"",""7631""
","""event"",""trial"",""time""
""fullscreenenter"",""0"",""9793""
","
",null,"<div style=""font-size:60px;"">+</div>",NA,null,fixation,2020-06-28T01:22:53Z,NA,NA,NA,NA,NA,sub142
NA,mars-trial,86,236516,0.0-10.0-1.35,"""event"",""trial"",""time""
""focus"",""0"",""7631""
""fullscreenenter"",""0"",""9793""
","
","""event"",""trial"",""time""
""focus"",""0"",""7631""
","""event"",""trial"",""time""
""fullscreenenter"",""0"",""9793""
","
",1584.8449999466538,<img style='border: 4px solid darkgrey;' src='img/tf1_36_M_ss2.jpeg'></img>,1,NA,exp,NA,1,<img src='img/tf1_36_T1_ss2_md.jpeg'></img>,0,FALSE,NA,sub142
NA,html-keyboard-response,87,237022,0.0-10.0-0.36,"""event"",""trial"",""time""
""focus"",""0"",""7631""
""fullscreenenter"",""0"",""9793""
","
","""event"",""trial"",""time""
""focus"",""0"",""7631""
","""event"",""trial"",""time""
""fullscreenenter"",""0"",""9793""
","
",null,"<div style=""font-size:60px;"">+</div>",NA,null,fixation,2020-06-28T01:22:56Z,NA,NA,NA,NA,NA,sub142
NA,mars-trial,88,241787,0.0-10.0-1.36,"""event"",""trial"",""time""
""focus"",""0"",""7631""
""fullscreenenter"",""0"",""9793""
","
","""event"",""trial"",""time""
""focus"",""0"",""7631""
","""event"",""trial"",""time""
""fullscreenenter"",""0"",""9793""
","
",4159.285000059754,<img style='border: 4px solid darkgrey;' src='img/tf1_37_M_ss3.jpeg'></img>,3,NA,exp,NA,1,<img src='img/tf1_37_T1_ss3_md.jpeg'></img>,0,FALSE,NA,sub142
NA,html-keyboard-response,89,242289,0.0-10.0-0.37,"""event"",""trial"",""time""
""focus"",""0"",""7631""
""fullscreenenter"",""0"",""9793""
","
","""event"",""trial"",""time""
""focus"",""0"",""7631""
","""event"",""trial"",""time""
""fullscreenenter"",""0"",""9793""
","
",null,"<div style=""font-size:60px;"">+</div>",NA,null,fixation,2020-06-28T01:23:01Z,NA,NA,NA,NA,NA,sub142
NA,mars-trial,90,247120,0.0-10.0-1.37,"""event"",""trial"",""time""
""focus"",""0"",""7631""
""fullscreenenter"",""0"",""9793""
","
","""event"",""trial"",""time""
""focus"",""0"",""7631""
","""event"",""trial"",""time""
""fullscreenenter"",""0"",""9793""
","
",4224.234999972396,<img style='border: 4px solid darkgrey;' src='img/tf1_38_M_ss1.jpeg'></img>,3,NA,exp,NA,0,<img src='img/tf1_38_T1_ss1_md.jpeg'></img>,0,TRUE,NA,sub142
NA,html-keyboard-response,91,247626,0.0-10.0-0.38,"""event"",""trial"",""time""
""focus"",""0"",""7631""
""fullscreenenter"",""0"",""9793""
","
","""event"",""trial"",""time""
""focus"",""0"",""7631""
","""event"",""trial"",""time""
""fullscreenenter"",""0"",""9793""
","
",null,"<div style=""font-size:60px;"">+</div>",NA,null,fixation,2020-06-28T01:23:06Z,NA,NA,NA,NA,NA,sub142
NA,mars-trial,92,252927,0.0-10.0-1.38,"""event"",""trial"",""time""
""focus"",""0"",""7631""
""fullscreenenter"",""0"",""9793""
","
","""event"",""trial"",""time""
""focus"",""0"",""7631""
","""event"",""trial"",""time""
""fullscreenenter"",""0"",""9793""
","
",4690.330000012182,<img style='border: 4px solid darkgrey;' src='img/tf1_39_M_ss2.jpeg'></img>,1,NA,exp,NA,1,<img src='img/tf1_39_T1_ss2_md.jpeg'></img>,0,FALSE,NA,sub142
NA,html-keyboard-response,93,253433,0.0-10.0-0.39,"""event"",""trial"",""time""
""focus"",""0"",""7631""
""fullscreenenter"",""0"",""9793""
","
","""event"",""trial"",""time""
""focus"",""0"",""7631""
","""event"",""trial"",""time""
""fullscreenenter"",""0"",""9793""
","
",null,"<div style=""font-size:60px;"">+</div>",NA,null,fixation,2020-06-28T01:23:12Z,NA,NA,NA,NA,NA,sub142
NA,mars-trial,94,256757,0.0-10.0-1.39,"""event"",""trial"",""time""
""focus"",""0"",""7631""
""fullscreenenter"",""0"",""9793""
","
","""event"",""trial"",""time""
""focus"",""0"",""7631""
","""event"",""trial"",""time""
""fullscreenenter"",""0"",""9793""
","
",2712.9349999595433,<img style='border: 4px solid darkgrey;' src='img/tf1_40_M_ss3.jpeg'></img>,3,NA,exp,NA,0,<img src='img/tf1_40_T1_ss3_md.jpeg'></img>,0,TRUE,NA,sub142
NA,html-keyboard-response,95,257262,0.0-10.0-0.40,"""event"",""trial"",""time""
""focus"",""0"",""7631""
""fullscreenenter"",""0"",""9793""
","
","""event"",""trial"",""time""
""focus"",""0"",""7631""
","""event"",""trial"",""time""
""fullscreenenter"",""0"",""9793""
","
",null,"<div style=""font-size:60px;"">+</div>",NA,null,fixation,2020-06-28T01:23:16Z,NA,NA,NA,NA,NA,sub142
NA,mars-trial,96,260550,0.0-10.0-1.40,"""event"",""trial"",""time""
""focus"",""0"",""7631""
""fullscreenenter"",""0"",""9793""
","
","""event"",""trial"",""time""
""focus"",""0"",""7631""
","""event"",""trial"",""time""
""fullscreenenter"",""0"",""9793""
","
",2682.3450000956655,<img style='border: 4px solid darkgrey;' src='img/tf1_41_M_ss1.jpeg'></img>,3,NA,exp,NA,0,<img src='img/tf1_41_T1_ss1_md.jpeg'></img>,0,TRUE,NA,sub142
NA,html-keyboard-response,97,261057,0.0-10.0-0.41,"""event"",""trial"",""time""
""focus"",""0"",""7631""
""fullscreenenter"",""0"",""9793""
","
","""event"",""trial"",""time""
""focus"",""0"",""7631""
","""event"",""trial"",""time""
""fullscreenenter"",""0"",""9793""
","
",null,"<div style=""font-size:60px;"">+</div>",NA,null,fixation,2020-06-28T01:23:20Z,NA,NA,NA,NA,NA,sub142
NA,mars-trial,98,264306,0.0-10.0-1.41,"""event"",""trial"",""time""
""focus"",""0"",""7631""
""fullscreenenter"",""0"",""9793""
","
","""event"",""trial"",""time""
""focus"",""0"",""7631""
","""event"",""trial"",""time""
""fullscreenenter"",""0"",""9793""
","
",2641.8900000862777,<img style='border: 4px solid darkgrey;' src='img/tf1_42_M_ss2.jpeg'></img>,3,NA,exp,NA,1,<img src='img/tf1_42_T1_ss2_md.jpeg'></img>,0,FALSE,NA,sub142
NA,html-keyboard-response,99,264810,0.0-10.0-0.42,"""event"",""trial"",""time""
""focus"",""0"",""7631""
""fullscreenenter"",""0"",""9793""
","
","""event"",""trial"",""time""
""focus"",""0"",""7631""
","""event"",""trial"",""time""
""fullscreenenter"",""0"",""9793""
","
",null,"<div style=""font-size:60px;"">+</div>",NA,null,fixation,2020-06-28T01:23:24Z,NA,NA,NA,NA,NA,sub142
NA,mars-trial,100,269669,0.0-10.0-1.42,"""event"",""trial"",""time""
""focus"",""0"",""7631""
""fullscreenenter"",""0"",""9793""
","
","""event"",""trial"",""time""
""focus"",""0"",""7631""
","""event"",""trial"",""time""
""fullscreenenter"",""0"",""9793""
","
",4249.10999997519,<img style='border: 4px solid darkgrey;' src='img/tf1_43_M_ss3.jpeg'></img>,0,NA,exp,NA,0,<img src='img/tf1_43_T1_ss3_md.jpeg'></img>,0,TRUE,NA,sub142
NA,html-keyboard-response,101,270174,0.0-10.0-0.43,"""event"",""trial"",""time""
""focus"",""0"",""7631""
""fullscreenenter"",""0"",""9793""
","
","""event"",""trial"",""time""
""focus"",""0"",""7631""
","""event"",""trial"",""time""
""fullscreenenter"",""0"",""9793""
","
",null,"<div style=""font-size:60px;"">+</div>",NA,null,fixation,2020-06-28T01:23:29Z,NA,NA,NA,NA,NA,sub142
NA,mars-trial,102,273504,0.0-10.0-1.43,"""event"",""trial"",""time""
""focus"",""0"",""7631""
""fullscreenenter"",""0"",""9793""
","
","""event"",""trial"",""time""
""focus"",""0"",""7631""
","""event"",""trial"",""time""
""fullscreenenter"",""0"",""9793""
","
",2719.0799999516457,<img style='border: 4px solid darkgrey;' src='img/tf1_44_M_ss1.jpeg'></img>,1,NA,exp,NA,3,<img src='img/tf1_44_T1_ss1_md.jpeg'></img>,0,FALSE,NA,sub142
NA,html-keyboard-response,103,274006,0.0-10.0-0.44,"""event"",""trial"",""time""
""focus"",""0"",""7631""
""fullscreenenter"",""0"",""9793""
","
","""event"",""trial"",""time""
""focus"",""0"",""7631""
","""event"",""trial"",""time""
""fullscreenenter"",""0"",""9793""
","
",null,"<div style=""font-size:60px;"">+</div>",NA,null,fixation,2020-06-28T01:23:33Z,NA,NA,NA,NA,NA,sub142
NA,mars-trial,104,276450,0.0-10.0-1.44,"""event"",""trial"",""time""
""focus"",""0"",""7631""
""fullscreenenter"",""0"",""9793""
","
","""event"",""trial"",""time""
""focus"",""0"",""7631""
","""event"",""trial"",""time""
""fullscreenenter"",""0"",""9793""
","
",1836.8000000482425,<img style='border: 4px solid darkgrey;' src='img/tf1_45_M_ss2.jpeg'></img>,2,NA,exp,NA,3,<img src='img/tf1_45_T1_ss2_md.jpeg'></img>,0,FALSE,NA,sub142
NA,html-keyboard-response,105,276955,0.0-10.0-0.45,"""event"",""trial"",""time""
""focus"",""0"",""7631""
""fullscreenenter"",""0"",""9793""
","
","""event"",""trial"",""time""
""focus"",""0"",""7631""
","""event"",""trial"",""time""
""fullscreenenter"",""0"",""9793""
","
",null,"<div style=""font-size:60px;"">+</div>",NA,null,fixation,2020-06-28T01:23:36Z,NA,NA,NA,NA,NA,sub142
NA,mars-trial,106,279283,0.0-10.0-1.45,"""event"",""trial"",""time""
""focus"",""0"",""7631""
""fullscreenenter"",""0"",""9793""
","
","""event"",""trial"",""time""
""focus"",""0"",""7631""
","""event"",""trial"",""time""
""fullscreenenter"",""0"",""9793""
","
",1718.904999899678,<img style='border: 4px solid darkgrey;' src='img/tf1_46_M_ss3.jpeg'></img>,3,NA,exp,NA,1,<img src='img/tf1_46_T1_ss3_md.jpeg'></img>,0,FALSE,NA,sub142
NA,html-keyboard-response,107,279785,0.0-10.0-0.46,"""event"",""trial"",""time""
""focus"",""0"",""7631""
""fullscreenenter"",""0"",""9793""
","
","""event"",""trial"",""time""
""focus"",""0"",""7631""
","""event"",""trial"",""time""
""fullscreenenter"",""0"",""9793""
","
",null,"<div style=""font-size:60px;"">+</div>",NA,null,fixation,2020-06-28T01:23:39Z,NA,NA,NA,NA,NA,sub142
NA,mars-trial,108,283505,0.0-10.0-1.46,"""event"",""trial"",""time""
""focus"",""0"",""7631""
""fullscreenenter"",""0"",""9793""
","
","""event"",""trial"",""time""
""focus"",""0"",""7631""
","""event"",""trial"",""time""
""fullscreenenter"",""0"",""9793""
","
",3113.0300000077114,<img style='border: 4px solid darkgrey;' src='img/tf1_47_M_ss1.jpeg'></img>,2,NA,exp,NA,1,<img src='img/tf1_47_T1_ss1_md.jpeg'></img>,0,FALSE,NA,sub142
NA,html-keyboard-response,109,284009,0.0-10.0-0.47,"""event"",""trial"",""time""
""focus"",""0"",""7631""
""fullscreenenter"",""0"",""9793""
","
","""event"",""trial"",""time""
""focus"",""0"",""7631""
","""event"",""trial"",""time""
""fullscreenenter"",""0"",""9793""
","
",null,"<div style=""font-size:60px;"">+</div>",NA,null,fixation,2020-06-28T01:23:43Z,NA,NA,NA,NA,NA,sub142
NA,mars-trial,110,287385,0.0-10.0-1.47,"""event"",""trial"",""time""
""focus"",""0"",""7631""
""fullscreenenter"",""0"",""9793""
","
","""event"",""trial"",""time""
""focus"",""0"",""7631""
","""event"",""trial"",""time""
""fullscreenenter"",""0"",""9793""
","
",2765.00000001397,<img style='border: 4px solid darkgrey;' src='img/tf1_48_M_ss2.jpeg'></img>,1,NA,exp,NA,2,<img src='img/tf1_48_T1_ss2_md.jpeg'></img>,0,FALSE,NA,sub142
NA,html-keyboard-response,111,287887,0.0-10.0-0.48,"""event"",""trial"",""time""
""focus"",""0"",""7631""
""fullscreenenter"",""0"",""9793""
","
","""event"",""trial"",""time""
""focus"",""0"",""7631""
","""event"",""trial"",""time""
""fullscreenenter"",""0"",""9793""
","
",null,"<div style=""font-size:60px;"">+</div>",NA,null,fixation,2020-06-28T01:23:47Z,NA,NA,NA,NA,NA,sub142
NA,mars-trial,112,292755,0.0-10.0-1.48,"""event"",""trial"",""time""
""focus"",""0"",""7631""
""fullscreenenter"",""0"",""9793""
","
","""event"",""trial"",""time""
""focus"",""0"",""7631""
","""event"",""trial"",""time""
""fullscreenenter"",""0"",""9793""
","
",4257.0499998983,<img style='border: 4px solid darkgrey;' src='img/tf1_49_M_ss3.jpeg'></img>,0,NA,exp,NA,0,<img src='img/tf1_49_T1_ss3_md.jpeg'></img>,0,TRUE,NA,sub142
NA,html-keyboard-response,113,293257,0.0-10.0-0.49,"""event"",""trial"",""time""
""focus"",""0"",""7631""
""fullscreenenter"",""0"",""9793""
","
","""event"",""trial"",""time""
""focus"",""0"",""7631""
","""event"",""trial"",""time""
""fullscreenenter"",""0"",""9793""
","
",null,"<div style=""font-size:60px;"">+</div>",NA,null,fixation,2020-06-28T01:23:52Z,NA,NA,NA,NA,NA,sub142
NA,mars-trial,114,297596,0.0-10.0-1.49,"""event"",""trial"",""time""
""focus"",""0"",""7631""
""fullscreenenter"",""0"",""9793""
","
","""event"",""trial"",""time""
""focus"",""0"",""7631""
","""event"",""trial"",""time""
""fullscreenenter"",""0"",""9793""
","
",3729.715000023134,<img style='border: 4px solid darkgrey;' src='img/tf1_50_M_ss1.jpeg'></img>,2,NA,exp,NA,0,<img src='img/tf1_50_T1_ss1_md.jpeg'></img>,0,TRUE,NA,sub142
NA,html-keyboard-response,115,298098,0.0-10.0-0.50,"""event"",""trial"",""time""
""focus"",""0"",""7631""
""fullscreenenter"",""0"",""9793""
","
","""event"",""trial"",""time""
""focus"",""0"",""7631""
","""event"",""trial"",""time""
""fullscreenenter"",""0"",""9793""
","
",null,"<div style=""font-size:60px;"">+</div>",NA,null,fixation,2020-06-28T01:23:57Z,NA,NA,NA,NA,NA,sub142
NA,mars-trial,116,301664,0.0-10.0-1.50,"""event"",""trial"",""time""
""focus"",""0"",""7631""
""fullscreenenter"",""0"",""9793""
","
","""event"",""trial"",""time""
""focus"",""0"",""7631""
","""event"",""trial"",""time""
""fullscreenenter"",""0"",""9793""
","
",2957.5599998934194,<img style='border: 4px solid darkgrey;' src='img/tf1_51_M_ss2.jpeg'></img>,1,NA,exp,NA,1,<img src='img/tf1_51_T1_ss2_md.jpeg'></img>,0,FALSE,NA,sub142
NA,html-keyboard-response,117,302168,0.0-10.0-0.51,"""event"",""trial"",""time""
""focus"",""0"",""7631""
""fullscreenenter"",""0"",""9793""
","
","""event"",""trial"",""time""
""focus"",""0"",""7631""
","""event"",""trial"",""time""
""fullscreenenter"",""0"",""9793""
","
",null,"<div style=""font-size:60px;"">+</div>",NA,null,fixation,2020-06-28T01:24:01Z,NA,NA,NA,NA,NA,sub142
NA,mars-trial,118,304642,0.0-10.0-1.51,"""event"",""trial"",""time""
""focus"",""0"",""7631""
""fullscreenenter"",""0"",""9793""
","
","""event"",""trial"",""time""
""focus"",""0"",""7631""
","""event"",""trial"",""time""
""fullscreenenter"",""0"",""9793""
","
",1864.865000010468,<img style='border: 4px solid darkgrey;' src='img/tf1_52_M_ss3.jpeg'></img>,2,NA,exp,NA,2,<img src='img/tf1_52_T1_ss3_md.jpeg'></img>,0,FALSE,NA,sub142
NA,html-keyboard-response,119,305146,0.0-10.0-0.52,"""event"",""trial"",""time""
""focus"",""0"",""7631""
""fullscreenenter"",""0"",""9793""
","
","""event"",""trial"",""time""
""focus"",""0"",""7631""
","""event"",""trial"",""time""
""fullscreenenter"",""0"",""9793""
","
",null,"<div style=""font-size:60px;"">+</div>",NA,null,fixation,2020-06-28T01:24:04Z,NA,NA,NA,NA,NA,sub142
NA,mars-trial,120,308269,0.0-10.0-1.52,"""event"",""trial"",""time""
""focus"",""0"",""7631""
""fullscreenenter"",""0"",""9793""
","
","""event"",""trial"",""time""
""focus"",""0"",""7631""
","""event"",""trial"",""time""
""fullscreenenter"",""0"",""9793""
","
",2513.9949999284,<img style='border: 4px solid darkgrey;' src='img/tf1_53_M_ss1.jpeg'></img>,1,NA,exp,NA,2,<img src='img/tf1_53_T1_ss1_md.jpeg'></img>,0,FALSE,NA,sub142
NA,html-keyboard-response,121,308773,0.0-10.0-0.53,"""event"",""trial"",""time""
""focus"",""0"",""7631""
""fullscreenenter"",""0"",""9793""
","
","""event"",""trial"",""time""
""focus"",""0"",""7631""
","""event"",""trial"",""time""
""fullscreenenter"",""0"",""9793""
","
",null,"<div style=""font-size:60px;"">+</div>",NA,null,fixation,2020-06-28T01:24:08Z,NA,NA,NA,NA,NA,sub142
NA,mars-trial,122,316783,0.0-10.0-1.53,"""event"",""trial"",""time""
""focus"",""0"",""7631""
""fullscreenenter"",""0"",""9793""
","
","""event"",""trial"",""time""
""focus"",""0"",""7631""
","""event"",""trial"",""time""
""fullscreenenter"",""0"",""9793""
","
",7403.9000000339,<img style='border: 4px solid darkgrey;' src='img/tf1_54_M_ss2.jpeg'></img>,3,NA,exp,NA,3,<img src='img/tf1_54_T1_ss2_md.jpeg'></img>,0,FALSE,NA,sub142
NA,html-keyboard-response,123,317290,0.0-10.0-0.54,"""event"",""trial"",""time""
""focus"",""0"",""7631""
""fullscreenenter"",""0"",""9793""
","
","""event"",""trial"",""time""
""focus"",""0"",""7631""
","""event"",""trial"",""time""
""fullscreenenter"",""0"",""9793""
","
",null,"<div style=""font-size:60px;"">+</div>",NA,null,fixation,2020-06-28T01:24:16Z,NA,NA,NA,NA,NA,sub142
NA,mars-trial,124,319859,0.0-10.0-1.54,"""event"",""trial"",""time""
""focus"",""0"",""7631""
""fullscreenenter"",""0"",""9793""
","
","""event"",""trial"",""time""
""focus"",""0"",""7631""
","""event"",""trial"",""time""
""fullscreenenter"",""0"",""9793""
","
",1959.4600000418723,<img style='border: 4px solid darkgrey;' src='img/tf1_55_M_ss3.jpeg'></img>,2,NA,exp,NA,2,<img src='img/tf1_55_T1_ss3_md.jpeg'></img>,0,FALSE,NA,sub142
NA,html-keyboard-response,125,320365,0.0-10.0-0.55,"""event"",""trial"",""time""
""focus"",""0"",""7631""
""fullscreenenter"",""0"",""9793""
","
","""event"",""trial"",""time""
""focus"",""0"",""7631""
","""event"",""trial"",""time""
""fullscreenenter"",""0"",""9793""
","
",null,"<div style=""font-size:60px;"">+</div>",NA,null,fixation,2020-06-28T01:24:19Z,NA,NA,NA,NA,NA,sub142
NA,mars-trial,126,323225,0.0-10.0-1.55,"""event"",""trial"",""time""
""focus"",""0"",""7631""
""fullscreenenter"",""0"",""9793""
","
","""event"",""trial"",""time""
""focus"",""0"",""7631""
","""event"",""trial"",""time""
""fullscreenenter"",""0"",""9793""
","
",2251.5950000379235,<img style='border: 4px solid darkgrey;' src='img/tf1_56_M_ss1.jpeg'></img>,3,NA,exp,NA,3,<img src='img/tf1_56_T1_ss1_md.jpeg'></img>,0,FALSE,NA,sub142
NA,html-keyboard-response,127,323727,0.0-10.0-0.56,"""event"",""trial"",""time""
""focus"",""0"",""7631""
""fullscreenenter"",""0"",""9793""
","
","""event"",""trial"",""time""
""focus"",""0"",""7631""
","""event"",""trial"",""time""
""fullscreenenter"",""0"",""9793""
","
",null,"<div style=""font-size:60px;"">+</div>",NA,null,fixation,2020-06-28T01:24:22Z,NA,NA,NA,NA,NA,sub142
NA,mars-trial,128,331044,0.0-10.0-1.56,"""event"",""trial"",""time""
""focus"",""0"",""7631""
""fullscreenenter"",""0"",""9793""
","
","""event"",""trial"",""time""
""focus"",""0"",""7631""
","""event"",""trial"",""time""
""fullscreenenter"",""0"",""9793""
","
",6708.375000045635,<img style='border: 4px solid darkgrey;' src='img/tf1_57_M_ss2.jpeg'></img>,1,NA,exp,NA,0,<img src='img/tf1_57_T1_ss2_md.jpeg'></img>,0,TRUE,NA,sub142
NA,html-keyboard-response,129,331548,0.0-10.0-0.57,"""event"",""trial"",""time""
""focus"",""0"",""7631""
""fullscreenenter"",""0"",""9793""
","
","""event"",""trial"",""time""
""focus"",""0"",""7631""
","""event"",""trial"",""time""
""fullscreenenter"",""0"",""9793""
","
",null,"<div style=""font-size:60px;"">+</div>",NA,null,fixation,2020-06-28T01:24:30Z,NA,NA,NA,NA,NA,sub142
NA,mars-trial,130,335348,0.0-10.0-1.57,"""event"",""trial"",""time""
""focus"",""0"",""7631""
""fullscreenenter"",""0"",""9793""
","
","""event"",""trial"",""time""
""focus"",""0"",""7631""
","""event"",""trial"",""time""
""fullscreenenter"",""0"",""9793""
","
",3190.3549999697134,<img style='border: 4px solid darkgrey;' src='img/tf1_58_M_ss3.jpeg'></img>,0,NA,exp,NA,1,<img src='img/tf1_58_T1_ss3_md.jpeg'></img>,0,FALSE,NA,sub142
NA,html-keyboard-response,131,335854,0.0-10.0-0.58,"""event"",""trial"",""time""
""focus"",""0"",""7631""
""fullscreenenter"",""0"",""9793""
","
","""event"",""trial"",""time""
""focus"",""0"",""7631""
","""event"",""trial"",""time""
""fullscreenenter"",""0"",""9793""
","
",null,"<div style=""font-size:60px;"">+</div>",NA,null,fixation,2020-06-28T01:24:35Z,NA,NA,NA,NA,NA,sub142
NA,mars-trial,132,339156,0.0-10.0-1.58,"""event"",""trial"",""time""
""focus"",""0"",""7631""
""fullscreenenter"",""0"",""9793""
","
","""event"",""trial"",""time""
""focus"",""0"",""7631""
","""event"",""trial"",""time""
""fullscreenenter"",""0"",""9793""
","
",2691.179999965243,<img style='border: 4px solid darkgrey;' src='img/tf1_59_M_ss1.jpeg'></img>,1,NA,exp,NA,3,<img src='img/tf1_59_T1_ss1_md.jpeg'></img>,0,FALSE,NA,sub142
NA,html-keyboard-response,133,339659,0.0-10.0-0.59,"""event"",""trial"",""time""
""focus"",""0"",""7631""
""fullscreenenter"",""0"",""9793""
","
","""event"",""trial"",""time""
""focus"",""0"",""7631""
","""event"",""trial"",""time""
""fullscreenenter"",""0"",""9793""
","
",null,"<div style=""font-size:60px;"">+</div>",NA,null,fixation,2020-06-28T01:24:38Z,NA,NA,NA,NA,NA,sub142
NA,mars-trial,134,347716,0.0-10.0-1.59,"""event"",""trial"",""time""
""focus"",""0"",""7631""
""fullscreenenter"",""0"",""9793""
","
","""event"",""trial"",""time""
""focus"",""0"",""7631""
","""event"",""trial"",""time""
""fullscreenenter"",""0"",""9793""
","
",7447.17500009574,<img style='border: 4px solid darkgrey;' src='img/tf1_60_M_ss2.jpeg'></img>,2,NA,exp,NA,3,<img src='img/tf1_60_T1_ss2_md.jpeg'></img>,0,FALSE,NA,sub142
NA,html-keyboard-response,135,348219,0.0-10.0-0.60,"""event"",""trial"",""time""
""focus"",""0"",""7631""
""fullscreenenter"",""0"",""9793""
","
","""event"",""trial"",""time""
""focus"",""0"",""7631""
","""event"",""trial"",""time""
""fullscreenenter"",""0"",""9793""
","
",null,"<div style=""font-size:60px;"">+</div>",NA,null,fixation,2020-06-28T01:24:47Z,NA,NA,NA,NA,NA,sub142
NA,mars-trial,136,350209,0.0-10.0-1.60,"""event"",""trial"",""time""
""focus"",""0"",""7631""
""fullscreenenter"",""0"",""9793""
","
","""event"",""trial"",""time""
""focus"",""0"",""7631""
","""event"",""trial"",""time""
""fullscreenenter"",""0"",""9793""
","
",1380.5899999570101,<img style='border: 4px solid darkgrey;' src='img/tf1_61_M_ss3.jpeg'></img>,3,NA,exp,NA,3,<img src='img/tf1_61_T1_ss3_md.jpeg'></img>,0,FALSE,NA,sub142
NA,html-keyboard-response,137,350714,0.0-10.0-0.61,"""event"",""trial"",""time""
""focus"",""0"",""7631""
""fullscreenenter"",""0"",""9793""
","
","""event"",""trial"",""time""
""focus"",""0"",""7631""
","""event"",""trial"",""time""
""fullscreenenter"",""0"",""9793""
","
",null,"<div style=""font-size:60px;"">+</div>",NA,null,fixation,2020-06-28T01:24:49Z,NA,NA,NA,NA,NA,sub142
NA,mars-trial,138,356851,0.0-10.0-1.61,"""event"",""trial"",""time""
""focus"",""0"",""7631""
""fullscreenenter"",""0"",""9793""
","
","""event"",""trial"",""time""
""focus"",""0"",""7631""
","""event"",""trial"",""time""
""fullscreenenter"",""0"",""9793""
","
",5526.225000037812,<img style='border: 4px solid darkgrey;' src='img/tf1_62_M_ss1.jpeg'></img>,1,NA,exp,NA,0,<img src='img/tf1_62_T1_ss1_md.jpeg'></img>,0,TRUE,NA,sub142
NA,html-keyboard-response,139,357356,0.0-10.0-0.62,"""event"",""trial"",""time""
""focus"",""0"",""7631""
""fullscreenenter"",""0"",""9793""
","
","""event"",""trial"",""time""
""focus"",""0"",""7631""
","""event"",""trial"",""time""
""fullscreenenter"",""0"",""9793""
","
",null,"<div style=""font-size:60px;"">+</div>",NA,null,fixation,2020-06-28T01:24:56Z,NA,NA,NA,NA,NA,sub142
NA,mars-trial,140,363797,0.0-10.0-1.62,"""event"",""trial"",""time""
""focus"",""0"",""7631""
""fullscreenenter"",""0"",""9793""
","
","""event"",""trial"",""time""
""focus"",""0"",""7631""
","""event"",""trial"",""time""
""fullscreenenter"",""0"",""9793""
","
",5831.134999985807,<img style='border: 4px solid darkgrey;' src='img/tf1_63_M_ss2.jpeg'></img>,2,NA,exp,NA,1,<img src='img/tf1_63_T1_ss2_md.jpeg'></img>,0,FALSE,NA,sub142
NA,html-keyboard-response,141,364299,0.0-10.0-0.63,"""event"",""trial"",""time""
""focus"",""0"",""7631""
""fullscreenenter"",""0"",""9793""
","
","""event"",""trial"",""time""
""focus"",""0"",""7631""
","""event"",""trial"",""time""
""fullscreenenter"",""0"",""9793""
","
",null,"<div style=""font-size:60px;"">+</div>",NA,null,fixation,2020-06-28T01:25:03Z,NA,NA,NA,NA,NA,sub142
NA,mars-trial,142,367420,0.0-10.0-1.63,"""event"",""trial"",""time""
""focus"",""0"",""7631""
""fullscreenenter"",""0"",""9793""
","
","""event"",""trial"",""time""
""focus"",""0"",""7631""
","""event"",""trial"",""time""
""fullscreenenter"",""0"",""9793""
","
",2516.0199999809265,<img style='border: 4px solid darkgrey;' src='img/tf1_64_M_ss3.jpeg'></img>,1,NA,exp,NA,3,<img src='img/tf1_64_T1_ss3_md.jpeg'></img>,0,FALSE,NA,sub142
NA,html-keyboard-response,143,367927,0.0-10.0-0.64,"""event"",""trial"",""time""
""focus"",""0"",""7631""
""fullscreenenter"",""0"",""9793""
","
","""event"",""trial"",""time""
""focus"",""0"",""7631""
","""event"",""trial"",""time""
""fullscreenenter"",""0"",""9793""
","
",null,"<div style=""font-size:60px;"">+</div>",NA,null,fixation,2020-06-28T01:25:07Z,NA,NA,NA,NA,NA,sub142
NA,mars-trial,144,371640,0.0-10.0-1.64,"""event"",""trial"",""time""
""focus"",""0"",""7631""
""fullscreenenter"",""0"",""9793""
","
","""event"",""trial"",""time""
""focus"",""0"",""7631""
","""event"",""trial"",""time""
""fullscreenenter"",""0"",""9793""
","
",3102.1200000541285,<img style='border: 4px solid darkgrey;' src='img/tf1_65_M_ss1.jpeg'></img>,1,NA,exp,NA,2,<img src='img/tf1_65_T1_ss1_md.jpeg'></img>,0,FALSE,NA,sub142
NA,html-keyboard-response,145,372145,0.0-10.0-0.65,"""event"",""trial"",""time""
""focus"",""0"",""7631""
""fullscreenenter"",""0"",""9793""
","
","""event"",""trial"",""time""
""focus"",""0"",""7631""
","""event"",""trial"",""time""
""fullscreenenter"",""0"",""9793""
","
",null,"<div style=""font-size:60px;"">+</div>",NA,null,fixation,2020-06-28T01:25:11Z,NA,NA,NA,NA,NA,sub142
NA,mars-trial,146,374442,0.0-10.0-1.65,"""event"",""trial"",""time""
""focus"",""0"",""7631""
""fullscreenenter"",""0"",""9793""
","
","""event"",""trial"",""time""
""focus"",""0"",""7631""
","""event"",""trial"",""time""
""fullscreenenter"",""0"",""9793""
","
",1690.9400000004098,<img style='border: 4px solid darkgrey;' src='img/tf1_66_M_ss2.jpeg'></img>,3,NA,exp,NA,0,<img src='img/tf1_66_T1_ss2_md.jpeg'></img>,0,TRUE,NA,sub142
NA,html-keyboard-response,147,374947,0.0-10.0-0.66,"""event"",""trial"",""time""
""focus"",""0"",""7631""
""fullscreenenter"",""0"",""9793""
","
","""event"",""trial"",""time""
""focus"",""0"",""7631""
","""event"",""trial"",""time""
""fullscreenenter"",""0"",""9793""
","
",null,"<div style=""font-size:60px;"">+</div>",NA,null,fixation,2020-06-28T01:25:14Z,NA,NA,NA,NA,NA,sub142
NA,mars-trial,148,377552,0.0-10.0-1.66,"""event"",""trial"",""time""
""focus"",""0"",""7631""
""fullscreenenter"",""0"",""9793""
","
","""event"",""trial"",""time""
""focus"",""0"",""7631""
","""event"",""trial"",""time""
""fullscreenenter"",""0"",""9793""
","
",1996.3849999476224,<img style='border: 4px solid darkgrey;' src='img/tf1_67_M_ss3.jpeg'></img>,2,NA,exp,NA,3,<img src='img/tf1_67_T1_ss3_md.jpeg'></img>,0,FALSE,NA,sub142
NA,html-keyboard-response,149,378059,0.0-10.0-0.67,"""event"",""trial"",""time""
""focus"",""0"",""7631""
""fullscreenenter"",""0"",""9793""
","
","""event"",""trial"",""time""
""focus"",""0"",""7631""
","""event"",""trial"",""time""
""fullscreenenter"",""0"",""9793""
","
",null,"<div style=""font-size:60px;"">+</div>",NA,null,fixation,2020-06-28T01:25:17Z,NA,NA,NA,NA,NA,sub142
NA,mars-trial,150,380041,0.0-10.0-1.67,"""event"",""trial"",""time""
""focus"",""0"",""7631""
""fullscreenenter"",""0"",""9793""
","
","""event"",""trial"",""time""
""focus"",""0"",""7631""
","""event"",""trial"",""time""
""fullscreenenter"",""0"",""9793""
","
",1374.0600000601262,<img style='border: 4px solid darkgrey;' src='img/tf1_68_M_ss1.jpeg'></img>,1,NA,exp,NA,0,<img src='img/tf1_68_T1_ss1_md.jpeg'></img>,0,TRUE,NA,sub142
NA,html-keyboard-response,151,380544,0.0-10.0-0.68,"""event"",""trial"",""time""
""focus"",""0"",""7631""
""fullscreenenter"",""0"",""9793""
","
","""event"",""trial"",""time""
""focus"",""0"",""7631""
","""event"",""trial"",""time""
""fullscreenenter"",""0"",""9793""
","
",null,"<div style=""font-size:60px;"">+</div>",NA,null,fixation,2020-06-28T01:25:19Z,NA,NA,NA,NA,NA,sub142
NA,mars-trial,152,389842,0.0-10.0-1.68,"""event"",""trial"",""time""
""focus"",""0"",""7631""
""fullscreenenter"",""0"",""9793""
","
","""event"",""trial"",""time""
""focus"",""0"",""7631""
","""event"",""trial"",""time""
""fullscreenenter"",""0"",""9793""
","
",8688.700000056997,<img style='border: 4px solid darkgrey;' src='img/tf1_69_M_ss2.jpeg'></img>,1,NA,exp,NA,3,<img src='img/tf1_69_T1_ss2_md.jpeg'></img>,0,FALSE,NA,sub142
NA,html-keyboard-response,153,390344,0.0-10.0-0.69,"""event"",""trial"",""time""
""focus"",""0"",""7631""
""fullscreenenter"",""0"",""9793""
","
","""event"",""trial"",""time""
""focus"",""0"",""7631""
","""event"",""trial"",""time""
""fullscreenenter"",""0"",""9793""
","
",null,"<div style=""font-size:60px;"">+</div>",NA,null,fixation,2020-06-28T01:25:29Z,NA,NA,NA,NA,NA,sub142
NA,mars-trial,154,398952,0.0-10.0-1.69,"""event"",""trial"",""time""
""focus"",""0"",""7631""
""fullscreenenter"",""0"",""9793""
","
","""event"",""trial"",""time""
""focus"",""0"",""7631""
","""event"",""trial"",""time""
""fullscreenenter"",""0"",""9793""
","
",8001.765000051819,<img style='border: 4px solid darkgrey;' src='img/tf1_70_M_ss3.jpeg'></img>,0,NA,exp,NA,2,<img src='img/tf1_70_T1_ss3_md.jpeg'></img>,0,FALSE,NA,sub142
NA,html-keyboard-response,155,399455,0.0-10.0-0.70,"""event"",""trial"",""time""
""focus"",""0"",""7631""
""fullscreenenter"",""0"",""9793""
","
","""event"",""trial"",""time""
""focus"",""0"",""7631""
","""event"",""trial"",""time""
""fullscreenenter"",""0"",""9793""
","
",null,"<div style=""font-size:60px;"">+</div>",NA,null,fixation,2020-06-28T01:25:38Z,NA,NA,NA,NA,NA,sub142
NA,mars-trial,156,402035,0.0-10.0-1.70,"""event"",""trial"",""time""
""focus"",""0"",""7631""
""fullscreenenter"",""0"",""9793""
","
","""event"",""trial"",""time""
""focus"",""0"",""7631""
","""event"",""trial"",""time""
""fullscreenenter"",""0"",""9793""
","
",1970.949999988079,<img style='border: 4px solid darkgrey;' src='img/tf1_71_M_ss1.jpeg'></img>,3,NA,exp,NA,1,<img src='img/tf1_71_T1_ss1_md.jpeg'></img>,0,FALSE,NA,sub142
NA,html-keyboard-response,157,402538,0.0-10.0-0.71,"""event"",""trial"",""time""
""focus"",""0"",""7631""
""fullscreenenter"",""0"",""9793""
","
","""event"",""trial"",""time""
""focus"",""0"",""7631""
","""event"",""trial"",""time""
""fullscreenenter"",""0"",""9793""
","
",null,"<div style=""font-size:60px;"">+</div>",NA,null,fixation,2020-06-28T01:25:41Z,NA,NA,NA,NA,NA,sub142
NA,mars-trial,158,406741,0.0-10.0-1.71,"""event"",""trial"",""time""
""focus"",""0"",""7631""
""fullscreenenter"",""0"",""9793""
","
","""event"",""trial"",""time""
""focus"",""0"",""7631""
","""event"",""trial"",""time""
""fullscreenenter"",""0"",""9793""
","
",3592.9000000469387,<img style='border: 4px solid darkgrey;' src='img/tf1_72_M_ss2.jpeg'></img>,1,NA,exp,NA,0,<img src='img/tf1_72_T1_ss2_md.jpeg'></img>,0,TRUE,NA,sub142
NA,html-keyboard-response,159,407246,0.0-10.0-0.72,"""event"",""trial"",""time""
""focus"",""0"",""7631""
""fullscreenenter"",""0"",""9793""
","
","""event"",""trial"",""time""
""focus"",""0"",""7631""
","""event"",""trial"",""time""
""fullscreenenter"",""0"",""9793""
","
",null,"<div style=""font-size:60px;"">+</div>",NA,null,fixation,2020-06-28T01:25:46Z,NA,NA,NA,NA,NA,sub142
NA,mars-trial,160,415266,0.0-10.0-1.72,"""event"",""trial"",""time""
""focus"",""0"",""7631""
""fullscreenenter"",""0"",""9793""
","
","""event"",""trial"",""time""
""focus"",""0"",""7631""
","""event"",""trial"",""time""
""fullscreenenter"",""0"",""9793""
","
",7408.730000024661,<img style='border: 4px solid darkgrey;' src='img/tf1_73_M_ss3.jpeg'></img>,0,NA,exp,NA,0,<img src='img/tf1_73_T1_ss3_md.jpeg'></img>,0,TRUE,NA,sub142
NA,html-keyboard-response,161,415768,0.0-10.0-0.73,"""event"",""trial"",""time""
""focus"",""0"",""7631""
""fullscreenenter"",""0"",""9793""
","
","""event"",""trial"",""time""
""focus"",""0"",""7631""
","""event"",""trial"",""time""
""fullscreenenter"",""0"",""9793""
","
",null,"<div style=""font-size:60px;"">+</div>",NA,null,fixation,2020-06-28T01:25:55Z,NA,NA,NA,NA,NA,sub142
NA,mars-trial,162,421236,0.0-10.0-1.73,"""event"",""trial"",""time""
""focus"",""0"",""7631""
""fullscreenenter"",""0"",""9793""
","
","""event"",""trial"",""time""
""focus"",""0"",""7631""
","""event"",""trial"",""time""
""fullscreenenter"",""0"",""9793""
","
",4857.079999987036,<img style='border: 4px solid darkgrey;' src='img/tf1_74_M_ss1.jpeg'></img>,2,NA,exp,NA,1,<img src='img/tf1_74_T1_ss1_md.jpeg'></img>,0,FALSE,NA,sub142
NA,html-keyboard-response,163,421742,0.0-10.0-0.74,"""event"",""trial"",""time""
""focus"",""0"",""7631""
""fullscreenenter"",""0"",""9793""
","
","""event"",""trial"",""time""
""focus"",""0"",""7631""
","""event"",""trial"",""time""
""fullscreenenter"",""0"",""9793""
","
",null,"<div style=""font-size:60px;"">+</div>",NA,null,fixation,2020-06-28T01:26:00Z,NA,NA,NA,NA,NA,sub142
NA,mars-trial,164,424558,0.0-10.0-1.74,"""event"",""trial"",""time""
""focus"",""0"",""7631""
""fullscreenenter"",""0"",""9793""
","
","""event"",""trial"",""time""
""focus"",""0"",""7631""
","""event"",""trial"",""time""
""fullscreenenter"",""0"",""9793""
","
",2205.8849999448285,<img style='border: 4px solid darkgrey;' src='img/tf1_75_M_ss2.jpeg'></img>,3,NA,exp,NA,2,<img src='img/tf1_75_T1_ss2_md.jpeg'></img>,0,FALSE,NA,sub142
NA,html-keyboard-response,165,425062,0.0-10.0-0.75,"""event"",""trial"",""time""
""focus"",""0"",""7631""
""fullscreenenter"",""0"",""9793""
","
","""event"",""trial"",""time""
""focus"",""0"",""7631""
","""event"",""trial"",""time""
""fullscreenenter"",""0"",""9793""
","
",null,"<div style=""font-size:60px;"">+</div>",NA,null,fixation,2020-06-28T01:26:04Z,NA,NA,NA,NA,NA,sub142
NA,mars-trial,166,429667,0.0-10.0-1.75,"""event"",""trial"",""time""
""focus"",""0"",""7631""
""fullscreenenter"",""0"",""9793""
","
","""event"",""trial"",""time""
""focus"",""0"",""7631""
","""event"",""trial"",""time""
""fullscreenenter"",""0"",""9793""
","
",3994.5450000232086,<img style='border: 4px solid darkgrey;' src='img/tf1_76_M_ss3.jpeg'></img>,0,NA,exp,NA,2,<img src='img/tf1_76_T1_ss3_md.jpeg'></img>,0,FALSE,NA,sub142
NA,html-keyboard-response,167,430174,0.0-10.0-0.76,"""event"",""trial"",""time""
""focus"",""0"",""7631""
""fullscreenenter"",""0"",""9793""
","
","""event"",""trial"",""time""
""focus"",""0"",""7631""
","""event"",""trial"",""time""
""fullscreenenter"",""0"",""9793""
","
",null,"<div style=""font-size:60px;"">+</div>",NA,null,fixation,2020-06-28T01:26:09Z,NA,NA,NA,NA,NA,sub142
NA,mars-trial,168,436567,0.0-10.0-1.76,"""event"",""trial"",""time""
""focus"",""0"",""7631""
""fullscreenenter"",""0"",""9793""
","
","""event"",""trial"",""time""
""focus"",""0"",""7631""
","""event"",""trial"",""time""
""fullscreenenter"",""0"",""9793""
","
",5785.965000046417,<img style='border: 4px solid darkgrey;' src='img/tf1_77_M_ss1.jpeg'></img>,1,NA,exp,NA,2,<img src='img/tf1_77_T1_ss1_md.jpeg'></img>,0,FALSE,NA,sub142
NA,html-keyboard-response,169,437073,0.0-10.0-0.77,"""event"",""trial"",""time""
""focus"",""0"",""7631""
""fullscreenenter"",""0"",""9793""
","
","""event"",""trial"",""time""
""focus"",""0"",""7631""
","""event"",""trial"",""time""
""fullscreenenter"",""0"",""9793""
","
",null,"<div style=""font-size:60px;"">+</div>",NA,null,fixation,2020-06-28T01:26:16Z,NA,NA,NA,NA,NA,sub142
NA,mars-trial,170,438816,0.0-10.0-1.77,"""event"",""trial"",""time""
""focus"",""0"",""7631""
""fullscreenenter"",""0"",""9793""
","
","""event"",""trial"",""time""
""focus"",""0"",""7631""
","""event"",""trial"",""time""
""fullscreenenter"",""0"",""9793""
","
",1132.7750000637025,<img style='border: 4px solid darkgrey;' src='img/tf1_78_M_ss2.jpeg'></img>,1,NA,exp,NA,0,<img src='img/tf1_78_T1_ss2_md.jpeg'></img>,0,TRUE,NA,sub142
NA,html-keyboard-response,171,439320,0.0-10.0-0.78,"""event"",""trial"",""time""
""focus"",""0"",""7631""
""fullscreenenter"",""0"",""9793""
","
","""event"",""trial"",""time""
""focus"",""0"",""7631""
","""event"",""trial"",""time""
""fullscreenenter"",""0"",""9793""
","
",null,"<div style=""font-size:60px;"">+</div>",NA,null,fixation,2020-06-28T01:26:18Z,NA,NA,NA,NA,NA,sub142
NA,mars-trial,172,444188,0.0-10.0-1.78,"""event"",""trial"",""time""
""focus"",""0"",""7631""
""fullscreenenter"",""0"",""9793""
","
","""event"",""trial"",""time""
""focus"",""0"",""7631""
","""event"",""trial"",""time""
""fullscreenenter"",""0"",""9793""
","
",4263.064999948256,<img style='border: 4px solid darkgrey;' src='img/tf1_79_M_ss3.jpeg'></img>,2,NA,exp,NA,2,<img src='img/tf1_79_T1_ss3_md.jpeg'></img>,0,FALSE,NA,sub142
NA,html-keyboard-response,173,444690,0.0-10.0-0.79,"""event"",""trial"",""time""
""focus"",""0"",""7631""
""fullscreenenter"",""0"",""9793""
","
","""event"",""trial"",""time""
""focus"",""0"",""7631""
","""event"",""trial"",""time""
""fullscreenenter"",""0"",""9793""
","
",null,"<div style=""font-size:60px;"">+</div>",NA,null,fixation,2020-06-28T01:26:23Z,NA,NA,NA,NA,NA,sub142
NA,mars-trial,174,447321,0.0-10.0-1.79,"""event"",""trial"",""time""
""focus"",""0"",""7631""
""fullscreenenter"",""0"",""9793""
","
","""event"",""trial"",""time""
""focus"",""0"",""7631""
","""event"",""trial"",""time""
""fullscreenenter"",""0"",""9793""
","
",2025.5849999375641,<img style='border: 4px solid darkgrey;' src='img/tf1_80_M_ss1.jpeg'></img>,2,NA,exp,NA,2,<img src='img/tf1_80_T1_ss1_md.jpeg'></img>,0,FALSE,NA,sub142
NA,audio-button-response,175,452715,0.0-11.0,"""event"",""trial"",""time""
""focus"",""0"",""7631""
""fullscreenenter"",""0"",""9793""
","
","""event"",""trial"",""time""
""focus"",""0"",""7631""
","""event"",""trial"",""time""
""fullscreenenter"",""0"",""9793""
","
",5392.279999912716,audio/mars_instructions_slide5.wav,0,NA,NA,NA,NA,NA,NA,NA,NA,sub142
