success,trial_type,trial_index,time_elapsed,internal_node_id,interactions,blur_events,focus_events,fullscreenenter_events,fullscreenexit_events,rt,stimulus,button_pressed,key_press,part,timestamp,unshuffled_button,correct_response,correct_button,correct,value,subject_id
TRUE,fullscreen,0,6964,0.0-0.0,"""event"",""trial"",""time""
""focus"",""0"",""3503""
""fullscreenenter"",""0"",""5979""
","
","""event"",""trial"",""time""
""focus"",""0"",""3503""
","""event"",""trial"",""time""
""fullscreenenter"",""0"",""5979""
","
",NA,NA,NA,NA,NA,NA,NA,NA,NA,NA,NA,sub63
NA,pavlovia,1,6971,0.0-1.0,"""event"",""trial"",""time""
""focus"",""0"",""3503""
""fullscreenenter"",""0"",""5979""
","
","""event"",""trial"",""time""
""focus"",""0"",""3503""
","""event"",""trial"",""time""
""fullscreenenter"",""0"",""5979""
","
",NA,NA,NA,NA,NA,NA,NA,NA,NA,NA,NA,sub63
NA,html-button-response,2,8405,0.0-2.0,"""event"",""trial"",""time""
""focus"",""0"",""3503""
""fullscreenenter"",""0"",""5979""
","
","""event"",""trial"",""time""
""focus"",""0"",""3503""
","""event"",""trial"",""time""
""fullscreenenter"",""0"",""5979""
","
",1432.1150000032503,<p>Welcome! Press START to begin.</p><br>,0,NA,NA,NA,NA,NA,NA,NA,NA,sub63
NA,audio-button-response,3,20095,0.0-3.0,"""event"",""trial"",""time""
""focus"",""0"",""3503""
""fullscreenenter"",""0"",""5979""
","
","""event"",""trial"",""time""
""focus"",""0"",""3503""
","""event"",""trial"",""time""
""fullscreenenter"",""0"",""5979""
","
",11686.130000001867,audio/mars_instructions_slide2.wav,0,NA,NA,NA,NA,NA,NA,NA,NA,sub63
NA,audio-button-response,4,27133,0.0-4.0,"""event"",""trial"",""time""
""focus"",""0"",""3503""
""fullscreenenter"",""0"",""5979""
","
","""event"",""trial"",""time""
""focus"",""0"",""3503""
","""event"",""trial"",""time""
""fullscreenenter"",""0"",""5979""
","
",7036.704999991343,audio/mars_instructions_slide3.wav,0,NA,NA,NA,NA,NA,NA,NA,NA,sub63
NA,html-keyboard-response,5,27636,0.0-5.0-0.0,"""event"",""trial"",""time""
""focus"",""0"",""3503""
""fullscreenenter"",""0"",""5979""
","
","""event"",""trial"",""time""
""focus"",""0"",""3503""
","""event"",""trial"",""time""
""fullscreenenter"",""0"",""5979""
","
",null,"<div style=""font-size:60px;"">+</div>",NA,null,fixation,2020-06-19T17:25:36Z,NA,NA,NA,NA,NA,sub63
NA,mars-trial,6,34487,0.0-5.0-1.0,"""event"",""trial"",""time""
""focus"",""0"",""3503""
""fullscreenenter"",""0"",""5979""
","
","""event"",""trial"",""time""
""focus"",""0"",""3503""
","""event"",""trial"",""time""
""fullscreenenter"",""0"",""5979""
","
",4738.045000005513,<img style='border: 4px solid darkgrey;' src='practice/pt1_M1.png'></img>,2,NA,practice,NA,0,<img src='practice/pt1_T1.png'></img>,0,TRUE,NA,sub63
NA,html-keyboard-response,7,34991,0.0-6.0-0.0,"""event"",""trial"",""time""
""focus"",""0"",""3503""
""fullscreenenter"",""0"",""5979""
","
","""event"",""trial"",""time""
""focus"",""0"",""3503""
","""event"",""trial"",""time""
""fullscreenenter"",""0"",""5979""
","
",null,"<div style=""font-size:60px;"">+</div>",NA,null,fixation,2020-06-19T17:25:43Z,NA,NA,NA,NA,NA,sub63
NA,mars-trial,8,39280,0.0-6.0-1.0,"""event"",""trial"",""time""
""focus"",""0"",""3503""
""fullscreenenter"",""0"",""5979""
","
","""event"",""trial"",""time""
""focus"",""0"",""3503""
","""event"",""trial"",""time""
""fullscreenenter"",""0"",""5979""
","
",2181.4049999957206,<img style='border: 4px solid darkgrey;' src='practice/pt2_M1.png'></img>,3,NA,practice,NA,0,<img src='practice/pt2_T1.png'></img>,0,TRUE,NA,sub63
NA,html-keyboard-response,9,39785,0.0-7.0-0.0,"""event"",""trial"",""time""
""focus"",""0"",""3503""
""fullscreenenter"",""0"",""5979""
","
","""event"",""trial"",""time""
""focus"",""0"",""3503""
","""event"",""trial"",""time""
""fullscreenenter"",""0"",""5979""
","
",null,"<div style=""font-size:60px;"">+</div>",NA,null,fixation,2020-06-19T17:25:48Z,NA,NA,NA,NA,NA,sub63
NA,mars-trial,10,43088,0.0-7.0-1.0,"""event"",""trial"",""time""
""focus"",""0"",""3503""
""fullscreenenter"",""0"",""5979""
","
","""event"",""trial"",""time""
""focus"",""0"",""3503""
","""event"",""trial"",""time""
""fullscreenenter"",""0"",""5979""
","
",1192.0399999944493,<img style='border: 4px solid darkgrey;' src='practice/pt3_M1.png'></img>,1,NA,practice,NA,0,<img src='practice/pt3_T1.png'></img>,0,TRUE,NA,sub63
NA,audio-button-response,11,45999,0.0-8.0,"""event"",""trial"",""time""
""focus"",""0"",""3503""
""fullscreenenter"",""0"",""5979""
","
","""event"",""trial"",""time""
""focus"",""0"",""3503""
","""event"",""trial"",""time""
""fullscreenenter"",""0"",""5979""
","
",2909.3050000083167,audio/mars_instructions_slide4.wav,0,NA,NA,NA,NA,NA,NA,NA,NA,sub63
NA,call-function,12,46001,0.0-9.0,"""event"",""trial"",""time""
""focus"",""0"",""3503""
""fullscreenenter"",""0"",""5979""
","
","""event"",""trial"",""time""
""focus"",""0"",""3503""
","""event"",""trial"",""time""
""fullscreenenter"",""0"",""5979""
","
",NA,NA,NA,NA,NA,NA,NA,NA,NA,NA,NA,sub63
NA,html-keyboard-response,13,46506,0.0-10.0-0.0,"""event"",""trial"",""time""
""focus"",""0"",""3503""
""fullscreenenter"",""0"",""5979""
","
","""event"",""trial"",""time""
""focus"",""0"",""3503""
","""event"",""trial"",""time""
""fullscreenenter"",""0"",""5979""
","
",null,"<div style=""font-size:60px;"">+</div>",NA,null,fixation,2020-06-19T17:25:55Z,NA,NA,NA,NA,NA,sub63
NA,mars-trial,14,48325,0.0-10.0-1.0,"""event"",""trial"",""time""
""focus"",""0"",""3503""
""fullscreenenter"",""0"",""5979""
","
","""event"",""trial"",""time""
""focus"",""0"",""3503""
","""event"",""trial"",""time""
""fullscreenenter"",""0"",""5979""
","
",1206.7799999931594,<img style='border: 4px solid darkgrey;' src='img/tf1_1_M_ss3.jpeg'></img>,3,NA,exp,NA,0,<img src='img/tf1_1_T1_ss3_md.jpeg'></img>,0,TRUE,NA,sub63
NA,html-keyboard-response,15,48831,0.0-10.0-0.1,"""event"",""trial"",""time""
""focus"",""0"",""3503""
""fullscreenenter"",""0"",""5979""
","
","""event"",""trial"",""time""
""focus"",""0"",""3503""
","""event"",""trial"",""time""
""fullscreenenter"",""0"",""5979""
","
",null,"<div style=""font-size:60px;"">+</div>",NA,null,fixation,2020-06-19T17:25:57Z,NA,NA,NA,NA,NA,sub63
NA,mars-trial,16,51513,0.0-10.0-1.1,"""event"",""trial"",""time""
""focus"",""0"",""3503""
""fullscreenenter"",""0"",""5979""
","
","""event"",""trial"",""time""
""focus"",""0"",""3503""
","""event"",""trial"",""time""
""fullscreenenter"",""0"",""5979""
","
",2070.1200000039535,<img style='border: 4px solid darkgrey;' src='img/tf1_2_M_ss1.jpeg'></img>,1,NA,exp,NA,0,<img src='img/tf1_2_T1_ss1_md.jpeg'></img>,0,TRUE,NA,sub63
NA,html-keyboard-response,17,52018,0.0-10.0-0.2,"""event"",""trial"",""time""
""focus"",""0"",""3503""
""fullscreenenter"",""0"",""5979""
","
","""event"",""trial"",""time""
""focus"",""0"",""3503""
","""event"",""trial"",""time""
""fullscreenenter"",""0"",""5979""
","
",null,"<div style=""font-size:60px;"">+</div>",NA,null,fixation,2020-06-19T17:26:00Z,NA,NA,NA,NA,NA,sub63
NA,mars-trial,18,54448,0.0-10.0-1.2,"""event"",""trial"",""time""
""focus"",""0"",""3503""
""fullscreenenter"",""0"",""5979""
","
","""event"",""trial"",""time""
""focus"",""0"",""3503""
","""event"",""trial"",""time""
""fullscreenenter"",""0"",""5979""
","
",1818.1550000008428,<img style='border: 4px solid darkgrey;' src='img/tf1_3_M_ss2.jpeg'></img>,1,NA,exp,NA,0,<img src='img/tf1_3_T1_ss2_md.jpeg'></img>,0,TRUE,NA,sub63
NA,html-keyboard-response,19,54954,0.0-10.0-0.3,"""event"",""trial"",""time""
""focus"",""0"",""3503""
""fullscreenenter"",""0"",""5979""
","
","""event"",""trial"",""time""
""focus"",""0"",""3503""
","""event"",""trial"",""time""
""fullscreenenter"",""0"",""5979""
","
",null,"<div style=""font-size:60px;"">+</div>",NA,null,fixation,2020-06-19T17:26:03Z,NA,NA,NA,NA,NA,sub63
NA,mars-trial,20,57953,0.0-10.0-1.3,"""event"",""trial"",""time""
""focus"",""0"",""3503""
""fullscreenenter"",""0"",""5979""
","
","""event"",""trial"",""time""
""focus"",""0"",""3503""
","""event"",""trial"",""time""
""fullscreenenter"",""0"",""5979""
","
",2385.9599999996135,<img style='border: 4px solid darkgrey;' src='img/tf1_4_M_ss3.jpeg'></img>,2,NA,exp,NA,0,<img src='img/tf1_4_T1_ss3_md.jpeg'></img>,0,TRUE,NA,sub63
NA,html-keyboard-response,21,58455,0.0-10.0-0.4,"""event"",""trial"",""time""
""focus"",""0"",""3503""
""fullscreenenter"",""0"",""5979""
","
","""event"",""trial"",""time""
""focus"",""0"",""3503""
","""event"",""trial"",""time""
""fullscreenenter"",""0"",""5979""
","
",null,"<div style=""font-size:60px;"">+</div>",NA,null,fixation,2020-06-19T17:26:07Z,NA,NA,NA,NA,NA,sub63
NA,mars-trial,22,60116,0.0-10.0-1.4,"""event"",""trial"",""time""
""focus"",""0"",""3503""
""fullscreenenter"",""0"",""5979""
","
","""event"",""trial"",""time""
""focus"",""0"",""3503""
","""event"",""trial"",""time""
""fullscreenenter"",""0"",""5979""
","
",1050.8700000063982,<img style='border: 4px solid darkgrey;' src='img/tf1_5_M_ss1.jpeg'></img>,1,NA,exp,NA,0,<img src='img/tf1_5_T1_ss1_md.jpeg'></img>,0,TRUE,NA,sub63
NA,html-keyboard-response,23,60621,0.0-10.0-0.5,"""event"",""trial"",""time""
""focus"",""0"",""3503""
""fullscreenenter"",""0"",""5979""
","
","""event"",""trial"",""time""
""focus"",""0"",""3503""
","""event"",""trial"",""time""
""fullscreenenter"",""0"",""5979""
","
",null,"<div style=""font-size:60px;"">+</div>",NA,null,fixation,2020-06-19T17:26:09Z,NA,NA,NA,NA,NA,sub63
NA,mars-trial,24,67290,0.0-10.0-1.5,"""event"",""trial"",""time""
""focus"",""0"",""3503""
""fullscreenenter"",""0"",""5979""
","
","""event"",""trial"",""time""
""focus"",""0"",""3503""
","""event"",""trial"",""time""
""fullscreenenter"",""0"",""5979""
","
",6058.225000000675,<img style='border: 4px solid darkgrey;' src='img/tf1_6_M_ss2.jpeg'></img>,2,NA,exp,NA,0,<img src='img/tf1_6_T1_ss2_md.jpeg'></img>,0,TRUE,NA,sub63
NA,html-keyboard-response,25,67796,0.0-10.0-0.6,"""event"",""trial"",""time""
""focus"",""0"",""3503""
""fullscreenenter"",""0"",""5979""
","
","""event"",""trial"",""time""
""focus"",""0"",""3503""
","""event"",""trial"",""time""
""fullscreenenter"",""0"",""5979""
","
",null,"<div style=""font-size:60px;"">+</div>",NA,null,fixation,2020-06-19T17:26:16Z,NA,NA,NA,NA,NA,sub63
NA,mars-trial,26,71456,0.0-10.0-1.6,"""event"",""trial"",""time""
""focus"",""0"",""3503""
""fullscreenenter"",""0"",""5979""
","
","""event"",""trial"",""time""
""focus"",""0"",""3503""
","""event"",""trial"",""time""
""fullscreenenter"",""0"",""5979""
","
",3052.5800000032177,<img style='border: 4px solid darkgrey;' src='img/tf1_7_M_ss3.jpeg'></img>,0,NA,exp,NA,0,<img src='img/tf1_7_T1_ss3_md.jpeg'></img>,0,TRUE,NA,sub63
NA,html-keyboard-response,27,71959,0.0-10.0-0.7,"""event"",""trial"",""time""
""focus"",""0"",""3503""
""fullscreenenter"",""0"",""5979""
","
","""event"",""trial"",""time""
""focus"",""0"",""3503""
","""event"",""trial"",""time""
""fullscreenenter"",""0"",""5979""
","
",null,"<div style=""font-size:60px;"">+</div>",NA,null,fixation,2020-06-19T17:26:20Z,NA,NA,NA,NA,NA,sub63
NA,mars-trial,28,75751,0.0-10.0-1.7,"""event"",""trial"",""time""
""focus"",""0"",""3503""
""fullscreenenter"",""0"",""5979""
","
","""event"",""trial"",""time""
""focus"",""0"",""3503""
","""event"",""trial"",""time""
""fullscreenenter"",""0"",""5979""
","
",3184.2649999889545,<img style='border: 4px solid darkgrey;' src='img/tf1_8_M_ss1.jpeg'></img>,2,NA,exp,NA,0,<img src='img/tf1_8_T1_ss1_md.jpeg'></img>,0,TRUE,NA,sub63
NA,html-keyboard-response,29,76256,0.0-10.0-0.8,"""event"",""trial"",""time""
""focus"",""0"",""3503""
""fullscreenenter"",""0"",""5979""
","
","""event"",""trial"",""time""
""focus"",""0"",""3503""
","""event"",""trial"",""time""
""fullscreenenter"",""0"",""5979""
","
",null,"<div style=""font-size:60px;"">+</div>",NA,null,fixation,2020-06-19T17:26:24Z,NA,NA,NA,NA,NA,sub63
NA,mars-trial,30,80908,0.0-10.0-1.8,"""event"",""trial"",""time""
""focus"",""0"",""3503""
""fullscreenenter"",""0"",""5979""
","
","""event"",""trial"",""time""
""focus"",""0"",""3503""
","""event"",""trial"",""time""
""fullscreenenter"",""0"",""5979""
","
",4041.2499999947613,<img style='border: 4px solid darkgrey;' src='img/tf1_9_M_ss2.jpeg'></img>,2,NA,exp,NA,0,<img src='img/tf1_9_T1_ss2_md.jpeg'></img>,0,TRUE,NA,sub63
NA,html-keyboard-response,31,81414,0.0-10.0-0.9,"""event"",""trial"",""time""
""focus"",""0"",""3503""
""fullscreenenter"",""0"",""5979""
","
","""event"",""trial"",""time""
""focus"",""0"",""3503""
","""event"",""trial"",""time""
""fullscreenenter"",""0"",""5979""
","
",null,"<div style=""font-size:60px;"">+</div>",NA,null,fixation,2020-06-19T17:26:30Z,NA,NA,NA,NA,NA,sub63
NA,mars-trial,32,87438,0.0-10.0-1.9,"""event"",""trial"",""time""
""focus"",""0"",""3503""
""fullscreenenter"",""0"",""5979""
","
","""event"",""trial"",""time""
""focus"",""0"",""3503""
","""event"",""trial"",""time""
""fullscreenenter"",""0"",""5979""
","
",5417.484999998123,<img style='border: 4px solid darkgrey;' src='img/tf1_10_M_ss3.jpeg'></img>,2,NA,exp,NA,0,<img src='img/tf1_10_T1_ss3_md.jpeg'></img>,0,TRUE,NA,sub63
NA,html-keyboard-response,33,87944,0.0-10.0-0.10,"""event"",""trial"",""time""
""focus"",""0"",""3503""
""fullscreenenter"",""0"",""5979""
","
","""event"",""trial"",""time""
""focus"",""0"",""3503""
","""event"",""trial"",""time""
""fullscreenenter"",""0"",""5979""
","
",null,"<div style=""font-size:60px;"">+</div>",NA,null,fixation,2020-06-19T17:26:36Z,NA,NA,NA,NA,NA,sub63
NA,mars-trial,34,93681,0.0-10.0-1.10,"""event"",""trial"",""time""
""focus"",""0"",""3503""
""fullscreenenter"",""0"",""5979""
","
","""event"",""trial"",""time""
""focus"",""0"",""3503""
","""event"",""trial"",""time""
""fullscreenenter"",""0"",""5979""
","
",5126.000000003842,<img style='border: 4px solid darkgrey;' src='img/tf1_11_M_ss1.jpeg'></img>,1,NA,exp,NA,1,<img src='img/tf1_11_T1_ss1_md.jpeg'></img>,0,FALSE,NA,sub63
NA,html-keyboard-response,35,94186,0.0-10.0-0.11,"""event"",""trial"",""time""
""focus"",""0"",""3503""
""fullscreenenter"",""0"",""5979""
","
","""event"",""trial"",""time""
""focus"",""0"",""3503""
","""event"",""trial"",""time""
""fullscreenenter"",""0"",""5979""
","
",null,"<div style=""font-size:60px;"">+</div>",NA,null,fixation,2020-06-19T17:26:42Z,NA,NA,NA,NA,NA,sub63
NA,mars-trial,36,104074,0.0-10.0-1.11,"""event"",""trial"",""time""
""focus"",""0"",""3503""
""fullscreenenter"",""0"",""5979""
","
","""event"",""trial"",""time""
""focus"",""0"",""3503""
","""event"",""trial"",""time""
""fullscreenenter"",""0"",""5979""
","
",9279.320000001462,<img style='border: 4px solid darkgrey;' src='img/tf1_12_M_ss2.jpeg'></img>,1,NA,exp,NA,2,<img src='img/tf1_12_T1_ss2_md.jpeg'></img>,0,FALSE,NA,sub63
NA,html-keyboard-response,37,104578,0.0-10.0-0.12,"""event"",""trial"",""time""
""focus"",""0"",""3503""
""fullscreenenter"",""0"",""5979""
","
","""event"",""trial"",""time""
""focus"",""0"",""3503""
","""event"",""trial"",""time""
""fullscreenenter"",""0"",""5979""
","
",null,"<div style=""font-size:60px;"">+</div>",NA,null,fixation,2020-06-19T17:26:53Z,NA,NA,NA,NA,NA,sub63
NA,mars-trial,38,112587,0.0-10.0-1.12,"""event"",""trial"",""time""
""focus"",""0"",""3503""
""fullscreenenter"",""0"",""5979""
","
","""event"",""trial"",""time""
""focus"",""0"",""3503""
","""event"",""trial"",""time""
""fullscreenenter"",""0"",""5979""
","
",7398.824999996577,<img style='border: 4px solid darkgrey;' src='img/tf1_13_M_ss3.jpeg'></img>,0,NA,exp,NA,2,<img src='img/tf1_13_T1_ss3_md.jpeg'></img>,0,FALSE,NA,sub63
NA,html-keyboard-response,39,113093,0.0-10.0-0.13,"""event"",""trial"",""time""
""focus"",""0"",""3503""
""fullscreenenter"",""0"",""5979""
","
","""event"",""trial"",""time""
""focus"",""0"",""3503""
","""event"",""trial"",""time""
""fullscreenenter"",""0"",""5979""
","
",null,"<div style=""font-size:60px;"">+</div>",NA,null,fixation,2020-06-19T17:27:01Z,NA,NA,NA,NA,NA,sub63
NA,mars-trial,40,127252,0.0-10.0-1.13,"""event"",""trial"",""time""
""focus"",""0"",""3503""
""fullscreenenter"",""0"",""5979""
","
","""event"",""trial"",""time""
""focus"",""0"",""3503""
","""event"",""trial"",""time""
""fullscreenenter"",""0"",""5979""
","
",13544.760000004317,<img style='border: 4px solid darkgrey;' src='img/tf1_14_M_ss1.jpeg'></img>,1,NA,exp,NA,3,<img src='img/tf1_14_T1_ss1_md.jpeg'></img>,0,FALSE,NA,sub63
NA,html-keyboard-response,41,127757,0.0-10.0-0.14,"""event"",""trial"",""time""
""focus"",""0"",""3503""
""fullscreenenter"",""0"",""5979""
","
","""event"",""trial"",""time""
""focus"",""0"",""3503""
","""event"",""trial"",""time""
""fullscreenenter"",""0"",""5979""
","
",null,"<div style=""font-size:60px;"">+</div>",NA,null,fixation,2020-06-19T17:27:16Z,NA,NA,NA,NA,NA,sub63
NA,mars-trial,42,141847,0.0-10.0-1.14,"""event"",""trial"",""time""
""focus"",""0"",""3503""
""fullscreenenter"",""0"",""5979""
","
","""event"",""trial"",""time""
""focus"",""0"",""3503""
","""event"",""trial"",""time""
""fullscreenenter"",""0"",""5979""
","
",13483.284999994794,<img style='border: 4px solid darkgrey;' src='img/tf1_15_M_ss2.jpeg'></img>,0,NA,exp,NA,1,<img src='img/tf1_15_T1_ss2_md.jpeg'></img>,0,FALSE,NA,sub63
NA,html-keyboard-response,43,142352,0.0-10.0-0.15,"""event"",""trial"",""time""
""focus"",""0"",""3503""
""fullscreenenter"",""0"",""5979""
""blur"",""44"",""163590""
""focus"",""44"",""165857""
","""event"",""trial"",""time""
""blur"",""44"",""163590""
","""event"",""trial"",""time""
""focus"",""0"",""3503""
""focus"",""44"",""165857""
","""event"",""trial"",""time""
""fullscreenenter"",""0"",""5979""
","
",null,"<div style=""font-size:60px;"">+</div>",NA,null,fixation,2020-06-19T17:27:30Z,NA,NA,NA,NA,NA,sub63
NA,mars-trial,44,166877,0.0-10.0-1.15,"""event"",""trial"",""time""
""focus"",""0"",""3503""
""fullscreenenter"",""0"",""5979""
""blur"",""44"",""163590""
""focus"",""44"",""165857""
","""event"",""trial"",""time""
""blur"",""44"",""163590""
","""event"",""trial"",""time""
""focus"",""0"",""3503""
""focus"",""44"",""165857""
","""event"",""trial"",""time""
""fullscreenenter"",""0"",""5979""
","
",23914.14999999688,<img style='border: 4px solid darkgrey;' src='img/tf1_16_M_ss3.jpeg'></img>,1,NA,exp,NA,3,<img src='img/tf1_16_T1_ss3_md.jpeg'></img>,0,FALSE,NA,sub63
NA,html-keyboard-response,45,167381,0.0-10.0-0.16,"""event"",""trial"",""time""
""focus"",""0"",""3503""
""fullscreenenter"",""0"",""5979""
""blur"",""44"",""163590""
""focus"",""44"",""165857""
","""event"",""trial"",""time""
""blur"",""44"",""163590""
","""event"",""trial"",""time""
""focus"",""0"",""3503""
""focus"",""44"",""165857""
","""event"",""trial"",""time""
""fullscreenenter"",""0"",""5979""
","
",null,"<div style=""font-size:60px;"">+</div>",NA,null,fixation,2020-06-19T17:27:55Z,NA,NA,NA,NA,NA,sub63
NA,mars-trial,46,172505,0.0-10.0-1.16,"""event"",""trial"",""time""
""focus"",""0"",""3503""
""fullscreenenter"",""0"",""5979""
""blur"",""44"",""163590""
""focus"",""44"",""165857""
","""event"",""trial"",""time""
""blur"",""44"",""163590""
","""event"",""trial"",""time""
""focus"",""0"",""3503""
""focus"",""44"",""165857""
","""event"",""trial"",""time""
""fullscreenenter"",""0"",""5979""
","
",4502.595000012661,<img style='border: 4px solid darkgrey;' src='img/tf1_17_M_ss1.jpeg'></img>,1,NA,exp,NA,2,<img src='img/tf1_17_T1_ss1_md.jpeg'></img>,0,FALSE,NA,sub63
NA,html-keyboard-response,47,173010,0.0-10.0-0.17,"""event"",""trial"",""time""
""focus"",""0"",""3503""
""fullscreenenter"",""0"",""5979""
""blur"",""44"",""163590""
""focus"",""44"",""165857""
","""event"",""trial"",""time""
""blur"",""44"",""163590""
","""event"",""trial"",""time""
""focus"",""0"",""3503""
""focus"",""44"",""165857""
","""event"",""trial"",""time""
""fullscreenenter"",""0"",""5979""
","
",null,"<div style=""font-size:60px;"">+</div>",NA,null,fixation,2020-06-19T17:28:01Z,NA,NA,NA,NA,NA,sub63
NA,mars-trial,48,184326,0.0-10.0-1.17,"""event"",""trial"",""time""
""focus"",""0"",""3503""
""fullscreenenter"",""0"",""5979""
""blur"",""44"",""163590""
""focus"",""44"",""165857""
","""event"",""trial"",""time""
""blur"",""44"",""163590""
","""event"",""trial"",""time""
""focus"",""0"",""3503""
""focus"",""44"",""165857""
","""event"",""trial"",""time""
""fullscreenenter"",""0"",""5979""
","
",10704.93500000157,<img style='border: 4px solid darkgrey;' src='img/tf1_18_M_ss2.jpeg'></img>,1,NA,exp,NA,2,<img src='img/tf1_18_T1_ss2_md.jpeg'></img>,0,FALSE,NA,sub63
NA,html-keyboard-response,49,184830,0.0-10.0-0.18,"""event"",""trial"",""time""
""focus"",""0"",""3503""
""fullscreenenter"",""0"",""5979""
""blur"",""44"",""163590""
""focus"",""44"",""165857""
","""event"",""trial"",""time""
""blur"",""44"",""163590""
","""event"",""trial"",""time""
""focus"",""0"",""3503""
""focus"",""44"",""165857""
","""event"",""trial"",""time""
""fullscreenenter"",""0"",""5979""
","
",null,"<div style=""font-size:60px;"">+</div>",NA,null,fixation,2020-06-19T17:28:13Z,NA,NA,NA,NA,NA,sub63
NA,mars-trial,50,191017,0.0-10.0-1.18,"""event"",""trial"",""time""
""focus"",""0"",""3503""
""fullscreenenter"",""0"",""5979""
""blur"",""44"",""163590""
""focus"",""44"",""165857""
","""event"",""trial"",""time""
""blur"",""44"",""163590""
","""event"",""trial"",""time""
""focus"",""0"",""3503""
""focus"",""44"",""165857""
","""event"",""trial"",""time""
""fullscreenenter"",""0"",""5979""
","
",5575.584999998682,<img style='border: 4px solid darkgrey;' src='img/tf1_19_M_ss3.jpeg'></img>,1,NA,exp,NA,0,<img src='img/tf1_19_T1_ss3_md.jpeg'></img>,0,TRUE,NA,sub63
NA,html-keyboard-response,51,191519,0.0-10.0-0.19,"""event"",""trial"",""time""
""focus"",""0"",""3503""
""fullscreenenter"",""0"",""5979""
""blur"",""44"",""163590""
""focus"",""44"",""165857""
","""event"",""trial"",""time""
""blur"",""44"",""163590""
","""event"",""trial"",""time""
""focus"",""0"",""3503""
""focus"",""44"",""165857""
","""event"",""trial"",""time""
""fullscreenenter"",""0"",""5979""
","
",null,"<div style=""font-size:60px;"">+</div>",NA,null,fixation,2020-06-19T17:28:20Z,NA,NA,NA,NA,NA,sub63
NA,mars-trial,52,200158,0.0-10.0-1.19,"""event"",""trial"",""time""
""focus"",""0"",""3503""
""fullscreenenter"",""0"",""5979""
""blur"",""44"",""163590""
""focus"",""44"",""165857""
","""event"",""trial"",""time""
""blur"",""44"",""163590""
","""event"",""trial"",""time""
""focus"",""0"",""3503""
""focus"",""44"",""165857""
","""event"",""trial"",""time""
""fullscreenenter"",""0"",""5979""
","
",8025.164999999106,<img style='border: 4px solid darkgrey;' src='img/tf1_20_M_ss1.jpeg'></img>,3,NA,exp,NA,0,<img src='img/tf1_20_T1_ss1_md.jpeg'></img>,0,TRUE,NA,sub63
NA,html-keyboard-response,53,200664,0.0-10.0-0.20,"""event"",""trial"",""time""
""focus"",""0"",""3503""
""fullscreenenter"",""0"",""5979""
""blur"",""44"",""163590""
""focus"",""44"",""165857""
","""event"",""trial"",""time""
""blur"",""44"",""163590""
","""event"",""trial"",""time""
""focus"",""0"",""3503""
""focus"",""44"",""165857""
","""event"",""trial"",""time""
""fullscreenenter"",""0"",""5979""
","
",null,"<div style=""font-size:60px;"">+</div>",NA,null,fixation,2020-06-19T17:28:29Z,NA,NA,NA,NA,NA,sub63
NA,mars-trial,54,212201,0.0-10.0-1.20,"""event"",""trial"",""time""
""focus"",""0"",""3503""
""fullscreenenter"",""0"",""5979""
""blur"",""44"",""163590""
""focus"",""44"",""165857""
","""event"",""trial"",""time""
""blur"",""44"",""163590""
","""event"",""trial"",""time""
""focus"",""0"",""3503""
""focus"",""44"",""165857""
","""event"",""trial"",""time""
""fullscreenenter"",""0"",""5979""
","
",10925.344999996014,<img style='border: 4px solid darkgrey;' src='img/tf1_21_M_ss2.jpeg'></img>,3,NA,exp,NA,1,<img src='img/tf1_21_T1_ss2_md.jpeg'></img>,0,FALSE,NA,sub63
NA,html-keyboard-response,55,212706,0.0-10.0-0.21,"""event"",""trial"",""time""
""focus"",""0"",""3503""
""fullscreenenter"",""0"",""5979""
""blur"",""44"",""163590""
""focus"",""44"",""165857""
","""event"",""trial"",""time""
""blur"",""44"",""163590""
","""event"",""trial"",""time""
""focus"",""0"",""3503""
""focus"",""44"",""165857""
","""event"",""trial"",""time""
""fullscreenenter"",""0"",""5979""
","
",null,"<div style=""font-size:60px;"">+</div>",NA,null,fixation,2020-06-19T17:28:41Z,NA,NA,NA,NA,NA,sub63
NA,mars-trial,56,218471,0.0-10.0-1.21,"""event"",""trial"",""time""
""focus"",""0"",""3503""
""fullscreenenter"",""0"",""5979""
""blur"",""44"",""163590""
""focus"",""44"",""165857""
","""event"",""trial"",""time""
""blur"",""44"",""163590""
","""event"",""trial"",""time""
""focus"",""0"",""3503""
""focus"",""44"",""165857""
","""event"",""trial"",""time""
""fullscreenenter"",""0"",""5979""
","
",5154.020000001765,<img style='border: 4px solid darkgrey;' src='img/tf1_22_M_ss3.jpeg'></img>,3,NA,exp,NA,0,<img src='img/tf1_22_T1_ss3_md.jpeg'></img>,0,TRUE,NA,sub63
NA,html-keyboard-response,57,218983,0.0-10.0-0.22,"""event"",""trial"",""time""
""focus"",""0"",""3503""
""fullscreenenter"",""0"",""5979""
""blur"",""44"",""163590""
""focus"",""44"",""165857""
","""event"",""trial"",""time""
""blur"",""44"",""163590""
","""event"",""trial"",""time""
""focus"",""0"",""3503""
""focus"",""44"",""165857""
","""event"",""trial"",""time""
""fullscreenenter"",""0"",""5979""
","
",null,"<div style=""font-size:60px;"">+</div>",NA,null,fixation,2020-06-19T17:28:47Z,NA,NA,NA,NA,NA,sub63
NA,mars-trial,58,225227,0.0-10.0-1.22,"""event"",""trial"",""time""
""focus"",""0"",""3503""
""fullscreenenter"",""0"",""5979""
""blur"",""44"",""163590""
""focus"",""44"",""165857""
","""event"",""trial"",""time""
""blur"",""44"",""163590""
","""event"",""trial"",""time""
""focus"",""0"",""3503""
""focus"",""44"",""165857""
","""event"",""trial"",""time""
""fullscreenenter"",""0"",""5979""
","
",5633.285000003525,<img style='border: 4px solid darkgrey;' src='img/tf1_23_M_ss1.jpeg'></img>,3,NA,exp,NA,0,<img src='img/tf1_23_T1_ss1_md.jpeg'></img>,0,TRUE,NA,sub63
NA,html-keyboard-response,59,225732,0.0-10.0-0.23,"""event"",""trial"",""time""
""focus"",""0"",""3503""
""fullscreenenter"",""0"",""5979""
""blur"",""44"",""163590""
""focus"",""44"",""165857""
","""event"",""trial"",""time""
""blur"",""44"",""163590""
","""event"",""trial"",""time""
""focus"",""0"",""3503""
""focus"",""44"",""165857""
","""event"",""trial"",""time""
""fullscreenenter"",""0"",""5979""
","
",null,"<div style=""font-size:60px;"">+</div>",NA,null,fixation,2020-06-19T17:28:54Z,NA,NA,NA,NA,NA,sub63
NA,mars-trial,60,236913,0.0-10.0-1.23,"""event"",""trial"",""time""
""focus"",""0"",""3503""
""fullscreenenter"",""0"",""5979""
""blur"",""44"",""163590""
""focus"",""44"",""165857""
","""event"",""trial"",""time""
""blur"",""44"",""163590""
","""event"",""trial"",""time""
""focus"",""0"",""3503""
""focus"",""44"",""165857""
","""event"",""trial"",""time""
""fullscreenenter"",""0"",""5979""
","
",10569.34000000183,<img style='border: 4px solid darkgrey;' src='img/tf1_24_M_ss2.jpeg'></img>,2,NA,exp,NA,2,<img src='img/tf1_24_T1_ss2_md.jpeg'></img>,0,FALSE,NA,sub63
NA,html-keyboard-response,61,237416,0.0-10.0-0.24,"""event"",""trial"",""time""
""focus"",""0"",""3503""
""fullscreenenter"",""0"",""5979""
""blur"",""44"",""163590""
""focus"",""44"",""165857""
","""event"",""trial"",""time""
""blur"",""44"",""163590""
","""event"",""trial"",""time""
""focus"",""0"",""3503""
""focus"",""44"",""165857""
","""event"",""trial"",""time""
""fullscreenenter"",""0"",""5979""
","
",null,"<div style=""font-size:60px;"">+</div>",NA,null,fixation,2020-06-19T17:29:06Z,NA,NA,NA,NA,NA,sub63
NA,mars-trial,62,243364,0.0-10.0-1.24,"""event"",""trial"",""time""
""focus"",""0"",""3503""
""fullscreenenter"",""0"",""5979""
""blur"",""44"",""163590""
""focus"",""44"",""165857""
","""event"",""trial"",""time""
""blur"",""44"",""163590""
","""event"",""trial"",""time""
""focus"",""0"",""3503""
""focus"",""44"",""165857""
","""event"",""trial"",""time""
""fullscreenenter"",""0"",""5979""
","
",5336.309999998775,<img style='border: 4px solid darkgrey;' src='img/tf1_25_M_ss3.jpeg'></img>,2,NA,exp,NA,0,<img src='img/tf1_25_T1_ss3_md.jpeg'></img>,0,TRUE,NA,sub63
NA,html-keyboard-response,63,243870,0.0-10.0-0.25,"""event"",""trial"",""time""
""focus"",""0"",""3503""
""fullscreenenter"",""0"",""5979""
""blur"",""44"",""163590""
""focus"",""44"",""165857""
","""event"",""trial"",""time""
""blur"",""44"",""163590""
","""event"",""trial"",""time""
""focus"",""0"",""3503""
""focus"",""44"",""165857""
","""event"",""trial"",""time""
""fullscreenenter"",""0"",""5979""
","
",null,"<div style=""font-size:60px;"">+</div>",NA,null,fixation,2020-06-19T17:29:12Z,NA,NA,NA,NA,NA,sub63
NA,mars-trial,64,265177,0.0-10.0-1.25,"""event"",""trial"",""time""
""focus"",""0"",""3503""
""fullscreenenter"",""0"",""5979""
""blur"",""44"",""163590""
""focus"",""44"",""165857""
","""event"",""trial"",""time""
""blur"",""44"",""163590""
","""event"",""trial"",""time""
""focus"",""0"",""3503""
""focus"",""44"",""165857""
","""event"",""trial"",""time""
""fullscreenenter"",""0"",""5979""
","
",20696.494999996503,<img style='border: 4px solid darkgrey;' src='img/tf1_26_M_ss1.jpeg'></img>,2,NA,exp,NA,0,<img src='img/tf1_26_T1_ss1_md.jpeg'></img>,0,TRUE,NA,sub63
NA,html-keyboard-response,65,265679,0.0-10.0-0.26,"""event"",""trial"",""time""
""focus"",""0"",""3503""
""fullscreenenter"",""0"",""5979""
""blur"",""44"",""163590""
""focus"",""44"",""165857""
","""event"",""trial"",""time""
""blur"",""44"",""163590""
","""event"",""trial"",""time""
""focus"",""0"",""3503""
""focus"",""44"",""165857""
","""event"",""trial"",""time""
""fullscreenenter"",""0"",""5979""
","
",null,"<div style=""font-size:60px;"">+</div>",NA,null,fixation,2020-06-19T17:29:34Z,NA,NA,NA,NA,NA,sub63
NA,mars-trial,66,281040,0.0-10.0-1.26,"""event"",""trial"",""time""
""focus"",""0"",""3503""
""fullscreenenter"",""0"",""5979""
""blur"",""44"",""163590""
""focus"",""44"",""165857""
","""event"",""trial"",""time""
""blur"",""44"",""163590""
","""event"",""trial"",""time""
""focus"",""0"",""3503""
""focus"",""44"",""165857""
","""event"",""trial"",""time""
""fullscreenenter"",""0"",""5979""
","
",14748.510000004899,<img style='border: 4px solid darkgrey;' src='img/tf1_27_M_ss2.jpeg'></img>,2,NA,exp,NA,0,<img src='img/tf1_27_T1_ss2_md.jpeg'></img>,0,TRUE,NA,sub63
NA,html-keyboard-response,67,281544,0.0-10.0-0.27,"""event"",""trial"",""time""
""focus"",""0"",""3503""
""fullscreenenter"",""0"",""5979""
""blur"",""44"",""163590""
""focus"",""44"",""165857""
","""event"",""trial"",""time""
""blur"",""44"",""163590""
","""event"",""trial"",""time""
""focus"",""0"",""3503""
""focus"",""44"",""165857""
","""event"",""trial"",""time""
""fullscreenenter"",""0"",""5979""
","
",null,"<div style=""font-size:60px;"">+</div>",NA,null,fixation,2020-06-19T17:29:50Z,NA,NA,NA,NA,NA,sub63
NA,mars-trial,68,295480,0.0-10.0-1.27,"""event"",""trial"",""time""
""focus"",""0"",""3503""
""fullscreenenter"",""0"",""5979""
""blur"",""44"",""163590""
""focus"",""44"",""165857""
","""event"",""trial"",""time""
""blur"",""44"",""163590""
","""event"",""trial"",""time""
""focus"",""0"",""3503""
""focus"",""44"",""165857""
","""event"",""trial"",""time""
""fullscreenenter"",""0"",""5979""
","
",13323.850000000675,<img style='border: 4px solid darkgrey;' src='img/tf1_28_M_ss3.jpeg'></img>,2,NA,exp,NA,0,<img src='img/tf1_28_T1_ss3_md.jpeg'></img>,0,TRUE,NA,sub63
NA,html-keyboard-response,69,295985,0.0-10.0-0.28,"""event"",""trial"",""time""
""focus"",""0"",""3503""
""fullscreenenter"",""0"",""5979""
""blur"",""44"",""163590""
""focus"",""44"",""165857""
","""event"",""trial"",""time""
""blur"",""44"",""163590""
","""event"",""trial"",""time""
""focus"",""0"",""3503""
""focus"",""44"",""165857""
","""event"",""trial"",""time""
""fullscreenenter"",""0"",""5979""
","
",null,"<div style=""font-size:60px;"">+</div>",NA,null,fixation,2020-06-19T17:30:04Z,NA,NA,NA,NA,NA,sub63
NA,mars-trial,70,309630,0.0-10.0-1.28,"""event"",""trial"",""time""
""focus"",""0"",""3503""
""fullscreenenter"",""0"",""5979""
""blur"",""44"",""163590""
""focus"",""44"",""165857""
","""event"",""trial"",""time""
""blur"",""44"",""163590""
","""event"",""trial"",""time""
""focus"",""0"",""3503""
""focus"",""44"",""165857""
","""event"",""trial"",""time""
""fullscreenenter"",""0"",""5979""
","
",13027.020000008633,<img style='border: 4px solid darkgrey;' src='img/tf1_29_M_ss1.jpeg'></img>,1,NA,exp,NA,1,<img src='img/tf1_29_T1_ss1_md.jpeg'></img>,0,FALSE,NA,sub63
NA,html-keyboard-response,71,310134,0.0-10.0-0.29,"""event"",""trial"",""time""
""focus"",""0"",""3503""
""fullscreenenter"",""0"",""5979""
""blur"",""44"",""163590""
""focus"",""44"",""165857""
","""event"",""trial"",""time""
""blur"",""44"",""163590""
","""event"",""trial"",""time""
""focus"",""0"",""3503""
""focus"",""44"",""165857""
","""event"",""trial"",""time""
""fullscreenenter"",""0"",""5979""
","
",null,"<div style=""font-size:60px;"">+</div>",NA,null,fixation,2020-06-19T17:30:18Z,NA,NA,NA,NA,NA,sub63
NA,mars-trial,72,325265,0.0-10.0-1.29,"""event"",""trial"",""time""
""focus"",""0"",""3503""
""fullscreenenter"",""0"",""5979""
""blur"",""44"",""163590""
""focus"",""44"",""165857""
","""event"",""trial"",""time""
""blur"",""44"",""163590""
","""event"",""trial"",""time""
""focus"",""0"",""3503""
""focus"",""44"",""165857""
","""event"",""trial"",""time""
""fullscreenenter"",""0"",""5979""
","
",14517.76499999687,<img style='border: 4px solid darkgrey;' src='img/tf1_30_M_ss2.jpeg'></img>,1,NA,exp,NA,2,<img src='img/tf1_30_T1_ss2_md.jpeg'></img>,0,FALSE,NA,sub63
NA,html-keyboard-response,73,325770,0.0-10.0-0.30,"""event"",""trial"",""time""
""focus"",""0"",""3503""
""fullscreenenter"",""0"",""5979""
""blur"",""44"",""163590""
""focus"",""44"",""165857""
","""event"",""trial"",""time""
""blur"",""44"",""163590""
","""event"",""trial"",""time""
""focus"",""0"",""3503""
""focus"",""44"",""165857""
","""event"",""trial"",""time""
""fullscreenenter"",""0"",""5979""
","
",null,"<div style=""font-size:60px;"">+</div>",NA,null,fixation,2020-06-19T17:30:34Z,NA,NA,NA,NA,NA,sub63
NA,mars-trial,74,339776,0.0-10.0-1.30,"""event"",""trial"",""time""
""focus"",""0"",""3503""
""fullscreenenter"",""0"",""5979""
""blur"",""44"",""163590""
""focus"",""44"",""165857""
","""event"",""trial"",""time""
""blur"",""44"",""163590""
","""event"",""trial"",""time""
""focus"",""0"",""3503""
""focus"",""44"",""165857""
","""event"",""trial"",""time""
""fullscreenenter"",""0"",""5979""
","
",13393.98500000243,<img style='border: 4px solid darkgrey;' src='img/tf1_31_M_ss3.jpeg'></img>,2,NA,exp,NA,3,<img src='img/tf1_31_T1_ss3_md.jpeg'></img>,0,FALSE,NA,sub63
NA,html-keyboard-response,75,340282,0.0-10.0-0.31,"""event"",""trial"",""time""
""focus"",""0"",""3503""
""fullscreenenter"",""0"",""5979""
""blur"",""44"",""163590""
""focus"",""44"",""165857""
","""event"",""trial"",""time""
""blur"",""44"",""163590""
","""event"",""trial"",""time""
""focus"",""0"",""3503""
""focus"",""44"",""165857""
","""event"",""trial"",""time""
""fullscreenenter"",""0"",""5979""
","
",null,"<div style=""font-size:60px;"">+</div>",NA,null,fixation,2020-06-19T17:30:48Z,NA,NA,NA,NA,NA,sub63
NA,mars-trial,76,353551,0.0-10.0-1.31,"""event"",""trial"",""time""
""focus"",""0"",""3503""
""fullscreenenter"",""0"",""5979""
""blur"",""44"",""163590""
""focus"",""44"",""165857""
","""event"",""trial"",""time""
""blur"",""44"",""163590""
","""event"",""trial"",""time""
""focus"",""0"",""3503""
""focus"",""44"",""165857""
","""event"",""trial"",""time""
""fullscreenenter"",""0"",""5979""
","
",12661.070000001928,<img style='border: 4px solid darkgrey;' src='img/tf1_32_M_ss1.jpeg'></img>,1,NA,exp,NA,3,<img src='img/tf1_32_T1_ss1_md.jpeg'></img>,0,FALSE,NA,sub63
NA,html-keyboard-response,77,354055,0.0-10.0-0.32,"""event"",""trial"",""time""
""focus"",""0"",""3503""
""fullscreenenter"",""0"",""5979""
""blur"",""44"",""163590""
""focus"",""44"",""165857""
","""event"",""trial"",""time""
""blur"",""44"",""163590""
","""event"",""trial"",""time""
""focus"",""0"",""3503""
""focus"",""44"",""165857""
","""event"",""trial"",""time""
""fullscreenenter"",""0"",""5979""
","
",null,"<div style=""font-size:60px;"">+</div>",NA,null,fixation,2020-06-19T17:31:02Z,NA,NA,NA,NA,NA,sub63
NA,mars-trial,78,361571,0.0-10.0-1.32,"""event"",""trial"",""time""
""focus"",""0"",""3503""
""fullscreenenter"",""0"",""5979""
""blur"",""44"",""163590""
""focus"",""44"",""165857""
","""event"",""trial"",""time""
""blur"",""44"",""163590""
","""event"",""trial"",""time""
""focus"",""0"",""3503""
""focus"",""44"",""165857""
","""event"",""trial"",""time""
""fullscreenenter"",""0"",""5979""
","
",6909.274999998161,<img style='border: 4px solid darkgrey;' src='img/tf1_33_M_ss2.jpeg'></img>,1,NA,exp,NA,2,<img src='img/tf1_33_T1_ss2_md.jpeg'></img>,0,FALSE,NA,sub63
NA,html-keyboard-response,79,362077,0.0-10.0-0.33,"""event"",""trial"",""time""
""focus"",""0"",""3503""
""fullscreenenter"",""0"",""5979""
""blur"",""44"",""163590""
""focus"",""44"",""165857""
","""event"",""trial"",""time""
""blur"",""44"",""163590""
","""event"",""trial"",""time""
""focus"",""0"",""3503""
""focus"",""44"",""165857""
","""event"",""trial"",""time""
""fullscreenenter"",""0"",""5979""
","
",null,"<div style=""font-size:60px;"">+</div>",NA,null,fixation,2020-06-19T17:31:10Z,NA,NA,NA,NA,NA,sub63
NA,mars-trial,80,389233,0.0-10.0-1.33,"""event"",""trial"",""time""
""focus"",""0"",""3503""
""fullscreenenter"",""0"",""5979""
""blur"",""44"",""163590""
""focus"",""44"",""165857""
","""event"",""trial"",""time""
""blur"",""44"",""163590""
","""event"",""trial"",""time""
""focus"",""0"",""3503""
""focus"",""44"",""165857""
","""event"",""trial"",""time""
""fullscreenenter"",""0"",""5979""
","
",26542.85000001255,<img style='border: 4px solid darkgrey;' src='img/tf1_34_M_ss3.jpeg'></img>,3,NA,exp,NA,3,<img src='img/tf1_34_T1_ss3_md.jpeg'></img>,0,FALSE,NA,sub63
NA,html-keyboard-response,81,389739,0.0-10.0-0.34,"""event"",""trial"",""time""
""focus"",""0"",""3503""
""fullscreenenter"",""0"",""5979""
""blur"",""44"",""163590""
""focus"",""44"",""165857""
","""event"",""trial"",""time""
""blur"",""44"",""163590""
","""event"",""trial"",""time""
""focus"",""0"",""3503""
""focus"",""44"",""165857""
","""event"",""trial"",""time""
""fullscreenenter"",""0"",""5979""
","
",null,"<div style=""font-size:60px;"">+</div>",NA,null,fixation,2020-06-19T17:31:38Z,NA,NA,NA,NA,NA,sub63
NA,mars-trial,82,412376,0.0-10.0-1.34,"""event"",""trial"",""time""
""focus"",""0"",""3503""
""fullscreenenter"",""0"",""5979""
""blur"",""44"",""163590""
""focus"",""44"",""165857""
","""event"",""trial"",""time""
""blur"",""44"",""163590""
","""event"",""trial"",""time""
""focus"",""0"",""3503""
""focus"",""44"",""165857""
","""event"",""trial"",""time""
""fullscreenenter"",""0"",""5979""
","
",22027.189999993425,<img style='border: 4px solid darkgrey;' src='img/tf1_35_M_ss1.jpeg'></img>,0,NA,exp,NA,0,<img src='img/tf1_35_T1_ss1_md.jpeg'></img>,0,TRUE,NA,sub63
NA,html-keyboard-response,83,412879,0.0-10.0-0.35,"""event"",""trial"",""time""
""focus"",""0"",""3503""
""fullscreenenter"",""0"",""5979""
""blur"",""44"",""163590""
""focus"",""44"",""165857""
","""event"",""trial"",""time""
""blur"",""44"",""163590""
","""event"",""trial"",""time""
""focus"",""0"",""3503""
""focus"",""44"",""165857""
","""event"",""trial"",""time""
""fullscreenenter"",""0"",""5979""
","
",null,"<div style=""font-size:60px;"">+</div>",NA,null,fixation,2020-06-19T17:32:01Z,NA,NA,NA,NA,NA,sub63
NA,mars-trial,84,435060,0.0-10.0-1.35,"""event"",""trial"",""time""
""focus"",""0"",""3503""
""fullscreenenter"",""0"",""5979""
""blur"",""44"",""163590""
""focus"",""44"",""165857""
","""event"",""trial"",""time""
""blur"",""44"",""163590""
","""event"",""trial"",""time""
""focus"",""0"",""3503""
""focus"",""44"",""165857""
","""event"",""trial"",""time""
""fullscreenenter"",""0"",""5979""
","
",21566.974999994272,<img style='border: 4px solid darkgrey;' src='img/tf1_36_M_ss2.jpeg'></img>,1,NA,exp,NA,0,<img src='img/tf1_36_T1_ss2_md.jpeg'></img>,0,TRUE,NA,sub63
NA,html-keyboard-response,85,435564,0.0-10.0-0.36,"""event"",""trial"",""time""
""focus"",""0"",""3503""
""fullscreenenter"",""0"",""5979""
""blur"",""44"",""163590""
""focus"",""44"",""165857""
","""event"",""trial"",""time""
""blur"",""44"",""163590""
","""event"",""trial"",""time""
""focus"",""0"",""3503""
""focus"",""44"",""165857""
","""event"",""trial"",""time""
""fullscreenenter"",""0"",""5979""
","
",null,"<div style=""font-size:60px;"">+</div>",NA,null,fixation,2020-06-19T17:32:24Z,NA,NA,NA,NA,NA,sub63
NA,mars-trial,86,453227,0.0-10.0-1.36,"""event"",""trial"",""time""
""focus"",""0"",""3503""
""fullscreenenter"",""0"",""5979""
""blur"",""44"",""163590""
""focus"",""44"",""165857""
","""event"",""trial"",""time""
""blur"",""44"",""163590""
","""event"",""trial"",""time""
""focus"",""0"",""3503""
""focus"",""44"",""165857""
","""event"",""trial"",""time""
""fullscreenenter"",""0"",""5979""
","
",17054.155000005267,<img style='border: 4px solid darkgrey;' src='img/tf1_37_M_ss3.jpeg'></img>,0,NA,exp,NA,1,<img src='img/tf1_37_T1_ss3_md.jpeg'></img>,0,FALSE,NA,sub63
NA,html-keyboard-response,87,453730,0.0-10.0-0.37,"""event"",""trial"",""time""
""focus"",""0"",""3503""
""fullscreenenter"",""0"",""5979""
""blur"",""44"",""163590""
""focus"",""44"",""165857""
","""event"",""trial"",""time""
""blur"",""44"",""163590""
","""event"",""trial"",""time""
""focus"",""0"",""3503""
""focus"",""44"",""165857""
","""event"",""trial"",""time""
""fullscreenenter"",""0"",""5979""
","
",null,"<div style=""font-size:60px;"">+</div>",NA,null,fixation,2020-06-19T17:32:42Z,NA,NA,NA,NA,NA,sub63
NA,mars-trial,88,457069,0.0-10.0-1.37,"""event"",""trial"",""time""
""focus"",""0"",""3503""
""fullscreenenter"",""0"",""5979""
""blur"",""44"",""163590""
""focus"",""44"",""165857""
","""event"",""trial"",""time""
""blur"",""44"",""163590""
","""event"",""trial"",""time""
""focus"",""0"",""3503""
""focus"",""44"",""165857""
","""event"",""trial"",""time""
""fullscreenenter"",""0"",""5979""
","
",2731.455000001006,<img style='border: 4px solid darkgrey;' src='img/tf1_38_M_ss1.jpeg'></img>,2,NA,exp,NA,0,<img src='img/tf1_38_T1_ss1_md.jpeg'></img>,0,TRUE,NA,sub63
NA,html-keyboard-response,89,457575,0.0-10.0-0.38,"""event"",""trial"",""time""
""focus"",""0"",""3503""
""fullscreenenter"",""0"",""5979""
""blur"",""44"",""163590""
""focus"",""44"",""165857""
","""event"",""trial"",""time""
""blur"",""44"",""163590""
","""event"",""trial"",""time""
""focus"",""0"",""3503""
""focus"",""44"",""165857""
","""event"",""trial"",""time""
""fullscreenenter"",""0"",""5979""
","
",null,"<div style=""font-size:60px;"">+</div>",NA,null,fixation,2020-06-19T17:32:46Z,NA,NA,NA,NA,NA,sub63
NA,mars-trial,90,473698,0.0-10.0-1.38,"""event"",""trial"",""time""
""focus"",""0"",""3503""
""fullscreenenter"",""0"",""5979""
""blur"",""44"",""163590""
""focus"",""44"",""165857""
","""event"",""trial"",""time""
""blur"",""44"",""163590""
","""event"",""trial"",""time""
""focus"",""0"",""3503""
""focus"",""44"",""165857""
","""event"",""trial"",""time""
""fullscreenenter"",""0"",""5979""
","
",15516.485000000102,<img style='border: 4px solid darkgrey;' src='img/tf1_39_M_ss2.jpeg'></img>,1,NA,exp,NA,0,<img src='img/tf1_39_T1_ss2_md.jpeg'></img>,0,TRUE,NA,sub63
NA,html-keyboard-response,91,474209,0.0-10.0-0.39,"""event"",""trial"",""time""
""focus"",""0"",""3503""
""fullscreenenter"",""0"",""5979""
""blur"",""44"",""163590""
""focus"",""44"",""165857""
","""event"",""trial"",""time""
""blur"",""44"",""163590""
","""event"",""trial"",""time""
""focus"",""0"",""3503""
""focus"",""44"",""165857""
","""event"",""trial"",""time""
""fullscreenenter"",""0"",""5979""
","
",null,"<div style=""font-size:60px;"">+</div>",NA,null,fixation,2020-06-19T17:33:02Z,NA,NA,NA,NA,NA,sub63
NA,mars-trial,92,484211,0.0-10.0-1.39,"""event"",""trial"",""time""
""focus"",""0"",""3503""
""fullscreenenter"",""0"",""5979""
""blur"",""44"",""163590""
""focus"",""44"",""165857""
","""event"",""trial"",""time""
""blur"",""44"",""163590""
","""event"",""trial"",""time""
""focus"",""0"",""3503""
""focus"",""44"",""165857""
","""event"",""trial"",""time""
""fullscreenenter"",""0"",""5979""
","
",9392.365000006976,<img style='border: 4px solid darkgrey;' src='img/tf1_40_M_ss3.jpeg'></img>,3,NA,exp,NA,3,<img src='img/tf1_40_T1_ss3_md.jpeg'></img>,0,FALSE,NA,sub63
NA,html-keyboard-response,93,484716,0.0-10.0-0.40,"""event"",""trial"",""time""
""focus"",""0"",""3503""
""fullscreenenter"",""0"",""5979""
""blur"",""44"",""163590""
""focus"",""44"",""165857""
","""event"",""trial"",""time""
""blur"",""44"",""163590""
","""event"",""trial"",""time""
""focus"",""0"",""3503""
""focus"",""44"",""165857""
","""event"",""trial"",""time""
""fullscreenenter"",""0"",""5979""
","
",null,"<div style=""font-size:60px;"">+</div>",NA,null,fixation,2020-06-19T17:33:13Z,NA,NA,NA,NA,NA,sub63
NA,mars-trial,94,490159,0.0-10.0-1.40,"""event"",""trial"",""time""
""focus"",""0"",""3503""
""fullscreenenter"",""0"",""5979""
""blur"",""44"",""163590""
""focus"",""44"",""165857""
","""event"",""trial"",""time""
""blur"",""44"",""163590""
","""event"",""trial"",""time""
""focus"",""0"",""3503""
""focus"",""44"",""165857""
","""event"",""trial"",""time""
""fullscreenenter"",""0"",""5979""
","
",4834.914999999455,<img style='border: 4px solid darkgrey;' src='img/tf1_41_M_ss1.jpeg'></img>,2,NA,exp,NA,0,<img src='img/tf1_41_T1_ss1_md.jpeg'></img>,0,TRUE,NA,sub63
NA,html-keyboard-response,95,490663,0.0-10.0-0.41,"""event"",""trial"",""time""
""focus"",""0"",""3503""
""fullscreenenter"",""0"",""5979""
""blur"",""44"",""163590""
""focus"",""44"",""165857""
","""event"",""trial"",""time""
""blur"",""44"",""163590""
","""event"",""trial"",""time""
""focus"",""0"",""3503""
""focus"",""44"",""165857""
","""event"",""trial"",""time""
""fullscreenenter"",""0"",""5979""
","
",null,"<div style=""font-size:60px;"">+</div>",NA,null,fixation,2020-06-19T17:33:19Z,NA,NA,NA,NA,NA,sub63
NA,mars-trial,96,507981,0.0-10.0-1.41,"""event"",""trial"",""time""
""focus"",""0"",""3503""
""fullscreenenter"",""0"",""5979""
""blur"",""44"",""163590""
""focus"",""44"",""165857""
","""event"",""trial"",""time""
""blur"",""44"",""163590""
","""event"",""trial"",""time""
""focus"",""0"",""3503""
""focus"",""44"",""165857""
","""event"",""trial"",""time""
""fullscreenenter"",""0"",""5979""
","
",16705.470000000787,<img style='border: 4px solid darkgrey;' src='img/tf1_42_M_ss2.jpeg'></img>,2,NA,exp,NA,0,<img src='img/tf1_42_T1_ss2_md.jpeg'></img>,0,TRUE,NA,sub63
NA,html-keyboard-response,97,508484,0.0-10.0-0.42,"""event"",""trial"",""time""
""focus"",""0"",""3503""
""fullscreenenter"",""0"",""5979""
""blur"",""44"",""163590""
""focus"",""44"",""165857""
","""event"",""trial"",""time""
""blur"",""44"",""163590""
","""event"",""trial"",""time""
""focus"",""0"",""3503""
""focus"",""44"",""165857""
","""event"",""trial"",""time""
""fullscreenenter"",""0"",""5979""
","
",null,"<div style=""font-size:60px;"">+</div>",NA,null,fixation,2020-06-19T17:33:37Z,NA,NA,NA,NA,NA,sub63
NA,mars-trial,98,519730,0.0-10.0-1.42,"""event"",""trial"",""time""
""focus"",""0"",""3503""
""fullscreenenter"",""0"",""5979""
""blur"",""44"",""163590""
""focus"",""44"",""165857""
","""event"",""trial"",""time""
""blur"",""44"",""163590""
","""event"",""trial"",""time""
""focus"",""0"",""3503""
""focus"",""44"",""165857""
","""event"",""trial"",""time""
""fullscreenenter"",""0"",""5979""
","
",10633.519999988494,<img style='border: 4px solid darkgrey;' src='img/tf1_43_M_ss3.jpeg'></img>,2,NA,exp,NA,3,<img src='img/tf1_43_T1_ss3_md.jpeg'></img>,0,FALSE,NA,sub63
NA,html-keyboard-response,99,520235,0.0-10.0-0.43,"""event"",""trial"",""time""
""focus"",""0"",""3503""
""fullscreenenter"",""0"",""5979""
""blur"",""44"",""163590""
""focus"",""44"",""165857""
","""event"",""trial"",""time""
""blur"",""44"",""163590""
","""event"",""trial"",""time""
""focus"",""0"",""3503""
""focus"",""44"",""165857""
","""event"",""trial"",""time""
""fullscreenenter"",""0"",""5979""
","
",null,"<div style=""font-size:60px;"">+</div>",NA,null,fixation,2020-06-19T17:33:48Z,NA,NA,NA,NA,NA,sub63
NA,mars-trial,100,526013,0.0-10.0-1.43,"""event"",""trial"",""time""
""focus"",""0"",""3503""
""fullscreenenter"",""0"",""5979""
""blur"",""44"",""163590""
""focus"",""44"",""165857""
","""event"",""trial"",""time""
""blur"",""44"",""163590""
","""event"",""trial"",""time""
""focus"",""0"",""3503""
""focus"",""44"",""165857""
","""event"",""trial"",""time""
""fullscreenenter"",""0"",""5979""
","
",NA,NA,NA,NA,exp,NA,NA,<img src='img/tf1_44_T1_ss1_md.jpeg'></img>,0,FALSE,NA,sub63
NA,html-keyboard-response,101,526515,0.0-10.0-0.44,"""event"",""trial"",""time""
""focus"",""0"",""3503""
""fullscreenenter"",""0"",""5979""
""blur"",""44"",""163590""
""focus"",""44"",""165857""
","""event"",""trial"",""time""
""blur"",""44"",""163590""
","""event"",""trial"",""time""
""focus"",""0"",""3503""
""focus"",""44"",""165857""
","""event"",""trial"",""time""
""fullscreenenter"",""0"",""5979""
","
",null,"<div style=""font-size:60px;"">+</div>",NA,null,fixation,2020-06-19T17:33:55Z,NA,NA,NA,NA,NA,sub63
NA,audio-button-response,102,531113,0.0-11.0,"""event"",""trial"",""time""
""focus"",""0"",""3503""
""fullscreenenter"",""0"",""5979""
""blur"",""44"",""163590""
""focus"",""44"",""165857""
","""event"",""trial"",""time""
""blur"",""44"",""163590""
","""event"",""trial"",""time""
""focus"",""0"",""3503""
""focus"",""44"",""165857""
","""event"",""trial"",""time""
""fullscreenenter"",""0"",""5979""
","
",4493.499999996857,audio/mars_instructions_slide5.wav,0,NA,NA,NA,NA,NA,NA,NA,NA,sub63
